,T,ax,ay,az,gx,gy,gz
0,4425,0.465796,-0.225212,-0.6980841,17.6575,-16.6425,-18.83
1,4570,0.482876,-0.21447600000000003,-0.7549359999999999,40.915,-55.72,-123.7425
2,4668,0.518256,-0.221796,-0.805688,-16.03,-94.02750999999999,-365.295
3,4766,0.521184,-0.223748,-0.80886,29.8725,-104.2475,-85.48751
4,4864,0.5206960999999999,-0.223016,-0.811056,1.435,-7.105,-7.945
5,4962,0.520452,-0.22423600000000002,-0.8105680000000001,0.9275,-5.67,-7.07
6,5060,0.521184,-0.223992,-0.812276,0.945,-5.7225,-6.9825
7,5159,0.521672,-0.22204000000000002,-0.812276,0.91,-5.7225,-7.0175
8,5257,0.52094,-0.223504,-0.81374,0.98,-5.705,-6.93
9,5355,0.521184,-0.223016,-0.813496,0.8575,-5.845,-7.035
10,5453,0.521184,-0.223748,-0.81374,0.9275,-5.8625,-7.14
11,5551,0.522648,-0.22204000000000002,-0.813984,0.945,-5.8275,-7.14
12,5649,0.522404,-0.221796,-0.8149601,0.98,-5.635,-7.0875
13,5747,0.5233800000000001,-0.22277199999999997,-0.813008,0.9625,-5.5125,-7.0875
14,5845,0.5214281,-0.22252800000000003,-0.8127641,0.98,-5.5125,-7.07
15,5943,0.52094,-0.22472399999999998,-0.813984,1.0325,-5.565,-7.0175
16,6041,0.51972,-0.22326,-0.8149601,1.0675,-5.5475,-6.9475
17,6139,0.5206960999999999,-0.22326,-0.8127641,1.0325,-5.565,-7.0175
18,6237,0.5219159999999999,-0.223504,-0.8105680000000001,0.945,-5.4775,-7.0175
19,6335,0.5206960999999999,-0.22496799999999997,-0.814472,0.98,-5.5825,-7.14
20,6433,0.5206960999999999,-0.222284,-0.8117880000000001,0.98,-5.67,-7.0525
21,6531,0.523868,-0.223016,-0.8127641,0.9975,-5.5475,-7.0875
22,6629,0.522892,-0.223992,-0.8100801,0.9275,-5.6,-7.0175
23,6727,0.522892,-0.225456,-0.8105680000000001,0.91,-5.6525,-6.93
24,6826,0.522404,-0.223748,-0.8142281,0.8225,-5.6875,-7.07
25,6924,0.522892,-0.22423600000000002,-0.8117880000000001,0.77,-5.7225,-7.07
26,7022,0.522892,-0.225212,-0.8117880000000001,0.77,-5.705,-7.175
27,7120,0.522648,-0.22472399999999998,-0.8103239999999999,0.56,-5.7225,-7.105
28,7218,0.522892,-0.225212,-0.811056,0.5775,-5.74,-7.035
29,7316,0.5221600000000001,-0.22326,-0.8132520999999999,0.6475,-5.7575,-7.0
30,7414,0.522404,-0.223748,-0.8105680000000001,0.63,-5.88,-7.0525
31,7512,0.5214281,-0.22326,-0.812032,0.735,-5.7575,-6.9475
32,7610,0.5231359999999999,-0.222284,-0.812032,0.77,-5.81,-7.0875
33,7708,0.5246,-0.22082,-0.8142281,0.8225,-5.81,-7.035
34,7806,0.522648,-0.22277199999999997,-0.8115439999999999,0.8400001,-5.81,-6.965
35,7904,0.523624,-0.223748,-0.8103239999999999,0.7875,-5.8275,-6.965
36,8002,0.522892,-0.223016,-0.81252,0.8225,-5.88,-6.9475
37,8100,0.5221600000000001,-0.223504,-0.812032,0.7525,-5.985,-6.93
38,8198,0.520452,-0.22326,-0.8100801,0.7525,-5.8975,-6.9125
39,8296,0.522648,-0.22448,-0.8108121,0.7175,-5.8975,-6.825
40,8394,0.523868,-0.223748,-0.8095920999999999,0.6475,-5.8625,-6.9125
41,8492,0.521184,-0.22472399999999998,-0.8117880000000001,0.735,-5.8975,-6.9125
42,8591,0.519964,-0.221552,-0.8108121,0.7175,-5.915,-6.965
43,8689,0.523624,-0.22277199999999997,-0.8113001,0.7525,-5.95,-6.965
44,8787,0.520452,-0.22326,-0.812276,0.735,-5.9325,-6.965
45,8885,0.5192319999999999,-0.22423600000000002,-0.8095920999999999,0.77,-5.915,-6.9475
46,8983,0.522892,-0.22326,-0.8105680000000001,0.91,-5.9675,-6.965
47,9081,0.521184,-0.22472399999999998,-0.8113001,0.8400001,-5.8975,-6.93
48,9179,0.519964,-0.223504,-0.80886,0.875,-5.915,-6.9125
49,9277,0.5231359999999999,-0.223504,-0.8108121,0.875,-5.81,-6.9125
50,9375,0.519964,-0.223748,-0.811056,0.91,-5.81,-6.9825
51,9473,0.5231359999999999,-0.22326,-0.812276,0.945,-5.74,-6.895
52,9571,0.522892,-0.223016,-0.813984,0.8400001,-5.67,-6.86
53,9669,0.5219159999999999,-0.223504,-0.811056,0.805,-5.635,-6.9475
54,9767,0.522404,-0.22472399999999998,-0.809836,0.8400001,-5.7225,-7.0175
55,9865,0.522404,-0.22423600000000002,-0.8105680000000001,0.875,-5.6875,-7.0
56,9963,0.522648,-0.22423600000000002,-0.811056,0.8575,-5.6875,-6.9475
57,10061,0.521184,-0.223504,-0.812032,0.8400001,-5.81,-6.86
58,10159,0.5219159999999999,-0.22423600000000002,-0.80886,0.8575,-5.81,-6.86
59,10257,0.522404,-0.223504,-0.812032,0.8925,-5.95,-6.8425
60,10355,0.5221600000000001,-0.22106399999999998,-0.8086161000000001,0.9625,-5.9675,-6.755
61,10454,0.521672,-0.222284,-0.8100801,0.9975,-5.9675,-6.7725
62,10552,0.5231359999999999,-0.223016,-0.812276,0.875,-5.8975,-6.8075
63,10650,0.520452,-0.22057600000000002,-0.8100801,0.77,-5.95,-6.72
64,10748,0.52094,-0.221796,-0.8091041,0.735,-5.8625,-6.7725
65,10846,0.520452,-0.22423600000000002,-0.8115439999999999,0.8225,-5.8975,-6.8075
66,10944,0.5214281,-0.22106399999999998,-0.8115439999999999,0.77,-5.8625,-6.8425
67,11042,0.521184,-0.223504,-0.811056,0.8400001,-5.88,-6.79
68,11140,0.519964,-0.221796,-0.8105680000000001,0.9625,-5.8275,-6.86
69,11238,0.52094,-0.22252800000000003,-0.8127641,0.9275,-5.7925,-6.8075
70,11336,0.5214281,-0.222284,-0.8105680000000001,0.98,-5.81,-6.7725
71,11434,0.5219159999999999,-0.22448,-0.8105680000000001,1.015,-5.7225,-6.8775
72,11532,0.521184,-0.225456,-0.8100801,1.0325,-5.67,-6.8425
73,11630,0.51972,-0.223748,-0.8091041,0.9975,-5.6,-6.825
74,11729,0.521184,-0.22472399999999998,-0.8115439999999999,0.9975,-5.7925,-6.8775
75,11827,0.519476,-0.22252800000000003,-0.8103239999999999,1.05,-5.88,-6.8425
76,11925,0.522404,-0.223504,-0.8115439999999999,0.9625,-5.81,-6.825
77,12023,0.521672,-0.22472399999999998,-0.809836,0.9625,-5.8275,-6.825
78,12121,0.521184,-0.223016,-0.8095920999999999,0.945,-5.7575,-6.8075
79,12219,0.51972,-0.22252800000000003,-0.807884,0.945,-5.8625,-6.86
80,12317,0.5214281,-0.22423600000000002,-0.8095920999999999,0.8925,-5.88,-6.895
81,12415,0.520452,-0.22326,-0.8108121,0.8400001,-5.8625,-6.93
82,12513,0.521672,-0.223992,-0.8103239999999999,0.8925,-5.915,-6.86
83,12611,0.5214281,-0.22423600000000002,-0.809836,0.9625,-5.8275,-6.825
84,12709,0.519476,-0.221308,-0.8100801,0.9275,-5.7225,-6.825
85,12807,0.5221600000000001,-0.22277199999999997,-0.8105680000000001,0.8925,-5.6175,-6.755
86,12905,0.51972,-0.223748,-0.8095920999999999,0.9625,-5.6525,-6.8425
87,13003,0.52094,-0.22472399999999998,-0.80886,0.945,-5.6875,-6.8425
88,13101,0.521672,-0.22326,-0.8103239999999999,0.98,-5.7575,-6.895
89,13199,0.519476,-0.22326,-0.8081281,0.98,-5.8275,-6.8425
90,13297,0.521672,-0.22326,-0.8100801,0.91,-5.775,-6.8775
91,13395,0.520208,-0.22277199999999997,-0.812032,0.98,-5.88,-6.93
92,13494,0.5192319999999999,-0.22252800000000003,-0.80886,0.945,-5.845,-6.9125
93,13592,0.5206960999999999,-0.22423600000000002,-0.809348,0.9275,-5.8625,-6.86
94,13690,0.521184,-0.22448,-0.8103239999999999,0.945,-5.7225,-6.825
95,13788,0.5219159999999999,-0.222284,-0.811056,0.9275,-5.74,-6.8075
96,13886,0.520208,-0.223748,-0.808372,0.9275,-5.7575,-6.8425
97,13984,0.521672,-0.223992,-0.809836,0.945,-5.7925,-6.86
98,14082,0.5214281,-0.223748,-0.8108121,0.9275,-5.775,-6.9475
99,14180,0.520452,-0.223504,-0.812032,0.91,-5.7575,-6.8425
100,14278,0.522892,-0.22326,-0.8100801,0.9975,-5.7575,-6.8775
101,14376,0.51972,-0.221796,-0.809836,0.9975,-5.7225,-6.86
102,14474,0.522404,-0.22423600000000002,-0.811056,1.0325,-5.7925,-6.8425
103,14572,0.519964,-0.223016,-0.8095920999999999,1.0325,-5.705,-6.72
104,14670,0.522404,-0.226188,-0.8086161000000001,1.0325,-5.775,-6.7725
105,14768,0.519476,-0.223016,-0.8105680000000001,1.05,-5.915,-6.755
106,14866,0.522892,-0.221796,-0.8091041,1.0675,-5.8625,-6.7725
107,14964,0.519964,-0.223016,-0.809348,1.12,-5.88,-6.7025
108,15062,0.520452,-0.221552,-0.8091041,1.2075,-5.7925,-6.6325
109,15160,0.522648,-0.221796,-0.8115439999999999,1.4,-5.81,-6.545
110,15258,0.519964,-0.2196,-0.813496,1.47,-5.74,-6.44
111,15356,0.520208,-0.223016,-0.8103239999999999,1.575,-5.67,-6.2825
112,15455,0.520452,-0.219844,-0.811056,1.785,-5.6175,-6.265
113,15553,0.52094,-0.22057600000000002,-0.8108121,2.2225,-5.355,-6.1425
114,15651,0.521672,-0.225212,-0.811056,2.4325,-5.25,-5.9675
115,15749,0.521672,-0.223504,-0.809836,2.5725,-5.0925,-5.8275
116,15847,0.520208,-0.22667600000000002,-0.8115439999999999,2.6425,-5.04,-5.8975
117,15945,0.5214281,-0.226188,-0.808372,2.52,-4.865,-5.915
118,16043,0.5231359999999999,-0.22814,-0.807884,2.4675,-4.8825,-5.9675
119,16141,0.522404,-0.225456,-0.809348,2.4325,-4.8825,-5.9675
120,16239,0.521184,-0.22789600000000002,-0.8091041,2.4675,-4.8125,-5.95
121,16337,0.5221600000000001,-0.22716399999999998,-0.80642,2.3275,-4.8125,-5.985
122,16435,0.522892,-0.225212,-0.808372,2.2575,-4.8475,-6.0725
123,16533,0.521184,-0.227408,-0.806908,2.205,-4.725,-6.0025
124,16631,0.524356,-0.226188,-0.8095920999999999,2.1875,-4.76,-6.02
125,16729,0.524356,-0.225456,-0.808372,2.2225,-4.7775,-6.02
126,16827,0.5233800000000001,-0.228872,-0.806176,2.3275,-4.8125,-6.0375
127,16925,0.5231359999999999,-0.22789600000000002,-0.8095920999999999,2.345,-4.8125,-6.1425
128,17023,0.523624,-0.22814,-0.8091041,2.2925,-5.04,-6.265
129,17121,0.523868,-0.231312,-0.8047121,2.275,-5.0225,-6.2825
130,17219,0.523624,-0.228872,-0.8086161000000001,2.1525,-5.005,-6.2475
131,17317,0.522892,-0.23082399999999997,-0.8049561,2.0475,-4.97,-6.3175
132,17416,0.524356,-0.22935999999999998,-0.807396,2.135,-5.0225,-6.4225
133,17514,0.5233800000000001,-0.22862800000000003,-0.806908,2.0475,-4.97,-6.475
134,17612,0.522892,-0.232044,-0.8047121,2.065,-4.935,-6.5625
135,17710,0.522648,-0.231312,-0.8071520000000001,1.995,-4.8825,-6.51
136,17808,0.524112,-0.227408,-0.8071520000000001,1.9775,-4.83,-6.58
137,17906,0.5221600000000001,-0.228872,-0.8052,1.89,-4.795,-6.615
138,18004,0.5221600000000001,-0.231068,-0.806908,1.7325,-4.7075,-6.7025
139,18102,0.5231359999999999,-0.23155599999999998,-0.805688,1.575,-4.76,-6.825
140,18200,0.524112,-0.228872,-0.805688,1.54,-4.6725,-6.9125
141,18298,0.525576,-0.23082399999999997,-0.803736,1.47,-4.76,-6.9475
142,18396,0.52704,-0.22716399999999998,-0.8066641,1.33,-4.8125,-6.9475
143,18494,0.525088,-0.23058,-0.8030041,1.2775,-4.97,-7.07
144,18592,0.526552,-0.228872,-0.8047121,1.1375,-5.145,-6.9475
145,18690,0.5267960999999999,-0.232776,-0.8030041,0.91,-5.4425,-7.0525
146,18788,0.52582,-0.22935999999999998,-0.8047121,0.7875,-5.6175,-7.0525
147,18886,0.525332,-0.22789600000000002,-0.8049561,0.6825,-5.81,-7.0
148,18984,0.524112,-0.233508,-0.8049561,0.455,-5.8975,-6.965
149,19082,0.525332,-0.230336,-0.8042239999999999,0.4725,-5.9675,-7.07
150,19181,0.525088,-0.228872,-0.8054439999999999,0.525,-5.8625,-6.9475
151,19279,0.524356,-0.23009200000000002,-0.8066641,0.49,-5.8275,-6.9475
152,19377,0.525576,-0.229116,-0.806908,0.56,-5.74,-6.9125
153,19475,0.525576,-0.22935999999999998,-0.807884,0.665,-5.5475,-6.9475
154,19573,0.525088,-0.22667600000000002,-0.807884,0.595,-5.285,-7.035
155,19671,0.5267960999999999,-0.225212,-0.803492,0.5075,-5.11,-6.9125
156,19769,0.52582,-0.22814,-0.803736,0.4725,-5.0925,-6.755
157,19867,0.524112,-0.228872,-0.8052,0.3675,-5.145,-6.755
158,19965,0.527284,-0.232776,-0.8025161,0.3325,-5.145,-6.79
159,20063,0.522892,-0.231068,-0.8054439999999999,0.21,-5.1275,-6.895
160,20161,0.523624,-0.228384,-0.806908,0.245,-5.0225,-6.965
161,20259,0.525332,-0.229116,-0.806176,0.2275,-4.6725,-6.965
162,20357,0.523624,-0.23009200000000002,-0.805932,0.35,-4.4625,-7.07
163,20455,0.524356,-0.229604,-0.8081281,0.3325,-4.095,-7.1925
164,20553,0.5267960999999999,-0.23082399999999997,-0.8049561,0.3675,-3.8675,-7.3325
165,20651,0.5246,-0.22935999999999998,-0.8076399999999999,0.3325,-3.5,-7.4725
166,20749,0.525576,-0.23082399999999997,-0.8049561,0.315,-3.185,-7.665
167,20847,0.521184,-0.228384,-0.8066641,0.49,-2.905,-7.8925
168,20945,0.524112,-0.229604,-0.806176,0.7,-2.52,-8.1375
169,21044,0.5260640000000001,-0.235948,-0.8086161000000001,0.7525,-1.855,-8.4875
170,21142,0.528016,-0.23546,-0.8081281,0.8400001,-1.19,-8.9075
171,21240,0.525088,-0.23448400000000003,-0.811056,0.7175,-0.28,-9.345
172,21338,0.5077640999999999,-0.233508,-0.8176439999999999,0.8225,0.805,-10.01
173,21436,0.49263599999999996,-0.217892,-0.8261841000000001,2.1175,2.24,-11.3925
174,21534,0.5260640000000001,-0.21862399999999999,-0.8239880999999999,3.3775,5.4775,-12.6525
175,21632,0.500688,-0.22496799999999997,-0.823256,3.01,9.8,-12.845
176,21730,0.490684,-0.233996,-0.8327720999999999,3.885,12.7925,-14.0175
177,21828,0.50264,-0.21374400000000002,-0.8291120999999999,2.31,16.695,-14.8575
178,21926,0.514596,-0.21838000000000002,-0.8117880000000001,2.1,20.685,-15.645
179,22024,0.5246,-0.22667600000000002,-0.8149601,2.73,24.36,-17.1325
180,22122,0.52094,-0.23741199999999998,-0.813008,2.2925,27.7725,-18.8125
181,22220,0.539972,-0.233752,-0.809836,0.385,31.08,-20.2125
182,22318,0.5607121,-0.23472800000000002,-0.800808,-1.4175,33.9675,-21.2625
183,22416,0.558028,-0.226188,-0.800808,-3.2725,36.575,-22.7675
184,22514,0.561688,-0.244488,-0.7937320999999999,-4.795,39.27,-24.535
185,22612,0.5887720000000001,-0.254492,-0.7922680000000001,-7.7,41.72,-27.2125
186,22711,0.5692520000000001,-0.251076,-0.798856,-10.78,44.6425,-30.3975
187,22809,0.5785241,-0.256444,-0.7978801,-13.335,47.46,-34.1425
188,22907,0.610488,-0.271816,-0.8025161,-15.5925,50.4,-38.255
189,23005,0.600484,-0.272548,-0.8081281,-18.3575,53.41,-42.6125
190,23103,0.610244,-0.271328,-0.7893399999999999,-21.77,56.2975,-47.53
191,23201,0.635376,-0.279136,-0.7903161,-25.6025,58.8175,-52.85
192,23299,0.64294,-0.284992,-0.7893399999999999,-29.3125,61.005,-57.8375
193,23397,0.657092,-0.27279200000000003,-0.785924,-33.74,62.8775,-62.685
194,23495,0.62708,-0.23692399999999997,-0.8052,-36.9775,64.19,-66.85
195,23593,0.58316,-0.221308,-0.8317960999999999,-39.0075,62.895,-70.875
196,23691,0.543632,-0.214232,-0.8520479999999999,-39.235,60.6025,-73.7625
197,23789,0.509472,-0.202764,-0.8764481,-39.445,58.3975,-76.7725
198,23887,0.46335600000000005,-0.208864,-0.89426,-39.8475,54.635,-78.0325
199,23985,0.435784,-0.214232,-0.91622,-39.0775,49.4375,-78.225
200,24083,0.41284799999999994,-0.227408,-0.9325680000000001,-37.1875,43.12,-76.23001
201,24181,0.381128,-0.25864000000000004,-0.942084,-33.74,35.6125,-70.1925
202,24279,0.34281999999999996,-0.29036,-0.936472,-29.47,27.5975,-61.8975
203,24377,0.343064,-0.319396,-0.954528,-26.18,19.635,-50.505
204,24475,0.316712,-0.34111199999999997,-0.942816,-20.7375,10.535,-36.33
205,24574,0.338428,-0.342332,-0.9496479999999999,-15.33,1.645,-19.845
206,24672,0.374052,-0.313784,-1.0004,-8.155,-7.28,-3.0625
207,24770,0.364048,-0.285236,-0.996008,2.695,-19.6875,13.9125
208,24868,0.349652,-0.244488,-0.97356,7.6475,-31.4125,26.8275
209,24966,0.33916,-0.19983599999999999,-0.9489161,8.2425,-40.67,35.315
210,25064,0.343064,-0.158356,-0.9403761,6.9125,-47.5125,40.8975
211,25162,0.35868,-0.13176,-0.9530641,5.5825,-53.235,44.905
212,25260,0.37332,-0.10345599999999999,-0.9677040000000001,5.0575,-58.905,48.3525
213,25358,0.393572,-0.075396,-0.987224,5.11,-64.82,51.2925
214,25456,0.41723999999999994,-0.05977999999999999,-1.0018639999999999,5.425,-70.7175,53.445
215,25554,0.438712,-0.044407999999999996,-1.0145520000000001,5.355,-76.3875,54.74
216,25652,0.46238,-0.031964,-1.0201639999999998,4.7775,-81.725,55.2825
217,25750,0.48531599999999997,-0.022692,-1.018944,3.675,-86.5025,55.4575
218,25848,0.5011760000000001,-0.007564001,-1.018944,2.7125,-90.545,55.3525
219,25946,0.519476,0.016592,-1.019432,2.2925,-93.9925,54.7575
220,26044,0.541192,0.047824,-1.010404,3.01,-96.88,53.55
221,26142,0.57096,0.07978801,-0.9903959999999999,4.6375,-99.12001,51.38
222,26240,0.576572,0.09589201,-0.955016,7.07,-100.5725,47.775
223,26339,0.58072,0.10540799999999999,-0.9067040000000001,9.3275,-100.2575,42.42
224,26437,0.591212,0.096868,-0.8657120999999999,11.1125,-97.5625,35.35
225,26535,0.602436,0.073688,-0.8352120000000001,11.8125,-92.8025,27.0025
226,26633,0.6202479999999999,0.052948,-0.8176439999999999,12.11,-86.485,18.8125
227,26731,0.64782,0.013908000000000002,-0.807396,13.4925,-79.6775,12.32
228,26829,0.679784,-0.028304000000000003,-0.798856,14.595,-73.1325,7.7875
229,26927,0.712236,-0.053924,-0.7903161,15.4,-67.795,5.2675
230,27025,0.7639640999999999,-0.088328,-0.8091041,16.1875,-63.8225,4.8125
231,27123,0.859856,-0.101016,-0.8818159999999999,15.2425,-62.6675,5.495
232,27221,0.9191481,-0.10004,-0.9167081,12.7225,-67.4975,6.9475
233,27319,0.89426,-0.07612801,-0.8669319999999999,8.365,-76.3525,7.9625
234,27417,0.824232,-0.032208,-0.780556,3.01,-83.9825,7.2275
235,27515,0.746152,0.014884,-0.6897880999999999,-0.56,-86.555,5.39
236,27613,0.702232,0.045627999999999995,-0.638792,-1.6275,-82.9325,2.8175
237,27711,0.70394,0.05002,-0.616344,-0.805,-75.53,-0.63
238,27810,0.7139439999999999,0.052216,-0.620004,0.7,-67.095,-4.6725
239,27908,0.731268,0.053436000000000004,-0.6326921,1.75,-59.99,-9.415
240,28006,0.740052,0.054412,-0.6414761,2.7475,-54.9675,-14.7
241,28104,0.7417600000000001,0.0488,-0.639524,3.9725,-51.59,-20.0025
242,28202,0.689056,0.11248399999999999,-0.607804,5.845,-48.5625,-25.165
243,28300,0.70638,0.000732,-0.576816,12.67,-43.7325,-29.12
244,28398,0.7239479999999999,0.05002,-0.5843801,11.655,-36.6975,-35.3675
245,28496,0.7093081,-0.00366,-0.523624,17.2375,-30.9225,-38.57
246,28594,0.7605481,0.011468,-0.498004,19.705,-24.01,-43.785
247,28692,0.734928,-0.02806,-0.44066400000000006,27.3175,-15.785,-47.04
248,28790,0.8049561,-0.07002799999999999,-0.42553599999999997,32.0075,-6.125,-50.7325
249,28888,0.8369200000000001,-0.09028,-0.384056,34.8425,3.4475,-55.1775
250,28986,0.873276,-0.090768,-0.32866799999999996,37.2575,13.65,-59.465
251,29084,0.916952,-0.08881599,-0.263276,40.565,25.2,-64.225
252,29182,0.9455,-0.085156,-0.225212,44.8525,37.975,-69.8425
253,29280,0.630984,-0.262056,-0.5673,48.58,47.8275,-75.4425
254,29379,0.667096,-0.337208,-1.2136559999999998,43.0325,42.2275,-76.685
255,29477,0.392352,-0.335744,-1.106784,41.405,31.64,-73.885
256,29575,0.346236,-0.393816,-0.74542,42.1575,32.2,-72.8875
257,29673,0.46457600000000004,-0.385764,-0.694912,34.2125,43.0325,-74.1475
258,29771,0.606584,-0.41553199999999996,-0.856196,27.5275,48.1775,-69.73751
259,29869,0.592188,-0.40992,-0.886452,23.17,43.085,-59.92
260,29967,0.6326921,-0.47213999999999995,-0.9325680000000001,20.79,37.1175,-50.54
261,30065,0.625372,-0.6956439999999999,-0.889136,21.35,34.0375,-42.14
262,30163,0.609024,-0.752984,-0.777628,11.6725,33.9675,-32.445
263,30261,0.613904,-0.6222,-0.786412,-0.98,35.91,-20.335
264,30359,0.61854,-0.31964000000000004,-0.883036,-14.63,37.1875,-14.4375
265,30457,1.4393559999999999,0.165676,-2.068388,-14.4025,32.3575,-14.0875
266,30555,0.17836400000000002,0.20642399999999997,-0.499468,16.1525,0.245,-15.435
267,30653,0.71614,-0.25790799999999997,-1.022116,20.265,0.1925,-10.115
268,30751,0.434076,-0.267912,-0.709796,21.07,1.9775,-7.035
269,30849,0.5692520000000001,-0.11834000000000001,-0.8945040000000001,18.1475,8.12,-7.6475
270,30947,0.516304,-0.134444,-0.81252,20.195,8.3125,-6.1775
271,31045,0.526552,-0.22716399999999998,-0.828868,22.2075,8.505,-4.0775
272,31143,0.5443640000000001,-0.20861999999999997,-0.827892,20.055,7.14,-3.71
273,31241,0.532896,-0.20008,-0.81618,18.2175,4.2875,-3.7975
274,31340,0.5355800999999999,-0.223016,-0.8115439999999999,16.835,1.505,-3.5525
275,31438,0.5392399999999999,-0.217892,-0.8100801,14.8225,-0.6475,-3.78
276,31536,0.5380199999999999,-0.22057600000000002,-0.807396,12.7225,-2.59,-4.27
277,31634,0.5363121,-0.23009200000000002,-0.8108121,10.6925,-4.3225,-4.655
278,31732,0.527284,-0.21862399999999999,-0.8076399999999999,8.995,-5.7925,-5.2675
279,31830,0.530456,-0.225944,-0.8066641,7.7175,-6.6325,-5.8275
280,31928,0.5307,-0.21520799999999998,-0.8117880000000001,6.545,-6.9125,-6.545
281,32026,0.53314,-0.22716399999999998,-0.807884,6.16,-7.525,-6.23
282,32124,0.5267960999999999,-0.207156,-0.809348,5.39,-7.595,-6.1775
283,32222,0.528748,-0.21032800000000001,-0.8103239999999999,4.4275,-7.105,-6.4225
284,32320,0.5309441,-0.229848,-0.81252,3.92,-7.1925,-6.3875
285,32418,0.530456,-0.23082399999999997,-0.803248,2.66,-7.35,-6.685
286,32516,0.522648,-0.231312,-0.80886,1.715,-7.665,-7.35
287,32614,0.521672,-0.21472,-0.8066641,1.26,-7.805,-7.49
288,32712,0.5214281,-0.23155599999999998,-0.812032,1.47,-7.6825,-7.5775
289,32810,0.517524,-0.211304,-0.815204,1.575,-7.4025,-7.0875
290,32908,0.5070319999999999,-0.217648,-0.812276,2.0825,-7.0175,-7.035
291,33006,0.503372,-0.22448,-0.8142281,3.0275,-6.5975,-6.8775
292,33104,0.503616,-0.22814,-0.8115439999999999,3.5,-5.6875,-7.245
293,33202,0.49995600000000007,-0.22862800000000003,-0.8105680000000001,4.305,-5.25,-7.91
294,33301,0.514596,-0.233264,-0.805688,5.3375,-5.0225,-8.2775
295,33399,0.496784,-0.228872,-0.8105680000000001,6.195,-5.8625,-8.05
296,33497,0.5121560000000001,-0.2196,-0.81374,7.07,-5.355,-8.925
297,33595,0.511668,-0.239364,-0.8066641,8.6625,-5.0575,-9.2925
298,33693,0.5185,-0.22082,-0.8169121,9.1175,-4.4625,-9.9575
299,33791,0.522648,-0.209596,-0.8174001000000001,9.7825,-3.64,-9.835
300,33889,0.529724,-0.219356,-0.81618,9.905,-2.205,-9.2225
301,33987,0.527528,-0.22204000000000002,-0.8147161,9.52,-0.98,-8.54
302,34085,0.530456,-0.22716399999999998,-0.8113001,8.7325,0.4725,-8.05
303,34183,0.528504,-0.227408,-0.8105680000000001,8.33,1.7675,-7.77
304,34281,0.5282600000000001,-0.23058,-0.8115439999999999,8.05,2.555,-7.9625
305,34379,0.543144,-0.231068,-0.802272,7.2275,3.2725,-8.19
306,34477,0.537532,-0.231312,-0.801296,6.405,3.115,-8.2775
307,34575,0.534604,-0.233508,-0.800564,5.7925,3.1675,-8.33
308,34673,0.534848,-0.23155599999999998,-0.800564,5.565,3.4825,-8.5575
309,34771,0.5214281,-0.23692399999999997,-0.8147161,5.705,4.2,-8.89
310,34869,0.518012,-0.22423600000000002,-0.81374,6.02,5.1625,-9.345
311,34967,0.5260640000000001,-0.229848,-0.8086161000000001,7.245,7.14,-10.01
312,35065,0.450912,-0.252052,-0.8357,9.8525,9.45,-11.9175
313,35164,0.538996,-0.244488,-0.812276,7.945,17.9375,-11.48
314,35262,0.511424,-0.2318,-0.8274040000000001,11.1125,21.84,-12.565
315,35360,0.525576,-0.213256,-0.8178880999999999,11.7075,27.3,-13.16
316,35458,0.536068,-0.22935999999999998,-0.8081281,12.4075,33.285,-13.09
317,35556,0.5309441,-0.238144,-0.8164239999999999,11.13,39.5675,-13.5625
318,35654,0.548756,-0.228872,-0.799588,9.3975,46.1125,-14.525
319,35752,0.5565640000000001,-0.252296,-0.791536,9.52,51.9575,-15.4175
320,35850,0.567056,-0.249856,-0.7881199999999999,9.2925,57.5225,-16.73
321,35948,0.57706,-0.256932,-0.773968,9.24,62.8775,-18.3225
322,36046,0.587796,-0.255468,-0.769576,8.645,69.1775,-20.0725
323,36144,0.603168,-0.258884,-0.75762,7.9975,74.8825,-21.98
324,36242,0.598288,-0.250832,-0.749568,7.0,80.4125,-23.7475
325,36340,0.6095119999999999,-0.22448,-0.735172,5.6,86.15250999999999,-25.2175
326,36438,0.6263479999999999,-0.22204000000000002,-0.7166279999999999,4.795,91.63,-25.62
327,36536,0.646112,-0.22789600000000002,-0.705404,3.0975,97.02,-25.2175
328,36634,0.6663640000000001,-0.22082,-0.687104,0.455,101.815,-25.0075
329,36732,0.6753920999999999,-0.204228,-0.6844201,-1.75,105.7875,-24.64
330,36830,0.7034521,-0.226188,-0.661728,-4.83,108.64,-24.535
331,36928,0.682956,-0.223504,-0.670024,-6.5625,111.5975,-25.8475
332,37026,0.69906,-0.238144,-0.664412,-7.2625,114.485,-26.5825
333,37124,0.6944241,-0.232776,-0.658312,-8.1025,118.475,-29.2425
334,37223,0.68076,-0.21228000000000002,-0.688812,-8.8725,123.9175,-32.62
335,37321,0.742004,-0.239852,-0.700036,-9.7125,130.9525,-34.755
336,37419,0.690032,-0.249856,-0.73688,-8.5925,143.2025,-38.92
337,37517,0.7617681,-0.283528,-0.718824,-8.1375,156.94,-44.4675
338,37615,0.77836,-0.249856,-0.755424,-3.85,174.965,-52.29
339,37713,0.863516,-0.255712,-0.772504,0.56,189.525,-57.89
340,37811,0.8813280000000001,-0.27938,-0.79056,10.5525,206.64,-63.56
341,37909,0.9225639999999999,-0.303048,-0.8164239999999999,16.275,226.5375,-68.845
342,38007,0.9479401,-0.312564,-0.818376,22.8375,240.835,-73.57
343,38105,0.9801479999999999,-0.361852,-0.8113001,30.03,250.565,-78.645
344,38203,1.019676,-0.37332,-0.8554641,35.875,257.74,-86.04751
345,38301,1.062376,-0.282308,-0.950868,39.4625,260.4525,-92.05001
346,38399,1.083116,-0.5463161,-0.90036,48.0375,252.7175,-90.9475
347,38497,0.8210601000000001,-0.47458,-0.8132520999999999,36.5225,248.5175,-103.0225
348,38595,0.690764,-0.5514399999999999,-0.7168720000000001,-15.4,243.7575,-122.5525
349,38693,0.818132,-0.098088,-2.031544,-101.185,235.585,-158.0775
350,38791,1.6357760000000001,0.74054,-3.2717959999999997,-111.125,135.1525,-180.7225
351,38890,1.281976,-0.14396,-2.704984,20.1425,-21.07,-136.115
352,38988,0.450668,-0.514108,-1.593076,111.7375,-117.5125,-95.9175
353,39086,0.1769,-0.7356600000000001,-0.9564799999999999,116.3925,-162.5925,-65.9925
354,39184,0.152256,-0.8256960999999999,-0.6019479999999999,89.39,-171.4475,-33.74
355,39282,0.23887600000000003,-0.707356,-0.61,39.795,-151.83,-4.83
356,39380,0.41602,-0.544608,-0.7388319999999999,-1.96,-133.21,18.6025
357,39478,0.543144,-0.285724,-0.8049561,-36.47,-124.7575,32.06
358,39576,0.6378159999999999,0.005612,-0.8574161,-60.1825,-128.1,35.6475
359,39674,0.743224,0.14713199999999999,-0.8571719999999999,-62.23,-142.94,35.3325
360,39772,0.81374,0.17324,-0.790072,-49.9275,-161.8925,34.1425
361,39870,0.7893399999999999,0.16348,-0.696864,-36.89,-176.2775,32.515
362,39968,0.756644,0.107848,-0.5978,-27.0725,-186.55,30.9225
363,40066,0.72102,0.054412,-0.5192319999999999,-26.39,-191.17,28.98
364,40164,0.6810039999999999,0.0061,-0.49044,-31.7275,-189.7175,26.6525
365,40262,0.670024,-0.049288,-0.50264,-39.27,-184.87,25.13
366,40360,0.68076,-0.099552,-0.542412,-46.165,-180.635,25.2175
367,40458,0.7105279999999999,-0.152988,-0.5919439999999999,-49.735,-179.69,28.2975
368,40556,0.7381001,-0.203984,-0.6231760999999999,-50.75,-182.175,34.58
369,40655,0.758596,-0.24497600000000003,-0.619272,-51.59,-186.2875,41.685
370,40753,0.752008,-0.29792399999999997,-0.5892601,-53.62,-189.7175,48.265
371,40851,0.741272,-0.346968,-0.561932,-57.68,-190.645,54.25
372,40949,0.7473721,-0.378688,-0.569984,-62.265,-188.8425,61.2675
373,41047,0.7612800999999999,-0.374784,-0.59658,-65.1,-186.5675,69.3875
374,41145,0.763476,-0.343308,-0.621224,-64.6275,-184.7125,77.49
375,41243,0.792512,-0.290116,-0.7005239999999999,-60.5325,-182.3675,83.86001
376,41341,0.869616,-0.24936799999999998,-0.8235001000000001,-54.0225,-181.1425,87.3425
377,41439,0.976,-0.205936,-0.9725841000000001,-48.125,-183.925,86.18751
378,41537,1.059936,-0.110776,-1.077992,-42.07,-191.9575,80.22
379,41635,1.116056,0.013175999999999998,-1.098488,-30.66,-204.085,72.1
380,41733,1.1529,0.122732,-1.0828719999999998,-13.3,-215.4075,63.4725
381,41831,1.2395200000000002,0.18104800000000001,-1.042856,5.04,-223.0375,52.4475
382,41929,1.322968,0.1952,-1.005524,18.7775,-225.155,37.8525
383,42027,1.380064,0.159088,-0.9486720999999999,27.265,-222.985,23.065
384,42125,1.383724,0.07442,-0.83814,33.4075,-217.6475,12.7575
385,42223,1.3590799999999998,0.0034159999999999998,-0.7027201,35.98,-207.305,7.2275
386,42321,1.322968,0.10906800000000001,-0.51972,36.995,-192.6225,6.405
387,42419,1.6406560000000001,-0.439932,0.035136,55.825,-173.005,15.1375
388,42518,1.430816,0.03904,-0.313052,39.55,-144.3225,12.5475
389,42616,1.544032,-0.029036000000000003,-0.257664,43.8375,-124.32,17.885
390,42714,1.6391919999999998,0.089792,-0.274256,38.6225,-111.125,18.865
391,42812,1.653344,0.149816,-0.15274400000000002,38.99,-104.5625,18.97
392,42910,1.6448040000000002,0.22106399999999998,0.036844,33.25,-97.5975,12.88
393,43008,1.575996,0.268644,0.28767600000000004,27.5975,-84.7875,0.245
394,43106,1.520852,0.231312,0.49117200000000005,26.425,-62.125,-14.4725
395,43204,1.497672,0.18666,0.64294,25.0075,-26.88,-29.1725
396,43302,1.4837639999999999,0.13761600000000002,0.72712,23.5725,16.94,-42.0875
397,43400,1.5525719999999998,0.059048,0.792512,24.0975,62.23,-50.61
398,43498,1.553304,0.051972000000000004,0.75274,21.455,111.475,-60.0425
399,43596,0.767868,-0.394548,-0.859368,22.61,140.98,-62.58
400,43694,0.5887720000000001,-0.45628,-1.9407759999999998,9.555,124.46,-56.21
401,43792,0.321836,-0.6070720000000001,-0.985516,19.915,113.4175,-48.895
402,43890,0.452132,-0.6756361,-0.414312,12.495,133.1225,-48.9125
403,43988,0.7571321,-0.5702281,-0.7241920000000001,-5.8625,148.8025,-36.155
404,44086,0.9230520000000001,-0.534848,-1.2609920000000001,-6.4925,140.5425,-17.36
405,44184,0.999668,-0.038064,-1.249524,-17.64,127.6625,-31.9375
406,44283,3.517504,0.820572,-4.084804,25.8125,98.1225,-31.64
407,44380,-0.570472,-0.22789600000000002,0.055144000000000006,111.16,18.445,-15.68
408,44478,1.226344,-0.8727879999999999,-1.330532,83.4925,34.3525,-12.495
409,44577,0.463844,-0.061488,-0.82594,25.55,16.275,-5.67
410,44675,0.5502199999999999,0.016836,-0.85888,24.15,17.3075,-7.0175
411,44773,0.54168,-0.196908,-0.86498,25.235,8.47,-3.0625
412,44871,0.530212,-0.18470799999999998,-0.8476561,19.005,6.7375,-2.065
413,44969,0.558272,-0.217404,-0.8210601000000001,15.54,3.6225,-2.4325
414,45067,0.5414359999999999,-0.213256,-0.8222799999999999,12.2675,-0.665,-2.625
415,45165,0.520208,-0.22643200000000002,-0.818132,10.0625,-3.745,-2.94
416,45263,0.5185,-0.23838800000000002,-0.813008,8.05,-5.6,-3.5525
417,45361,0.5192319999999999,-0.23253200000000002,-0.813496,6.335,-7.21,-4.585
418,45459,0.509716,-0.223016,-0.818132,4.9,-8.5925,-5.67
419,45557,0.5104479999999999,-0.21032800000000001,-0.8239880999999999,4.1475,-9.45,-6.3525
420,45655,0.504592,-0.20618000000000003,-0.8298440999999999,4.0425,-9.6425,-6.72
421,45753,0.50874,-0.19983599999999999,-0.8254520000000001,4.0425,-9.31,-6.6675
422,45851,0.509228,-0.203496,-0.8298440999999999,3.675,-8.9425,-6.6325
423,45949,0.509716,-0.217648,-0.8283799999999999,3.5525,-8.2425,-6.615
424,46047,0.509472,-0.211792,-0.828868,3.255,-7.2625,-6.755
425,46145,0.514352,-0.23301999999999998,-0.8283799999999999,2.905,-6.475,-6.9825
426,46243,0.509472,-0.211304,-0.818376,2.66,-6.5625,-6.9125
427,46341,0.499468,-0.21813600000000002,-0.818132,2.03,-6.6325,-7.385
428,46440,0.48433999999999994,-0.205448,-0.8239880999999999,2.45,-6.755,-7.7175
429,46538,0.48385200000000006,-0.200812,-0.8235001000000001,3.3425,-6.1075,-7.875
430,46636,0.486048,-0.19885999999999998,-0.826428,5.32,-5.0925,-7.6825
431,46734,0.4933681,-0.199104,-0.8188641,7.4375,-3.85,-7.4025
432,46832,0.49141599999999996,-0.21667199999999998,-0.820084,9.38,-3.045,-6.9475
433,46930,0.5070319999999999,-0.21716,-0.818132,10.29,-1.855,-7.2275
434,47028,0.5099600000000001,-0.221796,-0.8095920999999999,10.745,-1.2075,-7.21
435,47126,0.510692,-0.219112,-0.826428,10.255,-0.315,-6.86
436,47224,0.509716,-0.22082,-0.820084,10.675,0.4025,-6.405
437,47322,0.511668,-0.21886799999999998,-0.820816,10.115,1.7325,-6.5975
438,47420,0.51362,-0.223504,-0.8230120999999999,9.835,2.6075,-6.6325
439,47518,0.5038600000000001,-0.22277199999999997,-0.8256960999999999,9.695,3.4125,-6.93
440,47616,0.522892,-0.23009200000000002,-0.815204,9.7475,4.305,-7.385
441,47714,0.513864,-0.22814,-0.814472,9.6075,4.7775,-7.6475
442,47812,0.513864,-0.22789600000000002,-0.818376,9.59,5.18,-7.98
443,47910,0.5158159999999999,-0.22716399999999998,-0.818376,10.0275,6.2825,-8.4
444,48008,0.47092,-0.213256,-0.8471681000000001,10.185,7.9975,-8.75
445,48106,0.526308,-0.23668000000000003,-0.815936,11.515,10.9025,-10.57
446,48204,0.5043479999999999,-0.226188,-0.819108,13.44,13.3875,-13.4925
447,48302,0.480192,-0.251808,-0.841556,15.89,15.6975,-15.8725
448,48401,0.518256,-0.19983599999999999,-0.8357,13.23,21.315,-13.16
449,48499,0.51362,-0.23009200000000002,-0.820084,15.7325,27.9125,-13.2125
450,48597,0.5343600000000001,-0.196176,-0.81862,16.835,32.7075,-14.7175
451,48695,0.538996,-0.22204000000000002,-0.8113001,16.8175,39.0425,-13.3525
452,48793,0.534604,-0.23911999999999997,-0.808372,16.2225,44.66,-12.88
453,48891,0.5443640000000001,-0.235704,-0.8076399999999999,14.525,51.065,-12.985
454,48989,0.5553441,-0.24278000000000002,-0.80276,14.175,58.135,-14.035
455,49087,0.561688,-0.244488,-0.800076,13.8425,66.2025,-15.2425
456,49185,0.57096,-0.244488,-0.7956840999999999,13.125,75.705,-16.17
457,49283,0.582916,-0.245464,-0.793244,11.48,85.2075,-17.4825
458,49381,0.5826720000000001,-0.24717199999999998,-0.787388,9.24,95.585,-19.18
459,49479,0.563884,-0.219844,-0.779092,8.155,105.9275,-21.1575
460,49577,0.572912,-0.221308,-0.7722600000000001,7.735,116.69,-21.7525
461,49675,0.5892601,-0.234972,-0.753472,7.3675,127.68,-21.7
462,49773,0.619028,-0.23155599999999998,-0.746152,5.3375,138.425,-21.805
463,49871,0.61122,-0.2379,-0.753228,4.2525,148.0325,-23.835
464,49969,0.636596,-0.248392,-0.768356,2.2925,157.9025,-26.1975
465,50067,0.654408,-0.280356,-0.783972,0.3325,170.8,-29.4175
466,50165,0.740052,-0.33184,-0.769332,-0.3675,183.7675,-34.2825
467,50263,0.734928,-0.325252,-0.7854361,4.1125,199.3075,-43.505
468,50361,0.779092,-0.321348,-0.814472,13.1425,214.6375,-52.22
469,50459,0.8486319999999999,-0.33428,-0.858392,20.23,234.9375,-59.8325
470,50558,0.8637601,-0.30182800000000004,-0.9089001,30.485,254.5025,-66.4125
471,50656,0.9150001,-0.3233,-0.9289081,40.2325,268.9575,-69.4925
472,50754,0.94306,-0.368684,-0.9506241,48.86,279.1425,-71.2775
473,50852,0.9752681000000001,-0.4026,-0.9716081,52.7975,287.77,-76.93
474,50950,1.029436,-0.340868,-1.087264,49.35,291.6375,-87.1325
475,51048,0.9091440000000001,-0.504104,-0.966728,49.5075,282.8,-90.58001
476,51146,0.6883239999999999,-0.601216,-0.8327720999999999,21.8575,277.4275,-102.1825
477,51244,0.559004,-0.5648601,-1.4130040000000001,-50.645,279.475,-136.5175
478,51342,0.874984,0.594384,-3.169804,-143.2025,238.4375,-195.4925
479,51440,1.946388,0.979416,-3.889848,-103.7225,96.5475,-223.4925
480,51538,0.80886,-0.112972,-2.418284,63.0,-59.0975,-180.145
481,51636,0.194224,-0.515084,-1.572092,139.545,-139.755,-154.4025
482,51734,0.000244,-1.001376,-0.9813681000000001,149.38,-178.1325,-111.65
483,51832,-0.01342,-1.17486,-0.7517640999999999,115.8325,-179.795,-64.61
484,51930,0.08442401,-1.08946,-0.731268,55.0725,-164.22,-23.9575
485,52028,0.261812,-0.8723001,-0.8466800999999999,-4.7775,-148.925,11.1825
486,52126,0.37990799999999997,-0.547292,-0.9098761000000001,-52.78,-143.6925,37.24
487,52225,0.5099600000000001,-0.200568,-0.9894200000000001,-77.595,-152.1975,53.935
488,52323,0.617564,0.023180000000000003,-1.030412,-72.8875,-172.1475,64.225
489,52421,0.6822239999999999,0.10004,-0.9821,-52.71,-195.615,66.3075
490,52519,0.684664,0.087108,-0.9028,-36.575,-214.865,59.57
491,52617,0.685396,0.01464,-0.815936,-28.8575,-229.8275,48.1425
492,52715,0.72102,-0.066856,-0.7510321,-28.1575,-239.225,38.78
493,52813,0.7812880999999999,-0.14688800000000002,-0.7259001,-30.7125,-243.46,35.7175
494,52911,0.8601,-0.188368,-0.735904,-33.6525,-244.93,38.5525
495,53009,0.9396440999999999,-0.204228,-0.7478600000000001,-35.8925,-246.2425,43.715
496,53107,0.9791719999999999,-0.225456,-0.729316,-37.6425,-248.15,47.95
497,53205,0.989664,-0.255712,-0.693692,-38.7275,-248.99,51.1875
498,53303,0.9725841000000001,-0.28914,-0.653188,-38.0975,-246.715,55.125
499,53401,0.9628241,-0.33013200000000004,-0.643184,-35.8925,-240.5375,60.2875
500,53499,0.9774639999999999,-0.339648,-0.655628,-33.915,-231.2975,66.395
501,53597,0.996008,-0.315736,-0.669048,-31.78,-221.76,72.275
502,53695,1.034804,-0.24570799999999998,-0.697108,-27.6325,-212.555,77.805
503,53793,1.113616,-0.14396,-0.7820199999999999,-19.635,-204.6275,83.02
504,53891,1.2383,-0.021228,-0.9464761,-11.8825,-200.445,84.7875
505,53990,1.315648,0.167628,-1.048956,-6.5975,-202.6325,79.3275
506,54088,1.355176,0.332084,-1.036512,-1.05,-209.615,65.15250999999999
507,54186,1.4095879999999998,0.393572,-0.9720960999999999,6.23,-215.67,43.5925
508,54284,1.470344,0.288896,-0.874984,15.8725,-218.2075,21.2275
509,54382,1.4940120000000001,0.09882,-0.756156,23.73,-215.9325,4.83
510,54480,1.482056,-0.091012,-0.60878,26.7225,-208.74,-1.0675
511,54578,1.470588,-0.186904,-0.459208,25.3925,-196.4025,3.045
512,54676,1.45668,-0.164212,-0.32818,22.8725,-179.48,12.9325
513,54774,1.3832360000000001,-0.09125599999999999,-0.278648,23.7475,-158.83,24.2025
514,54872,1.41642,0.0061,-0.10760399999999999,27.0375,-134.715,32.585
515,54970,1.559892,-0.028304000000000003,-0.15201199999999998,20.4925,-112.245,35.875
516,55068,1.648464,0.071492,-0.10809200000000001,7.9275,-97.7375,34.3175
517,55166,1.607716,0.240096,0.058072000000000006,-4.9175,-89.25,28.1575
518,55264,1.526952,0.253272,0.293044,-6.3525,-78.33,19.4075
519,55362,1.48596,0.24888000000000002,0.399916,-5.635,-56.1575,5.32
520,55460,1.46888,0.17934,0.45871999999999996,1.0675,-27.3175,-7.63
521,55558,1.400316,0.14762,0.582916,11.48,7.2975,-18.935
522,55656,1.386408,0.122244,0.702232,19.4775,52.885,-30.9575
523,55754,1.4391120000000002,0.001464,0.69662,27.44,107.485,-44.345
524,55852,0.682956,-0.34257600000000005,-0.6307401,25.305,151.375,-56.3325
525,55950,0.709064,-0.386984,-2.014464,13.02,143.01,-56.4025
526,56048,0.376248,-0.5577840000000001,-1.109224,24.4825,124.7925,-48.3875
527,56147,0.49044,-0.612684,-0.5282600000000001,15.085,140.07,-48.9475
528,56245,0.869128,-0.48873199999999994,-0.90036,-0.56,154.21,-37.59
529,56343,0.79422,-0.366,-1.063108,2.6775,138.3025,-13.4225
530,56441,0.5577840000000001,-0.158844,-0.9289081,1.4175,123.48,-7.07
531,56539,0.705404,-0.135664,-1.082384,-0.4025,123.1475,-15.7675
532,56637,0.9362280000000001,-0.186416,-1.067256,-0.14,117.2675,-30.2925
533,56735,2.985096,0.661484,-3.9562160000000004,37.5725,95.7425,-27.1775
534,56833,-0.378444,-0.316712,-0.171532,118.4925,24.3775,-6.825
535,56931,1.230736,-0.8315520000000001,-1.291492,89.915,35.4025,-2.8525
536,57029,0.42578,-0.161772,-0.8113001,37.4325,19.075,-1.9425
537,57127,0.54168,-0.040260000000000004,-0.8703481,29.855,19.915,-4.6725
538,57225,0.5414359999999999,-0.191052,-0.8620521000000001,27.2475,11.8825,-2.625
539,57323,0.531188,-0.19861600000000001,-0.8422879999999999,23.835,8.54,-1.365
540,57421,0.553148,-0.20861999999999997,-0.815692,19.775,4.585,-1.6975
541,57519,0.5363121,-0.226188,-0.8195960999999999,16.24,0.3325,-1.6275
542,57617,0.52582,-0.2135,-0.823256,12.8625,-2.4325,-1.8725
543,57715,0.5221600000000001,-0.23472800000000002,-0.819108,10.3775,-3.7625,-2.2575
544,57814,0.5170359999999999,-0.243024,-0.8149601,8.645,-5.005,-2.7825
545,57912,0.514108,-0.231068,-0.815204,6.93,-6.335,-3.745
546,58010,0.510204,-0.231312,-0.818132,5.985,-7.3675,-4.375
547,58108,0.506544,-0.225456,-0.8210601000000001,5.355,-7.875,-4.83
548,58206,0.503372,-0.22082,-0.8193521,4.9525,-7.875,-5.075
549,58304,0.509716,-0.22423600000000002,-0.821304,4.795,-7.665,-5.39
550,58402,0.51118,-0.22472399999999998,-0.821792,4.62,-7.245,-5.425
551,58500,0.5121560000000001,-0.235704,-0.818376,3.9725,-6.5275,-5.565
552,58598,0.510692,-0.22057600000000002,-0.8193521,3.1675,-6.3175,-5.95
553,58696,0.509228,-0.22326,-0.815936,2.73,-6.335,-6.16
554,58794,0.505324,-0.24278000000000002,-0.81374,2.415,-6.545,-6.2825
555,58892,0.49312399999999995,-0.223016,-0.820816,2.1,-6.685,-6.51
556,58990,0.48995200000000005,-0.22277199999999997,-0.8195960999999999,2.2575,-6.5975,-6.8425
557,59088,0.488976,-0.21447600000000003,-0.8210601000000001,2.8525,-5.88,-7.0
558,59186,0.49117200000000005,-0.221552,-0.8215481,3.57,-5.18,-7.0
559,59284,0.49312399999999995,-0.23058,-0.818376,4.0075,-4.655,-7.2975
560,59382,0.49898000000000003,-0.235704,-0.811056,4.375,-4.445,-7.7175
561,59480,0.49702799999999997,-0.223748,-0.815692,4.69,-4.2875,-8.0675
562,59579,0.49312399999999995,-0.23155599999999998,-0.815204,5.7225,-4.025,-8.1025
563,59677,0.509716,-0.22252800000000003,-0.832528,6.4925,-3.325,-8.1375
564,59775,0.503372,-0.23472800000000002,-0.814472,7.1575,-2.38,-7.8225
565,59873,0.505568,-0.23228800000000002,-0.8142281,7.2625,-1.365,-7.4725
566,59971,0.505324,-0.242536,-0.8174001000000001,7.3325,-0.875,-7.035
567,60069,0.50508,-0.230336,-0.8176439999999999,7.28,-0.315,-7.28
568,60167,0.5058121,-0.233508,-0.8215481,7.63,0.6475,-7.245
569,60265,0.505568,-0.23058,-0.8193521,7.84,1.4175,-7.3675
570,60363,0.49727200000000005,-0.236192,-0.826428,8.05,2.31,-7.7
571,60461,0.5165481,-0.237168,-0.8188641,8.4525,3.7275,-7.9975
572,60559,0.5165481,-0.23009200000000002,-0.81984,8.435,4.8125,-8.155
573,60657,0.51362,-0.225456,-0.8142281,8.3125,6.265,-7.9625
574,60755,0.5043479999999999,-0.22106399999999998,-0.8176439999999999,8.3825,7.3325,-7.595
575,60853,0.5233800000000001,-0.228872,-0.813008,8.4875,10.43,-7.49
576,60951,0.5160600000000001,-0.21862399999999999,-0.8210601000000001,9.38,11.7425,-7.8575
577,61049,0.5077640999999999,-0.23692399999999997,-0.8308200000000001,11.4625,14.8575,-9.275
578,61147,0.465552,-0.267424,-0.8437520000000001,13.615,17.5875,-11.305
579,61246,0.5063,-0.262056,-0.8281360999999999,11.7425,24.885,-9.7825
580,61344,0.5060560000000001,-0.24912399999999998,-0.8335040000000001,14.6125,29.9425,-12.0925
581,61442,0.512888,-0.238632,-0.823744,15.8375,36.015,-13.2125
582,61540,0.521184,-0.255712,-0.821792,17.64,42.7875,-14.4725
583,61638,0.521672,-0.266204,-0.820816,17.815,49.385,-15.89
584,61736,0.537776,-0.26352,-0.8117880000000001,16.1875,57.2775,-17.01
585,61834,0.553636,-0.26596,-0.798856,16.3975,64.7675,-18.6375
586,61932,0.570472,-0.268888,-0.7861680999999999,15.9075,73.4475,-20.685
587,62030,0.5875520000000001,-0.2623,-0.7732359999999999,15.575,82.0575,-22.75
588,62128,0.591212,-0.271572,-0.7671359999999999,15.4525,91.07,-24.2025
589,62226,0.603168,-0.26474000000000003,-0.7625,13.195,100.2225,-26.5475
590,62324,0.5814520000000001,-0.23082399999999997,-0.758108,10.8325,109.7425,-29.68
591,62422,0.5751081,-0.221552,-0.7734800000000001,10.01,120.33,-30.9925
592,62520,0.58072,-0.24888000000000002,-0.781776,9.17,133.8575,-31.6225
593,62618,0.6082920999999999,-0.25864000000000004,-0.771772,6.3525,149.38,-33.5825
594,62716,0.621468,-0.2379,-0.750544,4.3575,163.275,-36.9075
595,62814,0.667828,-0.24766,-0.7327321,4.06,175.5425,-39.0775
596,62913,0.659288,-0.23155599999999998,-0.762988,3.5,186.865,-41.125
597,63011,0.710284,-0.25132,-0.773724,6.0375,196.91,-42.105
598,63109,0.748836,-0.258396,-0.8178880999999999,12.4075,208.0225,-44.3625
599,63207,0.8418,-0.27205999999999997,-0.7954399999999999,20.475,218.4525,-46.5675
600,63305,0.8520479999999999,-0.252784,-0.790072,30.2575,228.4975,-48.0725
601,63403,0.9037761000000001,-0.298168,-0.805688,40.9325,237.3,-48.4225
602,63501,0.913536,-0.325252,-0.7686,47.9325,244.2125,-49.7
603,63599,0.9232961,-0.355752,-0.756156,49.9625,249.725,-54.005
604,63697,0.9469641,-0.34526,-0.801784,48.545,253.61,-61.0925
605,63795,0.942084,-0.373808,-0.8430200999999999,48.79,252.7,-67.83
606,63893,0.8398479999999999,-0.463844,-0.7324881,42.805,249.5325,-75.28501
607,63991,0.711992,-0.49727200000000005,-0.762012,9.59,254.38,-91.525
608,64089,0.708088,-0.5692520000000001,-1.27734,-45.78,252.98,-119.35
609,64187,0.9535521,0.48385200000000006,-2.6166560000000003,-118.37,211.2075,-168.1925
610,64285,1.7294720000000001,0.843508,-3.27326,-80.97251,94.395,-190.7325
611,64383,1.0206520000000001,0.17055599999999999,-2.53638,30.135,-27.16,-181.1775
612,64481,0.47677600000000003,-0.11053199999999999,-1.779736,105.2625,-110.81,-176.4
613,64579,0.23838800000000002,-0.553636,-1.196576,132.825,-159.18,-164.5525
614,64677,0.141276,-0.9128040000000001,-0.8632719999999999,123.305,-171.57,-141.2425
615,64775,0.1525,-1.074332,-0.778116,82.1975,-162.645,-111.5625
616,64873,0.274988,-1.131184,-0.826672,36.9425,-151.69,-72.8
617,64972,0.392108,-1.06018,-0.8605879999999999,-8.1725,-146.545,-29.8025
618,65070,0.451888,-0.8276481,-0.885476,-46.795,-147.385,11.2875
619,65168,0.515084,-0.522648,-0.9347639999999999,-68.2675,-156.2925,45.605
620,65266,0.570472,-0.250832,-0.951356,-69.16,-172.2175,69.2825
621,65364,0.6058520000000001,-0.075396,-0.921588,-58.415,-190.47,78.155
622,65462,0.62708,0.013908000000000002,-0.8723001,-47.1625,-207.2175,73.3075
623,65560,0.6351319999999999,0.022692,-0.81984,-37.5725,-220.6925,61.6875
624,65658,0.679296,-0.0034159999999999998,-0.783728,-29.68,-230.2825,50.1375
625,65756,0.765672,-0.057096,-0.775188,-23.2925,-237.16,42.9275
626,65854,0.84424,-0.127368,-0.768112,-18.8125,-243.1975,40.565
627,65952,1.0384639999999998,-0.14005599999999999,-0.7044279999999999,-16.38,-248.0625,41.86
628,66050,1.063352,-0.317932,-0.7198,-9.2575,-251.9475,48.3175
629,66148,0.9267120000000001,-0.401868,-0.5516840000000001,-4.9875,-261.5725,64.27750999999999
630,66246,0.898408,-0.349408,-0.562664,-19.8625,-250.6525,69.9825
631,66344,0.951356,-0.366976,-0.625616,-24.5525,-235.305,75.495
632,66442,1.012356,-0.37112399999999995,-0.7473721,-27.16,-220.605,78.41751
633,66540,0.9623360999999999,-0.341844,-0.7017439999999999,-27.0025,-211.715,79.9575
634,66638,1.029192,-0.232044,-0.7869,-29.295,-202.79,77.5075
635,66736,1.2561120000000001,-0.151524,-0.9943001,-19.215,-197.1025,77.595
636,66835,1.424716,-0.101992,-1.121668,-1.5575,-200.41,81.97001
637,66933,1.4459440000000001,0.08637601,-1.098244,8.68,-209.7025,80.675
638,67031,1.417884,0.309636,-1.025776,14.455,-218.015,69.0725
639,67129,1.49816,0.35697199999999996,-0.9540401,22.7325,-222.285,47.705
640,67227,1.567456,0.2623,-0.8476561,31.535,-220.4475,21.9625
641,67325,1.3908,-0.261812,-0.725168,51.1175,-212.17,9.31
642,67423,1.485472,-0.030012,-0.440176,53.8125,-192.2025,0.8575
643,67521,1.6089360000000001,-0.29524,-0.22862800000000003,39.2525,-162.9425,8.19
644,67619,1.652856,-0.125904,-0.22789600000000002,27.2825,-142.1525,23.2225
645,67717,1.57136,0.016836,-0.185196,22.75,-126.5075,39.235
646,67815,1.4752239999999999,0.10052799999999999,-0.07002799999999999,18.8475,-112.8225,50.0325
647,67913,1.499136,0.145912,-0.016347999999999998,10.85,-98.945,54.8975
648,68011,1.444968,0.23546,0.112972,-1.0675,-80.99,52.2025
649,68109,1.432768,0.3233,0.205936,-10.01,-60.97,44.38
650,68207,1.451068,0.336476,0.2501,-9.7475,-39.305,34.93
651,68305,1.40544,0.30988000000000004,0.32452,-5.8275,-13.79,22.295
652,68403,1.366644,0.266692,0.391376,-5.0925,15.82,6.9475
653,68501,1.402756,0.21520799999999998,0.4453,-3.535,49.035,-7.3325
654,68599,1.4112959999999999,0.187148,0.537532,2.2925,86.18751,-20.1775
655,68697,0.69052,-0.0034159999999999998,0.052703999999999994,8.6975,124.46,-34.335
656,68795,0.8254520000000001,-0.241804,-1.7690000000000001,5.8625,127.295,-41.79
657,68894,0.385276,-0.271572,-1.592588,2.6775,107.2925,-43.19
658,68992,0.3355,-0.50264,-0.5777920999999999,13.8425,107.3275,-43.715
659,69090,0.6605081,-0.37332,-0.6893,-1.89,129.045,-41.9825
660,69188,0.72956,-0.392108,-0.9955200000000001,-1.645,126.1925,-22.5925
661,69286,0.6329359999999999,-0.256932,-0.967216,-0.28,113.6275,-11.1825
662,69384,0.6785640000000001,-0.0793,-1.0889719999999998,-3.465,113.4175,-20.615
663,69482,0.783728,-0.179584,-0.966728,-3.01,107.345,-33.4075
664,69580,0.6985720999999999,-0.28621199999999997,-0.8791321,9.3625,95.00751,-29.7675
665,69678,3.0805,0.242536,-2.4870919999999996,45.0625,76.9125,-22.855
666,69776,-0.365268,-0.256444,-0.42163199999999995,98.5075,16.59,-7.0175
667,69874,0.9940559999999999,-0.713212,-0.998448,75.5475,31.3775,-4.165
668,69972,0.5514399999999999,-0.110044,-0.887916,31.43,17.745,-5.39
669,70070,0.5463161,-0.11834000000000001,-0.8256960999999999,29.3475,18.48,-5.81
670,70168,0.5575399999999999,-0.24131599999999997,-0.83814,26.11,11.6025,-3.5875
671,70266,0.5655920999999999,-0.18788,-0.8376520000000001,19.6,8.5225,-3.5175
672,70364,0.566812,-0.22326,-0.813496,16.1875,4.235,-3.22
673,70462,0.540216,-0.23521599999999998,-0.8176439999999999,13.16,0.245,-2.9575
674,70560,0.542168,-0.21862399999999999,-0.813008,10.08,-2.1,-3.3075
675,70658,0.534116,-0.221552,-0.81618,8.5575,-3.7625,-3.255
676,70756,0.529724,-0.233752,-0.809836,7.5425,-4.9875,-3.675
677,70855,0.530456,-0.22643200000000002,-0.818132,6.3175,-5.6875,-4.235
678,70953,0.525576,-0.228872,-0.8132520999999999,5.7225,-6.5625,-4.585
679,71051,0.5233800000000001,-0.22252800000000003,-0.8132520999999999,5.2675,-6.755,-4.76
680,71149,0.517524,-0.22082,-0.815448,4.585,-6.9475,-5.18
681,71247,0.516792,-0.22326,-0.813496,4.2875,-7.035,-5.46
682,71345,0.534848,-0.238632,-0.8352120000000001,3.8675,-6.4575,-5.7225
683,71443,0.5131319999999999,-0.223748,-0.815204,3.1325,-6.37,-6.1425
684,71541,0.502884,-0.225456,-0.806908,2.3625,-6.02,-6.72
685,71639,0.493612,-0.226188,-0.8100801,2.3275,-6.0375,-7.315
686,71737,0.490684,-0.22277199999999997,-0.81374,2.7125,-5.9325,-8.085
687,71835,0.503616,-0.228384,-0.808372,3.185,-5.5475,-8.75
688,71933,0.522648,-0.225456,-0.809348,3.29,-5.5125,-9.345
689,72031,0.530212,-0.21716,-0.80642,2.94,-5.3725,-9.6075
690,72129,0.526552,-0.21374400000000002,-0.8095920999999999,2.9575,-6.02,-9.2925
691,72227,0.524112,-0.214232,-0.809348,3.3075,-6.02,-8.9775
692,72325,0.51972,-0.21862399999999999,-0.81252,3.605,-5.6875,-8.5925
693,72423,0.515572,-0.22472399999999998,-0.8105680000000001,4.0075,-5.1975,-8.47
694,72521,0.51972,-0.21838000000000002,-0.815204,4.2,-4.3225,-8.295
695,72619,0.518256,-0.209352,-0.834724,4.69,-3.5875,-8.26
696,72717,0.518988,-0.23082399999999997,-0.8103239999999999,4.9875,-2.66,-7.665
697,72816,0.519964,-0.217892,-0.8115439999999999,5.0225,-1.575,-7.455
698,72914,0.5158159999999999,-0.22935999999999998,-0.8108121,5.25,-0.9975,-7.42
699,73012,0.515572,-0.232776,-0.8095920999999999,5.18,-0.455,-7.875
700,73110,0.496296,-0.221552,-0.821304,5.2675,-0.14,-8.505
701,73208,0.51972,-0.24156,-0.809348,5.8975,0.735,-9.24
702,73306,0.5172800999999999,-0.228384,-0.815692,6.16,1.295,-9.59
703,73404,0.528504,-0.229604,-0.8081281,6.615,1.8025,-9.835
704,73502,0.5260640000000001,-0.225456,-0.80642,6.7025,2.0825,-9.87
705,73600,0.5353359999999999,-0.22716399999999998,-0.803736,6.5625,2.695,-9.7825
706,73698,0.5099600000000001,-0.22814,-0.8117880000000001,6.5625,2.975,-9.7825
707,73796,0.549244,-0.223748,-0.797148,6.58,5.3725,-10.5175
708,73894,0.528992,-0.22033200000000003,-0.803248,7.175,5.355,-11.13
709,73992,0.5355800999999999,-0.2318,-0.8047121,8.2075,6.7375,-12.0225
710,74090,0.506544,-0.225944,-0.8291120999999999,9.8875,7.9275,-13.5275
711,74188,0.528504,-0.19861600000000001,-0.8291120999999999,8.505,11.62,-11.4975
712,74286,0.50752,-0.229604,-0.824232,9.87,17.0975,-10.7625
713,74384,0.519964,-0.20788800000000002,-0.828868,11.8125,21.6125,-12.1275
714,74483,0.5124001,-0.226188,-0.827892,13.6325,28.6475,-12.495
715,74580,0.5172800999999999,-0.23253200000000002,-0.826428,15.2425,36.0325,-13.335
716,74679,0.517524,-0.24766,-0.8315520000000001,16.3975,44.0475,-14.56
717,74777,0.5321640000000001,-0.237168,-0.8220360000000001,16.24,52.85,-15.785
718,74875,0.5382640000000001,-0.24668400000000001,-0.807396,17.01,61.81,-16.7475
719,74973,0.557296,-0.240096,-0.7993439999999999,17.64,71.365,-18.41
720,75071,0.571204,-0.260104,-0.794708,18.0425,80.6575,-20.37
721,75169,0.589992,-0.254004,-0.7829961,17.29,90.265,-23.3275
722,75267,0.61854,-0.264984,-0.769088,16.66,99.995,-26.8275
723,75365,0.6021920000000001,-0.267912,-0.774212,15.4525,110.6,-30.4325
724,75463,0.5726680000000001,-0.254492,-0.787632,13.4575,122.955,-34.7375
725,75561,0.541192,-0.25254,-0.7922680000000001,11.76,139.3875,-38.2375
726,75659,0.5734,-0.24351199999999998,-0.783972,9.8,158.375,-41.23
727,75757,0.62098,-0.25058800000000003,-0.7564001,8.3825,175.9975,-45.0975
728,75855,0.65758,-0.24424400000000002,-0.757864,5.7575,193.165,-49.42
729,75953,0.687592,-0.266204,-0.786412,3.885,209.86,-53.5675
730,76051,0.7027201,-0.274744,-0.8620521000000001,3.85,224.9975,-57.1025
731,76149,0.790804,-0.264496,-0.823744,7.4025,235.76,-60.235
732,76247,0.8791321,-0.251076,-0.8247200000000001,16.485,246.47,-63.6475
733,76345,0.91622,-0.296704,-0.8508280999999999,29.2425,255.5525,-65.15250999999999
734,76443,0.9203680000000001,-0.313784,-0.8422879999999999,38.0975,260.96,-67.305
735,76542,0.921344,-0.328424,-0.814472,43.0675,264.6875,-71.225
736,76640,0.9389120000000001,-0.31354,-0.81862,44.8875,267.7325,-77.735
737,76738,0.9479401,-0.338428,-0.8815719999999999,47.0575,267.4175,-83.09000999999999
738,76836,0.8335040000000001,-0.511668,-0.768844,40.74,261.6075,-89.3025
739,76934,0.630984,-0.5914560000000001,-0.808372,4.13,263.165,-106.8725
740,77032,0.765184,-0.687592,-1.4093440000000002,-66.08,261.7825,-137.41
741,77130,0.86864,0.346236,-2.79014,-144.1475,214.5675,-175.6825
742,77228,1.6684720000000002,0.60146,-3.4160000000000004,-107.52,91.1225,-184.2225
743,77326,0.833016,-0.026595999999999998,-2.4756240000000003,10.43,-32.7775,-156.275
744,77424,0.31158800000000003,-0.368684,-1.6409,84.03501,-114.3275,-134.9425
745,77522,0.050263999999999996,-0.7761640999999999,-0.9757561,105.9275,-155.6625,-106.0675
746,77620,0.004636001,-1.037488,-0.6944241,91.3675,-157.78,-70.9275
747,77718,0.118584,-1.048224,-0.7686,44.6775,-137.375,-35.49
748,77816,0.321104,-0.9479401,-0.9347639999999999,-1.75,-122.2375,0.42
749,77914,0.447984,-0.6895439999999999,-1.01504,-42.385,-120.2775,29.6975
750,78013,0.552172,-0.310368,-1.093852,-71.435,-131.3025,48.2475
751,78111,0.6348881,-0.01708,-1.1102,-71.71500999999999,-154.735,58.8
752,78209,0.687104,0.09906401,-1.056032,-50.4175,-182.1575,61.425
753,78307,0.6954,0.122,-0.9821,-28.6125,-205.6425,54.285
754,78405,0.6822239999999999,0.050508,-0.8796200000000001,-12.495,-224.805,42.3325
755,78503,0.7046720999999999,-0.046360000000000005,-0.798856,-5.3375,-238.77,31.6575
756,78601,0.772748,-0.115168,-0.763476,-5.6175,-246.5575,26.355
757,78699,0.849608,-0.151036,-0.7449321,-6.2125,-251.4575,27.9825
758,78797,0.9079241,-0.202032,-0.71248,-6.4575,-255.43,34.5625
759,78895,0.94916,-0.232776,-0.70028,-9.1175,-257.39,41.58
760,78993,0.946232,-0.260592,-0.694912,-12.7925,-256.865,49.105
761,79091,0.94306,-0.270352,-0.692716,-16.625,-254.17,56.0875
762,79189,0.944768,-0.266936,-0.71858,-19.355,-249.41,61.8975
763,79287,0.9618481,-0.246196,-0.7625,-19.2675,-244.0025,66.46500999999999
764,79385,1.001132,-0.236192,-0.822524,-16.7125,-239.33,69.65
765,79483,1.0309,-0.197152,-0.833992,-12.145,-235.9,71.8725
766,79581,1.079456,-0.123464,-0.8457040000000001,-5.285,-231.6125,73.7625
767,79679,1.1716879999999998,-0.014152000000000001,-0.9128040000000001,3.0625,-226.24,75.2325
768,79777,1.288076,0.094916,-1.0523719999999999,10.745,-221.7775,73.6225
769,79875,1.412272,0.167628,-1.16388,13.6675,-221.6025,64.4
770,79973,1.474736,0.23472800000000002,-1.170712,12.5125,-224.8925,47.0925
771,80072,1.588196,0.17616800000000002,-1.048956,12.7575,-230.475,27.125
772,80170,1.6326040000000002,0.049288,-0.859368,17.0975,-232.2075,10.01
773,80268,1.63724,-0.15128,-0.615124,21.5775,-229.3725,1.7675
774,80366,1.607716,-0.310368,-0.371612,24.255,-219.0825,5.3375
775,80464,1.587708,-0.319152,-0.188124,23.59,-201.67,19.32
776,80562,1.565016,-0.188368,-0.044407999999999996,21.6125,-180.2675,37.3275
777,80660,1.553304,-0.06075601,0.053924,19.2675,-156.5025,52.71
778,80758,1.5708719999999998,0.036112,0.119072,13.3875,-130.6375,60.9875
779,80856,1.619916,0.125904,0.16958,2.87,-104.825,60.2175
780,80954,1.6333360000000001,0.215452,0.24058400000000002,-8.4875,-81.76001,50.96
781,81052,1.5701399999999999,0.28548,0.324764,-14.945,-60.165,36.785
782,81150,1.464732,0.26766799999999996,0.35014,-14.28,-36.645,23.0825
783,81248,1.5906360000000002,0.167384,0.447008,-9.205,-7.4025,9.5025
784,81346,1.29198,0.13298,0.324276,-4.4275,25.865,-0.9975
785,81444,1.4095879999999998,0.165432,0.2928,-1.855,54.53,-9.275
786,81542,1.1211799999999998,0.194468,0.522648,1.155,89.6875,-16.9925
787,81640,0.46896800000000005,-0.296948,-0.9911281,-3.3075,132.825,-30.0825
788,81738,0.29987600000000003,-0.134444,-1.893684,-23.03,140.5075,-42.0
789,81836,0.274012,-0.386496,-0.7808001,-16.765,138.4775,-47.81
790,81935,0.7134560999999999,-0.416996,-0.6029241,-26.495,161.98,-49.665
791,82033,0.9474520000000001,-0.31402800000000003,-1.070916,-29.015,166.495,-28.8225
792,82131,0.733952,-0.145912,-1.113616,-16.59,146.09,-2.9925
793,82229,0.510692,0.030744,-0.8810841,-12.4775,135.275,1.7325
794,82327,0.767868,-0.013663999999999999,-0.9535521,-5.705,136.08,-3.045
795,82425,0.9181720999999999,0.063196,-1.2343959999999998,-3.5875,135.6425,-12.285
796,82523,0.790072,-0.183488,-1.032608,12.74,117.7925,-21.595
797,82621,3.199084,0.373808,-1.735816,79.625,81.935,-30.66
798,82719,-0.138348,-0.557052,-0.642452,134.9075,27.335,-2.6775
799,82817,1.0016200000000002,-0.7700640999999999,-0.964532,95.305,33.4425,4.13
800,82915,0.6231760999999999,-0.07710399999999999,-0.983564,44.2575,23.0125,-1.995
801,83013,0.5165481,-0.14786400000000002,-0.818132,37.52,19.9675,-2.695
802,83111,0.5504641,-0.263764,-0.8327720999999999,32.4975,15.4175,0.1225
803,83209,0.5463161,-0.21081599999999998,-0.8249639999999999,23.94,12.985,-0.8925
804,83307,0.5441199999999999,-0.22472399999999998,-0.819108,20.1425,9.0475,-1.3825
805,83405,0.5353359999999999,-0.2135,-0.826672,16.31,4.3925,-1.575
806,83503,0.532408,-0.20252,-0.821792,13.9825,0.8575,-2.135
807,83601,0.5292359999999999,-0.204716,-0.821304,12.1625,-1.365,-2.2225
808,83699,0.534116,-0.228384,-0.813008,10.3775,-2.905,-2.7125
809,83797,0.5294800000000001,-0.23058,-0.818132,8.4875,-3.99,-3.3075
810,83896,0.532896,-0.242292,-0.8222799999999999,6.895,-4.795,-4.2525
811,83994,0.52094,-0.223992,-0.817156,5.5475,-5.6875,-4.9525
812,84092,0.519964,-0.221552,-0.823744,4.3225,-6.1775,-5.67
813,84190,0.518012,-0.22423600000000002,-0.8188641,3.1325,-6.0375,-6.4575
814,84288,0.5233800000000001,-0.22667600000000002,-0.820816,1.785,-5.74,-7.4025
815,84386,0.5131319999999999,-0.203984,-0.812032,0.6475,-5.95,-7.91
816,84484,0.503128,-0.217892,-0.8115439999999999,0.4375,-6.3525,-8.5575
817,84582,0.504592,-0.205204,-0.8142281,0.1225,-6.6675,-9.24
818,84680,0.49995600000000007,-0.20861999999999997,-0.811056,0.7,-6.8775,-9.765
819,84778,0.506544,-0.200568,-0.8203280000000001,0.8575,-6.6325,-9.9225
820,84876,0.503372,-0.21472,-0.8117880000000001,2.555,-6.9125,-9.66
821,84974,0.514108,-0.21057199999999998,-0.815692,3.2375,-6.4575,-10.08
822,85072,0.5063,-0.2135,-0.818132,4.2,-6.6675,-9.9575
823,85170,0.514596,-0.208132,-0.8188641,5.005,-6.1075,-9.905
824,85268,0.512644,-0.234972,-0.806908,5.4075,-5.775,-10.2725
825,85366,0.5214281,-0.22277199999999997,-0.8193521,5.635,-5.5825,-10.185
826,85464,0.528016,-0.228872,-0.8244761,5.985,-5.5475,-9.765
827,85562,0.522648,-0.229604,-0.811056,5.985,-5.5125,-9.7125
828,85661,0.517768,-0.209352,-0.8166680000000001,5.8275,-4.725,-9.975
829,85759,0.51362,-0.20618000000000003,-0.820084,6.23,-3.9025,-9.835
830,85857,0.510692,-0.22277199999999997,-0.81862,6.7375,-2.94,-9.0825
831,85955,0.50508,-0.20984,-0.828624,6.685,-1.715,-9.1875
832,86053,0.51972,-0.227408,-0.813984,7.315,-0.1575,-9.52
833,86151,0.523624,-0.221796,-0.813496,7.245,1.1025,-9.5375
834,86249,0.528504,-0.223748,-0.808372,6.7725,2.0825,-9.6775
835,86347,0.5246,-0.217404,-0.8042239999999999,6.4925,2.7825,-9.555
836,86445,0.49751599999999996,-0.22448,-0.8281360999999999,6.23,3.325,-9.38
837,86543,0.54168,-0.214964,-0.8091041,6.615,4.8825,-9.94
838,86641,0.524356,-0.21301199999999998,-0.8115439999999999,7.5775,5.74,-10.78
839,86739,0.5165481,-0.22252800000000003,-0.8132520999999999,9.59,7.4725,-12.425
840,86837,0.472628,-0.244732,-0.8274040000000001,12.0225,10.4475,-14.49
841,86935,0.5343600000000001,-0.19178399999999998,-0.8359440999999999,8.4175,15.82,-12.5825
842,87033,0.49312399999999995,-0.21813600000000002,-0.8332601000000001,10.71,21.0875,-12.4425
843,87131,0.51362,-0.198128,-0.8437520000000001,11.7075,28.175,-13.86
844,87229,0.509716,-0.20374,-0.8378960999999999,11.375,36.645,-13.4925
845,87327,0.5084960000000001,-0.209352,-0.838628,10.255,46.2525,-13.86
846,87425,0.5214281,-0.21862399999999999,-0.8315520000000001,10.885,55.9825,-14.4725
847,87523,0.533384,-0.228384,-0.8254520000000001,11.27,66.675,-15.9775
848,87622,0.557296,-0.24424400000000002,-0.8091041,11.655,77.4375,-17.675
849,87720,0.57218,-0.25424800000000003,-0.813008,12.0575,88.30501,-20.23
850,87818,0.58316,-0.261812,-0.793244,11.8475,98.82251,-23.555
851,87916,0.5946279999999999,-0.24497600000000003,-0.77836,10.2025,109.6025,-26.3375
852,88014,0.5919439999999999,-0.23521599999999998,-0.775676,7.84,120.575,-29.8375
853,88112,0.567056,-0.217648,-0.775676,6.405,132.335,-33.3375
854,88210,0.5675439999999999,-0.229604,-0.793976,4.7075,147.28,-35.805
855,88308,0.5826720000000001,-0.23741199999999998,-0.79666,2.59,164.8325,-39.1825
856,88406,0.6202479999999999,-0.23228800000000002,-0.767624,0.0525,181.5625,-44.0475
857,88504,0.6856399999999999,-0.228872,-0.7666480999999999,-0.56,195.6325,-46.935
858,88602,0.7178479999999999,-0.229604,-0.788608,0.0,208.25,-49.6125
859,88700,0.729804,-0.254004,-0.815448,0.5075,219.03,-54.2675
860,88798,0.8193521,-0.256444,-0.81618,3.395,228.2175,-57.47
861,88896,0.8591241,-0.261812,-0.8176439999999999,12.2325,240.31,-61.9675
862,88994,0.892308,-0.275964,-0.823256,21.35,251.4575,-65.975
863,89092,0.9259799999999999,-0.30622,-0.8322841000000001,31.85,260.82,-69.2825
864,89190,0.922076,-0.335988,-0.8044680999999999,38.955,267.12,-72.765
865,89288,0.9555040000000001,-0.321348,-0.8322841000000001,40.775,274.2775,-78.96
866,89387,0.964776,-0.312076,-0.9167081,42.9275,278.1975,-84.84
867,89485,0.8935280999999999,-0.483364,-0.876692,44.31,275.31,-89.46
868,89583,0.831308,-0.5380199999999999,-0.8230120999999999,17.5875,277.165,-104.545
869,89681,0.6810039999999999,-0.638548,-1.076284,-34.23,278.46,-126.77
870,89779,0.9032879999999999,0.047580000000000004,-2.4870919999999996,-121.6775,256.305,-170.6425
871,89877,1.8065759999999997,0.7834840000000001,-3.542636,-122.115,143.465,-197.12
872,89975,1.2639200000000002,-0.07490801,-2.9628919999999996,-7.105,0.8925,-174.79
873,90073,0.45261999999999997,-0.467016,-1.9007599999999998,85.69751,-100.0475,-146.7725
874,90171,0.11467999999999999,-0.8847440999999999,-1.167784,112.385,-155.225,-108.115
875,90269,-0.07442,-1.134844,-0.7661600000000001,102.7425,-165.9525,-59.675
876,90367,0.01586,-1.057984,-0.7329760000000001,56.1925,-148.715,-17.5525
877,90465,0.179828,-0.8727879999999999,-0.8698601,6.8775,-129.9025,18.585
878,90563,0.316956,-0.607804,-0.9711200999999999,-36.54,-123.76,45.0975
879,90661,0.44896,-0.23228800000000002,-1.057984,-69.615,-132.5975,56.7525
880,90759,0.5397281,0.08344800000000001,-1.092876,-73.4825,-155.4175,59.7975
881,90857,0.609268,0.202032,-1.039196,-50.3125,-185.57,58.835
882,90955,0.621712,0.21032800000000001,-0.9381801,-23.8875,-211.9075,50.3125
883,91053,0.611464,0.142496,-0.8364321,-4.8825,-232.1025,37.45
884,91151,0.628544,0.030012,-0.7510321,4.8125,-247.0475,26.25
885,91249,0.685884,-0.040992,-0.716384,4.3925,-255.15,20.1075
886,91347,0.788852,-0.09442801,-0.7283400999999999,1.5925,-258.8425,21.1225
887,91445,0.9057280999999999,-0.16348,-0.7515201,-0.595,-261.415,28.4025
888,91544,0.9608721,-0.226188,-0.751276,-4.6375,-263.9525,38.0975
889,91642,0.9701440999999998,-0.24888000000000002,-0.7449321,-12.0925,-264.3375,47.355
890,91740,0.9767321,-0.249612,-0.7549359999999999,-18.9525,-261.3275,55.8775
891,91838,0.9840521000000001,-0.24936799999999998,-0.7834840000000001,-22.855,-256.0775,63.49
892,91936,1.00406,-0.232776,-0.8369200000000001,-23.9925,-250.215,69.545
893,92034,1.0523719999999999,-0.22326,-0.901336,-22.8025,-244.9125,73.36
894,92132,1.110688,-0.203252,-0.9259799999999999,-19.3025,-240.8525,76.0025
895,92230,1.1897440000000001,-0.17128800000000002,-0.9406200000000001,-13.4575,-236.845,78.8025
896,92328,1.297104,-0.106628,-0.992592,-7.665,-232.5225,82.355
897,92426,1.4191040000000001,-0.021472,-1.085068,-3.64,-229.6525,82.7575
898,92524,1.516704,0.10418800000000002,-1.128744,-2.3975,-230.4925,75.6875
899,92622,1.597956,0.204228,-1.089216,-0.21,-234.2025,60.9875
900,92720,1.660664,0.200568,-0.9696561,6.65,-239.05,42.105
901,92818,1.6775,0.06929600000000001,-0.755912,17.2025,-241.2025,26.0575
902,92916,1.6384599999999998,-0.035868000000000004,-0.525332,26.0925,-237.0025,16.2225
903,93014,1.591856,-0.0793,-0.341844,31.9025,-223.2475,15.715
904,93112,1.674084,-0.093696,-0.149816,39.4275,-202.2825,20.65
905,93210,1.6521240000000001,0.174216,-0.08003201,41.0725,-175.9625,23.205
906,93308,1.603812,0.22423600000000002,0.042212,38.185,-153.9475,23.45
907,93406,1.524756,0.299388,0.181536,26.32,-131.775,19.3375
908,93504,1.600152,0.295484,0.30548800000000004,11.025,-106.5925,9.03
909,93602,1.63968,0.33305999999999997,0.398452,0.525,-80.6225,-3.85
910,93701,1.677012,0.31476,0.477508,-5.0925,-47.6525,-13.1425
911,93799,1.580876,0.256932,0.450424,-4.1475,-12.67,-19.5475
912,93897,1.520852,0.23009200000000002,0.37576,-5.0575,18.06,-24.255
913,93995,1.508408,0.20008,0.32866799999999996,0.0875,43.715,-26.3025
914,94093,1.382992,0.22326,0.5665680000000001,11.515,75.3025,-29.925
915,94191,0.657092,0.0034159999999999998,0.19861600000000001,18.5675,124.215,-40.3375
916,94289,0.693448,-0.342332,-1.8585479999999999,13.5625,145.7575,-45.64
917,94387,0.343796,-0.378444,-1.548912,1.7325,134.3475,-50.365
918,94485,0.41382399999999997,-0.6709999999999999,-0.544608,7.0875,139.86,-49.1925
919,94583,0.7812880999999999,-0.48922,-0.72224,-10.8675,164.08,-40.1275
920,94681,0.785192,-0.387472,-0.9774639999999999,-6.2475,156.8,-11.935
921,94779,0.58804,-0.11028800000000001,-0.9784401,-3.01,143.9025,0.805
922,94877,0.7661600000000001,-0.027083999999999997,-1.081652,-1.155,143.5,-7.735
923,94975,1.01016,0.007564001,-1.2275639999999999,-2.905,141.085,-25.1125
924,95073,2.9053080000000002,0.8693719999999999,-4.50546,38.6575,110.67,-27.195
925,95171,-0.244732,-0.40748,-0.008296000999999999,140.595,28.175,-13.265
926,95269,1.34932,-1.054812,-1.331508,104.79,38.29,-3.5
927,95367,0.42212,-0.066856,-0.8291120999999999,36.7325,18.1825,-3.4825
928,95465,0.52704,-0.007076001,-0.8740081000000001,32.97,18.3925,-6.0025
929,95563,0.557296,-0.262788,-0.8518040000000001,31.1325,11.41,-1.9075
930,95662,0.537288,-0.194468,-0.835456,23.205,10.0625,-1.995
931,95760,0.552416,-0.217648,-0.8210601000000001,18.41,7.9275,-3.045
932,95858,0.543388,-0.225456,-0.818132,14.9275,3.6225,-3.29
933,95956,0.53314,-0.20618000000000003,-0.826428,11.1825,0.2975,-3.9025
934,96054,0.522648,-0.225212,-0.824232,9.0825,-2.38,-4.0425
935,96152,0.5231359999999999,-0.223748,-0.8164239999999999,7.56,-4.025,-4.515
936,96250,0.517524,-0.21447600000000003,-0.8215481,6.3,-5.215,-5.1275
937,96348,0.5099600000000001,-0.217648,-0.818376,6.02,-5.775,-5.1975
938,96446,0.50508,-0.217404,-0.81984,5.6875,-5.635,-5.495
939,96544,0.508984,-0.223748,-0.8215481,5.6175,-5.285,-5.6175
940,96642,0.517524,-0.225456,-0.815936,5.6,-4.7425,-5.6525
941,96740,0.511668,-0.22082,-0.815448,4.8125,-4.305,-5.8625
942,96838,0.5077640999999999,-0.229604,-0.8127641,4.6025,-4.2525,-6.1425
943,96936,0.509228,-0.229604,-0.817156,4.6025,-4.6375,-6.4225
944,97034,0.5016641,-0.226188,-0.8147161,4.76,-5.075,-6.5975
945,97132,0.50142,-0.22667600000000002,-0.8142281,5.075,-5.495,-6.9125
946,97230,0.49824799999999997,-0.22106399999999998,-0.819108,5.74,-5.7225,-7.4375
947,97328,0.5038600000000001,-0.212524,-0.8113001,6.37,-5.74,-7.7175
948,97426,0.498004,-0.208864,-0.8203280000000001,7.21,-5.3375,-7.5775
949,97525,0.49995600000000007,-0.203252,-0.817156,8.155,-4.4975,-7.4025
950,97623,0.503128,-0.22496799999999997,-0.8127641,8.9075,-3.0625,-7.3675
951,97721,0.5043479999999999,-0.233996,-0.8178880999999999,9.275,-1.9425,-7.105
952,97819,0.522892,-0.22789600000000002,-0.8235001000000001,9.065,-0.7875,-6.9825
953,97917,0.524112,-0.226188,-0.8142281,8.6625,-0.07,-6.5975
954,98015,0.518744,-0.22448,-0.815936,8.645,0.56,-6.3875
955,98113,0.522404,-0.23009200000000002,-0.812276,8.05,0.8225,-6.58
956,98211,0.50874,-0.23058,-0.812276,7.595,1.0675,-7.0175
957,98309,0.518744,-0.23741199999999998,-0.8105680000000001,7.28,1.4,-7.455
958,98407,0.51972,-0.24058400000000002,-0.807396,6.8775,1.75,-7.945
959,98505,0.518744,-0.219356,-0.812032,6.615,1.6975,-8.0675
960,98603,0.5206960999999999,-0.227652,-0.8076399999999999,6.3525,1.7325,-8.3475
961,98701,0.478728,-0.223748,-0.84424,5.635,2.03,-8.6975
962,98799,0.5343600000000001,-0.237168,-0.8108121,5.7925,2.5025,-9.2225
963,98897,0.519964,-0.23448400000000003,-0.807396,5.705,3.4475,-9.7475
964,98995,0.5294800000000001,-0.238144,-0.8091041,5.88,4.445,-10.71
965,99093,0.5084960000000001,-0.22862800000000003,-0.8149601,7.2975,6.615,-12.7225
966,99192,0.48873199999999994,-0.254004,-0.8308200000000001,9.7475,8.6275,-14.84
967,99290,0.5206960999999999,-0.214232,-0.8327720999999999,7.6825,13.4225,-12.53
968,99388,0.49751599999999996,-0.22691999999999998,-0.8378960999999999,10.185,19.4425,-12.355
969,99486,0.51484,-0.204228,-0.8357,12.5125,25.655,-13.7375
970,99584,0.5084960000000001,-0.21447600000000003,-0.828868,14.07,33.0575,-13.5975
971,99682,0.52094,-0.23155599999999998,-0.830576,14.4725,41.5275,-13.615
972,99780,0.506788,-0.232776,-0.8398479999999999,13.44,50.8375,-13.7025
973,99878,0.5231359999999999,-0.252784,-0.8344801,13.86,61.4425,-15.085
974,99976,0.5380199999999999,-0.262788,-0.820816,14.8925,72.0825,-17.3075
975,100074,0.547048,-0.26718000000000003,-0.823744,14.8225,84.07001,-20.755
976,100172,0.564128,-0.292068,-0.799588,15.0325,96.04,-24.5875
977,100270,0.5777920999999999,-0.27694,-0.7922680000000001,13.055,109.0775,-29.2775
978,100368,0.5936520000000001,-0.273768,-0.768844,11.935,120.9775,-34.16
979,100466,0.569984,-0.256444,-0.7612800999999999,10.675,133.0,-39.06
980,100564,0.570472,-0.223504,-0.7622561,10.465,147.2275,-42.49
981,100662,0.5948720000000001,-0.235948,-0.759328,9.205,162.785,-44.31
982,100760,0.594384,-0.27523200000000003,-0.767624,6.8775,179.5325,-47.6525
983,100858,0.6512359999999999,-0.227408,-0.752008,1.75,195.8425,-52.99
984,100956,0.7093081,-0.23253200000000002,-0.752496,0.9975,210.7175,-56.525
985,101054,0.8047121,-0.233264,-0.7991,1.3825,222.145,-58.2575
986,101152,0.763232,-0.22667600000000002,-0.8430200999999999,8.8025,232.715,-59.955
987,101250,0.873276,-0.21886799999999998,-0.820572,15.0325,245.0,-61.2325
988,101349,0.9015799999999999,-0.275964,-0.850584,27.685,255.92,-61.04
989,101447,0.9394,-0.28767600000000004,-0.8708360999999999,37.1875,263.935,-62.265
990,101545,0.9389120000000001,-0.334768,-0.8256960999999999,41.9475,269.6575,-64.3825
991,101643,0.9828321,-0.350628,-0.8261841000000001,42.98,274.89,-69.0375
992,101741,0.9860040999999999,-0.37746799999999997,-0.9274440999999999,39.62,275.3275,-76.2825
993,101839,0.8918200000000001,-0.5185,-0.8625401,33.6525,265.1075,-85.085
994,101937,0.69784,-0.619516,-0.71492,-2.765,263.13,-100.0125
995,102035,0.5514399999999999,-0.567056,-0.9620920000000001,-73.5875,271.915,-125.72
996,102133,0.85888,-0.321836,-1.9651759999999998,-160.055,257.67,-159.8275
997,102231,1.2519639999999999,0.9254921,-3.412584,-194.3025,166.985,-191.835
998,102329,1.369816,0.41113999999999995,-3.088308,-77.525,14.8225,-173.53
999,102427,0.488976,-0.050508,-2.021052,47.11,-96.4075,-146.93
1000,102525,0.10858,-0.48214399999999996,-1.224636,109.9175,-160.685,-123.8475
1001,102623,-0.014396,-0.944524,-0.8252079999999999,126.2275,-183.365,-88.55
1002,102721,0.071004,-1.06994,-0.695156,86.59,-172.8825,-60.27
1003,102819,0.22106399999999998,-1.068964,-0.7766521,32.6725,-156.0475,-31.605
1004,102917,0.40357600000000005,-0.9376921,-0.8632719999999999,-16.975,-147.3675,0.1925
1005,103015,0.50264,-0.64172,-0.9093880999999999,-56.4025,-147.8225,30.4675
1006,103113,0.6009720000000001,-0.338428,-0.960384,-73.4825,-160.2125,55.335
1007,103212,0.684176,-0.133956,-0.975024,-68.04,-181.125,71.575
1008,103310,0.715164,-0.0034159999999999998,-0.930616,-53.2175,-202.9125,75.845
1009,103408,1.2322,0.141764,-0.8642481,-38.675,-219.345,70.175
1010,103506,1.061644,0.063684,-0.74908,-13.8425,-233.94,62.93
1011,103604,1.024068,-0.051484,-0.5321640000000001,0.3325,-259.7875,66.6225
1012,103702,0.9098761000000001,0.044164,-0.42895200000000006,-14.3675,-260.3475,57.225
1013,103800,0.9296399999999999,0.011468,-0.444568,-17.57,-252.7,50.5575
1014,103898,0.8662001,-0.1403,-0.46311199999999997,-15.8375,-242.2875,48.8425
1015,103996,0.8693719999999999,-0.264252,-0.520452,-23.45,-231.4025,47.0575
1016,104094,0.871568,-0.328912,-0.604144,-39.13,-219.9575,45.0625
1017,104192,0.8788879999999999,-0.340136,-0.659776,-50.715,-212.59,46.585
1018,104290,0.9655081,-0.318664,-0.774944,-55.7025,-208.8275,50.715
1019,104388,0.9967401,-0.32208000000000003,-0.839116,-48.1425,-208.18,58.065
1020,104486,1.0230920000000001,-0.332572,-0.8337481,-34.23,-211.8375,67.2875
1021,104584,1.006256,-0.28987199999999996,-0.7937320999999999,-24.15,-214.235,73.3775
1022,104682,1.005036,-0.23448400000000003,-0.7517640999999999,-15.435,-213.185,76.2125
1023,104780,1.057008,-0.143228,-0.7722600000000001,-7.0875,-207.6725,76.93
1024,104878,1.179008,-0.050263999999999996,-0.895236,1.2425,-201.53,74.9875
1025,104977,1.297104,0.06124401,-1.01748,8.365,-199.955,68.4075
1026,105075,1.3583479999999999,0.190808,-1.030412,15.365,-204.7325,56.1225
1027,105173,1.379576,0.285236,-0.944768,24.5525,-211.19,38.395
1028,105271,1.399096,0.256932,-0.8108121,37.0125,-214.97,18.795
1029,105369,1.372012,0.349164,-0.5248441,49.5425,-213.2725,2.38
1030,105467,1.716784,-0.424072,0.157868,79.5375,-200.0775,2.1875
1031,105565,1.410564,-0.07978801,-0.125904,65.1175,-167.93,-6.3175
1032,105663,1.3712799999999998,-0.035624,-0.029524,51.0475,-129.9375,-4.13
1033,105761,1.484008,0.124928,-0.08906,41.1775,-98.665,0.5075
1034,105859,1.536956,0.13151600000000002,-0.112972,45.675,-77.665,8.785
1035,105957,1.649684,0.094916,-0.183976,43.015,-64.12,13.44
1036,106055,1.56892,0.17446,-0.10906800000000001,25.0425,-55.6675,10.5525
1037,106153,1.52744,0.227652,0.199104,11.3575,-47.425,3.955
1038,106251,1.510848,0.279868,0.385764,-2.3275,-25.62,-4.4625
1039,106349,1.50304,0.239364,0.46335600000000005,-9.975,6.7025,-13.3525
1040,106447,1.5340280000000002,0.209108,0.5873079999999999,-14.315,42.9275,-21.9975
1041,106545,1.556476,0.195444,0.6856399999999999,-16.275,83.72001,-33.11
1042,106643,1.480592,0.09613601,0.587064,-14.9625,126.3675,-43.0675
1043,106742,0.8422879999999999,-0.194468,-1.15534,-13.685,145.425,-42.07
1044,106840,0.644892,-0.2928,-1.9183279999999998,-13.3875,121.66,-36.4175
1045,106938,0.42065600000000003,-0.38966799999999996,-0.8893800999999999,7.035,109.235,-31.0625
1046,107036,0.549488,-0.33305999999999997,-0.492148,-1.995,125.9475,-31.045
1047,107134,0.9845401,-0.3965,-1.136796,-2.7475,131.88,-17.7975
1048,107232,1.0706719999999998,-0.05929201,-1.39934,-4.725,116.3575,-19.4775
1049,107330,0.7217521,-0.116632,-0.8991401,13.9825,95.48,-23.8525
1050,107428,2.967772,0.450668,-2.759884,44.1175,79.1175,-17.2375
1051,107526,-0.388936,-0.357948,-0.353312,101.1675,17.0625,0.1925
1052,107624,1.065548,-0.8332601000000001,-1.172176,75.495,27.895,1.015
1053,107722,0.485804,-0.025376,-0.8481440999999998,28.5075,17.185,-2.73
1054,107820,0.525088,-0.18544000000000002,-0.8095920999999999,28.9625,15.365,-4.7075
1055,107918,0.5575399999999999,-0.221796,-0.8483879999999999,24.5175,8.9425,-3.535
1056,108016,0.526308,-0.19276,-0.840824,19.3725,5.7225,-3.92
1057,108114,0.5502199999999999,-0.22057600000000002,-0.822768,16.065,2.5725,-4.3925
1058,108213,0.540216,-0.205204,-0.8247200000000001,12.7575,-0.56,-4.3575
1059,108310,0.532896,-0.202276,-0.8195960999999999,10.5,-3.29,-4.235
1060,108409,0.530456,-0.221308,-0.8178880999999999,9.0475,-4.97,-4.1125
1061,108506,0.529968,-0.21838000000000002,-0.8169121,6.6325,-5.9675,-4.69
1062,108605,0.527772,-0.223992,-0.8149601,4.7075,-7.7175,-5.4775
1063,108703,0.5219159999999999,-0.223016,-0.8166680000000001,3.325,-8.89,-6.23
1064,108801,0.518988,-0.211548,-0.818132,2.8,-9.1875,-6.545
1065,108899,0.518744,-0.217404,-0.821792,2.695,-8.855,-6.545
1066,108997,0.512888,-0.197884,-0.8117880000000001,2.45,-8.9075,-6.5975
1067,109095,0.510204,-0.203496,-0.820084,3.6225,-8.575,-6.3875
1068,109193,0.508252,-0.23009200000000002,-0.8169121,3.4825,-7.28,-6.195
1069,109291,0.5121560000000001,-0.211304,-0.8174001000000001,3.675,-6.2475,-6.1425
1070,109389,0.5016641,-0.221796,-0.8147161,3.64,-5.9325,-6.37
1071,109487,0.499468,-0.223748,-0.8132520999999999,3.675,-5.635,-6.79
1072,109585,0.50508,-0.23253200000000002,-0.8091041,3.85,-5.775,-7.42
1073,109683,0.5023960999999999,-0.22691999999999998,-0.80886,3.85,-5.9675,-8.2425
1074,109781,0.504104,-0.221796,-0.818132,3.7625,-6.125,-8.995
1075,109879,0.5023960999999999,-0.21716,-0.815448,4.165,-6.0025,-9.2925
1076,109977,0.49824799999999997,-0.216916,-0.8147161,4.55,-5.565,-9.3275
1077,110075,0.5016641,-0.226188,-0.8174001000000001,5.355,-5.11,-9.4325
1078,110173,0.5060560000000001,-0.23472800000000002,-0.809348,5.88,-4.2,-9.2925
1079,110271,0.51362,-0.225944,-0.8220360000000001,6.0025,-3.535,-9.45
1080,110370,0.518256,-0.22691999999999998,-0.8178880999999999,6.125,-3.08,-9.485
1081,110468,0.521672,-0.22277199999999997,-0.8127641,5.635,-2.5375,-9.765
1082,110566,0.514108,-0.217892,-0.81862,5.215,-2.45,-10.22
1083,110664,0.51972,-0.225944,-0.8164239999999999,4.795,-2.135,-10.71
1084,110762,0.52094,-0.22667600000000002,-0.8147161,4.585,-1.575,-10.8325
1085,110860,0.513376,-0.22667600000000002,-0.813984,4.865,-1.2775,-10.8325
1086,110958,0.525576,-0.223992,-0.811056,5.0575,-0.7525,-10.6225
1087,111056,0.524356,-0.216428,-0.8113001,5.075,0.105,-10.2025
1088,111154,0.5246,-0.219356,-0.8147161,5.2675,0.9275,-9.6075
1089,111252,0.5231359999999999,-0.212524,-0.815936,5.1275,2.1525,-9.1175
1090,111350,0.5002,-0.211792,-0.8239880999999999,5.425,3.2725,-8.89
1091,111448,0.530212,-0.220088,-0.8086161000000001,5.9675,5.5475,-9.205
1092,111546,0.514108,-0.226188,-0.814472,6.79,8.19,-10.2375
1093,111644,0.474092,-0.2074,-0.8461921,7.525,11.935,-11.6725
1094,111742,0.519964,-0.22326,-0.815692,5.8625,16.94,-9.6425
1095,111840,0.5124001,-0.21228000000000002,-0.8361879999999999,8.33,21.1925,-11.2
1096,111938,0.517768,-0.20447200000000001,-0.8235001000000001,8.365,26.25,-11.5325
1097,112036,0.517524,-0.22106399999999998,-0.8220360000000001,9.275,31.64,-12.285
1098,112135,0.516792,-0.223748,-0.8274040000000001,8.9425,37.38,-12.6175
1099,112233,0.52094,-0.239364,-0.81984,7.8575,43.75,-13.1075
1100,112331,0.529724,-0.245952,-0.8113001,7.9275,50.7325,-14.8575
1101,112429,0.53192,-0.24790399999999999,-0.8188641,8.645,57.855,-17.045
1102,112527,0.55266,-0.24058400000000002,-0.807884,9.2575,66.4825,-20.0025
1103,112625,0.565836,-0.23692399999999997,-0.812276,10.08,75.495,-22.6275
1104,112723,0.5873079999999999,-0.254492,-0.7854361,10.0275,85.12,-25.4275
1105,112821,0.608536,-0.24668400000000001,-0.762988,8.68,94.6225,-28.14
1106,112919,0.604876,-0.21838000000000002,-0.760304,6.44,103.6525,-30.0475
1107,113017,0.6097560000000001,-0.20105599999999998,-0.756156,4.3225,113.3475,-31.3425
1108,113115,0.5917,-0.191296,-0.767868,2.8,124.25,-32.445
1109,113213,0.600484,-0.216916,-0.7832399999999999,0.6125,137.7775,-32.7425
1110,113311,0.603168,-0.22716399999999998,-0.792024,-2.275,153.3525,-35.42
1111,113409,0.6156119999999999,-0.237656,-0.769088,-5.7225,169.3825,-39.48
1112,113507,0.6729520999999999,-0.25254,-0.776896,-7.385,185.0275,-43.155
1113,113605,0.6785640000000001,-0.268644,-0.826428,-8.085,200.305,-49.3675
1114,113703,0.705892,-0.26474000000000003,-0.8425321,-7.2275,212.205,-54.6525
1115,113801,0.8044680999999999,-0.279624,-0.8418,-2.94,224.1925,-60.5675
1116,113899,0.877668,-0.282308,-0.8371639999999999,5.0575,237.8075,-67.1825
1117,113997,0.9032879999999999,-0.298168,-0.8764481,15.2075,251.2125,-72.6425
1118,114096,0.9167081,-0.31451599999999996,-0.8666879999999999,26.8975,261.24,-76.475
1119,114194,0.9206120000000001,-0.331596,-0.8425321,35.77,269.325,-80.3075
1120,114292,0.9572120999999999,-0.294996,-0.8479,40.74,277.1825,-86.17
1121,114390,0.979416,-0.366244,-0.9555040000000001,46.865,278.88,-88.2875
1122,114488,0.8781559999999999,-0.47213999999999995,-0.8881600000000001,42.49,277.0425,-95.165
1123,114586,0.8532681000000001,-0.60878,-0.8076399999999999,7.805,278.705,-112.5075
1124,114684,0.6756361,-0.645868,-1.0565200000000001,-56.7175,282.9925,-136.7975
1125,114782,0.786656,0.007320001,-2.320928,-149.8525,259.14,-178.185
1126,114880,1.9522439999999999,0.81618,-3.629744,-160.2825,151.0775,-208.8975
1127,114978,1.23586,-0.05856,-2.78038,-25.7075,5.7925,-164.255
1128,115076,0.520452,-0.353312,-1.8473240000000002,70.1575,-95.865,-134.8375
1129,115174,0.203252,-0.7478600000000001,-1.157292,104.5975,-157.22,-99.64499
1130,115272,-0.028304000000000003,-1.09312,-0.7332201,104.37,-176.89,-53.83
1131,115370,0.03538,-1.08946,-0.6344,56.1575,-162.785,-17.745
1132,115468,0.18422,-0.9669721,-0.7300479999999999,-0.105,-144.3925,17.6925
1133,115566,0.343308,-0.660996,-0.8169121,-49.035,-133.595,48.265
1134,115664,0.44164,-0.262544,-0.901336,-81.4275,-134.33,67.6025
1135,115762,0.549488,0.06344,-0.9886881,-86.485,-148.1725,74.4975
1136,115860,0.6470880999999999,0.21081599999999998,-0.9969841,-67.7075,-171.955,70.8225
1137,115958,0.6956439999999999,0.255956,-0.9347639999999999,-43.3825,-196.1575,56.6475
1138,116056,0.6753920999999999,0.205692,-0.8518040000000001,-20.9475,-215.4425,39.1125
1139,116154,0.673196,0.067588,-0.748104,-2.2225,-230.72,26.32
1140,116253,0.70028,-0.051484,-0.676856,5.9675,-239.295,20.6675
1141,116351,0.759084,-0.128832,-0.672708,5.7225,-241.7275,21.9975
1142,116449,0.8544879999999999,-0.178608,-0.675148,2.1875,-242.34,28.1575
1143,116547,0.909632,-0.208864,-0.675148,-2.835,-242.1825,35.63
1144,116645,0.9408639999999999,-0.238632,-0.679296,-8.8375,-241.395,42.7525
1145,116743,0.9423280999999999,-0.264008,-0.674172,-14.14,-240.0825,49.4025
1146,116841,0.9333,-0.275476,-0.683932,-17.7975,-237.23,56.0875
1147,116939,0.9384239999999999,-0.27816,-0.71614,-19.39,-232.855,62.755
1148,117037,0.9577,-0.27571999999999997,-0.7673800000000001,-18.2,-228.55,68.8975
1149,117135,0.9869800999999999,-0.266448,-0.8166680000000001,-14.9975,-225.295,74.25251
1150,117233,1.033096,-0.255712,-0.85644,-12.005,-222.915,78.68
1151,117331,1.085556,-0.18666,-0.883768,-9.555,-220.71,81.95251
1152,117429,1.188768,-0.072712,-0.97234,-5.5475,-218.61,84.245
1153,117527,1.298324,0.07222401,-1.0911680000000001,-0.3675,-219.31,83.475
1154,117625,1.387384,0.22935999999999998,-1.169736,5.2325,-224.525,75.9675
1155,117723,1.4576559999999998,0.349652,-1.163392,10.9375,-232.295,59.36
1156,117821,1.561356,0.34477199999999997,-1.082384,18.5675,-239.9775,37.3625
1157,117919,1.643584,0.199348,-0.9189040999999999,26.915,-245.5775,17.8675
1158,118017,1.647488,-0.01952,-0.6980841,31.9375,-245.0,6.86
1159,118115,1.6143040000000002,-0.20496,-0.48092399999999996,30.625,-235.41,7.4025
1160,118214,1.592344,-0.292068,-0.29426399999999997,27.16,-218.26,18.97
1161,118312,1.5859999999999999,-0.221308,-0.14688800000000002,22.0325,-195.7375,36.1375
1162,118410,1.556476,-0.07978801,-0.026108,17.1675,-170.7825,52.0975
1163,118508,1.537932,0.011224,0.091744,11.725,-144.48,62.09
1164,118606,1.5323200000000001,0.11736400000000001,0.203984,3.3775,-115.3775,65.555
1165,118704,1.617476,0.2257,0.2379,-4.935,-85.1375,62.8775
1166,118802,1.6867720000000002,0.316224,0.233508,-13.265,-60.0075,52.4825
1167,118900,1.545252,0.44334799999999996,0.280356,-18.4625,-40.5475,34.8075
1168,118998,1.776564,0.317688,0.448716,-14.385,-21.2275,14.595
1169,119096,1.474248,0.390156,0.329644,-5.9675,7.3675,-8.4
1170,119194,1.547448,0.396744,0.388448,9.835,35.91,-28.5075
1171,119292,0.956968,0.228872,0.48092399999999996,24.395,72.135,-45.5525
1172,119390,0.047824,-0.270352,-1.284416,16.835,105.5425,-60.27
1173,119488,0.34257600000000005,-0.376736,-1.5725799999999999,-7.98,101.5175,-72.9225
1174,119586,0.183,-0.839116,-0.9882001,1.1375,126.0875,-68.0925
1175,119684,0.6009720000000001,-0.7332201,-0.559736,-18.095,156.345,-60.06
1176,119783,0.780068,-0.47458,-0.74054,-18.1825,163.1175,-26.6175
1177,119881,0.651968,-0.193248,-1.0528600000000001,-10.57,150.535,4.13
1178,119979,0.547536,0.101748,-1.0711600000000001,-8.82,142.835,5.495
1179,120077,0.632448,0.11541199999999999,-0.9572120999999999,-3.8675,140.1575,-5.5475
1180,120175,0.7381001,0.087352,-1.1394799999999998,3.9725,142.835,-18.6725
1181,120273,0.8430200999999999,-0.21301199999999998,-1.022116,10.4475,133.42,-32.935
1182,120371,2.2884759999999997,0.9320801,-4.5183919999999995,26.7225,116.76,-34.5975
1183,120469,0.18178,-0.4594521,0.149816,138.355,38.9725,-21.035
1184,120567,1.3571280000000001,-0.9406200000000001,-1.255624,101.36,49.2625,-0.63
1185,120665,0.388204,-0.039772,-0.8398479999999999,44.905,28.5075,-3.7275
1186,120763,0.527772,0.044652,-0.918416,41.6325,29.8025,-5.145
1187,120861,0.562664,-0.264496,-0.8569280999999999,41.8775,22.82,0.9625
1188,120959,0.526308,-0.24156,-0.8359440999999999,31.745,18.3925,1.2775
1189,121057,0.5551,-0.21594000000000002,-0.8281360999999999,24.71,14.7875,-0.595
1190,121155,0.5429,-0.23668000000000003,-0.8254520000000001,20.1775,9.8875,-0.8925
1191,121253,0.5355800999999999,-0.20496,-0.834724,15.7675,5.565,-2.1175
1192,121352,0.534604,-0.232044,-0.8247200000000001,12.88,1.365,-2.6425
1193,121450,0.525088,-0.232044,-0.820084,9.8875,-1.6975,-3.5
1194,121548,0.5221600000000001,-0.21618400000000002,-0.8239880999999999,7.63,-3.9025,-4.4275
1195,121646,0.5172800999999999,-0.212036,-0.82594,5.9675,-5.04,-4.9875
1196,121744,0.514596,-0.216428,-0.827892,5.215,-5.6175,-5.11
1197,121842,0.513864,-0.216916,-0.8252079999999999,4.585,-5.3725,-5.4075
1198,121940,0.51118,-0.22472399999999998,-0.81984,3.99,-4.7775,-5.46
1199,122038,0.5011760000000001,-0.20008,-0.815936,3.1325,-4.4625,-5.81
1200,122136,0.503128,-0.23546,-0.8103239999999999,3.15,-4.5675,-6.0025
1201,122234,0.506788,-0.207644,-0.8166680000000001,2.59,-4.9,-6.16
1202,122332,0.5063,-0.22423600000000002,-0.818132,2.5725,-5.0575,-6.5625
1203,122430,0.49117200000000005,-0.22106399999999998,-0.8174001000000001,2.24,-5.1975,-7.105
1204,122528,0.499712,-0.21057199999999998,-0.8176439999999999,1.8375,-4.9,-7.6475
1205,122626,0.496784,-0.21081599999999998,-0.8132520999999999,2.0475,-4.9875,-7.9625
1206,122724,0.50264,-0.204716,-0.817156,2.45,-5.53,-8.1725
1207,122822,0.502884,-0.211304,-0.8193521,2.9575,-5.7225,-8.3475
1208,122920,0.503372,-0.20178800000000002,-0.818132,3.535,-6.23,-8.5925
1209,123019,0.508008,-0.21374400000000002,-0.8210601000000001,4.1125,-6.09,-8.645
1210,123117,0.504836,-0.20861999999999997,-0.8193521,4.7075,-6.0725,-8.4175
1211,123215,0.508984,-0.211548,-0.8254520000000001,5.0225,-5.5825,-8.4
1212,123313,0.509228,-0.20618000000000003,-0.8169121,5.1975,-5.4425,-8.19
1213,123411,0.49580799999999997,-0.19861600000000001,-0.8271601000000001,5.39,-4.7075,-8.2425
1214,123509,0.5002,-0.223016,-0.8215481,5.635,-3.7275,-8.4175
1215,123607,0.506544,-0.217892,-0.822524,5.4775,-2.765,-8.5575
1216,123705,0.50264,-0.21886799999999998,-0.8244761,5.495,-2.065,-8.96
1217,123803,0.502152,-0.221552,-0.827892,6.0025,-1.4525,-8.7675
1218,123901,0.504836,-0.219356,-0.823744,6.475,-0.7175,-9.17
1219,123999,0.5160600000000001,-0.221796,-0.815204,6.7725,0.175,-9.8525
1220,124097,0.521184,-0.22667600000000002,-0.8166680000000001,6.6675,0.7175,-10.0275
1221,124195,0.5231359999999999,-0.23009200000000002,-0.815692,6.265,0.8225,-10.1675
1222,124293,0.5246,-0.229604,-0.815448,5.7225,0.91,-10.64
1223,124391,0.517768,-0.22326,-0.81374,5.6175,0.7,-11.095
1224,124489,0.519476,-0.22935999999999998,-0.8176439999999999,5.3725,1.1375,-11.585
1225,124587,0.49312399999999995,-0.22204000000000002,-0.8261841000000001,5.705,1.9775,-12.18
1226,124685,0.523624,-0.22033200000000003,-0.8195960999999999,6.4225,4.48,-13.0375
1227,124784,0.5058121,-0.211548,-0.8247200000000001,8.61,5.985,-14.735
1228,124882,0.463844,-0.242048,-0.8425321,11.515,9.695,-16.6425
1229,124980,0.51972,-0.197884,-0.8547319999999999,9.0125,17.2025,-14.2275
1230,125078,0.479704,-0.22082,-0.853512,11.97,24.5525,-13.7725
1231,125176,0.5038600000000001,-0.205204,-0.855708,14.175,33.39,-15.33
1232,125274,0.487512,-0.219112,-0.8527800999999999,14.945,42.5425,-14.8925
1233,125372,0.49580799999999997,-0.2196,-0.8549761,14.07,53.5325,-15.54
1234,125470,0.514596,-0.23741199999999998,-0.832528,14.42,64.925,-16.9225
1235,125568,0.5368,-0.251076,-0.8300879999999999,15.3475,75.7925,-19.005
1236,125666,0.549732,-0.251076,-0.81374,15.5225,86.7125,-21.35
1237,125764,0.5795,-0.260348,-0.7881199999999999,14.875,97.965,-24.465
1238,125862,0.583648,-0.270352,-0.762012,14.1225,107.9925,-28.07
1239,125960,0.5887720000000001,-0.27816,-0.7673800000000001,12.5125,118.2125,-32.9875
1240,126058,0.5919439999999999,-0.22935999999999998,-0.779092,9.8525,129.325,-37.8525
1241,126156,0.558516,-0.2318,-0.774944,8.4525,143.43,-40.5125
1242,126255,0.606584,-0.217892,-0.775676,4.4275,158.865,-42.245
1243,126353,0.624884,-0.229604,-0.745664,2.2575,172.83,-44.94
1244,126451,0.677588,-0.21106,-0.7442,-2.1,184.8175,-45.9375
1245,126549,0.6675840000000001,-0.22082,-0.779092,-4.515,197.05,-47.7925
1246,126647,0.70028,-0.22472399999999998,-0.8283799999999999,-5.705,206.8325,-48.86
1247,126745,0.8369200000000001,-0.24888000000000002,-0.820084,-4.1825,214.3225,-50.8725
1248,126843,0.815204,-0.248392,-0.8117880000000001,5.95,224.105,-54.6525
1249,126941,0.90646,-0.272304,-0.790804,15.0325,230.685,-56.9975
1250,127039,0.9001161,-0.282796,-0.814472,24.99,238.2625,-60.27
1251,127137,0.90036,-0.31354,-0.7666480999999999,33.845,242.6725,-63.2625
1252,127235,0.9137799999999999,-0.321104,-0.7539600000000001,36.9075,248.3425,-68.46
1253,127333,0.913536,-0.290604,-0.803248,37.17,253.715,-75.2325
1254,127431,0.899384,-0.375272,-0.805932,36.6975,254.975,-79.9925
1255,127529,0.8239880999999999,-0.458232,-0.742004,18.4275,255.9725,-88.8825
1256,127627,0.773968,-0.467504,-0.7564001,-25.7425,259.2275,-104.965
1257,127725,0.734196,-0.5858439999999999,-1.285148,-84.77,257.1975,-121.8175
1258,127824,0.8669319999999999,0.33379200000000003,-2.60958,-151.3925,214.41,-152.3025
1259,127922,1.50914,0.8576601,-3.154432,-114.8175,92.505,-158.48
1260,128020,0.966484,0.236192,-2.536868,5.6525,-31.85,-142.3275
1261,128118,0.35258,-0.09272000000000001,-1.684088,102.4975,-116.0075,-126.105
1262,128216,0.08857201,-0.561688,-1.039196,136.535,-165.725,-103.8975
1263,128314,0.007320001,-0.8991401,-0.6810039999999999,122.57,-173.88,-78.1725
1264,128412,0.1281,-0.9696561,-0.7044279999999999,70.2275,-155.75,-54.95
1265,128510,0.313052,-0.967216,-0.853512,16.59,-137.095,-23.0475
1266,128608,0.47384799999999994,-0.792024,-0.9325680000000001,-29.68,-128.7125,10.64
1267,128706,0.549244,-0.44115200000000004,-0.9740479999999999,-64.9775,-131.4075,39.6025
1268,128804,0.643184,-0.101748,-1.02114,-78.12,-145.0925,58.1525
1269,128902,0.7015,0.08784,-1.009672,-67.8125,-166.565,66.0275
1270,129000,0.7361481,0.15054800000000002,-0.960628,-50.4,-187.7575,62.125
1271,129098,0.702964,0.14152,-0.88328,-37.0475,-205.03,50.3825
1272,129196,0.70394,0.047336,-0.803248,-27.055,-218.6275,37.7475
1273,129294,0.7381001,-0.067344,-0.75274,-23.52,-226.8875,29.645
1274,129392,0.800564,-0.162504,-0.7388319999999999,-24.57,-230.6325,27.755
1275,129490,0.8723001,-0.23155599999999998,-0.741028,-28.28,-232.3825,30.66
1276,129588,0.9337880999999999,-0.28621199999999997,-0.748592,-31.675,-234.08,36.015
1277,129686,0.9699,-0.337452,-0.7332201,-34.125,-236.04,42.8225
1278,129784,0.9628241,-0.377712,-0.7078439999999999,-35.0525,-236.9675,51.24
1279,129883,0.955992,-0.41406800000000005,-0.693692,-35.385,-235.1125,60.6375
1280,129981,0.954284,-0.4331,-0.7141881,-35.7,-230.965,69.52750999999999
1281,130079,0.9740479999999999,-0.434076,-0.7376119999999999,-36.3475,-226.31,76.755
1282,130177,0.9901521000000001,-0.396256,-0.772748,-36.6275,-221.865,82.04
1283,130275,1.0077200000000002,-0.332572,-0.8025161,-34.5275,-218.89,85.78501
1284,130373,1.021384,-0.25986,-0.819108,-28.8925,-216.405,87.74501
1285,130471,1.030168,-0.17446,-0.8300879999999999,-20.755,-213.3775,86.695
1286,130569,1.081896,-0.08003201,-0.882548,-11.06,-208.9675,81.305
1287,130667,1.1934040000000001,0.001952,-1.0016200000000002,-0.3325,-204.505,71.8025
1288,130765,1.3144280000000002,0.09589201,-1.104588,10.605,-204.295,58.3625
1289,130863,1.386652,0.216428,-1.095316,22.61,-209.8075,40.705
1290,130961,1.4069040000000002,0.294752,-0.9947881,36.435,-216.58,20.5975
1291,131059,1.420568,0.27816,-0.865468,49.6125,-219.275,-0.1575
1292,131157,1.4374040000000001,0.154696,-0.7141881,59.78,-216.055,-16.8
1293,131255,1.455216,0.006344,-0.543388,62.9825,-206.8325,-24.6575
1294,131353,1.441064,-0.069052,-0.349408,60.305,-192.22,-23.94
1295,131451,1.43594,-0.076616,-0.180072,55.1775,-171.8675,-16.695
1296,131549,1.4252040000000001,-0.023180000000000003,-0.044407999999999996,49.0525,-147.7525,-5.7925
1297,131647,1.411784,0.01586,0.077836,42.7525,-121.8525,5.705
1298,131746,1.466928,0.044407999999999996,0.149084,32.0775,-94.325,15.12
1299,131844,1.5318319999999999,0.09882,0.177144,16.6075,-69.52750999999999,21.35
1300,131942,1.596248,0.13542,0.219356,0.455,-50.82,24.5
1301,132040,1.5286600000000001,0.23058,0.232044,-15.47,-31.57,23.905
1302,132138,1.4539959999999998,0.277672,0.24082800000000001,-23.3975,-12.8625,20.93
1303,132236,1.356396,0.283528,0.188124,-26.74,9.0825,14.945
1304,132334,1.297104,0.276208,0.07612801,-28.5425,31.78,6.65
1305,132432,0.7034521,0.776896,-0.07686,-26.7925,53.795,-2.485
1306,132530,0.8388721,0.338916,-0.45579200000000003,23.8,60.8125,-10.2375
1307,132628,0.021472,0.160064,-1.104832,45.2725,51.205,-32.8825
1308,132726,-0.39284,-0.21520799999999998,-1.0140639999999999,38.92,54.11,-45.045
1309,132824,-0.102724,-0.449204,-0.9774639999999999,6.5625,125.1775,-74.25251
1310,132922,0.778604,-0.721996,-0.8003201,-16.905,176.12,-94.23751
1311,133020,0.9613601,-0.6280560000000001,-0.664168,-14.665,179.655,-66.5875
1312,133118,0.67466,-0.480436,-0.7625,-4.865,158.13,-25.585
1313,133216,0.626104,-0.277916,-1.084336,-4.5325,149.625,-7.455
1314,133314,0.879376,-0.19764,-1.160464,-7.2625,148.61,-10.01
1315,133412,0.979416,0.02806,-1.255868,-5.355,148.085,-16.275
1316,133510,0.904508,-0.09247601,-1.0643280000000002,1.68,132.4575,-24.815
1317,133608,3.212748,0.7329760000000001,-3.7785839999999995,34.65,106.61,-30.2225
1318,133706,-0.467016,-0.596336,-0.263764,125.0025,35.56,-18.865
1319,133805,1.27734,-0.919392,-1.260016,92.9775,46.13,-0.9625
1320,133903,0.44725200000000004,-0.020008,-0.8991401,38.395,27.9825,-4.3575
1321,134001,0.48726800000000003,-0.052216,-0.859368,36.3825,29.0675,-5.2675
1322,134099,0.57218,-0.25351599999999996,-0.8571719999999999,38.1675,23.0825,-0.9625
1323,134197,0.543144,-0.189344,-0.8400921,29.33,19.4075,-1.1025
1324,134295,0.559736,-0.209352,-0.8220360000000001,24.36,14.98,-1.575
1325,134393,0.5397281,-0.20861999999999997,-0.835456,20.37,9.7125,-1.54
1326,134491,0.533628,-0.197152,-0.8344801,16.6075,6.3,-1.6625
1327,134589,0.5368,-0.233264,-0.813008,14.3325,3.15,-1.9775
1328,134687,0.5292359999999999,-0.233264,-0.81252,11.6375,0.14,-2.94
1329,134785,0.5355800999999999,-0.222284,-0.814472,8.96,-2.1525,-4.1125
1330,134883,0.5294800000000001,-0.225212,-0.8164239999999999,7.21,-3.9025,-4.795
1331,134981,0.524356,-0.219356,-0.8193521,5.7575,-4.83,-5.3725
1332,135079,0.522648,-0.216916,-0.815692,5.0225,-5.1625,-5.6
1333,135177,0.521672,-0.22082,-0.8174001000000001,4.515,-4.9875,-5.635
1334,135275,0.5260640000000001,-0.219844,-0.8203280000000001,4.2,-4.8475,-5.7225
1335,135373,0.521672,-0.22106399999999998,-0.815448,3.745,-4.5675,-5.7225
1336,135471,0.5206960999999999,-0.2257,-0.8071520000000001,3.2375,-4.585,-5.915
1337,135570,0.513864,-0.21813600000000002,-0.8054439999999999,2.415,-4.865,-6.2475
1338,135668,0.508008,-0.229116,-0.8042239999999999,2.2575,-5.46,-6.5625
1339,135766,0.510936,-0.23009200000000002,-0.811056,1.715,-6.0375,-7.21
1340,135864,0.503616,-0.221552,-0.8086161000000001,1.925,-6.4575,-7.56
1341,135962,0.510692,-0.21618400000000002,-0.81618,2.065,-6.4575,-7.945
1342,136060,0.5016641,-0.215696,-0.8108121,3.0625,-6.405,-7.91
1343,136158,0.504592,-0.21862399999999999,-0.8132520999999999,3.5525,-5.88,-8.1725
1344,136256,0.511424,-0.219112,-0.8113001,4.375,-5.775,-8.3825
1345,136354,0.5072760000000001,-0.231312,-0.813496,4.9875,-5.8275,-8.33
1346,136452,0.514108,-0.226188,-0.81252,5.3375,-5.74,-8.645
1347,136550,0.509228,-0.22667600000000002,-0.813496,5.7575,-5.495,-8.6975
1348,136648,0.5233800000000001,-0.23228800000000002,-0.80642,5.7925,-5.0575,-8.82
1349,136746,0.525332,-0.226188,-0.805932,5.7925,-4.3575,-8.5925
1350,136844,0.518012,-0.221796,-0.809348,6.0375,-3.955,-8.05
1351,136942,0.5219159999999999,-0.2318,-0.80886,5.5825,-3.5175,-8.12
1352,137040,0.5221600000000001,-0.229848,-0.8142281,5.0925,-3.675,-8.47
1353,137138,0.5192319999999999,-0.234972,-0.812032,4.585,-3.7625,-8.8375
1354,137236,0.524112,-0.227652,-0.8076399999999999,4.1825,-3.605,-9.3625
1355,137334,0.513376,-0.22667600000000002,-0.8149601,3.8325,-3.255,-9.6425
1356,137432,0.5248441,-0.227652,-0.8147161,3.8675,-2.5375,-10.045
1357,137530,0.5233800000000001,-0.23301999999999998,-0.812032,4.1475,-1.9425,-10.0275
1358,137629,0.526308,-0.22716399999999998,-0.80642,4.34,-1.5575,-10.1675
1359,137727,0.5192319999999999,-0.226188,-0.812276,4.41,-0.5775,-10.15
1360,137825,0.5309441,-0.22716399999999998,-0.815936,4.515,0.49,-10.0625
1361,137923,0.516304,-0.217404,-0.820572,4.55,1.5575,-9.59
1362,138021,0.508008,-0.225212,-0.815204,5.0225,2.8175,-9.45
1363,138119,0.523868,-0.21813600000000002,-0.813008,5.845,4.9875,-9.87
1364,138217,0.514352,-0.21228000000000002,-0.821792,7.63,6.7375,-10.5525
1365,138315,0.488,-0.22814,-0.830332,10.4125,10.9025,-12.46
1366,138413,0.5038600000000001,-0.180316,-0.8532681000000001,8.925,16.66,-11.5325
1367,138511,0.494588,-0.23448400000000003,-0.8352120000000001,9.5025,23.975,-9.8525
1368,138609,0.517524,-0.225944,-0.8296,12.6175,29.8375,-13.0375
1369,138707,0.512888,-0.22862800000000003,-0.82594,13.615,37.1175,-13.475
1370,138805,0.510936,-0.24522,-0.834968,14.6475,44.45,-14.7
1371,138903,0.519476,-0.234972,-0.828868,13.5275,53.2875,-15.4525
1372,139001,0.5309441,-0.24912399999999998,-0.815448,14.245,62.5975,-17.0625
1373,139099,0.558028,-0.253272,-0.8164239999999999,15.0325,72.52,-19.4075
1374,139197,0.570472,-0.253272,-0.8076399999999999,15.4525,83.02,-21.7
1375,139295,0.580232,-0.281088,-0.7986121,14.49,94.79751,-25.165
1376,139394,0.5777920999999999,-0.25742,-0.796904,12.635,107.5725,-29.0325
1377,139492,0.554856,-0.24497600000000003,-0.8025161,10.115,122.9725,-33.0225
1378,139590,0.511668,-0.22423600000000002,-0.801784,8.365,140.5075,-37.6075
1379,139688,0.537776,-0.255712,-0.808372,7.455,159.6875,-41.195
1380,139786,0.578036,-0.23887600000000003,-0.7820199999999999,7.595,177.835,-45.5175
1381,139884,0.607804,-0.255468,-0.7664041,6.44,196.035,-50.4525
1382,139982,0.690032,-0.24717199999999998,-0.787876,3.4125,213.4475,-55.4925
1383,140080,0.659776,-0.251564,-0.836676,5.4775,229.32,-60.27
1384,140178,0.7849480999999999,-0.264984,-0.854244,8.785,239.7325,-64.505
1385,140276,0.85644,-0.255468,-0.8918200000000001,20.9825,251.265,-69.055
1386,140374,0.91012,-0.29524,-0.8964561,34.755,262.43,-71.575
1387,140472,0.930616,-0.322812,-0.89792,47.8975,271.0925,-73.90250999999999
1388,140570,0.9323239999999999,-0.319884,-0.834968,56.035,276.78,-76.9475
1389,140668,0.9718521000000001,-0.300852,-0.8615640999999999,58.625,281.7325,-81.095
1390,140766,0.984784,-0.33379200000000003,-0.92232,57.89,281.085,-84.525
1391,140864,0.8757159999999999,-0.407724,-0.8105680000000001,45.9025,275.7825,-91.315
1392,140963,0.731268,-0.538996,-0.692472,9.5025,273.6125,-106.0325
1393,141061,0.665144,-0.543876,-1.17242,-53.55,272.8425,-125.8425
1394,141159,0.800808,0.06661201,-2.363872,-142.0475,241.605,-166.635
1395,141257,1.771684,0.9237841,-3.349388,-158.2875,126.0875,-201.6875
1396,141355,1.161928,0.151524,-2.673264,-43.645,-14.14,-178.4825
1397,141453,0.404064,-0.22204000000000002,-1.6494400000000002,57.9075,-113.75,-152.075
1398,141551,0.133224,-0.7571321,-1.0086959999999998,96.18,-170.4325,-114.3275
1399,141649,0.002928,-1.09312,-0.574132,95.4625,-183.7325,-63.14
1400,141747,0.062220000000000004,-1.091412,-0.532652,47.8975,-166.2325,-21.315
1401,141845,0.23911999999999997,-0.9586761,-0.690764,-7.8925,-145.0925,17.535
1402,141943,0.425048,-0.682956,-0.800564,-56.2975,-134.2425,48.2825
1403,142041,0.5343600000000001,-0.298412,-0.869616,-93.1525,-134.9425,63.91
1404,142139,0.6466,0.041724000000000004,-0.9389120000000001,-103.74,-149.2225,68.1975
1405,142237,0.728096,0.164456,-0.942816,-85.1725,-173.915,66.15
1406,142335,0.7617681,0.191296,-0.8762040000000001,-58.905,-198.66,55.9475
1407,142433,0.7537159999999999,0.1403,-0.811056,-35.4725,-218.015,42.21
1408,142531,0.775676,0.023180000000000003,-0.747128,-17.22,-233.5375,30.8175
1409,142629,0.8188641,-0.0732,-0.70028,-8.085,-244.1075,24.4125
1410,142727,0.8740081000000001,-0.155184,-0.671976,-4.9525,-249.5325,23.3975
1411,142825,0.9433041,-0.22716399999999998,-0.659044,-6.8075,-251.5975,26.3725
1412,142924,0.97356,-0.270596,-0.638304,-11.83,-250.705,31.1675
1413,143022,0.9762440999999998,-0.30988000000000004,-0.6273241,-16.8875,-247.625,36.7325
1414,143120,0.978196,-0.342088,-0.630008,-21.0175,-242.97,42.9275
1415,143218,0.9650200999999999,-0.368684,-0.643184,-23.205,-237.02,49.49
1416,143316,0.957944,-0.386252,-0.6649,-24.045,-230.5975,55.86
1417,143414,0.97356,-0.38918,-0.7046720999999999,-23.6425,-223.475,61.6875
1418,143512,0.998692,-0.393084,-0.748836,-21.665,-216.72,67.165
1419,143610,1.044564,-0.372832,-0.775676,-18.2525,-210.56,72.66
1420,143708,1.089704,-0.317688,-0.8100801,-13.5625,-204.54,78.82
1421,143806,1.159,-0.21447600000000003,-0.8906,-9.205,-199.2375,83.93001
1422,143904,1.233176,-0.0793,-0.9911281,-5.5825,-196.8225,84.735
1423,144002,1.291004,0.11345999999999999,-1.0528600000000001,-2.24,-198.4325,78.4
1424,144100,1.3407799999999999,0.28181999999999996,-1.0589600000000001,3.2725,-202.895,63.9975
1425,144198,1.390556,0.37112399999999995,-1.017724,11.585,-208.5125,42.28
1426,144296,1.408124,0.35136,-0.9142680000000001,23.31,-212.9225,17.7625
1427,144394,1.3893360000000001,0.24668400000000001,-0.7722600000000001,35.525,-213.43,-4.06
1428,144492,1.367864,0.08906,-0.615368,46.0775,-209.2475,-17.8675
1429,144590,1.349564,-0.009028000999999999,-0.46774799999999994,52.7625,-199.7275,-22.61
1430,144688,1.329556,-0.026595999999999998,-0.33184,56.42,-185.675,-20.265
1431,144787,1.301496,0.030744,-0.23448400000000003,57.925,-168.1575,-13.4575
1432,144885,1.25904,0.08906,-0.159576,57.0325,-148.715,-5.075
1433,144983,1.2043840000000001,0.12078,-0.049532,51.4675,-127.61,1.7325
1434,145081,1.192672,0.154452,0.086132,41.5625,-104.09,4.4975
1435,145179,1.164368,0.191296,0.174704,31.01,-77.4375,2.6425
1436,145277,1.299788,0.14786400000000002,0.158112,21.07,-51.87,-0.63
1437,145375,1.348588,0.17543599999999998,0.09930800000000001,10.0625,-28.035,-5.985
1438,145473,1.323944,0.180072,0.073688,3.3775,-8.9775,-9.94
1439,145571,1.2871,0.157136,0.047580000000000004,-1.085,7.5775,-12.915
1440,145669,1.228784,0.128588,0.0061,-7.1575,24.2725,-17.36
1441,145767,1.086776,0.127856,-0.084912,-14.8225,41.265,-22.89
1442,145865,1.300276,0.00244,-0.16909200000000002,-15.085,60.69,-33.3725
1443,145963,0.426512,0.29377600000000004,-0.7178479999999999,29.8375,63.0175,-52.6575
1444,146061,-0.279868,-0.345016,-1.238544,44.5375,41.6675,-43.225
1445,146159,-0.35624,-0.542168,-1.20902,7.735,72.66,-68.39
1446,146257,0.339892,-0.613416,-0.9437921,-32.34,147.2625,-97.3
1447,146355,0.8786440999999999,-0.6893,-0.7093081,-44.975,179.1475,-94.5525
1448,146453,0.936716,-0.526552,-0.684176,-29.68,165.1475,-52.0625
1449,146551,0.6985720999999999,-0.4331,-0.9711200999999999,-14.875,140.0875,-10.01
1450,146650,0.646112,-0.21276799999999998,-1.197552,-18.1125,132.615,-0.035
1451,146748,0.9254921,-0.19154000000000002,-1.103612,-20.615,130.8125,-4.8475
1452,146846,0.9616040000000001,0.14078800000000002,-1.264652,-23.4675,130.76,-10.29
1453,146944,0.843508,0.020984,-1.094096,-7.105,110.3375,-13.0025
1454,147042,2.509296,0.840824,-3.314496,20.3875,87.2725,-19.25
1455,147140,-0.2745,-0.337208,-0.34404,104.685,27.8075,-16.8525
1456,147238,1.2073120000000002,-0.71736,-1.2275639999999999,88.8825,36.82,2.0825
1457,147336,0.321348,-0.274256,-0.767624,46.9,24.7275,0.9625
1458,147434,0.588284,-0.09882,-0.9201241,35.035,28.6825,-4.8475
1459,147532,0.504592,-0.20252,-0.8518040000000001,34.51,22.6625,-2.2925
1460,147630,0.5343600000000001,-0.18324400000000002,-0.8483879999999999,30.9225,20.93,-1.61
1461,147728,0.55632,-0.211548,-0.8296,25.8825,16.66,-2.415
1462,147826,0.546804,-0.206668,-0.8322841000000001,20.475,12.5125,-2.73
1463,147924,0.5368,-0.205692,-0.836676,16.415,8.26,-3.2025
1464,148022,0.5392399999999999,-0.19764,-0.8364321,13.79,4.13,-3.395
1465,148120,0.53314,-0.21667199999999998,-0.8169121,11.795,0.9275,-3.5
1466,148219,0.5292359999999999,-0.20105599999999998,-0.822768,9.7475,-1.1025,-4.13
1467,148317,0.5260640000000001,-0.203496,-0.8169121,8.7325,-2.485,-4.305
1468,148415,0.5267960999999999,-0.217892,-0.8127641,7.665,-3.5525,-4.55
1469,148513,0.521672,-0.21618400000000002,-0.815204,6.79,-4.7075,-4.9175
1470,148611,0.523868,-0.219112,-0.815448,6.23,-5.11,-5.1275
1471,148709,0.522648,-0.21838000000000002,-0.81252,5.5475,-5.32,-5.215
1472,148807,0.520208,-0.21472,-0.81252,5.145,-5.6525,-5.4075
1473,148905,0.522648,-0.219356,-0.813984,4.9525,-5.8275,-5.495
1474,149003,0.522892,-0.21886799999999998,-0.8132520999999999,4.76,-5.9325,-5.6175
1475,149101,0.51972,-0.223016,-0.8142281,4.3925,-5.915,-5.6875
1476,149199,0.517524,-0.225212,-0.812032,3.8325,-5.775,-5.985
1477,149297,0.5165481,-0.2196,-0.813008,3.395,-5.8975,-6.4225
1478,149395,0.509472,-0.21594000000000002,-0.8105680000000001,3.2025,-6.195,-6.65
1479,149493,0.5077640999999999,-0.221796,-0.8115439999999999,3.5175,-6.3875,-6.93
1480,149591,0.5192319999999999,-0.219112,-0.809836,3.675,-6.545,-7.49
1481,149689,0.519476,-0.211548,-0.81374,3.395,-6.7025,-7.56
1482,149788,0.52094,-0.21520799999999998,-0.8117880000000001,3.3075,-6.895,-7.455
1483,149886,0.5219159999999999,-0.21301199999999998,-0.8086161000000001,3.0975,-6.93,-7.385
1484,149984,0.519964,-0.203008,-0.8015399999999999,2.87,-7.105,-7.385
1485,150082,0.5206960999999999,-0.21886799999999998,-0.80642,2.905,-7.315,-7.14
1486,150180,0.515084,-0.214964,-0.814472,2.695,-7.49,-7.105
1487,150278,0.5160600000000001,-0.22082,-0.8149601,2.73,-7.42,-7.2975
1488,150376,0.514596,-0.21594000000000002,-0.81374,2.45,-7.07,-7.35
1489,150474,0.50752,-0.214964,-0.811056,2.52,-7.07,-7.105
1490,150572,0.5121560000000001,-0.2379,-0.8076399999999999,2.38,-6.615,-7.315
1491,150670,0.52094,-0.174216,-0.831308,2.1525,-6.3,-7.42
1492,150768,0.504592,-0.22716399999999998,-0.805688,2.73,-5.8625,-7.3325
1493,150866,0.5060560000000001,-0.254004,-0.8066641,2.17,-5.215,-7.455
1494,150964,0.5099600000000001,-0.239852,-0.813008,2.555,-4.9175,-7.49
1495,151062,0.51972,-0.222284,-0.8178880999999999,2.415,-4.3225,-7.805
1496,151160,0.514596,-0.215452,-0.8147161,2.3975,-4.1475,-8.3125
1497,151258,0.5131319999999999,-0.20984,-0.818376,2.45,-4.095,-8.61
1498,151356,0.50752,-0.2074,-0.8164239999999999,2.835,-3.6925,-8.9075
1499,151454,0.5077640999999999,-0.221552,-0.8188641,3.115,-3.08,-9.135
1500,151553,0.512888,-0.228384,-0.815936,3.0275,-1.7675,-9.2575
1501,151651,0.5219159999999999,-0.22082,-0.81984,3.0975,-0.735,-9.065
1502,151749,0.530456,-0.18470799999999998,-0.820572,3.1675,0.42,-8.4525
1503,151847,0.499224,-0.1891,-0.8276481,3.045,1.0325,-7.7875
1504,151945,0.508008,-0.216428,-0.8188641,2.38,1.855,-7.1925
1505,152043,0.5343600000000001,-0.22814,-0.8149601,1.925,2.2575,-6.58
1506,152141,0.532896,-0.219844,-0.815692,1.7675,2.6775,-6.44
1507,152239,0.5260640000000001,-0.208132,-0.8100801,1.47,3.9725,-6.7725
1508,152337,0.529968,-0.20447200000000001,-0.8166680000000001,1.33,6.4225,-6.755
1509,152435,0.482388,-0.22716399999999998,-0.8254520000000001,1.96,8.995,-6.9825
1510,152533,0.502152,-0.264008,-0.83936,3.64,13.3,-8.085
1511,152631,0.509472,-0.215452,-0.8310639999999999,4.1125,18.3925,-9.4325
1512,152729,0.504592,-0.23472800000000002,-0.838628,6.4225,22.785,-11.7075
1513,152827,0.5072760000000001,-0.24351199999999998,-0.829356,6.51,28.2975,-13.51
1514,152925,0.503128,-0.24912399999999998,-0.837408,6.72,34.72,-15.715
1515,153023,0.518256,-0.2379,-0.8247200000000001,6.02,41.44,-18.0075
1516,153121,0.5321640000000001,-0.23521599999999998,-0.8169121,6.3,48.16,-20.23
1517,153219,0.5382640000000001,-0.239364,-0.813496,6.405,54.985,-22.4175
1518,153318,0.5575399999999999,-0.23082399999999997,-0.806176,5.915,62.0725,-24.7975
1519,153416,0.5724239999999999,-0.24326799999999998,-0.797392,4.935,69.7725,-26.915
1520,153514,0.5917,-0.258396,-0.7903161,2.4675,78.4,-29.8725
1521,153612,0.6197600000000001,-0.265472,-0.766892,0.77,86.3975,-33.3725
1522,153710,0.593164,-0.24082800000000001,-0.757376,0.175,93.45,-37.0125
1523,153808,0.6141479999999999,-0.20496,-0.742004,-1.4525,100.4675,-40.7225
1524,153906,0.61122,-0.21057199999999998,-0.734684,-1.855,106.68,-41.8775
1525,154004,0.624396,-0.198372,-0.7237041,-4.6025,112.2975,-43.1725
1526,154102,0.662216,-0.211304,-0.7227279999999999,-6.8775,116.8825,-44.905
1527,154200,0.677588,-0.23058,-0.7137001000000001,-9.8875,120.645,-47.7925
1528,154298,0.7224841,-0.22057600000000002,-0.7034521,-13.9125,124.0575,-51.4325
1529,154396,0.71248,-0.232776,-0.7046720999999999,-16.8175,127.6625,-54.6
1530,154494,0.759328,-0.234972,-0.692228,-19.915,131.355,-58.1525
1531,154592,0.7722600000000001,-0.2196,-0.671244,-22.0675,135.2225,-63.4725
1532,154690,0.780556,-0.21838000000000002,-0.666608,-21.5775,137.62,-68.285
1533,154788,0.8174001000000001,-0.207644,-0.6736840000000001,-19.81,140.8925,-74.095
1534,154886,0.863028,-0.235948,-0.674416,-15.4525,143.955,-79.1175
1535,154984,0.855708,-0.215696,-0.6832,-12.6,147.7175,-84.5425
1536,155082,0.861808,-0.184952,-0.660752,-8.6275,151.7775,-89.6175
1537,155181,0.889624,-0.20008,-0.6688041,-1.0675,155.8025,-93.66
1538,155279,0.8781559999999999,-0.19885999999999998,-0.649528,4.2525,160.195,-98.0
1539,155377,0.9006040999999999,-0.174704,-0.631228,9.38,165.76,-103.0225
1540,155475,0.9076799999999999,-0.200812,-0.6368401,14.63,170.765,-107.205
1541,155573,0.9269561,-0.23546,-0.654652,13.8775,175.525,-113.3825
1542,155671,0.9203680000000001,-0.225944,-0.6422081000000001,6.195,179.1825,-120.75
1543,155769,0.9089001,-0.21886799999999998,-0.6348881,-7.6825,181.4225,-129.08
1544,155867,0.861808,-0.23521599999999998,-0.6080479999999999,-27.3175,182.35,-135.24
1545,155965,0.749568,-0.319884,-0.8935280999999999,-57.05,181.93,-142.38
1546,156063,0.805932,-0.022203999999999998,-1.6692040000000001,-69.7025,152.2675,-145.1625
1547,156161,0.781776,-0.32208000000000003,-2.129876,-26.2675,75.425,-104.7725
1548,156259,0.903532,-0.543632,-2.054724,23.4325,-0.5425,-65.1875
1549,156357,0.47994799999999993,-0.6958880000000001,-1.538176,70.4025,-52.7975,-34.8425
1550,156455,0.19397999999999999,-0.661972,-1.114348,75.005,-81.90001,-13.5975
1551,156553,0.1525,-0.520208,-0.9674601,54.2325,-90.9125,1.715
1552,156652,0.236192,-0.353556,-0.97356,37.2925,-91.315,15.505
1553,156750,0.357948,-0.209108,-1.029192,31.15,-93.3625,26.8975
1554,156848,0.48214399999999996,-0.087352,-1.0882399999999999,29.19,-103.5125,34.16
1555,156946,0.56852,0.030987999999999998,-1.1009280000000001,29.225,-121.7125,36.645
1556,157044,0.6029241,0.128832,-1.041148,33.46,-143.185,36.5225
1557,157142,0.6124400999999999,0.19885999999999998,-0.9379360000000001,40.9675,-162.68,35.105
1558,157240,0.6231760999999999,0.213988,-0.8466800999999999,48.6325,-177.17,32.865
1559,157338,0.6390359999999999,0.19861600000000001,-0.788608,50.995,-185.4825,29.575
1560,157436,0.652456,0.180316,-0.7605481,48.16,-189.4375,25.4625
1561,157534,0.9955200000000001,0.265472,-0.799588,43.5225,-189.56,21.105
1562,157632,0.882548,0.233264,-0.7991,49.0525,-191.5025,20.0025
1563,157730,0.8720559999999999,0.236436,-0.625372,54.1275,-204.33,21.385
1564,157828,0.7378560000000001,0.22448,-0.503128,48.1775,-204.155,19.4775
1565,157926,0.7754321,0.141764,-0.567788,43.155,-192.9025,19.0575
1566,158024,0.8410681000000001,0.029768,-0.633424,40.95,-181.3525,23.835
1567,158122,0.790804,-0.04148,-0.657092,32.9875,-171.4125,30.1175
1568,158220,0.754448,-0.00976,-0.6563601,21.0875,-165.2525,37.835
1569,158318,0.798124,0.071492,-0.7571321,11.1125,-158.305,44.205
1570,158416,0.868152,0.07881200000000001,-0.8464360000000001,16.8525,-156.66,52.57
1571,158515,0.9084121,0.071492,-0.900848,21.98,-159.18,57.9075
1572,158613,0.945744,0.068564,-0.9479401,21.35,-164.1675,58.2575
1573,158711,0.9652639999999999,0.07856801,-0.9547720999999999,18.235,-171.045,56.7175
1574,158809,0.9555040000000001,0.0854,-0.916464,16.415,-177.3625,55.2475
1575,158907,0.957456,0.099552,-0.885964,16.0475,-179.8475,54.2325
1576,159005,0.9716081,0.125172,-0.8810841,15.7325,-178.5525,52.4475
1577,159103,1.007476,0.158112,-0.904752,15.715,-175.035,49.5075
1578,159201,1.0406600000000001,0.175924,-0.9106081,15.82,-170.0825,45.0975
1579,159299,1.073844,0.193004,-0.898164,14.6825,-164.045,38.85
1580,159397,1.10532,0.203008,-0.8781559999999999,14.175,-157.2725,32.235
1581,159495,1.1507040000000002,0.189832,-0.85034,13.8425,-150.605,25.375
1582,159593,1.2195120000000002,0.1464,-0.8527800999999999,14.0,-145.6175,18.9
1583,159691,1.2334200000000002,0.119804,-0.785924,14.455,-143.815,13.4925
1584,159789,1.167296,0.135664,-0.636108,16.5725,-142.6775,8.8725
1585,159887,1.090436,0.160796,-0.482388,20.86,-137.3575,3.8325
1586,159985,1.079944,0.159088,-0.382836,26.39,-126.0175,-2.1175
1587,160084,1.079212,0.20496,-0.307196,31.1325,-110.8625,-8.8025
1588,160182,1.099464,0.25254,-0.244732,35.8575,-94.64,-15.6625
1589,160280,1.146556,0.29768,-0.21667199999999998,38.815,-79.45,-24.5525
1590,160378,1.1716879999999998,0.35014,-0.172508,39.2,-66.36,-37.345
1591,160476,1.158512,0.38503200000000004,-0.08174001,40.285,-55.65,-53.025
1592,160574,1.1387479999999999,0.376248,0.003172,44.3275,-44.135,-69.9125
1593,160672,1.1265479999999999,0.31646799999999997,0.048068,50.47,-30.24,-85.5925
1594,160770,1.118496,0.220088,0.041968,55.37,-14.105,-98.0175
1595,160868,1.110932,0.101748,0.005856,56.4025,2.1,-105.595
1596,160966,1.100196,-0.019032,-0.059536,51.4325,16.4325,-108.5175
1597,161064,1.055544,-0.12322000000000001,-0.134932,40.4775,29.015,-107.24
1598,161162,1.026752,-0.333548,-0.2867,18.2175,45.7625,-99.2075
1599,161260,0.57096,-0.130052,-0.526552,-1.925,66.60501,-79.8875
1600,161358,0.293044,-0.470188,-0.9564799999999999,7.4725,63.2975,-63.735
1601,161456,-0.25986,-0.653432,-1.62382,0.5425,70.525,-56.105
1602,161555,0.208864,-0.775188,-1.360056,-12.145,85.155,-49.035
1603,161653,0.5443640000000001,-0.69296,-0.510204,-19.1625,114.905,-40.075
1604,161751,0.930372,-0.38552,-0.6588,-32.76,128.66,-19.425
1605,161849,0.877668,-0.23448400000000003,-1.023824,-29.5925,110.04,11.6375
1606,161947,0.823256,-0.033428,-1.285636,-25.7075,92.225,20.0725
1607,162045,0.8927959999999999,0.274012,-1.203652,-29.4,84.595,-0.2275
1608,162143,0.743712,0.23082399999999997,-1.297836,-8.225,68.4425,-9.2925
1609,162241,1.5074319999999999,0.32574000000000003,-0.9547720999999999,47.7225,29.54,-15.61
1610,162339,0.360632,-0.186172,-0.661728,64.3125,8.9425,-1.3125
1611,162437,0.787144,-0.526552,-0.8725440999999999,55.93,17.325,5.39
1612,162535,0.491904,-0.20642399999999997,-0.812276,36.015,23.625,-1.3125
1613,162633,0.547292,-0.107848,-0.8413120000000001,31.5525,24.955,-0.98
1614,162731,0.504592,-0.277672,-0.8371639999999999,34.2825,21.35,0.91
1615,162829,0.516304,-0.222284,-0.8405800999999999,31.29,21.5775,0.91
1616,162927,0.5551,-0.175924,-0.8413120000000001,27.09,19.6525,-1.3475
1617,163025,0.550708,-0.203008,-0.8322841000000001,25.8475,10.92,-1.5225
1618,163123,0.537288,-0.211548,-0.819108,21.77,3.815,-2.065
1619,163222,0.5382640000000001,-0.215452,-0.8117880000000001,16.7125,-0.6825,-3.0275
1620,163320,0.5455840000000001,-0.22326,-0.8105680000000001,12.355,-3.15,-4.27
1621,163418,0.537288,-0.21618400000000002,-0.8147161,9.485,-5.285,-5.39
1622,163516,0.525332,-0.217404,-0.8132520999999999,8.015,-6.755,-5.985
1623,163614,0.535092,-0.2074,-0.8117880000000001,6.895,-6.65,-6.2825
1624,163712,0.532652,-0.19983599999999999,-0.813008,6.5275,-6.8425,-6.37
1625,163810,0.5321640000000001,-0.18788,-0.8164239999999999,5.915,-6.4575,-6.1075
1626,163908,0.532652,-0.19861600000000001,-0.814472,5.705,-6.23,-5.53
1627,164006,0.53192,-0.207644,-0.8115439999999999,5.39,-6.09,-5.1275
1628,164104,0.523868,-0.20837600000000003,-0.8105680000000001,5.075,-6.1775,-4.935
1629,164202,0.529724,-0.21081599999999998,-0.8127641,4.725,-6.02,-4.8125
1630,164300,0.5292359999999999,-0.221552,-0.8081281,4.025,-6.2825,-5.005
1631,164398,0.527284,-0.223504,-0.8076399999999999,2.9575,-7.2275,-5.25
1632,164496,0.525332,-0.22252800000000003,-0.813008,2.5025,-7.875,-5.53
1633,164594,0.517768,-0.22033200000000003,-0.8115439999999999,2.4325,-8.2075,-5.6875
1634,164692,0.511424,-0.22082,-0.8166680000000001,2.4675,-8.1725,-5.845
1635,164790,0.516304,-0.22448,-0.813008,2.7125,-7.5775,-6.0375
1636,164889,0.5214281,-0.22643200000000002,-0.81618,2.7825,-7.035,-6.16
1637,164987,0.5185,-0.22643200000000002,-0.8115439999999999,2.485,-6.5625,-6.6325
1638,165085,0.52094,-0.225944,-0.808372,2.1175,-6.58,-6.9475
1639,165183,0.517768,-0.22277199999999997,-0.805688,1.96,-7.0,-7.1575
1640,165281,0.5165481,-0.22252800000000003,-0.8086161000000001,1.96,-7.49,-7.28
1641,165379,0.5119121,-0.219844,-0.8095920999999999,1.9425,-7.805,-7.2625
1642,165477,0.5070319999999999,-0.221308,-0.812032,2.1,-7.9975,-7.3325
1643,165575,0.5084960000000001,-0.225944,-0.8105680000000001,2.4325,-7.9975,-7.665
1644,165673,0.513864,-0.22033200000000003,-0.815448,2.31,-8.015,-8.12
1645,165771,0.51362,-0.22448,-0.815204,2.345,-7.9275,-8.4175
1646,165869,0.511668,-0.217648,-0.81374,2.52,-7.9275,-8.435
1647,165967,0.520452,-0.219844,-0.808372,2.66,-7.6825,-8.4525
1648,166065,0.5160600000000001,-0.2135,-0.8127641,2.625,-7.6825,-8.3125
1649,166163,0.5160600000000001,-0.22106399999999998,-0.8164239999999999,2.905,-7.56,-7.945
1650,166261,0.515328,-0.20691199999999998,-0.8210601000000001,2.9575,-7.1225,-7.7525
1651,166359,0.5221600000000001,-0.213988,-0.813984,3.115,-6.44,-7.6125
1652,166457,0.518744,-0.21862399999999999,-0.8142281,3.1675,-6.195,-7.28
1653,166555,0.519476,-0.2196,-0.815936,3.185,-5.9675,-7.0525
1654,166653,0.518256,-0.219356,-0.813496,3.08,-5.9325,-7.0525
1655,166751,0.515328,-0.22082,-0.813008,3.01,-5.845,-6.93
1656,166850,0.5131319999999999,-0.219844,-0.812276,3.0625,-5.845,-6.79
1657,166948,0.512888,-0.22082,-0.8147161,3.395,-5.6175,-6.5625
1658,167046,0.509472,-0.219356,-0.8188641,3.7275,-5.25,-6.475
1659,167144,0.518744,-0.22204000000000002,-0.81374,4.2175,-4.655,-6.4575
1660,167242,0.5121560000000001,-0.216916,-0.815936,4.655,-3.9725,-6.0725
1661,167340,0.515328,-0.215452,-0.81618,5.2675,-3.2025,-5.6525
1662,167438,0.5121560000000001,-0.221308,-0.8115439999999999,5.915,-2.6775,-5.285
1663,167536,0.5121560000000001,-0.22252800000000003,-0.8113001,6.405,-2.205,-5.145
1664,167634,0.5016641,-0.23741199999999998,-0.8010520000000001,6.965,-1.6275,-4.445
1665,167732,0.510936,-0.21032800000000001,-0.8039801,8.1025,-0.8925,-4.6725
1666,167830,0.515328,-0.258884,-0.794708,8.4525,-0.5775,-4.4275
1667,167928,0.522892,-0.25424800000000003,-0.7832399999999999,8.505,-0.14,-4.3925
1668,168026,0.5160600000000001,-0.251564,-0.808372,8.26,-0.455,-4.445
1669,168124,0.525088,-0.259372,-0.7956840999999999,6.3525,-1.3125,-5.3025
1670,168222,0.524356,-0.230336,-0.8039801,5.88,-1.89,-5.8275
1671,168320,0.516792,-0.22789600000000002,-0.812032,5.215,-2.1175,-6.2125
1672,168418,0.518744,-0.233752,-0.805932,4.7075,-2.3275,-6.755
1673,168516,0.517524,-0.24107199999999998,-0.8049561,4.235,-2.135,-7.245
1674,168615,0.520208,-0.22057600000000002,-0.812032,3.6575,-1.61,-7.455
1675,168713,0.503616,-0.23228800000000002,-0.8220360000000001,3.78,-0.9275,-7.7525
1676,168811,0.5382640000000001,-0.267424,-0.787144,3.325,0.28,-7.7175
1677,168909,0.5099600000000001,-0.238632,-0.803248,4.025,0.3325,-7.98
1678,169007,0.5294800000000001,-0.227652,-0.8042239999999999,4.06,3.2025,-8.33
1679,169105,0.5260640000000001,-0.24717199999999998,-0.80642,4.7775,3.115,-8.855
1680,169203,0.5233800000000001,-0.24424400000000002,-0.8042239999999999,4.9,4.585,-9.59
1681,169301,0.520208,-0.26303200000000004,-0.8117880000000001,6.405,6.1425,-11.3925
1682,169399,0.47458,-0.282064,-0.8291120999999999,9.765,7.7875,-14.7875
1683,169497,0.5063,-0.256688,-0.8486319999999999,7.7,13.5975,-14.9625
1684,169595,0.484584,-0.281088,-0.81984,12.25,19.6525,-18.2525
1685,169693,0.515084,-0.2501,-0.8149601,14.77,25.27,-23.73
1686,169791,0.5248441,-0.256688,-0.824232,16.17,30.3275,-26.32
1687,169889,0.5292359999999999,-0.230336,-0.81252,14.2625,36.1725,-26.53
1688,169987,0.5441199999999999,-0.235948,-0.7986121,12.5475,42.7175,-26.6175
1689,170085,0.553148,-0.234972,-0.7869,13.1775,48.0725,-27.6675
1690,170183,0.5702281,-0.244,-0.764696,12.8625,53.445,-28.9625
1691,170281,0.587064,-0.252296,-0.76372,12.6875,57.5225,-30.8525
1692,170379,0.5897479999999999,-0.236436,-0.738344,12.705,60.8125,-32.445
