,T,ax,ay,az,gx,gy,gz
0,11990,0.526552,0.231068,-0.682712,18.375,-17.535,-16.87
1,12137,0.5404601,0.228872,-0.735904,62.8075,-75.705,8.225
2,12235,0.571936,0.23424,-0.7832399999999999,67.1825,-130.795,44.345
3,12333,0.574864,0.237168,-0.7808001,46.585,-111.0725,-14.595
4,12432,0.5734,0.23668000000000003,-0.780312,2.45,-6.475,-3.9025
5,12530,0.57462,0.23741199999999998,-0.781044,1.6275,-4.5325,-3.5875
6,12628,0.5702281,0.23472800000000002,-0.781776,1.61,-4.4975,-3.5525
7,12726,0.57218,0.23448400000000003,-0.7820199999999999,1.5925,-4.4975,-3.605
8,12824,0.5734,0.23546,-0.7832399999999999,1.5925,-4.55,-3.6225
9,12922,0.571204,0.23521599999999998,-0.783728,1.5225,-4.4975,-3.64
10,13020,0.5743761,0.234972,-0.7849480999999999,1.575,-4.4975,-3.6925
11,13118,0.572912,0.23472800000000002,-0.784216,1.505,-4.41,-3.71
12,13216,0.5724239999999999,0.23521599999999998,-0.783728,1.47,-4.2875,-3.78
13,13314,0.571204,0.23546,-0.783728,1.4525,-4.305,-3.7275
14,13412,0.571936,0.234972,-0.7834840000000001,1.435,-4.34,-3.71
15,13510,0.5734,0.23472800000000002,-0.7861680999999999,1.435,-4.3575,-3.7275
16,13608,0.572912,0.23521599999999998,-0.7849480999999999,1.5225,-4.34,-3.6925
17,13706,0.5743761,0.23521599999999998,-0.7854361,1.54,-4.445,-3.6225
18,13804,0.57462,0.235948,-0.786656,1.5225,-4.4625,-3.5875
19,13903,0.57218,0.23472800000000002,-0.784704,1.54,-4.4625,-3.6225
20,14001,0.57218,0.236192,-0.784704,1.54,-4.41,-3.5875
21,14099,0.572912,0.234972,-0.783972,1.54,-4.41,-3.5525
22,14197,0.572912,0.234972,-0.784216,1.575,-4.4625,-3.6225
23,14295,0.5751081,0.23546,-0.784704,1.5575,-4.4625,-3.57
24,14393,0.5724239999999999,0.236192,-0.7834840000000001,1.54,-4.4975,-3.6925
25,14491,0.570716,0.235704,-0.7834840000000001,1.5925,-4.4625,-3.64
26,14589,0.5726680000000001,0.233752,-0.7829961,1.5575,-4.48,-3.6225
27,14687,0.57218,0.23424,-0.782752,1.5225,-4.5325,-3.5525
28,14785,0.573156,0.233508,-0.784704,1.5225,-4.5325,-3.5525
29,14883,0.5743761,0.23472800000000002,-0.7861680999999999,1.5225,-4.515,-3.535
30,14981,0.5736441,0.235704,-0.7861680999999999,1.5575,-4.515,-3.605
31,15079,0.573156,0.23521599999999998,-0.78446,1.5575,-4.4625,-3.605
32,15177,0.571448,0.235948,-0.78446,1.5925,-4.4975,-3.5875
33,15275,0.571692,0.23521599999999998,-0.7829961,1.575,-4.515,-3.6575
34,15373,0.571692,0.23521599999999998,-0.784704,1.4875,-4.515,-3.7275
35,15471,0.573156,0.23472800000000002,-0.7832399999999999,1.505,-4.4625,-3.5525
36,15569,0.571448,0.234972,-0.782752,1.4875,-4.3575,-3.6225
37,15667,0.573156,0.235948,-0.7854361,1.47,-4.41,-3.64
38,15766,0.571448,0.23692399999999997,-0.782752,1.4175,-4.305,-3.6925
39,15864,0.5743761,0.23668000000000003,-0.7849480999999999,1.54,-4.27,-3.71
40,15962,0.571204,0.236192,-0.7822640000000001,1.4525,-4.2875,-3.675
41,16060,0.571936,0.235948,-0.7820199999999999,1.4525,-4.3225,-3.6575
42,16158,0.5738880000000001,0.23424,-0.78446,1.4875,-4.3225,-3.71
43,16256,0.574132,0.236192,-0.784216,1.505,-4.3575,-3.6575
44,16354,0.5726680000000001,0.235948,-0.7834840000000001,1.505,-4.3575,-3.675
45,16452,0.5726680000000001,0.235948,-0.783728,1.4875,-4.3925,-3.71
46,16550,0.573156,0.233508,-0.78446,1.54,-4.305,-3.6225
47,16648,0.5726680000000001,0.23472800000000002,-0.78446,1.47,-4.3225,-3.6225
48,16746,0.572912,0.23448400000000003,-0.784704,1.4875,-4.3575,-3.5525
49,16844,0.5734,0.23692399999999997,-0.782752,1.505,-4.3575,-3.605
50,16942,0.5738880000000001,0.233752,-0.784704,1.54,-4.27,-3.605
51,17040,0.571936,0.234972,-0.7822640000000001,1.435,-4.235,-3.5875
52,17138,0.572912,0.23546,-0.78446,1.4875,-4.305,-3.64
53,17237,0.572912,0.23521599999999998,-0.784704,1.4,-4.2875,-3.6925
54,17335,0.5724239999999999,0.234972,-0.782752,1.47,-4.2525,-3.6575
55,17433,0.571204,0.23424,-0.7812880999999999,1.4875,-4.2875,-3.7275
56,17531,0.574132,0.233264,-0.783972,1.4875,-4.2875,-3.6925
57,17629,0.5734,0.236192,-0.7834840000000001,1.4875,-4.27,-3.675
58,17727,0.573156,0.23472800000000002,-0.7856801,1.47,-4.3575,-3.6575
59,17825,0.572912,0.23546,-0.783972,1.3825,-4.3575,-3.7275
60,17923,0.571204,0.235704,-0.781532,1.365,-4.375,-3.675
61,18021,0.5736441,0.233264,-0.7832399999999999,1.3825,-4.2875,-3.78
62,18119,0.571448,0.23692399999999997,-0.7822640000000001,1.295,-4.2,-3.7275
63,18217,0.573156,0.236192,-0.7834840000000001,1.33,-4.235,-3.8325
64,18315,0.5726680000000001,0.23521599999999998,-0.7820199999999999,1.3475,-4.2175,-3.85
65,18413,0.5736441,0.23668000000000003,-0.781532,1.4,-4.235,-3.85
66,18511,0.573156,0.235704,-0.7829961,1.3475,-4.305,-3.815
67,18609,0.570716,0.23692399999999997,-0.783728,1.435,-4.3575,-3.815
68,18707,0.5736441,0.23668000000000003,-0.7820199999999999,1.4875,-4.41,-3.7625
69,18805,0.57218,0.234972,-0.781776,1.4875,-4.48,-3.815
70,18903,0.572912,0.235704,-0.782752,1.5925,-4.5325,-3.815
71,19002,0.5734,0.23521599999999998,-0.7834840000000001,1.5925,-4.585,-3.71
72,19100,0.5751081,0.237656,-0.781532,1.645,-4.725,-3.78
73,19198,0.5751081,0.238144,-0.781044,1.6975,-4.83,-3.7625
74,19296,0.5734,0.23521599999999998,-0.7820199999999999,1.8025,-4.8475,-3.7625
75,19394,0.57218,0.23448400000000003,-0.7829961,1.6975,-4.8825,-3.7275
76,19492,0.571204,0.23521599999999998,-0.7820199999999999,1.6975,-4.9175,-3.78
77,19590,0.5738880000000001,0.23692399999999997,-0.780068,1.7675,-4.9,-3.9025
78,19688,0.571204,0.23472800000000002,-0.7808001,1.6975,-4.9875,-3.8325
79,19786,0.571936,0.235704,-0.782508,1.61,-4.97,-3.815
80,19884,0.5697399999999999,0.23448400000000003,-0.781044,1.6275,-4.8825,-3.78
81,19982,0.571204,0.232776,-0.7829961,1.5225,-4.83,-3.7275
82,20080,0.571936,0.23301999999999998,-0.783728,1.3825,-4.7075,-3.815
83,20178,0.5726680000000001,0.23424,-0.784704,1.33,-4.5325,-3.7625
84,20276,0.572912,0.233752,-0.784216,1.26,-4.41,-3.92
85,20375,0.573156,0.23301999999999998,-0.784216,1.1375,-4.4275,-3.955
86,20473,0.571692,0.237656,-0.783972,1.12,-4.55,-4.025
87,20571,0.5724239999999999,0.236192,-0.781044,1.085,-4.4625,-4.1125
88,20669,0.571936,0.23424,-0.781776,1.155,-4.62,-4.0425
89,20767,0.570716,0.2379,-0.783728,1.1725,-4.6375,-3.9725
90,20865,0.570716,0.23546,-0.781776,1.155,-4.62,-3.9025
91,20963,0.5697399999999999,0.23301999999999998,-0.784216,1.12,-4.7075,-4.06
92,21061,0.5702281,0.232776,-0.7812880999999999,1.015,-4.655,-4.1125
93,21159,0.569984,0.23838800000000002,-0.785192,1.05,-4.7775,-4.2
94,21257,0.57096,0.238632,-0.784216,0.98,-4.6375,-4.305
95,21355,0.569984,0.23838800000000002,-0.7829961,0.9975,-4.6375,-4.305
96,21453,0.571692,0.23668000000000003,-0.780312,0.9975,-4.8125,-4.375
97,21551,0.5702281,0.239364,-0.7861680999999999,0.9975,-4.8125,-4.3225
98,21649,0.571448,0.237168,-0.781776,1.1025,-4.83,-4.2
99,21747,0.5697399999999999,0.234972,-0.780556,1.1375,-5.11,-4.2525
100,21846,0.5724239999999999,0.23838800000000002,-0.7820199999999999,1.155,-5.25,-4.235
101,21944,0.5734,0.23887600000000003,-0.781776,1.295,-5.1625,-4.095
102,22042,0.569984,0.239364,-0.784704,1.435,-5.3375,-3.99
103,22140,0.5702281,0.238144,-0.783728,1.5575,-5.3375,-3.9375
104,22238,0.570472,0.237656,-0.78446,1.5225,-5.4075,-3.9375
105,22336,0.568032,0.2379,-0.7856801,1.4875,-5.425,-4.025
106,22434,0.569984,0.23741199999999998,-0.7861680999999999,1.4175,-5.3025,-4.095
107,22532,0.570716,0.239364,-0.7856801,1.3125,-5.0575,-4.165
108,22630,0.5702281,0.24034,-0.7832399999999999,1.2775,-4.935,-4.2175
109,22728,0.571204,0.24082800000000001,-0.784704,1.2425,-4.8825,-4.1825
110,22826,0.5743761,0.24082800000000001,-0.7822640000000001,1.1025,-4.725,-4.1475
111,22924,0.5697399999999999,0.236436,-0.782752,1.2075,-4.69,-4.1475
112,23022,0.5694961,0.23448400000000003,-0.781532,1.0325,-4.585,-4.1125
113,23120,0.5702281,0.240096,-0.783972,0.98,-4.48,-4.1825
114,23218,0.571936,0.2379,-0.7829961,0.9275,-4.5675,-4.2
115,23316,0.568032,0.24034,-0.779824,0.9275,-4.5675,-4.27
116,23414,0.5690081,0.242536,-0.7820199999999999,1.0325,-4.76,-4.2875
117,23512,0.567788,0.243024,-0.7832399999999999,1.1375,-4.97,-4.2875
118,23611,0.571692,0.24156,-0.7849480999999999,1.2075,-5.0225,-4.2175
119,23709,0.57218,0.239608,-0.7834840000000001,1.26,-5.1625,-4.305
120,23807,0.568276,0.242048,-0.7822640000000001,1.2775,-5.3375,-4.34
121,23905,0.568032,0.242536,-0.784216,1.365,-5.3725,-4.2
122,24003,0.567788,0.242536,-0.7822640000000001,1.3125,-5.4075,-4.1125
123,24101,0.567788,0.238632,-0.783728,1.295,-5.4425,-4.0075
124,24199,0.5663239999999999,0.238632,-0.784216,1.3475,-5.3375,-3.955
125,24297,0.56852,0.23887600000000003,-0.784216,1.2775,-5.1975,-3.9725
126,24395,0.5690081,0.238144,-0.787144,1.1025,-5.075,-3.9375
127,24493,0.568032,0.239608,-0.7856801,1.0675,-4.9525,-3.85
128,24591,0.567788,0.239852,-0.783728,1.0325,-4.8125,-3.815
129,24689,0.5697399999999999,0.242292,-0.7829961,1.05,-4.69,-3.7975
130,24787,0.5702281,0.24131599999999997,-0.783728,1.1025,-4.725,-3.8325
131,24885,0.5692520000000001,0.240096,-0.782752,1.0675,-4.69,-3.7275
132,24983,0.5673,0.24278000000000002,-0.784216,1.085,-4.5675,-3.7275
133,25081,0.5692520000000001,0.24082800000000001,-0.785192,1.085,-4.4975,-3.6925
134,25180,0.5663239999999999,0.243024,-0.7834840000000001,1.05,-4.5325,-3.78
135,25278,0.5665680000000001,0.242536,-0.7822640000000001,1.05,-4.585,-3.9025
136,25376,0.5665680000000001,0.240096,-0.7834840000000001,0.8925,-4.6375,-4.095
137,25474,0.5653481,0.240096,-0.783972,0.735,-4.725,-4.445
138,25572,0.567056,0.238144,-0.782752,0.56,-4.375,-4.7775
139,25670,0.567056,0.24351199999999998,-0.783972,0.28,-4.1825,-5.005
140,25768,0.568764,0.23911999999999997,-0.7854361,0.315,-3.9375,-4.515
141,25866,0.5692520000000001,0.24107199999999998,-0.780312,0.2275,-3.9375,-4.235
142,25964,0.568764,0.24326799999999998,-0.7822640000000001,0.2275,-4.13,-4.34
143,26062,0.5692520000000001,0.24644000000000002,-0.784216,0.3325,-4.235,-4.2525
144,26160,0.564128,0.24058400000000002,-0.783972,0.56,-4.4975,-4.235
145,26258,0.5697399999999999,0.24107199999999998,-0.7812880999999999,0.5775,-4.4275,-3.99
146,26356,0.56852,0.242048,-0.782752,0.735,-4.48,-3.8675
147,26454,0.5675439999999999,0.24326799999999998,-0.783972,0.7525,-4.4275,-3.745
148,26552,0.564372,0.24497600000000003,-0.784216,0.9275,-4.305,-3.57
149,26650,0.5636399999999999,0.23911999999999997,-0.783728,1.0675,-4.235,-3.4475
150,26748,0.5675439999999999,0.24326799999999998,-0.7849480999999999,0.9975,-3.8325,-3.2025
151,26847,0.565104,0.238144,-0.783972,1.0675,-3.64,-2.975
152,26945,0.5655920999999999,0.23741199999999998,-0.785192,0.9275,-3.2025,-2.8
153,27043,0.5648601,0.23521599999999998,-0.784216,0.8575,-2.8525,-2.66
154,27141,0.5697399999999999,0.243756,-0.786412,0.6125,-2.415,-2.5725
155,27239,0.565104,0.243756,-0.7820199999999999,0.7175,-2.59,-2.695
156,27337,0.569984,0.244,-0.780068,0.735,-2.485,-2.835
157,27435,0.5663239999999999,0.24424400000000002,-0.7808001,0.8225,-2.8,-2.8525
158,27533,0.5663239999999999,0.246196,-0.7812880999999999,0.9275,-2.8175,-2.835
159,27631,0.5663239999999999,0.24278000000000002,-0.783972,0.8925,-2.6775,-2.7125
160,27729,0.568276,0.243024,-0.7795801,0.735,-2.31,-2.8875
161,27827,0.5673,0.24131599999999997,-0.781044,0.56,-1.8025,-2.66
162,27925,0.5675439999999999,0.24156,-0.780068,0.4025,-1.3475,-2.625
163,28023,0.571936,0.239852,-0.7812880999999999,0.315,-0.91,-2.5025
164,28121,0.566812,0.24351199999999998,-0.7808001,0.1925,-0.5775,-2.5725
165,28219,0.567788,0.24522,-0.7834840000000001,-0.07,-0.14,-2.765
166,28317,0.559248,0.238632,-0.784704,-0.735,0.77,-3.045
167,28415,0.568276,0.23887600000000003,-0.782752,-1.96,2.6425,-3.045
168,28513,0.571936,0.24326799999999998,-0.783728,-3.01,4.515,-3.43
169,28612,0.5724239999999999,0.232044,-0.780312,-3.9725,6.405,-3.955
170,28710,0.571692,0.234972,-0.784216,-5.285,8.96,-4.6025
171,28808,0.5612,0.24131599999999997,-0.79056,-7.07,12.005,-5.04
172,28906,0.5858439999999999,0.235948,-0.777872,-8.505,15.575,-4.5325
173,29004,0.5797441,0.23692399999999997,-0.7795801,-9.975,19.11,-3.9375
174,29102,0.591212,0.245464,-0.781776,-10.8325,22.89,-3.7975
175,29200,0.59048,0.250832,-0.781044,-11.0075,26.635,-3.465
176,29298,0.565104,0.26108000000000003,-0.786412,-10.2375,29.5925,-3.9375
177,29396,0.577304,0.23228800000000002,-0.7473721,-8.925,34.44,-4.6025
178,29494,0.62952,0.284504,-0.7500560000000001,-10.255,40.3375,-5.565
179,29592,0.5958479999999999,0.26596,-0.744688,-9.1525,43.3125,-4.9875
180,29690,0.6170760000000001,0.271084,-0.752984,-8.19,46.2875,-5.1625
181,29788,0.611952,0.26474000000000003,-0.754692,-5.18,47.635,-5.1275
182,29886,0.6021920000000001,0.256444,-0.764452,-3.8675,51.45,-4.9
183,29984,0.59902,0.256444,-0.745664,-2.0475,55.195,-5.1975
184,30082,0.6470880999999999,0.268888,-0.7407841,-1.925,59.4125,-5.9675
185,30180,0.648552,0.262544,-0.74298,-1.1725,63.5775,-4.6725
186,30279,0.671976,0.276696,-0.690764,0.665,66.7975,-4.025
187,30377,0.636596,0.28767600000000004,-0.701012,-0.14,70.07,-2.485
188,30475,0.66246,0.290848,-0.687104,0.63,73.045,-0.6475
189,30573,0.69052,0.290604,-0.6980841,0.9275,76.1075,2.0825
190,30671,0.6973520000000001,0.27938,-0.6844201,2.17,79.03,5.7925
191,30769,0.71248,0.294996,-0.6802720999999999,3.01,83.0375,9.765
192,30867,0.7105279999999999,0.27328,-0.685396,4.4275,88.13,13.2475
193,30965,0.729804,0.262788,-0.665632,5.81,93.94,15.33
194,31063,0.7105279999999999,0.249856,-0.6724640000000001,4.2525,99.64499,16.6075
195,31161,0.699548,0.24497600000000003,-0.6722199999999999,3.92,106.05,17.01
196,31259,0.7415161,0.262544,-0.680028,6.3525,111.825,17.0275
197,31357,0.826916,0.26961999999999997,-0.6563601,9.6775,118.44,17.6225
198,31455,0.778116,0.255712,-0.6168319999999999,9.205,127.225,21.1225
199,31553,0.8371639999999999,0.242048,-0.602436,9.24,135.3275,24.71
200,31652,0.8220360000000001,0.2318,-0.6117081,7.945,142.87,27.7725
201,31750,0.9145120999999999,0.265472,-0.587796,10.0275,146.7025,28.84
202,31848,0.8801081000000001,0.256688,-0.635376,7.84,150.6575,29.295
203,31946,0.8791321,0.248392,-0.5968241,6.09,153.37,30.1
204,32044,0.9145120999999999,0.272304,-0.567056,4.2,154.1575,30.905
205,32142,0.9252481,0.271084,-0.5587601,5.2325,155.855,33.425
206,32240,0.961116,0.300608,-0.535824,5.4775,157.605,36.6275
207,32338,0.9772200999999999,0.30548800000000004,-0.5343600000000001,6.16,160.825,40.845
208,32436,0.9945440000000001,0.317688,-0.537532,6.3525,164.955,46.41
209,32534,0.987956,0.302804,-0.552904,6.4225,169.75,53.1825
210,32632,1.042124,0.321104,-0.5665680000000001,4.8475,174.3875,57.645
211,32730,1.03334,0.317688,-0.580964,2.66,180.5825,63.07
212,32828,1.011868,0.298656,-0.617564,0.3675,187.7575,68.355
213,32926,0.9943001,0.310856,-0.658556,-3.5,194.3025,72.31
214,33025,1.081652,0.438224,-0.69784,-6.2825,199.4125,75.0575
215,33123,1.2117040000000001,0.44896,-0.8039801,-4.76,201.3725,82.0575
216,33221,1.518412,0.671732,-0.987956,-3.9725,192.605,88.8825
217,33319,0.527284,0.271084,-1.465708,-3.85,153.3875,89.355
218,33417,1.549888,0.292556,-2.31434,-40.3025,71.225,62.7375
219,33515,1.561112,0.913048,-2.32898,-42.105,-26.5125,38.6225
220,33613,0.495076,0.8076399999999999,-1.597468,-8.89,-101.0975,39.725
221,33711,0.114192,0.5614439999999999,-1.119716,31.29,-130.2175,55.93
222,33809,0.237168,0.44944799999999996,-1.05164,51.0825,-137.305,61.9675
223,33907,0.36112,0.44212799999999997,-1.0323639999999998,46.1825,-145.6525,53.9175
224,34005,0.3355,0.5885281,-1.0230920000000001,30.1175,-162.7675,33.5475
225,34103,0.369904,0.714432,-0.984784,25.4625,-180.18,11.7425
226,34201,0.38552,0.698328,-0.9037761000000001,35.28,-193.55,-7.6475
227,34299,0.36356,0.5614439999999999,-0.8049561,46.9,-202.7375,-25.7425
228,34397,0.359656,0.409432,-0.7427361,51.0125,-207.3575,-41.7375
229,34495,0.413336,0.288164,-0.7332201,45.71,-209.5625,-53.2175
230,34594,0.479216,0.226188,-0.7417600000000001,34.7375,-212.7125,-59.6575
231,34692,0.5499761,0.21667199999999998,-0.729316,24.15,-217.1575,-61.215
232,34790,0.6007279999999999,0.237656,-0.7134560999999999,17.7625,-220.6575,-59.0975
233,34888,0.63318,0.249612,-0.698816,15.9075,-221.9525,-56.7
234,34986,0.6893,0.20496,-0.712236,14.0525,-221.585,-56.91
235,35084,0.774944,0.142984,-0.7422481,7.4725,-222.4075,-59.64
236,35182,0.8625401,0.13054000000000002,-0.765672,-2.38,-225.085,-61.5475
237,35280,0.9147559999999999,0.16958,-0.768844,-10.36,-227.64,-59.6925
238,35378,0.8949921000000001,0.22789600000000002,-0.73688,-14.0525,-228.235,-55.7025
239,35476,0.8957241,0.29377600000000004,-0.7032079999999999,-15.5925,-224.525,-53.76
240,35574,0.8759601,0.34404,-0.6724640000000001,-17.465,-217.105,-57.5225
241,35672,0.8457040000000001,0.34526,-0.644892,-20.685,-206.2025,-66.185
242,35770,0.9699,0.307196,-0.750544,-29.1725,-191.4325,-78.1025
243,35868,1.0826280000000001,0.306952,-0.800808,-40.95,-180.67,-92.27750999999999
244,35966,1.073844,0.313296,-0.705892,-45.57,-170.835,-103.495
245,36064,1.0528600000000001,0.28377199999999997,-0.5785241,-39.4975,-151.0425,-110.075
246,36163,1.14192,0.18056,-0.5455840000000001,-29.4875,-121.0125,-113.3825
247,36261,1.4274,0.08881599,-0.750788,-30.695,-90.755,-117.3725
248,36359,1.7389880000000002,0.167384,-0.9103641,-44.975,-79.6075,-123.9175
249,36457,1.9651759999999998,0.181536,-0.8801081000000001,-53.06,-87.9375,-127.89
250,36555,1.9883560000000002,0.040016,-0.617564,-50.61,-101.2375,-124.25
251,36653,1.9276,-0.031232,-0.329156,-42.1925,-107.0475,-108.01
252,36751,1.9532200000000002,-0.06832001,-0.12053599999999999,-32.935,-102.69,-84.5075
253,36849,2.0051919999999996,-0.0244,0.040504000000000005,-31.535,-94.22,-68.4775
254,36947,2.021784,0.042456,0.191052,-37.94,-87.46500999999999,-64.6275
255,37045,1.9778639999999998,0.025131999999999998,0.385276,-42.42,-81.76001,-66.745
256,37143,1.9049080000000003,-0.038064,0.55388,-40.6175,-71.54,-67.7425
257,37241,1.886852,-0.112728,0.590236,-30.625,-54.1625,-61.81
258,37339,1.8712360000000001,-0.202764,0.5631520000000001,-12.6175,-35.1225,-49.14
259,37437,1.8526919999999998,-0.30353600000000003,0.525088,6.3875,-19.845,-32.6375
260,37535,1.83244,-0.346968,0.44993599999999995,18.4625,-9.345,-14.4725
261,37633,1.8117,-0.093696,0.059536,27.475,-2.59,5.39
262,37731,1.0060120000000001,-0.40894400000000003,0.343796,78.5225,29.3825,49.8225
263,37830,-0.043188,0.003172,-1.296616,64.0675,44.9225,84.6825
264,37928,0.0427,0.919392,-1.73606,20.195,64.34751,59.115
265,38026,0.590236,0.41553199999999996,-0.740052,22.855,84.315,33.7575
266,38124,0.62464,-0.006587999999999999,0.019032,17.7975,99.03251,-10.08
267,38222,1.368108,-0.284504,-1.1148360000000002,6.2125,116.4275,-6.9475
268,38320,1.41276,-0.00244,-1.7158080000000002,2.6775,87.115,24.64
269,38418,0.552904,0.05002,-0.649284,7.9975,42.2625,26.0225
270,38516,0.69418,0.472628,-0.9237841,-7.9975,44.975,18.69
271,38614,0.97234,0.6802720999999999,-1.0584719999999999,-5.495,45.6575,12.0225
272,38712,0.6573359999999999,0.6558721,-0.662704,17.605,22.75,13.1425
273,38810,0.6080479999999999,0.285236,-0.7854361,31.4125,17.3425,17.4475
274,38908,0.693204,0.085888,-0.863516,33.88,15.4525,21.3675
275,39006,0.6810039999999999,0.27816,-0.814472,28.9975,4.935,18.165
276,39104,0.6514800000000001,0.1647,-0.8296,26.04,-1.5925,14.1925
277,39202,0.6224441,0.132492,-0.8361879999999999,20.5625,-5.11,10.22
278,39300,0.599264,0.217648,-0.8147161,11.5325,-5.3375,4.7775
279,39398,0.576572,0.22716399999999998,-0.793488,6.9825,-3.955,0.2275
280,39497,0.574132,0.264008,-0.7861680999999999,4.795,-2.8525,-1.7675
281,39595,0.576572,0.276208,-0.780312,4.62,-2.205,-2.03
282,39693,0.570472,0.274744,-0.7734800000000001,5.0925,-2.2225,-1.5925
283,39791,0.577548,0.26961999999999997,-0.770308,6.1775,-2.38,-0.56
284,39889,0.564128,0.25376,-0.768844,6.51,-2.6425,0.2275
285,39987,0.558272,0.239608,-0.777872,6.8075,-3.08,0.595
286,40085,0.558516,0.24644000000000002,-0.7822640000000001,6.86,-3.36,0.63
287,40183,0.565104,0.23448400000000003,-0.778604,6.93,-3.255,0.6125
288,40281,0.5631520000000001,0.23472800000000002,-0.779092,6.37,-3.1325,0.63
289,40379,0.561932,0.2318,-0.7808001,5.9675,-2.9925,0.3325
290,40477,0.5673,0.22862800000000003,-0.7854361,5.3375,-2.3975,0.2625
291,40575,0.576084,0.233264,-0.7788480999999999,4.9875,-2.1175,-0.5775
292,40673,0.575596,0.238144,-0.783728,4.4975,-1.75,-0.735
293,40771,0.576572,0.246928,-0.781776,4.3225,-1.225,-0.3675
294,40870,0.5753520000000001,0.236436,-0.786656,4.34,-1.1725,-0.56
295,40968,0.5858439999999999,0.23838800000000002,-0.7829961,4.0425,-1.3825,-0.8925
296,41066,0.5697399999999999,0.237656,-0.786412,3.395,-1.4525,-0.3675
297,41164,0.5734,0.235948,-0.788852,2.8175,-1.9425,-1.5225
298,41262,0.5826720000000001,0.24326799999999998,-0.780312,2.5025,-2.3975,-2.555
299,41360,0.5751081,0.23692399999999997,-0.7788480999999999,1.82,-2.1875,-1.995
300,41458,0.57828,0.24107199999999998,-0.7793359999999999,1.2425,-2.2575,-1.89
301,41556,0.5777920999999999,0.241804,-0.7754321,1.2775,-2.94,-1.5225
302,41654,0.579256,0.24790399999999999,-0.7761640999999999,0.8925,-3.2725,-0.7
303,41752,0.576084,0.24156,-0.7761640999999999,0.7,-4.41,-0.245
304,41850,0.579012,0.247416,-0.781776,1.05,-5.3375,0.07
305,41948,0.578036,0.24936799999999998,-0.776896,1.82,-6.23,1.3825
306,42046,0.5799880000000001,0.25302800000000003,-0.776408,2.835,-6.195,3.745
307,42144,0.580964,0.250344,-0.7766521,3.2025,-6.3525,5.5125
308,42242,0.594384,0.245464,-0.7732359999999999,2.73,-6.5625,5.53
309,42340,0.5743761,0.231068,-0.779092,0.735,-5.565,6.4575
310,42438,0.579012,0.23424,-0.778116,-0.9625,-2.9575,5.985
311,42537,0.5934081,0.22935999999999998,-0.773968,-2.45,-0.3675,5.3025
312,42635,0.590236,0.229604,-0.7722600000000001,-3.8675,2.31,4.7775
313,42733,0.5736441,0.27328,-0.784704,-7.9625,5.53,5.9675
314,42831,0.555832,0.225944,-0.754692,-10.955,8.54,7.875
315,42929,0.5795,0.20837600000000003,-0.7893399999999999,-13.79,12.25,8.05
316,43027,0.5675439999999999,0.221308,-0.788608,-15.1025,16.9225,7.14
317,43125,0.533384,0.187392,-0.8457040000000001,-16.0475,23.555,7.2975
318,43223,0.5636399999999999,0.223016,-0.8039801,-14.35,32.6725,6.3875
319,43321,0.548756,0.20252,-0.787876,-17.9725,43.015,4.1475
320,43419,0.567056,0.22277199999999997,-0.81252,-19.88,52.0625,2.24
321,43517,0.5846241,0.225944,-0.7754321,-21.6125,62.195,0.07
322,43615,0.5919439999999999,0.24668400000000001,-0.786412,-21.9975,70.77,-1.925
323,43713,0.595116,0.25522399999999995,-0.755912,-20.4925,77.455,-2.73
324,43811,0.616344,0.251076,-0.750788,-21.5425,87.0275,-4.3225
325,43909,0.6314721,0.26156799999999997,-0.746396,-22.715,97.07251,-3.815
326,44008,0.644892,0.251564,-0.73078,-22.925,106.5575,-3.6925
327,44106,0.647576,0.24863600000000002,-0.7417600000000001,-21.5075,115.745,-3.22
328,44204,0.6756361,0.25742,-0.7324881,-18.515,124.6875,-3.01
329,44302,0.697108,0.254736,-0.7239479999999999,-16.0125,133.6125,-2.0125
330,44400,0.724924,0.250832,-0.7198,-13.5975,142.485,0.8225
331,44498,0.745908,0.2928,-0.714432,-11.34,151.55,4.1475
332,44596,0.667096,0.274744,-0.7005239999999999,-7.8575,161.07,9.3625
333,44694,0.7612800999999999,0.273768,-0.683932,-4.3925,169.12,8.6975
334,44792,0.813008,0.284992,-0.671488,-2.4325,177.6075,11.1825
335,44890,0.79178,0.302804,-0.6795401,-0.8575,188.23,18.725
336,44988,0.937448,0.32086,-0.625372,0.1575,198.5375,27.6325
337,45086,0.8525360000000001,0.348432,-0.733708,-3.3425,209.86,36.085
338,45184,0.9128040000000001,0.397476,-0.755912,-6.65,218.9075,43.54
339,45282,0.950868,0.382348,-0.756156,-13.335,225.7675,49.5075
340,45380,0.9825879999999999,0.378444,-0.687592,-23.135,231.4025,55.265
341,45479,1.022116,0.35502,-0.659776,-33.4425,238.105,61.4775
342,45577,1.022604,0.342088,-0.6836880999999999,-45.045,244.8425,67.4625
343,45675,1.104832,0.325496,-0.715896,-58.59,250.3725,71.05
344,45773,1.1272799999999998,0.35746,-0.781776,-75.005,251.9475,74.83
345,45871,1.097756,0.346968,-0.806908,-90.8075,250.8275,79.555
346,45969,1.2702639999999998,0.6156119999999999,-1.0584719999999999,-105.35,247.2225,83.125
347,46067,1.372256,0.353556,-1.413492,-106.5575,218.33,93.9925
348,46165,0.659776,0.094916,-2.1106,-149.3975,141.225,110.0225
349,46263,2.096936,0.8869401,-3.047072,-189.14,36.155,103.7225
350,46361,1.3529799999999998,1.373476,-2.465864,-139.3525,-73.535,115.7975
351,46459,0.37332,1.1995040000000001,-1.683356,-51.24,-146.02,132.7375
352,46557,0.032695999999999996,0.9262239999999999,-1.205848,21.175,-166.8975,137.2875
353,46655,0.114192,0.847412,-1.069452,57.9075,-166.32,117.5825
354,46753,0.158844,0.8727879999999999,-1.019676,65.345,-164.675,79.0125
355,46852,0.11224,0.93696,-0.996008,64.9425,-169.435,30.2575
356,46950,0.156892,0.8810841,-0.945744,72.555,-177.24,-14.945
357,47048,0.207644,0.684176,-0.8549761,86.13501,-185.4475,-49.455
358,47146,0.24107199999999998,0.43505200000000005,-0.7705521,93.765,-193.4975,-73.4125
359,47244,0.320372,0.219844,-0.7537159999999999,89.495,-201.4775,-87.36
360,47342,0.423828,0.09418401,-0.7671359999999999,75.8625,-211.5925,-90.63251
361,47440,0.540948,0.05587601,-0.787876,59.8675,-224.4025,-84.35
362,47538,0.638304,0.056852,-0.7820199999999999,46.7425,-238.3325,-71.71500999999999
363,47636,0.696132,0.089792,-0.74298,36.96,-251.195,-57.785
364,47734,0.735172,0.139568,-0.71004,28.7175,-260.5575,-47.2325
365,47832,0.777384,0.19959200000000002,-0.6790520999999999,19.425,-265.5975,-43.225
366,47930,0.793488,0.2501,-0.664168,8.5225,-267.0325,-44.5375
367,48028,0.871568,0.29597199999999996,-0.624396,-1.7675,-263.4975,-48.58
368,48127,0.9235399999999999,0.354044,-0.589016,-8.96,-255.0625,-53.795
369,48225,1.0077200000000002,0.416264,-0.595604,-11.165,-242.375,-59.15
370,48323,1.0182120000000001,0.478728,-0.6080479999999999,-10.115,-228.8825,-62.8425
371,48421,1.123376,0.527528,-0.727364,-13.4575,-215.005,-70.875
372,48519,1.232444,0.537776,-0.826428,-23.1525,-207.235,-86.4325
373,48617,1.2456200000000002,0.49702799999999997,-0.8127641,-33.5125,-206.3425,-104.055
374,48715,1.269776,0.39405999999999997,-0.759084,-42.735,-203.3675,-115.5
375,48813,1.378844,0.24058400000000002,-0.726388,-51.9925,-195.1775,-119.49
376,48911,1.516948,0.160308,-0.7171161,-64.1025,-185.675,-119.8575
377,49009,1.6433400000000002,0.134932,-0.681736,-72.625,-176.4175,-115.08
378,49107,1.68482,0.04392,-0.541192,-71.92501,-164.605,-102.305
379,49205,1.733132,-0.04514,-0.36112,-69.405,-147.105,-83.37001
380,49303,1.7707080000000002,0.040504000000000005,-0.177144,-71.5925,-125.755,-61.775
381,49401,1.950048,0.023668,-0.09394001,-75.9325,-101.5,-48.09
382,49499,2.154032,-0.062220000000000004,-0.007076001,-86.22251,-79.31,-51.03
383,49598,2.1896560000000003,-0.093696,-0.049288,-98.0875,-60.6375,-60.83
384,49696,2.364604,0.043432,0.065148,-96.42501,-54.705,-72.5025
385,49794,2.249192,0.11321600000000001,0.320372,-60.2875,-49.84,-74.5675
386,49892,2.125728,-0.000244,0.583404,-5.4425,-38.4475,-66.255
387,49990,2.075952,-0.216916,0.8418,39.1475,-16.555,-51.065
388,50088,2.090592,-0.331352,0.9084121,60.095,11.1825,-35.4725
389,50186,2.1459799999999998,-0.343308,0.9352520000000001,70.2975,42.8225,-21.0525
390,50284,2.021296,-0.291092,0.8276481,88.865,84.28,-3.9025
391,50382,0.32818,-0.500688,-0.621468,100.415,116.2525,16.5025
392,50480,0.6158561,0.030987999999999998,-2.538332,43.1375,120.19,7.7525
393,50578,1.051152,-0.404552,-1.562088,49.8225,98.68251,10.0975
394,50676,0.577548,-0.765428,-0.368196,38.1325,81.935,11.41
395,50774,0.7812880999999999,-0.348188,-0.690764,-10.5,86.29251,16.2225
396,50872,1.19682,0.539484,-1.3176,-32.48,79.7125,35.1575
397,50970,0.738588,0.9638,-0.8388721,-20.405,52.255,29.1025
398,51069,0.9933241,1.105564,-0.8940161,3.1325,45.8325,15.4875
399,51167,0.733708,0.194468,-0.8281360999999999,35.245,31.36,18.935
400,51265,0.6375721,0.05368,-0.9530641,43.9075,13.965,28.3675
401,51363,0.6068279999999999,0.305,-0.7515201,32.1825,9.6075,24.3425
402,51461,0.712724,0.183,-0.8784,34.0725,5.4775,22.6275
403,51559,0.6229319999999999,0.111752,-0.827892,28.3675,0.7525,18.7775
404,51657,0.5968241,0.231068,-0.8405800999999999,18.725,-2.7125,14.455
405,51755,0.590236,0.170312,-0.826672,14.8575,-1.89,8.33
406,51853,0.572912,0.249612,-0.8115439999999999,10.1325,-2.275,3.5175
407,51951,0.564128,0.263764,-0.801784,8.8725,-1.8375,1.1375
408,52049,0.56242,0.25058800000000003,-0.7659161,8.8725,-1.225,0.56
409,52147,0.5665680000000001,0.284016,-0.7812880999999999,8.05,-0.9975,0.7
410,52245,0.5602239999999999,0.31964000000000004,-0.7983680000000001,9.2225,-1.4525,2.2225
411,52344,0.547048,0.233508,-0.7722600000000001,9.065,-1.6975,1.715
412,52442,0.53314,0.31451599999999996,-0.752008,8.785,-2.0825,3.0275
413,52540,0.553148,0.21716,-0.768356,8.2425,-1.75,2.5725
414,52638,0.549244,0.24497600000000003,-0.7854361,8.645,-2.4675,2.835
415,52736,0.549732,0.231068,-0.790804,8.3125,-2.6775,2.66
416,52834,0.559004,0.22643200000000002,-0.7869,7.875,-2.8525,2.205
417,52932,0.565104,0.230336,-0.795928,6.825,-2.555,2.275
418,53030,0.57462,0.233996,-0.7922680000000001,6.405,-3.3075,1.4
419,53128,0.570716,0.2196,-0.800076,5.4075,-3.57,1.96
420,53226,0.562908,0.239608,-0.7986121,4.9,-4.585,0.8925
421,53324,0.566812,0.23082399999999997,-0.79178,4.445,-5.145,0.035
422,53422,0.562908,0.221552,-0.79178,3.6225,-5.005,-0.35
423,53520,0.5675439999999999,0.22935999999999998,-0.7954399999999999,2.8,-5.11,-1.0325
424,53618,0.565104,0.221796,-0.7944641,2.38,-4.8475,-0.9625
425,53717,0.5653481,0.23082399999999997,-0.7895840999999999,1.925,-4.8825,-1.54
426,53815,0.5675439999999999,0.216916,-0.7854361,1.6625,-4.865,-1.3825
427,53913,0.565104,0.243756,-0.791292,1.4175,-5.075,-1.3125
428,54011,0.558516,0.219112,-0.786412,1.61,-5.565,-1.19
429,54109,0.5587601,0.23155599999999998,-0.786656,0.9625,-5.6525,-0.91
430,54207,0.553636,0.24156,-0.794952,0.5425,-5.95,-0.7
431,54305,0.5504641,0.231312,-0.792756,0.2625,-6.3175,0.1575
432,54403,0.558272,0.220088,-0.796172,-0.3325,-6.58,0.2625
433,54501,0.5648601,0.244488,-0.792024,-0.7,-6.72,-0.315
434,54599,0.5543680000000001,0.23887600000000003,-0.788608,-1.155,-6.9825,0.5425
435,54697,0.5702281,0.2135,-0.793976,-2.0125,-7.035,0.77
436,54795,0.564372,0.22716399999999998,-0.795928,-2.9925,-6.8075,1.19
437,54893,0.546804,0.23692399999999997,-0.7893399999999999,-3.4825,-6.685,1.2075
438,54991,0.5489999999999999,0.228384,-0.802272,-4.6025,-5.4775,1.6625
439,55090,0.5546121,0.22643200000000002,-0.797636,-6.0725,-2.9225,1.5925
440,55188,0.562176,0.242292,-0.793244,-7.91,0.5775,1.4525
441,55286,0.565104,0.23521599999999998,-0.780556,-9.555,3.8675,1.8375
442,55384,0.5843801,0.251076,-0.80886,-13.3525,7.245,3.535
443,55482,0.578036,0.235948,-0.800076,-16.17,10.4475,5.5475
444,55580,0.5743761,0.254492,-0.808372,-19.2325,14.77,7.28
445,55678,0.521672,0.21301199999999998,-0.7954399999999999,-20.615,20.3,8.6275
446,55776,0.51362,0.181536,-0.8491200000000001,-20.265,28.6125,9.52
447,55874,0.564372,0.238632,-0.823744,-17.465,37.8175,8.54
448,55972,0.540704,0.19739600000000002,-0.795928,-17.885,45.745,7.525
449,56070,0.563396,0.21276799999999998,-0.8030041,-19.215,58.0475,5.565
450,56168,0.549732,0.244488,-0.818376,-21.98,72.0825,3.4125
451,56266,0.5185,0.240096,-0.787876,-22.05,84.63,1.3475
452,56365,0.6273241,0.232044,-0.781044,-24.045,98.105,-0.945
453,56463,0.619516,0.245464,-0.788608,-23.6425,110.075,-2.1875
454,56561,0.634156,0.254004,-0.757864,-21.4375,122.22,-1.7325
455,56659,0.5946279999999999,0.2745,-0.787632,-19.0575,134.085,-0.07
456,56757,0.648308,0.27084,-0.7707961,-14.1575,145.495,0.7175
457,56855,0.701256,0.256444,-0.7522521,-10.6575,155.82,6.195
458,56953,0.703696,0.27523200000000003,-0.7315119999999999,-6.195,165.5325,10.745
459,57051,0.715896,0.24936799999999998,-0.6802720999999999,-0.56,174.895,14.5425
460,57149,0.7171161,0.290116,-0.727364,3.6225,184.1,17.9025
461,57247,0.8403360000000001,0.332572,-0.743224,9.1,191.8525,22.645
462,57345,0.740052,0.288164,-0.769332,8.9425,201.11,31.325
463,57443,0.9677040000000001,0.40577199999999997,-0.787876,8.05,209.405,37.8175
464,57541,0.8991401,0.382104,-0.8335040000000001,6.195,218.19,48.8425
465,57639,0.9125601000000001,0.390156,-0.7849480999999999,1.4875,223.09,55.895
466,57738,0.9418401,0.37454,-0.772504,-4.515,228.1125,62.8425
467,57836,1.0086959999999998,0.395036,-0.748592,-12.145,234.2725,69.3875
468,57934,1.0499319999999999,0.38308000000000003,-0.7661600000000001,-19.1625,242.0775,77.0525
469,58032,1.083604,0.32403200000000004,-0.782508,-27.0725,248.7275,84.6825
470,58130,1.084824,0.337452,-0.8569280999999999,-40.8625,253.4,89.25
471,58228,1.117764,0.490196,-0.9928360999999999,-54.04,254.4675,94.53501
472,58326,1.311988,0.659044,-1.146068,-60.6025,250.3025,103.145
473,58424,1.6804279999999998,0.757376,-1.580388,-62.79,233.3975,115.78
474,58522,0.327692,0.462136,-1.7328880000000002,-48.4575,179.585,134.2075
475,58620,1.4598520000000001,0.192272,-2.674972,-79.345,85.97751,124.565
476,58718,1.368108,1.2280520000000001,-2.595672,-100.695,-23.8875,93.7825
477,58816,0.30402399999999996,1.040416,-1.683356,-50.435,-112.21,87.4825
478,58914,-0.242536,0.7478600000000001,-1.07482,0.5775,-132.2125,96.3725
479,59013,-0.115168,0.677588,-1.0230920000000001,26.3725,-125.86,88.13
480,59111,0.138348,0.689056,-1.073112,31.29,-122.185,65.45
481,59209,0.131272,0.7686,-1.0723799999999999,24.43,-133.4025,29.47
482,59307,0.12932000000000002,0.807396,-1.023824,22.82,-150.2375,-8.19
483,59405,0.188856,0.7200439999999999,-0.9596520000000001,33.88,-164.7275,-37.8175
484,59503,0.24156,0.51362,-0.8852321,47.6,-177.065,-58.73
485,59601,0.29377600000000004,0.269864,-0.8222799999999999,51.905,-189.175,-72.0825
486,59699,0.37258800000000003,0.09223200000000001,-0.815936,42.5425,-201.355,-78.225
487,59797,0.49580799999999997,0.025376,-0.849852,25.6025,-214.375,-75.81
488,59895,0.609268,0.01708,-0.8552200000000001,10.1675,-229.2325,-66.3075
489,59993,0.698816,0.033916,-0.8369200000000001,-1.61,-244.72,-53.7425
490,60091,0.780068,0.07808001,-0.8164239999999999,-11.41,-258.8425,-42.9275
491,60189,0.8178880999999999,0.157868,-0.760304,-20.37,-269.22,-37.66
492,60287,0.827892,0.193736,-0.7232161,-28.8925,-273.2625,-37.3975
493,60386,0.9198799999999999,0.24326799999999998,-0.6661201,-36.365,-270.1125,-40.81
494,60484,1.02358,0.32574000000000003,-0.646844,-42.56,-261.66,-46.795
495,60582,1.138992,0.457988,-0.669292,-43.365,-249.0075,-56.5775
496,60680,1.150216,0.5663239999999999,-0.663924,-36.33,-235.935,-68.425
497,60778,1.301252,0.5455840000000001,-0.7134560999999999,-28.945,-220.675,-81.55001
498,60876,1.235616,0.51118,-0.6834439999999999,-31.57,-209.2125,-102.235
499,60974,1.298812,0.407236,-0.742492,-37.45,-197.9425,-119.0175
500,61072,1.365668,0.308904,-0.721996,-50.0325,-187.7225,-133.9975
501,61170,1.414224,0.194224,-0.684176,-63.385,-175.84,-143.4475
502,61268,1.515728,0.12688,-0.686128,-75.985,-163.7475,-148.54
503,61366,1.7990119999999998,0.069784,-0.750788,-84.7175,-154.6825,-149.66
504,61464,1.849032,0.00244,-0.638792,-82.8275,-150.29,-142.45
505,61562,1.9171080000000003,-0.06661201,-0.484096,-71.3825,-145.0925,-122.955
506,61661,1.9537080000000002,-0.104432,-0.274744,-57.54,-137.5675,-93.905
507,61759,1.9602959999999998,-0.223504,-0.087108,-50.9425,-124.7925,-66.36
508,61857,1.9944560000000002,-0.347456,0.0366,-60.025,-108.745,-51.31
509,61955,2.0825400000000003,-0.274256,0.051484,-72.8175,-92.48751,-45.185
510,62053,2.176968,-0.155184,0.06880801,-66.6575,-78.645,-40.4775
511,62151,2.196976,-0.10760399999999999,0.188368,-36.7325,-69.9125,-34.65
512,62249,2.123532,-0.170068,0.413336,3.2025,-61.88,-25.55
513,62347,1.9827439999999998,-0.235704,0.6344,32.1825,-48.7025,-16.1
514,62445,1.855376,-0.05587601,0.676612,45.0275,-27.6325,-10.5175
515,62543,1.863916,-0.08369201,0.8769360999999999,73.7625,15.33,1.05
516,62641,2.047648,-0.041236,0.8671761,99.31251,64.5225,4.3225
517,62739,0.157136,-0.049776,-0.306708,105.7525,101.7625,1.8375
518,62838,0.36136399999999996,0.611464,-2.287012,54.075,113.54,-23.4325
519,62936,0.7510321,0.06880801,-1.556964,71.9775,106.5575,-29.9075
520,63034,0.5753520000000001,-0.5785241,-0.45164399999999993,78.7675,99.9775,-33.6175
521,63132,0.617564,-0.514108,-0.528504,34.16,104.51,-50.89
522,63230,0.9652639999999999,-0.49654,-1.267092,7.4025,110.4425,-27.79
523,63328,1.12484,-0.48848800000000003,-1.4783959999999998,2.45,88.46251,22.785
524,63426,0.729072,0.053436000000000004,-0.865468,-12.145,52.395,38.7975
525,63524,0.5121560000000001,0.63562,-0.656116,-26.4075,43.1725,34.4925
526,63622,1.090436,1.254648,-1.121912,-22.4875,51.8875,23.1525
527,63720,0.834968,0.7449321,-0.759328,17.045,34.9125,16.4675
528,63818,0.543876,0.133224,-0.7224841,47.81,13.685,23.0825
529,63916,0.6588,0.14347200000000002,-0.9474520000000001,35.4725,19.915,25.7075
530,64014,0.6019479999999999,0.256688,-0.7978801,37.73,7.3675,24.185
531,64112,0.687592,0.10126,-0.8759601,30.8,8.4875,20.37
532,64211,0.60878,0.15372,-0.862784,25.48,1.54,16.66
533,64309,0.596092,0.187392,-0.828624,16.205,2.1875,11.235
534,64407,0.5797441,0.197152,-0.822768,11.5325,1.4875,5.8625
535,64505,0.568764,0.244488,-0.8081281,7.5425,1.295,2.0825
536,64603,0.561932,0.251564,-0.794708,5.5825,1.575,-0.1925
537,64701,0.5614439999999999,0.26718000000000003,-0.787388,5.5125,0.2275,-0.665
538,64799,0.554856,0.258396,-0.785924,5.915,-0.77,-0.105
539,64897,0.553636,0.25522399999999995,-0.7890961,6.5625,-1.47,0.595
540,64995,0.5551,0.266936,-0.784704,6.51,-1.645,0.7875
541,65093,0.553148,0.258396,-0.787876,7.035,-2.135,1.3125
542,65191,0.55388,0.24936799999999998,-0.7903161,7.035,-2.6775,1.6625
543,65289,0.55632,0.246928,-0.7890961,6.7025,-2.6425,1.61
544,65387,0.555588,0.230336,-0.8020281,6.2125,-2.905,1.0675
545,65485,0.559004,0.2318,-0.79422,6.09,-3.2725,0.6125
546,65584,0.5692520000000001,0.236436,-0.7951961,6.09,-3.9025,-0.105
547,65682,0.563884,0.23424,-0.802272,5.9325,-4.48,0.455
548,65780,0.567056,0.233752,-0.7944641,5.46,-5.04,0.42
549,65878,0.5694961,0.24082800000000001,-0.793244,4.9175,-5.8625,-0.385
550,65976,0.5636399999999999,0.234972,-0.79422,4.13,-6.09,-0.07
551,66074,0.5665680000000001,0.229604,-0.792024,3.5175,-6.265,-0.3675
552,66172,0.564616,0.23082399999999997,-0.791048,2.6075,-6.0025,-0.4025
553,66270,0.560956,0.23228800000000002,-0.790804,2.0125,-6.125,-1.0325
554,66368,0.562176,0.23838800000000002,-0.7893399999999999,1.47,-6.4225,-1.47
555,66466,0.566812,0.233752,-0.788608,0.875,-6.0725,-1.3475
556,66564,0.5594920999999999,0.2318,-0.79178,0.175,-5.915,-0.4725
557,66662,0.562908,0.231312,-0.791292,-0.315,-5.4775,-0.7525
558,66760,0.559736,0.23887600000000003,-0.791292,-0.6475,-5.3375,-0.805
559,66858,0.549732,0.23911999999999997,-0.787632,-0.9625,-5.215,-0.8575
560,66957,0.5753520000000001,0.22862800000000003,-0.784216,-1.4,-4.83,-1.085
561,67055,0.5636399999999999,0.229604,-0.7944641,-1.5575,-4.305,-0.4725
562,67153,0.5551,0.22814,-0.788608,-1.9075,-3.5,0.035
563,67251,0.550952,0.236436,-0.791048,-2.1,-2.4675,0.3675
564,67349,0.5587601,0.24522,-0.789828,-1.855,-1.645,0.7
565,67447,0.5602239999999999,0.237168,-0.7854361,-1.855,-0.7175,0.945
566,67545,0.562176,0.242048,-0.786656,-2.24,0.21,1.3475
567,67643,0.5734,0.239852,-0.792756,-3.1325,2.0475,1.8725
568,67741,0.5697399999999999,0.23668000000000003,-0.7983680000000001,-4.8475,4.34,2.6075
569,67839,0.551928,0.23838800000000002,-0.79056,-6.9825,6.93,3.2375
570,67937,0.549244,0.248148,-0.8015399999999999,-10.9025,10.5175,4.0075
571,68035,0.5636399999999999,0.238632,-0.79056,-14.5775,15.2425,4.5325
572,68133,0.555832,0.230336,-0.833016,-16.835,20.825,5.0225
573,68231,0.540216,0.21447600000000003,-0.823744,-14.595,26.8625,5.0925
574,68330,0.574864,0.23521599999999998,-0.800076,-14.8925,31.85,4.13
575,68428,0.556808,0.223504,-0.796904,-15.2425,37.66,3.6575
576,68526,0.5614439999999999,0.232776,-0.7788480999999999,-15.9775,44.765,2.625
577,68624,0.5736441,0.22423600000000002,-0.781044,-16.8875,52.3775,1.4
578,68722,0.577548,0.233264,-0.781532,-17.1325,60.5325,0.175
579,68820,0.572912,0.229848,-0.7754321,-17.605,69.195,-1.155
580,68918,0.589504,0.235704,-0.7705521,-17.815,78.2425,-2.835
581,69016,0.6273241,0.260348,-0.7732359999999999,-17.5525,87.2375,-5.46
582,69114,0.632204,0.24863600000000002,-0.7407841,-16.4675,95.7075,-5.495
583,69212,0.625616,0.25302800000000003,-0.768112,-15.8375,104.405,-4.55
584,69310,0.6441600000000001,0.248392,-0.758352,-12.775,112.7,-5.0225
585,69408,0.663924,0.26913200000000004,-0.746152,-10.675,121.24,-4.9
586,69506,0.68686,0.27205999999999997,-0.720288,-8.7675,130.0425,-1.4875
587,69604,0.7256560000000001,0.276208,-0.711992,-7.5425,138.32,3.2725
588,69703,0.715896,0.268156,-0.708332,-5.145,145.775,9.8875
589,69801,0.682712,0.277916,-0.712724,-2.3975,152.355,11.4975
590,69899,0.7712840999999999,0.27816,-0.665144,2.7825,158.0425,10.395
591,69997,0.805932,0.297192,-0.640744,4.6025,164.4475,12.4075
592,70095,0.8427761,0.325008,-0.6646561,4.935,173.635,22.47
593,70193,0.8723001,0.341356,-0.7315119999999999,-0.3675,184.9225,33.4425
594,70291,0.8818159999999999,0.35087199999999996,-0.7766521,-3.7975,194.88,39.97
595,70389,0.900848,0.359656,-0.7822640000000001,-6.685,204.1375,45.7975
596,70487,0.9189040999999999,0.341844,-0.7732359999999999,-12.4775,213.255,50.7675
597,70585,0.967216,0.35282399999999997,-0.7451760000000001,-20.02,220.99,55.02
598,70683,1.031388,0.366732,-0.753228,-26.9325,229.705,60.1475
599,70781,1.039684,0.357704,-0.767624,-34.335,237.72,66.325
600,70879,1.0760399999999999,0.349164,-0.829356,-45.3075,244.0025,71.2075
601,70977,1.12484,0.355996,-0.8796200000000001,-57.61,247.9575,74.7775
602,71075,1.151924,0.48873199999999994,-1.002108,-70.35,247.275,80.5525
603,71174,1.3583479999999999,0.598532,-1.15778,-73.8675,240.1,88.44501
604,71272,1.534516,0.513864,-1.9285759999999998,-68.425,208.6,100.9225
605,71370,0.369172,-0.23009200000000002,-1.905884,-60.235,128.485,130.025
606,71468,1.8583040000000002,0.6512359999999999,-3.1873720000000003,-116.97,27.895,123.655
607,71566,0.9025559999999999,0.9860040999999999,-2.171112,-98.175,-87.85,121.0825
608,71664,-0.08808401,0.83204,-1.3029600000000001,-53.165,-145.565,135.3625
609,71762,-0.217892,0.8188641,-0.944768,-10.7975,-146.0025,139.09
610,71860,0.09272000000000001,0.987712,-1.029192,13.195,-134.19,117.425
611,71958,0.164944,1.053104,-1.012356,28.14,-136.3775,75.1975
612,72056,0.082472,1.056764,-0.913536,38.045,-146.37,21.3325
613,72154,0.15201199999999998,0.9379360000000001,-0.841556,50.225,-153.7025,-28.7525
614,72252,0.27523200000000003,0.7166279999999999,-0.806908,63.1925,-159.4775,-67.4975
615,72350,0.352092,0.44725200000000004,-0.77836,70.665,-168.035,-92.225
616,72448,0.431392,0.214232,-0.7771399999999999,69.335,-179.1825,-100.975
617,72546,0.529724,0.071004,-0.801296,59.8675,-191.975,-96.28501
618,72645,0.6280560000000001,0.036356,-0.817156,46.48,-207.1825,-82.67
619,72743,0.6917399999999999,0.06490399999999999,-0.79178,34.895,-223.58,-65.8
620,72841,0.729804,0.096868,-0.756644,24.99,-237.51,-51.2575
621,72939,0.71858,0.141764,-0.7134560999999999,13.86,-248.08,-43.19
622,73037,0.7473721,0.172264,-0.6539201,1.2425,-253.365,-41.195
623,73135,0.8720559999999999,0.204716,-0.658068,-11.3925,-252.525,-41.825
624,73233,0.9362280000000001,0.25132,-0.6527,-21.525,-250.4425,-43.3825
625,73331,0.985516,0.312076,-0.646112,-28.035,-246.9075,-45.4475
626,73429,1.0206520000000001,0.395768,-0.6470880999999999,-30.2575,-240.8525,-47.8275
627,73527,1.012356,0.465308,-0.658556,-29.085,-232.89,-52.2375
628,73625,1.086776,0.49117200000000005,-0.733464,-30.9575,-222.67,-62.825
629,73723,1.139724,0.460916,-0.7788480999999999,-39.0075,-215.005,-80.7275
630,73821,1.153144,0.376736,-0.743712,-50.12,-208.7225,-99.05001
631,73919,1.2153639999999999,0.255712,-0.698816,-60.445,-198.7125,-111.23
632,74018,1.275144,0.155672,-0.671732,-69.16,-184.205,-117.6525
633,74116,1.367132,0.09223200000000001,-0.677588,-75.705,-166.6525,-119.42
634,74214,1.512556,0.05636401,-0.721508,-81.095,-149.835,-118.1775
635,74312,1.791204,-0.001464,-0.769088,-85.89,-139.0375,-114.8875
636,74410,2.002752,0.03904,-0.687104,-87.185,-137.2525,-109.4975
637,74508,2.056676,0.06563601,-0.43554,-77.1225,-138.5125,-94.045
638,74606,1.940532,-0.12248800000000001,-0.094916,-58.345,-130.3575,-74.9875
639,74704,1.913448,-0.356484,0.142252,-51.52,-110.9325,-62.1425
640,74802,1.963712,-0.343552,0.2318,-55.4225,-85.505,-53.62
641,74900,2.0813200000000003,-0.20642399999999997,0.251564,-47.7575,-59.7625,-45.4475
642,74998,2.223816,-0.09394001,0.28157600000000005,-22.785,-40.7925,-38.9025
643,75096,2.185508,-0.132248,0.458232,10.22,-31.185,-33.6875
644,75194,2.0154400000000003,-0.26718000000000003,0.6912520000000001,34.335,-21.42,-27.8075
645,75292,1.884168,-0.33623200000000003,0.785924,41.4925,-2.765,-21.385
646,75390,1.7824200000000001,-0.2989,0.72102,37.94,23.0475,-14.6825
647,75489,1.8651360000000001,0.271816,0.48092399999999996,44.0825,54.2325,-5.7575
648,75587,0.57096,-0.151524,-0.25302800000000003,94.01,99.19001,24.7975
649,75685,0.256444,0.568276,-2.090104,60.34,103.0575,27.335
650,75783,0.620004,0.6124400999999999,-1.850008,52.08,92.3825,9.7475
651,75881,0.6993041,-0.23472800000000002,-0.593896,82.425,89.5475,4.5325
652,75979,0.6290319999999999,-0.278648,-0.317932,49.805,89.72251,-27.055
653,76077,0.877668,-0.21838000000000002,-0.930616,16.695,98.5075,-30.345
654,76175,1.198284,-0.4743361,-1.487424,18.9175,88.9175,16.765
655,76273,0.8047121,-0.049776,-0.9916161,4.3575,53.305,29.155
656,76371,0.44505600000000006,0.302316,-0.6290319999999999,-10.22,39.7075,24.395
657,76469,0.8996280999999999,0.812276,-1.0797,-18.8475,50.47,15.9075
658,76567,0.9010921000000001,0.7812880999999999,-0.9150001,0.7525,42.8575,11.025
659,76665,0.579256,0.45115600000000006,-0.611464,26.915,22.89,15.68
660,76763,0.671488,0.213988,-0.906948,32.3225,19.635,20.825
661,76862,0.6273241,0.132248,-0.8244761,34.615,11.9875,22.1025
662,76960,0.718824,0.19959200000000002,-0.879376,30.135,5.285,19.39
663,77058,0.620004,0.182268,-0.8100801,25.13,-2.3275,15.82
664,77156,0.60878,0.165432,-0.819108,17.85,-2.6775,12.4425
665,77254,0.59536,0.19154000000000002,-0.811056,11.795,-2.275,7.7875
666,77352,0.586576,0.219112,-0.797392,7.105,-2.3275,2.9575
667,77450,0.5787680000000001,0.23741199999999998,-0.787388,4.725,-2.0825,0.2975
668,77548,0.568764,0.245952,-0.7854361,3.43,-0.8925,-0.595
669,77646,0.5734,0.25132,-0.7788480999999999,3.885,-1.61,-0.8925
670,77744,0.5665680000000001,0.251076,-0.785924,3.99,-2.31,-0.595
671,77842,0.5743761,0.255956,-0.7808001,4.1125,-2.52,-0.385
672,77940,0.576816,0.251076,-0.7771399999999999,4.1825,-2.8525,-0.175
673,78038,0.578036,0.24351199999999998,-0.7788480999999999,4.1475,-3.185,-0.4025
674,78136,0.571692,0.241804,-0.7890961,3.8325,-3.15,-0.105
675,78235,0.5736441,0.229848,-0.7808001,4.0425,-3.08,-0.2625
676,78333,0.57462,0.239608,-0.786412,4.1475,-2.9225,-0.875
677,78431,0.576328,0.231068,-0.780068,4.34,-2.765,-0.77
678,78529,0.5843801,0.24863600000000002,-0.7832399999999999,4.27,-2.94,-0.9625
679,78627,0.5736441,0.24156,-0.783972,4.5675,-3.675,-0.945
680,78725,0.574864,0.242048,-0.7849480999999999,4.2175,-4.4975,-0.8400001
681,78823,0.570472,0.23887600000000003,-0.7854361,3.85,-5.005,-1.085
682,78921,0.572912,0.238144,-0.781776,3.22,-5.075,-0.9275
683,79019,0.569984,0.235948,-0.786656,2.3975,-5.11,-1.05
684,79117,0.5751081,0.23472800000000002,-0.787388,1.2075,-4.7775,-1.4525
685,79215,0.571692,0.23058,-0.7829961,0.385,-4.5675,-1.155
686,79313,0.574864,0.2379,-0.7832399999999999,-0.4025,-4.7075,-1.4175
687,79411,0.576084,0.236192,-0.778116,-0.665,-4.9175,-1.4525
688,79509,0.577304,0.23058,-0.780068,-0.9975,-5.11,-1.3125
689,79607,0.5753520000000001,0.230336,-0.7732359999999999,-1.5225,-4.83,-1.225
690,79706,0.5726680000000001,0.23448400000000003,-0.780068,-1.925,-4.27,-1.0325
691,79804,0.57584,0.229116,-0.779092,-2.205,-3.745,-1.295
692,79902,0.5702281,0.233752,-0.7832399999999999,-2.7125,-2.9925,-1.4
693,80000,0.564372,0.23692399999999997,-0.780556,-3.255,-1.8025,-1.26
694,80098,0.57462,0.233752,-0.782508,-3.8675,-0.77,-1.3475
695,80196,0.57096,0.23546,-0.7832399999999999,-4.7425,0.9975,-1.2075
696,80294,0.576084,0.229116,-0.778604,-5.46,2.7475,-1.2425
697,80392,0.575596,0.22789600000000002,-0.7747001,-6.1425,4.48,-1.6275
698,80490,0.577548,0.241804,-0.7771399999999999,-7.0875,6.5275,-2.2575
699,80588,0.574864,0.238144,-0.7625,-8.47,8.5575,-2.275
700,80686,0.5663239999999999,0.24034,-0.7861680999999999,-11.76,11.165,-1.4525
701,80784,0.578036,0.25058800000000003,-0.791048,-15.3475,15.015,-0.2975
702,80882,0.550952,0.23692399999999997,-0.80276,-17.15,19.5125,0.8925
703,80980,0.5499761,0.206668,-0.787632,-16.1525,26.1275,0.2275
704,81078,0.589504,0.24863600000000002,-0.793244,-17.6925,34.4225,-0.595
705,81177,0.57584,0.23301999999999998,-0.7761640999999999,-18.2175,41.265,-0.35
706,81275,0.592432,0.24278000000000002,-0.791536,-19.8975,48.72,-1.085
707,81373,0.5987760999999999,0.257664,-0.759084,-19.705,53.4275,-1.6275
708,81471,0.599996,0.26596,-0.763232,-19.5825,58.765,-1.855
709,81569,0.612196,0.26718000000000003,-0.748836,-19.39,65.36251,-2.905
710,81667,0.6178081,0.268888,-0.741028,-20.1425,72.8,-2.695
711,81765,0.62708,0.27084,-0.7422481,-20.51,81.2875,-2.6425
712,81863,0.6263479999999999,0.26596,-0.743468,-20.0025,89.915,-2.2575
713,81961,0.61366,0.255956,-0.74054,-18.9875,98.665,-1.8375
714,82059,0.6378159999999999,0.261324,-0.7442,-18.0075,108.08,-2.7125
715,82157,0.670512,0.261812,-0.732244,-15.82,118.9125,-2.03
716,82255,0.681248,0.288652,-0.738588,-13.6675,130.2,0.8575
717,82353,0.721508,0.288164,-0.7088201,-11.445,140.07,5.46
718,82451,0.726876,0.28377199999999997,-0.708088,-10.7275,149.765,10.605
719,82549,0.7190681,0.287188,-0.679296,-6.9825,158.13,12.95
720,82647,0.740052,0.2867,-0.676612,-4.4625,166.635,13.8775
721,82746,0.752984,0.292556,-0.676612,-2.52,174.51,16.555
722,82844,0.885964,0.309148,-0.6182960999999999,-1.3825,183.0325,18.9875
723,82942,0.8422879999999999,0.331108,-0.6919841,-3.535,193.6025,27.755
724,83040,0.8908440999999999,0.36648800000000004,-0.767868,-7.175,203.385,35.0175
725,83138,0.9128040000000001,0.382348,-0.7883640000000001,-11.34,213.465,43.1025
726,83236,0.9581881,0.407236,-0.7856801,-14.0525,220.43,48.86
727,83334,1.004304,0.410408,-0.761524,-19.4425,228.2525,55.4925
728,83432,1.053592,0.42578,-0.75274,-26.145,237.16,62.86
729,83530,1.078236,0.396744,-0.772748,-33.285,245.07,71.3825
730,83628,1.1004399999999999,0.373808,-0.8081281,-44.3625,250.985,77.9625
731,83726,1.046516,0.406504,-0.8425321,-57.0675,255.045,82.565
732,83824,1.188524,0.627812,-1.037,-70.6125,257.4775,87.08
733,83922,1.312476,0.610488,-1.130696,-69.615,252.56,97.965
734,84020,1.130452,0.5777920999999999,-1.581852,-62.51,221.515,110.8275
735,84118,0.8605879999999999,0.044407999999999996,-2.284816,-80.92,141.54,117.46
736,84216,1.884168,1.205848,-3.206648,-119.28,31.7625,91.35
737,84315,0.7881199999999999,1.239276,-2.1886799999999997,-59.255,-87.64,86.13501
738,84413,-0.185196,0.7622561,-1.298568,7.105,-131.5825,103.2325
739,84511,-0.156892,0.5948720000000001,-1.061644,45.0625,-129.675,109.0775
740,84609,0.18251199999999998,0.613416,-1.113372,49.7875,-124.3725,93.9225
741,84707,0.173728,0.720288,-1.098976,37.2225,-137.375,61.6175
742,84805,0.160552,0.843508,-1.055056,28.1225,-156.905,24.9025
743,84903,0.244,0.820084,-0.978684,37.1175,-173.88,-4.13
744,85001,0.325252,0.6539201,-0.889624,54.3725,-189.0175,-25.445
745,85099,0.340624,0.435784,-0.792024,63.8925,-204.0325,-41.755
746,85197,0.381372,0.263276,-0.748104,59.6225,-217.455,-52.0975
747,85295,0.45457200000000003,0.184952,-0.751276,46.235,-229.39,-55.125
748,85393,0.584136,0.16835999999999998,-0.797392,31.4475,-240.87,-51.6075
749,85491,0.682956,0.189832,-0.802272,18.3925,-254.59,-45.64
750,85589,0.707112,0.202764,-0.75884,7.735,-268.5725,-40.32
751,85688,0.7093081,0.21057199999999998,-0.7137001000000001,-1.6975,-278.005,-37.8175
752,85786,0.765428,0.188612,-0.681492,-13.335,-280.0875,-38.99
753,85884,0.927932,0.24497600000000003,-0.71614,-26.5125,-276.675,-42.1575
754,85982,1.045052,0.363316,-0.752984,-35.5425,-272.8775,-46.865
755,86080,1.077992,0.461892,-0.7600600000000001,-35.07,-268.5025,-55.125
756,86178,1.08336,0.5072760000000001,-0.749324,-30.6075,-260.96,-66.64
757,86276,1.074332,0.512888,-0.758596,-28.0175,-250.985,-80.3775
758,86374,1.083604,0.454084,-0.780068,-28.6475,-238.49,-98.0875
759,86472,1.217804,0.381128,-0.913536,-37.3625,-224.9625,-114.24
760,86570,1.353712,0.290116,-0.995764,-51.4325,-217.245,-127.19
761,86668,1.3412680000000001,0.156892,-0.8559521000000001,-63.56,-213.5525,-134.2775
762,86766,1.285148,0.02928,-0.653188,-71.68,-202.265,-131.3375
763,86864,1.536956,-0.08637601,-0.61,-78.365,-179.8475,-122.2725
764,86963,1.7697319999999999,-0.068076,-0.6170760000000001,-84.7,-154.49,-111.895
765,87061,2.214544,0.00244,-0.776408,-93.7825,-135.8525,-100.45
766,87159,2.45464,0.157136,-0.6883239999999999,-96.0925,-138.845,-92.76751
767,87257,2.292868,-0.034404000000000004,-0.22204000000000002,-75.075,-147.2275,-79.6425
768,87355,1.998604,-0.521184,0.23301999999999998,-48.09,-131.7925,-57.155
769,87453,2.1069400000000003,-0.42212,0.30548800000000004,-49.245,-102.025,-42.5075
770,87551,2.2069799999999997,-0.1342,0.25302800000000003,-43.3475,-74.025,-35.595
771,87649,2.2906720000000003,0.0,0.298656,-15.6975,-56.5775,-35.9625
772,87747,2.176724,-0.139324,0.55632,21.7525,-46.445,-35.2975
773,87845,2.016172,-0.35014,0.8105680000000001,44.205,-32.62,-28.875
774,87943,1.9110080000000003,-0.39113200000000004,0.8486319999999999,41.4925,-9.59,-20.16
775,88041,1.8234119999999998,-0.288408,0.702964,30.31,17.9375,-13.5625
776,88139,2.025688,0.12444000000000001,0.6182960999999999,40.5125,49.0875,-5.005
777,88238,0.366244,-0.42212,0.023912,88.9175,95.655,26.565
778,88336,0.47043199999999996,0.369904,-2.151836,52.185,104.965,32.9875
779,88434,0.5655920999999999,0.539972,-1.7753439999999998,41.7725,97.6675,17.5525
780,88532,0.5648601,-0.23301999999999998,-0.565836,64.365,99.785,16.6775
781,88630,0.46238,-0.35697199999999996,-0.205692,30.975,104.1075,-13.23
782,88728,0.814472,-0.24522,-0.9296399999999999,-7.9625,116.935,-18.8475
783,88826,1.203164,-0.07344400000000001,-1.529148,-9.485,110.285,13.9125
784,88924,0.8615640999999999,0.19959200000000002,-0.9472079999999999,-8.3825,78.505,31.395
785,89022,0.5665680000000001,0.571448,-0.619028,-14.5425,63.1225,25.7425
786,89120,0.6749041,0.7315119999999999,-0.863028,-13.2125,68.845,17.4475
787,89218,1.148752,0.6897880999999999,-1.180472,3.1675,67.3575,12.845
788,89316,1.033828,0.42187600000000003,-0.9296399999999999,32.7425,44.205,22.5925
789,89414,0.596092,0.202764,-0.69052,48.055,16.8,29.47
790,89512,0.712724,0.107116,-0.968192,41.2825,16.03,29.015
791,89611,0.7017439999999999,0.11541199999999999,-0.8508280999999999,40.6875,3.4825,27.265
792,89709,0.653188,0.145912,-0.8210601000000001,27.335,-0.7175,22.645
793,89807,0.6009720000000001,0.15738,-0.889136,19.1275,-2.8175,15.8025
794,89905,0.6029241,0.203984,-0.8164239999999999,11.7775,-2.135,7.5775
795,90003,0.594384,0.217892,-0.797148,5.8625,0.14,1.33
796,90101,0.587796,0.257176,-0.7861680999999999,3.0625,1.0325,-2.1175
797,90199,0.5814520000000001,0.26352,-0.7788480999999999,2.59,-0.105,-3.36
798,90297,0.584868,0.26718000000000003,-0.777628,1.96,0.315,-3.29
799,90395,0.583648,0.265716,-0.778604,2.765,-0.42,-2.59
800,90493,0.575596,0.24790399999999999,-0.769576,2.87,-1.2425,-1.6975
801,90591,0.560956,0.249612,-0.776408,3.255,-1.6975,-0.5775
802,90689,0.568276,0.24058400000000002,-0.769332,3.64,-1.8725,-0.245
803,90787,0.5665680000000001,0.24131599999999997,-0.773968,4.3225,-2.275,0.0875
804,90885,0.563884,0.23668000000000003,-0.776896,5.11,-2.6075,0.805
805,90984,0.5753520000000001,0.23546,-0.783728,5.6525,-2.94,0.6475
806,91082,0.571936,0.233996,-0.7771399999999999,6.4225,-3.3425,0.6125
807,91180,0.581696,0.228384,-0.7759199999999999,6.5975,-3.4825,1.1725
808,91278,0.5736441,0.223016,-0.784704,6.3525,-3.4475,1.5925
809,91376,0.58194,0.231312,-0.7822640000000001,6.2125,-4.025,0.7875
810,91474,0.5724239999999999,0.231312,-0.784704,5.6175,-4.1825,1.295
811,91572,0.576816,0.23448400000000003,-0.783972,5.215,-4.83,0.315
812,91670,0.573156,0.23155599999999998,-0.7829961,4.725,-5.5475,-0.105
813,91768,0.559248,0.22862800000000003,-0.784216,4.2175,-5.95,-0.0525
814,91866,0.5736441,0.23253200000000002,-0.787144,3.5,-6.2825,-0.7
815,91964,0.571204,0.2318,-0.785192,2.415,-5.6875,-0.175
816,92062,0.5795,0.236192,-0.7849480999999999,1.5925,-5.4075,-0.3675
817,92160,0.5814520000000001,0.234972,-0.7766521,0.875,-5.215,-0.91
818,92258,0.57462,0.22716399999999998,-0.7861680999999999,-0.21,-4.6725,-0.3325
819,92356,0.592432,0.229604,-0.778604,-1.015,-4.7775,-0.945
820,92455,0.57828,0.242048,-0.777628,-1.33,-4.8475,-0.56
821,92553,0.576572,0.238632,-0.7788480999999999,-1.8375,-4.48,0.4025
822,92651,0.565836,0.23424,-0.785192,-2.6075,-3.395,1.0675
823,92749,0.577304,0.2318,-0.782508,-3.0625,-2.1175,1.2425
824,92847,0.5753520000000001,0.227408,-0.778116,-3.955,-0.4025,1.6275
825,92945,0.58682,0.227408,-0.772504,-5.075,1.3475,1.8375
826,93043,0.589016,0.23082399999999997,-0.7686,-5.8275,2.765,1.575
827,93141,0.589992,0.239608,-0.770308,-7.035,4.7775,1.8375
828,93239,0.571204,0.24644000000000002,-0.755912,-8.47,6.6675,2.2225
829,93337,0.5702281,0.23424,-0.79666,-13.4225,9.66,3.92
830,93435,0.5795,0.24058400000000002,-0.787632,-16.6775,13.0025,4.935
831,93533,0.5404601,0.243024,-0.8405800999999999,-18.795,18.97,5.285
832,93631,0.557296,0.225456,-0.776408,-15.3825,26.495,5.6
833,93730,0.589016,0.23228800000000002,-0.8052,-18.7075,35.5775,5.53
834,93828,0.5673,0.225944,-0.793244,-18.935,43.05,6.09
835,93926,0.58194,0.2318,-0.790804,-20.93,52.15,5.25
836,94024,0.589992,0.238632,-0.80886,-21.2625,60.1475,4.55
837,94122,0.584136,0.230336,-0.7812880999999999,-19.7575,67.41001,3.8325
838,94220,0.604388,0.238144,-0.760304,-20.965,78.12,2.73
839,94318,0.616588,0.22716399999999998,-0.7510321,-22.015,88.9175,1.1375
840,94416,0.61366,0.24522,-0.764208,-22.68,100.3975,0.4025
841,94514,0.640256,0.23911999999999997,-0.7500560000000001,-20.4575,111.7025,0.0
842,94612,0.6351319999999999,0.25986,-0.763232,-17.0275,123.3225,0.035
843,94710,0.6661201,0.257176,-0.758352,-12.9675,136.045,0.8925
844,94808,0.6917399999999999,0.277428,-0.7232161,-8.75,148.9775,3.9725
845,94906,0.711016,0.28304,-0.7200439999999999,-6.8425,160.2475,9.8175
846,95005,0.75884,0.29158,-0.705404,-3.9725,170.8175,16.345
847,95103,0.721264,0.2928,-0.696132,-0.6475,180.81,23.555
848,95201,0.803492,0.2928,-0.643428,2.835,189.805,24.29
849,95299,0.814472,0.29792399999999997,-0.639524,3.955,199.9025,28.2275
850,95397,0.8625401,0.32086,-0.7476161,2.1175,209.0375,32.76
851,95495,0.968924,0.40211199999999997,-0.833992,-2.87,219.38,41.1775
852,95593,0.9242720999999999,0.382592,-0.8422879999999999,-8.5575,230.37,54.11
853,95691,1.003328,0.391864,-0.8361879999999999,-13.93,237.5625,61.565
854,95789,1.053592,0.425292,-0.821792,-21.91,245.3675,70.28
855,95887,1.111176,0.410408,-0.805688,-28.6475,251.965,79.0825
856,95985,1.092876,0.33061999999999997,-0.8481440999999998,-38.43,257.7925,88.725
857,96083,1.098244,0.47994799999999993,-0.936716,-51.5375,261.7125,93.625
858,96182,1.208288,0.6082920999999999,-1.09556,-61.355,258.72,99.785
859,96280,1.106296,0.6588,-1.139968,-57.9075,253.12,113.61
860,96378,1.208288,0.7278521,-1.628212,-52.955,232.4175,127.4
861,96476,0.38552,0.089792,-2.3480119999999998,-65.50251,163.73,132.93
862,96574,1.8107240000000002,1.042612,-3.2452,-116.2,52.255,98.735
863,96672,0.894748,1.362496,-2.356552,-80.675,-71.7675,73.78
864,96770,-0.102724,0.97234,-1.42374,-17.115,-132.055,85.085
865,96868,-0.26961999999999997,0.768844,-1.017968,30.415,-138.845,93.8175
866,96966,0.117852,0.7324881,-1.073112,49.2275,-129.4475,83.86001
867,97064,0.209352,0.788608,-1.065304,45.115,-137.8475,54.495
868,97162,0.16128399999999998,0.9154880999999999,-1.011624,36.3825,-155.89,14.175
869,97260,0.25254,0.9201241,-0.9557479999999999,43.6975,-171.1675,-20.8425
870,97358,0.34038,0.748836,-0.8823040000000001,63.6475,-184.4325,-45.4125
871,97457,0.39284,0.48068,-0.7978801,78.41751,-198.0825,-62.265
872,97555,0.432612,0.241804,-0.742492,77.2275,-211.19,-72.17
873,97653,0.5260640000000001,0.14469200000000002,-0.754448,61.5475,-223.125,-74.62
874,97751,0.61854,0.157136,-0.778116,43.645,-235.6025,-70.0525
875,97849,0.69418,0.19154000000000002,-0.767868,31.29,-248.22,-62.475
876,97947,0.746152,0.20105599999999998,-0.734196,22.7325,-258.9825,-56.3675
877,98045,0.79056,0.198372,-0.7095520000000001,13.02,-266.42,-54.25
878,98143,0.8400921,0.21667199999999998,-0.6695361,1.015,-269.64,-55.615
879,98241,0.964532,0.274012,-0.676124,-9.7475,-267.4,-57.68
880,98339,1.063596,0.36722,-0.6980841,-15.4525,-262.5175,-59.85
881,98437,1.08702,0.440176,-0.692228,-13.7025,-256.725,-64.26
882,98535,1.089216,0.456768,-0.671976,-9.9575,-248.465,-72.9225
883,98633,1.067988,0.4331,-0.65514,-10.5875,-237.9475,-82.8275
884,98731,1.1529,0.40748,-0.743468,-19.04,-225.1375,-93.835
885,98830,1.2902719999999999,0.359168,-0.858392,-33.9675,-214.935,-106.89
886,98928,1.35054,0.255956,-0.8388721,-49.455,-211.33,-116.4625
887,99026,1.34566,0.10052799999999999,-0.7068681,-61.425,-206.2025,-117.3025
888,99124,1.365424,-0.0183,-0.577304,-70.84000999999999,-192.43,-110.705
889,99222,1.485228,-0.07881200000000001,-0.538752,-78.27750999999999,-169.96,-99.4875
890,99320,1.542324,-0.015616,-0.512888,-81.83001,-146.545,-85.76751
891,99418,1.8880720000000002,-0.05172801,-0.5131319999999999,-77.47251,-127.7675,-68.3025
892,99516,2.3067759999999997,-0.042456,-0.5926760999999999,-77.7525,-115.815,-53.9525
893,99614,2.486116,-0.005368,-0.49141599999999996,-87.4475,-120.715,-49.6475
894,99712,2.125728,-0.183488,-0.047580000000000004,-89.145,-131.775,-53.1475
895,99810,1.878068,-0.45115600000000006,0.26913200000000004,-80.7275,-118.685,-55.755
896,99908,2.013,-0.33184,0.237656,-65.6425,-85.19,-53.8475
897,100006,2.157448,-0.111996,0.231312,-32.06,-56.805,-48.5975
898,100104,2.1291439999999997,-0.052948,0.41284799999999994,12.845,-40.075,-46.165
899,100203,2.002752,-0.17641199999999999,0.6231760999999999,48.0025,-24.85,-45.15
900,100301,1.886852,-0.305244,0.704916,57.0325,-4.515,-47.8625
901,100399,1.7563119999999999,-0.338672,0.668072,48.475,18.4625,-52.29
902,100497,1.950292,-0.195444,0.795928,54.18,51.24,-46.13
903,100595,1.106784,-0.477264,0.305732,78.785,99.54,-21.455
904,100693,0.6034121,-0.158356,-1.530124,64.8375,113.8375,-1.9425
905,100791,0.39113200000000004,0.196176,-2.076684,38.185,103.11,-1.8725
906,100889,0.6466,-0.306952,-1.182424,46.1825,97.825,15.295
907,100987,0.48214399999999996,-0.545096,-0.27279200000000003,29.96,93.275,4.7075
908,101085,0.708088,-0.165432,-0.7483479999999999,-17.9025,101.5525,-8.61
909,101183,1.170712,0.05172801,-1.3773799999999998,-22.1725,100.6425,25.445
910,101281,0.9618481,0.5511961,-0.989908,-20.965,71.575,36.7325
911,101379,0.541924,0.728096,-0.5463161,-14.5425,55.44,25.9175
912,101477,1.170468,0.9703879999999999,-1.1892559999999999,-3.6575,63.175,16.415
913,101576,1.0826280000000001,0.485804,-0.9994241,29.1725,45.7275,18.795
914,101674,0.5441199999999999,0.149572,-0.6851520999999999,50.715,16.1,28.5775
915,101772,0.726876,0.16689600000000002,-0.9598959999999999,40.775,16.9925,28.42
916,101870,0.6824680000000001,0.09223200000000001,-0.8300879999999999,41.3175,3.5875,25.5325
917,101968,0.6785640000000001,0.098332,-0.8432639999999999,28.665,0.0875,20.3525
918,102066,0.6141479999999999,0.193492,-0.8552200000000001,19.5475,-5.3025,15.7675
919,102164,0.595116,0.16592,-0.81374,13.125,-3.745,9.1875
920,102262,0.589016,0.21032800000000001,-0.813008,7.2625,-1.7325,3.4125
921,102360,0.5787680000000001,0.233996,-0.792512,4.0075,-0.4725,-0.77
922,102458,0.571448,0.24278000000000002,-0.783972,2.5025,-0.8575,-2.7825
923,102556,0.5702281,0.255712,-0.793488,1.8725,-1.5225,-3.1675
924,102654,0.5736441,0.270352,-0.797392,1.575,-1.2775,-2.66
925,102752,0.5724239999999999,0.25498000000000004,-0.7861680999999999,1.5225,-1.2075,-2.345
926,102851,0.566812,0.25376,-0.761524,1.925,-2.065,-1.9425
927,102949,0.5653481,0.245464,-0.7712840999999999,1.8725,-2.5375,-2.03
928,103047,0.5612,0.24131599999999997,-0.779824,2.5025,-2.4325,-1.785
929,103145,0.561932,0.245464,-0.781532,2.2225,-2.345,-1.925
930,103243,0.553636,0.23155599999999998,-0.7788480999999999,2.1875,-1.9425,-1.6975
931,103341,0.55266,0.239364,-0.781776,1.89,-1.575,-1.8025
932,103439,0.5673,0.268156,-0.787632,2.1,-1.12,-1.575
933,103537,0.564372,0.22935999999999998,-0.7673800000000001,2.2575,-0.6475,-1.155
934,103635,0.568032,0.24717199999999998,-0.7754321,2.6075,-0.3675,0.0
935,103733,0.568764,0.249856,-0.782752,3.71,-0.175,0.5075
936,103831,0.5738880000000001,0.239852,-0.780068,4.585,-0.5075,1.295
937,103929,0.569984,0.249612,-0.7829961,4.375,-1.0325,1.33
938,104027,0.5697399999999999,0.23546,-0.7793359999999999,4.445,-1.855,0.5425
939,104126,0.5653481,0.238144,-0.790072,3.85,-2.1175,1.085
940,104224,0.5797441,0.24644000000000002,-0.779824,3.605,-2.7475,0.385
941,104322,0.5753520000000001,0.240096,-0.779824,3.5525,-3.395,0.4375
942,104420,0.57828,0.242536,-0.786412,3.4475,-4.2175,0.9975
943,104518,0.582184,0.24644000000000002,-0.774456,3.2375,-5.3375,1.1375
944,104616,0.5702281,0.23911999999999997,-0.7812880999999999,2.695,-5.7925,1.68
945,104714,0.5697399999999999,0.244,-0.7829961,2.4325,-6.615,1.1725
946,104812,0.57828,0.23472800000000002,-0.787632,1.4,-6.6675,0.8575
947,104910,0.56242,0.245464,-0.782752,0.07,-6.23,1.89
948,105008,0.57706,0.23448400000000003,-0.7795801,-0.98,-5.7225,1.575
949,105106,0.5799880000000001,0.242048,-0.779092,-1.645,-4.3225,1.7675
950,105204,0.568276,0.223992,-0.779092,-2.52,-3.1325,2.1875
951,105303,0.585112,0.23472800000000002,-0.776408,-3.395,-1.8725,1.89
952,105401,0.5787680000000001,0.23253200000000002,-0.773968,-4.445,-0.385,1.5925
953,105499,0.589504,0.23424,-0.7747001,-5.775,1.4,1.33
954,105597,0.580476,0.24326799999999998,-0.778116,-6.6675,3.255,1.61
955,105695,0.5612,0.26766799999999996,-0.7747001,-9.2925,6.055,2.59
956,105793,0.56242,0.238144,-0.7732359999999999,-13.37,9.8525,4.235
957,105891,0.5797441,0.23741199999999998,-0.8054439999999999,-17.29,13.72,5.4775
958,105989,0.568032,0.247416,-0.8176439999999999,-20.51,19.915,6.4575
959,106087,0.540948,0.195932,-0.792512,-18.76,27.2475,6.9125
960,106185,0.60024,0.239364,-0.8076399999999999,-20.51,36.155,5.985
961,106283,0.5594920999999999,0.211304,-0.787632,-21.4375,43.7675,5.2675
962,106381,0.5885281,0.242536,-0.801784,-22.6975,51.555,3.36
963,106480,0.590724,0.24131599999999997,-0.78446,-21.84,58.1,2.17
964,106578,0.58682,0.259128,-0.77836,-23.1875,67.3925,0.945
965,106676,0.6039,0.249856,-0.7522521,-24.22,76.7725,0.245
966,106774,0.621224,0.261812,-0.762744,-26.53,87.115,-0.3325
967,106872,0.614636,0.254736,-0.7476161,-26.53,97.16001,-0.2275
968,106970,0.620736,0.25058800000000003,-0.757376,-25.4275,107.7475,-0.28
969,107068,0.640744,0.2684,-0.7361481,-23.2225,119.56,0.35
970,107166,0.677344,0.26303200000000004,-0.7427361,-21.1225,132.125,1.1375
971,107264,0.670512,0.26474000000000003,-0.73688,-17.7625,144.7075,6.475
972,107362,0.711504,0.262056,-0.7439560000000001,-14.7,156.52,11.6375
973,107460,0.75762,0.305732,-0.74298,-10.8675,166.915,15.855
974,107558,0.7661600000000001,0.291092,-0.7044279999999999,-5.4075,177.4325,21.2975
975,107656,0.7551800000000001,0.303292,-0.699548,-3.85,187.985,26.705
976,107754,0.834968,0.35477600000000004,-0.725168,-2.03,197.505,29.2425
977,107853,0.8525360000000001,0.360388,-0.7856801,-1.26,206.6575,34.58
978,107951,0.935008,0.38064000000000003,-0.823744,-5.11,212.8875,40.4075
979,108049,0.9720960999999999,0.36356,-0.744688,-9.2925,218.225,48.16
980,108147,0.9496479999999999,0.334768,-0.7315119999999999,-15.3825,224.07,56.5425
981,108245,0.9862479999999999,0.335988,-0.7107720000000001,-22.19,229.425,60.4975
982,108343,1.003084,0.304512,-0.712724,-27.8775,236.215,63.6125
983,108441,1.030412,0.29646,-0.712236,-33.32,244.7725,67.9
984,108539,1.075308,0.420412,-0.815448,-42.7,253.2425,74.13
985,108637,1.1102,0.517524,-0.921344,-48.2825,255.0625,82.425
986,108735,1.180228,0.610244,-1.0584719999999999,-48.1775,255.1325,93.08249
987,108833,1.381772,0.587064,-1.327116,-41.4575,240.415,103.1975
988,108931,0.42700000000000005,0.118584,-2.096448,-63.665,177.975,109.27
989,109029,1.890268,0.533628,-3.048292,-116.1125,70.91001,93.9575
990,109127,1.340292,1.173152,-2.700348,-96.39,-46.6375,88.6725
991,109226,0.198128,0.9952761,-1.7441119999999999,-39.5675,-128.1175,105.4375
992,109324,-0.264496,0.702476,-1.135576,18.2175,-149.38,122.115
993,109422,0.05856,0.705892,-1.118252,42.6125,-143.115,117.285
994,109520,0.193004,0.783728,-1.081164,42.2275,-146.6325,91.245
995,109618,0.131272,0.9154880999999999,-1.00406,33.7225,-161.0875,50.855
996,109716,0.163968,0.9635560999999999,-0.921344,35.875,-172.34,9.7825
997,109814,0.252052,0.83814,-0.8569280999999999,49.0875,-180.005,-24.15
998,109912,0.31598000000000004,0.606584,-0.7895840999999999,60.095,-188.7725,-51.1875
999,110010,0.36234,0.364292,-0.7327321,59.43,-199.0625,-70.175
1000,110108,0.46116,0.211548,-0.752496,47.0225,-208.8975,-79.065
1001,110206,0.5846241,0.160552,-0.791536,31.7275,-219.7825,-77.3325
1002,110304,0.673196,0.160308,-0.7998321,20.685,-232.61,-68.145
1003,110402,0.727364,0.15201199999999998,-0.768844,14.07,-245.1925,-57.715
1004,110501,0.7332201,0.144204,-0.72102,7.315,-254.4325,-49.63
1005,110599,0.7256560000000001,0.128344,-0.638548,-3.0275,-257.6175,-46.095
1006,110697,0.8662001,0.173484,-0.678076,-15.75,-253.8375,-44.555
1007,110795,1.006256,0.273036,-0.7105279999999999,-25.095,-249.725,-45.36
1008,110893,1.02968,0.3599,-0.7007680000000001,-26.67,-246.33,-49.7175
1009,110991,1.03334,0.401136,-0.6763680000000001,-22.575,-239.1725,-55.4225
1010,111089,1.037488,0.4026,-0.687592,-19.46,-228.8825,-60.9175
1011,111187,1.1453360000000001,0.393328,-0.807884,-24.0275,-218.05,-69.615
1012,111285,1.2282959999999998,0.34892,-0.8808401,-35.7,-212.73,-82.635
1013,111383,1.235372,0.272548,-0.830576,-48.7725,-212.0825,-93.1175
1014,111481,1.257088,0.16714,-0.7078439999999999,-59.9375,-207.5675,-96.18
1015,111579,1.379332,0.07076001,-0.6539201,-72.6775,-196.07,-96.88
1016,111677,1.538908,0.033428,-0.623908,-87.8325,-182.1925,-99.7325
1017,111776,1.6735959999999999,0.00976,-0.595116,-96.35501,-167.755,-102.025
1018,111874,1.8239,-0.036844,-0.534116,-93.31,-153.1075,-96.1275
1019,111972,1.9544400000000002,-0.11028800000000001,-0.400648,-83.94751,-139.4925,-81.27
1020,112070,1.9827439999999998,-0.30182800000000004,-0.14762,-77.49,-126.525,-65.4675
1021,112168,1.9827439999999998,-0.558272,0.052948,-81.11251,-108.92,-52.57
1022,112266,2.170136,-0.50508,0.064172,-91.1575,-88.725,-41.755
1023,112364,2.257244,-0.278404,0.027083999999999997,-88.6725,-71.5575,-31.5175
1024,112462,2.3058,-0.124928,0.09125599999999999,-61.11,-61.565,-23.7825
1025,112560,2.182092,-0.143228,0.351116,-18.4975,-58.3275,-19.775
1026,112658,1.979084,-0.24888000000000002,0.648552,17.7275,-48.405,-15.8725
1027,112756,1.8180439999999998,-0.297192,0.779824,32.7075,-26.5125,-14.5075
1028,112854,1.717516,-0.26303200000000004,0.759084,32.095,2.3975,-20.0725
1029,112952,2.045696,0.105896,0.853756,44.3975,42.0,-21.035
1030,113051,0.566812,-0.41016400000000003,0.119072,79.8875,97.02,2.765
1031,113149,0.653676,0.23668000000000003,-1.950048,50.2075,110.285,12.1275
1032,113247,0.752008,0.505324,-1.9476080000000002,35.4025,103.0225,2.5725
1033,113345,0.7551800000000001,-0.304268,-0.8945040000000001,61.565,91.42,15.8025
1034,113443,0.49312399999999995,-0.302316,-0.178608,38.5875,83.3875,-6.1425
1035,113541,0.8888921000000001,-0.124928,-0.8874280999999999,3.465,97.545,-6.5275
1036,113639,1.218536,0.09150001,-1.437892,6.0025,86.975,27.58
1037,113737,0.712236,0.37112399999999995,-0.8579041,4.795,53.6025,28.56
1038,113835,0.456524,0.49434399999999995,-0.593896,3.9375,47.6175,18.725
1039,113933,0.743224,0.6634359999999999,-0.9620920000000001,0.5425,59.115,6.51
1040,114031,0.956968,0.42456000000000005,-1.032852,17.1325,53.515,10.535
1041,114129,0.754448,0.39161999999999997,-0.777628,36.645,30.4675,23.065
1042,114227,0.66368,0.22326,-0.8113001,42.14,19.285,25.7775
1043,114326,0.692716,0.030744,-0.898408,40.9325,14.105,24.465
1044,114424,0.67832,0.138104,-0.8439959999999999,33.7225,3.465,20.1775
1045,114522,0.6290319999999999,0.14152,-0.8188641,23.415,-2.38,15.1375
1046,114620,0.606584,0.142984,-0.835456,16.135,-3.5,10.815
1047,114718,0.5887720000000001,0.203984,-0.8095920999999999,8.7325,-2.24,5.5475
1048,114816,0.58316,0.233752,-0.792756,4.34,-0.315,0.8925
1049,114914,0.580232,0.2623,-0.7822640000000001,2.0825,1.3125,-1.9425
1050,115012,0.581208,0.279136,-0.7754321,1.995,1.225,-2.3275
1051,115110,0.5736441,0.270352,-0.778604,2.73,-0.0525,-1.3475
1052,115208,0.5751081,0.275476,-0.78446,3.185,-0.4025,-0.2975
1053,115306,0.5734,0.256444,-0.774944,3.4125,-0.63,0.1925
1054,115404,0.576328,0.24668400000000001,-0.777872,3.815,-1.715,0.665
1055,115503,0.5751081,0.24790399999999999,-0.777628,3.7975,-2.52,0.49
1056,115601,0.57218,0.246196,-0.7766521,3.99,-3.045,0.385
1057,115699,0.5736441,0.232776,-0.776896,3.9725,-3.255,0.4025
1058,115797,0.5655920999999999,0.243024,-0.7832399999999999,3.9725,-3.29,0.6125
1059,115895,0.574132,0.24082800000000001,-0.780556,4.165,-3.6225,-0.525
1060,115993,0.570716,0.23838800000000002,-0.783972,4.1825,-3.6575,-0.3675
1061,116091,0.576328,0.23228800000000002,-0.783728,3.85,-4.06,-0.5425
1062,116189,0.571204,0.24107199999999998,-0.782508,3.5875,-4.27,-0.4025
1063,116287,0.574132,0.239608,-0.780312,3.2725,-4.655,-0.6475
1064,116385,0.5655920999999999,0.23521599999999998,-0.7854361,2.73,-4.795,-0.385
1065,116483,0.570472,0.231312,-0.788608,2.1175,-5.5125,-1.6975
1066,116581,0.568764,0.232044,-0.782508,1.1725,-5.0225,-1.855
1067,116680,0.572912,0.24497600000000003,-0.781044,0.735,-4.6025,-2.1
1068,116778,0.575596,0.24936799999999998,-0.774456,0.8575,-5.0225,-2.17
1069,116876,0.5753520000000001,0.246196,-0.777384,0.35,-4.2875,-1.085
1070,116974,0.5843801,0.247416,-0.773968,-0.3325,-4.06,-0.63
1071,117072,0.576816,0.243024,-0.776896,-0.7,-3.9725,0.105
1072,117170,0.5814520000000001,0.23887600000000003,-0.776408,-0.665,-3.5175,0.5425
1073,117268,0.576328,0.24351199999999998,-0.780556,-0.0175,-3.0275,1.155
1074,117366,0.5738880000000001,0.24156,-0.779824,0.49,-2.66,0.56
1075,117464,0.574132,0.24156,-0.782508,0.1575,-1.89,0.91
1076,117562,0.5797441,0.2379,-0.7759199999999999,-0.595,-0.35,1.925
1077,117660,0.571448,0.23692399999999997,-0.7754321,-1.2775,0.7175,1.82
1078,117758,0.588284,0.23521599999999998,-0.768844,-2.24,2.45,1.7325
1079,117856,0.585112,0.237656,-0.776896,-3.5,4.235,1.9075
1080,117955,0.585356,0.24082800000000001,-0.776408,-4.8475,5.9675,2.0125
1081,118053,0.537288,0.241804,-0.769332,-7.9975,7.8575,2.5725
1082,118151,0.599996,0.24058400000000002,-0.7881199999999999,-14.245,11.62,4.27
1083,118249,0.548268,0.24936799999999998,-0.8261841000000001,-13.685,14.5775,4.725
1084,118347,0.565836,0.232044,-0.763232,-11.69,21.2275,4.4275
1085,118445,0.587064,0.239364,-0.791292,-14.2975,27.615,4.2525
1086,118543,0.575596,0.228872,-0.7893399999999999,-14.4375,33.3375,4.4625
1087,118641,0.5885281,0.23424,-0.7881199999999999,-15.1725,38.43,4.0775
1088,118739,0.5838920999999999,0.24351199999999998,-0.777628,-14.1575,43.4175,3.605
1089,118837,0.5897479999999999,0.23741199999999998,-0.7766521,-14.98,51.4325,3.045
1090,118935,0.5936520000000001,0.244732,-0.7666480999999999,-14.875,59.815,2.2925
1091,119033,0.6082920999999999,0.255956,-0.7600600000000001,-15.7325,68.8275,1.5575
1092,119131,0.6170760000000001,0.25498000000000004,-0.750788,-16.205,77.9625,1.6975
1093,119229,0.6178081,0.25254,-0.764452,-16.4675,87.15,2.205
1094,119328,0.6319600000000001,0.244732,-0.748836,-15.1025,96.21500999999999,1.9775
1095,119426,0.6470880999999999,0.25351599999999996,-0.74908,-13.965,105.4025,1.715
1096,119524,0.656116,0.244,-0.764696,-11.025,114.6075,1.575
1097,119622,0.687104,0.248148,-0.730292,-7.1225,124.215,1.54
1098,119720,0.681492,0.28548,-0.7332201,-5.775,135.485,4.6375
1099,119818,0.730292,0.27279200000000003,-0.707356,-3.1675,145.9675,8.89
1100,119916,0.718824,0.271084,-0.70028,-1.47,155.33,13.7375
1101,120014,0.730536,0.265472,-0.6985720999999999,2.59,163.9575,17.9725
1102,120112,0.7361481,0.264008,-0.64294,5.6525,171.78,18.5325
1103,120210,0.81374,0.317932,-0.6653880999999999,7.385,179.3925,21.945
1104,120308,0.858392,0.35502,-0.676124,5.8975,187.11,27.615
1105,120406,0.949892,0.377712,-0.693692,3.1325,195.2125,36.61
1106,120504,0.9049959999999999,0.364048,-0.7451760000000001,-0.9275,205.275,48.6675
1107,120602,0.9713639999999999,0.396988,-0.806176,-4.8475,212.9225,55.895
1108,120701,0.98088,0.405528,-0.809836,-9.695,221.27,65.50251
1109,120799,1.056764,0.434564,-0.803492,-13.3875,228.725,74.9525
1110,120897,1.069696,0.396012,-0.7522521,-15.12,236.95,86.18751
1111,120995,1.021628,0.28767600000000004,-0.752984,-23.695,246.3475,95.8125
1112,121093,1.033096,0.441884,-0.8252079999999999,-34.125,257.0925,100.485
1113,121191,1.1407,0.554856,-0.9589200999999999,-42.5775,264.1975,106.3825
1114,121289,1.1599760000000001,0.527284,-1.005768,-45.0625,265.3875,116.9525
1115,121387,1.3893360000000001,0.9086559999999999,-1.26758,-48.58,261.695,128.7125
1116,121485,0.715408,0.45725600000000005,-1.651636,-41.825,224.5425,131.285
1117,121583,1.593564,0.44334799999999996,-2.857484,-98.4375,127.47,104.23
1118,121681,1.8214599999999999,1.45424,-2.96216,-99.54,-10.57,53.0425
1119,121779,0.5160600000000001,1.343708,-1.942484,-35.175,-127.3125,36.085
1120,121877,-0.37112399999999995,0.774212,-0.996008,38.115,-161.8575,56.4725
1121,121975,-0.141764,0.5307,-0.8518040000000001,79.205,-147.0525,68.985
1122,122074,0.251076,0.432612,-0.9345201,78.68,-138.3375,57.6975
1123,122172,0.266936,0.5231359999999999,-0.9535521,51.87,-152.145,24.4475
1124,122270,0.264252,0.702476,-0.9225639999999999,28.1925,-172.9875,-12.7575
1125,122368,0.360632,0.706136,-0.8693719999999999,31.325,-190.1025,-36.9775
1126,122466,0.43212399999999995,0.5231359999999999,-0.766892,48.8425,-204.19,-50.785
1127,122564,0.461892,0.268888,-0.6514800000000001,58.8525,-217.35,-59.5175
1128,122662,0.50264,0.102968,-0.599508,51.975,-227.78,-63.4725
1129,122760,0.593896,0.08906,-0.6222,34.7375,-235.5675,-61.6875
1130,122858,0.6917399999999999,0.15738,-0.65514,20.2475,-243.11,-55.16
1131,122956,0.7476161,0.20642399999999997,-0.640012,13.23,-250.7575,-48.09
1132,123054,0.776896,0.21228000000000002,-0.605364,9.1,-256.48,-44.835
1133,123152,0.797636,0.21301199999999998,-0.5777920999999999,2.3625,-258.0025,-47.0575
1134,123251,0.9028,0.23911999999999997,-0.577304,-6.5625,-255.815,-52.3425
1135,123349,0.990884,0.269864,-0.5702281,-11.6725,-248.7275,-56.525
1136,123447,1.053348,0.304268,-0.584868,-11.13,-237.5625,-60.48
1137,123545,1.0760399999999999,0.320128,-0.600484,-7.6475,-226.1525,-67.9175
1138,123643,1.077504,0.332328,-0.6107319999999999,-5.635,-215.46,-76.895
1139,123741,1.121912,0.360632,-0.680028,-6.9825,-205.7125,-85.6625
1140,123839,1.185352,0.38356799999999996,-0.7754321,-10.8675,-198.45,-96.2675
1141,123937,1.181692,0.36136399999999996,-0.792512,-14.2975,-196.2625,-105.8925
1142,124035,1.134112,0.25376,-0.7288279999999999,-16.45,-194.25,-111.51
1143,124133,1.089216,0.12053599999999999,-0.647576,-22.155,-186.8475,-112.0175
1144,124231,1.105564,0.028792,-0.58072,-32.5325,-173.285,-108.6225
1145,124329,1.245376,-0.046604,-0.6466,-45.4475,-155.47,-102.41
1146,124427,1.51158,-0.027572000000000003,-0.784704,-61.9325,-141.05,-97.58
1147,124526,1.765584,0.081252,-0.8701040000000001,-71.96,-138.8275,-91.6125
1148,124624,1.7760759999999998,0.059048,-0.7076001000000001,-65.87,-145.495,-80.43
1149,124722,1.7982799999999999,-0.045384,-0.434564,-52.255,-148.925,-65.59
1150,124820,1.712148,-0.200324,-0.116388,-44.73,-140.105,-51.2225
1151,124918,1.663348,-0.37332,0.10833599999999999,-48.86,-117.3025,-40.32
1152,125016,1.6975080000000002,-0.403332,0.155428,-60.655,-86.6775,-36.225
1153,125114,1.8109680000000001,-0.23228800000000002,0.104676,-64.8725,-56.1225,-34.0725
1154,125212,2.02642,-0.07881200000000001,0.038551999999999996,-46.6725,-33.2675,-31.5175
1155,125310,2.225524,0.00976,0.031964,-17.78,-23.2225,-34.0725
1156,125408,2.1423200000000002,-0.027572000000000003,0.250832,14.805,-25.83,-37.7125
1157,125506,1.879776,-0.21228000000000002,0.570472,44.17,-24.08,-35.7
1158,125604,1.7338639999999998,-0.341844,0.709064,59.115,-4.935,-28.9975
1159,125703,1.834148,-0.410652,0.648552,58.0825,24.64,-21.4025
1160,125801,1.884656,-0.281332,0.8352120000000001,60.4625,69.0725,-4.1125
1161,125899,0.490928,-0.017568,-0.735172,49.875,104.755,19.915
1162,125997,0.522892,0.400648,-2.358748,28.49,102.725,21.14
1163,126095,0.8693719999999999,0.182268,-1.560136,30.275,89.65250999999999,16.87
1164,126193,0.5799880000000001,-0.271816,-0.487756,32.0075,80.675,10.675
1165,126291,0.500688,-0.27694,-0.380884,2.45,80.15,-14.6475
1166,126389,0.954284,-0.110776,-1.1507040000000002,-21.0875,87.7625,-2.9925
1167,126487,1.153632,0.186416,-1.314184,-18.165,70.4725,28.0
1168,126585,0.6304960000000001,0.56852,-0.676856,-21.3325,40.6525,21.6125
1169,126683,0.530212,0.662704,-0.6456241,-14.7,41.055,12.6
1170,126781,1.063108,0.74542,-1.170712,-6.2475,50.3475,3.535
1171,126879,0.693448,0.324764,-0.7754321,17.92,33.4425,8.2775
1172,126977,0.742492,0.3965,-0.8357,24.85,19.04,14.7875
1173,127075,0.570716,0.23082399999999997,-0.7712840999999999,29.8375,10.01,17.2025
1174,127174,0.7032079999999999,0.10931199999999999,-0.9084121,30.1525,7.455,16.66
1175,127272,0.632204,0.11736400000000001,-0.809348,24.15,0.56,12.8275
1176,127370,0.621468,0.165432,-0.8425321,16.555,-3.36,8.015
1177,127468,0.601704,0.13542,-0.8220360000000001,11.375,-3.395,3.605
1178,127566,0.5856,0.18422,-0.807884,4.4625,-2.835,-0.875
1179,127664,0.572912,0.225944,-0.800564,0.2625,-1.4525,-4.165
1180,127762,0.5724239999999999,0.246196,-0.795928,-1.33,-0.175,-5.95
1181,127860,0.566812,0.269864,-0.774944,-1.785,0.1925,-6.16
1182,127958,0.564372,0.26596,-0.777628,-0.8225,-0.21,-5.2325
1183,128056,0.559736,0.265716,-0.780556,0.42,-0.805,-3.535
1184,128154,0.559248,0.269864,-0.787144,1.4875,-0.8575,-1.785
1185,128252,0.5612,0.259372,-0.786412,2.485,-0.7,-0.4025
1186,128350,0.56242,0.256444,-0.784216,2.9575,-0.245,0.665
1187,128449,0.5614439999999999,0.245464,-0.780068,3.7625,-0.7875,1.4
1188,128547,0.5665680000000001,0.23911999999999997,-0.777628,4.41,-1.5225,1.575
1189,128645,0.5702281,0.23838800000000002,-0.7856801,4.795,-2.17,1.4175
1190,128743,0.570472,0.22423600000000002,-0.788852,4.865,-2.3625,1.47
1191,128841,0.5663239999999999,0.2318,-0.7881199999999999,4.41,-2.275,1.2425
1192,128939,0.5797441,0.235704,-0.782508,4.2,-2.24,0.0525
1193,129037,0.567056,0.235704,-0.783728,3.9025,-1.8725,0.91
1194,129135,0.579012,0.24497600000000003,-0.7795801,3.745,-2.275,-0.0875
1195,129233,0.57096,0.24326799999999998,-0.782508,3.6925,-2.31,0.14
1196,129331,0.571936,0.246928,-0.782752,3.535,-2.66,-0.385
1197,129429,0.5692520000000001,0.24326799999999998,-0.782508,3.5175,-2.8875,-0.035
1198,129527,0.566812,0.239852,-0.786412,3.535,-3.36,-0.49
1199,129626,0.5734,0.245952,-0.779824,3.1675,-3.78,-0.7175
1200,129724,0.5702281,0.24351199999999998,-0.77836,2.2575,-4.27,-0.14
1201,129822,0.5607121,0.24131599999999997,-0.7861680999999999,1.4875,-4.655,-0.315
1202,129920,0.5726680000000001,0.229848,-0.782508,1.1725,-5.32,-1.085
1203,130018,0.5743761,0.238144,-0.790804,0.56,-5.355,-0.945
1204,130116,0.581696,0.244488,-0.781532,0.0875,-5.2675,-0.77
1205,130214,0.5655920999999999,0.24766,-0.779824,-0.245,-5.32,0.07
1206,130312,0.5648601,0.246196,-0.787876,-0.7875,-5.25,0.14
1207,130410,0.576816,0.24082800000000001,-0.788852,-1.2775,-5.1275,-0.0175
1208,130508,0.5826720000000001,0.233264,-0.7771399999999999,-1.61,-4.6375,0.2275
1209,130606,0.582428,0.24156,-0.7820199999999999,-2.625,-3.815,0.245
1210,130704,0.576084,0.234972,-0.7788480999999999,-3.185,-2.59,0.595
1211,130803,0.5702281,0.22862800000000003,-0.7795801,-3.6575,-1.2425,0.525
1212,130901,0.579012,0.238144,-0.7788480999999999,-4.2,0.525,0.0875
1213,130999,0.5795,0.243756,-0.772748,-4.76,1.645,0.2975
1214,131097,0.581208,0.24278000000000002,-0.774456,-5.4775,2.66,0.8225
1215,131195,0.579012,0.24058400000000002,-0.768844,-6.195,3.9725,1.0325
1216,131293,0.576572,0.260348,-0.7754321,-8.19,6.0375,1.4875
1217,131391,0.5565640000000001,0.23741199999999998,-0.781532,-11.305,8.82,2.87
1218,131489,0.57828,0.2501,-0.7986121,-15.715,12.3375,4.2
1219,131587,0.5736441,0.247416,-0.788608,-18.445,17.29,4.9175
1220,131685,0.5392399999999999,0.220088,-0.8308200000000001,-17.99,22.4525,5.67
1221,131783,0.576572,0.24424400000000002,-0.781532,-16.205,28.9975,4.8825
1222,131881,0.5797441,0.23009200000000002,-0.7832399999999999,-18.83,35.91,4.13
1223,131980,0.5777920999999999,0.24058400000000002,-0.8203280000000001,-18.935,41.8075,3.7975
1224,132078,0.5858439999999999,0.238144,-0.7661600000000001,-18.725,47.1275,3.15
1225,132176,0.5873079999999999,0.258152,-0.778604,-19.1625,53.8125,2.52
1226,132274,0.59048,0.25986,-0.7661600000000001,-20.3525,61.6175,2.45
1227,132372,0.6219561,0.255712,-0.7407841,-21.6475,70.0,2.2575
1228,132470,0.614392,0.266692,-0.741272,-23.8,78.68,2.4325
1229,132568,0.604876,0.25376,-0.7373681,-24.1325,87.08,1.995
1230,132666,0.645868,0.24766,-0.743712,-22.295,96.2325,1.5925
1231,132764,0.6763680000000001,0.24522,-0.73932,-18.795,106.365,0.4375
1232,132862,0.677832,0.25132,-0.746396,-15.8025,117.425,-0.385
1233,132960,0.6985720999999999,0.270596,-0.7315119999999999,-13.79,127.54,2.0125
1234,133058,0.710284,0.239364,-0.716384,-13.2125,135.94,6.7025
1235,133157,0.724436,0.2501,-0.727364,-9.03,143.5175,8.3125
1236,133255,0.735904,0.28181999999999996,-0.692716,-3.535,150.7275,9.6425
1237,133353,0.783972,0.302316,-0.64172,-0.2275,158.0775,11.0775
1238,133451,0.8076399999999999,0.280356,-0.5726680000000001,0.8400001,165.9525,14.315
1239,133549,0.7700640999999999,0.319884,-0.685884,1.82,174.3,17.325
1240,133647,0.806908,0.340136,-0.7168720000000001,2.3975,182.315,23.555
1241,133745,0.9479401,0.399428,-0.693204,0.8575,191.17,32.445
1242,133843,0.913048,0.41577600000000003,-0.7415161,-6.1425,201.6875,45.1675
1243,133941,0.96014,0.424804,-0.7315119999999999,-10.57,208.425,54.53
1244,134039,0.974292,0.401136,-0.7320001,-16.765,214.3225,63.7875
1245,134137,1.027728,0.39161999999999997,-0.701012,-23.2575,221.0425,71.0325
1246,134235,1.048712,0.37454,-0.7005239999999999,-27.8775,227.885,78.62751
1247,134333,1.0199200000000002,0.29572800000000005,-0.7027201,-35.3675,235.375,86.11751
1248,134432,1.030168,0.37454,-0.7510321,-45.4125,243.88,90.3175
1249,134530,1.097756,0.46628400000000003,-0.889136,-55.58,249.6025,94.65751
1250,134628,1.128744,0.4404201,-0.9738041,-64.8375,250.425,102.8475
1251,134726,1.518168,0.684176,-1.282708,-77.3325,244.2825,109.2
1252,134824,0.82594,0.571448,-1.836344,-82.6875,195.9125,108.9725
1253,134922,1.3083280000000002,0.2989,-2.5156400000000003,-118.0025,93.765,97.5975
1254,135020,1.714832,1.370792,-3.086112,-120.61,-27.09,68.8275
1255,135118,0.473116,1.1448479999999999,-1.899052,-45.5175,-140.8225,68.3375
1256,135216,-0.4575,0.556076,-0.893284,24.7975,-169.6625,97.19501
1257,135314,-0.19397999999999999,0.502884,-0.8371639999999999,57.3825,-146.93,112.4725
1258,135412,0.211792,0.631228,-1.03578,53.8475,-133.525,96.72251
1259,135510,0.21813600000000002,0.874984,-1.0826280000000001,36.715,-147.63,55.5975
1260,135608,0.149084,1.003816,-0.9484280999999999,35.1225,-168.735,9.5375
1261,135706,0.195688,0.8640040000000001,-0.792512,56.14,-180.705,-25.9
1262,135805,0.276452,0.586332,-0.702964,76.825,-184.8875,-53.9175
1263,135903,0.368684,0.33379200000000003,-0.698328,79.205,-189.315,-76.79
1264,136001,0.473116,0.220088,-0.742004,66.60501,-198.1,-91.245
1265,136099,0.5897479999999999,0.20374,-0.7788480999999999,53.795,-209.5275,-93.1875
1266,136197,0.701012,0.195444,-0.795928,49.315,-222.145,-84.8925
1267,136295,0.776896,0.15006,-0.775676,48.23,-234.9375,-74.0775
1268,136393,0.836676,0.108824,-0.7190681,43.0675,-246.05,-65.94
1269,136491,0.865956,0.133956,-0.7005239999999999,32.27,-253.6625,-60.235
1270,136589,0.945256,0.18666,-0.694912,22.4875,-257.0575,-57.085
1271,136687,1.071648,0.271816,-0.6893,17.325,-256.7775,-54.3725
1272,136785,1.109224,0.36356,-0.669292,17.08,-253.2075,-54.0575
1273,136883,1.122644,0.432612,-0.6441600000000001,21.455,-245.0,-56.49
1274,136982,1.11874,0.46457600000000004,-0.6283,26.775,-233.415,-63.035
1275,137080,1.09556,0.477264,-0.612196,29.89,-221.095,-72.24
1276,137178,1.14314,0.479216,-0.669048,27.1775,-208.005,-83.1425
1277,137276,1.2080440000000001,0.46116,-0.740052,18.3225,-197.9075,-95.9875
1278,137374,1.190476,0.41016400000000003,-0.74054,8.8375,-192.885,-109.4275
1279,137472,1.1326479999999999,0.266204,-0.6439159999999999,3.3075,-186.6725,-116.6725
1280,137570,1.11874,0.08637601,-0.5751081,-1.9775,-173.6175,-114.905
1281,137668,1.25416,-0.057096,-0.64782,-13.0725,-156.2225,-105.84
1282,137766,1.430328,-0.101016,-0.750544,-32.2175,-144.3225,-93.9925
1283,137864,1.6460240000000002,-0.08759601,-0.81374,-53.69,-141.7675,-80.955
1284,137962,1.7997439999999998,-0.01586,-0.7829961,-68.6,-147.105,-66.0625
1285,138060,1.789252,-0.011712,-0.525332,-70.21,-155.1725,-46.4625
1286,138158,1.7638759999999998,-0.041236,-0.211792,-64.12,-154.07,-24.2725
1287,138257,1.759484,-0.122732,0.091744,-63.945,-138.4425,-7.98
1288,138355,1.773636,-0.247416,0.382836,-70.56,-106.925,-0.525
1289,138453,1.8107240000000002,-0.37990799999999997,0.288408,-85.62751,-73.045,-5.845
1290,138551,1.8880720000000002,-0.337452,0.239852,-91.035,-49.35,-10.395
1291,138649,1.9654200000000002,-0.274744,0.33305999999999997,-74.5675,-28.9625,-3.3425
1292,138747,2.0862,-0.23009200000000002,0.345748,-47.215,-8.4525,7.56
1293,138845,2.161352,-0.160796,0.361852,-25.7425,2.6775,11.6025
1294,138943,2.0234919999999996,-0.09150001,0.7376119999999999,-1.015,17.5,14.6125
1295,139041,2.038864,-0.002928,0.964044,34.125,53.655,17.22
1296,139139,0.258884,-0.26718000000000003,0.542656,75.1975,106.5575,17.0625
1297,139237,0.9274440999999999,0.030744,-1.944436,54.04,132.265,6.7375
1298,139335,0.8483879999999999,0.279868,-1.967128,34.3875,123.3925,-20.335
1299,139433,0.9394,-0.30402399999999996,-0.9406200000000001,45.6925,108.3425,-15.855
1300,139532,0.8427761,-0.370148,-0.505568,25.7075,93.485,-27.265
1301,139630,0.981124,-0.256444,-1.113616,-2.5025,88.6375,-18.06
1302,139728,1.070916,-0.132248,-1.36274,-3.4125,67.5325,19.9325
1303,139826,0.670024,0.320616,-0.8322841000000001,-14.1225,37.205,24.9725
1304,139924,0.425048,0.6070720000000001,-0.552172,-16.6775,31.955,18.6725
1305,140022,0.657824,0.7598161,-0.8398479999999999,-12.53,43.0675,8.6275
1306,140120,0.9791719999999999,0.531676,-1.0323639999999998,4.9875,42.245,6.9475
1307,140218,0.71736,0.201544,-0.793244,23.8175,21.385,14.875
1308,140316,0.66978,0.175924,-0.8481440999999998,24.7625,9.31,15.7675
1309,140414,0.624152,0.091744,-0.8483879999999999,20.1775,4.305,11.2
1310,140512,0.652944,0.174216,-0.8652241,15.3475,-2.17,7.2625
1311,140610,0.587064,0.188856,-0.806908,10.0275,-4.41,3.7275
1312,140708,0.587796,0.18544000000000002,-0.818132,6.615,-4.55,1.6625
1313,140807,0.5843801,0.219112,-0.8010520000000001,3.3075,-3.4125,-0.8575
1314,140905,0.5738880000000001,0.239852,-0.791292,1.5225,-1.9425,-3.0625
1315,141003,0.576328,0.263764,-0.783972,0.7,-0.98,-3.8675
1316,141101,0.575596,0.26596,-0.783972,0.8925,-0.4025,-3.885
1317,141199,0.5753520000000001,0.258396,-0.7793359999999999,1.4175,-0.4375,-2.9925
1318,141297,0.571692,0.25790799999999997,-0.782752,1.6625,-0.56,-1.6975
1319,141395,0.5724239999999999,0.260104,-0.782508,1.8375,-0.8575,-0.91
1320,141493,0.5673,0.25424800000000003,-0.7834840000000001,2.0125,-1.2425,-0.455
1321,141591,0.562908,0.244732,-0.781532,2.0475,-1.3825,-0.3325
1322,141689,0.567056,0.249856,-0.780312,1.7675,-1.155,-0.7175
1323,141787,0.571204,0.23887600000000003,-0.774456,1.9775,-1.6625,-1.085
1324,141885,0.571448,0.235948,-0.7759199999999999,2.24,-1.9425,-0.6475
1325,141984,0.571936,0.24156,-0.7793359999999999,2.17,-2.1,-0.1925
1326,142082,0.570716,0.235948,-0.787388,2.345,-2.3275,-0.4725
1327,142180,0.578036,0.251564,-0.780312,2.1175,-2.4325,-0.8925
1328,142278,0.5751081,0.238144,-0.776408,1.96,-2.4675,-0.3675
1329,142376,0.5653481,0.246928,-0.7832399999999999,1.715,-2.59,-0.21
1330,142474,0.573156,0.239364,-0.776896,1.715,-3.08,-1.155
1331,142572,0.5673,0.242292,-0.7822640000000001,1.54,-3.1325,-0.5075
1332,142670,0.5636399999999999,0.24766,-0.7793359999999999,1.225,-3.3075,-0.8925
1333,142768,0.5753520000000001,0.24570799999999998,-0.777872,1.19,-3.78,-1.785
1334,142866,0.569984,0.243756,-0.781776,0.9625,-3.99,-0.9275
1335,142964,0.570716,0.25058800000000003,-0.7829961,0.9625,-4.55,-1.6625
1336,143063,0.5697399999999999,0.24497600000000003,-0.780556,1.05,-4.9875,-1.4875
1337,143161,0.5724239999999999,0.25132,-0.783972,1.1375,-5.1975,-0.735
1338,143259,0.571448,0.249612,-0.785924,1.645,-6.0375,-0.8925
1339,143357,0.579012,0.246196,-0.787632,1.3125,-6.58,-0.2625
1340,143455,0.564372,0.24790399999999999,-0.784216,1.155,-7.1225,0.4725
1341,143553,0.57462,0.24107199999999998,-0.7793359999999999,1.2425,-7.07,0.6475
1342,143651,0.571204,0.245952,-0.779092,1.295,-6.965,0.2975
1343,143749,0.58072,0.241804,-0.779092,1.0325,-6.4925,0.1225
1344,143847,0.576816,0.23692399999999997,-0.777384,0.5775,-5.6175,0.5775
1345,143945,0.5734,0.23472800000000002,-0.7788480999999999,0.0175,-4.9875,0.7525
1346,144043,0.5690081,0.24034,-0.778604,-0.6825,-4.2175,0.945
1347,144141,0.5665680000000001,0.236192,-0.779092,-1.05,-3.36,0.595
1348,144240,0.5690081,0.23692399999999997,-0.7820199999999999,-1.8725,-2.3975,0.4375
1349,144338,0.57828,0.23546,-0.7795801,-2.8175,-1.2075,0.6825
1350,144436,0.5785241,0.24058400000000002,-0.7822640000000001,-3.5875,0.0875,0.6475
1351,144534,0.585356,0.23668000000000003,-0.779092,-4.375,1.435,0.7175
1352,144632,0.577548,0.239364,-0.777628,-5.4075,2.905,0.945
1353,144730,0.564128,0.261812,-0.768112,-7.42,4.8125,1.4
1354,144828,0.585356,0.258152,-0.7795801,-12.145,6.825,3.3775
1355,144926,0.577304,0.24863600000000002,-0.7612800999999999,-14.175,8.365,4.6375
1356,145024,0.5875520000000001,0.246928,-0.7705521,-17.325,11.2175,4.7425
1357,145122,0.581208,0.244,-0.780312,-18.8825,14.1575,5.0925
1358,145220,0.5516840000000001,0.23228800000000002,-0.8298440999999999,-19.705,17.8325,6.2825
1359,145319,0.5843801,0.24156,-0.7661600000000001,-17.92,23.24,6.3875
1360,145416,0.5690081,0.237656,-0.792756,-21.945,29.995,5.81
1361,145515,0.6009720000000001,0.226188,-0.777872,-22.2775,35.595,5.53
1362,145613,0.603168,0.271816,-0.77836,-25.165,41.3875,4.095
1363,145711,0.562908,0.22862800000000003,-0.753228,-23.52,45.4475,3.185
1364,145809,0.568764,0.256932,-0.7700640999999999,-24.3075,52.08,2.2225
1365,145907,0.627568,0.2562,-0.7378560000000001,-24.3075,59.15,1.3475
1366,146005,0.570472,0.260592,-0.739564,-23.0125,66.01,-0.3325
1367,146103,0.6463561,0.2745,-0.7612800999999999,-24.4825,75.5475,-2.66
1368,146201,0.62464,0.282796,-0.7288279999999999,-22.785,85.015,-2.3625
1369,146299,0.5997520000000001,0.269864,-0.7200439999999999,-24.465,94.44751,-1.4175
1370,146397,0.753472,0.251076,-0.709064,-22.68,103.005,-0.56
1371,146495,0.641232,0.282796,-0.719312,-19.075,110.6,-0.455
1372,146593,0.6822239999999999,0.27889200000000003,-0.7200439999999999,-17.3425,118.895,0.4375
1373,146692,0.6958880000000001,0.299388,-0.6856399999999999,-14.385,126.805,4.585
1374,146790,0.726144,0.285236,-0.72346,-12.46,134.435,7.7
1375,146888,0.7200439999999999,0.28157600000000005,-0.70394,-8.5925,142.345,12.1625
1376,146986,0.777628,0.315492,-0.702964,-6.79,151.025,13.51
1377,147084,0.782508,0.306708,-0.6729520999999999,-6.23,160.0375,18.5675
1378,147182,0.792024,0.326472,-0.6675840000000001,-6.2125,169.4875,24.29
1379,147280,0.8486319999999999,0.334036,-0.720532,-7.49,177.0125,27.37
1380,147378,0.8813280000000001,0.351116,-0.749568,-12.32,183.19,33.215
1381,147476,0.9203680000000001,0.349164,-0.705892,-17.1325,187.215,38.92
1382,147574,0.9564799999999999,0.358192,-0.6822239999999999,-23.03,189.9625,44.065
1383,147672,0.964776,0.363072,-0.64782,-27.545,194.0925,50.19
1384,147770,0.9806360000000001,0.349408,-0.622688,-29.61,198.3975,54.775
1385,147868,1.007476,0.353556,-0.618052,-30.87,203.77,59.92
1386,147967,0.9901521000000001,0.2989,-0.6222,-34.7375,210.0525,65.625
1387,148065,0.9850280999999999,0.367708,-0.662948,-41.51,217.77,69.9125
1388,148163,1.036024,0.42553599999999997,-0.7503,-47.7575,224.42,74.725
1389,148261,1.089704,0.4404201,-0.791048,-52.2725,227.7975,81.88251
1390,148359,1.164368,0.47506800000000005,-0.8866961,-56.8225,226.9925,91.14
1391,148457,1.026996,0.348432,-1.341024,-62.265,207.9,92.75001
1392,148555,0.5785241,0.42602399999999996,-1.9175959999999999,-100.0825,141.82,80.08
1393,148653,1.691164,0.8805960999999999,-2.652768,-119.1925,45.9375,61.005
1394,148751,1.206824,1.22122,-2.327516,-76.2125,-56.5775,53.27
1395,148849,0.208864,0.764452,-1.441552,-3.6925,-130.62,68.6175
1396,148947,-0.14713199999999999,0.36892800000000003,-0.891576,48.09,-150.5875,91.5425
1397,149045,0.089304,0.349408,-0.865468,59.5,-144.725,99.27750999999999
1398,149143,0.285236,0.487756,-0.9340321,46.7425,-144.7075,86.485
1399,149242,0.308904,0.708576,-0.955992,31.4125,-158.5325,57.4525
1400,149340,0.316712,0.811056,-0.8862081,34.1425,-175.5075,26.18
1401,149438,0.345992,0.709064,-0.77104,53.5325,-185.99,1.2425
1402,149536,0.384788,0.508984,-0.671976,69.59751,-190.4175,-19.495
1403,149634,0.453596,0.345016,-0.642696,70.1925,-193.1825,-37.835
1404,149732,0.537288,0.28426,-0.6649,58.0825,-196.945,-52.4125
1405,149830,0.6202479999999999,0.28694400000000003,-0.692228,45.2725,-201.845,-60.97
1406,149928,0.686372,0.29524,-0.7015,39.1825,-207.7075,-63.7
1407,150026,0.742004,0.276696,-0.685396,39.5325,-212.59,-62.5275
1408,150124,0.79666,0.236192,-0.674416,40.7925,-215.355,-60.3225
1409,150222,0.8547319999999999,0.181292,-0.667828,38.6925,-216.895,-59.43
1410,150320,0.925736,0.15494000000000002,-0.6729520999999999,31.7275,-218.225,-59.71
1411,150418,0.9752681000000001,0.19154000000000002,-0.6661201,23.5025,-219.625,-59.4475
1412,150517,1.004548,0.24717199999999998,-0.649528,19.5475,-219.3975,-57.4875
1413,150615,0.9901521000000001,0.310612,-0.6229319999999999,20.44,-215.81,-56.4375
1414,150713,0.9740479999999999,0.329156,-0.620004,24.08,-207.83,-57.54
1415,150811,0.973316,0.328424,-0.6405,23.87,-198.4675,-62.4925
1416,150909,1.029436,0.32403200000000004,-0.690032,16.7825,-190.68,-71.8375
1417,151007,1.0643280000000002,0.330864,-0.7168720000000001,6.65,-185.78,-83.545
1418,151105,1.081652,0.33305999999999997,-0.715408,-0.14,-181.02,-93.2575
1419,151203,1.095072,0.303048,-0.7078439999999999,0.0,-173.9325,-98.82251
1420,151301,1.115324,0.260836,-0.706136,3.395,-164.7275,-100.9225
1421,151399,1.111664,0.217892,-0.6885680999999999,5.32,-154.8575,-101.6575
1422,151497,1.121668,0.18324400000000002,-0.6600201,4.9875,-144.375,-101.185
1423,151595,1.078236,0.187392,-0.6109760000000001,2.94,-132.755,-99.295
1424,151693,1.142896,0.211548,-0.552904,1.4,-119.6475,-95.09501
1425,151792,1.21634,0.286456,-0.505324,0.42,-105.0,-91.9975
1426,151890,1.2968600000000001,0.371856,-0.467016,0.7175,-90.9475,-92.085
1427,151988,1.4252040000000001,0.32256799999999997,-0.41553199999999996,4.06,-79.2925,-96.9675
1428,152086,1.649684,0.11394800000000001,-0.376492,-1.47,-70.7175,-110.74
1429,152184,1.8419560000000001,0.147376,-0.31890799999999997,-23.905,-72.695,-130.55
1430,152282,1.789496,0.09028,-0.209596,-37.5375,-79.6425,-144.27
1431,152380,2.132072,0.160796,0.294996,-26.67,-70.595,-142.1875
1432,152478,2.006168,0.12053599999999999,0.40748,-15.715,-53.83,-127.2775
1433,152576,1.8939279999999998,0.09735601,0.42285200000000006,4.0425,-30.9925,-111.65
1434,152674,1.96908,-0.0366,0.578036,28.07,-10.5,-90.615
1435,152772,1.993968,-0.124196,0.702964,39.9525,9.0475,-69.02
1436,152870,2.0069,-0.263764,0.862296,36.645,32.7425,-47.32
1437,152968,1.91662,-0.298168,0.9091440000000001,23.31,67.165,-25.5675
1438,153067,0.044164,0.045872,-0.42114399999999996,13.37,97.7725,-5.4075
1439,153165,0.43676000000000004,0.164212,-2.0864439999999997,6.335,104.8075,7.6475
1440,153263,0.9520881,0.09442801,-1.634556,4.76,102.0775,17.1675
1441,153361,0.7834840000000001,-0.154696,-0.673928,0.1225,89.0225,23.905
1442,153459,0.47506800000000005,-0.115656,-0.43163599999999996,-13.895,77.8925,19.775
1443,153557,0.64904,0.21862399999999999,-0.8918200000000001,-26.5125,80.885,22.5925
1444,153655,0.9903959999999999,0.480436,-1.2402520000000001,-24.08,81.34000999999999,34.3175
1445,153753,0.86864,0.480192,-0.8945040000000001,-18.27,64.96,30.6425
1446,153851,0.66246,0.451888,-0.746152,-15.6975,53.5325,19.285
1447,153949,1.112884,0.6231760999999999,-1.1241079999999999,-8.96,49.91,16.1875
1448,154047,0.9864921,0.644404,-1.022116,5.075,31.8325,14.77
1449,154145,0.398452,0.33916,-0.538996,18.97,12.845,9.52
1450,154243,0.7332201,0.26108000000000003,-0.9079241,21.0175,20.37,13.055
1451,154341,0.606584,0.111508,-0.7712840999999999,22.4,11.8125,13.8075
1452,154440,0.651968,0.28157600000000005,-0.8261841000000001,16.415,4.97,12.95
1453,154538,0.6168319999999999,0.2379,-0.783972,14.8225,1.05,11.27
1454,154636,0.642452,0.199104,-0.83936,12.88,-1.68,9.835
1455,154734,0.6009720000000001,0.22057600000000002,-0.797636,8.3475,-4.27,6.965
1456,154832,0.5975560000000001,0.239364,-0.8039801,5.6,-5.04,3.6225
1457,154930,0.5787680000000001,0.21520799999999998,-0.7822640000000001,4.4275,-4.8825,0.63
1458,155028,0.571204,0.25302800000000003,-0.782752,2.87,-4.13,-0.945
1459,155126,0.5726680000000001,0.290604,-0.8042239999999999,2.8175,-3.57,-1.3825
1460,155224,0.5594920999999999,0.256444,-0.75274,3.43,-3.15,-1.3125
1461,155322,0.552416,0.264008,-0.735904,3.2025,-2.45,-0.49
1462,155420,0.5499761,0.304512,-0.78446,4.8125,-2.5375,1.5575
1463,155518,0.5636399999999999,0.254736,-0.752008,5.215,-2.765,1.8025
1464,155616,0.56242,0.24326799999999998,-0.7673800000000001,5.4775,-2.45,3.01
1465,155714,0.576572,0.261812,-0.779092,5.11,-2.7825,3.08
1466,155813,0.570716,0.248148,-0.789828,4.2175,-2.4675,3.0625
1467,155911,0.5797441,0.247416,-0.7869,3.2025,-2.2225,2.2575
1468,156009,0.57828,0.25058800000000003,-0.7895840999999999,2.275,-2.8525,1.435
1469,156107,0.575596,0.250344,-0.783728,1.7325,-2.9575,0.805
1470,156205,0.576816,0.251564,-0.7761640999999999,1.015,-2.275,0.2275
1471,156303,0.576572,0.247416,-0.779824,0.385,-1.75,-0.63
1472,156401,0.5743761,0.25058800000000003,-0.7834840000000001,0.105,-1.5925,-0.875
1473,156499,0.57706,0.25961599999999996,-0.776408,0.3325,-1.75,-0.9275
1474,156597,0.57706,0.248392,-0.781532,0.315,-1.8725,-0.7525
1475,156695,0.5753520000000001,0.253272,-0.781776,0.4025,-2.275,-0.735
1476,156793,0.57706,0.253272,-0.780312,0.3675,-2.6775,-0.735
1477,156891,0.576328,0.24668400000000001,-0.778116,0.4375,-3.1325,-0.8400001
1478,156989,0.5787680000000001,0.245952,-0.7754321,0.7175,-3.535,-0.9625
1479,157087,0.57584,0.238144,-0.7766521,0.9275,-3.78,-0.8925
1480,157186,0.577304,0.24888000000000002,-0.7732359999999999,0.7875,-4.025,-0.945
1481,157284,0.571936,0.241804,-0.7754321,0.91,-4.0775,-0.98
1482,157382,0.5753520000000001,0.24888000000000002,-0.7707961,0.7875,-4.2525,-1.225
1483,157480,0.576084,0.24156,-0.774456,0.9275,-4.2525,-1.61
1484,157578,0.570716,0.24351199999999998,-0.7732359999999999,0.8925,-4.4975,-1.5225
1485,157676,0.574132,0.24790399999999999,-0.7722600000000001,0.7525,-4.3225,-1.575
1486,157774,0.5724239999999999,0.251564,-0.7759199999999999,0.56,-4.3925,-1.6275
1487,157872,0.570472,0.244,-0.7766521,0.0875,-4.6025,-1.47
1488,157970,0.58072,0.244488,-0.7707961,-0.4025,-4.5325,-1.3825
1489,158068,0.576816,0.24278000000000002,-0.778116,-0.735,-4.83,-0.945
1490,158166,0.5743761,0.243024,-0.776408,-0.98,-5.0225,-0.91
1491,158264,0.586088,0.255712,-0.787144,-1.26,-5.32,-0.945
1492,158362,0.571204,0.251808,-0.780312,-1.0325,-5.53,-0.7
1493,158460,0.56242,0.242536,-0.772748,-1.3825,-5.6525,-0.9275
1494,158558,0.5997520000000001,0.243024,-0.782752,-1.8025,-5.8275,-0.28
1495,158656,0.567788,0.29792399999999997,-0.781044,-1.54,-6.5625,-0.3675
1496,158754,0.5551,0.2318,-0.747128,-0.8925,-7.0525,-1.05
1497,158852,0.596336,0.238144,-0.7834840000000001,-1.8025,-6.895,-0.8575
1498,158951,0.563884,0.266204,-0.7929999999999999,-0.5775,-7.525,-1.0675
1499,159049,0.5751081,0.23009200000000002,-0.7503,-0.6825,-7.035,-1.2075
1500,159147,0.600484,0.25351599999999996,-0.7937320999999999,-1.645,-6.9475,-0.875
1501,159245,0.55998,0.263276,-0.780312,-0.4725,-7.2625,-0.8575
1502,159343,0.5665680000000001,0.227652,-0.7522521,-1.19,-6.79,-0.91
1503,159441,0.589992,0.24326799999999998,-0.7978801,-1.8025,-7.42,-0.0875
1504,159539,0.57706,0.2562,-0.800808,-1.2425,-7.735,-0.5075
1505,159637,0.5553441,0.282552,-0.7893399999999999,-1.8725,-7.175,-0.4725
1506,159735,0.555588,0.272304,-0.769576,-1.855,-6.37,-0.35
1507,159833,0.5614439999999999,0.251808,-0.771528,-2.5375,-4.935,-0.0175
1508,159931,0.5636399999999999,0.258396,-0.777628,-3.43,-3.0275,0.0525
1509,160029,0.553392,0.25961599999999996,-0.7612800999999999,-4.3225,-1.225,0.385
1510,160127,0.579012,0.25522399999999995,-0.774456,-7.245,1.3125,1.5225
1511,160225,0.5655920999999999,0.2806,-0.770308,-9.065,2.66,3.1325
1512,160323,0.5958479999999999,0.230336,-0.7829961,-10.99,4.7075,3.9375
1513,160421,0.589016,0.257176,-0.797636,-12.32,6.5625,4.3225
1514,160520,0.554856,0.270352,-0.764452,-13.72,9.52,4.55
1515,160618,0.555832,0.233264,-0.75762,-15.82,13.265,4.2175
1516,160716,0.5873079999999999,0.22472399999999998,-0.787876,-18.235,17.2025,3.2025
1517,160814,0.551928,0.232776,-0.7986121,-18.5325,21.7,0.7875
1518,160912,0.5648601,0.22423600000000002,-0.771528,-16.975,26.6875,-2.0125
1519,161010,0.5946279999999999,0.254492,-0.771772,-17.8325,31.115,-4.1125
1520,161108,0.566812,0.251076,-0.7612800999999999,-16.9925,35.4375,-5.7225
1521,161206,0.596092,0.284016,-0.7605481,-18.6025,41.09,-6.6675
1522,161304,0.582916,0.302072,-0.7537159999999999,-18.725,47.04,-7.5075
1523,161402,0.593164,0.29792399999999997,-0.768844,-19.4775,53.5675,-7.035
1524,161500,0.609268,0.310368,-0.754204,-19.6,60.0425,-5.2325
1525,161598,0.585356,0.28694400000000003,-0.76372,-20.1075,67.025,-3.8325
1526,161696,0.619028,0.264496,-0.744688,-19.6175,75.005,-3.9025
1527,161794,0.6314721,0.270108,-0.758108,-19.9325,84.4025,-4.83
1528,161893,0.642452,0.28011199999999997,-0.745908,-18.9525,94.57,-4.83
1529,161991,0.659044,0.26596,-0.7241920000000001,-17.29,104.6675,-3.4825
1530,162089,0.644648,0.266692,-0.753228,-16.065,116.1125,-1.26
1531,162187,0.681248,0.26596,-0.719312,-11.5675,127.4,-2.2225
1532,162285,0.7141881,0.280844,-0.7285841,-10.6225,139.055,-1.1025
1533,162383,0.6878361,0.25302800000000003,-0.696376,-7.8575,149.0125,3.465
1534,162481,0.749812,0.287432,-0.711992,-6.335,156.975,1.4
1535,162579,0.763232,0.268156,-0.6836880999999999,-4.9175,163.1875,3.43
1536,162677,0.8020281,0.288896,-0.650992,-4.0075,167.9125,2.8525
1537,162775,0.796172,0.30378,-0.655628,-5.04,172.0075,3.9725
1538,162873,0.86498,0.321104,-0.6170760000000001,-5.8975,175.56,5.2325
1539,162971,0.8203280000000001,0.328424,-0.6451359999999999,-9.8525,179.655,6.1075
1540,163069,0.8647360000000001,0.3477,-0.633912,-11.83,183.085,6.4225
1541,163167,0.91012,0.351116,-0.5797441,-12.2675,185.7275,5.95
1542,163266,0.9337880999999999,0.354044,-0.59658,-12.845,190.9425,7.245
1543,163364,0.9318360000000001,0.343552,-0.582916,-9.87,197.085,9.38
1544,163462,0.952332,0.325252,-0.589992,-2.7825,204.6625,10.955
1545,163560,0.9711200999999999,0.342088,-0.5653481,6.1075,212.205,13.125
1546,163658,0.9516,0.336476,-0.55998,13.7025,221.2,17.71
1547,163756,0.9921040999999999,0.366732,-0.57096,22.5925,229.67,19.1625
1548,163854,0.9779521000000001,0.366,-0.620492,33.95,236.8275,20.8775
1549,163952,1.08702,0.378932,-0.746152,42.735,240.0825,22.995
1550,164050,1.194136,0.386252,-0.8962120000000001,46.13,232.2075,23.4675
1551,164148,1.425448,0.255956,-1.441308,47.53,200.9175,20.2825
1552,164246,0.548024,-0.004392,-1.9842080000000002,33.7925,113.995,25.97
1553,164344,1.713124,0.42163199999999995,-2.5803,6.3525,13.7375,22.68
1554,164442,1.123864,0.49702799999999997,-2.029836,27.335,-79.31,29.1375
1555,164541,0.230336,0.19032000000000002,-1.247816,62.58,-141.4875,70.7175
1556,164639,0.123464,0.26156799999999997,-0.9952761,83.195,-156.2575,104.4925
1557,164737,0.37942,0.51484,-1.067256,92.61001,-157.9025,121.905
1558,164835,0.44822799999999996,0.7503,-1.081164,101.2725,-169.295,121.3625
1559,164933,0.37258800000000003,0.91622,-0.9921040999999999,114.2575,-189.8575,105.595
1560,165031,0.33061999999999997,0.9699,-0.8291120999999999,132.965,-207.1125,82.88
1561,165129,0.321104,0.9413520000000001,-0.7027201,151.27,-214.025,59.29
1562,165227,0.341356,0.9006040999999999,-0.6566041,163.24,-213.8675,33.25
1563,165325,0.37332,0.8640040000000001,-0.6480640000000001,167.405,-212.24,5.8275
1564,165423,0.41382399999999997,0.8398479999999999,-0.6392800000000001,166.0225,-210.84,-20.545
1565,165521,0.47092,0.830576,-0.635376,162.365,-208.6875,-43.7325
1566,165619,0.546072,0.814472,-0.630008,159.005,-206.0625,-62.965
1567,165717,0.6117081,0.796904,-0.616588,155.5225,-203.7525,-79.275
1568,165816,0.726144,0.778116,-0.6451359999999999,151.41,-201.7925,-92.68001
1569,165914,0.8335040000000001,0.7327321,-0.6649,146.5975,-200.4975,-103.95
1570,166012,0.9098761000000001,0.6912520000000001,-0.662704,139.37,-200.585,-112.7875
1571,166110,0.9862479999999999,0.6722199999999999,-0.655628,131.4425,-200.69,-116.4975
1572,166208,1.032608,0.679784,-0.6422081000000001,124.985,-199.045,-115.01
1573,166306,1.040416,0.715408,-0.6168319999999999,120.1025,-194.915,-110.3025
1574,166404,1.0565200000000001,0.7539600000000001,-0.618784,116.34,-188.3525,-103.985
1575,166502,1.073112,0.7722600000000001,-0.636352,110.4775,-181.125,-99.27750999999999
1576,166600,1.113372,0.785924,-0.6722199999999999,98.595,-175.5075,-100.6425
1577,166698,1.0979999999999999,0.8256960999999999,-0.657824,82.9325,-172.7075,-108.535
1578,166796,1.0643280000000002,0.8662001,-0.6202479999999999,69.9475,-169.435,-119.49
1579,166894,1.02724,0.8808401,-0.587796,64.3125,-162.2075,-130.76
1580,166992,1.047004,0.843508,-0.562664,65.2575,-151.655,-140.6825
1581,167091,0.9901521000000001,0.791292,-0.508252,67.55001,-139.1425,-150.395
1582,167189,0.9911281,0.7241920000000001,-0.49263599999999996,67.795,-125.02,-159.565
1583,167287,1.039684,0.661972,-0.49288000000000004,65.485,-110.1275,-167.825
1584,167385,1.05774,0.7046720999999999,-0.5172800999999999,59.675,-97.05501,-174.3875
1585,167483,1.082384,0.6392800000000001,-0.49898000000000003,58.8875,-84.42,-176.9425
1586,167581,1.226588,0.423828,-0.48702399999999996,54.04,-73.5875,-182.7
1587,167679,1.266848,0.362584,-0.443104,37.1875,-67.48001,-193.1125
1588,167777,1.3083280000000002,0.484096,-0.43798000000000004,19.39,-62.615,-197.4525
1589,167875,1.52134,0.634644,-0.43724799999999997,22.8725,-55.1775,-193.3575
1590,167973,1.677988,0.728096,-0.357216,41.5625,-51.0825,-188.4225
1591,168071,1.678964,0.6675840000000001,-0.18788,64.33,-51.52,-183.1725
1592,168169,1.642364,0.504592,0.060267999999999995,79.0475,-53.13,-174.9475
1593,168268,1.595516,0.340624,0.309148,74.9525,-52.29,-164.85
1594,168366,1.571116,0.2379,0.49556400000000006,54.4775,-44.5725,-152.32
1595,168464,1.581608,0.22106399999999998,0.5738880000000001,27.1075,-28.28,-137.3925
1596,168562,1.6291879999999999,0.249856,0.534116,3.15,-5.6875,-120.505
1597,168660,1.340536,0.036844,0.39967199999999997,-11.41,18.9175,-101.6225
1598,168758,1.6082040000000002,0.397476,0.8271601000000001,-0.63,53.76,-79.065
1599,168856,0.964532,0.704916,0.30134,28.28,92.1025,-59.045
1600,168954,0.52704,-0.1586,-1.128256,57.8725,120.5575,-61.88
1601,169052,0.41236000000000006,-0.26156799999999997,-1.7753439999999998,36.54,125.16,-90.70251
1602,169150,0.651968,-0.30256,-1.202676,-2.695,125.475,-114.24
1603,169248,0.984784,-0.379664,-0.735904,-15.8725,129.71,-97.8075
1604,169346,1.1733959999999999,-0.307196,-0.8437520000000001,-22.12,120.5575,-70.3675
1605,169444,1.139968,-0.21447600000000003,-1.2587959999999998,-21.35,99.015,-34.8075
1606,169542,1.1709559999999999,0.01464,-1.471076,-22.365,70.4025,-5.8625
1607,169641,0.8930401,0.193736,-1.032852,-23.59,39.1475,10.7625
1608,169739,0.652212,0.49117200000000005,-0.744688,-26.9675,23.17,10.8675
1609,169837,0.59292,0.62342,-0.808372,-19.775,20.65,8.8725
1610,169935,0.524356,0.55998,-0.793488,-8.54,19.6175,4.865
1611,170033,0.6141479999999999,0.417728,-0.8400921,1.855,20.4575,3.9725
1612,170131,0.667096,0.17446,-0.8520479999999999,11.34,17.9375,12.425
1613,170229,0.5897479999999999,0.129076,-0.8054439999999999,8.2775,10.1325,15.8025
1614,170327,0.562908,0.16592,-0.827892,3.36,7.2275,16.7475
1615,170425,0.658312,0.23253200000000002,-0.820816,-1.9775,6.195,12.81
1616,170523,0.632448,0.189344,-0.8081281,-2.1175,3.6925,7.3675
1617,170621,0.518012,0.20618000000000003,-0.7937320999999999,-5.6875,2.0125,2.7825
1618,170719,0.6009720000000001,0.234972,-0.8547319999999999,-4.6375,2.73,1.2775
1619,170817,0.559004,0.254492,-0.792512,-5.4425,1.4875,-0.525
1620,170915,0.547048,0.306464,-0.7903161,-3.6575,0.21,-0.9625
1621,171014,0.5429,0.34721199999999997,-0.77104,-1.5225,1.1025,-1.9425
1622,171112,0.5543680000000001,0.26108000000000003,-0.792756,2.7825,1.4525,-1.4875
1623,171210,0.543632,0.261324,-0.783728,3.9375,1.5225,0.245
1624,171308,0.561932,0.302804,-0.794952,5.3025,1.015,2.1875
1625,171406,0.553636,0.23228800000000002,-0.771528,6.335,0.5425,2.765
1626,171504,0.579256,0.231068,-0.809348,7.1575,-0.5775,3.5525
1627,171602,0.5565640000000001,0.23668000000000003,-0.792512,7.1575,-1.785,4.2525
1628,171700,0.5565640000000001,0.20105599999999998,-0.786656,8.19,-1.8025,4.935
1629,171798,0.557296,0.223992,-0.797148,9.625,-1.785,5.81
1630,171896,0.579012,0.219356,-0.8091041,11.0425,-2.3625,4.9525
1631,171994,0.5577840000000001,0.279868,-0.807396,10.045,-3.15,6.0725
1632,172092,0.584868,0.21886799999999998,-0.791292,9.2575,-4.0775,4.1125
1633,172190,0.5753520000000001,0.246928,-0.7883640000000001,7.7525,-5.0575,3.4475
1634,172288,0.571692,0.23253200000000002,-0.792512,6.825,-5.1275,2.8525
1635,172387,0.562176,0.22448,-0.794952,6.02,-6.37,1.1025
1636,172485,0.5702281,0.23741199999999998,-0.790072,4.8825,-6.58,-0.42
1637,172583,0.563396,0.23009200000000002,-0.791536,3.57,-6.405,-0.2975
1638,172681,0.56852,0.228384,-0.793976,1.96,-6.09,-0.385
1639,172779,0.559736,0.22448,-0.8003201,1.155,-6.0025,-0.2275
1640,172877,0.568032,0.23424,-0.793976,0.9975,-6.0025,-0.7175
1641,172975,0.564128,0.22057600000000002,-0.797392,1.2775,-6.1425,-1.3125
1642,173073,0.5675439999999999,0.223748,-0.791536,1.505,-6.1075,-1.54
1643,173171,0.565836,0.21862399999999999,-0.79178,1.96,-6.2475,-1.8025
1644,173269,0.564616,0.21667199999999998,-0.794708,2.1875,-6.23,-2.065
1645,173367,0.560956,0.217404,-0.790072,2.03,-5.915,-2.3625
1646,173465,0.563884,0.223016,-0.788608,1.7675,-5.7225,-2.5375
1647,173563,0.561688,0.211304,-0.7881199999999999,1.7675,-5.7575,-2.7825
1648,173661,0.565104,0.22326,-0.7903161,2.065,-5.9675,-2.9575
1649,173759,0.559004,0.221796,-0.791292,2.24,-6.0725,-3.01
1650,173858,0.556808,0.21813600000000002,-0.7937320999999999,2.0825,-5.9675,-3.0625
1651,173956,0.557296,0.21716,-0.794708,1.8025,-5.6525,-3.2375
1652,174054,0.554124,0.209596,-0.8039801,1.575,-5.1625,-3.29
1653,174152,0.5504641,0.24863600000000002,-0.7893399999999999,1.295,-4.8475,-3.1325
1654,174250,0.557296,0.21374400000000002,-0.791292,1.2075,-4.585,-3.4125
1655,174348,0.558028,0.221552,-0.788608,1.19,-4.62,-3.5525
1656,174446,0.5604680000000001,0.22472399999999998,-0.791292,1.2425,-4.6375,-3.185
1657,174544,0.560956,0.22667600000000002,-0.791536,1.155,-4.7425,-2.45
1658,174642,0.5502199999999999,0.22204000000000002,-0.791536,1.3825,-5.2675,-1.925
1659,174740,0.549488,0.22057600000000002,-0.7922680000000001,1.5575,-5.9675,-1.89
1660,174838,0.557052,0.23838800000000002,-0.79666,1.4525,-6.4575,-1.4
1661,174936,0.549488,0.22814,-0.803492,0.7875,-5.95,-0.1225
1662,175034,0.556808,0.231312,-0.798124,-0.21,-6.0375,-0.21
1663,175132,0.555832,0.22472399999999998,-0.7929999999999999,-0.6125,-6.2825,0.1925
1664,175230,0.558272,0.227408,-0.792024,-0.3675,-6.5975,-0.1925
1665,175328,0.560956,0.21862399999999999,-0.793488,-0.8225,-6.0725,0.4375
1666,175427,0.561688,0.219356,-0.800564,-0.63,-6.125,0.035
1667,175525,0.558272,0.228384,-0.791048,-0.14,-6.1775,-0.63
1668,175623,0.557296,0.23253200000000002,-0.803248,-0.7175,-5.8275,0.0175
1669,175721,0.55632,0.219112,-0.7986121,-0.14,-5.705,0.0525
1670,175819,0.5587601,0.213256,-0.79056,-0.2625,-5.6175,-0.4725
1671,175917,0.558272,0.217648,-0.8039801,-0.5425,-5.32,-0.2975
1672,176015,0.555832,0.22057600000000002,-0.796416,-0.4725,-4.7775,0.0
1673,176113,0.558028,0.21472,-0.787632,-0.6475,-4.4275,0.0175
1674,176211,0.559004,0.21838000000000002,-0.8086161000000001,-0.56,-3.99,-0.245
1675,176309,0.5604680000000001,0.214964,-0.809348,-0.4375,-3.6225,-0.3325
1676,176407,0.552904,0.214964,-0.789828,-0.35,-2.975,-0.7525
1677,176505,0.550952,0.203252,-0.787876,-0.525,-2.66,-0.9975
1678,176604,0.558516,0.203984,-0.784704,-0.3675,-2.065,-1.26
1679,176702,0.557052,0.20252,-0.789828,-0.665,-1.3475,-1.6275
1680,176800,0.5612,0.203252,-0.787632,-0.805,-0.4725,-1.855
1681,176898,0.5655920999999999,0.20178800000000002,-0.79422,-1.1025,0.2975,-2.2225
1682,176996,0.5648601,0.21716,-0.8117880000000001,-1.3825,1.015,-2.45
1683,177094,0.570472,0.229116,-0.822524,-2.065,1.9425,-2.4325
1684,177192,0.55266,0.23009200000000002,-0.790804,-2.73,2.8,-2.45
1685,177290,0.542412,0.214232,-0.759572,-3.675,4.2,-2.6775
1686,177388,0.5736441,0.2074,-0.814472,-5.845,6.055,-2.5725
1687,177486,0.5575399999999999,0.227408,-0.8054439999999999,-7.42,7.735,-2.52
1688,177584,0.552172,0.219844,-0.794952,-10.22,11.4275,-2.2575
1689,177682,0.561688,0.22106399999999998,-0.8003201,-11.7425,14.9275,-1.82
1690,177780,0.532652,0.208132,-0.828624,-11.235,19.53,-2.2925
1691,177878,0.542412,0.22862800000000003,-0.8071520000000001,-9.87,26.3725,-2.9925
1692,177976,0.554124,0.221552,-0.8108121,-12.2325,34.895,-3.7275
1693,178075,0.5511961,0.221308,-0.8100801,-13.0025,42.315,-4.095
1694,178173,0.564372,0.22423600000000002,-0.8081281,-14.105,51.73,-4.585
1695,178271,0.590968,0.22106399999999998,-0.8049561,-14.385,60.655,-5.705
1696,178369,0.590724,0.22057600000000002,-0.809348,-13.125,69.16,-7.7
1697,178467,0.599264,0.22326,-0.80886,-10.675,77.54251,-9.975
1698,178565,0.612196,0.239364,-0.787876,-8.3825,85.97751,-10.99
1699,178663,0.6168319999999999,0.2501,-0.787632,-5.6175,95.235,-12.88
1700,178761,0.60146,0.25058800000000003,-0.754448,-3.955,104.5975,-12.4075
1701,178859,0.6034121,0.23887600000000003,-0.749568,-5.285,114.1525,-11.2875
1702,178957,0.598532,0.227408,-0.752008,-5.6,122.045,-8.5575
1703,179055,0.66368,0.271328,-0.724436,-4.0075,129.3775,-8.6975
1704,179153,0.7168720000000001,0.267912,-0.7183361,-0.6825,135.6775,-5.6
1705,179251,0.7320001,0.274744,-0.7190681,3.1675,141.3125,0.0
1706,179349,0.740052,0.303048,-0.7515201,7.1575,146.9825,4.27
1707,179447,0.72468,0.26913200000000004,-0.7639640999999999,14.7525,151.7425,7.07
1708,179545,0.764452,0.270108,-0.785924,22.89,157.8675,6.685
1709,179643,0.757376,0.24912399999999998,-0.75762,33.285,165.6025,6.0725
1710,179742,0.763232,0.21813600000000002,-0.7812880999999999,44.7125,173.6875,1.9425
1711,179840,0.8296,0.293044,-0.8235001000000001,58.2575,182.0525,-1.855
1712,179938,0.8420440999999999,0.31842,-0.840824,75.35501,190.3475,-2.695
1713,180036,0.8669319999999999,0.32208000000000003,-0.8276481,96.4775,197.89,-3.0975
1714,180134,0.8754719999999999,0.307196,-0.818376,117.8625,206.08,-4.4975
1715,180232,0.8725440999999999,0.2867,-0.796416,139.37,214.725,-6.9825
1716,180330,0.8605879999999999,0.29133600000000004,-0.7890961,159.18,223.5275,-10.22
1717,180428,0.821304,0.288652,-0.754692,177.5025,231.7875,-14.175
1718,180526,0.818132,0.329156,-0.750544,196.315,239.1725,-19.3025
1719,180624,0.8115439999999999,0.35087199999999996,-0.7068681,219.6425,245.525,-22.3475
1720,180722,0.793244,0.370636,-0.6917399999999999,246.8725,249.62,-21.5075
1721,180820,0.8518040000000001,0.41723999999999994,-0.73078,273.945,252.28,-20.2825
1722,180918,0.968924,0.42748800000000003,-0.8866961,296.6775,246.4525,-22.47
1723,181016,1.062132,0.081984,-1.5523280000000002,302.6625,215.0575,-31.3775
1724,181114,0.565836,-0.64172,-1.547448,265.58,130.34,-24.57
1725,181213,1.642608,-0.32452,-2.350452,176.19,36.3475,-15.645
1726,181311,0.6197600000000001,-0.018788,-1.58356,110.2675,-62.8075,5.18
1727,181409,0.17934,0.09516001,-1.08336,84.385,-109.83,49.315
