,T,ax,ay,az,gx,gy,gz
0,4222323,0.9076799999999999,-0.06380599999999999,-0.029158,20.5275,-19.565,-18.445
1,4222464,0.9638,-0.020374,-0.10394400000000001,-77.84,2.31,-74.69
2,4222561,1.0200420000000001,-0.010248,-0.09259801,-55.4225,-70.8925,-124.18
3,4222658,0.9950319999999999,-0.011224,-0.06112201,28.07,-94.7625,-52.0975
4,4222754,0.9520881,-0.033794,-0.0671,-0.4375,-1.0675,-4.8825
5,4222851,0.945866,-0.026474,-0.087474,-9.1,-0.98,-3.64
6,4222948,0.978684,-0.01586,-0.108458,-11.725,-6.7375,-2.625
7,4223044,1.003206,-0.013908000000000002,-0.128588,-8.0675,-14.0,-0.875
8,4223141,1.0060120000000001,-0.023912,-0.141398,-6.51,-15.3475,-0.07
9,4223238,1.001132,-0.016225999999999997,-0.11577799999999999,-8.47,-13.9475,0.245
10,4223335,1.001742,-0.013054,-0.188246,-11.1475,-18.655,1.4
11,4223431,1.012966,-0.035013999999999997,-0.191418,-6.37,-30.065,3.29
12,4223528,1.037,-0.028669999999999998,-0.17848599999999998,-1.4,-40.8275,4.41
13,4223625,1.0706719999999998,-0.016347999999999998,-0.15201199999999998,5.3725,-49.805,4.585
14,4223722,1.0967799999999999,-0.028426,-0.163602,10.36,-59.9725,2.2925
15,4223818,1.086288,-0.059658,-0.169458,7.28,-70.5075,-1.05
16,4223915,1.0176020000000001,-0.449082,0.403088,-7.0175,-78.55751,-3.045
17,4224012,1.023824,0.274988,-0.35526399999999997,-56.84,-53.7775,2.1875
18,4224109,0.93147,-0.13054000000000002,-0.137494,-24.7975,-49.1575,-21.35
19,4224205,0.5949939999999999,0.13115,0.12053599999999999,-45.4825,-49.0,-28.9275
20,4224302,1.14741,-0.065514,-0.379054,-93.555,-38.5525,-54.3025
21,4224399,1.138992,-0.053070000000000006,-0.370636,-88.32251,-11.165,-68.95
22,4224495,0.588406,0.11138599999999999,-0.34038,-82.32,-25.9175,-60.0425
23,4224592,0.49910200000000005,0.18141400000000002,0.709918,104.8075,-6.93,59.6925
24,4224689,1.2221959999999998,-0.189344,-0.9707541,52.71,111.7025,3.92
25,4224786,1.247572,0.129198,-0.260714,-59.0625,53.1825,-5.3025
26,4224882,0.89975,0.005612,-0.0017079999999999999,4.1125,-55.2475,-1.155
27,4224979,0.888648,-0.066124,-0.177876,16.52,-34.9825,-0.21
28,4225076,1.0237020000000001,0.042822000000000006,-0.19032000000000002,-13.0725,14.805,-4.3575
29,4225173,1.0117459999999998,-0.007076001,-0.197884,0.875,5.985,-3.99
30,4225269,0.969412,0.011956,-0.20178800000000002,0.8575,-11.9,-3.255
31,4225366,0.969534,0.0244,-0.144814,-3.3775,-9.4325,-3.535
32,4225463,0.9934460999999999,0.010004,-0.18727,1.1025,-3.01,-3.5525
33,4225559,0.9961300999999999,0.020984,-0.17836400000000002,-1.0675,-4.34,-3.5
34,4225656,0.989176,0.018544,-0.163602,-0.5075,-7.0,-3.36
35,4225753,0.9939341,0.014152000000000001,-0.162626,0.1225,-6.2475,-3.36
36,4225850,0.9977159999999999,0.008906,-0.160552,0.28,-5.8275,-3.3425
37,4225946,0.996008,0.002562,-0.160796,0.2975,-6.1775,-3.4475
38,4226043,0.993202,0.001586,-0.15982000000000002,0.07,-6.335,-3.5875
39,4226140,0.989664,0.00183,-0.16165,0.0875,-6.125,-3.6925
40,4226237,0.9857600000000001,0.003782,-0.165798,0.105,-5.9325,-3.5875
41,4226333,0.9797819999999999,0.004758,-0.164456,0.0175,-5.985,-3.36
42,4226430,0.975878,0.0061,-0.167994,0.2275,-5.845,-3.2375
43,4226527,0.9734381,0.0035380000000000003,-0.16811600000000002,0.315,-5.5125,-3.255
44,4226623,0.9725841000000001,0.001464,-0.168848,0.35,-5.2675,-3.325
45,4226720,0.9736819999999999,-0.0008540001,-0.170068,0.4375,-5.215,-3.465
46,4226817,0.9764879999999999,-0.002928,-0.168726,0.245,-5.11,-3.64
47,4226914,0.978928,-0.004026,-0.165798,0.0875,-5.0225,-3.78
48,4227010,0.9821,-0.005978,-0.163236,-0.0525,-5.0225,-3.9375
49,4227107,0.9833200000000001,-0.007564001,-0.160552,-0.3675,-5.0225,-3.92
50,4227204,0.9886881,-0.008784,-0.158478,-0.7875,-4.9875,-3.9025
51,4227301,0.9913719999999999,-0.008174001,-0.15701400000000001,-1.225,-5.0925,-3.8675
52,4227397,0.9952761,-0.008540001,-0.156526,-1.645,-5.215,-3.675
53,4227494,0.9967401,-0.007076001,-0.15237799999999999,-2.135,-5.3025,-3.3425
54,4227591,0.99735,-0.007442,-0.152134,-2.5025,-5.53,-3.255
55,4227687,0.996374,-0.003904,-0.153354,-2.73,-5.74,-2.9925
56,4227784,0.9950319999999999,-0.00244,-0.15555,-2.8875,-5.67,-2.7825
57,4227881,0.992348,-0.00183,-0.158722,-2.87,-5.53,-2.6775
58,4227978,0.9901521000000001,0.004514,-0.160064,-2.87,-5.5125,-2.625
59,4228074,0.988566,0.00671,-0.16165,-2.7825,-5.6175,-2.555
60,4228171,0.987712,0.009882,-0.162504,-2.6075,-5.635,-2.5025
61,4228268,0.985516,0.010858,-0.162748,-2.2925,-5.67,-2.4675
62,4228365,0.984784,0.009394,-0.163724,-2.0475,-5.67,-2.52
63,4228461,0.9836860999999999,0.007076001,-0.165676,-2.065,-5.67,-2.6425
64,4228558,0.9850280999999999,0.007564001,-0.16592,-2.1525,-5.6525,-2.6775
65,4228655,0.984784,0.009394,-0.163236,-2.1,-5.7575,-2.87
66,4228752,0.986858,0.00976,-0.163602,-1.995,-5.7575,-2.9225
67,4228848,0.9878341,0.011101999999999999,-0.161406,-2.0125,-5.81,-2.9225
68,4228945,0.9874681000000001,0.011712,-0.159332,-1.8725,-5.8975,-2.905
69,4229042,0.9889319999999999,0.011712,-0.158844,-1.89,-5.9325,-2.975
70,4229138,0.988566,0.011834,-0.15506199999999998,-1.8375,-6.0725,-3.08
71,4229235,0.9888101,0.009150001,-0.15396400000000002,-1.75,-6.02,-2.975
72,4229332,0.989176,0.007442,-0.155672,-1.8025,-5.985,-3.01
73,4229429,0.987224,0.005734,-0.154086,-1.785,-5.9325,-3.0625
74,4229525,0.9863700000000001,0.00488,-0.156038,-1.715,-5.8625,-2.94
75,4229622,0.9846620999999999,0.003904,-0.158356,-1.8725,-5.775,-2.94
76,4229719,0.9834421,0.004392,-0.158112,-1.9425,-5.67,-2.9575
77,4229816,0.981612,0.004514,-0.158478,-1.96,-5.5125,-2.9575
78,4229912,0.98149,0.005002,-0.158722,-1.925,-5.565,-3.0275
79,4230009,0.9831981,0.00671,-0.15762400000000001,-1.925,-5.5475,-3.045
80,4230106,0.9845401,0.008906,-0.156038,-1.9075,-5.46,-3.0975
81,4230203,0.9861260000000001,0.012931999999999999,-0.15372,-1.82,-5.53,-3.185
82,4230299,0.987712,0.014518000000000001,-0.15433,-1.61,-5.5475,-3.22
83,4230396,0.9890540000000001,0.015128,-0.1525,-1.3125,-5.6175,-3.2025
84,4230493,0.9884440000000001,0.013908000000000002,-0.150304,-1.0325,-5.6,-3.255
85,4230590,0.987956,0.012444,-0.149572,-0.8925,-5.5125,-3.185
86,4230686,0.9886881,0.009516001,-0.149206,-0.805,-5.39,-3.29
87,4230783,0.986858,0.004636001,-0.150304,-0.875,-5.285,-3.2725
88,4230880,0.9864921,0.002196,-0.151646,-1.015,-5.2325,-3.325
89,4230976,0.9869800999999999,0.00061,-0.155184,-1.2075,-5.215,-3.3425
90,4231073,0.9853940999999999,0.003172,-0.155916,-1.47,-5.11,-3.3425
91,4231170,0.9867360999999999,0.003904,-0.155306,-1.645,-5.0575,-3.2725
92,4231267,0.9883221,0.005978,-0.156526,-1.75,-5.04,-3.185
93,4231363,0.9901521000000001,0.008906,-0.15555,-1.8025,-5.215,-3.15
94,4231460,0.992348,0.010492,-0.155184,-1.75,-5.285,-3.185
95,4231557,0.992348,0.011712,-0.153354,-1.575,-5.3725,-3.0975
96,4231654,0.992714,0.013908000000000002,-0.152988,-1.3125,-5.4075,-3.0975
97,4231750,0.990518,0.01769,-0.1525,-1.015,-5.5125,-3.08
98,4231847,0.9901521000000001,0.018422,-0.15189,-0.5075,-5.5825,-3.15
99,4231944,0.9883221,0.017934000000000002,-0.151158,-0.14,-5.67,-3.255
100,4232041,0.9911281,0.015128,-0.15128,0.315,-5.705,-3.36
101,4232137,0.9894200000000001,0.014152000000000001,-0.151036,0.63,-5.7575,-3.4475
102,4232234,0.989664,0.012688,-0.150304,0.91,-5.8275,-3.5175
103,4232331,0.9878341,0.007320001,-0.151646,0.945,-5.81,-3.4125
104,4232427,0.987224,0.006832001,-0.154086,0.9625,-5.6875,-3.325
105,4232524,0.9857600000000001,0.005002,-0.15189,0.91,-5.5475,-3.2725
106,4232621,0.9846620999999999,0.005002,-0.15176800000000001,0.8575,-5.67,-3.0975
107,4232718,0.983808,0.0034159999999999998,-0.153354,0.875,-5.46,-3.0275
108,4232814,0.9818561,0.0017079999999999999,-0.15506199999999998,0.7175,-5.355,-3.01
109,4232911,0.9818561,0.000488,-0.15677,0.595,-5.215,-3.08
110,4233008,0.984296,0.001464,-0.15555,0.2625,-5.11,-3.1325
111,4233105,0.9850280999999999,0.002928,-0.15701400000000001,0.035,-5.18,-3.185
112,4233201,0.9873460999999999,0.005978,-0.157868,-0.1575,-5.18,-3.1325
113,4233298,0.9906401,0.008174001,-0.15725799999999998,-0.35,-5.2675,-3.1675
114,4233395,0.9916161,0.011224,-0.154696,-0.35,-5.3725,-3.1675
115,4233492,0.9910059999999999,0.013297999999999999,-0.15433,-0.2975,-5.5475,-3.1675
116,4233588,0.9895421,0.012444,-0.15311,-0.245,-5.6175,-3.1325
117,4233685,0.989176,0.008784,-0.15372,-0.2625,-5.7225,-3.2375
118,4233782,0.9874681000000001,0.007564001,-0.152256,-0.1925,-5.775,-3.2725
119,4233878,0.984784,0.0064659999999999995,-0.15494000000000002,-0.2275,-5.67,-3.29
120,4233975,0.983808,0.00427,-0.155916,-0.3325,-5.635,-3.36
121,4234072,0.9840521000000001,0.00183,-0.157502,-0.5075,-5.4775,-3.4125
122,4234169,0.9862479999999999,0.00061,-0.15738,-0.7,-5.1275,-3.395
123,4234265,0.9864921,-0.000488,-0.158478,-0.945,-5.0575,-3.36
124,4234362,0.9874681000000001,0.002074,-0.158356,-1.0675,-5.0575,-3.15
125,4234459,0.9883221,0.004758,-0.156892,-1.295,-4.9875,-3.0975
126,4234556,0.9883221,0.00793,-0.15799000000000002,-1.225,-5.005,-3.01
127,4234652,0.987712,0.011346,-0.15725799999999998,-1.05,-5.0925,-2.9575
128,4234749,0.9888101,0.015616,-0.159576,-0.735,-5.005,-3.0275
129,4234846,0.9886881,0.017812,-0.160186,-0.3325,-5.0925,-2.9925
130,4234943,0.9878341,0.018544,-0.160796,0.2275,-5.2675,-3.08
131,4235039,0.9873460999999999,0.017446,-0.160796,0.6825,-5.4775,-3.115
132,4235136,0.98759,0.016592,-0.158966,0.98,-5.6525,-3.22
133,4235233,0.9869800999999999,0.013541999999999998,-0.160552,1.4525,-5.74,-3.325
134,4235329,0.9863700000000001,0.010492,-0.159698,1.7675,-5.7925,-3.4475
135,4235426,0.9867360999999999,0.007198,-0.158722,2.065,-5.8275,-3.5175
136,4235523,0.9853940999999999,0.00427,-0.159576,2.1175,-5.8275,-3.4475
137,4235620,0.9858819999999999,-0.001464,-0.162626,2.03,-5.7925,-3.43
138,4235716,0.987224,-0.002318,-0.16201600000000002,1.785,-5.81,-3.4475
139,4235813,0.98759,-0.0032939999999999996,-0.158966,1.4175,-5.88,-3.5175
140,4235910,0.9878341,-0.0035380000000000003,-0.157746,1.26,-5.9325,-3.4825
141,4236007,0.98759,-0.0035380000000000003,-0.15616,0.945,-5.845,-3.3075
142,4236103,0.989664,-0.003172,-0.156404,0.5075,-5.775,-3.29
143,4236200,0.9894200000000001,-0.002562,-0.15701400000000001,0.105,-5.705,-3.1325
144,4236297,0.98759,0.001586,-0.158112,-0.1575,-5.7575,-3.0275
145,4236393,0.986614,0.004758,-0.15945399999999998,-0.4375,-5.7575,-3.045
146,4236490,0.984296,0.006832001,-0.160552,-0.6125,-5.7225,-2.9925
147,4236587,0.983808,0.009516001,-0.160674,-0.665,-5.775,-2.905
148,4236684,0.9851501,0.010736,-0.161406,-0.7525,-5.8625,-2.94
149,4236780,0.9834421,0.011468,-0.160796,-0.595,-5.845,-2.9575
150,4236877,0.984296,0.010248,-0.16043,-0.42,-5.775,-2.9575
151,4236974,0.984174,0.007442,-0.160674,-0.2625,-5.6525,-3.01
152,4237071,0.9836860999999999,0.009394,-0.16165,-0.245,-5.565,-3.185
153,4237167,0.984906,0.008418,-0.163602,-0.245,-5.6,-3.22
154,4237264,0.9862479999999999,0.009028000999999999,-0.16409,-0.1225,-5.6,-3.2375
155,4237361,0.987102,0.011590000000000001,-0.164578,-0.0525,-5.425,-3.2375
156,4237457,0.98759,0.012931999999999999,-0.16201600000000002,0.2625,-5.4775,-3.255
157,4237554,0.9890540000000001,0.012931999999999999,-0.160552,0.4375,-5.5125,-3.255
158,4237651,0.990274,0.012078,-0.16104000000000002,0.56,-5.46,-3.3075
159,4237748,0.9911281,0.010492,-0.160796,0.7,-5.425,-3.325
160,4237844,0.9895421,0.00793,-0.160796,0.6475,-5.4775,-3.325
161,4237941,0.987102,0.005856,-0.160918,0.5775,-5.495,-3.29
162,4238038,0.9850280999999999,0.004636001,-0.161894,0.4725,-5.5825,-3.29
163,4238134,0.9833200000000001,0.005734,-0.161772,0.49,-5.6525,-3.36
164,4238231,0.9852719999999999,0.007442,-0.16165,0.3325,-5.81,-3.185
165,4238328,0.9863700000000001,0.008174001,-0.161894,0.2975,-5.9325,-3.115
166,4238425,0.9873460999999999,0.010614,-0.16128399999999998,0.2625,-5.985,-3.1325
167,4238521,0.9883221,0.008906,-0.159698,0.2275,-6.125,-3.045
168,4238618,0.9861260000000001,0.008296000999999999,-0.16104000000000002,0.28,-6.0725,-2.9225
169,4238715,0.9857600000000001,0.005246,-0.160552,0.1925,-6.055,-2.87
170,4238811,0.9851501,0.0051240009999999996,-0.161894,0.0,-5.985,-2.905
171,4238908,0.9840521000000001,0.005246,-0.163602,-0.07,-5.88,-2.9225
172,4239005,0.981978,0.005734,-0.163724,-0.2975,-5.81,-2.8875
173,4239102,0.981124,0.007076001,-0.164212,-0.49,-5.7225,-2.975
174,4239198,0.981978,0.007076001,-0.162626,-0.595,-5.845,-2.9575
175,4239295,0.98393,0.008784,-0.163114,-0.7,-5.7925,-3.01
176,4239392,0.9882001,0.009272001,-0.159942,-0.875,-5.915,-2.94
177,4239488,0.9911281,0.014274,-0.15701400000000001,-1.05,-6.0725,-2.975
178,4239585,0.993568,0.015982,-0.15616,-0.9625,-6.2125,-2.975
179,4239682,0.9924700000000001,0.014396,-0.15579400000000002,-0.77,-6.125,-3.045
180,4239779,0.989176,0.011956,-0.15396400000000002,-0.455,-6.0025,-3.0975
181,4239875,0.986858,0.010492,-0.153476,-0.49,-5.88,-3.2025
182,4239972,0.9864921,0.009637999999999999,-0.155428,-0.49,-5.7225,-3.2375
183,4240069,0.9840521000000001,0.009394,-0.156892,-0.5075,-5.7225,-3.325
184,4240166,0.9821,0.011956,-0.159576,-0.35,-5.4425,-3.1675
185,4240262,0.980514,0.0122,-0.160064,-0.14,-5.215,-3.115
186,4240359,0.9795381,0.013175999999999998,-0.161528,0.105,-5.11,-3.01
187,4240456,0.9790501,0.012444,-0.164578,0.3675,-4.8825,-2.9925
188,4240553,0.978684,0.011590000000000001,-0.16530999999999998,0.63,-4.69,-2.975
189,4240649,0.979294,0.011712,-0.165798,0.6825,-4.585,-2.975
190,4240746,0.98088,0.012078,-0.164578,0.805,-4.4625,-3.2025
191,4240843,0.9850280999999999,0.011468,-0.164944,1.0675,-4.48,-3.2725
192,4240940,0.987224,0.010614,-0.16592,1.2775,-4.4975,-3.2725
193,4241036,0.9883221,0.010248,-0.163358,1.2775,-4.515,-3.395
194,4241133,0.990518,0.007198,-0.16128399999999998,1.2425,-4.7425,-3.325
195,4241230,0.9911281,0.0064659999999999995,-0.159576,1.2075,-4.8475,-3.2725
196,4241327,0.9921040999999999,0.0035380000000000003,-0.160552,1.1375,-5.04,-3.2375
197,4241423,0.9934460999999999,0.002074,-0.158356,0.8400001,-5.3375,-3.08
198,4241520,0.9949100000000001,0.002318,-0.157746,0.735,-5.5125,-3.0975
199,4241617,0.992348,0.001098,-0.15701400000000001,0.665,-5.7575,-2.9925
200,4241713,0.9916161,0.003782,-0.15738,0.42,-5.8975,-2.9575
201,4241810,0.988566,0.004636001,-0.16043,0.3325,-5.915,-2.8875
202,4241907,0.984906,0.004026,-0.162138,0.315,-5.8275,-2.9225
203,4242004,0.981978,0.004026,-0.162992,0.175,-5.915,-2.9225
204,4242100,0.9817341,0.003904,-0.163968,0.14,-5.6525,-2.94
205,4242197,0.9799041,0.002318,-0.16689600000000002,0.2975,-5.6,-3.01
206,4242294,0.9784401,0.001098,-0.167628,0.3325,-5.53,-3.115
207,4242391,0.9768540000000001,-0.000122,-0.167872,0.2975,-5.39,-3.29
208,4242487,0.976366,0.00183,-0.16689600000000002,0.1925,-5.3025,-3.2725
209,4242584,0.9777081,0.001952,-0.165432,0.0525,-5.145,-3.43
210,4242681,0.981124,0.003782,-0.164944,0.0,-5.1275,-3.5
211,4242778,0.9845401,0.00671,-0.16287000000000001,-0.0875,-5.2325,-3.4125
212,4242874,0.9863700000000001,0.007564001,-0.15982000000000002,-0.07,-5.32,-3.3775
213,4242971,0.9892981,0.007686,-0.158112,-0.1575,-5.285,-3.325
214,4243068,0.990884,0.00793,-0.157868,-0.105,-5.3025,-3.2025
215,4243165,0.992348,0.007320001,-0.155672,0.0525,-5.355,-3.2375
216,4243261,0.992592,0.009028000999999999,-0.154696,0.21,-5.32,-3.185
217,4243358,0.9917379999999999,0.01037,-0.154818,0.3675,-5.3025,-3.22
218,4243455,0.9900300999999999,0.009516001,-0.156282,0.595,-5.2675,-3.22
219,4243552,0.98759,0.009516001,-0.15921,0.77,-5.0925,-3.1325
220,4243648,0.9851501,0.008784,-0.15921,0.91,-5.005,-3.185
221,4243745,0.984906,0.007320001,-0.16128399999999998,1.12,-5.075,-3.255
222,4243842,0.9851501,0.005978,-0.163724,1.19,-5.005,-3.2375
223,4243938,0.985516,0.004636001,-0.162504,1.3125,-5.075,-3.36
224,4244035,0.9863700000000001,0.003782,-0.1647,1.3825,-5.1975,-3.325
225,4244132,0.9863700000000001,0.001952,-0.164456,1.26,-5.1975,-3.325
226,4244229,0.9862479999999999,0.002196,-0.163724,1.1025,-5.215,-3.325
227,4244325,0.9853940999999999,0.000244,-0.16409,1.0675,-5.3025,-3.3075
228,4244422,0.9858819999999999,0.000122,-0.163358,0.8925,-5.5125,-3.2725
229,4244519,0.986858,-0.00122,-0.160308,0.735,-5.5825,-3.2025
230,4244616,0.9874681000000001,0.000732,-0.158112,0.3675,-5.67,-3.0975
231,4244712,0.9884440000000001,-0.0017079999999999999,-0.158356,0.14,-5.6525,-3.115
232,4244809,0.9906401,0.000488,-0.155916,-0.0525,-5.6,-3.0625
233,4244906,0.9886881,-0.00122,-0.15677,-0.28,-5.635,-3.08
234,4245002,0.9884440000000001,0.001952,-0.156038,-0.3675,-5.635,-3.045
235,4245099,0.9864921,0.004758,-0.156648,-0.56,-5.6,-3.08
236,4245196,0.985516,0.004392,-0.158112,-0.56,-5.6175,-3.0625
237,4245293,0.9846620999999999,0.0064659999999999995,-0.157868,-0.63,-5.46,-3.115
238,4245389,0.983564,0.006954000000000001,-0.159942,-0.56,-5.46,-3.08
239,4245486,0.9828321,0.008540001,-0.160308,-0.525,-5.565,-3.1325
240,4245583,0.981978,0.007076001,-0.160674,-0.5425,-5.39,-3.1325
241,4245680,0.9833200000000001,0.006832001,-0.160552,-0.4725,-5.3725,-3.115
242,4245776,0.9845401,0.007564001,-0.162748,-0.5075,-5.32,-3.115
243,4245873,0.9860040999999999,0.010004,-0.161772,-0.4375,-5.3025,-3.185
244,4245970,0.9860040999999999,0.012078,-0.161406,-0.3325,-5.3375,-3.115
245,4246066,0.9861260000000001,0.013054,-0.15982000000000002,-0.1575,-5.4425,-3.0975
246,4246163,0.987102,0.014152000000000001,-0.160796,0.0875,-5.5825,-3.1325
247,4246260,0.9882001,0.011712,-0.161162,0.14,-5.635,-3.1325
248,4246357,0.990518,0.00793,-0.159088,0.07,-5.7575,-3.08
249,4246453,0.9921040999999999,0.007198,-0.15799000000000002,0.0,-5.985,-2.9925
250,4246550,0.9928360999999999,0.005246,-0.155672,0.1225,-5.95,-3.0625
251,4246647,0.989908,-0.000976,-0.158722,0.1925,-5.9675,-3.0275
252,4246744,0.9864921,-0.002928,-0.158966,0.0,-5.8975,-3.01
253,4246840,0.9852719999999999,-0.003172,-0.16128399999999998,-0.3325,-5.7925,-3.08
254,4246937,0.9861260000000001,-0.0008540001,-0.162138,-0.4725,-5.7225,-3.2025
255,4247034,0.9853940999999999,0.003782,-0.16226,-0.7,-5.565,-3.1325
256,4247131,0.9827101,0.008906,-0.162138,-0.77,-5.4775,-3.045
257,4247227,0.98393,0.011956,-0.161162,-0.735,-5.425,-2.9925
258,4247324,0.9827101,0.011834,-0.15945399999999998,-0.5775,-5.25,-2.9225
259,4247421,0.98149,0.011590000000000001,-0.161528,-0.42,-5.145,-2.9925
260,4247518,0.9825879999999999,0.011712,-0.159942,-0.3675,-5.0575,-2.975
261,4247614,0.9823440999999999,0.010492,-0.15921,-0.3675,-5.005,-3.01
262,4247711,0.9823440999999999,0.008174001,-0.159332,-0.35,-4.9875,-3.0625
263,4247808,0.9828321,0.008662000999999999,-0.161406,-0.4375,-5.04,-3.01
264,4247905,0.984906,0.0061,-0.160796,-0.525,-5.1275,-3.15
265,4248001,0.9857600000000001,0.00671,-0.160674,-0.63,-5.1275,-3.045
266,4248098,0.986858,0.005612,-0.162138,-0.735,-5.32,-2.975
267,4248195,0.9860040999999999,0.005246,-0.16128399999999998,-0.875,-5.2325,-3.045
268,4248292,0.9862479999999999,0.004636001,-0.16128399999999998,-0.98,-5.355,-2.9925
269,4248388,0.987712,0.004758,-0.15921,-1.2075,-5.425,-3.0625
270,4248485,0.9897860999999999,0.005856,-0.15921,-1.365,-5.565,-2.94
271,4248582,0.9918600000000001,0.007320001,-0.159088,-1.33,-5.635,-2.8875
272,4248678,0.990884,0.00976,-0.159698,-1.54,-5.6525,-2.8175
273,4248775,0.990274,0.011346,-0.160674,-1.645,-5.8275,-2.7825
274,4248872,0.9863700000000001,0.012931999999999999,-0.16128399999999998,-1.6975,-5.8975,-2.835
275,4248969,0.988078,0.01281,-0.162382,-1.6275,-5.88,-2.835
276,4249065,0.9869800999999999,0.012078,-0.162504,-1.435,-5.9675,-2.905
277,4249162,0.9861260000000001,0.011346,-0.164212,-1.3125,-6.0375,-3.01
278,4249259,0.98759,0.009394,-0.163602,-1.4,-6.23,-3.15
279,4249356,0.987224,0.009028000999999999,-0.164212,-1.3475,-6.2475,-3.2375
280,4249452,0.9852719999999999,0.009882,-0.165188,-1.4,-6.2825,-3.2725
281,4249549,0.9861260000000001,0.010736,-0.166652,-1.33,-6.3525,-3.22
282,4249646,0.987102,0.012688,-0.166774,-1.33,-6.6325,-3.15
283,4249743,0.987956,0.015372,-0.165554,-1.26,-6.79,-3.1325
284,4249839,0.987712,0.0183,-0.16652999999999998,-1.12,-7.07,-2.9575
285,4249936,0.9889319999999999,0.018422,-0.16530999999999998,-0.875,-7.35,-2.8175
286,4250033,0.987956,0.020618,-0.16433399999999998,-0.665,-7.6825,-2.8525
287,4250130,0.9890540000000001,0.02196,-0.163968,-0.455,-7.8575,-2.905
288,4250226,0.9878341,0.021838,-0.163602,-0.245,-8.085,-2.94
289,4250323,0.9858819999999999,0.020130000000000002,-0.16530999999999998,-0.1925,-8.1725,-2.94
290,4250420,0.984174,0.021106,-0.165676,-0.07,-8.0325,-2.8175
291,4250516,0.9821,0.019764,-0.168604,0.0,-7.91,-2.7825
292,4250613,0.9812460999999999,0.019764,-0.171166,-0.0175,-7.6125,-2.73
293,4250710,0.9797819999999999,0.017934000000000002,-0.170922,-0.0525,-7.4725,-2.6775
294,4250807,0.979416,0.016592,-0.17238599999999998,-0.035,-7.49,-2.6425
295,4250903,0.981002,0.017568,-0.1708,-0.1925,-7.5775,-2.695
296,4251000,0.9840521000000001,0.01891,-0.170068,-0.4025,-7.7875,-2.695
297,4251097,0.98759,0.022203999999999998,-0.167994,-0.5425,-7.9625,-2.8175
298,4251194,0.988078,0.024644,-0.166774,-0.49,-8.05,-2.87
299,4251290,0.9883221,0.024766,-0.166286,-0.42,-8.085,-2.7825
300,4251387,0.987712,0.024278,-0.165188,-0.385,-7.945,-2.7475
301,4251484,0.9853940999999999,0.021838,-0.166164,-0.42,-7.8225,-2.66
302,4251581,0.98393,0.01952,-0.16811600000000002,-0.49,-7.525,-2.5375
303,4251677,0.9817341,0.018666,-0.168848,-0.7,-7.2625,-2.275
304,4251774,0.980758,0.01769,-0.169214,-0.875,-7.105,-2.17
305,4251871,0.98088,0.016104,-0.17128800000000002,-1.015,-6.9475,-1.995
306,4251968,0.9775860000000001,0.013786000000000001,-0.17238599999999998,-1.155,-6.755,-1.715
307,4252064,0.975512,0.014274,-0.17519200000000001,-1.155,-6.405,-1.4525
308,4252161,0.9729501,0.015372,-0.175558,-1.4,-6.09,-1.3125
309,4252258,0.9725841000000001,0.01708,-0.177876,-1.505,-5.9325,-1.155
310,4252355,0.9739261,0.019642,-0.184342,-1.5925,-5.74,-1.085
311,4252451,0.9761219999999999,0.022203999999999998,-0.185928,-1.715,-5.6875,-0.8575
312,4252548,0.9774639999999999,0.02196,-0.18775799999999998,-1.96,-5.7575,-0.875
313,4252645,0.978196,0.021228,-0.186416,-2.0475,-6.125,-0.7875
314,4252741,0.9833200000000001,0.018422,-0.185074,-2.3975,-6.58,-0.7525
315,4252838,0.9894200000000001,0.01647,-0.180194,-2.765,-7.105,-0.735
316,4252935,0.995398,0.015006,-0.17738800000000002,-3.15,-7.735,-0.7
317,4253032,0.9994241,0.012078,-0.17507,-3.5525,-8.295,-0.8575
318,4253128,1.0018639999999999,0.011834,-0.172996,-4.06,-8.8025,-0.8400001
319,4253225,1.005036,0.013297999999999999,-0.171776,-4.62,-9.4325,-0.8225
320,4253322,1.009428,0.017812,-0.172264,-5.04,-10.115,-0.7
321,4253419,1.0084520000000001,0.024522,-0.16958,-5.3025,-10.78,-0.5075
322,4253515,1.001254,0.031476,-0.17238599999999998,-5.39,-11.2875,-0.2275
323,4253612,0.995764,0.034282,-0.17568,-4.9,-11.76,0.0
324,4253709,0.990762,0.035868000000000004,-0.175924,-4.6375,-12.215,0.0875
325,4253806,0.9882001,0.036233999999999995,-0.172874,-4.2525,-12.565,-0.0525
326,4253902,0.984174,0.035258,-0.17360599999999998,-3.6575,-12.8975,-0.1225
327,4253999,0.978928,0.035013999999999997,-0.169336,-3.0625,-13.3525,-0.2625
328,4254096,0.97478,0.031598,-0.171166,-2.17,-13.755,-0.3675
329,4254193,0.97234,0.02928,-0.17214200000000002,-1.505,-13.755,-0.6125
330,4254289,0.9699,0.025742,-0.1708,-1.2075,-13.3525,-0.875
331,4254386,0.9668501,0.025131999999999998,-0.169458,-0.945,-12.81,-1.05
332,4254483,0.964044,0.022813999999999997,-0.16689600000000002,-0.595,-12.0575,-1.1725
333,4254579,0.9613601,0.021716,-0.166408,-0.2975,-11.235,-1.295
334,4254676,0.959774,0.020862000000000002,-0.167018,-0.0175,-10.4125,-1.2425
335,4254773,0.959408,0.015006,-0.166774,0.1925,-9.6775,-1.3825
336,4254870,0.9581881,0.01464,-0.16897,0.2975,-9.0125,-1.54
337,4254966,0.9586761,0.012931999999999999,-0.165798,0.1925,-8.295,-1.8025
338,4255063,0.9602620999999999,0.009272001,-0.17019,0.3325,-7.77,-1.995
339,4255160,0.964044,0.005978,-0.175314,0.5775,-7.2275,-2.415
340,4255257,0.9725841000000001,0.00427,-0.180316,0.5425,-6.9825,-2.7125
341,4255353,0.9790501,0.002074,-0.182756,0.7175,-6.9475,-2.765
342,4255450,0.9803921,0.0034159999999999998,-0.18666,0.7875,-6.9475,-2.7825
343,4255547,0.9829540000000001,0.004026,-0.190442,1.085,-6.9125,-2.9575
344,4255644,0.9845401,0.005856,-0.198494,1.575,-6.685,-2.9575
345,4255740,0.9906401,0.005002,-0.19947,2.2575,-6.3875,-2.8525
346,4255837,0.9990581000000001,0.00671,-0.194712,2.6425,-6.23,-2.6075
347,4255934,1.006378,0.00183,-0.19093,3.2375,-6.3875,-2.0825
348,4256030,1.010526,-0.006222,-0.188856,3.78,-6.7725,-1.4525
349,4256127,1.015528,-0.013054,-0.18446400000000002,3.6575,-7.1225,-0.7525
350,4256224,1.012234,-0.019275999999999998,-0.18141400000000002,3.6225,-7.9975,-0.07
351,4256321,1.0077200000000002,-0.026962,-0.18251199999999998,3.6925,-8.8025,0.6125
352,4256417,1.000034,-0.033916,-0.181292,3.92,-9.66,0.9625
353,4256514,0.9944221,-0.038308,-0.183122,3.815,-10.2725,1.0675
354,4256611,0.990518,-0.041846,-0.183976,3.85,-10.8675,0.98
355,4256708,0.9856379999999999,-0.042822000000000006,-0.18446400000000002,3.955,-11.6025,0.9975
356,4256804,0.9827101,-0.042822000000000006,-0.182268,4.165,-12.04,1.015
357,4256901,0.978196,-0.042822000000000006,-0.17946199999999998,4.4275,-12.2325,0.9275
358,4256998,0.9744141,-0.040016,-0.17836400000000002,4.55,-12.1975,0.805
359,4257095,0.9702661,-0.037088,-0.177266,4.585,-11.935,0.63
360,4257191,0.9673379999999999,-0.038796,-0.17738800000000002,4.7075,-11.5675,0.455
361,4257288,0.9663620999999999,-0.040138,-0.17946199999999998,4.8475,-11.305,0.385
362,4257385,0.9708760000000001,-0.038674,-0.175558,4.4625,-10.9025,0.4375
363,4257482,0.969534,-0.041358,-0.169458,3.8675,-10.3075,0.6125
364,4257578,0.9668501,-0.04697001,-0.164822,3.43,-9.87,0.7
365,4257675,0.966728,-0.052582000000000004,-0.16409,2.59,-9.17,0.665
366,4257772,0.967216,-0.061854,-0.165676,1.75,-8.435,0.735
367,4257868,0.96441,-0.068442,-0.16226,0.7875,-8.33,0.5775
368,4257966,0.9668501,-0.070882,-0.15799000000000002,-0.4375,-8.015,0.385
369,4258062,0.9684360999999999,-0.072712,-0.16043,-1.54,-7.49,0.07
370,4258159,0.9729501,-0.07002799999999999,-0.158112,-2.3625,-7.1925,0.07
371,4258255,0.979416,-0.05795,-0.153232,-3.4125,-6.7375,0.0175
372,4258352,0.9831981,-0.043432,-0.150792,-4.235,-6.1425,0.2275
373,4258449,0.9853940999999999,-0.03355,-0.144326,-4.06,-5.8625,0.56
374,4258546,0.984174,-0.021228,-0.138714,-3.815,-5.53,0.77
375,4258642,0.9772200999999999,-0.009882,-0.137738,-3.4125,-5.005,0.7875
376,4258739,0.9716081,-0.003782,-0.13908,-2.5375,-4.62,0.6475
377,4258836,0.971974,0.000244,-0.142374,-1.61,-3.955,0.5775
378,4258932,0.9730721,-0.002562,-0.14518,-0.63,-3.5175,0.6125
379,4259029,0.976366,-0.008540001,-0.144082,0.28,-3.5525,0.6125
380,4259126,0.9785620999999999,-0.017568,-0.150304,0.875,-3.5175,0.7
381,4259223,0.98393,-0.02562,-0.153232,0.8400001,-3.4125,0.945
382,4259319,0.9910059999999999,-0.035502,-0.151646,0.385,-3.5175,1.33
383,4259416,0.9940559999999999,-0.046604,-0.15420799999999998,-0.0875,-3.99,1.8025
384,4259513,0.995398,-0.054046000000000004,-0.153232,-0.63,-4.6375,2.38
385,4259610,0.9967401,-0.05770599999999999,-0.15311,-1.3475,-5.3375,2.8
386,4259706,0.9980821,-0.05770599999999999,-0.151158,-1.96,-5.845,3.1675
387,4259803,0.9961300999999999,-0.054412,-0.150792,-2.625,-6.6325,3.5175
388,4259900,0.9886881,-0.051484,-0.149694,-3.325,-7.3325,3.6575
389,4259997,0.9823440999999999,-0.047092,-0.14798599999999998,-3.8675,-7.42,3.8325
390,4260093,0.9761219999999999,-0.042944,-0.142496,-4.27,-7.385,3.955
391,4260190,0.968924,-0.045018,-0.141398,-4.4625,-7.21,4.025
392,4260287,0.9602620999999999,-0.045994,-0.137494,-4.5325,-6.93,3.745
393,4260383,0.951844,-0.04697001,-0.135298,-4.585,-6.5275,3.4125
394,4260480,0.9472079999999999,-0.045994,-0.136762,-4.48,-5.7575,2.8
395,4260577,0.9455,-0.04148,-0.137128,-4.55,-4.9175,2.0475
396,4260674,0.9442801,-0.03355,-0.139568,-4.41,-4.025,1.3125
397,4260770,0.9415959999999999,-0.021716,-0.14078800000000002,-3.9025,-3.325,0.7525
398,4260867,0.9392780000000001,-0.009882,-0.141276,-2.8875,-2.31,0.245
399,4260964,0.937326,-0.001464,-0.14518,-1.7325,-1.54,-0.245
400,4261061,0.9391560999999999,0.00244,-0.144448,-0.35,-0.5425,-0.665
401,4261157,0.94001,-0.001098,-0.14335,1.085,0.2975,-1.1725
402,4261254,0.94245,-0.003782,-0.144326,2.24,0.9975,-1.715
403,4261351,0.942206,-0.012931999999999999,-0.146766,3.745,1.3475,-2.555
404,4261447,0.947574,-0.019642,-0.151402,4.8125,1.645,-3.4125
405,4261544,0.9568459999999999,-0.020862000000000002,-0.15067,6.125,1.575,-4.375
406,4261641,0.97234,-0.018178,-0.150426,7.385,1.54,-5.25
407,4261738,0.989908,-0.01403,-0.14493599999999998,8.5575,1.4525,-5.81
408,4261834,1.003938,-0.011956,-0.13969,9.7475,1.2075,-6.37
409,4261931,1.015772,-0.017202000000000002,-0.13602999999999998,11.13,0.7525,-7.0175
410,4262028,1.023336,-0.024156,-0.132492,12.4075,0.28,-7.665
411,4262125,1.03151,-0.036478,-0.130174,13.5275,-0.4025,-8.3125
412,4262221,1.036634,-0.049166,-0.13237000000000002,14.42,-1.19,-9.0125
413,4262318,1.043588,-0.063684,-0.1342,14.7175,-1.995,-9.8
414,4262415,1.049688,-0.07588400000000001,-0.132614,14.84,-2.94,-10.5
415,4262512,1.055666,-0.08174001,-0.132492,14.07,-3.9725,-10.9375
416,4262608,1.055788,-0.09125599999999999,-0.133224,13.615,-4.9875,-11.13
417,4262705,1.056032,-0.09638,-0.13908,13.195,-6.0025,-11.305
418,4262802,1.060668,-0.09333,-0.13908,11.97,-6.7375,-11.235
419,4262898,1.0676219999999998,-0.091012,-0.135542,10.64,-7.4025,-11.0775
420,4262995,1.0736,-0.08784,-0.13664,9.975,-8.3475,-10.8675
421,4263092,1.074332,-0.082716,-0.134078,9.0125,-9.45,-10.7625
422,4263189,1.0734780000000002,-0.080886,-0.12993,8.5225,-10.29,-10.3075
423,4263285,1.077382,-0.082472,-0.12993,8.05,-11.375,-9.765
424,4263382,1.078114,-0.09272000000000001,-0.132736,7.665,-12.495,-8.75
425,4263479,1.083726,-0.10418800000000002,-0.144814,7.0875,-14.21,-7.63
426,4263576,1.0967799999999999,-0.114924,-0.125904,6.685,-16.52,-5.8975
427,4263672,1.104466,-0.098332,-0.09125599999999999,4.2,-18.5325,-3.6925
428,4263769,1.095438,-0.08808401,-0.06344,2.555,-20.125,-1.1725
429,4263866,1.0650600000000001,-0.08771799999999999,-0.063074,1.2775,-21.28,1.26
430,4263962,1.035658,-0.09345201,-0.076738,-0.455,-21.14,2.8
431,4264059,1.010648,-0.10760399999999999,-0.10309000000000001,-2.0475,-19.39,3.29
432,4264156,0.9972281,-0.11626600000000001,-0.12175599999999999,-3.1675,-17.2025,3.0275
433,4264253,1.00406,-0.10638399999999999,-0.12444000000000001,-4.7075,-16.0475,2.2925
434,4264349,1.029802,-0.08723001,-0.11760799999999999,-4.935,-15.5925,1.435
435,4264446,1.059448,-0.052948,-0.114436,-5.285,-14.7875,0.525
436,4264543,1.068964,-0.023668,-0.14274,-4.445,-13.72,-0.0525
437,4264640,1.06079,-0.000732,-0.140422,-2.4675,-11.97,-0.77
438,4264736,1.04005,0.044774,-0.1281,-3.745,-11.3575,-1.33
439,4264833,0.9994241,0.053070000000000006,-0.120048,-0.315,-9.8,-1.4525
440,4264930,0.9555040000000001,0.05648601,-0.132004,2.4325,-7.07,-1.8375
441,4265026,0.9137799999999999,0.057096,-0.136762,4.41,-4.76,-2.4675
442,4265123,0.883768,0.043066,-0.146522,6.93,-2.345,-3.395
443,4265220,0.870226,0.018666,-0.158356,9.3975,0.3325,-4.2
444,4265317,0.8714459999999999,0.002318,-0.168726,10.99,2.765,-4.6725
445,4265413,0.88633,-0.004148001,-0.18324400000000002,11.6725,4.4275,-4.62
446,4265510,0.913658,-0.01281,-0.19959200000000002,12.7225,5.2675,-4.1475
447,4265607,0.9501360999999999,-0.013054,-0.21886799999999998,12.8975,5.145,-3.535
448,4265704,0.9823440999999999,-0.0064659999999999995,-0.23485,12.4075,4.2175,-3.01
449,4265800,1.003938,-0.009882,-0.249612,12.25,3.185,-2.87
450,4265897,1.012844,-0.020984,-0.25961599999999996,12.25,1.96,-3.15
451,4265994,1.006256,-0.026595999999999998,-0.266692,11.445,0.0,-3.815
452,4266091,0.9890540000000001,-0.031476,-0.260104,10.7975,-2.1875,-4.6025
453,4266187,0.9629459999999999,-0.03843,-0.25961599999999996,9.9925,-3.64,-5.005
454,4266284,0.9325680000000001,-0.04575,-0.262788,9.0825,-4.4975,-4.83
455,4266381,0.9110959999999999,-0.061610000000000005,-0.25925,8.1025,-5.355,-4.0775
456,4266478,0.8985301,-0.06636801,-0.258396,6.44,-6.2825,-2.9225
457,4266574,0.894626,-0.07137001,-0.260226,4.655,-7.2275,-1.645
458,4266671,0.8916980999999999,-0.075396,-0.262788,2.87,-8.155,-0.805
459,4266768,0.8918200000000001,-0.073688,-0.254492,1.19,-8.9075,-0.525
460,4266864,0.897432,-0.057584,-0.257054,-0.1575,-8.6975,-0.945
461,4266961,0.916098,-0.03965,-0.259128,-1.2775,-7.875,-2.4675
462,4267058,0.9463540000000001,-0.016714,-0.247538,-2.8,-7.8925,-5.32
463,4267155,0.968558,-0.009150001,-0.23240999999999998,-2.7825,-8.6975,-8.995
464,4267251,0.975634,-0.007808001,-0.221308,-1.6625,-9.31,-12.4775
465,4267348,0.9655081,-0.00793,-0.221552,-1.4175,-9.7475,-15.1025
466,4267445,0.9516,-0.008052001,-0.22386999999999999,-1.2425,-9.975,-16.73
467,4267542,0.94489,-0.0122,-0.226798,-1.925,-9.8525,-17.57
468,4267638,0.94611,-0.012444,-0.23021399999999997,-2.8175,-9.975,-17.99
469,4267735,0.9520881,-0.016347999999999998,-0.22935999999999998,-3.115,-9.9925,-17.6925
470,4267832,0.9586761,-0.011956,-0.22777399999999998,-3.15,-9.7125,-17.0975
471,4267929,0.9586761,-0.002562,-0.226188,-2.94,-9.345,-16.3625
472,4268025,0.955992,0.011346,-0.226554,-1.9775,-9.345,-15.5225
473,4268122,0.9525761,0.022203999999999998,-0.229238,-0.8575,-9.765,-14.735
474,4268219,0.952332,0.031842,-0.22448,0.525,-10.7625,-13.37
475,4268315,0.9534301,0.040260000000000004,-0.220088,1.82,-10.99,-12.075
476,4268412,0.9506241,0.05124001,-0.219478,3.3425,-11.62,-10.9725
477,4268509,0.9487940999999999,0.05453401,-0.21825799999999998,4.8825,-12.565,-10.01
478,4268606,0.9525761,0.049532,-0.215086,6.44,-13.3875,-9.415
479,4268702,0.9581881,0.045506,-0.21215799999999999,7.5425,-13.93,-8.645
480,4268799,0.9706319999999999,0.038551999999999996,-0.212524,8.855,-14.21,-8.82
481,4268896,0.9833200000000001,0.030866,-0.210694,9.9925,-14.21,-8.2075
482,4268993,0.9888101,0.029889999999999996,-0.21106,11.34,-14.42,-7.245
483,4269089,1.000034,0.012322,-0.216306,12.4775,-14.0525,-6.7025
484,4269186,1.016382,0.015616,-0.21679400000000001,12.985,-13.23,-5.53
485,4269283,1.020408,0.024278,-0.22045399999999998,12.25,-12.215,-3.3075
486,4269380,1.010526,0.017934000000000002,-0.21886799999999998,12.4425,-11.55,-1.3475
487,4269476,0.999302,0.019642,-0.21008400000000002,11.27,-11.13,-0.42
488,4269573,0.99308,0.013054,-0.183488,10.675,-9.8875,-0.105
489,4269670,0.9800261,0.021228,-0.168726,10.78,-7.945,-0.49
490,4269767,0.9720960999999999,0.038551999999999996,-0.169214,10.8325,-5.3025,-1.4525
491,4269864,0.9751460999999999,0.05917000000000001,-0.157746,10.3075,-2.94,-2.7825
492,4269960,0.987224,0.07686,-0.142496,10.395,-1.5225,-4.235
493,4270057,0.9972281,0.08869401,-0.13115,11.41,-0.5075,-5.565
494,4270154,1.001498,0.091378,-0.11394800000000001,13.1075,0.56,-6.3875
495,4270251,1.002718,0.08845001,-0.09991799999999999,15.3825,1.2075,-6.825
496,4270348,1.004304,0.08100801,-0.091744,17.465,1.61,-6.685
497,4270444,1.0056459999999998,0.066978,-0.09052401,18.83,1.19,-6.265
498,4270541,1.0065,0.04331,-0.08003201,19.7925,-0.3325,-5.8975
499,4270638,0.999302,0.018178,-0.07344400000000001,20.9125,-1.6975,-6.23
500,4270735,0.9830760000000001,0.003782,-0.058926,21.6475,-2.205,-7.4375
501,4270832,0.954406,0.00488,-0.038674,22.33,-2.625,-9.3275
502,4270928,0.9252481,0.020618,-0.026474,23.9925,-2.1525,-11.55
503,4271025,0.904508,0.056852,-0.057339999999999995,26.215,0.2625,-13.9125
504,4271122,0.900726,0.11285,-0.21813600000000002,27.3175,3.43,-16.135
505,4271219,0.9512341000000001,0.09735601,-0.337696,25.0075,4.0075,-18.9
506,4271316,1.0310219999999999,-0.007686,-0.28987199999999996,18.8475,-4.9875,-21.9625
507,4271412,1.118008,-0.121268,-0.280356,22.4,-13.44,-26.705
508,4271509,1.1866940000000001,-0.12871,-0.344406,17.8675,-8.2075,-33.95
509,4271606,1.182424,-0.11614400000000001,-0.351116,5.53,-3.3425,-39.3925
510,4271703,1.128744,-0.15067,-0.30378,2.0475,-5.7925,-41.5275
511,4271800,1.036268,-0.142374,-0.259006,-1.8025,-9.0825,-41.37
512,4271897,0.9357401,-0.071004,-0.260348,-4.97,-9.8875,-38.535
513,4271993,0.8723001,0.00122,-0.285968,-8.54,-7.245,-34.09
514,4272090,0.85644,0.021472,-0.281698,-10.3425,-4.3575,-29.54
515,4272187,0.8610761,-0.015616,-0.30561,-8.7675,-3.29,-25.4975
516,4272284,0.8782780000000001,-0.06600201,-0.328546,-8.12,-1.7675,-21.8225
517,4272380,0.9240280000000001,-0.056608000000000006,-0.358558,-11.3225,0.4725,-18.55
518,4272477,0.9994241,-0.07551801,-0.3599,-13.615,2.31,-16.2925
519,4272574,1.068598,-0.09698999999999999,-0.344528,-14.98,2.9225,-14.4725
520,4272671,1.1065399999999999,-0.08893801,-0.28914,-18.34,2.73,-12.32
521,4272768,1.080798,-0.07076001,-0.296948,-19.1975,0.9625,-8.8375
522,4272865,1.0176020000000001,-0.068686,-0.317322,-17.465,-1.4,-4.0775
523,4272961,0.9725841000000001,-0.048434,-0.30622,-19.3025,-1.19,1.4875
524,4273058,0.950868,-0.027083999999999997,-0.2928,-19.67,0.945,7.315
525,4273155,0.9282981,-0.01586,-0.288408,-18.48,1.26,12.355
526,4273252,0.9046301,-0.025376,-0.27633,-17.325,0.175,15.505
527,4273349,0.882548,-0.03599,-0.266936,-16.5725,-0.28,16.1875
528,4273445,0.8704700000000001,-0.036966000000000006,-0.25254,-16.8175,-0.56,14.7875
529,4273542,0.8731540999999999,-0.034282,-0.23082399999999997,-17.0975,-0.14,12.425
530,4273639,0.8836459999999999,-0.028182,-0.21032800000000001,-18.025,1.1025,10.4125
531,4273736,0.8965780000000001,-0.0244,-0.19178399999999998,-18.8475,2.38,8.9425
532,4273832,0.91805,-0.013175999999999998,-0.185928,-19.6875,3.185,7.77
533,4273929,0.94001,-0.005368,-0.1769,-20.1775,3.43,6.86
534,4274026,0.9561139999999999,0.0017079999999999999,-0.16909200000000002,-20.2825,2.8525,6.44
535,4274123,0.9591639999999999,0.00549,-0.15945399999999998,-20.4575,2.135,6.0725
536,4274220,0.9502581,0.010004,-0.147376,-20.6325,1.2775,6.1075
537,4274316,0.9372040999999999,0.010004,-0.141398,-21.0875,1.05,6.65
538,4274413,0.9203680000000001,0.004026,-0.138226,-21.42,1.3125,7.3675
539,4274510,0.9115840000000001,-0.00427,-0.132248,-22.05,1.96,7.9975
540,4274607,0.9137799999999999,-0.008296000999999999,-0.12980799999999998,-22.925,3.01,8.4525
541,4274704,0.9203680000000001,-0.009637999999999999,-0.13078399999999998,-23.905,4.025,9.0475
542,4274800,0.9214661,-0.0051240009999999996,-0.131028,-24.7625,4.6025,9.8175
543,4274897,0.92781,0.004392,-0.133468,-25.865,5.39,10.7625
544,4274994,0.9368380999999999,0.012078,-0.13480999999999999,-26.1275,5.845,11.83
545,4275091,0.9480620000000001,0.023180000000000003,-0.14152,-26.04,6.1075,12.9325
546,4275188,0.9581881,0.03843,-0.1403,-25.6375,6.09,14.07
547,4275284,0.963922,0.058316,-0.13480999999999999,-24.885,5.6875,15.05
548,4275381,0.9620920000000001,0.066734,-0.132004,-23.31,5.11,15.6275
549,4275478,0.9591639999999999,0.064294,-0.135298,-20.965,4.41,15.4875
550,4275575,0.9600181000000001,0.06356201,-0.135908,-18.7775,3.5875,14.56
551,4275672,0.9589200999999999,0.060024,-0.133712,-16.17,2.52,12.81
552,4275768,0.9537959999999999,0.05172801,-0.12383,-13.405,1.3825,10.2375
553,4275865,0.9439139999999999,0.041968,-0.125416,-10.6925,0.7,7.455
554,4275962,0.9337880999999999,0.024766,-0.131394,-8.2425,0.385,4.5675
555,4276059,0.93147,0.007320001,-0.12932000000000002,-6.3,0.735,1.925
556,4276156,0.9463540000000001,-0.008906,-0.137372,-5.425,1.3825,-0.2625
557,4276252,0.9762440999999998,-0.0366,-0.15579400000000002,-4.62,1.7675,-1.855
558,4276349,1.017724,-0.06746601,-0.153232,-3.8675,1.82,-3.0275
559,4276446,1.066036,-0.081618,-0.1586,-5.075,1.5225,-3.8325
560,4276543,1.104466,-0.09674601,-0.15616,-5.2675,0.63,-4.62
561,4276640,1.121546,-0.09613601,-0.144814,-5.67,-0.6125,-5.7225
562,4276736,1.117032,-0.07076001,-0.134444,-7.2275,-1.2075,-6.6675
563,4276833,1.094096,-0.039772,-0.119316,-8.645,-1.4,-7.0875
564,4276930,1.077138,-0.013908000000000002,-0.089914,-10.325,-1.61,-6.825
565,4277027,1.057374,0.005368,-0.063318,-12.2325,-1.05,-5.495
566,4277124,1.0351700000000001,-0.00244,-0.0488,-13.405,0.8925,-4.445
567,4277220,1.028704,-0.025131999999999998,-0.039162,-14.63,2.275,-3.99
568,4277317,1.045784,-0.050263999999999996,-0.034038,-15.8375,1.96,-3.85
569,4277414,1.086044,-0.06795401,-0.04404201,-16.6425,1.365,-3.2375
570,4277511,1.12789,-0.066246,-0.07551801,-16.765,1.1025,-1.9425
571,4277607,1.161074,-0.040382,-0.064782,-17.5875,1.2775,-0.035
572,4277704,1.18889,0.019032,0.004636001,-20.4225,2.03,2.415
573,4277801,1.159122,0.07442,0.049776,-19.6525,4.585,5.0225
574,4277898,1.070184,0.049898000000000005,-0.03355,-12.6525,8.4875,6.3875
575,4277995,1.006988,-0.009150001,-0.11541199999999999,-7.0,11.27,5.53
576,4278091,0.9910059999999999,0.005002,-0.174216,-9.2575,11.62,3.5175
577,4278188,1.003572,0.025986000000000002,-0.265472,-6.93,10.675,2.52
578,4278285,1.092876,0.137372,-0.303292,-4.5675,10.08,3.7275
579,4278382,1.20231,0.127978,-0.257054,-6.4925,8.0325,7.2625
580,4278479,1.204018,0.149328,-0.253882,2.7475,3.71,12.95
581,4278575,1.122156,0.16958,-0.252906,2.52,1.2075,14.84
582,4278672,1.027362,0.09516001,-0.268522,7.875,0.28,12.0925
583,4278769,0.9575780999999999,0.016104,-0.27755,12.495,-3.7625,7.875
584,4278866,0.9189040999999999,-0.019032,-0.258274,11.3225,-9.345,4.69
585,4278963,0.887916,-0.026962,-0.25851799999999997,12.8625,-14.315,4.2175
586,4279059,0.8731540999999999,-0.023424,-0.282674,14.035,-16.5025,5.5475
587,4279156,0.8720559999999999,-0.014396,-0.30561,12.5475,-18.48,7.3675
588,4279253,0.8701040000000001,-0.019398,-0.317322,11.305,-21.5425,9.485
589,4279350,0.8762040000000001,-0.020862000000000002,-0.322934,9.9225,-25.13,11.025
590,4279447,0.8964561,-0.029768,-0.300608,8.015,-27.37,11.5675
591,4279543,0.9230520000000001,-0.029524,-0.289506,7.1925,-28.2625,11.2525
592,4279640,0.9568459999999999,-0.036233999999999995,-0.280966,6.4575,-27.3525,9.7825
593,4279737,0.9934460999999999,-0.046604,-0.25790799999999997,4.41,-25.76,6.2125
594,4279834,1.024068,-0.066734,-0.221796,2.6075,-25.0075,0.6125
595,4279931,1.02724,-0.081618,-0.193126,2.5025,-24.43,-5.915
596,4280027,0.988078,-0.067344,-0.181536,1.995,-23.4325,-11.76
597,4280124,0.9370821,-0.038796,-0.169946,1.5925,-22.4875,-15.7325
598,4280221,0.8965780000000001,-0.002318,-0.166774,1.3475,-21.0175,-17.85
599,4280318,0.8725440999999999,0.027816000000000004,-0.15823399999999999,1.435,-19.4075,-18.655
600,4280415,0.8741300999999999,0.051484,-0.151646,2.555,-18.375,-18.2875
601,4280511,0.8912100000000001,0.069174,-0.153232,4.2,-17.815,-17.15
602,4280608,0.9145120999999999,0.07332201,-0.155672,6.7025,-18.3925,-15.4525
603,4280705,0.936472,0.067588,-0.160918,9.24,-18.6025,-14.0875
604,4280802,0.943426,0.06039,-0.17263,11.3575,-18.8125,-13.3175
605,4280899,0.9494040000000001,0.042822000000000006,-0.18251199999999998,13.5275,-19.285,-13.02
606,4280995,0.9511120000000001,0.023668,-0.19215,14.9275,-19.04,-13.405
607,4281092,0.945744,0.012565999999999999,-0.198128,16.1175,-19.32,-14.0175
608,4281189,0.930372,0.007198,-0.20691199999999998,17.325,-19.74,-14.4725
609,4281286,0.913048,0.006954000000000001,-0.214354,18.305,-20.195,-14.7525
610,4281383,0.9004821,0.011834,-0.20727800000000002,18.7775,-20.23,-14.77
611,4281479,0.901214,0.01403,-0.196542,19.46,-19.9675,-14.21
612,4281576,0.906826,0.020862000000000002,-0.194956,20.37,-19.495,-13.2125
613,4281673,0.9211,0.022692,-0.182146,21.14,-18.8475,-12.985
614,4281770,0.931348,0.029158,-0.16958,21.8225,-17.9025,-12.355
615,4281867,0.942694,0.036844,-0.165432,23.2575,-15.715,-11.62
616,4281963,0.9623360999999999,0.043066,-0.162626,23.7475,-12.7225,-10.8675
617,4282060,0.98393,0.044896,-0.15274400000000002,23.835,-10.15,-9.8875
618,4282157,1.00589,0.036112,-0.141398,24.29,-7.525,-8.7675
619,4282254,1.034438,0.040138,-0.129564,23.8,-4.8125,-7.385
620,4282351,1.053226,0.05209400000000001,-0.12468399999999999,22.61,-2.7475,-5.8625
621,4282447,1.056764,0.046360000000000005,-0.118828,22.4525,-2.24,-4.8125
622,4282544,1.057374,0.04404201,-0.12358599999999999,21.8575,-2.7475,-4.4275
623,4282641,1.0584719999999999,0.03538,-0.132492,21.4375,-2.7475,-5.11
624,4282738,1.065548,0.043676,-0.147498,20.195,-2.6775,-6.2475
625,4282835,1.066158,0.044652,-0.151402,18.6725,-3.325,-7.315
626,4282931,1.0559100000000001,0.043188,-0.15823399999999999,18.6375,-5.075,-7.7
627,4283028,1.03883,0.04453,-0.162382,18.27,-6.16,-7.5425
628,4283125,1.021018,0.03965,-0.15616,17.9025,-7.245,-7.245
629,4283222,1.0079639999999999,0.028426,-0.14396,18.2525,-8.61,-7.28
630,4283318,0.995764,0.01342,-0.12261,18.585,-8.9775,-7.9975
631,4283415,0.9736819999999999,0.013786000000000001,-0.108946,18.5675,-8.855,-9.59
632,4283512,0.9465981,0.030378,-0.114924,18.3925,-7.8575,-11.9525
633,4283609,0.9315921,0.06892999999999999,-0.22277199999999997,18.2,-5.9325,-15.085
634,4283706,0.9628241,0.059536,-0.287432,15.2425,-3.605,-19.6875
635,4283802,1.0046700000000002,-0.002074,-0.211792,11.69,-7.63,-25.095
636,4283899,1.020408,-0.049288,-0.21142600000000003,16.2925,-10.885,-31.2025
637,4283996,1.022848,-0.028426,-0.28181999999999996,14.245,-6.125,-37.3275
638,4284093,1.0212620000000001,-0.019642,-0.300852,6.4225,-2.87,-40.18
639,4284190,1.025898,-0.055144000000000006,-0.31463800000000003,1.54,-2.0125,-40.5825
640,4284287,1.017968,-0.071004,-0.326716,-5.04,-0.4375,-40.6
641,4284383,0.9940559999999999,-0.011712,-0.37271,-12.18,0.63,-39.445
642,4284480,0.942572,-0.166652,-0.30182800000000004,-11.375,0.5075,-36.645
643,4284577,0.8652241,-0.119804,-0.341844,-11.725,-2.6775,-30.73
644,4284674,0.8552200000000001,-0.051362,-0.342088,-17.815,-1.54,-24.6925
645,4284771,0.9053620000000001,-0.06466001,-0.38198200000000004,-17.6225,0.2975,-19.4775
646,4284867,1.004426,-0.101382,-0.371002,-21.2625,0.3675,-15.995
647,4284964,1.095316,-0.104798,-0.34721199999999997,-25.1825,0.7,-13.93
648,4285061,1.143384,-0.098942,-0.290848,-25.5325,0.7525,-12.3025
649,4285158,1.117764,-0.030866,-0.276574,-28.3325,-2.3275,-9.8
650,4285254,1.0498100000000001,0.005246,-0.307196,-27.1075,-5.6875,-6.16
651,4285351,0.984784,0.015006,-0.31842,-24.5525,-6.3,-1.8025
652,4285448,0.9348860999999999,0.05002,-0.312564,-25.4975,-4.62,2.66
653,4285545,0.899384,0.05648601,-0.29731399999999997,-21.84,-3.08,6.965
654,4285642,0.8796200000000001,0.042089999999999995,-0.282186,-17.92,-2.52,10.045
655,4285738,0.882182,0.02684,-0.261324,-15.715,-2.625,11.865
656,4285835,0.897432,0.010736,-0.246806,-13.9825,-2.2925,12.915
657,4285932,0.8959681,-0.008296000999999999,-0.228872,-12.985,-2.135,12.6
658,4286029,0.901458,-0.023424,-0.21472,-12.67,-2.3975,11.3925
659,4286126,0.9131700999999999,-0.022448,-0.20727800000000002,-13.615,-2.0825,9.9225
660,4286222,0.92781,-0.016592,-0.199958,-15.05,-1.2775,8.75
661,4286319,0.9354959999999999,-0.008662000999999999,-0.198494,-16.345,-1.12,8.3475
662,4286416,0.9307380999999999,0.000122,-0.195688,-17.7275,-1.6975,8.9075
663,4286513,0.9195141,0.012565999999999999,-0.178608,-19.0225,-2.345,10.115
664,4286609,0.904142,0.029524,-0.17202,-20.1075,-2.24,11.515
665,4286706,0.895602,0.03965,-0.16689600000000002,-20.545,-1.5925,12.425
666,4286803,0.89487,0.045384,-0.155428,-20.51,-1.1025,12.9325
667,4286900,0.8982860999999999,0.053924,-0.148596,-21.1925,-0.8225,12.6175
668,4286997,0.8999940000000001,0.056852,-0.138226,-21.105,-0.4725,12.11
669,4287094,0.9004821,0.05770599999999999,-0.13151600000000002,-20.93,-0.42,11.305
670,4287190,0.9023121,0.063196,-0.12566,-20.895,-0.35,10.5525
671,4287287,0.904142,0.068564,-0.124806,-20.5275,-0.1575,9.8875
672,4287384,0.907802,0.07356601,-0.115534,-20.16,0.49,9.205
673,4287481,0.9151219999999999,0.07503,-0.107482,-20.09,1.5575,8.8375
674,4287578,0.918294,0.06575800000000001,-0.10638399999999999,-19.46,2.7825,8.4525
675,4287674,0.916342,0.05843801,-0.107116,-18.48,3.3425,8.1725
676,4287771,0.9097540000000001,0.050142,-0.111874,-17.43,3.57,7.63
677,4287868,0.9024341,0.037332,-0.119316,-16.3275,4.34,6.895
678,4287965,0.901336,0.02623,-0.12651400000000002,-15.68,5.3025,5.845
679,4288062,0.9075581,0.015982,-0.12932000000000002,-15.1725,5.915,4.76
680,4288158,0.9241501,0.007198,-0.136274,-15.0325,6.3875,3.465
681,4288255,0.94916,-0.005002,-0.134444,-15.05,7.0,2.415
682,4288352,0.9764879999999999,-0.024034,-0.13176,-15.155,7.6475,1.575
683,4288449,1.005036,-0.038551999999999996,-0.13237000000000002,-15.085,8.0325,0.6825
684,4288546,1.0345600000000001,-0.043188,-0.12163399999999999,-15.015,7.6475,0.21
685,4288642,1.057008,-0.03416,-0.116754,-15.33,6.8075,0.1575
686,4288739,1.071282,-0.030866,-0.11285,-14.35,5.67,0.5075
687,4288836,1.0795780000000001,-0.026595999999999998,-0.109678,-13.2475,4.3225,1.12
688,4288933,1.084702,-0.020374,-0.099674,-12.53,3.43,1.7325
689,4289030,1.0919,-0.01403,-0.08369201,-12.3725,3.5175,2.1175
690,4289126,1.1070280000000001,-0.010858,-0.071614,-12.215,4.2525,2.17
691,4289223,1.12362,-0.01647,-0.08442401,-11.935,4.76,1.925
692,4289320,1.13399,-0.030987999999999998,-0.10675,-11.4275,4.8125,1.7675
693,4289417,1.135576,-0.039894,-0.119926,-11.2525,3.4825,1.47
694,4289513,1.139968,-0.036966000000000006,-0.14213,-10.7625,2.1175,1.2075
695,4289610,1.148142,-0.020984,-0.180926,-8.8375,1.4875,1.575
696,4289707,1.1594879999999999,0.005246,-0.17263,-7.7,1.96,2.3625
697,4289804,1.169736,0.058803999999999995,-0.09320801,-9.205,2.4325,3.7625
698,4289901,1.13582,0.100406,-0.036112,-7.1225,2.24,6.2125
699,4289997,1.0643280000000002,0.07869,-0.042212,-1.2775,4.0775,7.6825
700,4290095,1.002108,0.040138,-0.05172801,0.14,6.965,6.3
701,4290191,0.9656300999999999,0.00366,-0.07076001,0.4725,9.0125,3.78
702,4290288,0.95831,-0.011590000000000001,-0.09991799999999999,1.8025,9.8175,2.065
703,4290385,0.984174,0.0064659999999999995,-0.188368,1.68,9.24,1.575
704,4290482,1.03334,0.025742,-0.26718000000000003,5.8975,9.6075,2.6075
705,4290578,1.125328,0.157746,-0.308782,3.8325,8.7675,5.04
706,4290675,1.185352,0.201178,-0.24107199999999998,7.4725,5.88,9.59
707,4290772,1.1781540000000001,0.140178,-0.23741199999999998,19.0925,3.045,15.1025
708,4290869,1.1150799999999998,0.096014,-0.267912,21.7,0.7175,17.7975
709,4290966,1.048712,0.06405001,-0.26108000000000003,19.915,-3.3775,16.3275
710,4291062,0.9940559999999999,0.035624,-0.25522399999999995,20.055,-7.315,12.9675
711,4291159,0.9384239999999999,0.016714,-0.24778200000000003,18.655,-9.0475,9.66
712,4291256,0.892552,0.008540001,-0.26156799999999997,18.34,-9.3625,7.8225
713,4291353,0.8670540999999999,-0.004148001,-0.28365,18.4625,-9.2225,7.84
714,4291450,0.85644,-0.028792,-0.28987199999999996,18.025,-10.255,9.3275
715,4291546,0.851194,-0.040748,-0.29341,16.73,-13.23,11.7075
716,4291643,0.86193,-0.05453401,-0.30097399999999996,15.3125,-17.15,13.895
717,4291740,0.8926741,-0.061975999999999996,-0.284992,13.195,-20.2825,14.4725
718,4291837,0.934642,-0.050508,-0.276086,10.3425,-22.1725,13.16
719,4291934,0.9768540000000001,-0.036966000000000006,-0.276452,9.9575,-22.2775,10.5175
720,4292030,1.0147959999999998,-0.017812,-0.264374,7.4725,-21.6475,6.4225
721,4292127,1.041148,-0.011346,-0.230946,5.9675,-22.715,1.295
722,4292224,1.029558,-0.017568,-0.19861600000000001,7.0175,-24.255,-4.3225
723,4292321,0.9919821,-0.007686,-0.17946199999999998,7.2625,-24.4125,-8.855
724,4292418,0.945256,0.005002,-0.165188,7.28,-23.66,-11.34
725,4292514,0.907436,0.014396,-0.15237799999999999,7.6475,-22.715,-12.1625
726,4292611,0.8847440999999999,0.021716,-0.14493599999999998,7.7525,-21.455,-12.145
727,4292708,0.8712021000000001,0.030622000000000003,-0.13761600000000002,8.19,-20.825,-12.075
728,4292805,0.8874280999999999,0.034038,-0.123098,8.9425,-20.615,-11.97
729,4292902,0.9137799999999999,0.03477,-0.119316,10.3075,-19.495,-12.5825
730,4292998,0.930616,0.041358,-0.119804,11.235,-18.55,-13.475
731,4293095,0.9398880999999999,0.042456,-0.125904,12.6175,-18.2875,-14.5075
732,4293192,0.9464761,0.039284,-0.135542,13.7025,-18.0075,-15.05
733,4293289,0.9524540000000001,0.034648000000000005,-0.14274,14.6825,-17.78,-15.015
734,4293386,0.957456,0.035013999999999997,-0.155184,15.365,-17.605,-14.4025
735,4293482,0.9537959999999999,0.028304000000000003,-0.162504,16.38,-17.4125,-13.2475
736,4293579,0.9505020000000001,0.025131999999999998,-0.17397200000000002,17.185,-17.115,-12.18
737,4293676,0.9500139999999999,0.016592,-0.181536,17.815,-17.1325,-11.41
738,4293773,0.9470860000000001,0.01464,-0.180926,18.4625,-17.7275,-10.6925
739,4293870,0.944524,0.0183,-0.179584,19.215,-18.5325,-10.045
740,4293966,0.947574,0.022936,-0.178852,20.44,-18.6025,-9.2225
741,4294063,0.955992,0.033672,-0.178852,21.4025,-18.0425,-8.7675
742,4294160,0.9618481,0.047702,-0.17946199999999998,22.12,-17.1675,-8.3125
743,4294257,0.964044,0.05172801,-0.177876,23.135,-16.03,-7.945
744,4294354,0.962458,0.04575,-0.177144,24.0275,-14.35,-7.7875
745,4294450,0.9577,0.040504000000000005,-0.166286,25.27,-12.215,-7.6825
746,4294547,0.955626,0.047458,-0.167994,26.3025,-10.3775,-7.56
747,4294644,0.9598959999999999,0.052216,-0.17629,27.825,-9.1175,-7.2975
748,4294741,0.9800261,0.055754,-0.179584,29.4175,-8.1725,-6.825
749,4294838,1.015284,0.06600201,-0.174826,31.3775,-7.315,-6.44
750,4294934,1.05103,0.099674,-0.174948,32.1825,-6.93,-6.055
751,4295031,1.0645719999999999,0.11407,-0.164944,33.46,-7.3675,-6.1775
752,4295128,1.060424,0.101382,-0.153842,35.5775,-8.1025,-6.825
753,4295225,1.0492,0.074542,-0.14005599999999999,37.52,-7.8925,-8.2075
754,4295322,1.03395,0.03965,-0.129076,39.585,-7.0875,-9.94
755,4295418,1.019798,0.008174001,-0.114436,39.935,-6.8075,-11.9875
756,4295515,1.0056459999999998,-0.01342,-0.09211,39.4975,-7.1575,-13.5975
757,4295612,0.999668,-0.018788,-0.08637601,38.185,-6.895,-14.7875
758,4295709,1.001498,-0.008906,-0.07710399999999999,35.875,-6.3,-15.8025
759,4295806,1.0168700000000002,0.012565999999999999,-0.095648,33.1275,-6.65,-16.8875
760,4295902,1.051518,0.027206,-0.2074,29.54,-7.14,-18.34
761,4295999,1.114226,-0.0244,-0.232044,21.8575,-9.415,-21.0525
762,4296096,1.1751040000000001,-0.137372,-0.12627,15.435,-13.965,-24.8675
763,4296193,1.18462,-0.200324,-0.095648,14.9975,-14.455,-29.19
764,4296290,1.111542,-0.16506600000000002,-0.15616,10.22,-11.2875,-31.815
765,4296386,1.009672,-0.11504600000000001,-0.19483399999999998,5.3025,-12.32,-30.0825
766,4296483,0.94916,-0.06380599999999999,-0.236314,0.4375,-13.65,-26.32
767,4296580,0.945744,-0.05977999999999999,-0.254858,-4.025,-11.2525,-24.0625
768,4296677,0.974292,-0.07015,-0.29524,-6.5975,-8.61,-23.66
769,4296774,0.9465981,-0.095282,-0.273402,-8.085,-7.6125,-23.9225
770,4296870,0.9049959999999999,0.00305,-0.315614,-14.14,-7.3675,-22.82
771,4296967,0.8812059999999999,-0.007198,-0.28621199999999997,-15.9425,-5.0225,-21.42
772,4297064,0.855708,-0.012078,-0.308294,-12.95,-4.235,-19.11
773,4297161,0.8640040000000001,0.013908000000000002,-0.333548,-15.9075,-3.255,-16.2925
774,4297257,0.9019459999999999,-0.010858,-0.33916,-15.015,-4.06,-14.1225
775,4297354,0.9333,-0.054412,-0.34465,-13.8425,-5.4075,-13.2825
776,4297451,0.9648979999999999,-0.077592,-0.346602,-14.1225,-4.655,-13.475
777,4297547,0.981002,-0.07381001,-0.346236,-16.135,-3.6575,-13.965
778,4297644,0.9770981,-0.056608000000000006,-0.338672,-17.0975,-3.9725,-13.615
779,4297741,0.9552601000000001,-0.018178,-0.310734,-18.76,-5.075,-12.2675
780,4297838,0.9228081,0.011224,-0.316346,-19.075,-6.055,-9.8
781,4297934,0.906216,-0.0035380000000000003,-0.337452,-15.4875,-5.5825,-6.7375
782,4298031,0.906826,-0.004026,-0.32195799999999997,-15.61,-3.605,-3.4475
783,4298128,0.921222,0.0035380000000000003,-0.299388,-15.8375,-1.9425,0.035
784,4298225,0.935984,-0.005734,-0.285236,-13.51,-1.3475,3.15
785,4298321,0.9440360999999999,-0.017934000000000002,-0.267302,-11.515,-1.505,5.3025
786,4298418,0.946842,-0.02806,-0.247294,-10.3775,-1.1375,6.51
787,4298515,0.931226,-0.036722000000000005,-0.232654,-9.3975,-1.295,6.72
788,4298612,0.928054,-0.038064,-0.21801399999999999,-9.135,-1.4875,6.65
789,4298708,0.9298841,-0.033916,-0.2013,-10.0625,-0.5425,6.8075
790,4298805,0.925736,-0.026474,-0.19337000000000001,-11.62,0.2975,7.2275
791,4298902,0.9178061,-0.022448,-0.185806,-13.09,0.6125,7.5075
792,4298998,0.9179280000000001,-0.015616,-0.183976,-14.7525,1.365,7.7
793,4299095,0.9171961,-0.011224,-0.17629,-16.2925,2.1525,7.98
794,4299192,0.9106081,-0.009150001,-0.167994,-17.5525,2.135,8.54
795,4299289,0.907436,-0.010248,-0.157868,-18.4275,2.0125,8.9075
796,4299385,0.9118280000000001,-0.009394,-0.152866,-19.1275,2.4675,8.82
797,4299482,0.91805,-0.002806,-0.14993800000000002,-20.0375,2.8525,8.47
798,4299579,0.92781,0.007442,-0.149816,-20.3875,2.7125,7.9975
799,4299676,0.936106,0.01464,-0.14688800000000002,-20.3175,2.275,7.3675
800,4299772,0.941108,0.027694,-0.143228,-20.5275,1.645,6.5625
801,4299869,0.9455,0.0366,-0.14164200000000002,-20.2125,0.9975,5.915
802,4299966,0.94916,0.041236,-0.150426,-19.1625,0.2275,5.5125
803,4300062,0.9524540000000001,0.043066,-0.149572,-18.2175,-0.2975,5.0575
804,4300159,0.9531860000000001,0.048312,-0.142374,-17.3425,-0.42,4.6025
805,4300256,0.9479401,0.050386,-0.139202,-15.995,-0.4025,4.3925
806,4300353,0.9413520000000001,0.045872,-0.14347200000000002,-14.42,0.035,4.3925
807,4300449,0.9408639999999999,0.031110000000000002,-0.145424,-12.6875,0.4725,4.6725
808,4300546,0.9463540000000001,0.025863999999999998,-0.14566800000000002,-11.1475,0.77,4.48
809,4300643,0.9539181000000001,0.019154,-0.13847,-10.045,1.085,4.0425
810,4300740,0.966606,0.008418,-0.137006,-9.1,1.2775,3.3075
811,4300836,0.9850280999999999,-0.004636001,-0.156526,-8.365,1.5575,2.6075
812,4300933,1.006988,-0.012565999999999999,-0.149816,-8.2425,1.8375,2.0825
813,4301030,1.028338,-0.010126000000000001,-0.145302,-9.52,1.8375,1.4525
814,4301127,1.037854,-0.014518000000000001,-0.149816,-8.7675,1.33,1.2425
815,4301223,1.038586,-0.019642,-0.14945,-8.2775,0.315,0.98
816,4301320,1.038952,-0.02257,-0.151646,-8.05,-0.105,0.455
817,4301417,1.0382200000000001,-0.02623,-0.15018199999999998,-8.0675,-0.4725,-0.21
818,4301514,1.037854,-0.027083999999999997,-0.139202,-8.365,-1.3125,-1.12
819,4301610,1.040538,-0.02562,-0.12261,-9.135,-1.6975,-2.1
820,4301707,1.049688,-0.022692,-0.107482,-10.0975,-1.505,-2.52
821,4301804,1.059936,-0.023058000000000002,-0.098942,-10.9725,-0.945,-2.345
822,4301901,1.062986,-0.020618,-0.08723001,-11.9525,-0.105,-1.9425
823,4301997,1.063474,-0.017324000000000003,-0.08845001,-13.125,1.05,-1.4175
824,4302094,1.0615219999999999,-0.019154,-0.103822,-12.6175,1.89,-0.2625
825,4302191,1.065182,-0.023424,-0.12468399999999999,-12.1625,2.135,1.085
826,4302287,1.075064,-0.018178,-0.1586,-11.2875,2.9575,2.8525
827,4302384,1.092754,-0.003172,-0.168482,-10.43,4.235,4.9875
828,4302481,1.107394,0.03965,-0.10650599999999999,-12.005,5.88,7.245
829,4302578,1.089948,0.07527400000000001,-0.07002799999999999,-11.34,8.1025,9.17
830,4302674,1.041636,0.05160601,-0.08296,-5.81,10.605,9.8525
831,4302771,0.9989360999999999,0.01952,-0.105896,-4.69,11.13,8.3825
832,4302868,0.978806,-0.013663999999999999,-0.108214,-4.6025,10.78,6.2475
833,4302965,0.981978,0.018422,-0.122732,-4.9,9.5025,4.3925
834,4303061,1.00528,0.07234600000000001,-0.144814,-6.0725,8.9775,2.9925
835,4303158,1.0407819999999999,0.08869401,-0.264984,-2.0475,9.6775,2.5725
836,4303255,1.0943399999999999,0.074786,-0.282064,4.3575,9.59,3.2375
837,4303352,1.161196,0.125904,-0.24949000000000002,2.4325,5.7575,5.1975
838,4303448,1.18218,0.115168,-0.211792,9.0475,2.3275,8.995
839,4303545,1.152778,0.064294,-0.23228800000000002,14.4375,1.26,11.1825
840,4303642,1.086532,0.017812,-0.239242,13.825,-1.0675,10.7275
841,4303738,1.017724,-0.020252000000000003,-0.236558,12.7925,-4.2175,8.8725
842,4303835,0.9716081,-0.041724000000000004,-0.24790399999999999,11.0075,-5.425,7.105
843,4303932,0.9408639999999999,-0.06466001,-0.268034,9.8175,-6.265,6.44
844,4304029,0.9291520000000001,-0.077592,-0.28609,9.03,-8.54,7.35
845,4304125,0.9201241,-0.08003201,-0.29219,6.755,-11.9175,9.2575
846,4304222,0.9075581,-0.07893401,-0.28426,5.8625,-16.0125,11.6025
847,4304319,0.889136,-0.059658,-0.284016,4.13,-19.9325,13.265
848,4304416,0.8838901,-0.03599,-0.26657,2.7825,-21.8575,13.6675
849,4304512,0.8809620000000001,-0.009150001,-0.25351599999999996,2.1875,-22.085,12.565
850,4304609,0.8941380999999999,0.015616,-0.25351599999999996,3.2725,-20.8775,10.29
851,4304706,0.924882,0.03599,-0.246928,3.8325,-18.97,7.0175
852,4304803,0.9526979999999999,0.041358,-0.213988,3.745,-18.5325,2.4325
853,4304899,0.97478,0.032330000000000005,-0.17995,5.565,-19.3025,-2.73
854,4304996,0.959774,0.029401999999999998,-0.162748,7.42,-18.83,-7.525
855,4305093,0.9323239999999999,0.028426,-0.152256,8.05,-18.1125,-10.6225
856,4305189,0.9106081,0.026718000000000002,-0.147254,8.3825,-17.2025,-12.0925
857,4305286,0.9060940000000001,0.021838,-0.143594,8.155,-15.82,-12.4075
858,4305383,0.9173181,0.015128,-0.139934,8.0675,-14.6475,-11.8475
859,4305480,0.9403761,0.01464,-0.139324,8.33,-14.3675,-10.5175
860,4305576,0.964532,0.016347999999999998,-0.13639600000000002,8.4875,-14.6475,-9.065
861,4305673,0.985516,0.016225999999999997,-0.132492,8.9775,-14.9975,-7.595
862,4305770,0.99735,0.014274,-0.13859200000000002,9.7125,-15.155,-6.5275
863,4305867,1.002108,0.01098,-0.148596,9.9225,-15.645,-5.9325
864,4305963,0.9985700999999999,0.001342,-0.154452,10.5525,-17.01,-5.53
865,4306060,0.9869800999999999,-0.004026,-0.15921,10.9725,-18.5675,-5.4425
866,4306157,0.9702661,-0.004514,-0.15982000000000002,11.13,-19.7225,-5.74
867,4306253,0.9520881,-0.004514,-0.165798,11.515,-20.79,-6.265
868,4306350,0.9323239999999999,-0.00305,-0.16909200000000002,12.075,-21.6475,-6.9475
869,4306447,0.9173181,0.0008540001,-0.171532,13.0025,-22.295,-7.735
870,4306544,0.900726,0.00671,-0.17629,14.245,-22.715,-8.4
871,4306640,0.8921860999999999,0.015128,-0.174582,15.645,-22.6975,-8.715
872,4306737,0.8887700000000001,0.029646,-0.171654,16.8175,-22.015,-8.785
873,4306834,0.8841341,0.038674,-0.178242,18.41,-21.0175,-8.505
874,4306931,0.8877940000000001,0.038796,-0.184098,19.565,-19.46,-8.1375
875,4307027,0.8977980999999999,0.03416,-0.179706,20.0725,-17.605,-7.42
876,4307124,0.9079241,0.029036000000000003,-0.170312,20.6675,-15.225,-6.58
877,4307221,0.9151219999999999,0.02257,-0.163236,21.315,-12.705,-5.6875
878,4307317,0.92537,0.020252000000000003,-0.154696,22.1025,-10.36,-4.8825
879,4307414,0.941108,0.020496,-0.15091400000000002,22.6275,-8.3475,-4.27
880,4307511,0.966484,0.022326,-0.166164,23.555,-6.6325,-3.99
881,4307608,1.003816,0.024156,-0.171776,24.2025,-5.425,-4.1125
882,4307704,1.050786,0.048068,-0.17140999999999998,23.03,-5.53,-4.4275
883,4307801,1.077626,0.044896,-0.167018,23.73,-5.74,-4.4975
884,4307898,1.086288,0.036966000000000006,-0.16165,25.06,-6.0725,-4.6725
885,4307995,1.0754299999999999,0.019398,-0.14310599999999998,26.005,-6.195,-5.0925
886,4308091,1.0589600000000001,0.005856,-0.13151600000000002,27.895,-6.125,-5.6175
887,4308188,1.051884,-0.001098,-0.128344,28.56,-6.195,-6.2125
888,4308285,1.052738,0.008296000999999999,-0.111874,27.79,-7.07,-6.9475
889,4308381,1.059326,0.026718000000000002,-0.080764,26.95,-8.5575,-7.7
890,4308478,1.0565200000000001,0.050874,-0.061610000000000005,26.705,-9.275,-8.855
891,4308575,1.050054,0.08235001,-0.080154,27.1775,-8.785,-10.78
892,4308672,1.0626200000000001,0.093574,-0.176656,26.5825,-7.6825,-13.965
893,4308768,1.1070280000000001,0.048434,-0.22777399999999998,23.66,-8.085,-18.9175
894,4308865,1.154852,-0.0488,-0.14188599999999998,18.2,-12.4775,-25.1825
895,4308962,1.161318,-0.1281,-0.127002,19.11,-14.63,-30.9575
896,4309059,1.112274,-0.12065799999999999,-0.203618,15.75,-11.27,-34.8425
897,4309155,1.044198,-0.10418800000000002,-0.225212,7.21,-10.045,-34.86
898,4309252,0.9941780000000001,-0.113704,-0.244488,1.5225,-11.1825,-32.3575
899,4309349,0.986858,-0.105652,-0.279868,-4.375,-9.9575,-30.485
900,4309446,0.954528,-0.173484,-0.21972199999999997,-7.5425,-8.925,-29.8375
901,4309542,0.907802,-0.0793,-0.25559,-11.76,-9.0475,-28.665
902,4309639,0.871568,-0.016225999999999997,-0.274012,-16.1175,-5.005,-27.1775
903,4309736,0.837042,-0.007564001,-0.286578,-16.4675,-4.34,-24.9375
904,4309833,0.8244761,0.0051240009999999996,-0.294142,-18.48,-5.285,-22.1725
905,4309929,0.83265,-0.001342,-0.309758,-18.34,-3.6575,-19.5125
906,4310026,0.85583,-0.02257,-0.33171799999999996,-17.0625,-1.995,-17.6575
907,4310123,0.901336,-0.045872,-0.352092,-17.4475,-1.015,-17.115
908,4310219,0.9553821,-0.063684,-0.350506,-18.025,0.1925,-17.4825
909,4310316,0.9999121,-0.06661201,-0.347456,-18.8825,1.0675,-18.41
910,4310413,1.022848,-0.05429,-0.322934,-19.635,0.98,-18.6725
911,4310510,1.013698,-0.021594,-0.302072,-20.8425,-0.2625,-17.3075
912,4310606,0.9779521000000001,-0.011346,-0.319274,-20.0725,-2.0825,-14.3675
913,4310703,0.9530641,-0.020862000000000002,-0.328058,-18.4625,-2.8525,-10.5175
914,4310800,0.96075,-0.016225999999999997,-0.30317,-19.9325,-0.9625,-6.6675
915,4310897,0.975024,-0.019764,-0.28987199999999996,-20.055,0.7175,-2.4325
916,4310993,0.9739261,-0.029524,-0.279136,-18.8125,-0.21,0.945
917,4311090,0.9764879999999999,-0.038918,-0.262788,-18.7075,-1.0325,3.2025
918,4311187,0.980514,-0.041114,-0.24766,-18.06,-1.4525,4.7425
919,4311283,0.9757561,-0.03965,-0.23424,-17.885,-2.5375,5.74
920,4311380,0.9705101,-0.032451999999999995,-0.216306,-17.4825,-3.255,6.37
921,4311477,0.9703879999999999,-0.011590000000000001,-0.209352,-17.6575,-3.22,7.21
922,4311574,0.974658,0.013786000000000001,-0.20374,-17.64,-3.2025,8.54
923,4311670,0.9618481,0.030622000000000003,-0.19861600000000001,-17.1325,-4.1475,10.185
924,4311767,0.942694,0.033672,-0.192882,-16.205,-5.74,11.8475
925,4311864,0.9236620999999999,0.029889999999999996,-0.185196,-15.82,-6.5625,13.4575
926,4311961,0.9026780000000001,0.024034,-0.17738800000000002,-15.5925,-6.2825,14.6475
927,4312057,0.8877940000000001,0.016104,-0.170678,-15.54,-6.0025,15.4
928,4312154,0.8790100000000001,0.005978,-0.163968,-15.54,-5.3725,15.085
929,4312251,0.8740081000000001,0.010248,-0.15396400000000002,-15.6975,-4.48,14.0175
930,4312347,0.8690061,0.015982,-0.14274,-15.8025,-3.43,12.39
931,4312444,0.8676640999999999,0.024034,-0.134078,-15.1025,-2.1525,10.7975
932,4312541,0.8736421,0.03599,-0.12871,-14.4375,-0.28,9.3275
933,4312638,0.886452,0.049776,-0.126636,-13.5625,1.2075,8.1375
934,4312734,0.903166,0.060634,-0.130296,-12.285,1.8725,7.14
935,4312831,0.920734,0.06649,-0.131638,-10.9025,1.995,5.95
936,4312928,0.9290299999999999,0.064294,-0.130174,-9.835,2.0125,4.9
937,4313025,0.9353741,0.048922,-0.130296,-8.26,1.47,3.9375
938,4313121,0.9394,0.027938,-0.13908,-6.93,0.49,2.8525
939,4313218,0.9487940999999999,0.0008540001,-0.145424,-6.23,-0.77,1.4
940,4313315,0.959408,-0.027816000000000004,-0.14871800000000002,-6.2125,-1.54,-0.42
941,4313412,0.9635560999999999,-0.04819,-0.146644,-7.175,-1.61,-2.1875
942,4313508,0.968924,-0.061732,-0.143594,-8.505,-1.2425,-3.4825
943,4313605,0.9751460999999999,-0.070882,-0.142862,-9.94,-0.7,-4.13
944,4313702,0.9828321,-0.069174,-0.143716,-11.83,-0.14,-4.1475
945,4313798,0.9850280999999999,-0.06539201,-0.146522,-13.4575,0.42,-3.85
946,4313895,0.9878341,-0.064416,-0.143594,-14.56,1.3125,-3.5525
947,4313992,0.9951540000000001,-0.05977999999999999,-0.1403,-15.82,2.66,-3.5875
948,4314089,1.000156,-0.05941401,-0.135908,-16.6425,4.06,-4.06
949,4314185,1.00955,-0.051972000000000004,-0.129564,-17.6225,5.1975,-5.0925
950,4314282,1.022238,-0.044652,-0.11138599999999999,-19.6,6.3875,-6.125
951,4314379,1.039074,-0.032574,-0.08674201,-21.385,7.525,-6.055
952,4314476,1.057618,-0.022326,-0.06649,-23.59,8.085,-5.285
953,4314572,1.0760399999999999,-0.025376,-0.05587601,-25.8125,8.2775,-4.095
954,4314669,1.092876,-0.036966000000000006,-0.052216,-28.245,7.595,-2.765
955,4314766,1.107394,-0.055022,-0.08113001,-30.17,6.3525,-1.3475
956,4314863,1.122644,-0.081496,-0.136884,-29.7675,5.355,0.28
957,4314959,1.14192,-0.07612801,-0.17921800000000002,-30.3625,4.2175,2.275
958,4315056,1.163758,-0.026718000000000002,-0.190076,-31.2725,3.4125,4.7775
959,4315153,1.186084,0.063684,-0.114802,-31.5175,3.6575,8.61
960,4315249,1.1746159999999999,0.161894,-0.06575800000000001,-30.1,4.8475,13.0025
961,4315346,1.107394,0.1586,-0.08466801,-19.705,6.825,16.38
962,4315443,1.041514,0.127734,-0.09650201,-13.965,8.855,16.555
963,4315540,0.9939341,0.110044,-0.075396,-14.105,9.5025,14.6825
964,4315636,0.96929,0.062220000000000004,-0.10797000000000001,-7.9275,8.7675,12.705
965,4315733,0.9772200999999999,0.043676,-0.15701400000000001,-4.48,8.12,10.6575
966,4315830,1.011868,0.097234,-0.21862399999999999,-4.585,6.16,9.0125
967,4315927,1.0645719999999999,0.107116,-0.327204,3.255,5.5825,8.9775
968,4316023,1.1486299999999998,0.144204,-0.337818,8.8725,4.27,10.5
969,4316120,1.215486,0.19947,-0.276574,11.7075,-1.295,13.93
970,4316217,1.198284,0.195688,-0.24046199999999998,22.26,-5.2325,18.2
971,4316313,1.10105,0.12248800000000001,-0.24412199999999998,27.825,-6.4925,19.565
972,4316410,0.9978379999999999,0.020618,-0.253272,29.47,-7.595,17.99
973,4316507,0.9287861,-0.0305,-0.2562,26.53,-9.625,15.295
974,4316604,0.8819381,-0.044286,-0.258762,22.365,-11.76,12.9675
975,4316700,0.865468,-0.07002799999999999,-0.28926199999999996,21.0,-13.3175,11.935
976,4316797,0.8791321,-0.089914,-0.30109600000000003,19.3725,-14.595,12.1975
977,4316894,0.9025559999999999,-0.086864,-0.3111,16.415,-17.1325,13.58
978,4316991,0.9219540999999999,-0.09784401,-0.306464,15.4525,-20.5275,15.19
979,4317087,0.9431821,-0.10004,-0.282186,13.055,-23.8525,15.4
980,4317184,0.953308,-0.08454600000000001,-0.26474000000000003,10.22,-25.1475,13.6675
981,4317281,0.9669721,-0.066856,-0.261446,8.96,-23.2575,10.605
982,4317377,0.9752681000000001,-0.03721,-0.24583000000000002,5.565,-20.4575,5.775
983,4317474,0.975024,-0.017446,-0.203008,3.885,-19.075,-0.245
984,4317571,0.9563581,0.0008540001,-0.17641199999999999,5.075,-17.6225,-6.5625
985,4317668,0.918782,0.028792,-0.159942,6.265,-16.275,-11.5675
986,4317764,0.8876719999999999,0.05185,-0.144326,7.8575,-15.54,-14.525
987,4317861,0.870226,0.06832001,-0.135908,9.065,-14.175,-15.8725
988,4317958,0.8698601,0.079422,-0.130906,10.36,-12.9675,-15.9425
989,4318055,0.883158,0.075396,-0.129564,12.0925,-11.9525,-15.2425
990,4318151,0.9019459999999999,0.062098,-0.126026,14.175,-12.04,-14.105
991,4318248,0.921222,0.044774,-0.12505,15.855,-12.5475,-12.7575
992,4318345,0.9396440999999999,0.022813999999999997,-0.129686,17.3425,-12.3375,-11.6375
993,4318442,0.951722,0.00244,-0.13725,18.375,-11.655,-10.8325
994,4318538,0.961116,-0.013786000000000001,-0.14274,18.83,-11.55,-10.5
995,4318635,0.9713639999999999,-0.028304000000000003,-0.15128,19.1625,-11.8125,-10.15
996,4318732,0.9745360000000001,-0.040748,-0.163602,19.0575,-12.0925,-9.7475
997,4318829,0.9709979999999999,-0.04867801,-0.17946199999999998,18.3575,-13.0025,-9.4325
998,4318925,0.9575780999999999,-0.055510000000000004,-0.18629400000000002,17.29,-14.4025,-8.9075
999,4319022,0.9398880999999999,-0.054655999999999996,-0.199104,16.2925,-15.9425,-8.3475
1000,4319119,0.9229299999999999,-0.04331,-0.201666,15.365,-16.8175,-7.6475
1001,4319216,0.9131700999999999,-0.024888,-0.20190999999999998,15.015,-17.4825,-6.965
1002,4319312,0.9168301,-0.002562,-0.198006,15.12,-18.025,-6.1425
1003,4319409,0.9240280000000001,0.01952,-0.19154000000000002,15.995,-18.06,-5.635
1004,4319506,0.931958,0.036112,-0.18239,17.045,-17.3425,-5.5475
1005,4319602,0.9343981,0.041602,-0.174948,18.13,-16.1875,-5.8625
1006,4319699,0.9375700000000001,0.032574,-0.15921,19.3375,-14.595,-6.4575
1007,4319796,0.9413520000000001,0.019886,-0.139934,20.055,-12.6525,-7.245
1008,4319893,0.9446460999999999,0.009637999999999999,-0.127002,20.79,-10.4125,-8.015
1009,4319989,0.942816,0.0017079999999999999,-0.118828,21.245,-8.0325,-8.645
1010,4320086,0.951844,0.003172,-0.132248,22.2075,-5.3375,-8.855
1011,4320183,0.9857600000000001,0.030622000000000003,-0.162382,22.225,-2.7825,-8.9425
1012,4320280,1.034194,0.061610000000000005,-0.17507,20.0025,-2.1875,-8.5925
1013,4320377,1.075308,0.05612,-0.160186,20.58,-4.1125,-7.49
1014,4320473,1.09922,0.043188,-0.162382,22.4,-5.985,-6.0725
1015,4320570,1.100684,0.025254,-0.156526,23.7475,-7.14,-4.9875
1016,4320667,1.0919,0.00793,-0.154818,25.1475,-8.435,-4.4975
1017,4320763,1.0828719999999998,-0.010004,-0.126392,25.3575,-9.415,-4.9175
1018,4320860,1.066646,-0.013541999999999998,-0.09418401,25.025,-10.01,-6.195
1019,4320957,1.0406600000000001,-0.004148001,-0.061,25.0075,-9.765,-7.9975
1020,4321054,1.0147959999999998,0.038674,-0.05368,24.535,-8.9425,-10.0975
1021,4321150,1.001132,0.09125599999999999,-0.095282,24.2025,-7.315,-12.6175
1022,4321247,1.0147959999999998,0.104798,-0.203374,22.925,-5.775,-15.575
1023,4321344,1.063352,0.051118000000000004,-0.224358,18.7075,-6.5625,-19.46
1024,4321441,1.1041,-0.049288,-0.145302,15.1725,-11.935,-23.3625
1025,4321537,1.1224,-0.11541199999999999,-0.159088,16.765,-12.005,-27.51
1026,4321634,1.098732,-0.110654,-0.21032800000000001,11.2,-6.72,-31.395
1027,4321731,1.0401719999999999,-0.10687200000000001,-0.235948,4.7775,-6.3875,-32.7075
1028,4321828,0.9921040999999999,-0.110654,-0.267546,-0.2625,-7.665,-32.8825
1029,4321924,0.954406,-0.114924,-0.26779000000000003,-6.3,-6.965,-33.7575
1030,4322021,0.916464,-0.054046000000000004,-0.26474000000000003,-10.395,-5.425,-34.5975
1031,4322118,0.888282,-0.054046000000000004,-0.309026,-14.105,-4.0775,-34.93
1032,4322214,0.8298440999999999,-0.077714,-0.277794,-9.415,-3.99,-32.935
1033,4322311,0.8249639999999999,0.03843,-0.31903000000000004,-21.3675,-3.0275,-29.4
1034,4322408,0.8422879999999999,-0.015493999999999999,-0.309636,-17.325,-0.875,-26.215
1035,4322505,0.8870620000000001,-0.04404201,-0.363682,-16.6425,-1.1725,-24.36
1036,4322601,0.961116,-0.049288,-0.37881,-19.075,-0.4725,-23.73
1037,4322698,1.030412,-0.09040201,-0.379664,-17.2025,-0.945,-23.8525
1038,4322795,1.0887280000000001,-0.110044,-0.36966,-15.9425,-1.5925,-23.9925
1039,4322892,1.117642,-0.081862,-0.343674,-17.64,-1.3125,-22.9075
1040,4322988,1.093364,-0.025742,-0.314394,-19.5475,-1.8025,-19.705
1041,4323085,1.02358,0.000732,-0.33171799999999996,-19.0575,-3.605,-14.595
1042,4323182,0.968924,-0.000976,-0.34586999999999996,-16.905,-4.515,-9.065
1043,4323278,0.9451341000000001,0.016714,-0.31598000000000004,-18.3925,-3.08,-4.0075
1044,4323375,0.9524540000000001,0.023058000000000002,-0.275964,-17.745,-1.715,1.1375
1045,4323472,0.9531860000000001,0.008784,-0.246806,-15.5925,-1.7325,5.985
1046,4323569,0.9433041,-0.019032,-0.215086,-14.5425,-2.1875,9.3975
1047,4323665,0.9224421,-0.045506,-0.199348,-14.35,-2.5375,10.8325
1048,4323762,0.902068,-0.068564,-0.18056,-14.6125,-3.325,10.8675
1049,4323859,0.8890140999999999,-0.07442,-0.160064,-16.03,-3.1325,10.3425
1050,4323955,0.89243,-0.07198,-0.14896199999999998,-17.4125,-2.0825,9.625
1051,4324052,0.9009700999999999,-0.057584,-0.14335,-18.725,-0.6475,8.8025
1052,4324149,0.9021899999999999,-0.031842,-0.138348,-20.2475,0.315,8.2775
1053,4324246,0.8982860999999999,-0.009882,-0.13664,-21.455,-0.035,7.945
1054,4324342,0.8982860999999999,0.007808001,-0.135664,-21.735,-0.1925,7.6475
1055,4324439,0.893284,0.024278,-0.136274,-22.365,-0.07,7.455
1056,4324536,0.889136,0.037332,-0.13664,-22.4175,-0.3325,7.175
1057,4324632,0.8949921000000001,0.046848,-0.137372,-21.7875,-0.49,6.825
1058,4324729,0.904874,0.057828,-0.13859200000000002,-21.4375,-0.1925,6.2825
1059,4324826,0.921832,0.05941401,-0.133956,-20.7025,-0.1225,5.6875
1060,4324923,0.936106,0.058926,-0.12675799999999998,-20.0025,-0.245,4.935
1061,4325019,0.9479401,0.054167999999999994,-0.12139000000000001,-19.285,-0.49,4.27
1062,4325116,0.955016,0.043554,-0.12285399999999999,-17.92,-0.9975,3.85
1063,4325213,0.9567241,0.032330000000000005,-0.12322000000000001,-16.625,-1.89,3.6225
1064,4325310,0.9552601000000001,0.024888,-0.119682,-15.5225,-2.2925,3.36
1065,4325406,0.946232,0.025254,-0.107848,-14.7,-2.065,3.4475
1066,4325503,0.9340321,0.024522,-0.100284,-13.685,-1.1375,3.43
1067,4325600,0.9228081,0.018666,-0.09418401,-12.495,0.1225,3.5175
1068,4325696,0.917074,0.011101999999999999,-0.095038,-11.3925,2.0825,3.5525
1069,4325793,0.9145120999999999,0.0051240009999999996,-0.094306,-10.08,4.1125,3.2375
1070,4325890,0.9141459999999999,0.01281,-0.09211,-9.205,5.7225,2.7825
1071,4325987,0.9229299999999999,0.01647,-0.094062,-8.54,7.28,2.4675
1072,4326083,0.9351299999999999,0.01464,-0.10553,-8.085,8.6275,2.31
1073,4326180,0.9520881,-0.00183,-0.124196,-8.225,9.2925,2.17
1074,4326277,0.9766101,-0.031110000000000002,-0.127246,-8.855,9.8525,1.8025
1075,4326374,1.0054020000000001,-0.060877999999999995,-0.133712,-10.605,10.2375,1.1375
1076,4326470,1.036878,-0.091134,-0.14090999999999998,-11.9175,10.0275,0.0875
1077,4326567,1.0687200000000001,-0.09991799999999999,-0.133468,-15.12,9.4325,-1.715
1078,4326664,1.093974,-0.08625401,-0.115168,-19.04,8.3825,-3.99
1079,4326761,1.112762,-0.053801999999999996,-0.101382,-21.665,7.4725,-5.6
1080,4326857,1.115446,-0.022448,-0.076616,-23.695,6.72,-6.23
1081,4326954,1.109834,0.010126000000000001,-0.04514,-25.2875,5.915,-5.8975
1082,4327051,1.10105,0.033306,-0.026718000000000002,-25.4275,5.355,-4.9
1083,4327148,1.092388,0.034648000000000005,-0.042578,-23.4675,5.565,-3.5175
1084,4327244,1.095194,0.020984,-0.086132,-20.4925,6.44,-1.75
1085,4327341,1.1089799999999999,0.013541999999999998,-0.11919400000000001,-18.55,7.63,0.42
1086,4327438,1.1385040000000002,0.031842,-0.144082,-16.8525,9.66,2.835
1087,4327535,1.1747379999999998,0.062098,-0.10650599999999999,-14.7,10.6575,5.9675
1088,4327631,1.196576,0.11224,-0.041968,-14.21,10.955,9.4325
1089,4327728,1.16815,0.118828,-0.031842,-8.785,10.535,12.4075
1090,4327825,1.088118,0.06075601,-0.06636801,-0.98,10.0275,12.6525
1091,4327922,1.014918,0.010248,-0.106628,-0.525,10.08,9.625
1092,4328018,0.975634,-0.015738,-0.12980799999999998,0.1925,10.7975,6.16
1093,4328115,0.9707541,0.005002,-0.184586,-0.4025,9.52,3.885
1094,4328212,1.005036,0.05355801,-0.318054,2.5725,7.77,3.1675
1095,4328308,1.0911680000000001,0.10504200000000001,-0.316834,7.1925,7.245,4.62
1096,4328405,1.172908,0.19032000000000002,-0.24412199999999998,7.98,2.2925,8.6625
1097,4328502,1.19621,0.190198,-0.184586,18.2875,-1.7325,14.5425
1098,4328599,1.140334,0.151036,-0.19642,23.5725,-2.485,17.675
1099,4328695,1.059204,0.07076001,-0.200324,24.815,-4.025,16.9225
1100,4328792,0.9956421,0.013054,-0.20496,25.0075,-6.825,14.7525
1101,4328889,0.9439139999999999,-0.012322,-0.208864,21.7875,-8.4175,12.7925
1102,4328986,0.90951,-0.046604,-0.229604,22.12,-8.925,12.2325
1103,4329082,0.8959681,-0.0549,-0.255712,21.7,-10.3425,13.0725
1104,4329179,0.8998719999999999,-0.052826,-0.27694,19.67,-13.09,14.5775
1105,4329276,0.9142680000000001,-0.061732,-0.282064,18.445,-16.905,16.1875
1106,4329372,0.9292739999999999,-0.064172,-0.26779000000000003,15.4875,-20.86,16.7475
1107,4329469,0.9451341000000001,-0.05563200000000001,-0.262788,13.51,-23.3975,15.6625
1108,4329566,0.964532,-0.031232,-0.260226,12.0575,-22.5225,12.3725
1109,4329663,0.992592,-0.0032939999999999996,-0.23973000000000003,8.9075,-20.195,7.0525
1110,4329759,1.009306,0.004514,-0.208132,8.295,-19.4075,0.6475
1111,4329856,0.9999121,0.01098,-0.185806,9.17,-19.005,-5.81
1112,4329953,0.964532,0.018422,-0.177754,9.24,-18.69,-10.885
1113,4330050,0.9232961,0.024278,-0.167994,9.3625,-18.935,-13.6675
1114,4330146,0.9009700999999999,0.027083999999999997,-0.15799000000000002,8.9775,-19.1275,-14.91
1115,4330243,0.88999,0.027206,-0.150426,8.6275,-19.0575,-14.9975
1116,4330340,0.8968221,0.028304000000000003,-0.142618,8.4,-19.11,-14.455
1117,4330436,0.9053620000000001,0.027816000000000004,-0.13639600000000002,8.4525,-19.1625,-13.4925
1118,4330533,0.9200021,0.029524,-0.136274,8.855,-19.5825,-12.1275
1119,4330630,0.927932,0.025863999999999998,-0.13944600000000001,9.6075,-19.635,-10.815
1120,4330727,0.936106,0.027083999999999997,-0.14518,10.2375,-19.635,-9.8525
1121,4330823,0.94489,0.027206,-0.14786400000000002,11.1825,-19.565,-9.135
1122,4330920,0.9470860000000001,0.029158,-0.15201199999999998,12.4075,-19.565,-8.75
1123,4331017,0.9489161,0.031476,-0.15433,13.58,-19.8975,-8.5575
1124,4331114,0.9459880999999999,0.031842,-0.157136,14.91,-20.2125,-8.19
1125,4331210,0.9433041,0.034892,-0.157136,16.1875,-20.4925,-7.7
1126,4331307,0.9383020000000001,0.03782,-0.156282,17.7275,-20.7025,-7.28
1127,4331404,0.936472,0.040016,-0.150792,19.2675,-21.0,-7.0175
1128,4331500,0.9322021,0.047580000000000004,-0.15091400000000002,20.8425,-21.0175,-6.93
1129,4331597,0.9330560999999999,0.048556,-0.144814,22.365,-20.265,-6.8075
1130,4331694,0.931958,0.050874,-0.142374,23.9575,-19.2325,-6.9825
1131,4331791,0.9292739999999999,0.050386,-0.146156,25.795,-18.0075,-7.175
1132,4331887,0.9370821,0.0427,-0.14274,27.055,-16.275,-7.3675
1133,4331984,0.941718,0.031964,-0.127856,28.105,-14.0525,-7.1925
1134,4332081,0.9484280999999999,0.023302,-0.124074,29.1025,-10.9725,-7.0175
1135,4332178,0.951356,0.022082,-0.12871,29.7325,-7.4025,-6.615
1136,4332274,0.959408,0.020862000000000002,-0.131028,30.0125,-4.1475,-5.8625
1137,4332371,0.9801479999999999,0.040382,-0.12932000000000002,29.8025,-2.1175,-4.9525
1138,4332468,1.001132,0.066734,-0.14688800000000002,30.1,-0.9275,-3.9375
1139,4332564,1.0248,0.09516001,-0.17385,30.52,-0.0525,-3.22
1140,4332661,1.0498100000000001,0.09869801,-0.172996,29.015,-0.595,-3.0975
1141,4332758,1.06689,0.054655999999999996,-0.145912,29.6975,-1.575,-3.605
1142,4332855,1.07421,0.008784,-0.1342,30.9925,-1.05,-5.1625
1143,4332951,1.06994,-0.01464,-0.12029200000000001,30.9575,-0.805,-7.5075
1144,4333048,1.057374,-0.019642,-0.09674601,30.31,-1.995,-10.1675
1145,4333145,1.0406600000000001,-0.002684,-0.06466001,29.4,-2.87,-12.985
1146,4333242,1.021872,0.028792,-0.030987999999999998,28.5425,-2.7125,-15.96
1147,4333339,1.00406,0.06746601,-0.02684,27.405,-2.135,-19.005
1148,4333435,1.008208,0.08113001,-0.056974000000000004,25.865,-2.5375,-22.05
1149,4333532,1.024556,0.071492,-0.145546,24.2725,-5.0225,-24.9375
1150,4333629,1.0676219999999998,0.006832001,-0.15823399999999999,18.8125,-8.155,-28.21
1151,4333726,1.104588,-0.101992,-0.09345201,14.6475,-13.1075,-31.85
1152,4333823,1.1095899999999999,-0.167262,-0.104798,15.1725,-12.0925,-35.63
1153,4333919,1.068476,-0.134078,-0.19276,9.03,-5.9325,-37.975
1154,4334016,1.006134,-0.09259801,-0.244732,1.0325,-5.25,-36.75
1155,4334113,0.9711200999999999,-0.09186601,-0.276086,-5.4075,-7.1225,-34.195
1156,4334210,0.9612379999999999,-0.106018,-0.26961999999999997,-11.235,-5.985,-32.9875
1157,4334306,0.9539181000000001,-0.02806,-0.307562,-16.03,-3.7275,-32.2175
1158,4334403,0.93147,-0.116632,-0.295362,-17.6225,-2.135,-31.535
1159,4334500,0.8699821,-0.102968,-0.29341,-17.3425,-4.48,-28.6475
1160,4334597,0.8541221,-0.045018,-0.28609,-22.75,-3.85,-25.4625
1161,4334694,0.863516,-0.036722000000000005,-0.3233,-19.88,-1.4,-22.7325
1162,4334790,0.9240280000000001,-0.015738,-0.34465,-22.4175,-2.1175,-21.0
1163,4334887,1.0151620000000001,-0.024766,-0.33000999999999997,-24.4125,-2.6775,-20.2125
1164,4334984,1.083604,-0.05819401,-0.309148,-22.575,-2.065,-19.74
1165,4335081,1.11447,-0.05929201,-0.288286,-22.47,-1.085,-18.5675
1166,4335178,1.088118,-0.014396,-0.25790799999999997,-25.62,-1.085,-16.2925
1167,4335274,1.0199200000000002,-0.010614,-0.28938400000000003,-25.2875,-2.6075,-12.32
1168,4335371,0.967094,-0.025742,-0.30182800000000004,-24.4125,-4.4625,-7.9275
1169,4335468,0.972706,-0.010736,-0.277794,-27.79,-3.7975,-3.9375
1170,4335565,0.995764,-0.008784,-0.24851399999999998,-27.58,-2.1525,0.3325
1171,4335662,1.008086,-0.007686,-0.22801799999999997,-27.2475,-2.94,4.55
1172,4335758,0.9994241,-0.01403,-0.202398,-26.74,-4.3925,8.19
1173,4335855,0.9812460999999999,-0.023546,-0.18775799999999998,-26.53,-5.4075,10.395
1174,4335952,0.9608721,-0.028304000000000003,-0.17360599999999998,-26.2325,-5.9675,11.27
1175,4336049,0.9419620999999999,-0.034892,-0.162992,-26.355,-6.4575,11.5675
1176,4336146,0.931226,-0.030987999999999998,-0.155184,-26.5475,-6.5275,11.515
1177,4336242,0.920734,-0.017812,-0.153354,-27.405,-6.0725,11.235
1178,4336339,0.9134141,0.002196,-0.15396400000000002,-28.1225,-5.88,10.955
1179,4336436,0.9093880999999999,0.012078,-0.153232,-28.735,-6.3,11.0775
1180,4336533,0.9026780000000001,0.017568,-0.154086,-29.505,-6.265,11.515
1181,4336630,0.8957241,0.019032,-0.15018199999999998,-30.555,-5.8625,12.005
1182,4336726,0.892308,0.025863999999999998,-0.140422,-31.5,-5.145,12.355
1183,4336823,0.8975540000000001,0.032695999999999996,-0.131028,-32.235,-3.9725,12.67
1184,4336920,0.904874,0.036478,-0.11773,-32.3925,-2.52,13.0375
1185,4337017,0.9120720999999999,0.04575,-0.102114,-32.655,-2.0125,13.125
1186,4337114,0.921588,0.062952,-0.09320801,-32.2175,-1.995,12.4775
1187,4337210,0.9247601000000001,0.077714,-0.09223200000000001,-30.695,-1.9425,11.375
1188,4337307,0.92232,0.08698601,-0.094916,-28.4025,-1.9425,9.9575
1189,4337404,0.9254921,0.099552,-0.099674,-26.425,-1.6275,8.4875
1190,4337501,0.930616,0.10321199999999998,-0.09930800000000001,-23.9575,-0.945,7.4025
1191,4337598,0.934642,0.10516400000000001,-0.09821001,-21.4025,-0.3325,6.5975
1192,4337694,0.9372040999999999,0.099552,-0.08881599,-19.2325,0.07,5.9325
1193,4337791,0.9368380999999999,0.083204,-0.08893801,-16.8525,0.49,5.3025
1194,4337888,0.9328120000000001,0.063684,-0.08479,-14.525,0.77,4.515
1195,4337985,0.924394,0.047702,-0.08527801,-12.915,1.5225,3.5
1196,4338082,0.9181720999999999,0.031842,-0.08601,-11.6025,2.765,2.3625
1197,4338178,0.921222,0.0183,-0.08576601,-10.9725,4.06,1.225
1198,4338275,0.9363501000000001,0.005246,-0.090768,-10.85,5.1625,0.2625
1199,4338372,0.9613601,-0.009272001,-0.11541199999999999,-10.4125,6.2475,-0.3675
1200,4338469,0.992592,-0.019275999999999998,-0.12468399999999999,-10.29,6.58,-0.5075
1201,4338566,1.022482,-0.020374,-0.12688,-11.375,6.0375,-0.595
1202,4338662,1.0492,-0.024644,-0.133468,-11.095,5.4775,-0.49
1203,4338759,1.071526,-0.026351999999999997,-0.138348,-11.6725,4.6725,-0.315
1204,4338856,1.090314,-0.033672,-0.13944600000000001,-12.495,3.92,-0.595
1205,4338953,1.096414,-0.047092,-0.13602999999999998,-13.545,3.0625,-1.015
1206,4339050,1.0979999999999999,-0.056729999999999996,-0.129198,-14.91,2.2575,-1.715
1207,4339146,1.098366,-0.044286,-0.116876,-17.535,1.47,-2.0825
1208,4339243,1.097634,-0.02928,-0.101504,-19.95,0.875,-1.6275
1209,4339340,1.089094,-0.009637999999999999,-0.09418401,-21.4375,0.8400001,-0.5775
1210,4339437,1.083116,0.004636001,-0.085888,-22.2425,0.9975,0.6825
1211,4339533,1.0920219999999998,0.016592,-0.07173600000000001,-21.91,1.2425,1.925
1212,4339630,1.119594,0.028548,-0.069052,-20.895,1.75,3.5875
1213,4339727,1.153144,0.044286,-0.07832401,-19.0575,1.9425,5.5125
1214,4339824,1.1859620000000002,0.066246,-0.048556,-18.55,2.0125,7.56
1215,4339921,1.194868,0.104554,0.005856,-19.11,2.0125,9.6425
1216,4340017,1.149972,0.09698999999999999,-0.036233999999999995,-13.6325,2.9225,11.095
1217,4340114,1.090314,0.046360000000000005,-0.10089400000000001,-5.7575,4.0075,11.095
1218,4340211,1.048224,0.04331,-0.10809200000000001,-7.1925,4.3925,9.1875
1219,4340308,1.024434,0.06880801,-0.14078800000000002,-6.0375,4.48,7.665
1220,4340405,1.0406600000000001,0.101016,-0.21825799999999998,-0.595,5.39,7.175
1221,4340501,1.08397,0.13908,-0.210206,0.91,5.9675,7.6825
1222,4340598,1.100196,0.18287799999999999,-0.159698,2.0825,2.31,9.6775
1223,4340695,1.05774,0.14566800000000002,-0.14896199999999998,10.4475,0.9975,11.76
1224,4340792,0.996374,0.06283,-0.17128800000000002,14.7525,2.03,11.55
1225,4340889,0.9619700000000001,-0.011468,-0.17848599999999998,14.14,1.015,9.6425
1226,4340985,0.9480620000000001,-0.023546,-0.185196,11.41,-3.7625,7.2975
1227,4341082,0.9423280999999999,-0.005246,-0.185806,9.6075,-8.33,5.635
1228,4341179,0.939766,0.011346,-0.199348,8.995,-9.3275,5.1975
1229,4341276,0.936716,0.015982,-0.225944,9.065,-9.135,6.2475
1230,4341373,0.9330560999999999,0.01403,-0.247294,9.52,-10.115,8.4
1231,4341469,0.9264680000000001,0.016104,-0.260104,9.66,-12.9325,11.0775
1232,4341566,0.916342,0.00549,-0.265106,9.835,-16.66,13.3875
1233,4341663,0.9147559999999999,-0.007076001,-0.258396,9.555,-19.88,14.4025
1234,4341760,0.9214661,-0.0034159999999999998,-0.24790399999999999,8.89,-21.5075,14.2275
1235,4341857,0.9298841,0.009394,-0.24705,9.5375,-21.14,13.09
1236,4341953,0.9413520000000001,0.024644,-0.25058800000000003,10.1325,-19.845,10.29
1237,4342050,0.9686799999999999,0.038674,-0.228506,9.7475,-19.11,5.5125
1238,4342147,0.9941780000000001,0.045262000000000004,-0.195078,10.7975,-19.4425,-0.5775
1239,4342244,1.001132,0.045872,-0.171898,13.405,-19.8275,-6.44
1240,4342341,0.986614,0.047214,-0.156648,15.505,-19.4425,-11.235
1241,4342437,0.9439139999999999,0.045872,-0.148596,17.045,-19.1625,-14.49
1242,4342534,0.9079241,0.041968,-0.139568,17.745,-19.355,-16.135
1243,4342631,0.898164,0.042822000000000006,-0.133224,17.3425,-18.935,-16.625
1244,4342728,0.892064,0.038796,-0.129564,17.6225,-18.4975,-16.275
1245,4342825,0.8968221,0.03721,-0.12980799999999998,17.8325,-19.2325,-15.365
1246,4342922,0.9097540000000001,0.025498,-0.126392,18.375,-19.705,-14.035
1247,4343018,0.9242720999999999,0.015616,-0.13237000000000002,18.9,-19.425,-13.2825
1248,4343115,0.930372,0.00793,-0.134078,18.935,-18.9,-12.9325
1249,4343212,0.933422,0.005612,-0.142618,18.8475,-19.145,-12.425
1250,4343309,0.94245,0.000976,-0.151646,18.7075,-19.1275,-11.62
1251,4343406,0.9490379999999999,-0.002684,-0.158356,17.85,-18.7075,-10.6925
1252,4343502,0.9526979999999999,-0.009150001,-0.15579400000000002,17.1675,-18.795,-9.205
1253,4343599,0.9625799999999999,-0.01464,-0.156404,16.1175,-18.8125,-7.6125
1254,4343696,0.9718521000000001,-0.020008,-0.15738,14.7175,-18.8475,-5.8275
1255,4343793,0.979294,-0.025863999999999998,-0.15176800000000001,13.2125,-19.46,-4.305
1256,4343890,0.9797819999999999,-0.024522,-0.141398,12.0575,-20.1425,-3.2725
1257,4343986,0.97478,-0.01281,-0.136518,11.27,-19.88,-2.4675
1258,4344083,0.9636780999999999,0.000366,-0.14152,10.7275,-18.655,-1.995
1259,4344180,0.957822,0.015616,-0.149084,10.29,-16.7825,-1.4525
1260,4344277,0.9557479999999999,0.024766,-0.14457,9.7825,-15.0675,-1.155
1261,4344374,0.955016,0.029158,-0.135176,10.08,-13.5975,-1.295
1262,4344470,0.9587979999999999,0.0366,-0.137738,11.095,-11.095,-1.435
1263,4344567,0.9762440999999998,0.051362,-0.135176,12.1975,-8.19,-1.6975
1264,4344664,0.9964959999999999,0.08759601,-0.13237000000000002,12.9325,-6.2475,-1.6975
1265,4344761,1.01443,0.11248399999999999,-0.140666,15.3825,-5.7925,-1.47
1266,4344858,1.0354139999999998,0.13383399999999998,-0.151524,18.1825,-6.4575,-1.7325
1267,4344955,1.04493,0.139202,-0.14688800000000002,20.475,-7.4725,-2.73
1268,4345051,1.039684,0.11955999999999999,-0.145912,24.7625,-8.855,-4.1125
1269,4345148,1.02419,0.095282,-0.141154,28.245,-9.87,-5.5475
1270,4345245,1.011136,0.0732,-0.125904,30.8175,-10.5525,-6.8075
1271,4345342,1.01016,0.051484,-0.116754,32.4975,-11.2525,-7.6825
1272,4345439,1.01565,0.037698,-0.09235399999999999,32.655,-11.6725,-8.015
1273,4345535,1.0182120000000001,0.02745,-0.05977999999999999,32.3225,-11.725,-8.0325
1274,4345632,1.012478,0.032451999999999995,-0.041724000000000004,31.745,-10.64,-8.085
1275,4345729,1.009184,0.05355801,-0.057462,30.6775,-8.4875,-8.9075
1276,4345826,1.0248,0.06600201,-0.149816,28.3325,-6.755,-11.235
1277,4345923,1.080554,0.036478,-0.24058400000000002,24.36,-6.79,-15.68
1278,4346019,1.148508,-0.037942000000000004,-0.179584,16.415,-10.3425,-22.3475
1279,4346116,1.1746159999999999,-0.11614400000000001,-0.148352,16.4325,-13.6675,-29.68
1280,4346213,1.1468,-0.10858,-0.206546,16.205,-9.8,-36.2775
1281,4346310,1.070916,-0.058072000000000006,-0.231434,9.0125,-6.65,-39.0425
1282,4346407,1.003572,-0.039528,-0.252784,6.2825,-7.7525,-37.66
1283,4346504,0.9846620999999999,-0.036966000000000006,-0.256322,2.695,-7.665,-35.6475
1284,4346600,0.9761219999999999,-0.029158,-0.239242,-0.9625,-7.1225,-34.5275
1285,4346697,0.954284,-0.027572000000000003,-0.29341,-2.1175,-6.1075,-33.67
1286,4346794,0.892918,-0.052216,-0.25559,-0.2975,-6.02,-31.9025
1287,4346891,0.8491200000000001,0.015493999999999999,-0.290848,-7.84,-5.67,-28.6475
1288,4346988,0.823622,-0.032818,-0.28792,-7.35,-4.2175,-25.1125
1289,4347084,0.8260620000000001,-0.080276,-0.322202,-9.555,-6.3,-21.945
1290,4347181,0.8838901,-0.106018,-0.340136,-14.735,-7.0875,-20.2475
1291,4347278,0.94855,-0.160064,-0.335256,-17.5175,-6.755,-20.195
1292,4347375,1.007476,-0.192272,-0.31903000000000004,-19.32,-6.4925,-20.7375
1293,4347472,1.055666,-0.164212,-0.31097800000000003,-23.9225,-4.4275,-20.79
1294,4347568,1.067744,-0.10540799999999999,-0.27816,-27.2825,-2.975,-18.76
1295,4347665,1.0229700000000002,-0.036844,-0.27218200000000004,-30.415,-4.55,-14.805
1296,4347762,0.977342,-0.014518000000000001,-0.28792,-28.63,-6.545,-9.6775
1297,4347859,0.9706319999999999,0.007442,-0.277672,-27.9825,-5.565,-4.165
1298,4347956,0.9767321,0.038064,-0.250832,-29.155,-3.4125,1.155
1299,4348053,0.9741700000000001,0.047336,-0.239364,-25.97,-3.0625,5.9325
1300,4348149,0.9630681000000001,0.045994,-0.230336,-23.52,-3.2025,8.9075
1301,4348246,0.94855,0.032695999999999996,-0.21520799999999998,-22.12,-3.3075,10.5875
1302,4348343,0.9333,0.01281,-0.20630199999999999,-20.2475,-3.815,11.55
1303,4348440,0.9322021,-0.007442,-0.18788,-19.7225,-3.6575,12.005
1304,4348537,0.93086,-0.012078,-0.176778,-20.37,-2.3275,12.0925
1305,4348633,0.9289081,-0.011834,-0.17140999999999998,-20.825,-1.365,12.075
1306,4348730,0.9236620999999999,-0.002928,-0.172752,-21.2275,-1.26,11.515
1307,4348827,0.916464,0.013297999999999999,-0.17019,-21.595,-1.785,10.6575
1308,4348924,0.9118280000000001,0.029524,-0.162382,-21.4375,-2.2925,9.8875
1309,4349020,0.9082899999999999,0.039406000000000004,-0.158112,-20.5975,-2.8175,9.31
1310,4349117,0.906216,0.05160601,-0.156038,-19.2675,-2.7825,8.6625
1311,4349214,0.9090219999999999,0.060634,-0.150792,-18.1125,-2.31,7.9975
1312,4349311,0.9086559999999999,0.066124,-0.14688800000000002,-16.87,-2.065,7.245
1313,4349408,0.903532,0.06039,-0.14566800000000002,-15.54,-2.2575,6.3525
1314,4349504,0.9023121,0.046848,-0.144814,-14.42,-2.135,5.5825
1315,4349601,0.9057280999999999,0.035624,-0.14188599999999998,-13.9125,-1.0675,5.005
1316,4349698,0.9148780000000001,0.023180000000000003,-0.138226,-13.7375,0.175,4.8475
1317,4349795,0.9274440999999999,0.013054,-0.140422,-13.755,1.12,5.04
1318,4349892,0.942206,0.004758,-0.14078800000000002,-13.965,1.6975,5.495
1319,4349988,0.95709,0.004392,-0.134322,-14.5425,2.03,6.09
1320,4350085,0.9627020000000001,0.008418,-0.127246,-14.9275,2.24,6.615
1321,4350182,0.9625799999999999,0.012322,-0.11650999999999999,-14.8925,2.38,6.9125
1322,4350279,0.953674,0.01952,-0.110898,-14.595,2.7125,6.8075
1323,4350376,0.9404981,0.02196,-0.10833599999999999,-13.6325,3.2375,6.2825
1324,4350472,0.9236620999999999,0.018422,-0.105652,-12.6525,4.6025,5.355
1325,4350569,0.9128040000000001,0.012444,-0.102724,-11.9,6.2825,4.2525
1326,4350666,0.9145120999999999,0.011224,-0.104554,-11.41,7.7,3.0975
1327,4350763,0.930616,0.010004,-0.107482,-10.9375,8.2425,1.7325
1328,4350860,0.9629459999999999,0.008540001,-0.116388,-10.7275,8.225,0.1925
1329,4350957,0.999302,-0.002318,-0.12529400000000002,-10.395,7.595,-1.6975
1330,4351053,1.0382200000000001,-0.019642,-0.133956,-9.7825,6.65,-3.57
1331,4351150,1.077504,-0.033062,-0.13908,-9.4675,5.005,-5.1625
1332,4351247,1.105442,-0.038186000000000005,-0.14335,-9.765,3.71,-6.3
1333,4351344,1.114714,-0.03843,-0.13237000000000002,-10.2725,2.8,-6.6675
1334,4351441,1.1089799999999999,-0.028669999999999998,-0.109556,-11.725,2.1525,-6.265
1335,4351537,1.095316,-0.020374,-0.081862,-13.405,1.8025,-5.075
1336,4351634,1.077504,-0.00793,-0.050874,-15.26,2.24,-3.2725
1337,4351731,1.0589600000000001,-0.000244,-0.029401999999999998,-17.6575,3.22,-1.3475
1338,4351828,1.036268,-0.0061,-0.010126000000000001,-20.1075,5.04,0.175
1339,4351925,1.01016,-0.028426,-0.011590000000000001,-22.2425,7.3675,0.9975
1340,4352021,1.013088,-0.05770599999999999,-0.06270801,-22.0325,8.435,1.5575
1341,4352118,1.0612780000000002,-0.06771001,-0.132004,-21.07,7.42,2.7475
1342,4352215,1.126182,-0.027327999999999998,-0.156282,-22.015,5.6525,4.4275
1343,4352312,1.18157,0.060024,-0.09235399999999999,-24.255,5.1975,7.1575
1344,4352409,1.193892,0.15176800000000001,-0.044652,-22.4525,6.79,11.1825
1345,4352505,1.1356979999999999,0.151036,-0.062341999999999995,-12.6,10.6225,14.9625
1346,4352602,1.0473700000000001,0.08649801,-0.089792,-4.5325,13.72,16.135
1347,4352699,0.9775860000000001,0.05429,-0.03965,-5.0225,15.365,14.385
1348,4352796,0.931226,0.037698,-0.043676,-5.74,16.45,11.655
1349,4352893,0.915976,0.027206,-0.097722,-0.875,15.995,9.0125
1350,4352989,0.9575780999999999,0.05563200000000001,-0.183,-3.4825,14.175,6.545
1351,4353086,0.9889319999999999,0.066734,-0.280844,-0.7175,11.1125,5.3375
1352,4353183,1.042978,0.06380599999999999,-0.351238,6.5625,8.2775,6.0025
1353,4353280,1.14741,0.118584,-0.32086,8.1725,5.1275,8.295
1354,4353377,1.216218,0.154086,-0.219234,10.9025,0.3675,13.51
1355,4353474,1.19438,0.147254,-0.20288599999999998,17.4475,-1.9775,19.81
1356,4353570,1.095804,0.07832401,-0.22167399999999998,18.06,-2.7125,22.82
1357,4353667,0.99918,-0.0032939999999999996,-0.224846,15.8725,-4.3575,21.9625
1358,4353764,0.943426,-0.062098,-0.237656,11.375,-5.355,19.8275
1359,4353861,0.9225639999999999,-0.104798,-0.259128,9.3975,-7.245,18.515
1360,4353958,0.93147,-0.111874,-0.287554,7.56,-10.885,18.7075
1361,4354054,0.9675819999999999,-0.102114,-0.29097,4.9175,-15.4,20.0375
1362,4354151,1.0029620000000001,-0.09052401,-0.28304,2.24,-19.705,21.42
1363,4354248,1.0255319999999999,-0.07564,-0.26352,0.21,-24.0975,21.77
1364,4354345,1.026142,-0.049166,-0.253394,-1.61,-26.5125,20.2125
1365,4354441,1.0255319999999999,-0.008418,-0.244,-2.66,-26.0575,16.38
1366,4354538,1.02541,0.024766,-0.214964,-3.885,-24.605,10.535
1367,4354635,1.02419,0.041968,-0.173118,-3.15,-24.185,3.395
1368,4354732,0.998814,0.052338,-0.15006,-0.8225,-23.5025,-3.3425
1369,4354829,0.9503799999999999,0.05941401,-0.13944600000000001,1.7325,-22.715,-8.0675
1370,4354925,0.8995059999999999,0.061732,-0.130418,3.3775,-21.8225,-11.0075
1371,4355022,0.8670540999999999,0.065514,-0.117486,4.2525,-20.5625,-12.425
1372,4355119,0.8559521000000001,0.066978,-0.113094,5.3725,-19.25,-12.9675
1373,4355216,0.8672979999999999,0.07234600000000001,-0.110654,6.6675,-18.7075,-12.95
1374,4355313,0.89975,0.07356601,-0.10687200000000001,8.5225,-18.76,-12.705
1375,4355409,0.9269561,0.066246,-0.10394400000000001,11.515,-18.4625,-12.8975
1376,4355506,0.94306,0.05636401,-0.104554,14.455,-18.41,-13.0025
1377,4355603,0.94611,0.048922,-0.10418800000000002,16.9925,-17.9025,-12.88
1378,4355700,0.9436701,0.040016,-0.113094,19.11,-17.0275,-12.845
1379,4355797,0.936472,0.028548,-0.121146,20.93,-16.5375,-12.3725
1380,4355893,0.9286639999999999,0.019398,-0.13078399999999998,22.015,-16.0475,-11.69
1381,4355990,0.9228081,0.006832001,-0.13847,23.205,-15.6975,-10.8675
1382,4356087,0.9191481,-0.002928,-0.144448,23.695,-15.1025,-10.29
1383,4356184,0.9114620000000001,-0.009150001,-0.14566800000000002,24.185,-15.015,-10.0975
1384,4356281,0.907436,-0.008296000999999999,-0.14884,24.7625,-15.155,-10.115
1385,4356377,0.901702,0.0,-0.146766,25.095,-14.9625,-10.395
1386,4356474,0.901702,0.007076001,-0.143228,25.7425,-14.42,-10.7975
1387,4356571,0.9067040000000001,0.010736,-0.140178,26.565,-13.7725,-11.0775
1388,4356668,0.921344,0.01403,-0.142008,27.335,-12.915,-11.025
1389,4356765,0.9409860999999999,0.01342,-0.139812,27.8425,-12.0925,-10.815
1390,4356861,0.9598959999999999,0.008296000999999999,-0.129198,28.105,-11.69,-10.675
1391,4356958,0.973194,0.004758,-0.114558,28.455,-10.85,-10.71
1392,4357055,0.975878,0.0008540001,-0.106628,29.1025,-9.8525,-11.13
1393,4357152,0.96929,0.00427,-0.10675,30.3275,-8.2775,-11.5325
1394,4357249,0.9650200999999999,0.020618,-0.11407,31.1675,-6.02,-11.7425
1395,4357345,0.9751460999999999,0.037332,-0.12139000000000001,31.955,-4.1475,-11.62
1396,4357442,0.9955200000000001,0.050874,-0.133102,33.0925,-3.0275,-11.235
1397,4357539,1.025898,0.05941401,-0.14993800000000002,33.845,-2.52,-10.5875
1398,4357636,1.064206,0.061366,-0.156526,34.23,-2.73,-9.765
1399,4357733,1.089948,0.063318,-0.15921,33.8275,-3.4125,-8.435
1400,4357829,1.08702,0.037698,-0.150304,34.825,-4.165,-7.035
1401,4357926,1.07421,0.01342,-0.140422,35.6825,-4.83,-6.265
1402,4358023,1.05835,-0.0051240009999999996,-0.12871,35.7175,-4.8125,-6.5625
1403,4358120,1.055544,-0.015128,-0.119804,34.7375,-5.4425,-7.84
1404,4358217,1.056154,-0.018666,-0.089792,32.515,-7.245,-9.5725
1405,4358313,1.048834,-0.013908000000000002,-0.04941,29.855,-9.6425,-11.2175
1406,4358410,1.039806,0.002196,-0.039528,27.125,-10.9725,-13.0375
1407,4358507,1.048346,0.009150001,-0.07722601,23.4325,-11.9525,-15.26
1408,4358604,1.078968,-0.010858,-0.163602,19.2325,-13.9125,-18.0075
1409,4358699,1.133502,-0.075762,-0.14188599999999998,11.3225,-15.89,-21.98
1410,4358796,1.163392,-0.154696,-0.061975999999999996,5.6175,-18.13,-26.5475
1411,4358893,1.142164,-0.170922,-0.10943399999999999,4.3925,-15.2775,-30.135
1412,4358989,1.083116,-0.064294,-0.192272,-2.5375,-10.815,-31.045
1413,4359086,1.047248,-0.10919000000000001,-0.28072199999999997,-8.9075,-11.095,-28.7875
1414,4359183,0.9949100000000001,-0.129198,-0.261446,-6.3875,-15.3125,-24.9725
1415,4359280,1.00345,-0.03477,-0.258396,-20.405,-14.7,-23.0825
1416,4359377,0.9967401,-0.040260000000000004,-0.260714,-17.57,-10.7275,-22.7675
1417,4359473,0.9572120999999999,0.021838,-0.291946,-18.8125,-12.53,-23.17
1418,4359570,0.9147559999999999,0.081374,-0.295118,-21.0875,-14.5075,-23.1
1419,4359667,0.877058,0.05917000000000001,-0.284748,-16.3625,-15.365,-21.9275
1420,4359764,0.8586360000000001,0.03538,-0.298412,-13.1075,-14.0525,-20.055
1421,4359860,0.870592,0.019275999999999998,-0.322446,-11.9,-10.605,-18.69
1422,4359957,0.9002379999999999,-0.004758,-0.34111199999999997,-10.9375,-8.225,-18.7775
1423,4360054,0.9463540000000001,-0.034404000000000004,-0.34257600000000005,-10.6575,-6.7375,-20.1775
1424,4360151,0.9962521000000001,-0.05368,-0.330864,-11.69,-5.285,-21.8575
1425,4360248,1.024678,-0.052582000000000004,-0.317078,-13.23,-5.25,-22.5575
1426,4360344,1.0206520000000001,-0.04514,-0.301706,-14.42,-6.65,-20.4925
1427,4360441,0.9939341,-0.03294,-0.27816,-16.485,-8.3475,-15.82
1428,4360538,0.951844,-0.032086,-0.285236,-18.095,-9.1525,-10.115
1429,4360635,0.9178061,-0.048922,-0.298046,-18.2,-8.33,-4.41
1430,4360732,0.915732,-0.056729999999999996,-0.282796,-20.3875,-6.405,0.1575
1431,4360828,0.9241501,-0.054046000000000004,-0.255956,-21.665,-4.4275,4.1475
1432,4360925,0.9275661000000001,-0.04404201,-0.234362,-22.4,-3.4825,7.6125
1433,4361022,0.921222,-0.039406000000000004,-0.215574,-22.225,-2.66,9.9925
1434,4361119,0.9087780000000001,-0.044652,-0.20630199999999999,-22.015,-1.9075,11.27
1435,4361215,0.8959681,-0.045262000000000004,-0.20288599999999998,-22.155,-1.3825,11.725
1436,4361312,0.8985301,-0.036844,-0.190198,-23.17,-0.4375,11.13
1437,4361409,0.9142680000000001,-0.023668,-0.17848599999999998,-24.22,1.1375,10.29
1438,4361506,0.9289081,-0.008296000999999999,-0.168604,-25.235,2.065,9.2575
1439,4361603,0.93086,0.00366,-0.16226,-25.8825,2.345,8.295
1440,4361699,0.924516,0.010004,-0.16433399999999998,-26.1975,2.205,7.9275
1441,4361796,0.917684,0.013297999999999999,-0.160186,-27.0725,1.8375,7.875
1442,4361893,0.9140241,0.01586,-0.14993800000000002,-28.0175,1.68,7.84
1443,4361990,0.9114620000000001,0.018544,-0.14566800000000002,-28.2975,1.6275,7.8225
1444,4362086,0.918538,0.020984,-0.139812,-28.56,1.7325,7.595
1445,4362183,0.935984,0.024766,-0.135298,-28.6825,2.1875,7.3675
1446,4362280,0.944524,0.027572000000000003,-0.133224,-28.0875,1.89,6.8775
1447,4362377,0.9484280999999999,0.03172,-0.135908,-27.475,0.8575,6.23
1448,4362474,0.9528200000000001,0.035258,-0.136762,-26.6875,-0.245,5.5475
1449,4362570,0.957334,0.037942000000000004,-0.138836,-25.9525,-0.91,4.9
1450,4362667,0.9641661,0.04331,-0.139202,-24.92,-1.47,4.2525
1451,4362764,0.968924,0.048312,-0.138104,-23.6775,-2.2575,3.815
1452,4362861,0.9703879999999999,0.056974000000000004,-0.13383399999999998,-22.2075,-2.94,3.5875
1453,4362958,0.9716081,0.06575800000000001,-0.127734,-20.16,-3.3425,3.7625
1454,4363054,0.9741700000000001,0.07173600000000001,-0.119682,-18.0425,-3.605,4.06
1455,4363151,0.9713639999999999,0.071004,-0.10919000000000001,-15.645,-4.06,4.3925
1456,4363248,0.9700219999999999,0.061366,-0.102114,-13.2125,-4.34,4.6375
1457,4363345,0.9619700000000001,0.049044,-0.101626,-10.6575,-4.515,4.5325
1458,4363442,0.957822,0.035746,-0.10187,-8.4175,-4.2525,3.885
1459,4363538,0.9500139999999999,0.021472,-0.09930800000000001,-6.8075,-3.1675,2.8175
1460,4363635,0.942572,0.007076001,-0.09479401,-5.88,-1.5925,1.75
1461,4363732,0.9324460999999999,-0.006832001,-0.099552,-5.565,0.525,1.015
1462,4363829,0.928542,-0.021716,-0.10187,-5.7225,3.1325,0.7875
1463,4363926,0.933422,-0.032818,-0.11138599999999999,-6.685,5.495,0.665
1464,4364022,0.947818,-0.04575,-0.12041400000000001,-7.595,7.5775,0.455
1465,4364119,0.965752,-0.055388,-0.12712400000000001,-8.715,9.2575,-0.0875
1466,4364216,0.987102,-0.060877999999999995,-0.135664,-9.3625,10.045,-0.945
1467,4364313,1.006622,-0.05770599999999999,-0.131394,-10.745,9.765,-2.1525
1468,4364410,1.021384,-0.050752,-0.10943399999999999,-13.0725,9.1,-3.4475
1469,4364506,1.030168,-0.036112,-0.080886,-15.7675,8.82,-4.41
1470,4364603,1.042612,-0.023180000000000003,-0.05209400000000001,-19.2675,8.7325,-4.865
1471,4364700,1.0528600000000001,-0.018788,-0.018544,-22.645,9.065,-4.7775
1472,4364797,1.058106,-0.017446,0.009882,-26.18,9.2575,-4.4975
1473,4364893,1.062498,-0.016104,0.034892,-29.47,8.995,-4.27
1474,4364990,1.069818,-0.0122,0.037332,-32.27,8.295,-4.2875
1475,4365087,1.080188,-0.019032,0.006344,-33.1625,7.875,-4.0775
1476,4365184,1.109102,-0.034648000000000005,-0.10675,-31.08,7.6825,-3.2025
1477,4365281,1.146922,-0.021228,-0.13859200000000002,-28.77,6.79,-1.3825
1478,4365377,1.18401,0.074054,-0.050996,-32.55,4.5675,0.9275
1479,4365474,1.194014,0.221308,-0.008784,-29.435,4.515,5.1275
1480,4365571,1.140822,0.257054,-0.08417999999999999,-16.415,6.685,9.975
1481,4365668,1.0559100000000001,0.177754,-0.1281,-5.1975,8.225,11.515
1482,4365765,0.9933241,0.103822,-0.101504,-3.465,8.785,10.29
1483,4365861,0.9591639999999999,-0.039162,-0.120902,3.99,11.0075,9.345
1484,4365958,0.9729501,-0.069662,-0.168238,7.4025,11.3925,9.4675
1485,4366055,1.022848,0.0035380000000000003,-0.159576,-0.4375,7.07,9.5375
1486,4366152,1.077504,0.035746,-0.23582600000000004,1.925,1.4175,10.535
1487,4366249,1.155462,0.04867801,-0.24107199999999998,6.1775,2.485,12.985
1488,4366345,1.223294,0.14493599999999998,-0.208986,2.695,1.8725,16.38
1489,4366442,1.215242,0.20984,-0.16433399999999998,8.0325,-0.8575,20.7375
1490,4366539,1.113738,0.170434,-0.17385,15.2775,-1.0325,22.33
1491,4366636,1.009428,0.079422,-0.208132,18.6725,-0.175,20.1775
1492,4366733,0.957822,0.013175999999999998,-0.22252800000000003,17.7625,-1.33,16.275
1493,4366829,0.94306,-0.013054,-0.223748,15.96,-5.4775,12.5825
1494,4366926,0.951844,-0.022692,-0.230702,16.205,-9.5375,10.57
1495,4367023,0.972706,-0.021472,-0.251686,16.065,-12.0925,10.465
1496,4367120,0.9884440000000001,-0.022692,-0.259128,16.065,-14.735,12.11
1497,4367217,0.9892981,-0.020496,-0.270474,15.5225,-17.9025,14.7175
1498,4367313,0.975878,-0.028304000000000003,-0.272548,14.875,-21.0875,16.905
1499,4367410,0.957944,-0.036722000000000005,-0.2684,13.755,-23.8175,17.4475
1500,4367507,0.95099,-0.040382,-0.251686,13.1075,-24.9025,16.1
1501,4367604,0.950868,-0.02745,-0.252784,12.7225,-24.3075,13.4225
1502,4367701,0.9629459999999999,-0.009272001,-0.250344,12.775,-22.68,9.3975
1503,4367797,0.9784401,0.009394,-0.228384,11.515,-22.015,3.7275
1504,4367894,0.9886881,0.019154,-0.193736,12.04,-22.8725,-2.835
1505,4367991,0.981124,0.029646,-0.174826,14.14,-22.5225,-9.135
1506,4368088,0.9450120000000001,0.047458,-0.169824,15.715,-21.56,-13.65
1507,4368185,0.9084121,0.058316,-0.158722,16.9225,-21.5075,-15.6625
1508,4368281,0.8866961,0.056729999999999996,-0.14396,17.78,-20.9825,-16.45
1509,4368378,0.879376,0.041968,-0.131272,18.48,-20.37,-16.065
1510,4368475,0.8908440999999999,0.028669999999999998,-0.116754,18.5675,-20.1425,-15.47
1511,4368572,0.9067040000000001,0.01342,-0.11138599999999999,18.3575,-19.5125,-15.1025
1512,4368669,0.9140241,0.001952,-0.10931199999999999,18.27,-19.005,-14.3325
1513,4368765,0.9110959999999999,-0.004636001,-0.108214,17.5875,-18.3925,-13.5625
1514,4368862,0.9063379999999999,-0.013663999999999999,-0.11407,16.9925,-17.4475,-13.3
1515,4368959,0.906948,-0.014152000000000001,-0.124196,16.0825,-16.17,-13.23
1516,4369056,0.9103641,-0.009516001,-0.135786,15.295,-15.3475,-12.8975
1517,4369153,0.9181720999999999,0.000122,-0.14005599999999999,14.9625,-14.8575,-12.005
1518,4369249,0.927322,0.013175999999999998,-0.14798599999999998,14.8225,-14.7175,-10.99
1519,4369346,0.939766,0.02257,-0.149816,15.47,-14.91,-9.975
1520,4369443,0.9526979999999999,0.03172,-0.149816,16.5025,-15.0325,-9.135
1521,4369540,0.9622141,0.035746,-0.148474,18.27,-15.3125,-8.5225
1522,4369637,0.971974,0.036478,-0.14188599999999998,20.265,-15.8025,-8.2425
1523,4369734,0.9761219999999999,0.035013999999999997,-0.13944600000000001,22.365,-16.205,-8.505
1524,4369830,0.9806360000000001,0.03416,-0.136762,24.2025,-16.625,-8.8025
1525,4369927,0.9863700000000001,0.029524,-0.134932,25.8475,-16.9575,-8.9425
1526,4370024,0.9914940999999999,0.025863999999999998,-0.13237000000000002,27.1775,-16.765,-8.9075
1527,4370121,0.9929581000000001,0.019398,-0.12566,27.8075,-15.82,-8.785
1528,4370218,0.9894200000000001,0.011346,-0.111996,28.77,-14.315,-8.82
1529,4370314,0.9790501,0.00976,-0.106018,29.225,-12.285,-8.7325
1530,4370411,0.9677040000000001,0.0122,-0.10833599999999999,29.435,-10.0975,-8.4875
1531,4370508,0.961726,0.013054,-0.10858,29.26,-8.015,-7.9275
1532,4370605,0.9623360999999999,0.021106,-0.11541199999999999,29.2075,-6.3175,-7.2975
1533,4370702,0.9802700000000001,0.028182,-0.12383,28.805,-5.1625,-6.7375
1534,4370798,1.005158,0.035136,-0.13639600000000002,28.98,-4.4625,-6.3875
1535,4370895,1.040294,0.054778,-0.140178,29.155,-4.2,-6.58
1536,4370992,1.069696,0.08674201,-0.132736,28.385,-4.4275,-6.72
1537,4371089,1.071892,0.086132,-0.13151600000000002,30.7825,-4.7075,-6.86
1538,4371186,1.0551780000000002,0.08576601,-0.136884,33.4775,-4.6025,-7.175
1539,4371282,1.032852,0.06819800000000001,-0.123708,35.2625,-4.8825,-7.84
1540,4371379,1.01321,0.051362,-0.12139000000000001,38.045,-5.53,-8.6625
1541,4371476,1.00284,0.045262000000000004,-0.130296,39.06,-5.74,-9.6075
1542,4371573,1.006256,0.036233999999999995,-0.13664,38.3425,-6.475,-10.745
1543,4371670,1.0262639999999998,0.026474,-0.167628,37.1,-7.7,-12.2675
1544,4371766,1.067988,0.016592,-0.24583000000000002,33.5475,-7.91,-15.1725
1545,4371863,1.133746,-0.034526,-0.23387399999999997,25.585,-10.2725,-20.0375
1546,4371960,1.193282,-0.15006,-0.183,20.16,-14.4725,-26.25
1547,4372057,1.1411879999999999,-0.16811600000000002,-0.128344,20.37,-14.805,-31.955
1548,4372154,1.057496,-0.06124401,-0.198738,8.925,-9.625,-35.035
1549,4372251,0.9978379999999999,-0.038308,-0.207644,5.6175,-6.86,-34.5275
1550,4372347,0.965996,-0.011834,-0.20630199999999999,-0.42,-8.5925,-32.9175
1551,4372444,0.9609940999999999,-0.002196,-0.19556600000000002,-3.0975,-7.77,-32.48
1552,4372541,0.9372040999999999,-0.012444,-0.2013,-3.29,-6.23,-33.04
1553,4372638,0.8908440999999999,-0.007442,-0.24424400000000002,-2.87,-4.935,-32.83
1554,4372735,0.8563181000000001,0.005246,-0.283528,-5.2325,-3.22,-31.8325
1555,4372831,0.8431420000000001,-0.01525,-0.288408,-7.2975,-2.8175,-30.2575
1556,4372928,0.8574161,-0.047092,-0.29646,-8.26,-2.9925,-28.8575
1557,4373025,0.901214,-0.077592,-0.308294,-10.5525,-2.485,-28.105
1558,4373122,0.956968,-0.106994,-0.31317399999999995,-12.8975,-2.17,-27.825
1559,4373219,1.005768,-0.131394,-0.311832,-15.2425,-2.3975,-27.72
1560,4373315,1.036878,-0.138714,-0.297558,-18.0775,-2.6425,-27.1425
1561,4373412,1.048834,-0.126026,-0.28548,-21.035,-2.8525,-25.4625
1562,4373509,1.03639,-0.09942999999999999,-0.271328,-23.3275,-3.1325,-22.0675
1563,4373606,1.013088,-0.052948,-0.24631799999999998,-26.11,-4.4275,-16.835
1564,4373703,0.9928360999999999,-0.024644,-0.25986,-27.4575,-4.97,-10.5525
1565,4373799,0.9821,-0.026108,-0.27816,-25.9875,-4.025,-4.5325
1566,4373896,0.9823440999999999,-0.013297999999999999,-0.26352,-27.7375,-2.905,-0.2975
1567,4373993,0.9918600000000001,-0.0051240009999999996,-0.24644000000000002,-27.4225,-2.1,2.8175
1568,4374090,0.992226,0.001464,-0.23314200000000002,-25.69,-2.9575,5.355
1569,4374187,0.9903959999999999,0.0061,-0.21032800000000001,-24.64,-4.445,7.4725
1570,4374283,0.9827101,0.003904,-0.198372,-23.7825,-5.0925,9.1525
1571,4374380,0.97173,-0.004392,-0.187148,-23.1175,-4.655,10.29
1572,4374477,0.9591639999999999,-0.009150001,-0.183976,-23.1,-4.305,10.9375
1573,4374574,0.9473301,-0.010248,-0.18043800000000002,-23.275,-4.4975,11.06
1574,4374671,0.9394,-0.002928,-0.17836400000000002,-23.7825,-5.005,10.7975
1575,4374767,0.9328120000000001,0.01098,-0.174582,-24.6575,-5.4775,10.2025
1576,4374864,0.9311040999999999,0.017324000000000003,-0.170068,-25.025,-6.1775,10.045
1577,4374961,0.931958,0.023912,-0.167628,-25.13,-6.93,10.08
1578,4375058,0.9330560999999999,0.02806,-0.166164,-25.025,-7.5775,10.3425
1579,4375155,0.932934,0.030744,-0.158966,-24.815,-8.015,10.3425
1580,4375252,0.934154,0.037332,-0.15201199999999998,-24.395,-8.3125,10.0625
1581,4375348,0.93391,0.047945999999999996,-0.14469200000000002,-24.0275,-8.1025,9.695
1582,4375445,0.9322021,0.058316,-0.137982,-23.4675,-7.5425,9.2225
1583,4375542,0.9274440999999999,0.067588,-0.13761600000000002,-22.785,-6.895,8.925
1584,4375639,0.9235399999999999,0.072956,-0.137128,-22.225,-6.265,8.855
1585,4375736,0.92171,0.07039400000000001,-0.141764,-21.5425,-5.4425,9.03
1586,4375832,0.9198799999999999,0.060877999999999995,-0.148108,-20.755,-4.865,9.03
1587,4375929,0.9224421,0.05160601,-0.148108,-20.02,-4.4625,8.925
1588,4376026,0.9261021,0.050874,-0.142374,-19.565,-3.7275,8.68
1589,4376123,0.927322,0.052582000000000004,-0.131028,-19.075,-2.66,8.12
1590,4376220,0.9269561,0.05185,-0.121878,-17.85,-1.5575,7.63
1591,4376316,0.9236620999999999,0.047580000000000004,-0.12053599999999999,-16.1525,-0.77,7.0525
1592,4376413,0.9200021,0.042822000000000006,-0.115534,-14.8575,0.385,6.2125
1593,4376510,0.9178061,0.035624,-0.111874,-13.8425,2.3625,5.25
1594,4376607,0.916098,0.022692,-0.11041,-13.2125,4.585,4.3225
1595,4376704,0.913536,0.012931999999999999,-0.111874,-13.615,6.37,3.57
1596,4376801,0.9225639999999999,0.004026,-0.108824,-14.455,7.9975,2.8525
1597,4376897,0.935008,-0.005002,-0.10516400000000001,-15.575,9.835,2.24
1598,4376994,0.9487940999999999,-0.016347999999999998,-0.10418800000000002,-16.345,11.1125,1.5925
1599,4377091,0.964044,-0.023912,-0.110654,-16.9925,11.4975,0.8225
1600,4377188,0.978318,-0.030866,-0.116022,-17.395,11.375,0.175
1601,4377285,0.99308,-0.03721,-0.125538,-17.6225,11.06,-0.42
1602,4377381,1.005158,-0.035258,-0.130296,-18.8125,10.22,-1.365
1603,4377478,1.0121120000000001,-0.029889999999999996,-0.12395199999999999,-21.0175,8.75,-2.6425
1604,4377575,1.016626,-0.025131999999999998,-0.104798,-23.52,7.63,-3.815
1605,4377672,1.02541,-0.01586,-0.08649801,-26.285,7.28,-4.5325
1606,4377769,1.0316319999999999,-0.012444,-0.07027201,-28.945,7.5775,-4.69
1607,4377865,1.039562,-0.018422,-0.05209400000000001,-31.4125,7.4025,-5.1975
1608,4377962,1.047858,-0.01586,-0.032574,-33.67,6.195,-6.1775
1609,4378059,1.059814,-0.009394,-0.010614,-35.77,4.76,-7.175
1610,4378156,1.07055,0.006344,-0.0034159999999999998,-37.345,3.71,-7.665
1611,4378253,1.078602,0.010736,-0.014152000000000001,-37.59,2.8875,-7.3325
1612,4378349,1.092144,0.007808001,-0.094306,-36.1025,2.065,-6.055
1613,4378446,1.12545,-0.004636001,-0.144814,-31.955,1.645,-3.7275
1614,4378543,1.178764,0.062341999999999995,-0.09577000000000001,-34.0025,-0.0175,-0.77
1615,4378640,1.206214,0.18251199999999998,-0.017446,-35.2625,-1.75,3.6225
1616,4378737,1.17425,0.21228000000000002,-0.067222,-26.11,-0.7875,9.0125
1617,4378833,1.1064180000000001,0.16043,-0.153232,-16.1,0.77,12.0225
1618,4378930,1.0554219999999999,0.112606,-0.135786,-15.3125,2.0825,12.1625
1619,4379027,1.020286,0.090036,-0.10687200000000001,-12.565,3.115,11.4625
1620,4379124,1.011136,0.01891,-0.12932000000000002,-6.7725,4.2,11.34
1621,4379221,1.024678,-0.054655999999999996,-0.146766,-2.94,4.2525,12.1975
1622,4379318,1.05408,-0.03599,-0.149084,-4.7425,0.385,13.8425
1623,4379414,1.089094,0.013054,-0.178242,-3.395,-2.24,16.0825
1624,4379511,1.1447260000000001,0.09381801,-0.163602,-2.5025,-2.625,17.9375
1625,4379608,1.185108,0.15982000000000002,-0.129686,-0.9275,-3.71,19.74
1626,4379705,1.16693,0.194468,-0.11358199999999999,7.42,-3.185,21.4725
1627,4379802,1.09922,0.193004,-0.116754,12.74,-2.3275,20.755
1628,4379898,1.0115020000000001,0.154086,-0.13969,18.1475,-1.995,17.5
1629,4379995,0.945744,0.10418800000000002,-0.18043800000000002,21.8225,-2.7475,12.705
1630,4380092,0.9091440000000001,0.062341999999999995,-0.205448,23.3625,-4.5675,7.9275
1631,4380189,0.9006040999999999,0.035624,-0.225456,24.3075,-6.72,4.7775
1632,4380286,0.9126820999999999,0.019154,-0.24278000000000002,24.4475,-8.4175,3.7275
1633,4380382,0.9394,-0.00061,-0.251686,24.0275,-9.94,4.585
1634,4380479,0.963922,-0.026595999999999998,-0.265594,23.17,-11.8475,6.8425
1635,4380576,0.9675819999999999,-0.060267999999999995,-0.27389,20.9475,-13.9825,9.7475
1636,4380673,0.9548940999999999,-0.09345201,-0.27145,17.885,-16.17,12.6
1637,4380770,0.936594,-0.11211800000000001,-0.27389,14.14,-17.6225,14.56
1638,4380867,0.918416,-0.11467999999999999,-0.269498,9.905,-17.9375,15.4
1639,4380963,0.904508,-0.106628,-0.263276,5.46,-18.165,15.26
1640,4381060,0.8967,-0.091134,-0.255712,2.31,-18.13,14.1575
1641,4381157,0.8995059999999999,-0.05795,-0.254736,-0.315,-17.465,12.215
1642,4381254,0.915732,-0.02257,-0.259128,-2.03,-16.5025,9.8875
1643,4381351,0.9464761,0.015128,-0.249246,-3.36,-16.0125,6.86
1644,4381447,0.978318,0.043554,-0.228506,-3.7625,-16.625,3.08
1645,4381544,1.00223,0.061610000000000005,-0.20861999999999997,-2.2575,-17.0275,-1.0675
1646,4381641,0.995398,0.075762,-0.2013,-0.035,-16.625,-4.7775
1647,4381738,0.965752,0.08625401,-0.19337000000000001,2.4675,-16.8525,-7.6125
1648,4381835,0.9459880999999999,0.08442401,-0.185318,4.795,-17.255,-9.6775
1649,4381931,0.9375700000000001,0.074298,-0.17446,6.5975,-16.87,-11.025
1650,4382028,0.9437921,0.06344,-0.163724,7.805,-16.5725,-11.725
1651,4382125,0.9581881,0.05368,-0.148108,9.065,-16.0825,-12.04
1652,4382222,0.9709979999999999,0.04453,-0.136884,10.0975,-15.8375,-11.935
1653,4382319,0.986858,0.040138,-0.12871,11.2525,-15.645,-11.2525
1654,4382416,0.990518,0.038064,-0.124806,12.5125,-14.9975,-10.9025
1655,4382512,0.9900300999999999,0.034282,-0.12358599999999999,13.8075,-15.0675,-10.745
1656,4382609,0.9821,0.032574,-0.124196,15.1725,-15.435,-10.745
1657,4382706,0.9688021000000001,0.033306,-0.12529400000000002,16.7825,-15.96,-10.6225
1658,4382803,0.95465,0.034404000000000004,-0.128222,17.9375,-16.24,-10.465
1659,4382900,0.9383020000000001,0.035624,-0.129564,19.355,-16.59,-10.08
1660,4382996,0.9286639999999999,0.033184,-0.13078399999999998,20.9475,-17.08,-9.835
1661,4383093,0.9297620999999999,0.026474,-0.12712400000000001,22.365,-17.36,-9.8175
1662,4383190,0.9331780000000001,0.02196,-0.12651400000000002,23.695,-17.5875,-10.01
1663,4383287,0.933422,0.01647,-0.120048,24.675,-17.4125,-9.94
1664,4383384,0.930982,0.01098,-0.12139000000000001,25.48,-17.185,-9.7825
1665,4383480,0.9270780999999999,0.001098,-0.128222,25.7075,-16.835,-9.205
1666,4383577,0.9262239999999999,-0.0051240009999999996,-0.130418,25.13,-16.485,-8.225
1667,4383674,0.9311040999999999,-0.01281,-0.13456600000000002,24.2025,-16.0125,-6.9825
1668,4383771,0.9413520000000001,-0.012931999999999999,-0.139934,22.8725,-15.1025,-5.46
1669,4383868,0.9567241,-0.009637999999999999,-0.141032,21.4375,-13.965,-3.9375
1670,4383965,0.966484,-0.0017079999999999999,-0.141032,20.2125,-12.705,-2.4675
1671,4384061,0.9707541,0.007686,-0.137982,19.2675,-11.5675,-1.225
1672,4384158,0.9784401,0.017202000000000002,-0.139934,18.585,-10.15,-0.245
1673,4384255,0.9822219999999999,0.030866,-0.135298,18.41,-8.435,0.1925
1674,4384352,0.9903959999999999,0.048434,-0.135908,18.97,-6.1075,-0.105
1675,4384449,0.998692,0.071614,-0.13664,19.8975,-3.6925,-1.295
1676,4384545,1.000644,0.09711201,-0.13176,20.5625,-1.995,-2.9225
1677,4384642,0.999302,0.10638399999999999,-0.13237000000000002,22.785,-0.315,-4.83
1678,4384739,1.007232,0.10418800000000002,-0.151402,25.8825,1.47,-6.825
1679,4384836,1.030656,0.10052799999999999,-0.153598,28.1925,2.135,-8.12
1680,4384933,1.050054,0.105652,-0.151036,30.4325,0.77,-8.645
1681,4385029,1.061888,0.099186,-0.1586,33.6875,-0.9275,-8.89
1682,4385126,1.06628,0.09259801,-0.153842,35.7,-2.38,-9.3625
1683,4385223,1.056032,0.08662001,-0.141032,37.415,-4.34,-9.87
1684,4385320,1.041026,0.063196,-0.138714,39.6725,-6.5975,-10.5525
1685,4385417,1.03273,0.023912,-0.149206,41.86,-7.63,-11.445
1686,4385514,1.023458,0.035868000000000004,-0.205448,40.7225,-7.3675,-12.4425
