,T,ax,ay,az,gx,gy,gz
0,193418,0.6317159999999999,-0.01586,-0.590724,16.555,-16.5375,-18.2175
1,193572,0.659288,-0.007564001,-0.670024,-25.48,-77.91,-142.45
2,193668,0.693692,-0.024888,-0.711504,39.27,-166.9325,-173.915
3,193764,0.693692,-0.024644,-0.7134560999999999,45.0975,-129.43,-58.2575
4,193860,0.6946681,-0.02562,-0.713212,2.8,-7.7525,-5.5825
5,193957,0.694912,-0.024156,-0.7134560999999999,1.4175,-3.605,-3.85
6,194053,0.6939361,-0.023912,-0.714676,1.4525,-3.57,-3.85
7,194149,0.694912,-0.023424,-0.7129681,1.4525,-3.6225,-3.7975
8,194245,0.6954,-0.023424,-0.7156520000000001,1.4175,-3.675,-3.7275
9,194342,0.696132,-0.023668,-0.7166279999999999,1.365,-3.64,-3.7275
10,194438,0.6956439999999999,-0.023180000000000003,-0.715896,1.365,-3.7275,-3.7625
11,194534,0.695156,-0.022936,-0.7166279999999999,1.365,-3.745,-3.7625
12,194630,0.693204,-0.026108,-0.7166279999999999,1.4175,-3.815,-3.71
13,194726,0.6958880000000001,-0.023668,-0.7171161,1.435,-3.815,-3.7975
14,194823,0.693692,-0.025131999999999998,-0.7166279999999999,1.435,-3.815,-3.815
15,194919,0.6958880000000001,-0.025863999999999998,-0.7183361,1.3825,-3.8325,-3.675
16,195015,0.6958880000000001,-0.024156,-0.71614,1.4175,-3.8325,-3.6925
17,195111,0.69418,-0.023424,-0.7171161,1.435,-3.8325,-3.675
18,195208,0.6954,-0.023912,-0.7156520000000001,1.4525,-3.78,-3.7275
19,195304,0.6958880000000001,-0.023912,-0.7183361,1.4525,-3.7625,-3.745
20,195400,0.692472,-0.024888,-0.7166279999999999,1.435,-3.7975,-3.815
21,195496,0.693448,-0.026108,-0.7168720000000001,1.4175,-3.815,-3.815
22,195593,0.695156,-0.023668,-0.7168720000000001,1.4,-3.78,-3.7975
23,195689,0.6954,-0.023668,-0.7178479999999999,1.4,-3.7275,-3.7975
24,195785,0.6939361,-0.0244,-0.7168720000000001,1.3125,-3.7625,-3.78
25,195881,0.6956439999999999,-0.023424,-0.7168720000000001,1.3125,-3.7275,-3.78
26,195978,0.696376,-0.02562,-0.7139439999999999,1.295,-3.815,-3.7625
27,196074,0.695156,-0.022936,-0.715896,1.3475,-3.885,-3.85
28,196170,0.696132,-0.023180000000000003,-0.7171161,1.3825,-3.85,-3.7625
29,196266,0.6958880000000001,-0.02196,-0.715896,1.3475,-3.85,-3.745
30,196363,0.695156,-0.020496,-0.715408,1.3125,-3.955,-3.7625
31,196459,0.694912,-0.022448,-0.71614,1.2775,-4.0075,-3.6925
32,196555,0.6958880000000001,-0.021472,-0.7156520000000001,1.295,-3.955,-3.7275
33,196651,0.6956439999999999,-0.023424,-0.715408,1.2775,-4.0075,-3.78
34,196748,0.695156,-0.021228,-0.71614,1.33,-4.0775,-3.745
35,196844,0.696132,-0.022692,-0.715896,1.2775,-3.955,-3.815
36,196940,0.696132,-0.022936,-0.7166279999999999,1.2775,-3.885,-3.675
37,197036,0.6954,-0.021716,-0.71614,1.295,-3.99,-3.6225
38,197132,0.6954,-0.022203999999999998,-0.71614,1.365,-4.1475,-3.7975
39,197229,0.69418,-0.022203999999999998,-0.7171161,1.4175,-4.025,-3.64
40,197325,0.6944241,-0.022692,-0.71614,1.4175,-3.99,-3.6575
41,197421,0.693692,-0.023912,-0.715896,1.435,-4.0775,-3.605
42,197517,0.69296,-0.023668,-0.71614,1.4,-3.99,-3.6225
43,197614,0.694912,-0.0244,-0.7168720000000001,1.47,-3.92,-3.5525
44,197710,0.6954,-0.022692,-0.715896,1.505,-3.9375,-3.57
45,197806,0.695156,-0.023912,-0.7176041,1.54,-3.92,-3.57
46,197902,0.693692,-0.021716,-0.716384,1.5225,-3.9375,-3.5525
47,197999,0.69418,-0.022448,-0.71614,1.4875,-3.92,-3.605
48,198095,0.696132,-0.025131999999999998,-0.7134560999999999,1.54,-3.9025,-3.605
49,198191,0.694912,-0.02196,-0.715408,1.54,-3.9375,-3.5175
50,198287,0.6946681,-0.022448,-0.715896,1.505,-3.9025,-3.535
51,198384,0.6939361,-0.02196,-0.71492,1.61,-4.025,-3.64
52,198480,0.6954,-0.02074,-0.71614,1.54,-3.92,-3.5175
53,198576,0.693692,-0.023668,-0.7156520000000001,1.5575,-4.0075,-3.5175
54,198672,0.693692,-0.020984,-0.714676,1.575,-3.99,-3.5525
55,198769,0.69296,-0.021716,-0.718092,1.5925,-3.92,-3.5
56,198865,0.6919841,-0.022448,-0.7176041,1.6275,-3.8675,-3.4825
57,198961,0.69296,-0.022203999999999998,-0.7183361,1.61,-3.7625,-3.5525
58,199057,0.692228,-0.020984,-0.718824,1.645,-3.745,-3.535
59,199154,0.6939361,-0.021716,-0.7178479999999999,1.715,-3.6575,-3.43
60,199250,0.693692,-0.020252000000000003,-0.715408,1.7325,-3.71,-3.395
61,199346,0.693448,-0.02196,-0.7178479999999999,1.785,-3.5175,-3.3775
62,199442,0.6944241,-0.022203999999999998,-0.715164,1.7675,-3.4825,-3.4475
63,199539,0.693204,-0.023180000000000003,-0.7141881,1.75,-3.605,-3.4125
64,199635,0.693448,-0.022936,-0.71492,1.715,-3.6925,-3.43
65,199731,0.693448,-0.022203999999999998,-0.7156520000000001,1.68,-3.71,-3.5
66,199827,0.69418,-0.022692,-0.715164,1.6625,-3.745,-3.5
67,199924,0.6956439999999999,-0.022936,-0.716384,1.7325,-3.7625,-3.5175
68,200020,0.693448,-0.021228,-0.7156520000000001,1.6625,-3.7975,-3.5525
69,200116,0.6958880000000001,-0.02196,-0.715164,1.6625,-3.85,-3.5525
70,200212,0.69418,-0.021716,-0.71492,1.7325,-3.7275,-3.5525
71,200309,0.6956439999999999,-0.020984,-0.71736,1.6625,-3.6225,-3.4825
72,200405,0.692716,-0.021716,-0.718824,1.6625,-3.605,-3.5525
73,200501,0.6944241,-0.019764,-0.716384,1.68,-3.5175,-3.465
74,200597,0.6939361,-0.020984,-0.7168720000000001,1.68,-3.6225,-3.4475
75,200694,0.693692,-0.022448,-0.715408,1.61,-3.64,-3.43
76,200790,0.69418,-0.02196,-0.712724,1.645,-3.6225,-3.3775
77,200886,0.692472,-0.021716,-0.713212,1.5575,-3.745,-3.4475
78,200982,0.6939361,-0.020984,-0.7137001000000001,1.5575,-3.8325,-3.395
79,201079,0.692716,-0.021716,-0.716384,1.505,-3.9375,-3.4475
80,201175,0.692716,-0.023180000000000003,-0.715896,1.5225,-3.885,-3.395
81,201271,0.69296,-0.02196,-0.7141881,1.575,-3.9375,-3.43
82,201367,0.69296,-0.023180000000000003,-0.714432,1.5925,-3.85,-3.43
83,201464,0.693692,-0.024156,-0.716384,1.6625,-3.92,-3.465
84,201560,0.69052,-0.025131999999999998,-0.714432,1.645,-3.745,-3.43
85,201656,0.6917399999999999,-0.024644,-0.715164,1.645,-3.6225,-3.57
86,201752,0.692716,-0.022692,-0.7156520000000001,1.6975,-3.535,-3.5175
87,201849,0.6919841,-0.023424,-0.7166279999999999,1.715,-3.605,-3.5175
88,201945,0.6944241,-0.02074,-0.7156520000000001,1.7325,-3.5,-3.4825
89,202041,0.6939361,-0.019032,-0.715408,1.75,-3.5525,-3.5175
90,202137,0.692472,-0.021716,-0.71736,1.8375,-3.465,-3.4475
91,202234,0.692228,-0.020008,-0.714676,1.925,-3.4475,-3.3775
92,202330,0.69296,-0.02196,-0.7137001000000001,1.8725,-3.395,-3.29
93,202426,0.692716,-0.019764,-0.714676,1.9425,-3.43,-3.3775
94,202523,0.6939361,-0.022936,-0.7141881,1.995,-3.43,-3.395
95,202619,0.6939361,-0.021228,-0.7139439999999999,1.9075,-3.43,-3.43
96,202715,0.693204,-0.021472,-0.715408,1.855,-3.4125,-3.43
97,202811,0.693448,-0.021472,-0.713212,1.89,-3.395,-3.465
98,202907,0.6917399999999999,-0.024888,-0.715164,1.8725,-3.4475,-3.43
99,203004,0.6954,-0.022936,-0.715164,1.8375,-3.4825,-3.3775
100,203100,0.692716,-0.022936,-0.7134560999999999,1.8025,-3.64,-3.5175
101,203196,0.6954,-0.024156,-0.7139439999999999,1.8375,-3.6575,-3.57
102,203292,0.69296,-0.02196,-0.7141881,1.8025,-3.6575,-3.57
103,203389,0.694912,-0.023912,-0.7141881,1.82,-3.64,-3.535
104,203485,0.692472,-0.023180000000000003,-0.71492,1.8025,-3.6225,-3.5175
105,203581,0.693692,-0.022203999999999998,-0.71492,1.82,-3.675,-3.675
106,203678,0.6958880000000001,-0.022203999999999998,-0.715408,1.7325,-3.6225,-3.6575
107,203774,0.6958880000000001,-0.024644,-0.715408,1.75,-3.675,-3.675
108,203870,0.696132,-0.024644,-0.7129681,1.715,-3.6225,-3.64
109,203966,0.692716,-0.023912,-0.711504,1.715,-3.57,-3.64
110,204063,0.692716,-0.025131999999999998,-0.7129681,1.6975,-3.4825,-3.6575
111,204159,0.692716,-0.022448,-0.7141881,1.7325,-3.5,-3.7625
112,204255,0.6946681,-0.023668,-0.7134560999999999,1.715,-3.5175,-3.6575
113,204351,0.694912,-0.023180000000000003,-0.713212,1.75,-3.5,-3.64
114,204448,0.6954,-0.025131999999999998,-0.715408,1.6625,-3.4825,-3.71
115,204544,0.69418,-0.022203999999999998,-0.7166279999999999,1.645,-3.535,-3.6925
116,204640,0.69296,-0.021228,-0.7139439999999999,1.6625,-3.5525,-3.64
117,204736,0.693692,-0.021228,-0.714676,1.715,-3.5,-3.7275
118,204833,0.6944241,-0.020008,-0.716384,1.645,-3.4825,-3.7975
119,204929,0.6944241,-0.020008,-0.71492,1.68,-3.465,-3.7275
120,205025,0.6954,-0.023668,-0.714432,1.6625,-3.5,-3.7275
121,205121,0.693692,-0.023912,-0.713212,1.61,-3.5,-3.71
122,205218,0.693448,-0.023668,-0.71248,1.5575,-3.5175,-3.745
123,205314,0.6958880000000001,-0.025376,-0.71248,1.505,-3.5,-3.71
124,205410,0.69418,-0.022448,-0.714432,1.4525,-3.64,-3.7625
125,205506,0.6939361,-0.021716,-0.713212,1.3825,-3.6575,-3.8675
126,205603,0.6956439999999999,-0.022448,-0.714676,1.4175,-3.6925,-3.85
127,205699,0.697596,-0.01952,-0.7183361,1.4875,-3.5525,-3.78
128,205795,0.699548,-0.021472,-0.7166279999999999,1.5575,-3.3425,-3.675
129,205891,0.6973520000000001,-0.022692,-0.7166279999999999,1.715,-3.4825,-3.71
130,205988,0.698816,-0.02074,-0.714676,1.96,-3.6575,-3.6225
131,206084,0.696376,-0.0244,-0.714676,2.0825,-3.955,-3.675
132,206180,0.693448,-0.021716,-0.7137001000000001,2.03,-4.1125,-3.9025
133,206277,0.692716,-0.023180000000000003,-0.711016,1.925,-3.955,-3.9025
134,206373,0.693692,-0.01952,-0.7137001000000001,1.82,-3.99,-3.9025
135,206469,0.693204,-0.021472,-0.7134560999999999,1.7675,-3.885,-3.7975
136,206565,0.6939361,-0.020252000000000003,-0.715164,1.785,-3.9025,-3.7975
137,206662,0.692716,-0.022936,-0.711016,1.6625,-4.025,-3.9025
138,206758,0.6944241,-0.022448,-0.71004,1.54,-4.235,-3.9375
139,206854,0.692716,-0.02196,-0.7137001000000001,1.3125,-4.34,-3.9375
140,206950,0.6944241,-0.021472,-0.712236,1.2075,-4.6025,-4.06
141,207047,0.69296,-0.023668,-0.711016,1.085,-4.725,-4.095
142,207143,0.69296,-0.02074,-0.713212,0.8925,-4.83,-4.13
143,207239,0.69052,-0.021472,-0.714676,0.77,-4.9875,-4.1825
144,207335,0.692716,-0.019764,-0.7156520000000001,0.595,-5.0225,-4.34
145,207432,0.6939361,-0.018544,-0.7166279999999999,0.595,-5.04,-4.305
146,207528,0.6954,-0.021472,-0.714432,0.7525,-5.0575,-4.235
147,207624,0.694912,-0.01708,-0.7156520000000001,0.8925,-5.005,-4.165
148,207720,0.693692,-0.01708,-0.7156520000000001,0.9275,-4.9875,-3.955
149,207817,0.69662,-0.017568,-0.7137001000000001,1.0675,-4.9875,-3.815
150,207913,0.6939361,-0.016836,-0.715408,1.1375,-5.075,-3.71
151,208009,0.6946681,-0.019032,-0.716384,1.19,-5.215,-3.605
152,208106,0.692472,-0.021228,-0.7171161,1.1375,-5.39,-3.5175
153,208202,0.692472,-0.019764,-0.714676,1.1725,-5.46,-3.535
154,208298,0.693692,-0.021472,-0.7156520000000001,1.1725,-5.6,-3.5
155,208394,0.692716,-0.023424,-0.71492,1.12,-5.6525,-3.6225
156,208491,0.6919841,-0.020984,-0.7178479999999999,1.0325,-5.6875,-3.78
157,208587,0.690764,-0.024888,-0.71614,1.05,-5.845,-3.885
158,208683,0.6895439999999999,-0.020008,-0.71736,0.9625,-5.7225,-3.9025
159,208779,0.688812,-0.017324000000000003,-0.71858,1.1375,-5.635,-3.7625
160,208876,0.6893,-0.017812,-0.7168720000000001,1.26,-5.5825,-3.5525
161,208972,0.690032,-0.018544,-0.7200439999999999,1.435,-5.4775,-3.395
162,209068,0.68808,-0.018056,-0.721264,1.6275,-5.46,-3.29
163,209164,0.6893,-0.017568,-0.7195560000000001,1.82,-5.3025,-3.0975
164,209261,0.6883239999999999,-0.019275999999999998,-0.7178479999999999,1.855,-5.1975,-2.975
165,209357,0.690032,-0.020984,-0.7183361,1.82,-5.285,-3.0975
166,209453,0.68686,-0.022936,-0.7198,1.89,-5.355,-3.0275
167,209549,0.695156,-0.027816000000000004,-0.7078439999999999,1.8725,-5.39,-3.0275
168,209646,0.6785640000000001,-0.01342,-0.72956,1.505,-5.32,-3.08
169,209742,0.688812,-0.02196,-0.7178479999999999,1.715,-5.145,-3.3075
170,209838,0.684664,-0.02196,-0.7176041,1.365,-5.285,-3.535
171,209934,0.6851520999999999,-0.022692,-0.721996,0.77,-5.32,-3.8325
172,210031,0.6851520999999999,-0.017568,-0.720532,0.5425,-5.2325,-4.165
173,210127,0.686128,-0.020496,-0.721996,0.49,-5.1275,-4.235
174,210223,0.686616,-0.018544,-0.721264,0.5075,-5.11,-4.1475
175,210319,0.687104,-0.016592,-0.7217521,0.4375,-5.075,-4.13
176,210416,0.68686,-0.015128,-0.7224841,0.2975,-5.075,-4.235
177,210512,0.6856399999999999,-0.012931999999999999,-0.7217521,0.2975,-4.97,-4.165
178,210608,0.686616,-0.013908000000000002,-0.7224841,0.2975,-4.9,-4.27
179,210704,0.685396,-0.017568,-0.721996,-0.0875,-4.865,-4.445
180,210801,0.68808,-0.01586,-0.7217521,-0.2625,-4.7075,-4.5325
181,210897,0.686616,-0.01464,-0.7239479999999999,-0.315,-4.655,-4.7075
182,210993,0.686128,-0.013663999999999999,-0.7224841,-0.1575,-4.655,-4.6725
183,211089,0.6851520999999999,-0.010248,-0.7227279999999999,0.0175,-4.4625,-4.6025
184,211186,0.683932,-0.013908000000000002,-0.721996,0.1225,-4.48,-4.3575
185,211282,0.6844201,-0.020252000000000003,-0.7239479999999999,-0.105,-4.41,-4.55
186,211378,0.686128,-0.01342,-0.72224,-0.525,-4.4625,-5.005
187,211474,0.68686,-0.017568,-0.7200439999999999,-0.7,-4.48,-5.145
188,211571,0.685884,-0.012931999999999999,-0.720776,-0.7525,-4.725,-5.32
189,211667,0.6851520999999999,-0.013175999999999998,-0.7239479999999999,-0.875,-4.725,-5.4075
190,211763,0.684908,-0.014396,-0.7232161,-0.98,-4.83,-5.67
191,211859,0.684664,-0.011712,-0.7237041,-1.155,-4.9,-5.88
192,211956,0.6836880999999999,-0.011224,-0.726144,-1.365,-4.9175,-6.125
193,212052,0.6844201,-0.01464,-0.7239479999999999,-1.575,-5.04,-6.37
194,212148,0.686372,-0.010736,-0.727364,-1.89,-5.0925,-6.615
195,212244,0.681492,-0.010736,-0.72224,-1.9075,-5.2325,-6.895
196,212341,0.681248,-0.008540001,-0.7237041,-1.8025,-5.425,-7.07
197,212437,0.6810039999999999,-0.007808001,-0.727608,-1.7325,-5.46,-7.035
198,212533,0.6785640000000001,0.003904,-0.725168,-1.575,-5.3375,-7.1225
199,212629,0.68076,-0.006344,-0.725412,-1.3825,-5.3025,-7.0
200,212726,0.6836880999999999,-0.0051240009999999996,-0.727608,-1.225,-5.005,-6.7025
201,212822,0.685396,-0.006832001,-0.725168,-1.085,-4.97,-6.7725
202,212918,0.6844201,-0.005856,-0.726876,-0.98,-5.0925,-6.5625
203,213014,0.6824680000000001,-0.000488,-0.72712,-0.7875,-5.1275,-6.7725
204,213111,0.6824680000000001,-0.00976,-0.7232161,-0.4725,-5.1975,-7.0875
205,213207,0.6822239999999999,-0.005856,-0.72956,-0.6825,-5.53,-7.105
206,213303,0.6832,0.000732,-0.72956,-0.5775,-5.5825,-7.0175
207,213399,0.6802720999999999,-0.006587999999999999,-0.725168,-0.3325,-5.6,-6.5275
208,213496,0.6771,0.002928,-0.7288279999999999,-0.1925,-5.39,-6.615
209,213592,0.681492,-0.000732,-0.728096,0.1575,-5.285,-6.5625
210,213688,0.680028,0.0017079999999999999,-0.729804,0.2275,-5.11,-6.44
211,213784,0.67588,-0.000732,-0.728096,0.49,-5.0225,-6.3
212,213881,0.6785640000000001,0.005856,-0.7315119999999999,0.525,-4.83,-6.195
213,213977,0.67588,0.001952,-0.7283400999999999,0.7875,-4.8125,-6.1425
214,214073,0.677344,0.0051240009999999996,-0.7283400999999999,0.945,-4.5675,-6.0375
215,214169,0.679784,0.00488,-0.7283400999999999,1.12,-4.5675,-6.125
216,214266,0.6763680000000001,0.0061,-0.7285841,1.19,-4.3225,-5.88
217,214362,0.679296,0.00976,-0.729804,1.5925,-3.8675,-5.5825
218,214458,0.67466,0.016347999999999998,-0.7361481,1.54,-3.325,-5.1275
219,214554,0.679296,0.00488,-0.7285841,1.9775,-3.15,-4.9525
220,214651,0.6802720999999999,0.000244,-0.727364,1.68,-2.7125,-4.6025
221,214747,0.6844201,-0.004148001,-0.72102,1.995,-2.8175,-4.655
222,214843,0.6785640000000001,0.00488,-0.731024,1.995,-2.7125,-4.55
223,214939,0.6795401,-0.002196,-0.7266321,2.065,-2.5375,-4.6025
224,215036,0.673928,0.012444,-0.732244,2.1175,-2.31,-4.4625
225,215132,0.6756361,0.0061,-0.7266321,2.38,-1.9075,-4.3225
226,215228,0.672708,0.006344,-0.732244,2.4675,-1.2425,-4.1825
227,215324,0.677344,0.009272001,-0.724436,2.765,-0.5425,-4.0425
228,215421,0.6822239999999999,0.004392,-0.727608,2.8175,0.0875,-3.815
229,215517,0.678808,0.002928,-0.7285841,2.975,0.5075,-3.745
230,215613,0.682956,0.0017079999999999999,-0.7259001,2.8525,0.8400001,-3.955
231,215710,0.684908,0.000976,-0.725168,2.8175,1.1025,-4.2
232,215806,0.684908,0.00488,-0.7237041,2.5725,1.1025,-4.235
233,215902,0.687104,0.002928,-0.726144,2.5375,1.2075,-4.2175
234,215998,0.68686,-0.000244,-0.7239479999999999,2.52,1.54,-4.235
235,216095,0.6883239999999999,0.00244,-0.7195560000000001,2.275,1.4875,-4.41
236,216191,0.6856399999999999,-0.000244,-0.72102,2.2925,1.715,-4.41
237,216287,0.691496,0.0061,-0.721996,2.2575,2.135,-4.4975
238,216383,0.68808,0.0034159999999999998,-0.718824,2.275,2.765,-4.3575
239,216480,0.68808,0.004148001,-0.720776,2.66,3.6575,-4.2
240,216576,0.6856399999999999,0.01708,-0.7317560000000001,3.0275,4.83,-3.8675
241,216672,0.670512,0.033916,-0.739564,4.0075,6.5625,-2.7475
242,216768,0.6258600000000001,-0.030744,-0.758108,6.895,10.29,-1.19
243,216865,0.643184,-0.021472,-0.742004,5.355,17.535,-1.3475
244,216961,0.65514,-0.00122,-0.7510321,5.9675,26.3725,-2.0475
245,217057,0.652944,0.000488,-0.7622561,6.0725,35.0525,-2.52
246,217153,0.642696,-0.0122,-0.7476161,5.95,45.115,-2.3975
247,217250,0.6409881,0.00366,-0.752984,4.9175,56.42,-2.7825
248,217346,0.647576,-0.006832001,-0.7439560000000001,4.445,67.9,-3.2725
249,217442,0.665632,-0.01098,-0.7376119999999999,1.96,78.0675,-4.2525
250,217538,0.6785640000000001,-0.013663999999999999,-0.733708,-2.45,86.32751,-5.4775
251,217635,0.684908,-0.009272001,-0.7356600000000001,-8.6275,93.17,-8.015
252,217731,0.6980841,-0.034892,-0.729072,-14.49,99.34751,-11.6725
253,217827,0.70394,-0.050752,-0.7232161,-20.3525,106.12,-15.6275
254,217923,0.730292,-0.07515201,-0.7256560000000001,-27.2125,113.3125,-19.7925
255,218020,0.72956,-0.055144000000000006,-0.7017439999999999,-35.735,122.2375,-25.62
256,218116,1.1629040000000002,-0.006832001,-0.6368401,-41.9475,133.6825,-32.4275
257,218212,0.9376921,-0.08466801,-0.734928,-39.3225,158.97,-51.0475
258,218308,0.92232,-0.08637601,-0.721264,-45.99,182.805,-71.2775
259,218405,0.8791321,-0.006832001,-0.749812,-56.315,202.545,-81.6375
260,218501,0.897432,0.038796,-0.73078,-63.0875,217.98,-85.0325
261,218597,0.917684,0.036844,-0.7476161,-65.135,226.8875,-80.185
262,218694,0.978928,0.12468399999999999,-0.655384,-70.35,234.885,-77.1225
263,218790,1.0645719999999999,0.07076001,-0.639524,-72.45,250.3375,-74.2175
264,218886,1.090924,0.052703999999999994,-0.756644,-71.8025,256.8825,-66.675
265,218982,1.114104,-0.019275999999999998,-0.775188,-80.2725,246.2075,-62.755
266,219079,0.9884440000000001,0.09052401,-0.7954399999999999,-91.42,222.4775,-59.1325
267,219175,1.24318,0.121512,-0.8174001000000001,-101.185,194.425,-52.5875
268,219271,1.844884,0.039528,-0.8893800999999999,-92.435,197.365,-34.405
269,219367,1.2195120000000002,-0.060024,-0.9489161,-76.02,202.0375,-39.06
270,219464,0.397476,0.08344800000000001,-1.44448,-80.90250999999999,162.3475,-48.195
271,219560,2.1752599999999997,0.6722199999999999,-2.120116,-65.66,98.0875,-47.5475
272,219656,0.972828,0.09028,-1.71288,15.2075,41.055,-25.1825
273,219752,0.156404,-0.24790399999999999,-1.106784,40.0925,-23.0125,-20.2125
274,219849,0.260592,-0.168848,-0.9955200000000001,31.115,-37.7125,-25.655
275,219945,0.349408,-0.099552,-1.037244,21.42,-45.605,-23.6425
276,220041,0.41675200000000007,-0.0854,-1.10166,25.13,-61.005,-13.3525
277,220137,0.34428400000000003,-0.136884,-1.037,32.06,-82.14499,-1.2775
278,220234,0.294996,-0.134932,-0.973316,31.92,-102.025,6.1075
279,220330,0.306708,-0.08296,-0.9228081,26.2675,-119.07,8.96
280,220426,0.32818,0.017812,-0.9023121,20.475,-135.2925,8.7325
281,220522,0.360632,0.114924,-0.8935280999999999,20.1075,-150.535,7.245
282,220619,0.411628,0.1708,-0.8669319999999999,26.6525,-164.1675,5.81
283,220715,0.46042799999999995,0.18178,-0.830332,36.8375,-176.225,4.69
284,220811,0.527772,0.17934,-0.8025161,46.0425,-186.655,3.7975
285,220907,0.61854,0.21081599999999998,-0.776896,52.71,-196.105,3.3425
286,221004,0.686372,0.23448400000000003,-0.7278521,58.7125,-204.3125,3.36
287,221100,0.7190681,0.188368,-0.670512,64.015,-209.93,2.555
288,221196,0.784704,0.127368,-0.646844,64.19,-211.8025,1.645
289,221292,0.840824,0.11028800000000001,-0.678076,58.0825,-211.6975,3.675
290,221389,0.91012,0.18056,-0.750544,51.52,-211.435,10.4475
291,221485,0.975512,0.264984,-0.797148,49.77,-211.54,20.125
292,221581,1.031144,0.31964000000000004,-0.7983680000000001,51.5025,-211.8025,27.7375
293,221677,1.0704280000000002,0.3843,-0.7854361,51.87,-210.63,30.45
294,221774,1.126792,0.43627200000000005,-0.7829961,52.9025,-206.71,29.6975
295,221870,1.211948,0.45335200000000003,-0.809836,57.6275,-200.62,29.4525
296,221966,1.3144280000000002,0.42944,-0.8518040000000001,65.135,-194.8275,31.1675
297,222062,1.452532,0.400892,-0.908168,71.8025,-191.52,33.1975
298,222159,1.590392,0.396256,-0.9372040999999999,75.565,-192.9725,34.23
299,222255,1.690188,0.394304,-0.8757159999999999,78.7325,-198.625,33.7575
300,222351,1.702632,0.387716,-0.7549359999999999,82.565,-204.0325,31.85
301,222447,1.693116,0.389424,-0.57096,87.7625,-204.4875,30.555
302,222544,1.725568,0.33428,-0.40577199999999997,94.1325,-198.73,30.1175
303,222640,1.778272,0.206668,-0.24936799999999998,97.21251,-188.23,30.0475
304,222736,1.7568,0.070516,-0.11224,91.5075,-179.34,28.3675
305,222832,1.665056,-0.045384,0.112972,77.945,-169.6275,28.6475
306,222929,1.525244,-0.01708,0.252784,59.185,-155.505,31.6925
307,223025,1.504504,0.246196,0.35526399999999997,48.125,-135.275,36.8025
308,223121,1.487424,0.413092,0.46164799999999995,60.585,-110.7575,45.1325
309,223217,1.372012,0.321836,0.678076,85.33,-84.03501,51.73
310,223314,1.2846600000000001,0.202032,0.868152,94.185,-53.9875,47.775
311,223410,1.330288,0.09345201,0.9384239999999999,83.37001,-19.705,35.8925
312,223506,1.428376,0.0034159999999999998,0.887916,58.5025,11.9,22.1375
313,223602,1.438136,0.009516001,0.8105680000000001,27.72,36.05,11.4975
314,223699,0.931348,-0.930616,0.823744,2.6425,58.3975,5.4075
315,223795,0.22326,-0.13664,0.061,-105.91,93.345,-19.145
316,223891,0.519964,-0.143716,-2.284328,-148.4175,116.5675,-25.585
317,223987,-0.03294,0.457012,-1.295396,-114.0125,127.3125,24.29
318,224084,0.735416,0.7978801,-0.537288,-88.53251,152.985,56.875
319,224180,1.499624,1.0979999999999999,-1.009916,-68.5825,162.505,51.52
320,224276,1.111908,1.215852,-1.236592,-42.9625,135.6425,16.3975
321,224372,1.114348,0.50508,-1.048956,-11.34,117.6175,-14.315
322,224469,1.044808,-0.34526,-0.741028,5.9675,103.81,-14.7875
323,224565,0.8945040000000001,-0.35843600000000003,-0.7168720000000001,-2.17,93.0475,3.255
324,224661,0.660996,0.12053599999999999,-0.785192,-16.975,84.6125,8.75
325,224757,0.9084121,0.0976,-1.01748,-15.015,82.1275,3.9025
326,224854,1.818532,-0.536556,-0.701256,-16.485,60.8475,-1.575
327,224950,0.7771399999999999,0.053924,-0.902068,-33.1625,21.63,-14.105
328,225046,0.8020281,0.276696,-0.7954399999999999,-28.525,17.85,-17.745
329,225142,0.818132,-0.066856,-0.744688,-9.5025,15.0325,-14.1575
330,225239,0.7129681,0.090768,-0.791048,-10.3075,10.605,-12.4425
331,225335,0.7183361,0.042456,-0.74664,-8.0675,7.1225,-12.565
332,225431,0.700036,0.054412,-0.758596,-6.8425,4.095,-11.62
333,225527,0.690032,0.022448,-0.7476161,-5.1275,1.9075,-10.64
334,225624,0.685884,0.036112,-0.74542,-3.045,1.3475,-8.82
335,225720,0.6878361,0.0034159999999999998,-0.739564,-0.7525,1.4,-6.58
336,225816,0.6856399999999999,0.000488,-0.732244,0.5425,1.19,-5.7225
337,225912,0.70394,-0.028792,-0.725168,1.085,1.0325,-6.0025
338,226009,0.701256,-0.025863999999999998,-0.7046720999999999,0.8225,0.42,-6.7025
339,226105,0.681248,0.016104,-0.7366361,0.4725,-0.4375,-7.9625
340,226201,0.701012,-0.010248,-0.721508,0.1925,-1.4,-8.715
341,226297,0.7171161,-0.01952,-0.702476,-0.035,-1.9775,-8.855
342,226394,0.68198,0.032208,-0.737124,-0.0875,-2.4325,-8.925
343,226490,0.692716,0.011712,-0.7266321,0.5775,-2.87,-8.785
344,226586,0.684908,0.026108,-0.7283400999999999,0.5075,-2.275,-7.7
345,226682,0.69906,0.015128,-0.7315119999999999,1.715,-2.415,-7.2275
346,226779,0.6944241,0.010736,-0.724436,1.82,-1.8375,-5.635
347,226875,0.6917399999999999,0.018056,-0.7198,2.2575,-1.5925,-5.0925
348,226971,0.687348,0.009028000999999999,-0.726876,2.5025,-1.575,-4.6025
349,227068,0.6958880000000001,0.002196,-0.6824680000000001,3.2375,-1.645,-4.305
350,227164,0.686372,0.0122,-0.7200439999999999,3.7975,-1.225,-3.9725
351,227260,0.6844201,0.006587999999999999,-0.715896,3.3075,-1.2075,-3.64
352,227356,0.680516,0.009516001,-0.7232161,3.64,-1.05,-3.64
353,227453,0.69662,0.00244,-0.72468,4.3925,-0.91,-4.235
354,227549,0.6895439999999999,0.007320001,-0.7176041,3.9725,-0.35,-3.5175
355,227645,0.69906,0.005856,-0.720288,3.92,-0.4725,-4.2175
356,227741,0.69296,0.006587999999999999,-0.706624,3.9025,-0.4025,-4.375
357,227838,0.687592,0.0122,-0.715896,3.6225,-0.56,-4.69
358,227934,0.6883239999999999,0.01708,-0.7217521,3.4825,-0.595,-4.83
359,228030,0.6895439999999999,0.010736,-0.715896,3.255,-0.5775,-4.9
360,228127,0.693204,0.008052001,-0.7129681,3.115,-0.735,-5.0575
361,228223,0.692472,0.009272001,-0.713212,3.115,-0.8225,-5.0575
362,228319,0.6919841,0.0051240009999999996,-0.715896,3.1675,-0.6125,-5.0575
363,228415,0.689056,0.0061,-0.71492,3.0625,-0.245,-5.0225
364,228511,0.6902761,0.007320001,-0.7176041,3.1325,0.385,-5.0225
365,228608,0.6885680999999999,0.004636001,-0.720532,3.08,1.295,-4.9875
366,228704,0.6939361,0.0017079999999999999,-0.718092,2.94,1.9775,-5.18
367,228800,0.69662,0.000244,-0.7171161,2.8,2.73,-5.6525
368,228896,0.7017439999999999,0.012931999999999999,-0.720288,2.625,3.325,-6.125
369,228993,0.692472,0.007320001,-0.720776,2.485,3.92,-6.195
370,229089,0.639524,0.008052001,-0.759084,2.4675,5.74,-6.5625
371,229185,0.6605081,-0.00488,-0.7356600000000001,1.295,11.3575,-6.65
372,229281,0.6646561,0.015372,-0.7451760000000001,2.1875,18.69,-5.6175
373,229378,0.662704,0.024888,-0.745908,3.185,26.425,-4.9525
374,229474,0.654652,0.006344,-0.74054,4.9175,35.91,-3.5
375,229570,0.64294,-0.003904,-0.740296,6.055,46.935,-2.59
376,229666,0.629764,0.007320001,-0.733952,5.95,59.885,-2.2925
377,229763,0.624884,0.000732,-0.721996,6.0025,74.375,-1.61
378,229859,0.632448,0.005856,-0.72468,4.025,89.3025,-1.3475
379,229955,0.671244,0.022936,-0.743468,1.085,102.5325,-1.8025
380,230051,0.678076,0.011956,-0.735904,-3.7275,110.985,-3.3425
381,230148,0.687104,0.008540001,-0.754692,-9.485,118.755,-4.935
382,230244,0.686616,-0.015128,-0.7661600000000001,-13.3525,128.6425,-4.865
383,230340,0.6878361,-0.040504000000000005,-0.764208,-17.4125,141.4175,-3.85
384,230437,1.530856,0.013663999999999999,-0.6688041,-21.805,161.0875,-7.4725
385,230533,1.167296,-0.1708,-0.8596120999999999,-15.75,210.1925,-32.48
386,230629,0.856684,-0.053924,-1.006988,-36.925,260.8025,-58.6425
387,230725,0.7468840999999999,-0.08954801,-0.9174399999999999,-36.995,302.82,-65.22251
388,230822,0.8481440999999998,-0.102724,-0.9540401,-47.1975,338.2225,-69.52750999999999
389,230918,0.9503799999999999,0.018544,-0.983808,-58.4675,357.6825,-74.9875
390,231014,1.098244,0.045627999999999995,-0.831308,-56.56,366.24,-68.635
391,231110,1.398364,0.212524,-1.1289879999999999,-62.1775,378.8925,-68.25
392,231207,1.00894,0.411872,-0.865956,-52.9725,355.145,-48.615
393,231303,0.9496479999999999,-0.021228,-0.91622,-32.5675,318.0975,-16.24
394,231399,0.9403761,-0.06880801,-0.9516,-35.595,284.095,7.525
395,231495,2.67302,-0.126148,-1.1453360000000001,-55.615,273.175,-3.3425
396,231592,1.934188,-0.101504,-1.9661520000000001,-41.895,275.7125,-14.56
397,231688,1.4064159999999999,0.258884,-0.815448,-56.77,164.5875,-61.8975
398,231784,2.471476,0.253272,-3.102216,-28.2275,88.62,-86.5375
399,231880,0.571936,-0.132004,-1.7794919999999999,22.5225,-47.9325,-63.0525
400,231977,-0.203252,-0.423096,-1.2197559999999998,32.3225,-103.2675,-68.2325
401,232073,0.131028,-0.387472,-1.1155680000000001,26.0225,-108.2025,-72.345
402,232169,0.38674000000000003,-0.409432,-1.1211799999999998,14.7,-115.15,-57.8375
403,232265,0.502884,-0.335988,-1.1407,9.975,-138.3025,-31.5175
404,232362,0.42431599999999997,-0.246196,-1.033096,8.785,-169.6975,-6.615
405,232458,0.293288,-0.14152,-0.885964,8.33,-196.5775,9.87
406,232554,0.298412,-0.01708,-0.7673800000000001,7.8225,-213.2725,16.0475
407,232650,0.334524,0.11248399999999999,-0.727608,9.0475,-224.4025,15.9425
408,232747,0.38186,0.217892,-0.69662,14.385,-232.19,11.375
409,232843,0.4404201,0.27816,-0.684908,23.555,-237.7725,4.8125
410,232939,0.5355800999999999,0.321592,-0.6954,33.3725,-241.7275,-2.1525
411,233035,0.673196,0.371856,-0.721996,42.7525,-246.2425,-8.645
412,233132,0.8025161,0.369172,-0.7134560999999999,53.2875,-252.6475,-14.4375
413,233228,0.87718,0.285724,-0.655628,62.3525,-259.5075,-19.6875
414,233324,0.9049959999999999,0.185928,-0.6075600999999999,64.54,-264.1625,-22.3475
415,233420,0.9232961,0.13078399999999998,-0.5980439999999999,59.0275,-265.23,-20.7725
416,233517,0.9293961,0.15176800000000001,-0.649528,49.98,-262.745,-14.0525
417,233613,1.00406,0.285236,-0.7500560000000001,45.0275,-257.88,-4.1125
418,233709,1.133868,0.42773199999999995,-0.8510719999999999,51.7125,-253.33,6.615
419,233805,1.291004,0.41260399999999997,-0.9232961,67.6375,-251.265,14.3325
420,233902,1.369328,0.35477600000000004,-0.9284200999999999,80.0625,-252.9275,14.9625
421,233998,1.469368,0.353068,-0.917684,85.27750999999999,-253.995,11.0425
422,234094,1.553548,0.410652,-0.909632,90.9825,-250.845,9.8175
423,234190,1.754604,0.45579200000000003,-0.8796200000000001,103.565,-242.62,14.9625
424,234287,1.9541959999999998,0.47165200000000007,-0.8525360000000001,119.07,-234.0625,23.31
425,234383,2.072048,0.446276,-0.746396,130.9175,-228.795,28.805
426,234479,2.0996200000000003,0.39284,-0.5697399999999999,133.6825,-226.38,26.46
427,234575,2.069608,0.31646799999999997,-0.327448,125.2825,-223.16,16.8
428,234672,1.991528,0.256444,-0.08564401,108.71,-216.125,5.0925
429,234768,1.9400439999999999,0.172264,0.15494000000000002,91.0175,-202.9125,-0.8925
430,234864,1.9361400000000002,0.159576,0.378688,74.83,-184.6775,1.785
431,234960,1.91052,0.36234,0.564616,64.6975,-165.6725,8.8025
432,235057,1.790472,0.570716,0.815936,68.355,-143.5175,15.75
433,235153,1.66408,0.477996,1.114104,81.13,-113.4175,19.3725
434,235249,1.566236,0.260836,1.36884,77.315,-74.8825,14.8575
435,235345,1.5462280000000002,0.132736,1.42374,48.8775,-30.94,4.6375
436,235442,1.6806720000000002,0.089792,1.197552,10.815,14.49,-2.205
437,235538,1.795352,0.082716,0.904508,-20.055,49.7875,0.9625
438,235634,1.738256,0.03172,0.682712,-38.6925,73.535,11.935
439,235730,1.354932,-0.158844,0.302804,-50.995,93.3625,26.1275
440,235827,0.312808,-0.566812,-1.7924240000000002,-75.88,105.805,24.8675
441,235923,-0.146156,0.07588400000000001,-3.3715919999999997,-99.64499,132.3525,25.7425
442,236019,0.125172,0.9525761,-0.39894,-67.6375,177.03,52.78
443,236115,1.903444,0.595116,-0.340868,-43.2425,204.1725,67.2175
444,236212,1.520364,1.051884,-1.4520440000000001,-27.3175,176.3475,41.125
445,236308,0.9994241,0.6265921,-1.179984,-10.1675,142.625,-0.4725
446,236404,1.077504,-0.1037,-0.8413120000000001,9.8175,132.23,-9.1875
447,236501,0.9884440000000001,-0.239364,-0.8025161,9.8175,121.8875,2.345
448,236597,0.832528,0.053436000000000004,-0.8215481,2.2925,111.0025,10.4825
449,236693,0.7078439999999999,0.215452,-0.8030041,1.2425,101.7275,5.53
450,236789,0.736392,0.017324000000000003,-0.752496,9.45,97.45749,1.96
451,236886,2.4034,-0.840824,-1.005036,3.71,84.6125,1.855
452,236982,0.45579200000000003,-0.117852,-0.570716,-32.2,32.305,-7.0525
453,237078,0.990884,0.24326799999999998,-1.003816,-45.3775,27.195,-22.5225
454,237174,0.8522921,-0.033672,-0.7088201,-27.2125,20.685,-21.8225
455,237271,0.772748,0.04148,-0.821304,-19.7925,13.86,-18.0775
456,237367,0.716384,0.01464,-0.758596,-16.1875,9.0825,-16.59
457,237463,0.691008,0.053924,-0.775188,-12.1975,5.6525,-15.435
458,237559,0.6558721,0.061488,-0.793976,-8.4525,4.34,-13.4575
459,237656,0.6722199999999999,0.044896,-0.774944,-3.2025,5.4075,-9.905
460,237752,0.7141881,0.00366,-0.74908,0.315,6.51,-6.545
461,237848,0.7178479999999999,-0.000732,-0.726876,2.9575,7.35,-3.2375
462,237945,0.734928,-0.009028000999999999,-0.707112,4.6025,7.0,-2.1875
463,238041,0.7107720000000001,-0.006832001,-0.72224,4.165,5.495,-1.9075
464,238137,0.709064,-0.022936,-0.7156520000000001,3.115,3.885,-3.0625
465,238233,0.655628,-0.001952,-0.762012,1.995,2.4675,-4.445
466,238330,0.70394,-0.028304000000000003,-0.707356,1.575,1.365,-6.125
467,238426,0.6958880000000001,-0.028304000000000003,-0.690032,-0.14,-0.21,-6.6675
468,238522,0.689056,-0.009272001,-0.720776,0.105,-0.5075,-7.28
469,238618,0.7095520000000001,-0.015372,-0.7171161,0.0175,-0.8400001,-7.28
470,238715,0.664168,0.00244,-0.74054,0.4025,-0.77,-6.5975
471,238811,0.69418,0.000976,-0.721264,1.1375,-0.7,-6.4225
472,238907,0.7041841,-0.005368,-0.72468,1.505,-1.0675,-6.16
473,239003,0.705892,-0.002928,-0.721264,1.5925,-1.6275,-6.0025
474,239100,0.7046720999999999,-0.008052001,-0.724924,1.9425,-2.5025,-6.195
475,239196,0.704916,-0.006344,-0.71492,1.7325,-3.675,-6.3875
476,239292,0.689056,-0.002684,-0.7285841,1.7325,-4.6375,-6.58
477,239388,0.692228,-0.003904,-0.7232161,1.855,-5.005,-6.475
478,239485,0.681492,-0.000244,-0.715896,2.065,-4.8125,-6.16
479,239581,0.660752,-0.004636001,-0.734928,2.765,-4.3575,-5.5825
480,239677,0.6736840000000001,-0.0183,-0.7183361,3.535,-3.08,-5.4425
481,239773,0.667828,-0.011468,-0.7232161,3.325,-2.3625,-6.2825
482,239870,0.6836880999999999,-0.011712,-0.7198,3.57,-1.9075,-7.07
483,239966,0.69052,-0.008052001,-0.7195560000000001,3.745,-1.2775,-7.6475
484,240062,0.6944241,-0.005368,-0.721264,3.7275,-1.0325,-7.9275
485,240158,0.697596,-0.005856,-0.7166279999999999,3.7975,-0.3325,-7.7
486,240255,0.69784,-0.005856,-0.7171161,3.605,0.3675,-7.2625
487,240351,0.701012,-0.008540001,-0.712724,3.22,1.33,-7.105
488,240447,0.696864,-0.010492,-0.716384,2.7825,2.8875,-7.07
489,240543,0.700036,-0.0051240009999999996,-0.7241920000000001,2.2575,4.585,-7.0175
490,240640,0.701256,0.0017079999999999999,-0.7166279999999999,1.54,6.195,-6.9125
491,240736,0.675148,0.049288,-0.752008,1.015,8.505,-6.4225
492,240832,0.643184,0.02562,-0.818132,2.9575,14.8225,-5.565
493,240928,0.64782,-0.021716,-0.7564001,1.015,27.2125,-5.11
494,241025,0.646844,0.010004,-0.752984,2.1,39.41,-4.2525
495,241121,0.6314721,-0.001952,-0.753472,3.745,53.025,-2.205
496,241217,0.6075600999999999,-0.01464,-0.744444,4.725,69.09,-0.385
497,241313,0.599508,-0.008296000999999999,-0.74054,4.8475,87.4825,0.175
498,241410,0.599508,-0.010248,-0.749812,4.2525,106.96,-0.2625
499,241506,0.6441600000000001,0.000976,-0.784216,-0.1225,124.2675,-1.995
500,241602,0.6456241,-0.00976,-0.794708,-7.6825,136.3775,-4.6025
501,241698,0.660752,-0.05929201,-0.800076,-15.54,148.435,-5.915
502,241795,0.6480640000000001,-0.07710399999999999,-0.8030041,-23.835,163.66,-7.4375
503,241891,1.545252,-0.01952,-0.6707561,-32.1825,186.2875,-11.55
504,241987,1.151192,-0.266692,-0.9686799999999999,-27.7375,247.52,-44.1
505,242083,0.9286639999999999,-0.07637200000000001,-1.066768,-52.8325,309.0675,-81.60251
506,242180,0.79666,-0.09223200000000001,-1.021384,-54.0575,354.235,-94.51751
507,242276,0.745664,-0.035136,-1.097024,-67.7775,384.2125,-100.345
508,242372,1.1094680000000001,-0.012931999999999999,-0.8396040000000001,-71.54,392.1925,-93.065
509,242468,1.18218,0.16958,-0.797392,-67.3575,400.5575,-81.655
510,242565,1.178032,0.382104,-1.009184,-60.865,388.395,-67.095
511,242661,1.100196,0.06075601,-1.046516,-39.9525,340.9525,-36.1025
512,242757,0.846924,-0.08759601,-0.9730721,-34.965,289.03,-8.8025
513,242853,2.249436,-0.091012,-0.9203680000000001,-52.2375,263.4275,-11.83
514,242950,2.6339799999999998,-0.190564,-1.885632,-34.7725,282.1175,-17.885
515,243046,1.181936,0.355996,-1.012844,-44.7475,184.6075,-68.74
516,243142,2.66204,0.264008,-3.2059159999999998,-19.46,103.88,-102.515
517,243238,0.7610359999999999,-0.312564,-1.824632,40.0925,-29.505,-74.7425
518,243335,-0.28377199999999997,-0.614392,-1.1873040000000001,40.3375,-89.4775,-81.84751
519,243431,0.05563200000000001,-0.570472,-1.0438319999999999,27.8775,-86.11751,-83.93001
520,243527,0.39771999999999996,-0.557296,-1.14314,11.7775,-85.0675,-61.81
521,243623,0.488,-0.537288,-1.170712,5.3375,-106.015,-25.69
522,243720,0.4087,-0.45335200000000003,-1.114348,0.35,-138.1275,7.6825
523,243816,0.28914,-0.30548800000000004,-0.9833200000000001,-5.355,-168.0,30.9925
524,243912,0.264984,-0.11834000000000001,-0.885964,-8.47,-190.05,43.4
525,244008,0.275964,0.028792,-0.8164239999999999,-4.305,-206.395,48.0375
526,244105,0.320616,0.12078,-0.7673800000000001,5.2675,-218.82,47.18
527,244201,0.378932,0.17202,-0.7417600000000001,15.54,-229.285,40.8625
528,244297,0.471164,0.213256,-0.743224,24.78,-238.9625,31.255
529,244393,0.590968,0.260104,-0.75762,33.1275,-248.115,21.315
530,244490,0.719312,0.27328,-0.756156,42.63,-257.4425,12.04
531,244586,0.8261841000000001,0.203984,-0.7217521,53.235,-266.525,5.04
532,244682,0.9147559999999999,0.07515201,-0.686372,58.5375,-273.805,1.225
533,244778,0.9840521000000001,0.007320001,-0.687592,53.2,-278.775,1.015
534,244875,1.0438319999999999,0.045384,-0.752984,41.965,-281.54,5.4075
535,244971,1.128012,0.165188,-0.870592,33.81,-283.3075,13.265
536,245067,1.244156,0.31524800000000003,-0.9555040000000001,35.1925,-285.1625,22.925
537,245164,1.400072,0.4636,-1.0887280000000001,46.375,-288.2425,31.6575
538,245260,1.5986879999999999,0.5414359999999999,-1.128744,61.46,-292.4075,34.685
539,245356,1.670912,0.5314321,-1.066524,75.3725,-297.955,28.945
540,245452,1.7502119999999999,0.5368,-0.9777081,83.96500999999999,-297.3075,17.08
541,245549,1.8544,0.5702281,-0.865468,90.52750999999999,-288.1375,6.72
542,245645,1.973716,0.587796,-0.782752,101.955,-272.2475,2.4325
543,245741,2.105232,0.511668,-0.6724640000000001,117.635,-254.3275,4.1125
544,245837,2.1164560000000003,0.314272,-0.450912,130.165,-238.035,7.9625
545,245934,2.099132,0.052216,-0.152256,130.4625,-223.0725,11.4625
546,246030,2.107428,-0.16714,0.165676,113.82,-206.5875,15.54
547,246126,2.088152,-0.21106,0.372832,86.5375,-188.895,24.92
548,246222,2.07278,-0.044164,0.501908,61.1275,-170.03,41.755
549,246319,2.068388,0.323788,0.6034121,49.595,-151.7425,62.86
550,246415,1.900516,0.530456,0.8547319999999999,56.7525,-133.245,82.215
551,246511,1.70556,0.553392,1.116056,60.76,-108.675,87.4125
552,246607,1.582584,0.403332,1.285148,43.0675,-76.3175,72.45
553,246704,1.5603799999999999,0.36892800000000003,1.196576,2.31,-41.9475,40.7225
554,246800,1.671156,0.4594521,0.9703879999999999,-35.7,-11.3225,10.465
555,246896,1.666764,0.47458,0.7473721,-47.285,14.0875,-2.87
556,246992,0.703696,0.138836,0.2806,-39.795,36.68,-4.655
557,247089,-0.902068,-0.173484,-0.540216,-63.2275,77.6825,-37.4675
558,247185,-0.552416,0.437004,-1.991772,-82.53,133.9625,-63.6475
559,247281,0.8322841000000001,0.754204,-0.8640040000000001,-55.8425,188.895,-28.315
560,247377,1.740696,0.724436,-0.752984,-18.76,205.485,-9.9925
561,247474,1.276608,0.5653481,-1.293688,1.9075,181.9475,-16.6425
562,247570,1.106784,-0.014884,-1.0145520000000001,21.2625,166.985,-17.15
563,247666,1.062132,-0.364536,-0.8047121,21.945,155.5575,-12.425
564,247762,0.9918600000000001,-0.268888,-0.84424,13.405,146.195,1.2775
565,247859,0.894748,-0.014884,-0.829356,4.7425,135.5025,5.775
566,247955,0.874252,0.101504,-0.8464360000000001,6.755,127.05,7.63
567,248051,0.8640040000000001,-0.036356,-0.783972,14.0525,118.615,7.5775
568,248147,1.152412,-0.457988,-0.9472079999999999,16.9925,110.67,7.8575
569,248244,1.9656639999999999,-0.725412,-0.5631520000000001,-5.6,78.89,11.9
570,248340,0.41968,0.260836,-0.8849879999999999,-35.6825,35.805,-3.36
571,248436,1.066524,0.238632,-0.8845,-27.2475,37.3975,-7.6475
572,248532,0.777628,-0.074664,-0.7373681,-12.7575,25.2175,-8.3125
573,248629,0.8132520999999999,0.08003201,-0.811056,-13.44,16.555,-8.9775
574,248725,0.7605481,-0.00244,-0.7468840999999999,-7.3325,9.8525,-7.63
575,248821,0.7266321,0.026595999999999998,-0.7617681,-5.3025,5.4075,-7.2275
576,248917,0.66978,-0.0183,-0.746152,-2.2575,3.325,-5.3375
577,249014,0.6985720999999999,-0.008784,-0.753472,0.5075,3.605,-3.5
578,249110,0.712724,-0.01464,-0.7439560000000001,2.2925,4.0075,-1.9425
579,249206,0.7056479999999999,-0.037332,-0.7300479999999999,4.165,3.3075,-0.8575
580,249302,0.707112,-0.033916,-0.734928,4.6725,2.52,-0.8925
581,249399,0.699548,-0.041724000000000004,-0.7171161,4.9875,2.1175,-1.05
582,249495,0.697596,-0.05587601,-0.71248,4.515,1.365,-1.89
583,249591,0.701012,-0.042212,-0.7171161,3.675,0.945,-3.0975
584,249687,0.6897880999999999,-0.055388,-0.7134560999999999,2.9225,0.56,-3.9025
585,249784,0.685396,-0.05563200000000001,-0.708332,1.96,0.28,-4.8475
586,249880,0.6824680000000001,-0.0488,-0.711504,1.085,0.175,-5.7225
587,249976,0.6856399999999999,-0.046604,-0.708332,0.4725,0.28,-6.2125
588,250072,0.680028,-0.050996,-0.708088,-0.28,0.5425,-6.6325
589,250169,0.678076,-0.052703999999999994,-0.70516,-0.945,0.945,-7.0875
590,250265,0.67466,-0.048556,-0.7137001000000001,-1.5575,1.6275,-7.77
591,250361,0.674172,-0.036844,-0.70516,-1.8025,2.2575,-8.4175
592,250457,0.6810039999999999,-0.034648000000000005,-0.7134560999999999,-1.6275,2.5025,-8.715
593,250554,0.69906,-0.037332,-0.7068681,-1.2775,2.6775,-8.7325
594,250650,0.681248,-0.02196,-0.7168720000000001,-0.7875,2.695,-8.68
595,250746,0.692228,-0.025131999999999998,-0.7034521,-0.0525,2.9225,-8.645
596,250842,0.692716,-0.026595999999999998,-0.7027201,0.1225,3.0275,-8.7325
597,250939,0.6790520999999999,-0.037332,-0.7224841,-0.35,3.1675,-9.2925
598,251035,0.6954,-0.044407999999999996,-0.7190681,-0.2275,3.2025,-10.3775
599,251131,0.6956439999999999,-0.041968,-0.7105279999999999,-0.49,3.0975,-11.13
600,251227,0.7015,-0.025863999999999998,-0.7241920000000001,-0.14,2.695,-12.11
601,251324,0.7129681,-0.022203999999999998,-0.716384,0.1225,2.205,-12.7575
602,251420,0.710284,-0.01708,-0.7129681,0.105,1.89,-12.25
603,251516,0.72224,-0.015128,-0.7107720000000001,-0.21,2.0475,-11.69
604,251613,0.71248,-0.020496,-0.7129681,-0.8925,2.555,-11.6025
605,251709,0.7088201,-0.019764,-0.7141881,-1.3825,3.92,-11.1125
606,251805,0.7139439999999999,-0.010004,-0.719312,-1.75,6.405,-10.465
607,251901,0.6973520000000001,0.01342,-0.7449321,-1.505,9.5025,-8.645
608,251998,0.647576,-0.040504000000000005,-0.75884,2.5725,14.91,-5.355
609,252094,0.6497721,0.07612801,-0.8427761,3.5175,26.1625,-5.0575
610,252190,0.635864,0.011468,-0.76372,1.6625,40.5825,-5.0225
611,252286,0.6380600000000001,0.0051240009999999996,-0.742492,2.59,54.6875,-3.535
612,252383,0.6229319999999999,-0.006344,-0.742004,5.88,71.085,-0.245
613,252479,0.6156119999999999,-0.019764,-0.735172,7.7,89.005,2.52
614,252575,0.6539201,-0.019275999999999998,-0.7449321,6.965,106.68,3.29
615,252671,0.667828,-0.027083999999999997,-0.7476161,3.08,118.7725,1.225
616,252768,0.669048,-0.028548,-0.7381001,-1.995,127.6625,-0.5775
617,252864,0.687104,-0.018544,-0.767868,-5.9325,138.25,-0.4725
618,252960,0.662948,-0.03416,-0.8066641,-10.15,151.34,4.1475
619,253056,1.2878319999999999,-0.05002,-0.796904,-15.225,174.0375,6.9125
620,253153,1.20902,-0.303048,-0.9520881,-7.0525,238.245,-21.3325
621,253249,0.9067040000000001,-0.194956,-1.121912,-32.4275,312.76,-58.5025
622,253345,0.8540000000000001,-0.206668,-1.128012,-33.425,373.31,-75.145
623,253441,0.6283,-0.120048,-1.353712,-41.125,421.855,-90.63251
624,253538,1.121668,-0.043188,-0.8740081000000001,-45.7275,432.0925,-84.28
625,253634,1.265628,0.20618000000000003,-0.984296,-50.4525,438.375,-78.855
626,253730,1.064084,0.319396,-1.074576,-53.83,412.265,-72.6075
627,253826,0.921832,0.03416,-0.873764,-32.0775,347.725,-41.86
628,253923,0.796416,-0.361852,-0.946232,-13.405,306.355,-9.4675
629,254019,2.6764360000000003,-0.401624,-1.034316,-32.8825,285.495,-20.0375
630,254115,2.064484,-0.5502199999999999,-1.901248,-35.9975,297.395,-45.9375
631,254211,1.8885599999999998,0.098088,-0.856684,-87.71,178.4825,-118.2825
632,254308,3.0634200000000003,-0.0549,-3.372812,-50.855,96.25,-115.815
633,254404,0.5838920999999999,-0.200324,-1.844152,-13.0725,-69.09,-76.16001
634,254500,-0.46042799999999995,-0.48312,-1.105808,9.3625,-124.11,-69.125
635,254596,-0.11321600000000001,-0.49849209999999994,-0.8820601,14.8225,-116.8475,-72.625
636,254692,0.24497600000000003,-0.604388,-0.9323239999999999,5.7225,-104.755,-63.77
637,254789,0.548756,-0.641232,-1.018944,-7.6825,-115.885,-39.1825
638,254885,0.553392,-0.5604680000000001,-1.025776,-23.1875,-147.9975,-8.645
639,254981,0.400404,-0.383812,-0.9140241,-38.2025,-182.735,16.065
640,255078,0.324764,-0.153476,-0.805932,-44.5725,-207.76,31.955
641,255174,0.317688,0.029036000000000003,-0.7198,-38.22,-223.72,40.0925
642,255270,0.363072,0.11955999999999999,-0.6612401,-22.015,-233.45,41.685
643,255366,0.439688,0.132248,-0.6414761,-4.935,-240.2575,37.73
644,255462,0.5170359999999999,0.14493599999999998,-0.6368401,7.805,-246.855,29.5225
645,255559,0.6380600000000001,0.17568,-0.653188,17.08,-253.155,19.4775
646,255655,0.785192,0.147376,-0.653432,26.67,-259.42,9.7825
647,255751,0.8893800999999999,0.045872,-0.6109760000000001,34.79,-266.0875,2.065
648,255847,0.96624,-0.051972000000000004,-0.6131721,36.4,-271.6525,-1.1375
649,255944,1.03578,-0.1037,-0.63318,30.24,-275.1875,0.7875
650,256040,1.112884,-0.09150001,-0.6985720999999999,21.0875,-277.9175,7.7525
651,256136,1.1977959999999999,0.023180000000000003,-0.803736,14.315,-280.63,19.32
652,256233,1.301496,0.195444,-0.912316,16.31,-284.3575,33.3375
653,256329,1.361276,0.30036399999999996,-0.9650200999999999,28.35,-289.52,43.96
654,256425,1.4130040000000001,0.317932,-0.9940559999999999,41.825,-294.455,45.92
655,256521,1.49694,0.31476,-1.0147959999999998,47.6175,-297.9725,37.485
656,256618,1.579656,0.38356799999999996,-1.048712,48.2125,-299.985,23.135
657,256714,1.720688,0.5233800000000001,-1.040416,51.4325,-297.99,9.52
658,256810,1.8295119999999998,0.6222,-0.9806360000000001,65.3975,-291.7075,-0.735
659,256906,1.901736,0.6378159999999999,-0.8335040000000001,89.1625,-279.16,-8.2075
660,257003,1.96786,0.554124,-0.62342,113.8025,-259.7,-13.5975
661,257099,1.968348,0.37746799999999997,-0.34111199999999997,131.1625,-236.705,-15.82
662,257195,1.9473639999999999,0.09735601,-0.061,134.0675,-213.0975,-16.9575
663,257291,2.1642799999999998,-0.132004,0.149084,121.0125,-191.275,-18.34
664,257388,2.198928,-0.132736,0.345992,101.2725,-173.88,-10.4825
665,257484,2.120848,0.101504,0.567056,91.3325,-158.2875,10.3075
666,257580,2.0586279999999997,0.340136,0.7849480999999999,99.855,-137.41,41.7725
667,257676,1.921744,0.367464,1.198528,112.1225,-112.8225,69.79
668,257773,1.7343520000000001,0.18470799999999998,1.510116,96.7575,-81.76001,76.965
669,257869,1.65798,0.091988,1.6145479999999999,44.625,-43.26,57.4
670,257965,1.6928720000000002,0.243756,1.348344,-19.67,-3.1675,27.7025
671,258061,1.4274,0.057584,1.526952,-74.27,47.8275,-11.4625
672,258158,-0.282064,0.013175999999999998,0.32208000000000003,-148.12,143.3075,-62.5625
673,258254,0.8261841000000001,0.334768,-2.347036,-127.575,191.24,-57.4
674,258350,1.46766,1.097024,-1.43106,-104.9475,203.175,6.405
675,258446,1.404464,0.751276,-0.542168,-37.9925,206.36,62.8775
676,258543,1.413736,1.151924,-1.428864,-25.795,192.29,42.105
677,258639,1.20902,0.7232161,-1.2219520000000001,-5.7925,163.45,0.07
678,258735,1.0065,-0.30134,-0.826672,18.7775,144.725,-5.5125
679,258831,1.016748,-0.551928,-0.77104,13.0725,134.2425,6.3525
680,258928,0.808372,-0.092964,-0.731268,-3.2025,124.1975,17.745
681,259024,0.6822239999999999,0.338672,-0.8457040000000001,-9.8175,116.165,15.1375
682,259120,0.7869,0.015372,-0.772748,1.015,111.6675,5.075
683,259216,2.077904,-0.9225639999999999,-1.1324040000000002,-2.2225,102.3225,-3.745
684,259313,1.002108,-0.348432,-0.564616,-45.045,52.2375,-8.54
685,259409,0.7722600000000001,0.39894,-1.07482,-68.9675,28.8575,-30.87
686,259505,1.0528600000000001,0.07076001,-0.813496,-45.045,27.7375,-30.9225
687,259601,0.8376520000000001,0.07173600000000001,-0.83814,-27.6675,20.265,-25.375
688,259698,0.738588,0.08466801,-0.7822640000000001,-19.495,16.5725,-21.2275
689,259794,0.742004,0.09906401,-0.7883640000000001,-12.04,14.14,-16.03
690,259890,0.7168720000000001,0.107848,-0.781532,-8.3475,9.7825,-11.515
691,259986,0.7278521,0.048312,-0.759572,-3.535,7.2625,-7.2275
692,260083,0.727364,0.023180000000000003,-0.741028,-0.385,5.7925,-3.78
693,260179,0.70028,0.002684,-0.73688,1.645,5.4775,-1.54
694,260275,0.72712,-0.029524,-0.7129681,1.33,4.2525,-1.82
695,260371,0.6661201,-0.029524,-0.7317560000000001,1.82,3.535,-2.6075
696,260468,0.65758,-0.028792,-0.7320001,1.0675,2.2925,-4.97
697,260564,0.682712,-0.032695999999999996,-0.704916,0.945,0.945,-6.93
698,260660,0.71004,-0.03416,-0.693204,0.9625,0.035,-8.33
699,260757,0.702964,-0.009028000999999999,-0.7229720000000001,0.595,-0.9975,-9.205
700,260853,0.66856,-0.000732,-0.7317560000000001,0.07,-2.065,-9.5725
701,260949,0.701256,-0.008052001,-0.702476,0.245,-2.45,-9.8525
702,261045,0.686616,-0.006587999999999999,-0.73078,0.21,-2.8,-9.975
703,261142,0.69296,0.003172,-0.712236,0.315,-3.325,-9.9225
704,261238,0.691008,0.000244,-0.7232161,0.9275,-3.675,-9.975
705,261334,0.689056,-0.004392,-0.720776,1.68,-3.745,-9.135
706,261430,0.6734399999999999,0.0034159999999999998,-0.7285841,2.4325,-3.1325,-8.225
707,261527,0.671732,-0.003172,-0.735172,3.4825,-2.135,-7.4025
708,261623,0.68076,0.00122,-0.7229720000000001,4.3225,-0.8225,-6.65
709,261719,0.680028,0.003904,-0.7241920000000001,5.25,0.21,-5.8625
710,261815,0.692716,0.010492,-0.7171161,5.95,0.8575,-5.18
711,261912,0.69052,0.001464,-0.7156520000000001,6.5275,1.47,-4.3575
712,262008,0.69052,0.002196,-0.7217521,6.7025,1.8025,-4.235
713,262104,0.693448,-0.000488,-0.716384,5.8625,1.3825,-4.7075
714,262200,0.699548,-0.008784,-0.712724,5.005,1.05,-5.5125
715,262297,0.698328,-0.0061,-0.719312,4.4625,0.525,-6.16
716,262393,0.6893,0.000488,-0.72712,3.9025,0.14,-6.615
717,262489,0.69052,-0.01098,-0.719312,3.6925,0.49,-6.7725
718,262585,0.686128,-0.016836,-0.720532,3.185,1.19,-7.0
719,262682,0.692228,-0.012688,-0.718824,2.765,2.4325,-7.2975
720,262778,0.6980841,-0.004148001,-0.720776,2.695,4.41,-7.0875
721,262874,0.708088,0.005368,-0.7156520000000001,2.555,6.4925,-6.335
722,262970,0.697108,0.027816000000000004,-0.7288279999999999,2.52,8.9425,-4.7775
723,263067,0.615124,-0.008052001,-0.783972,4.795,13.0025,-2.0825
724,263163,0.648308,0.030012,-0.779824,5.11,23.6425,-0.525
725,263259,0.656116,0.007076001,-0.7747001,4.9,35.1925,-0.35
726,263355,0.649284,-0.008540001,-0.757864,4.8825,46.2525,-0.595
727,263452,0.632448,-0.022203999999999998,-0.746152,5.53,59.5525,-0.4375
728,263548,0.605608,-0.022203999999999998,-0.7376119999999999,5.3725,75.35501,-0.5775
729,263644,0.5856,-0.011712,-0.734196,4.6375,94.67501,-1.0325
730,263740,0.6039,-0.018788,-0.744688,3.815,115.2725,-1.7325
731,263837,0.6451359999999999,0.0122,-0.7795801,-0.875,132.0025,-3.7625
732,263933,0.6375721,0.003904,-0.8025161,-8.96,143.5175,-5.67
733,264029,0.62342,-0.047092,-0.8576601,-16.73,160.0375,-4.41
734,264125,0.6080479999999999,-0.12395199999999999,-0.865468,-25.7775,183.61,-3.185
735,264222,1.473516,-0.291092,-0.729316,-24.8325,229.495,-19.1275
736,264318,0.828868,-0.19959200000000002,-1.114592,-38.78,308.49,-68.215
737,264414,0.750544,-0.12980799999999998,-1.0889719999999998,-52.71,371.7,-97.7375
738,264510,0.692716,-0.11541199999999999,-1.2397639999999999,-62.4575,420.175,-109.0775
739,264607,1.17242,0.030012,-1.024556,-72.3625,435.085,-103.1275
740,264703,1.242204,0.160796,-0.8718120999999999,-64.61,438.1125,-85.3125
741,264799,1.1636360000000001,0.357704,-1.086044,-56.5425,421.54,-69.0725
742,264896,1.0821399999999999,0.047580000000000004,-1.075796,-35.63,371.8925,-38.8325
743,264992,0.8142281,-0.096624,-0.9928360999999999,-26.845,319.9175,-9.6075
744,265088,2.578592,-0.0793,-1.056032,-40.11,290.15,-13.4225
745,265184,2.244556,-0.155184,-1.9868919999999999,-14.5075,297.3425,-22.3125
746,265281,1.770952,0.45261999999999997,-0.935984,-36.12,179.865,-90.89499
747,265377,2.718892,0.176656,-3.263988,13.0025,98.1925,-114.1875
748,265473,0.534116,-0.304512,-1.723616,60.06,-53.8475,-85.8025
749,265569,-0.325984,-0.64782,-1.077748,65.0125,-102.9175,-88.4275
750,265665,0.049044,-0.651968,-0.9293961,53.1825,-95.375,-84.945
751,265762,0.393328,-0.6902761,-0.992592,30.87,-88.69,-62.02
752,265858,0.5887720000000001,-0.626104,-1.095804,15.015,-105.9275,-26.3025
753,265954,0.51972,-0.5353359999999999,-1.0643280000000002,4.095,-139.9825,8.47
754,266050,0.376004,-0.390644,-0.91622,-5.635,-173.3025,32.305
755,266147,0.35136,-0.173484,-0.813008,-13.335,-196.63,44.0125
756,266243,0.34867600000000004,0.02074,-0.74664,-12.005,-212.5725,48.8075
757,266339,0.380152,0.144204,-0.714432,-1.26,-224.42,48.1425
758,266435,0.42431599999999997,0.207644,-0.70394,13.0025,-233.9575,42.385
759,266532,0.5060560000000001,0.252052,-0.6980841,26.3375,-242.27,33.845
760,266628,0.6170760000000001,0.309148,-0.7027201,38.2025,-250.5125,24.395
761,266724,0.7217521,0.31158800000000003,-0.670024,50.61,-258.51,14.9625
762,266821,0.8020281,0.21886799999999998,-0.618052,61.8275,-264.88,7.035
763,266917,0.8601,0.102968,-0.580964,65.45,-268.73,3.08
764,267013,0.9494040000000001,0.002928,-0.6107319999999999,58.9575,-269.885,4.3925
765,267109,1.03334,0.01952,-0.680516,45.1325,-271.4075,11.305
766,267206,1.090192,0.16592,-0.803492,32.34,-274.19,22.1375
767,267302,1.1956,0.34648,-0.9171961,29.26,-277.7775,33.81
768,267398,1.298812,0.46238,-1.006256,35.945,-282.6425,42.49
769,267494,1.44326,0.49556400000000006,-1.0858,44.415,-289.205,42.805
770,267591,1.556964,0.49654,-1.115812,48.4575,-297.3775,33.2325
771,267687,1.683356,0.544608,-1.134844,47.5475,-304.8325,19.005
772,267783,1.843176,0.6600201,-1.1272799999999998,49.84,-308.1575,6.65
773,267879,1.9942119999999999,0.749568,-1.0401719999999999,63.245,-306.74,-1.0675
774,267975,2.092788,0.7373681,-0.8759601,84.21,-299.9325,-5.495
775,268072,2.1508599999999998,0.614636,-0.612684,103.355,-287.8575,-8.995
776,268168,2.108892,0.416508,-0.26474000000000003,110.39,-269.885,-11.1475
777,268264,2.09596,0.170312,0.07710399999999999,104.1775,-244.79,-10.4125
778,268360,2.094984,-0.02806,0.386252,84.33249,-216.58,-8.015
779,268457,2.0374,0.094672,0.68076,60.6375,-186.97,-3.5
780,268553,2.084736,0.568764,0.8274040000000001,56.3325,-151.83,10.36
781,268649,2.2069799999999997,0.760792,1.044076,87.4825,-113.4,41.93
782,268746,2.146468,0.40138,1.417884,114.94,-79.975,72.905
783,268842,1.895148,0.070516,1.758264,84.84,-49.2975,72.625
784,268938,1.735084,0.09979600000000001,1.64578,10.6225,-10.6225,46.5325
785,269034,1.8107240000000002,0.316224,1.176812,-51.52,30.4325,21.28
786,269131,1.7990119999999998,0.311832,0.711504,-68.1625,63.07,14.6475
787,269227,0.09638,-0.45115600000000006,-0.7600600000000001,-53.6375,95.585,3.745
788,269323,-0.0793,-0.07637200000000001,-1.9717639999999999,-55.895,145.39,-5.6875
789,269419,0.60878,0.426756,-0.8439959999999999,-47.775,186.6025,19.3025
790,269516,1.7633880000000002,0.460916,-0.767624,-24.5525,206.64,39.515
791,269612,1.374208,0.659532,-1.190232,-11.8825,182.14,34.37
792,269708,1.0492,0.39771999999999996,-1.130208,-0.7875,158.5325,12.3025
793,269804,1.058716,-0.011956,-0.91622,6.9475,145.7575,0.0175
794,269901,0.9720960999999999,-0.153232,-0.8596120999999999,8.26,134.82,6.37
795,269997,0.8679081,0.002196,-0.822524,2.3975,123.8825,9.205
796,270093,0.772748,0.11345999999999999,-0.8178880999999999,2.135,115.85,7.63
797,270189,0.7861680999999999,0.007564001,-0.779092,6.5625,109.655,2.5725
798,270286,0.9337880999999999,-0.2257,-0.762988,8.155,103.8625,-0.175
799,270382,2.198684,-0.656848,-1.0467600000000001,-7.0175,85.55751,-1.05
800,270478,0.611464,0.005612,-0.667096,-38.815,36.61,-10.22
801,270574,0.8991401,0.26303200000000004,-0.9740479999999999,-43.4525,30.5375,-21.0875
802,270671,0.9298841,0.001952,-0.768356,-24.4125,27.6325,-17.64
803,270767,0.721508,0.010736,-0.781776,-15.9425,22.05,-14.07
804,270863,0.735172,0.032208,-0.7788480999999999,-11.76,19.845,-10.4475
805,270959,0.724924,0.01952,-0.7893399999999999,-6.6675,17.2025,-7.595
806,271056,0.708332,0.030987999999999998,-0.76982,-3.9375,13.7375,-5.11
807,271152,0.689056,-0.002684,-0.7556681,-1.05,11.5325,-2.7125
808,271248,0.71248,-0.007564001,-0.741028,1.2075,10.71,-2.2925
809,271344,0.7076001000000001,0.008052001,-0.7239479999999999,1.365,9.485,-2.975
810,271441,0.71248,-0.023668,-0.720532,1.2075,7.8575,-3.9725
811,271537,0.7327321,-0.040016,-0.7034521,-0.525,5.705,-5.635
812,271633,0.7129681,-0.050752,-0.7032079999999999,-1.575,3.85,-7.4725
813,271729,0.7176041,-0.049532,-0.7015,-2.03,2.3975,-9.1
814,271826,0.7046720999999999,-0.034648000000000005,-0.7232161,-2.0125,1.5225,-9.835
815,271922,0.680028,-0.020496,-0.7407841,-1.26,1.2425,-9.94
816,272018,0.694912,-0.01464,-0.7107720000000001,-0.8575,1.2075,-9.4325
817,272114,0.710284,-0.005856,-0.703696,0.0875,1.1725,-8.7325
818,272211,0.7105279999999999,-0.01342,-0.7068681,0.805,0.8575,-7.7
819,272307,0.7107720000000001,-0.00366,-0.7046720999999999,1.4875,0.2625,-6.9125
820,272403,0.7027201,-0.0061,-0.7105279999999999,2.135,-0.28,-6.1075
821,272500,0.6895439999999999,-0.011712,-0.716384,2.73,-0.8925,-5.46
822,272596,0.678808,-0.009272001,-0.7229720000000001,2.73,-1.4525,-5.355
823,272692,0.684908,-0.019764,-0.718824,3.08,-1.2425,-5.285
824,272788,0.6893,-0.016592,-0.7178479999999999,3.3425,-0.665,-5.3725
825,272885,0.686372,-0.007808001,-0.716384,3.64,-0.14,-5.0225
826,272981,0.687592,-0.005856,-0.721264,4.69,1.225,-3.9725
827,273077,0.691496,-0.000976,-0.7200439999999999,5.8275,3.0275,-2.38
828,273173,0.6980841,-0.0017079999999999999,-0.715896,7.28,4.6375,-0.5775
829,273270,0.705404,-0.006344,-0.712724,8.435,5.775,1.225
830,273366,0.704916,-0.015372,-0.7117479999999999,8.5575,6.0025,2.0475
831,273462,0.7117479999999999,-0.0183,-0.7088201,8.19,5.985,2.2575
832,273559,0.7076001000000001,-0.028304000000000003,-0.70638,7.385,5.845,1.8025
833,273655,0.709064,-0.025863999999999998,-0.7056479999999999,6.0025,5.845,0.91
834,273751,0.702964,-0.033428,-0.708088,4.55,6.0725,-0.175
835,273847,0.6902761,-0.016592,-0.72712,2.9225,6.8425,-1.225
836,273944,0.677344,-0.018056,-0.7278521,2.87,9.135,-1.19
837,274040,0.5917,-0.07637200000000001,-0.7812880999999999,4.55,14.35,-0.5075
838,274136,0.636596,0.003904,-0.7539600000000001,4.2175,25.9,-2.6075
839,274232,0.6409881,-0.008052001,-0.738344,4.0775,38.4475,-3.43
840,274329,0.652212,-0.005368,-0.736392,3.9725,50.4,-3.465
841,274425,0.6422081000000001,-0.006832001,-0.7407841,5.4075,64.1025,-1.6275
842,274521,0.640012,-0.016592,-0.7278521,6.9125,79.0825,0.2625
843,274617,0.6463561,-0.033916,-0.743224,6.72,95.1125,1.575
844,274714,0.65758,-0.015128,-0.746152,3.2375,107.835,0.735
845,274810,0.653432,-0.019032,-0.751276,-1.68,118.8075,-0.63
846,274906,0.684908,-0.020252000000000003,-0.782752,-6.44,130.4275,0.455
847,275003,0.671732,-0.002928,-0.8378960999999999,-11.1825,143.9375,6.44
848,275099,0.7422481,-0.01464,-0.8105680000000001,-18.41,162.855,14.5075
849,275195,1.120692,-0.305732,-0.774456,-11.27,210.8575,0.1575
850,275291,0.9052401,-0.13664,-1.009184,-24.815,281.6275,-39.445
851,275388,0.8071520000000001,-0.138836,-1.051884,-29.4525,340.655,-57.1025
852,275484,0.7705521,-0.030012,-1.137772,-27.895,389.27,-63.9975
853,275580,1.112152,-0.06539201,-0.8105680000000001,-28.14,407.61,-56.84
854,275676,1.102392,0.04514,-0.9964959999999999,-33.8275,416.1325,-49.3675
855,275773,1.317356,0.337208,-1.078724,-43.75,406.525,-48.2125
856,275869,0.8954801,0.36136399999999996,-1.122156,-26.9325,366.5375,-23.6075
857,275965,0.9459880999999999,-0.064416,-0.9537959999999999,5.7925,330.995,14.385
858,276061,1.4015360000000001,-0.2989,-0.987224,9.0125,304.885,24.3425
859,276158,2.9829,-0.595116,-1.5323200000000001,7.07,300.9125,8.085
860,276254,0.27571999999999997,0.059536,-2.065948,-31.71,238.5075,-67.5675
861,276350,2.905552,0.5663239999999999,-2.966552,-69.9475,140.5425,-142.765
862,276447,1.706536,0.316712,-2.624952,-3.535,20.51,-133.28
863,276543,-0.012931999999999999,-0.08881599,-1.58356,41.0025,-93.4675,-119.875
864,276639,-0.24522,-0.42285200000000006,-1.0255319999999999,74.11251,-108.9025,-118.055
865,276735,0.122244,-0.600484,-1.009428,73.675,-101.5875,-112.385
866,276832,0.47336000000000006,-0.726876,-1.038708,51.835,-105.035,-90.70251
867,276928,0.557296,-0.6695361,-1.084336,23.275,-133.2625,-60.6025
868,277024,0.42285200000000006,-0.5160600000000001,-0.9803921,-3.535,-169.9425,-33.355
869,277120,0.299388,-0.294752,-0.876692,-20.3,-197.05,-12.3025
870,277217,0.296216,-0.0793,-0.813496,-22.2075,-213.3075,2.87
871,277313,0.32256799999999997,0.047580000000000004,-0.759084,-10.6225,-224.56,12.5825
872,277409,0.422364,0.09247601,-0.7229720000000001,5.5825,-234.0625,15.4525
873,277505,0.4758,0.086864,-0.71126,18.41,-244.4575,12.11
874,277602,0.504592,0.120048,-0.677344,25.97,-253.8025,5.0925
875,277698,0.6314721,0.17543599999999998,-0.693692,30.7825,-260.61,-3.36
876,277794,0.796904,0.164456,-0.6954,38.9025,-266.035,-9.065
877,277890,0.8845,0.07978801,-0.665144,47.1275,-272.4925,-11.025
878,277987,0.955992,-0.0034159999999999998,-0.6541640000000001,48.79,-278.3375,-9.59
879,278083,1.01626,-0.026108,-0.697596,43.2425,-282.5025,-5.1275
880,278179,1.092876,0.043676,-0.7978801,35.6125,-286.755,2.24
881,278276,1.20048,0.189344,-0.9237841,32.935,-292.145,11.7075
882,278372,1.284416,0.27938,-1.003572,40.95,-299.145,21.105
883,278468,1.39324,0.27938,-1.034804,55.195,-305.0775,28.385
884,278564,1.554036,0.293532,-1.074088,64.4,-309.3825,31.885
885,278661,1.737036,0.3416,-1.059936,68.67,-312.4275,31.1675
886,278757,1.8712360000000001,0.409432,-0.995764,71.2775,-313.3025,26.9675
887,278853,2.039596,0.493612,-0.8808401,77.0175,-308.9975,19.53
888,278949,2.10206,0.549488,-0.67832,88.39251,-295.2075,13.405
889,279046,2.199416,0.47043199999999996,-0.45335200000000003,102.305,-274.575,10.115
890,279142,2.21674,0.26474000000000003,-0.15982000000000002,110.915,-250.8625,11.6725
891,279238,2.233332,0.03294,0.23741199999999998,103.0925,-226.03,15.8375
892,279334,2.245288,-0.040992,0.504836,79.3975,-198.5025,25.06
893,279431,2.2662720000000003,0.026108,0.744688,49.2625,-173.81,37.135
894,279527,2.124996,0.32086,0.90402,24.045,-148.19,55.65
895,279623,1.984696,0.6319600000000001,1.029436,10.85,-120.2425,69.86
896,279719,1.853668,0.619028,1.250988,9.065,-87.5875,69.615
897,279816,1.70678,0.5397281,1.3085719999999998,-0.4025,-49.175,54.1625
898,279912,1.689456,0.506544,1.132892,-18.2525,-9.5025,31.115
899,280008,1.506456,0.49288000000000004,0.85888,-30.1,26.1975,15.96
900,280104,1.138016,0.1403,2.1413439999999997,-26.39,85.19,20.0375
901,280201,0.715164,0.19885999999999998,-1.30174,0.7525,171.7275,52.7975
902,280297,0.063928,0.61854,-2.127436,10.325,188.4225,56.105
903,280393,1.281976,0.256932,-0.6109760000000001,32.41,211.75,21.42
904,280490,1.9949439999999998,0.131028,-0.965996,24.185,203.105,-20.8075
905,280586,1.342976,-0.56852,-1.086288,33.3025,171.78,-0.6125
906,280682,1.056276,-0.465552,-0.83936,13.965,150.8675,8.9425
907,280778,0.9945440000000001,-0.000488,-0.898652,-2.5375,142.5375,15.855
908,280875,0.755912,0.465796,-0.9189040999999999,-4.83,131.845,17.815
909,280971,0.739808,0.366732,-0.869128,10.3075,125.16,12.11
910,281067,0.864492,-0.117852,-0.765672,25.7775,119.7175,6.3875
911,281163,1.161928,-0.564128,-0.853756,24.57,111.4575,6.23
912,281260,1.979816,-0.692472,-0.681248,-8.0325,81.69001,13.6325
913,281356,0.609268,0.30548800000000004,-0.898652,-39.48,35.6125,-2.17
914,281452,0.8247200000000001,0.06270801,-0.81374,-28.21,33.46,-9.485
915,281548,0.9203680000000001,-0.069052,-0.7712840999999999,-19.04,27.93,-7.875
916,281645,0.686616,0.016347999999999998,-0.815204,-17.29,20.895,-8.8725
917,281741,0.70394,-0.005612,-0.756888,-11.6375,17.4825,-9.1175
918,281837,0.7117479999999999,0.014396,-0.7881199999999999,-8.33,13.825,-8.2775
919,281933,0.7283400999999999,-0.04392,-0.740296,-4.13,13.02,-6.16
920,282030,0.7156520000000001,-0.043676,-0.732244,-0.8575,12.775,-4.62
921,282126,0.720288,-0.031476,-0.7285841,0.3325,11.83,-4.34
922,282222,0.741028,-0.048556,-0.7183361,1.6625,10.6925,-4.095
923,282318,0.720776,-0.04514,-0.7227279999999999,1.4525,9.0475,-3.92
924,282415,0.744444,-0.057828,-0.711992,1.575,7.8575,-5.2325
925,282511,0.7007680000000001,-0.038796,-0.7217521,1.015,6.2475,-5.3375
926,282607,0.72346,-0.047092,-0.71736,1.12,5.495,-6.335
927,282703,0.707356,-0.031476,-0.6958880000000001,0.8225,4.7775,-6.0025
928,282800,0.6993041,-0.026595999999999998,-0.7229720000000001,1.0325,4.7075,-5.9675
929,282896,0.712236,-0.035868000000000004,-0.713212,0.665,4.2525,-6.16
930,282992,0.7224841,-0.044896,-0.7139439999999999,0.5425,3.8675,-5.915
931,283088,0.7171161,-0.042456,-0.6980841,0.385,3.2025,-6.1775
932,283185,0.720288,-0.037332,-0.699548,0.5425,2.345,-6.3
933,283281,0.700036,-0.038796,-0.70638,0.7175,1.5925,-5.9675
934,283377,0.7027201,-0.032451999999999995,-0.7105279999999999,1.0325,1.12,-5.5475
935,283473,0.7056479999999999,-0.043188,-0.705404,1.1725,1.2425,-5.145
936,283570,0.6980841,-0.036112,-0.705892,1.2075,1.3475,-4.9
937,283666,0.6980841,-0.04514,-0.704916,1.4875,1.4875,-4.8125
938,283762,0.6954,-0.037332,-0.7027201,1.12,1.4875,-5.4075
939,283859,0.710284,-0.037332,-0.7019880000000001,0.875,1.3475,-6.195
940,283955,0.715408,-0.040504000000000005,-0.7019880000000001,0.8225,1.1025,-6.44
941,284051,0.7168720000000001,-0.038064,-0.7032079999999999,0.735,0.875,-6.9825
942,284147,0.7129681,-0.02806,-0.7027201,0.5425,0.2975,-7.56
943,284244,0.713212,-0.033428,-0.6954,0.35,-0.2275,-7.5775
944,284340,0.71614,-0.029768,-0.6973520000000001,0.2275,-0.8575,-7.7875
945,284436,0.706136,-0.039284,-0.696132,0.0175,-1.54,-8.1725
946,284532,0.697596,-0.045872,-0.7078439999999999,-0.35,-1.9075,-8.96
947,284629,0.699792,-0.045627999999999995,-0.71126,-0.7875,-1.645,-9.8
948,284725,0.698328,-0.042212,-0.71248,-1.1375,-1.12,-10.8325
949,284821,0.654408,-0.056852,-0.7256560000000001,-1.155,0.525,-12.18
950,284917,0.6563601,0.003172,-0.7705521,-2.4675,5.4425,-13.8425
951,285014,0.6795401,-0.010248,-0.73932,-1.4175,13.0375,-12.915
952,285110,0.671976,0.001952,-0.749324,-0.8400001,21.035,-11.48
953,285206,0.653432,0.0017079999999999999,-0.735904,0.63,30.0125,-9.6075
954,285302,0.641232,-0.022936,-0.7373681,2.8175,41.8425,-7.07
955,285399,0.625372,-0.027083999999999997,-0.735904,4.305,56.1575,-5.7225
956,285495,0.6182960999999999,-0.028304000000000003,-0.7373681,4.935,72.3625,-5.3375
957,285591,0.625128,-0.018788,-0.7515201,3.5,90.16001,-4.795
958,285687,0.659288,-0.005612,-0.784704,0.7175,106.26,-4.1475
959,285784,0.6263479999999999,-0.00488,-0.800808,-3.85,119.105,-3.6575
960,285880,0.6456241,-0.01342,-0.8244761,-9.5025,134.8025,-1.9425
961,285976,0.635864,-0.076616,-0.8486319999999999,-14.9275,151.97,0.5425
962,286073,1.145092,0.039528,-0.68808,-23.8525,174.3175,0.1575
963,286169,1.148264,-0.229848,-0.9015799999999999,-19.74,232.1725,-24.64
964,286265,0.9028,-0.12566,-1.0523719999999999,-39.3925,299.355,-59.99
965,286361,0.8862081,-0.064416,-1.000888,-41.4225,349.2825,-74.795
966,286458,0.72712,-0.043432,-1.0675,-45.43,388.465,-80.8675
967,286554,0.9818561,0.10345599999999999,-0.9318360000000001,-46.2525,399.0875,-78.0325
968,286650,1.1690040000000002,0.008296000999999999,-0.7556681,-40.3025,393.19,-60.9525
969,286746,1.266604,0.18446400000000002,-1.13094,-43.785,391.16,-52.29
970,286843,1.250256,0.031476,-0.9010921000000001,-32.305,361.725,-28.9275
971,286939,0.862784,-0.195444,-0.958432,-24.36,318.185,-2.5025
972,287035,1.4186159999999999,-0.228872,-0.835456,-53.9525,276.9725,-11.095
973,287131,2.8848119999999997,-0.273036,-1.636508,-60.3225,285.985,-15.75
974,287228,0.465308,0.26961999999999997,-2.318732,-57.89,239.925,-54.25
975,287324,2.830156,0.5975560000000001,-2.594452,-64.925,139.3175,-112.28
976,287420,1.7563119999999999,0.05636401,-2.5156400000000003,17.64,35.4725,-93.555
977,287516,-0.00122,-0.325252,-1.424716,45.4825,-82.4425,-82.9675
978,287613,-0.10858,-0.585112,-0.9964959999999999,53.8825,-99.9075,-91.5425
979,287709,0.3294,-0.6283,-1.025288,39.3225,-95.445,-89.79251
980,287805,0.619028,-0.69052,-1.06994,18.445,-104.8075,-65.6425
981,287902,0.680028,-0.6409881,-1.088484,-1.225,-136.36,-29.75
982,287998,0.468236,-0.47702,-0.975024,-19.4425,-173.355,2.205
983,288094,0.311832,-0.249856,-0.8310639999999999,-30.485,-200.2525,23.45
984,288190,0.278648,-0.031964,-0.729804,-30.0475,-215.2675,34.79
985,288287,0.292556,0.101016,-0.701012,-18.1825,-224.245,39.06
986,288383,0.334524,0.15738,-0.666852,-3.1325,-231.0175,35.595
987,288479,0.360388,0.17934,-0.6456241,10.185,-237.44,26.0925
988,288575,0.416264,0.204228,-0.642452,20.9125,-242.025,15.365
989,288672,0.543876,0.228872,-0.670268,31.3075,-244.86,6.895
990,288768,0.7139439999999999,0.193004,-0.6709999999999999,42.5425,-248.2725,1.4
991,288864,0.797148,0.09345201,-0.6319600000000001,49.9275,-253.8375,-1.365
992,288960,0.8613200000000001,0.018056,-0.6202479999999999,47.7575,-259.035,-2.4675
993,289057,0.9118280000000001,0.005368,-0.665876,38.465,-262.955,-1.155
994,289153,0.990884,0.091988,-0.7639640999999999,29.6625,-266.0,3.4825
995,289249,1.111664,0.231312,-0.9093880999999999,28.2275,-271.4425,11.4975
996,289345,1.22122,0.35136,-1.009184,37.45,-279.9825,21.7525
997,289442,1.307108,0.417728,-1.072136,51.5025,-290.465,29.0675
998,289538,1.4215440000000001,0.414312,-1.067744,62.4925,-300.615,28.9275
999,289634,1.50304,0.413092,-1.045052,65.15250999999999,-308.7,21.0525
1000,289730,1.581364,0.484584,-1.005036,61.88,-311.5875,8.645
1001,289827,1.688968,0.58804,-0.9254921,62.5625,-307.1075,-1.855
1002,289923,1.777052,0.6392800000000001,-0.798856,72.03,-294.6825,-7.91
1003,290019,1.7985240000000002,0.594384,-0.61854,84.35,-274.5575,-10.43
1004,290115,1.8243880000000001,0.5011760000000001,-0.45457200000000003,91.175,-245.56,-11.0425
1005,290212,2.0169040000000003,0.42456000000000005,-0.343796,90.02,-211.855,-8.575
1006,290308,2.31556,0.323788,-0.194712,85.75,-186.585,-1.365
1007,290404,2.195268,0.145424,0.151524,76.44001,-177.03,8.6975
1008,290500,1.9778639999999998,0.064416,0.590724,60.48,-167.825,14.4375
1009,290597,2.033252,0.33428,0.7539600000000001,46.2175,-145.4075,15.645
1010,290693,2.120604,0.656848,0.8815719999999999,56.1225,-118.895,22.05
1011,290789,1.946632,0.43651599999999996,1.238544,86.625,-93.1,35.2975
1012,290886,1.728984,0.12468399999999999,1.490108,86.4325,-62.1425,33.425
1013,290982,1.672132,-0.005612,1.4422840000000001,44.555,-24.0975,15.505
1014,291078,1.711416,0.07978801,1.103856,-6.6325,12.8975,-0.9275
1015,291174,1.493524,0.241804,1.0147959999999998,-43.54,58.59,-22.2425
1016,291271,0.084912,-0.131272,-0.7890961,-62.7725,149.765,-51.0825
1017,291367,0.65758,0.134688,-1.968592,-48.09,201.11,-41.16
1018,291463,1.676768,0.40504,-0.758108,-40.775,213.745,1.4
1019,291559,1.624064,0.501908,-0.9057280999999999,-8.19,207.5325,29.2075
1020,291656,1.39202,0.6722199999999999,-1.402512,-7.9625,181.9125,12.8975
1021,291752,1.098976,0.212524,-0.9828321,4.9525,154.805,-4.2
1022,291848,1.0919,-0.2135,-0.8805960999999999,14.595,141.82,-1.33
1023,291944,0.9860040999999999,-0.23911999999999997,-0.800076,8.4,128.4675,5.5125
1024,292041,0.833016,0.11614400000000001,-0.81984,2.485,117.32,12.39
1025,292137,0.763232,0.25961599999999996,-0.8315520000000001,5.3375,108.465,10.15
1026,292233,0.833992,-0.081252,-0.7761640999999999,16.52,102.515,5.6175
1027,292329,2.198684,-0.8376520000000001,-1.08092,11.2525,91.7525,5.3725
1028,292426,0.85034,-0.180072,-0.6375721,-24.3075,45.115,4.48
1029,292522,0.71248,0.271816,-0.9774639999999999,-36.05,30.45,-9.625
1030,292618,0.8954801,-0.022692,-0.7259001,-22.0675,30.835,-10.3075
1031,292715,0.781044,-0.01952,-0.776408,-17.1325,23.66,-9.905
1032,292811,0.7356600000000001,0.046116000000000004,-0.785924,-15.6625,19.0225,-9.7475
1033,292907,0.7388319999999999,0.03416,-0.783972,-10.395,15.3825,-7.945
1034,293003,0.7129681,0.041968,-0.762744,-6.72,12.11,-6.5275
1035,293100,0.731024,0.027327999999999998,-0.762744,-2.5725,10.3425,-3.675
1036,293196,0.7137001000000001,-0.0061,-0.753472,0.105,9.3975,-2.205
1037,293292,0.719312,-0.014884,-0.7288279999999999,2.6775,9.03,-1.7325
1038,293389,0.7315119999999999,-0.017812,-0.7241920000000001,3.4125,7.8575,-1.7675
1039,293485,0.7200439999999999,-0.010736,-0.7198,3.0625,6.4225,-1.9775
1040,293581,0.718824,-0.017324000000000003,-0.718824,3.535,5.46,-2.17
1041,293677,0.707356,-0.036356,-0.7141881,3.325,4.69,-2.275
1042,293774,0.7046720999999999,-0.050996,-0.7117479999999999,2.8175,4.1125,-3.01
1043,293870,0.704916,-0.047824,-0.7078439999999999,1.9425,3.535,-3.7975
1044,293966,0.705404,-0.030256,-0.7068681,1.5575,3.0975,-4.655
1045,294062,0.7044279999999999,-0.03172,-0.7068681,1.225,2.5375,-4.9525
1046,294159,0.712724,-0.023668,-0.6993041,1.015,2.1875,-5.1275
1047,294255,0.702964,-0.022936,-0.7137001000000001,0.9625,1.7675,-5.145
1048,294351,0.721264,-0.029524,-0.7017439999999999,0.665,1.19,-5.53
1049,294448,0.72346,-0.030987999999999998,-0.70028,0.49,-0.0525,-5.9325
1050,294544,0.7134560999999999,-0.035136,-0.6856399999999999,0.175,-1.3125,-6.51
1051,294640,0.6980841,-0.030744,-0.705892,0.0,-2.2225,-7.42
1052,294736,0.6722199999999999,-0.031964,-0.721996,0.42,-2.345,-7.945
1053,294833,0.68686,-0.023668,-0.7129681,0.8575,-1.4175,-8.6275
1054,294929,0.692472,-0.026351999999999997,-0.709064,1.505,-0.735,-9.135
1055,295025,0.6980841,-0.020496,-0.7137001000000001,1.575,-0.6475,-9.2575
1056,295121,0.703696,-0.0244,-0.709064,1.9075,-0.42,-9.415
1057,295218,0.702476,-0.018788,-0.708088,1.8025,-0.4725,-10.115
1058,295314,0.7088201,-0.0244,-0.7034521,1.925,-1.05,-10.6225
1059,295410,0.709064,-0.014884,-0.706136,1.505,-1.75,-11.13
1060,295507,0.715408,-0.011712,-0.707356,1.54,-2.2225,-11.2525
1061,295603,0.704916,-0.011224,-0.7105279999999999,1.225,-2.73,-11.2175
1062,295699,0.707356,-0.023912,-0.710284,0.875,-2.8,-11.1475
1063,295795,0.69784,-0.026108,-0.7117479999999999,0.1225,-2.4325,-11.41
1064,295892,0.698328,-0.022692,-0.72102,-0.4725,-1.645,-12.2675
1065,295988,0.6902761,-0.017812,-0.720532,-1.365,-0.07,-12.635
1066,296084,0.706624,-0.005612,-0.714432,-2.065,2.2575,-12.425
1067,296181,0.700036,0.025131999999999998,-0.725168,-2.415,4.6025,-11.1125
1068,296277,0.654408,0.03782,-0.78446,0.1225,8.295,-8.75
1069,296373,0.663192,0.069784,-0.8420440999999999,2.1525,18.655,-7.56
1070,296469,0.6763680000000001,-0.024888,-0.762744,-1.05,32.8125,-8.155
1071,296566,0.663924,-0.002928,-0.743468,-0.665,44.275,-8.8725
1072,296662,0.653676,-0.013908000000000002,-0.7381001,1.365,56.8225,-9.2925
1073,296758,0.630984,0.002928,-0.7217521,1.5225,71.68,-9.345
1074,296854,0.579012,0.0183,-0.735904,2.2225,92.0325,-8.3125
1075,296951,0.541924,0.004148001,-0.773724,3.395,117.7925,-6.1075
1076,297047,0.562664,-0.016104,-0.87108,0.63,146.1075,-4.935
1077,297143,0.570716,-0.07564,-0.88328,-9.6425,169.82,-9.4325
1078,297239,0.5753520000000001,-0.09345201,-0.89792,-21.315,192.92,-16.87
1079,297336,0.776896,-0.061732,-0.821304,-30.4675,221.4275,-22.575
1080,297432,1.3205280000000001,-0.4023561,-0.9684360999999999,-26.81,287.385,-53.5675
1081,297528,0.9869800999999999,-0.223992,-1.0919,-45.64,367.0975,-104.965
1082,297624,0.803736,-0.129076,-1.1995040000000001,-58.17,405.3875,-128.24
1083,297721,1.2219520000000001,-0.059536,-0.87474,-66.15,405.125,-122.2725
1084,297817,1.2463520000000001,0.063684,-0.9406200000000001,-68.11,402.3425,-115.745
1085,297913,1.1995040000000001,0.171044,-0.925736,-51.1875,381.78,-99.9425
1086,298010,0.9152440000000001,-0.086864,-0.892308,-30.065,327.53,-74.8125
1087,298106,0.927932,-0.058803999999999995,-0.758596,-40.565,279.23,-64.155
1088,298202,2.241384,-0.063684,-1.146556,-49.14,293.23,-60.2875
1089,298298,1.448872,-0.063928,-1.66652,-28.5775,310.275,-84.08751
1090,298395,1.134844,0.53192,-1.48596,-28.0875,222.355,-118.6675
1091,298491,2.977776,0.266204,-3.1234439999999997,6.8075,116.025,-136.6575
1092,298587,1.023824,-0.342088,-1.8470799999999998,69.0025,-25.3925,-97.21251
1093,298683,-0.184952,-0.7793359999999999,-1.068476,74.4275,-102.9175,-86.45
1094,298780,-0.101748,-0.839116,-0.744444,54.635,-108.43,-79.0475
1095,298876,0.17519200000000001,-0.837408,-0.7788480999999999,21.6125,-98.875,-58.4675
1096,298972,0.463844,-0.6956439999999999,-0.919392,-5.075,-102.3225,-24.22
1097,299068,0.560956,-0.52094,-1.010404,-14.315,-125.02,17.045
1098,299165,0.47555600000000003,-0.37112399999999995,-0.97478,-12.845,-155.0675,54.7575
1099,299261,0.424072,-0.21594000000000002,-0.8940161,-6.9475,-181.265,80.8325
1100,299357,0.409432,-0.079056,-0.801784,-0.8575,-202.16,92.78501
1101,299454,0.417972,0.033672,-0.7239479999999999,5.0225,-218.645,92.0675
1102,299550,0.437004,0.127368,-0.6810039999999999,10.36,-231.315,82.285
1103,299646,0.49824799999999997,0.228384,-0.6893,16.45,-239.7675,68.53
1104,299742,0.604144,0.312564,-0.7166279999999999,26.005,-245.9975,54.8975
1105,299839,0.7141881,0.316224,-0.7171161,39.9525,-252.0875,43.435
1106,299935,0.821792,0.23155599999999998,-0.7044279999999999,52.5525,-258.0375,34.5625
1107,300031,0.903532,0.132492,-0.6834439999999999,57.1025,-263.62,29.015
1108,300127,0.9652639999999999,0.09223200000000001,-0.6919841,53.27,-268.3625,26.915
1109,300224,1.0243120000000001,0.09150001,-0.742492,45.885,-270.4975,29.1025
1110,300320,1.101172,0.13176,-0.81862,39.7425,-271.1975,35.175
1111,300416,1.1660760000000001,0.264496,-0.9228081,37.38,-271.4425,44.31
1112,300512,1.277828,0.416508,-1.03578,44.135,-271.565,53.935
1113,300609,1.398852,0.48312,-1.145092,58.2575,-273.245,58.38
1114,300705,1.516948,0.51362,-1.194868,72.52,-277.0075,53.9
1115,300801,1.6635919999999997,0.571936,-1.198772,85.0675,-280.105,43.5225
1116,300898,1.7992560000000002,0.619028,-1.095072,99.40001,-279.44,31.36
1117,300994,1.9373599999999997,0.634156,-0.9486720999999999,114.7825,-273.77,20.23
1118,301090,2.0435,0.560956,-0.7476161,128.975,-263.55,12.25
1119,301186,2.0825400000000003,0.424804,-0.46848,135.6425,-250.1975,7.9275
1120,301283,2.074976,0.22496799999999997,-0.16835999999999998,128.5375,-234.43,5.2675
1121,301379,2.051552,0.044896,0.145912,108.4475,-217.14,2.6775
1122,301475,2.034472,0.008784,0.434808,79.52,-198.695,-0.035
1123,301571,1.9598080000000002,0.25424800000000003,0.63318,56.455,-177.7125,2.6775
1124,301668,1.945656,0.631228,0.8439959999999999,55.7025,-151.0075,16.45
1125,301764,1.8170680000000001,0.589504,1.096048,76.895,-118.755,39.585
1126,301860,1.7111720000000001,0.36356,1.367864,77.035,-82.005,50.8725
1127,301956,1.6030799999999998,0.24131599999999997,1.444968,37.135,-42.6475,43.365
1128,302053,1.5525719999999998,0.28938400000000003,1.258308,-18.935,-1.575,28.3675
1129,302149,1.460828,0.339648,0.849608,-59.6575,36.54,18.9525
1130,302245,1.18462,0.406504,1.242936,-100.24,85.61,-6.0725
1131,302341,0.556076,0.10638399999999999,-1.1770559999999999,-137.7425,150.7975,-45.2025
1132,302438,0.50508,0.5631520000000001,-2.040816,-114.17,170.6425,-36.8725
1133,302534,0.9386681,0.8927959999999999,-0.764696,-76.965,181.685,10.5175
1134,302630,1.535492,0.9120720999999999,-0.888648,-35.35,193.62,37.205
1135,302726,1.3703040000000002,0.8876719999999999,-1.288076,-18.13,172.76,16.555
1136,302823,1.130696,0.17934,-1.00894,3.465,147.105,-6.4225
1137,302919,1.135332,-0.44676400000000005,-0.812032,11.27,134.015,-3.255
1138,303015,1.019188,-0.372344,-0.754204,-1.6275,121.485,9.8175
1139,303111,0.8095920999999999,0.149084,-0.800076,-15.1025,108.6575,14.9975
1140,303208,0.665876,0.490684,-0.862784,-12.3025,100.835,11.2175
1141,303304,1.5967360000000002,-0.24936799999999998,-1.230248,4.7425,97.6675,7.2975
1142,303400,1.5079200000000001,-0.716384,-0.401868,-5.6875,58.1525,8.855
1143,303497,0.632448,0.263764,-0.981612,-35.6475,24.815,-9.6775
1144,303593,1.0084520000000001,0.134444,-0.820084,-23.3275,27.5625,-12.88
1145,303689,0.746396,-0.104432,-0.7239479999999999,-8.2775,20.7375,-12.4775
1146,303785,0.759328,0.044652,-0.775188,-14.14,15.6275,-13.3525
1147,303882,0.7266321,-0.039772,-0.759572,-12.3025,11.6025,-13.5625
1148,303978,0.719312,0.05002,-0.7671359999999999,-11.025,8.3125,-13.16
1149,304074,0.7017439999999999,0.024888,-0.755912,-8.435,6.1775,-10.9025
1150,304170,0.709064,0.017568,-0.7551800000000001,-6.2475,4.7775,-8.61
1151,304267,0.6917399999999999,0.018056,-0.74664,-4.725,3.8325,-6.79
1152,304363,0.7027201,-0.00122,-0.727608,-2.6775,3.9375,-5.95
1153,304459,0.71614,-0.016347999999999998,-0.69662,-3.08,2.8525,-6.0025
1154,304555,0.699548,-0.031476,-0.725412,-3.08,1.995,-6.3525
1155,304652,0.7168720000000001,-0.035136,-0.7178479999999999,-3.185,0.8925,-7.84
1156,304748,0.7027201,-0.020252000000000003,-0.711504,-3.2725,0.14,-8.8725
1157,304844,0.7015,-0.023180000000000003,-0.721508,-2.695,-0.28,-10.185
1158,304941,0.681492,0.001952,-0.7478600000000001,-2.59,-0.945,-11.1475
1159,305037,0.686128,0.007320001,-0.726144,-1.4875,-1.155,-11.2175
1160,305133,0.682712,0.009516001,-0.727364,-0.42,-0.98,-10.2725
1161,305229,0.7041841,-0.000488,-0.7129681,0.4375,-0.8225,-9.0125
1162,305326,0.6885680999999999,-0.005368,-0.73688,1.89,-0.7875,-8.225
1163,305422,0.70394,-0.002196,-0.6946681,2.975,-0.8925,-7.455
1164,305518,0.69662,0.0061,-0.710284,3.7975,-0.805,-6.8075
1165,305614,0.701012,0.000732,-0.720288,4.2175,-1.1375,-6.72
1166,305711,0.7141881,-0.008052001,-0.701012,4.06,-1.435,-6.44
1167,305807,0.7056479999999999,-0.003172,-0.705404,3.6925,-2.1525,-6.3175
1168,305903,0.685884,0.016104,-0.71736,3.9375,-2.6075,-6.02
1169,305999,0.686128,0.017568,-0.7171161,4.3925,-2.555,-5.46
1170,306096,0.684176,0.005612,-0.7239479999999999,5.2675,-1.47,-4.445
1171,306192,0.6902761,-0.006832001,-0.7266321,5.74,-0.105,-3.8675
1172,306288,0.6856399999999999,-0.006832001,-0.727608,5.6875,0.2625,-3.885
1173,306384,0.6958880000000001,-0.01098,-0.7190681,5.425,0.525,-4.48
1174,306481,0.6944241,-0.00244,-0.7166279999999999,4.8825,0.455,-5.11
1175,306577,0.700036,-0.006587999999999999,-0.7190681,4.41,0.2275,-5.8625
1176,306673,0.702232,-0.008296000999999999,-0.7141881,3.9025,0.315,-6.0725
1177,306770,0.700036,-0.006587999999999999,-0.715408,3.5175,0.7875,-6.1425
1178,306866,0.7078439999999999,-0.0061,-0.7129681,2.9575,1.1025,-6.0375
1179,306962,0.698816,-0.006344,-0.7156520000000001,2.5375,2.1,-5.7925
1180,307058,0.711992,-0.0051240009999999996,-0.7229720000000001,2.1175,3.64,-5.5475
1181,307155,0.6993041,0.006587999999999999,-0.7285841,1.9075,5.285,-5.075
1182,307251,0.614392,-0.011956,-0.781044,3.7275,7.98,-4.0075
1183,307347,0.6463561,0.01708,-0.769332,2.87,17.3425,-3.255
1184,307443,0.6661201,0.003904,-0.769332,3.395,28.7175,-2.7125
1185,307540,0.664168,0.00122,-0.753228,4.1125,38.9725,-2.835
1186,307636,0.64904,-0.020984,-0.741028,5.355,50.7675,-2.3625
1187,307732,0.624884,-0.022448,-0.7356600000000001,6.0375,64.925,-2.1
1188,307828,0.599264,-0.001464,-0.731268,5.3725,81.9875,-2.205
1189,307925,0.576328,0.007808001,-0.7390760000000001,5.18,102.2175,-2.275
1190,308021,0.5795,0.004392,-0.8042239999999999,2.7125,125.3,-2.17
1191,308117,0.583648,-0.012688,-0.853512,-5.32,145.25,-5.8625
1192,308213,0.574864,-0.09418401,-0.8669319999999999,-15.7325,164.4825,-11.9175
1193,308310,0.595604,-0.10223600000000001,-0.898652,-27.1425,188.5275,-17.465
1194,308406,2.054724,-0.18544000000000002,-0.8108121,-35.035,223.2125,-24.815
1195,308502,0.8927959999999999,-0.325008,-1.127524,-36.925,301.91,-69.0025
1196,308599,0.8540000000000001,-0.171044,-1.0201639999999998,-62.1075,368.585,-112.0875
1197,308695,0.907436,-0.10809200000000001,-1.141432,-71.6625,405.685,-123.13
1198,308791,1.1956,-0.025376,-0.9284200999999999,-79.7125,411.88,-115.0275
1199,308887,1.3237,0.157136,-0.9494040000000001,-75.18,412.79,-102.97
1200,308984,1.146556,0.284748,-0.985516,-57.085,392.735,-82.1975
1201,309080,0.8447280999999999,-0.049044,-0.9030440000000001,-30.73,346.3425,-49.5425
1202,309176,0.877668,-0.059536,-0.86864,-34.6675,302.855,-33.355
1203,309272,2.453664,-0.07198,-1.13704,-40.7925,301.525,-32.8825
1204,309369,1.7924240000000002,-0.14274,-1.7563119999999999,-11.5675,313.6875,-44.87
1205,309465,1.496208,0.18104800000000001,-0.9484280999999999,-23.3625,210.805,-87.9375
1206,309561,2.8652919999999997,0.180316,-3.035604,-10.1325,118.72,-112.3325
1207,309657,0.9555040000000001,-0.28426,-1.8656240000000002,38.605,-30.17,-76.195
1208,309754,-0.219356,-0.555588,-1.109712,44.8,-104.79,-72.975
1209,309850,-0.132492,-0.5724239999999999,-0.819108,37.87,-107.765,-75.3725
1210,309946,0.156648,-0.6168319999999999,-0.8249639999999999,23.1,-97.58,-63.3675
1211,310043,0.41577600000000003,-0.6097560000000001,-0.903532,9.45,-100.45,-33.6175
1212,310139,0.49580799999999997,-0.535092,-0.9730721,-0.4375,-122.3425,2.065
1213,310235,0.383812,-0.4148,-0.931348,-8.4175,-151.375,33.18
1214,310331,0.335012,-0.237168,-0.8666879999999999,-16.03,-175.945,53.1825
1215,310428,0.354288,-0.028792,-0.8142281,-18.7775,-196.4025,60.725
1216,310524,0.361608,0.138836,-0.7659161,-13.23,-213.85,59.0275
1217,310620,0.3843,0.248148,-0.735416,-0.3675,-227.36,51.205
1218,310716,0.4453,0.30402399999999996,-0.730536,15.8725,-237.3525,39.9175
1219,310813,0.542656,0.34281999999999996,-0.7473721,31.92,-245.665,27.335
1220,310909,0.6675840000000001,0.340868,-0.7468840999999999,47.635,-253.855,15.4
1221,311005,0.784704,0.268888,-0.7373681,61.5125,-262.4825,5.985
1222,311102,0.87108,0.161772,-0.70638,69.265,-270.6025,0.1225
1223,311198,0.955016,0.099552,-0.7107720000000001,68.65250999999999,-276.9375,-1.47
1224,311294,1.030168,0.108824,-0.7732359999999999,63.8575,-281.505,1.785
1225,311390,1.152168,0.179096,-0.893284,61.32,-284.725,10.4125
1226,311487,1.300032,0.317932,-1.01748,65.59,-288.8725,23.24
1227,311583,1.4356959999999999,0.402844,-1.11386,77.3325,-295.8025,35.9275
1228,311679,1.543056,0.406748,-1.152168,89.7575,-305.0075,41.9825
1229,311775,1.580876,0.41846000000000005,-1.137772,94.16751,-313.95,39.8825
1230,311872,1.6745720000000002,0.5453399999999999,-1.1033680000000001,94.64,-317.205,31.885
1231,311968,1.837564,0.6756361,-1.0340719999999999,99.8025,-311.22,23.6425
1232,312064,2.071316,0.762988,-0.9516,113.12,-298.235,17.0975
1233,312160,2.1752599999999997,0.7442,-0.7141881,129.64,-284.0775,12.7925
1234,312257,2.134512,0.582916,-0.37112399999999995,139.5975,-265.02,10.0275
1235,312353,2.067656,0.33379200000000003,0.014396,135.555,-238.595,8.3825
1236,312449,2.133292,0.01464,0.34281999999999996,115.5175,-208.1625,5.985
1237,312546,2.248704,-0.060512,0.554856,85.89,-181.265,4.2175
1238,312642,2.154276,0.245464,0.709796,64.4875,-159.95,7.105
1239,312738,1.990552,0.604144,0.927688,74.095,-135.695,18.095
1240,312834,1.801452,0.536068,1.2322,105.7175,-101.6225,35.315
1241,312931,1.768268,0.336964,1.3834799999999998,106.9425,-61.7225,40.95
1242,313027,1.725568,0.17812,1.401292,65.905,-24.7275,33.285
1243,313123,1.6445599999999998,0.186416,1.2197559999999998,4.62,9.59,23.24
1244,313219,1.611132,0.285724,0.967216,-42.8575,42.035,18.795
1245,313316,1.340292,0.09394001,0.542656,-60.9875,72.45,24.8675
1246,313412,0.328424,-0.694912,-1.048468,-102.865,105.805,13.09
1247,313508,-0.014152000000000001,-0.13298,-2.185264,-160.0025,136.675,-3.15
1248,313604,-0.07588400000000001,0.8464360000000001,-0.7556681,-129.1675,175.875,45.2375
1249,313701,1.791936,1.3066200000000001,-0.9318360000000001,-95.48,215.74,76.0025
1250,313797,1.464488,1.463756,-1.146312,-55.125,196.9275,66.5
1251,313893,1.0248,1.111908,-1.240984,-26.915,167.0025,14.455
1252,313990,1.24684,0.107116,-0.996008,-3.6575,152.04,-17.1325
1253,314086,1.1209360000000002,-0.48702399999999996,-0.701256,6.2125,138.2675,-2.0125
1254,314182,0.897432,-0.039772,-0.772992,-10.5525,124.6175,11.3925
1255,314278,0.6688041,0.340868,-0.8025161,-19.53,113.61,5.565
1256,314375,0.950868,-0.017324000000000003,-0.9716081,-10.5,110.985,-3.4825
1257,314471,2.322636,-0.917684,-0.605608,-17.5175,80.0975,-0.735
1258,314567,0.96014,0.290848,-1.14314,-49.7875,27.4925,-19.32
1259,314663,0.5753520000000001,0.145424,-0.671244,-29.6975,29.0325,-23.17
1260,314760,0.784704,-0.06661201,-0.766892,-8.0325,28.2975,-16.3975
1261,314856,0.7661600000000001,0.12932000000000002,-0.780312,-9.695,22.2775,-13.895
1262,314952,0.759084,0.020496,-0.7522521,-2.03,18.06,-8.8375
1263,315049,0.6810039999999999,0.055388,-0.785192,-0.28,11.2,-7.21
1264,315145,0.6661201,0.058803999999999995,-0.768844,2.6775,9.485,-5.6525
1265,315241,0.7166279999999999,-0.017812,-0.7266321,5.39,9.905,-3.15
1266,315337,0.7329760000000001,-0.01098,-0.724436,4.9875,9.135,-2.415
1267,315434,0.7378560000000001,-0.03172,-0.704916,4.4975,8.225,-2.415
1268,315530,0.72102,-0.045872,-0.687348,3.8675,6.965,-3.57
1269,315626,0.714432,-0.031964,-0.693204,2.625,5.1275,-5.7575
1270,315722,0.67832,-0.014396,-0.7256560000000001,1.855,3.36,-6.72
1271,315819,0.6688041,-0.006344,-0.735172,1.925,2.2225,-7.595
1272,315915,0.671488,0.001464,-0.735904,1.5225,1.1375,-8.155
1273,316011,0.701256,-0.005612,-0.7139439999999999,1.365,0.63,-8.2775
1274,316108,0.714676,-0.003904,-0.7141881,1.26,0.35,-8.085
1275,316204,0.7239479999999999,-0.004636001,-0.688812,1.295,0.42,-7.07
1276,316300,0.7095520000000001,0.007076001,-0.718092,1.6625,0.665,-6.09
1277,316396,0.7237041,-0.006344,-0.690764,2.0825,0.7,-5.355
1278,316493,0.7015,-0.000732,-0.710284,2.2925,1.085,-4.62
1279,316589,0.705404,-0.014396,-0.7068681,2.0825,1.225,-3.745
1280,316685,0.727608,-0.012688,-0.7019880000000001,2.2925,1.225,-4.27
1281,316781,0.705404,-0.009028000999999999,-0.7017439999999999,2.3625,1.2075,-4.095
1282,316878,0.703696,-0.002196,-0.707112,2.0475,0.91,-3.8325
1283,316974,0.72224,0.000976,-0.697596,2.8175,0.77,-4.4975
1284,317070,0.693448,-0.003172,-0.72102,2.975,0.2275,-3.85
1285,317166,0.71248,-0.001464,-0.6958880000000001,3.43,-0.2625,-3.955
1286,317263,0.712724,-0.007076001,-0.708576,3.325,-0.8925,-3.5175
1287,317359,0.7076001000000001,-0.010736,-0.7007680000000001,3.4475,-1.365,-3.5875
1288,317455,0.7107720000000001,-0.014396,-0.70516,3.2375,-1.575,-3.99
1289,317552,0.702232,-0.014884,-0.7034521,3.01,-1.6275,-4.1825
1290,317648,0.7015,-0.010492,-0.7078439999999999,3.01,-1.1725,-4.3575
1291,317744,0.695156,-0.0122,-0.7046720999999999,3.3775,-0.455,-4.2525
1292,317840,0.693204,-0.007320001,-0.721996,3.885,0.6475,-4.0775
1293,317937,0.667828,-0.045872,-0.7327321,5.005,2.8175,-4.025
1294,318033,0.6895439999999999,-0.015128,-0.7320001,3.115,6.72,-5.6525
1295,318129,0.68198,-0.009272001,-0.7176041,3.0275,11.2175,-6.475
1296,318225,0.681492,-0.005368,-0.71248,2.7825,15.54,-7.0175
1297,318322,0.6824680000000001,-0.0051240009999999996,-0.7227279999999999,2.695,20.79,-6.545
1298,318418,0.6822239999999999,-0.000732,-0.731268,3.15,27.615,-5.635
1299,318514,0.67466,-0.0017079999999999999,-0.733708,3.955,35.8575,-4.655
1300,318611,0.6566041,-0.010736,-0.7217521,4.6725,45.955,-3.9025
1301,318707,0.647332,-0.010004,-0.71248,4.725,58.205,-3.6225
1302,318803,0.639524,-0.013908000000000002,-0.709796,4.9,72.1525,-3.395
1303,318899,0.638304,-0.012931999999999999,-0.7117479999999999,4.3925,87.1675,-3.36
1304,318996,0.653676,0.022936,-0.7390760000000001,2.1,101.99,-3.955
1305,319092,0.67466,-0.00122,-0.754448,-2.45,113.7675,-5.6875
1306,319188,0.646112,-0.01098,-0.79056,-9.275,124.74,-6.4225
1307,319284,0.664168,-0.06954,-0.789828,-14.56,141.19,-6.2475
1308,319381,0.664412,-0.082472,-0.81252,-21.7525,160.5975,-8.3825
1309,319477,1.516216,-0.21618400000000002,-0.7041841,-20.0725,195.9825,-19.8275
1310,319573,0.8479,-0.190808,-0.9972281,-28.0875,263.4975,-59.115
1311,319669,0.8764481,-0.114924,-0.966728,-41.2125,315.6475,-83.545
1312,319766,0.8052,-0.09711201,-1.0262639999999998,-46.2525,353.395,-96.2325
1313,319862,0.92232,-0.05563200000000001,-1.005524,-55.0375,367.5,-98.735
1314,319958,1.1385040000000002,0.0366,-0.765428,-52.64,367.0975,-92.9775
1315,320054,1.444236,0.09540401,-1.140944,-47.8625,374.7275,-90.4575
1316,320151,1.079456,0.32866799999999996,-0.8901120000000001,-24.3075,344.7675,-67.6725
1317,320247,0.8998719999999999,-0.0732,-0.9191481,2.975,296.5725,-34.8075
1318,320343,1.22366,-0.039528,-0.853512,-1.5225,246.82,-21.4375
1319,320439,2.87798,-0.063928,-1.548912,-5.25,249.55,-31.7975
1320,320536,0.6280560000000001,0.5414359999999999,-2.310436,1.505,213.6225,-68.145
1321,320632,2.1413439999999997,0.6688041,-1.895636,-2.17,116.2175,-139.9825
1322,320728,1.464,0.17397200000000002,-2.222352,66.8675,48.0375,-150.675
1323,320824,0.122,-0.387472,-1.249036,103.0925,-50.085,-138.7575
1324,320921,-0.022936,-0.8100801,-0.775676,100.1175,-62.8425,-135.625
1325,321017,0.37112399999999995,-0.91012,-0.8315520000000001,65.065,-57.8725,-113.5575
1326,321113,0.556076,-0.865468,-0.9235399999999999,24.115,-67.9875,-72.4675
1327,321209,0.559004,-0.7078439999999999,-0.989664,-3.64,-95.1825,-22.89
1328,321306,0.41382399999999997,-0.47677600000000003,-0.922076,-19.4075,-125.5275,21.7875
1329,321402,0.322812,-0.259372,-0.8398479999999999,-24.4125,-149.1,54.425
1330,321498,0.323788,-0.03416,-0.789828,-22.75,-167.16,70.6825
1331,321595,0.319396,0.14566800000000002,-0.756644,-14.8575,-182.91,71.9425
1332,321691,0.354044,0.278648,-0.7449321,-2.9925,-196.9975,59.885
1333,321787,0.42626800000000004,0.36356,-0.74542,11.62,-209.51,39.8125
1334,321883,0.52704,0.411872,-0.745664,29.575,-221.2175,18.97
1335,321980,0.6375721,0.40626,-0.7266321,49.98,-231.8925,2.03
1336,322076,0.750788,0.325008,-0.6673399999999999,69.615,-241.0975,-10.4125
1337,322172,0.845216,0.178852,-0.6021920000000001,83.2825,-248.43,-18.0425
1338,322268,0.8957241,0.040016,-0.5577840000000001,86.66,-252.945,-19.39
1339,322365,0.9525761,-0.03294,-0.5653481,80.955,-253.995,-13.4575
1340,322461,1.031144,0.030987999999999998,-0.64172,72.38,-252.945,-0.7525
1341,322557,1.117764,0.211304,-0.73688,71.1025,-251.405,16.205
1342,322653,1.2056040000000001,0.377712,-0.809836,83.2125,-249.2875,32.76
1343,322750,1.306132,0.418216,-0.8081281,102.55,-246.8375,42.175
1344,322846,1.436428,0.40357600000000005,-0.8052,115.7275,-245.875,39.6025
1345,322942,1.5074319999999999,0.46896800000000005,-0.785924,119.0525,-245.7,27.4575
1346,323038,1.563064,0.591212,-0.743224,123.3575,-242.305,14.245
1347,323135,1.5921,0.682956,-0.6588,136.395,-232.0675,6.09
1348,323231,1.5889280000000001,0.7195560000000001,-0.516304,155.365,-214.97,2.31
1349,323327,1.63968,0.7539600000000001,-0.388204,171.6575,-191.17,0.6825
1350,323424,1.73606,0.786412,-0.305,182.21,-165.34,-1.2775
1351,323520,1.71776,0.737124,-0.178852,188.1775,-144.8825,-7.945
1352,323616,1.7463080000000002,0.7007680000000001,-0.087352,185.92,-127.05,-16.2225
1353,323712,1.8605,0.626104,-0.029524,180.4775,-112.6475,-21.9275
1354,323809,1.843664,0.523868,0.13054000000000002,171.4475,-106.68,-26.04
1355,323905,1.719956,0.395036,0.37454,158.62,-102.8825,-28.7
1356,324001,1.6145479999999999,0.309636,0.542412,140.8575,-92.575,-30.9575
1357,324097,1.685552,0.34038,0.6980841,121.87,-75.985,-31.0275
1358,324194,1.6867720000000002,0.317444,0.769576,108.8325,-57.4875,-22.5225
1359,324290,1.58112,0.23253200000000002,0.8447280999999999,94.5,-39.97,-8.7675
1360,324386,1.4964520000000001,0.17397200000000002,0.8520479999999999,68.565,-19.25,7.0875
1361,324482,1.27368,-0.06124401,0.734196,32.5325,3.9725,22.4175
1362,324579,1.326384,-0.277672,1.204628,-56.8575,39.2,12.355
1363,324675,0.8256960999999999,0.718824,-0.349164,-192.395,77.2975,-23.7475
1364,324771,0.7951961,-0.463844,-1.8407360000000001,-154.525,87.0625,-7.105
1365,324867,-0.199104,0.563396,-1.4518,-164.185,67.025,-9.9575
1366,324964,0.567788,1.815848,-0.9803921,-138.145,94.01,-13.3525
1367,325060,1.199992,1.72508,-1.161684,-74.3925,117.46,-12.355
1368,325156,1.094584,0.748104,-1.097756,-27.02,99.54,-43.085
1369,325252,1.072868,-0.55998,-0.726144,0.6825,87.90250999999999,-42.105
1370,325349,0.9106081,-0.5192319999999999,-0.632204,-14.7175,78.505,-21.0
1371,325445,0.6514800000000001,0.251808,-0.800808,-35.385,71.5575,-8.2075
1372,325541,0.6182960999999999,0.375272,-0.8727879999999999,-30.6425,69.72,-13.125
1373,325638,1.896612,-0.650016,-0.8049561,-23.1,57.82,-17.0275
1374,325734,0.628544,-0.048556,-0.720776,-43.715,20.8775,-21.2625
1375,325830,0.9140241,0.48312,-0.957944,-45.0625,21.77,-27.1775
1376,325926,0.8642481,-0.074664,-0.7673800000000001,-13.1075,19.1975,-19.74
1377,326023,0.7166279999999999,0.104432,-0.791048,-9.3275,17.01,-15.0675
1378,326119,0.742004,0.08466801,-0.775676,-5.39,13.6675,-13.37
1379,326215,0.7171161,0.07686,-0.7712840999999999,-0.14,10.36,-9.6075
1380,326311,0.696376,0.06588,-0.759084,2.9225,7.6475,-6.4925
1381,326408,0.687348,0.035136,-0.750788,5.635,7.49,-2.625
1382,326504,0.709064,0.004636001,-0.746396,7.945,7.385,-0.21
1383,326600,0.702476,0.011956,-0.721508,9.0475,7.7875,1.5925
1384,326697,0.708576,-0.0034159999999999998,-0.720776,8.995,7.5075,1.9775
1385,326793,0.709064,-0.00976,-0.7217521,7.7875,6.265,1.5925
1386,326889,0.707356,-0.028792,-0.720532,7.1575,5.11,0.7875
1387,326985,0.7107720000000001,-0.027816000000000004,-0.7107720000000001,5.6175,3.3075,-0.9975
1388,327082,0.702964,-0.01586,-0.71736,4.235,1.96,-2.2925
1389,327178,0.7178479999999999,-0.024156,-0.7093081,3.71,0.6125,-3.6575
1390,327274,0.698328,-0.012688,-0.715164,2.7475,-0.315,-3.8675
1391,327370,0.70028,-0.005856,-0.7166279999999999,2.2575,-0.91,-4.375
1392,327467,0.711016,-0.01586,-0.71248,2.275,-1.575,-4.5325
1393,327563,0.700036,-0.004392,-0.7217521,1.6975,-1.9425,-4.305
1394,327659,0.706136,-0.006344,-0.7137001000000001,1.855,-2.555,-4.795
1395,327756,0.694912,-0.001464,-0.72224,1.4525,-2.765,-4.2875
1396,327852,0.705404,-0.009028000999999999,-0.71126,1.925,-3.29,-4.6725
1397,327948,0.6895439999999999,-0.007320001,-0.698816,1.61,-3.745,-4.445
1398,328044,0.678808,0.000976,-0.732244,1.8375,-3.8675,-4.2875
1399,328141,0.6912520000000001,-0.001952,-0.719312,1.995,-4.1475,-4.62
1400,328237,0.685396,-0.008296000999999999,-0.72346,1.89,-4.48,-4.6025
1401,328333,0.685884,-0.008784,-0.7134560999999999,2.0475,-4.7775,-4.6025
1402,328429,0.683932,-0.009516001,-0.714432,2.5375,-4.06,-4.2525
1403,328526,0.680028,0.002684,-0.721996,3.08,-3.3075,-4.025
1404,328622,0.6851520999999999,-0.0051240009999999996,-0.721996,3.885,-2.17,-3.4475
1405,328718,0.69052,-0.005368,-0.71858,3.78,-1.33,-3.3075
1406,328814,0.686128,-0.007076001,-0.7137001000000001,3.465,-1.015,-3.3775
1407,328911,0.6893,-0.005856,-0.7176041,3.2025,-0.6825,-3.745
1408,329007,0.690032,-0.011956,-0.715896,2.905,-0.5075,-4.0425
1409,329103,0.686372,-0.005612,-0.713212,2.7125,-0.3325,-4.2175
1410,329200,0.6946681,-0.010248,-0.718092,2.975,0.0525,-4.2
1411,329296,0.7005239999999999,-0.010736,-0.7137001000000001,3.0975,0.56,-4.2175
1412,329392,0.692472,-0.009272001,-0.708088,3.0975,0.945,-4.3925
1413,329488,0.693448,-0.005612,-0.7166279999999999,3.045,1.505,-4.34
1414,329585,0.698328,-0.006832001,-0.715408,2.905,2.31,-4.095
1415,329681,0.6980841,-0.010004,-0.7137001000000001,2.415,3.0625,-4.235
1416,329777,0.69784,-0.009516001,-0.7137001000000001,1.8025,3.85,-4.83
1417,329873,0.7007680000000001,-0.011712,-0.718824,1.2425,4.9525,-5.0925
1418,329970,0.699548,-0.016592,-0.7156520000000001,0.4375,6.335,-5.355
1419,330066,0.705892,-0.022448,-0.725412,-0.245,7.8225,-6.23
1420,330162,0.656848,0.017568,-0.7795801,-0.56,9.8175,-7.5425
1421,330258,0.6749041,0.006832001,-0.811056,0.91,16.905,-10.15
1422,330355,0.675148,-0.029524,-0.753228,-1.8375,27.0725,-13.86
1423,330451,0.671488,0.012688,-0.7515201,-2.7125,35.175,-15.575
1424,330547,0.625616,0.017568,-0.759084,-1.5925,45.8325,-15.19
1425,330644,0.559004,0.008784,-0.76982,0.315,64.8025,-13.5275
1426,330740,0.50264,-0.016347999999999998,-0.796904,4.1125,93.1875,-11.9525
1427,330836,0.47677600000000003,0.017568,-0.792512,3.955,126.7175,-14.4725
1428,330932,0.5221600000000001,-0.016104,-0.8574161,6.3875,164.1675,-23.2575
1429,331029,0.542412,-0.026108,-0.903532,6.265,195.16,-38.78
1430,331125,0.6512359999999999,-0.085888,-0.9247601000000001,10.2025,224.805,-58.1
1431,331221,2.01056,-0.248148,-0.817156,23.2925,264.95,-84.33249
1432,331317,0.8459479999999999,-0.473116,-1.0760399999999999,34.86,339.9725,-133.91
1433,331414,0.9352520000000001,-0.386252,-1.066768,32.9875,379.8375,-162.0325
1434,331510,1.130696,-0.028548,-0.912316,39.8125,374.0275,-163.4325
1435,331606,1.166564,0.027083999999999997,-0.7178479999999999,52.8675,365.3825,-157.9025
1436,331702,1.1468,0.16835999999999998,-0.764452,77.6825,350.735,-137.48
1437,331799,0.8378960999999999,0.028304000000000003,-0.69906,110.39,314.335,-108.36
1438,331895,0.798856,0.295484,-0.479216,108.9725,264.8975,-104.4225
1439,331991,1.740452,0.349408,-0.78446,106.12,256.3575,-103.1275
1440,332088,1.752652,0.33671999999999996,-1.321016,136.9725,262.64,-88.935
1441,332184,0.9950319999999999,-0.30182800000000004,-1.67628,156.1,210.9275,-96.81
1442,332280,1.436672,0.198372,-1.625528,150.325,86.06501,-95.5675
1443,332376,1.487668,-0.39161999999999997,-2.006412,160.965,-5.7225,-75.4425
1444,332473,-0.041236,-0.6573359999999999,-0.9950319999999999,141.2075,-101.4825,-45.7625
1445,332569,-0.07978801,-0.549244,-0.7068681,112.8925,-118.9125,-20.37
1446,332665,0.162748,-0.24082800000000001,-0.7239479999999999,85.55751,-112.49,16.31
1447,332761,0.273524,0.016104,-0.860344,77.28,-110.4425,55.4225
1448,332858,0.339648,0.203252,-0.9250040999999999,82.285,-123.06,83.9825
1449,332954,0.278648,0.425048,-0.874252,83.265,-144.6375,87.53501
1450,333050,0.242292,0.73932,-0.818376,82.705,-163.275,68.95
1451,333147,0.27205999999999997,1.016504,-0.800808,93.1875,-174.405,39.585
1452,333243,0.34038,1.1455799999999998,-0.7991,118.09,-180.285,5.81
1453,333339,0.458476,1.121668,-0.782752,148.575,-184.975,-28.7875
1454,333435,0.580476,1.0140639999999999,-0.733952,173.4075,-191.4675,-62.4575
1455,333532,0.666852,0.8906,-0.662948,190.05,-198.59,-90.59751
1456,333628,0.7278521,0.765184,-0.596336,201.0225,-202.58,-106.82
1457,333724,0.7666480999999999,0.687592,-0.56852,207.8125,-202.37,-109.7075
1458,333820,0.794952,0.6919841,-0.568276,211.1725,-199.15,-104.195
1459,333917,0.8195960999999999,0.7551800000000001,-0.593896,212.59,-193.6725,-97.6325
1460,334013,0.8581479999999999,0.8701040000000001,-0.628788,214.3225,-186.6725,-95.34
1461,334109,0.891576,0.9764879999999999,-0.652944,220.3425,-178.325,-98.07
1462,334206,1.005768,1.0060120000000001,-0.6785640000000001,231.56,-167.9125,-103.915
1463,334302,1.119472,0.9857600000000001,-0.674172,243.285,-159.075,-109.9175
1464,334398,1.1829120000000002,0.9059721,-0.6158561,252.105,-153.0025,-113.3825
1465,334494,1.186572,0.83936,-0.52704,255.2725,-145.5125,-111.2125
1466,334591,1.199016,0.7869,-0.48214399999999996,253.7325,-133.6125,-101.185
1467,334687,1.231956,0.75884,-0.47067600000000004,246.855,-120.155,-86.7825
1468,334783,1.258308,0.777872,-0.45628,234.92,-109.2525,-75.145
1469,334879,1.2456200000000002,0.821304,-0.41236000000000006,220.36,-101.3075,-68.95
1470,334976,1.236348,0.9106081,-0.36112,205.2925,-94.2725,-67.8825
1471,335072,1.2944200000000001,0.9918600000000001,-0.32403200000000004,192.5175,-87.36,-70.42
1472,335168,1.322724,1.033584,-0.266936,181.9825,-84.15751,-77.0
1473,335264,1.311988,1.066768,-0.192272,171.78,-83.5625,-87.4125
1474,335361,1.278316,1.048224,-0.10223600000000001,161.665,-82.495,-99.05001
1475,335457,1.2395200000000002,0.9857600000000001,-0.027327999999999998,150.465,-79.135,-110.1275
1476,335553,1.251476,0.8276481,0.028548,137.5675,-73.3775,-118.475
1477,335650,1.2578200000000002,0.48848800000000003,0.13639600000000002,120.5225,-68.355,-124.0575
1478,335746,1.27124,0.166164,0.234972,95.165,-63.8575,-130.2
1479,335842,1.291736,0.001952,0.28304,68.95,-54.145,-129.6925
1480,335938,1.335412,-0.08296,0.290116,56.455,-38.7625,-109.655
1481,336035,1.292224,-1.017724,0.93086,47.215,-17.4125,-79.87
1482,336131,0.499712,-0.205936,0.407724,-37.555,21.9625,-84.1225
1483,336227,1.32492,-0.409188,-1.413248,-30.5025,55.8075,-58.9225
1484,336323,0.7922680000000001,-0.5309441,-1.09556,-23.555,56.35,-15.9425
1485,336420,1.100196,0.054167999999999994,-0.8020281,-39.515,60.5675,-8.6625
1486,336516,1.207068,0.41406800000000005,-0.953308,-44.66,52.7275,-6.405
1487,336612,0.609024,0.35526399999999997,-0.8418,-33.2675,33.5825,-1.3125
1488,336708,0.5307,0.22277199999999997,-0.8169121,-23.5725,30.9225,-7.8225
1489,336805,0.6422081000000001,0.008784,-0.7229720000000001,-17.3075,34.8775,-9.94
1490,336901,0.767868,-0.16689600000000002,-0.7093081,-16.8,34.5275,-9.3975
1491,336997,0.7722600000000001,-0.19642,-0.6939361,-22.6625,29.575,-11.6725
1492,337093,0.54656,0.256444,-0.7198,-30.555,24.5525,-13.615
1493,337190,0.42333999999999994,0.462136,-0.7754321,-26.635,27.65,-12.495
1494,337286,1.291248,-0.02562,-1.200236,-8.2425,34.7375,-18.445
1495,337382,0.908168,-0.484584,-0.552172,-2.0475,14.5425,-10.6225
1496,337478,0.758352,0.09735601,-0.7956840999999999,-22.7325,-0.63,-19.8275
1497,337575,0.678076,0.111508,-0.7832399999999999,-15.5925,-0.07,-20.93
1498,337671,0.750788,0.031476,-0.7407841,-7.6125,2.1,-17.15
1499,337767,0.697596,0.073688,-0.764208,-7.245,-0.245,-15.505
1500,337863,0.7046720999999999,0.08784,-0.7571321,-6.0375,-1.61,-14.175
1501,337960,0.6944241,0.077836,-0.755912,-3.885,-1.8725,-11.4625
1502,338056,0.7017439999999999,0.054412,-0.74298,-2.03,-2.3275,-8.9425
1503,338152,0.6912520000000001,0.061488,-0.748592,-0.5775,-1.8725,-6.7725
1504,338248,0.711016,0.016836,-0.7381001,0.5075,-2.52,-5.915
1505,338345,0.678808,0.048068,-0.747128,-0.14,-2.7825,-5.005
1506,338441,0.702964,0.00488,-0.7390760000000001,0.1225,-3.5175,-5.81
1507,338537,0.6795401,0.043676,-0.738344,-0.42,-3.6925,-5.25
1508,338633,0.7088201,-0.000732,-0.742004,0.315,-4.3225,-5.7925
1509,338730,0.67588,0.027572000000000003,-0.734196,-0.5425,-4.375,-5.2325
1510,338826,0.684176,0.013908000000000002,-0.6939361,-0.1575,-4.62,-5.67
1511,338922,0.674172,0.02562,-0.7327321,0.49,-4.235,-4.8825
1512,339018,0.659532,0.02806,-0.7378560000000001,0.105,-4.1125,-4.34
1513,339115,0.6729520999999999,0.029524,-0.7361481,0.8575,-3.5175,-3.9025
1514,339211,0.677588,0.031476,-0.7285841,1.54,-3.3775,-3.1675
1515,339307,0.6351319999999999,0.068076,-0.7793359999999999,1.855,-3.5175,-2.8175
1516,339403,0.6749041,0.018544,-0.733464,2.8525,-3.71,-3.01
1517,339500,0.671244,0.01952,-0.7332201,1.8725,-3.29,-2.3975
1518,339596,0.674416,0.017324000000000003,-0.7332201,2.4325,-3.29,-2.31
1519,339692,0.661972,0.01098,-0.72712,2.8,-3.535,-2.5025
1520,339788,0.667828,0.018788,-0.73444,3.78,-3.4125,-2.5375
1521,339885,0.668316,0.017568,-0.733464,3.92,-3.15,-2.17
1522,339981,0.664412,0.022448,-0.736392,4.83,-3.01,-2.2575
1523,340077,0.684176,0.010248,-0.7417600000000001,6.02,-2.9925,-2.9575
1524,340173,0.669048,0.025863999999999998,-0.7332201,6.2125,-1.89,-2.135
1525,340270,0.6663640000000001,0.035136,-0.730292,6.4575,-1.2775,-1.8725
1526,340366,0.6878361,0.017568,-0.741028,7.5775,-0.77,-1.785
1527,340462,0.667096,0.036112,-0.7317560000000001,7.7875,0.6825,-0.5425
1528,340558,0.66856,0.037088,-0.733952,7.98,1.925,0.35
1529,340655,0.6673399999999999,0.031964,-0.735172,8.75,3.36,1.365
1530,340751,0.6771,0.003904,-0.70394,9.5725,4.6025,1.9775
1531,340847,0.676612,0.012931999999999999,-0.7259001,9.8,6.3175,2.5725
1532,340943,0.689056,-0.000244,-0.7320001,9.065,6.9125,2.9225
1533,341040,0.687592,-0.011224,-0.7285841,8.4,6.7725,2.5725
1534,341136,0.693448,-0.010248,-0.7241920000000001,7.2975,6.4575,1.4
1535,341232,0.691008,0.018788,-0.734928,6.2475,6.0025,0.1925
1536,341328,0.707356,-0.005612,-0.739808,5.8975,5.635,-1.295
1537,341425,0.6878361,-0.00244,-0.735904,4.7425,5.5825,-1.5925
1538,341521,0.6724640000000001,0.020252000000000003,-0.752008,3.9375,5.53,-2.24
1539,341617,0.6958880000000001,0.0034159999999999998,-0.720776,4.0775,5.88,-2.94
1540,341713,0.68198,-0.020496,-0.7046720999999999,3.185,5.565,-3.1325
1541,341810,0.6734399999999999,-0.006344,-0.733952,2.7475,5.845,-3.7975
1542,341906,0.683932,0.01342,-0.749568,2.94,6.4925,-4.7075
1543,342002,0.6810039999999999,-0.01708,-0.7178479999999999,3.045,7.3325,-5.88
1544,342098,0.656848,-0.025376,-0.70638,1.9425,8.7325,-7.3325
1545,342195,0.670512,-0.014884,-0.7361481,0.8400001,12.005,-9.6075
1546,342291,0.649528,0.021716,-0.777384,0.9625,18.5675,-10.115
1547,342387,0.639524,0.045384,-0.803248,4.0425,31.43,-8.7675
1548,342483,0.6124400999999999,0.008296000999999999,-0.789828,4.9875,44.17,-7.945
1549,342580,0.581208,0.016836,-0.7829961,5.5125,61.2675,-7.35
1550,342676,0.5614439999999999,0.007564001,-0.765184,8.0675,83.59751,-8.4175
1551,342772,0.51972,-0.014396,-0.771772,10.78,110.565,-12.075
1552,342868,0.5072760000000001,0.0305,-0.7893399999999999,9.275,141.2775,-19.9325
1553,342965,0.621712,-0.0122,-0.873276,9.695,171.99,-32.375
1554,343061,0.672708,-0.096868,-0.8508280999999999,14.07,192.0625,-50.12
1555,343157,0.755912,-0.171532,-0.8115439999999999,13.3525,209.2125,-69.3525
1556,343253,1.82024,-0.188124,-0.83814,12.88,233.45,-83.2825
1557,343350,0.942084,-0.273524,-0.9586761,22.61,280.4725,-110.8625
1558,343446,0.9142680000000001,-0.021716,-0.9772200999999999,18.515,304.5,-123.8475
1559,343542,0.9840521000000001,0.072712,-0.8596120999999999,32.27,303.4325,-107.7475
1560,343638,1.02968,0.10492,-0.65514,33.39,299.32,-98.0525
1561,343735,1.13582,0.20374,-0.8608319999999999,37.2575,300.545,-86.73
1562,343831,1.14314,0.09052401,-0.9882001,51.695,278.7925,-65.94
1563,343927,1.164368,0.171532,-0.681736,66.0975,227.8325,-48.055
1564,344023,2.0403279999999997,0.25961599999999996,-1.054568,61.635,204.5225,-51.38
1565,344120,1.083604,0.290116,-1.467904,84.6125,199.9025,-55.2475
1566,344216,0.081496,0.83204,-1.640412,113.12,126.8925,-56.8575
1567,344312,1.616744,0.321592,-2.096448,150.6575,60.9875,-68.3375
1568,344408,0.254736,-0.244732,-1.2221959999999998,175.1575,-1.68,-59.08
1569,344505,-0.11028800000000001,-0.481412,-0.8937719999999999,151.9875,-42.4375,-54.915
1570,344601,0.087352,-0.19959200000000002,-0.9464761,107.485,-46.7775,-38.4475
1571,344697,0.221796,0.119316,-1.1346,83.9125,-54.845,-10.0975
1572,344794,0.21520799999999998,0.31964000000000004,-1.173152,89.04,-76.30001,18.6725
1573,344890,0.09930800000000001,0.43944399999999995,-1.05774,100.38,-101.115,33.4775
1574,344986,0.084912,0.611464,-0.9850280999999999,104.0725,-120.9425,28.8225
1575,345082,0.152256,0.8195960999999999,-0.9650200999999999,105.3325,-136.3425,10.325
1576,345179,0.23424,0.9696561,-0.9567241,112.9625,-150.08,-13.615
1577,345275,0.29987600000000003,1.006744,-0.92232,128.03,-162.6275,-38.1325
1578,345371,0.39771999999999996,0.961116,-0.874252,143.815,-173.4775,-60.8825
1579,345467,0.5072760000000001,0.8827921000000001,-0.8215481,154.9625,-183.225,-79.695
1580,345564,0.602436,0.7954399999999999,-0.777628,160.7375,-191.625,-92.1025
1581,345660,0.661972,0.72346,-0.739564,162.2425,-198.0825,-97.23001
1582,345756,0.7117479999999999,0.6824680000000001,-0.7324881,161.945,-201.7225,-95.655
1583,345852,0.750544,0.677344,-0.7473721,160.615,-202.9125,-89.88
1584,345949,0.796904,0.70394,-0.77836,159.5825,-202.3,-81.935
1585,346045,0.888648,0.747128,-0.84424,158.585,-200.4275,-76.0375
1586,346141,1.0187,0.807396,-0.882548,157.605,-198.8525,-75.35501
1587,346237,1.112152,0.86498,-0.9030440000000001,158.515,-197.9075,-78.27750999999999
1588,346334,1.188036,0.8723001,-0.888648,164.78,-195.685,-82.775
1589,346430,1.2343959999999998,0.828624,-0.829356,172.8825,-191.2225,-86.29251
1590,346526,1.299544,0.784704,-0.770308,177.87,-183.3475,-86.9225
1591,346622,1.369328,0.7673800000000001,-0.7168720000000001,179.655,-173.11,-84.91
1592,346719,1.4988920000000001,0.74542,-0.691008,179.4975,-162.4,-82.32
1593,346815,1.6028360000000001,0.692716,-0.6070720000000001,176.5225,-156.205,-80.535
1594,346911,1.567944,0.650016,-0.45725600000000005,169.0325,-154.2975,-80.0625
1595,347007,1.49206,0.609268,-0.265472,158.0775,-149.3975,-79.0125
1596,347104,1.463268,0.537776,-0.11712,143.85,-138.32,-75.6525
1597,347200,1.490108,0.478484,-0.014884,124.11,-125.335,-71.54
1598,347296,1.475956,0.42212,0.10906800000000001,99.45251,-115.01,-66.885
1599,347392,1.410076,0.382836,0.26474000000000003,69.265,-105.7175,-63.0525
1600,347489,1.39202,0.40748,0.37551599999999996,35.91,-94.29,-61.1275
1601,347585,1.3893360000000001,0.45579200000000003,0.44822799999999996,8.295,-81.0775,-58.5375
1602,347681,1.2944200000000001,0.480192,0.5397281,-7.3325,-66.5875,-55.335
1603,347777,1.238544,0.46481999999999996,0.582428,-13.23,-46.3925,-54.25
1604,347874,1.295884,0.47994799999999993,0.524356,-13.6675,-21.315,-56.6125
1605,347970,1.3066200000000001,0.415288,0.490196,-6.51,1.9775,-58.24
1606,348066,1.262944,0.221796,0.479704,3.57,23.66,-56.6475
1607,348162,1.101172,0.264008,0.377712,6.6325,45.6575,-51.485
1608,348259,0.28304,-0.313296,0.06344,54.8275,70.1225,-29.9775
1609,348355,0.374296,-0.54168,-1.8060880000000001,102.1475,97.9125,-8.295
1610,348451,0.030744,-0.8608319999999999,-0.9154880999999999,63.0175,124.145,-23.24
1611,348547,1.69702,-1.512556,-0.38918,50.54,160.72,-1.47
1612,348643,1.8717240000000002,-0.609024,-0.8164239999999999,-7.0,141.12,5.3375
1613,348740,1.1873040000000001,0.069052,-0.9764879999999999,-39.3225,99.505,6.475
1614,348836,0.791048,0.59536,-0.9254921,-48.825,78.54,-4.0425
1615,348932,0.637084,0.548756,-0.8315520000000001,-36.82,70.805,-11.025
1616,349029,0.696132,0.25961599999999996,-0.8071520000000001,-20.1775,70.105,-12.95
1617,349125,0.7139439999999999,0.011956,-0.7176041,-10.9025,68.67,-12.6
1618,349221,1.464732,0.07076001,-1.4217879999999998,-8.2425,65.765,-9.2225
1619,349317,0.9955200000000001,-0.211548,-0.51362,4.935,31.955,1.575
1620,349414,0.9818561,-0.03416,-0.8215481,-1.82,13.7025,-6.72
1621,349510,0.671244,0.1403,-0.75762,-2.73,14.2275,-7.4025
1622,349606,0.766892,-0.022448,-0.7266321,5.95,15.855,-4.445
1623,349702,0.74054,0.02806,-0.73932,5.81,12.495,-2.975
1624,349799,0.7166279999999999,0.03904,-0.758352,5.7225,9.8875,-2.8525
1625,349895,0.7015,0.065148,-0.7473721,6.02,7.07,-1.61
1626,349991,0.697108,0.06344,-0.73932,6.72,5.705,0.2625
1627,350087,0.69296,0.056852,-0.7315119999999999,7.98,5.5825,2.5375
1628,350184,0.6822239999999999,0.03416,-0.7324881,9.3275,6.0375,4.27
1629,350280,0.6917399999999999,0.003172,-0.7217521,10.4125,6.7375,5.1275
1630,350376,0.680028,0.011224,-0.734928,10.0975,6.8075,4.69
1631,350472,0.6980841,-0.00488,-0.726388,10.36,6.825,4.41
1632,350569,0.706136,-0.00488,-0.7229720000000001,10.1325,6.5975,3.99
1633,350665,0.705892,0.004392,-0.7041841,9.9575,6.055,3.3425
1634,350761,0.70028,-0.00488,-0.7259001,10.0275,5.6,2.9925
1635,350857,0.6980841,-0.004392,-0.721996,10.01,5.215,2.8
1636,350954,0.697596,-0.000732,-0.7156520000000001,9.8,5.1625,2.6425
1637,351050,0.696376,-0.017324000000000003,-0.71614,9.6775,5.0225,2.415
1638,351146,0.7005239999999999,-0.013175999999999998,-0.71614,8.995,4.6375,1.995
1639,351242,0.70028,-0.016347999999999998,-0.708088,8.785,4.3925,1.4875
1640,351339,0.7005239999999999,-0.011712,-0.704916,8.26,4.025,0.875
1641,351435,0.7005239999999999,-0.016347999999999998,-0.7093081,7.8925,3.465,0.2975
1642,351531,0.701012,-0.018056,-0.7078439999999999,7.6475,3.0975,-0.21
1643,351627,0.695156,-0.015616,-0.7046720999999999,7.5075,3.0275,-0.6125
1644,351724,0.69906,-0.015128,-0.7105279999999999,7.4725,2.9225,-0.9625
1645,351820,0.7005239999999999,-0.014396,-0.7095520000000001,7.245,2.87,-1.1725
1646,351916,0.699792,-0.009272001,-0.709064,7.0175,2.8875,-1.3125
1647,352012,0.70394,-0.013908000000000002,-0.704916,6.8775,3.045,-1.33
1648,352108,0.707112,-0.011224,-0.696376,6.545,3.29,-1.3825
1649,352205,0.7078439999999999,-0.011468,-0.7032079999999999,5.3375,3.22,-1.8025
1650,352301,0.71736,-0.011956,-0.7034521,4.2875,3.01,-2.275
1651,352397,0.71248,-0.008540001,-0.7017439999999999,3.5875,2.625,-2.66
1652,352493,0.71004,-0.0122,-0.6985720999999999,2.9225,2.2925,-2.9575
1653,352590,0.7056479999999999,-0.019764,-0.6985720999999999,1.9075,2.03,-3.465
1654,352686,0.708332,-0.024156,-0.701256,0.91,1.785,-4.48
1655,352782,0.715408,-0.01586,-0.7005239999999999,0.2625,1.4525,-5.4425
1656,352879,0.7237041,-0.021472,-0.686616,0.0875,1.3475,-6.055
1657,352975,0.7041841,-0.013908000000000002,-0.7034521,-0.0875,1.5925,-6.1425
1658,353071,0.7044279999999999,0.006344,-0.7171161,-0.0175,2.2225,-5.9675
1659,353167,0.7088201,0.002684,-0.7078439999999999,0.595,3.4125,-5.8275
1660,353264,0.711504,0.031232,-0.709064,2.1,5.6175,-5.0575
1661,353360,0.673196,-0.007320001,-0.706136,5.7575,8.8725,-3.22
1662,353456,0.6844201,0.005856,-0.782508,5.915,15.33,-1.925
1663,353552,0.6734399999999999,-0.022203999999999998,-0.741028,2.87,24.5175,-3.045
1664,353649,0.6722199999999999,-0.009028000999999999,-0.7195560000000001,3.0975,33.1975,-3.4125
1665,353745,0.671976,0.007320001,-0.721508,4.2,42.6125,-2.975
1666,353841,0.6707561,0.0034159999999999998,-0.71736,5.18,53.0425,-1.33
1667,353937,0.661484,-0.001952,-0.703696,5.775,64.89,0.805
1668,354033,0.6512359999999999,-0.008296000999999999,-0.701012,6.79,78.715,3.08
1669,354130,0.650992,-0.013908000000000002,-0.7117479999999999,6.7025,93.17,3.3775
1670,354226,0.7015,-0.007076001,-0.7278521,4.97,105.5075,1.68
1671,354322,0.690032,0.008296000999999999,-0.727608,1.8725,114.1,0.56
1672,354418,0.7005239999999999,0.0305,-0.7622561,-0.175,124.355,3.29
1673,354515,0.70638,0.039284,-0.814472,-3.29,138.1275,10.2025
1674,354611,0.650016,-0.0034159999999999998,-0.8735200000000001,-4.865,157.5,21.385
1675,354707,1.4008040000000002,-0.21716,-0.776408,2.4675,198.45,20.7725
1676,354803,0.9740479999999999,-0.084912,-1.036756,-2.205,271.075,-7.735
1677,354900,0.8701040000000001,0.016104,-1.1089799999999999,-10.045,335.9825,-18.9175
1678,354996,0.8967,-0.011224,-1.11386,2.0125,391.195,-7.3325
1679,355092,0.990884,-0.09613601,-1.1211799999999998,5.005,419.9475,0.42
1680,355188,1.288808,0.17568,-0.8642481,-3.535,416.4475,1.645
1681,355285,1.13216,0.673928,-1.202432,-9.8175,395.815,-3.29
1682,355381,0.8337481,0.124196,-1.090192,48.125,360.5875,37.7475
1683,355477,0.7944641,-0.05856,-0.8754719999999999,85.4,328.265,67.2
1684,355573,1.601616,-0.260836,-0.883768,80.955,301.77,53.27
1685,355670,2.85236,-0.587796,-1.56892,87.395,289.835,11.0775
1686,355766,0.9967401,0.106628,-1.179252,35.42,188.72,-65.555
1687,355862,2.614948,0.508008,-3.031212,6.685,113.26,-154.805
1688,355958,0.9738041,0.40821199999999996,-2.0937639999999997,32.9,-14.14,-161.245
1689,356055,-0.100284,0.04148,-1.257576,81.48001,-86.555,-158.2
1690,356151,-0.009272001,-0.413336,-0.89792,121.695,-83.4575,-149.6775
1691,356247,0.36478,-0.6753920999999999,-0.892552,121.2925,-77.1225,-133.8225
1692,356344,0.526308,-0.8818159999999999,-0.850096,88.39251,-89.9675,-107.3975
1693,356440,0.529968,-0.826672,-0.8693719999999999,39.445,-118.1075,-75.5825
1694,356536,0.404796,-0.6229319999999999,-0.8203280000000001,-9.275,-151.375,-46.13
1695,356632,0.302072,-0.289628,-0.7664041,-40.8275,-176.785,-22.2075
1696,356728,0.30402399999999996,0.021472,-0.74908,-46.0775,-194.005,-4.6375
1697,356825,0.327204,0.188856,-0.744688,-29.1025,-206.3775,7.6125
1698,356921,0.364048,0.242292,-0.7117479999999999,-4.9875,-217.665,10.115
1699,357017,0.410408,0.23472800000000002,-0.6734399999999999,15.1725,-228.69,3.0975
1700,357113,0.46457600000000004,0.2501,-0.6405,27.0725,-238.875,-9.905
1701,357210,0.57828,0.284504,-0.62952,35.9275,-246.12,-23.7125
1702,357306,0.7137001000000001,0.26108000000000003,-0.604388,46.3925,-250.985,-33.075
1703,357402,0.822768,0.17543599999999998,-0.587796,54.5825,-254.5725,-36.3125
1704,357498,0.8998719999999999,0.09052401,-0.595604,54.9675,-257.5125,-34.86
1705,357595,0.957944,0.07393200000000001,-0.6307401,47.32,-260.4,-29.5925
1706,357691,0.9801479999999999,0.15006,-0.696864,36.75,-262.85,-21.7175
1707,357787,1.043588,0.28621199999999997,-0.7903161,31.395,-264.145,-12.005
1708,357883,1.160708,0.42187600000000003,-0.9098761000000001,35.42,-265.23,-2.485
1709,357980,1.3090600000000001,0.5248441,-1.02846,46.7775,-269.08,4.06
1710,358076,1.44692,0.5455840000000001,-1.101904,60.8475,-277.27,3.675
1711,358172,1.499624,0.579012,-1.112152,70.805,-288.365,-5.355
1712,358268,1.571604,0.685396,-1.111664,78.5925,-295.82,-18.27
1713,358365,1.691652,0.8203280000000001,-1.091656,92.12001,-296.0125,-29.715
1714,358461,1.857084,0.8820601,-1.031876,115.5,-290.08,-39.235
1715,358557,1.9959200000000001,0.8693719999999999,-0.904752,140.9275,-281.295,-47.9325
1716,358653,2.057408,0.7903161,-0.676856,161.7525,-270.2875,-55.4575
1717,358750,1.927356,0.640012,-0.288652,176.1725,-250.3025,-56.245
1718,358846,1.980548,0.36502399999999996,0.14762,180.355,-219.9575,-53.2875
1719,358942,2.229428,0.09638,0.395768,170.6075,-184.2225,-44.205
1720,359038,2.404864,0.11736400000000001,0.638548,148.995,-155.7675,-34.37
1721,359135,2.32898,0.5043479999999999,0.987224,133.7875,-135.1,-23.1
1722,359231,2.090348,0.612196,1.3856760000000001,145.4075,-107.2225,-0.245
1723,359327,2.02276,0.284992,1.790716,146.8425,-69.58,18.6375
1724,359423,1.937848,0.0017079999999999999,1.9366279999999998,101.43,-30.485,18.83
1725,359520,1.841468,0.09394001,1.6784759999999999,22.645,8.855,6.51
1726,359616,1.779736,0.2806,1.1690040000000002,-43.3475,44.205,-2.6425
1727,359712,0.334036,-0.096868,0.08808401,-89.04,88.55,-30.5025
1728,359808,0.6314721,-0.228384,-2.385344,-115.57,125.3875,-67.0775
1729,359905,-0.11467999999999999,0.467992,-1.18462,-104.265,141.4525,-50.4875
