,T,ax,ay,az,gx,gy,gz
0,184951,0.516792,0.091744,-0.666608,14.63,-14.3325,-14.07
1,185104,0.543144,0.100284,-0.7605481,66.92,-61.1975,-17.92
2,185201,0.5814520000000001,0.10809200000000001,-0.8147161,122.57,-145.11,-48.86
3,185298,0.5814520000000001,0.10809200000000001,-0.8103239999999999,56.0,-97.685,-31.78
4,185395,0.581208,0.110776,-0.81374,2.9575,-4.27,-4.0075
5,185492,0.584136,0.10931199999999999,-0.815936,1.82,-2.5025,-3.5
6,185589,0.581696,0.110044,-0.813008,1.82,-2.4325,-3.4125
7,185686,0.582428,0.10931199999999999,-0.813984,1.9075,-2.4325,-3.395
8,185783,0.581696,0.1098,-0.813496,1.8375,-2.4675,-3.465
9,185880,0.584136,0.108824,-0.8149601,1.785,-2.415,-3.465
10,185978,0.58194,0.11102000000000001,-0.81252,1.855,-2.5025,-3.4475
11,186075,0.582184,0.11224,-0.814472,1.855,-2.4325,-3.535
12,186172,0.5814520000000001,0.11102000000000001,-0.813496,1.82,-2.3625,-3.43
13,186269,0.582916,0.1098,-0.8147161,1.75,-2.2925,-3.4125
14,186366,0.582916,0.11053199999999999,-0.8147161,1.82,-2.3275,-3.395
15,186463,0.583404,0.1098,-0.8147161,1.8025,-2.3625,-3.4125
16,186560,0.584136,0.10931199999999999,-0.8164239999999999,1.82,-2.3625,-3.43
17,186657,0.583404,0.10906800000000001,-0.815448,1.7675,-2.3975,-3.4825
18,186754,0.582428,0.11126400000000002,-0.815692,1.785,-2.3275,-3.5175
19,186851,0.58194,0.11053199999999999,-0.8142281,1.82,-2.38,-3.5
20,186948,0.58194,0.1098,-0.815692,1.82,-2.4325,-3.5
21,187045,0.582184,0.11028800000000001,-0.815448,1.855,-2.4675,-3.605
22,187142,0.583404,0.11053199999999999,-0.815204,1.9075,-2.45,-3.4475
23,187240,0.58316,0.11102000000000001,-0.815448,1.855,-2.4325,-3.4475
24,187337,0.583404,0.11028800000000001,-0.815936,1.925,-2.4325,-3.5
25,187434,0.582916,0.1098,-0.815448,1.82,-2.3625,-3.4125
26,187531,0.583404,0.110044,-0.8164239999999999,1.785,-2.3975,-3.5
27,187628,0.581208,0.110776,-0.8149601,1.8025,-2.31,-3.4475
28,187725,0.5787680000000001,0.11248399999999999,-0.815204,1.8025,-2.2575,-3.4825
29,187822,0.581696,0.10906800000000001,-0.8142281,1.75,-2.2575,-3.5
30,187919,0.5814520000000001,0.11126400000000002,-0.8142281,1.7325,-2.17,-3.4825
31,188016,0.582428,0.1098,-0.815692,1.7325,-2.17,-3.4125
32,188113,0.5826720000000001,0.11028800000000001,-0.815448,1.75,-2.2575,-3.5875
33,188210,0.58316,0.11126400000000002,-0.81252,1.75,-2.205,-3.535
34,188307,0.581696,0.10833599999999999,-0.8142281,1.645,-2.135,-3.5525
35,188404,0.583404,0.11028800000000001,-0.812276,1.6625,-2.2925,-3.5875
36,188502,0.581696,0.109556,-0.8132520999999999,1.61,-2.45,-3.78
37,188599,0.581696,0.11053199999999999,-0.814472,1.505,-2.415,-3.885
38,188696,0.5826720000000001,0.11028800000000001,-0.813496,1.4175,-2.4675,-3.9375
39,188793,0.582184,0.109556,-0.813984,1.295,-2.52,-4.025
40,188890,0.5826720000000001,0.110776,-0.8149601,1.2425,-2.5725,-4.095
41,188987,0.58316,0.11028800000000001,-0.815936,1.1725,-2.5725,-4.2525
42,189084,0.581208,0.111508,-0.8149601,1.0675,-2.52,-4.4625
43,189181,0.580232,0.11126400000000002,-0.8147161,0.9275,-2.59,-4.55
44,189278,0.58194,0.11321600000000001,-0.8147161,0.8575,-2.6775,-4.5675
45,189375,0.580964,0.115168,-0.8108121,0.945,-2.6425,-4.7075
46,189472,0.581208,0.116388,-0.8142281,0.945,-2.7125,-4.6725
47,189569,0.582184,0.11248399999999999,-0.8132520999999999,1.1375,-2.66,-4.585
48,189666,0.582428,0.115168,-0.8127641,1.2075,-2.6075,-4.41
49,189764,0.580964,0.119316,-0.814472,1.225,-2.5375,-4.2875
50,189861,0.580964,0.11834000000000001,-0.815692,1.3125,-2.485,-4.1125
51,189958,0.5799880000000001,0.121268,-0.812032,1.5225,-2.4325,-3.885
52,190055,0.57828,0.118096,-0.8132520999999999,1.6975,-2.38,-3.5175
53,190152,0.5795,0.118828,-0.812276,1.855,-2.24,-3.3075
54,190249,0.5785241,0.117852,-0.813496,2.135,-2.0475,-3.0975
55,190346,0.5797441,0.11760799999999999,-0.8142281,2.275,-1.89,-2.835
56,190443,0.580964,0.11760799999999999,-0.8142281,2.4325,-1.8375,-2.695
57,190540,0.5838920999999999,0.11394800000000001,-0.81374,2.52,-1.8025,-2.66
58,190637,0.582184,0.114924,-0.8127641,2.555,-1.8725,-2.6075
59,190734,0.580964,0.114924,-0.8147161,2.45,-1.89,-2.73
60,190831,0.583648,0.114436,-0.81374,2.45,-1.925,-2.7475
61,190928,0.582184,0.114436,-0.81252,2.415,-1.9425,-2.73
62,191026,0.5826720000000001,0.11345999999999999,-0.8132520999999999,2.415,-1.9775,-2.7475
63,191123,0.580964,0.11541199999999999,-0.8115439999999999,2.3275,-1.925,-2.8
64,191220,0.580964,0.114436,-0.80886,2.31,-1.995,-2.835
65,191317,0.58194,0.115168,-0.8117880000000001,2.31,-1.9425,-2.8
66,191414,0.58072,0.114436,-0.8127641,2.345,-2.0475,-2.7475
67,191511,0.580476,0.112972,-0.8095920999999999,2.2925,-1.9075,-2.73
68,191608,0.5795,0.11614400000000001,-0.8108121,2.345,-1.9425,-2.6425
69,191705,0.5814520000000001,0.11394800000000001,-0.812276,2.345,-1.9425,-2.6075
70,191802,0.58316,0.11321600000000001,-0.81252,2.3275,-1.89,-2.6075
71,191899,0.580476,0.111996,-0.813496,2.24,-1.8725,-2.6775
72,191996,0.582184,0.11224,-0.8113001,2.2925,-1.96,-2.7125
73,192093,0.5814520000000001,0.11102000000000001,-0.8142281,2.24,-1.925,-2.765
74,192190,0.5826720000000001,0.112728,-0.813496,2.2575,-1.9425,-2.7475
75,192287,0.58194,0.112972,-0.813008,2.1875,-1.89,-2.835
76,192384,0.5826720000000001,0.11345999999999999,-0.812032,2.1175,-1.82,-2.905
77,192481,0.582428,0.11248399999999999,-0.8127641,2.1,-1.8725,-3.045
78,192579,0.58194,0.11224,-0.8117880000000001,2.0825,-1.925,-2.9225
79,192676,0.582184,0.112728,-0.813008,2.03,-1.9775,-3.01
80,192773,0.5843801,0.11248399999999999,-0.813008,2.0475,-1.9075,-3.01
81,192870,0.58316,0.11321600000000001,-0.811056,2.03,-1.925,-2.975
82,192967,0.5826720000000001,0.112972,-0.8113001,2.065,-1.96,-2.975
83,193064,0.582916,0.112728,-0.811056,2.1525,-1.995,-3.01
84,193161,0.580964,0.114924,-0.811056,2.17,-1.9075,-2.975
85,193258,0.580232,0.114924,-0.8100801,2.1525,-1.9775,-2.975
86,193355,0.58194,0.111752,-0.813984,2.205,-2.0475,-2.905
87,193452,0.583648,0.111508,-0.8117880000000001,2.1875,-2.065,-2.905
88,193549,0.582428,0.110776,-0.811056,2.24,-2.0825,-2.94
89,193646,0.5814520000000001,0.11394800000000001,-0.8117880000000001,2.24,-2.1175,-2.905
90,193743,0.583648,0.111996,-0.8117880000000001,2.17,-2.135,-2.8875
91,193840,0.5826720000000001,0.11248399999999999,-0.8127641,2.205,-2.24,-2.9575
92,193938,0.58316,0.10833599999999999,-0.8117880000000001,2.17,-2.31,-3.045
93,194035,0.580964,0.111752,-0.813496,2.0825,-2.31,-3.0975
94,194132,0.58194,0.111996,-0.8132520999999999,2.1875,-2.2925,-3.15
95,194229,0.5846241,0.11126400000000002,-0.8108121,2.1175,-2.275,-3.15
96,194326,0.580964,0.110776,-0.8132520999999999,2.0125,-2.4325,-3.2725
97,194423,0.5814520000000001,0.110776,-0.8117880000000001,1.9075,-2.5725,-3.395
98,194520,0.58316,0.109556,-0.8105680000000001,1.8725,-2.6075,-3.5875
99,194617,0.5814520000000001,0.10809200000000001,-0.8103239999999999,1.7325,-2.73,-3.7275
100,194714,0.581696,0.10931199999999999,-0.8117880000000001,1.5225,-2.835,-3.92
101,194811,0.582184,0.11224,-0.8117880000000001,1.3825,-2.94,-4.095
102,194908,0.582916,0.11224,-0.81374,1.33,-2.9575,-4.1825
103,195005,0.580232,0.112728,-0.8086161000000001,1.26,-2.8875,-4.165
104,195102,0.5814520000000001,0.11467999999999999,-0.8115439999999999,1.2425,-3.0275,-4.1825
105,195200,0.58316,0.114192,-0.8105680000000001,1.2425,-2.94,-4.3225
106,195297,0.58194,0.115656,-0.8105680000000001,1.225,-2.905,-4.2875
107,195394,0.5814520000000001,0.11760799999999999,-0.813984,1.3125,-2.9225,-4.13
108,195491,0.5785241,0.11712,-0.8117880000000001,1.47,-2.8525,-4.025
109,195588,0.5777920999999999,0.11712,-0.8113001,1.5575,-2.8,-3.955
110,195685,0.579012,0.119804,-0.8113001,1.75,-2.7475,-3.7625
111,195782,0.580476,0.11955999999999999,-0.8113001,2.0125,-2.6775,-3.4125
112,195879,0.5787680000000001,0.119804,-0.8103239999999999,2.1525,-2.5375,-3.255
113,195976,0.5799880000000001,0.118828,-0.811056,2.2925,-2.485,-3.1325
114,196073,0.5777920999999999,0.116632,-0.8127641,2.3975,-2.38,-2.8875
115,196170,0.5799880000000001,0.116632,-0.813008,2.45,-2.275,-2.8
116,196267,0.582428,0.113704,-0.8108121,2.555,-2.2225,-2.695
117,196364,0.5814520000000001,0.116876,-0.81252,2.5725,-2.2225,-2.73
118,196461,0.5785241,0.115168,-0.81374,2.4325,-2.2575,-2.73
119,196558,0.582916,0.11345999999999999,-0.8149601,2.5375,-2.2925,-2.7125
120,196656,0.580476,0.114192,-0.8113001,2.415,-2.2575,-2.7125
121,196753,0.5785241,0.11614400000000001,-0.8117880000000001,2.3625,-2.205,-2.6775
122,196850,0.5797441,0.11467999999999999,-0.813008,2.31,-2.1,-2.6775
123,196947,0.580476,0.118584,-0.8117880000000001,2.3625,-2.0125,-2.73
124,197044,0.5785241,0.11224,-0.813008,2.5025,-2.065,-2.66
125,197141,0.579256,0.118096,-0.812032,2.485,-1.89,-2.5375
126,197238,0.580964,0.114192,-0.813008,2.765,-1.8725,-2.3275
127,197335,0.580964,0.11760799999999999,-0.814472,2.7825,-1.68,-2.17
128,197432,0.5797441,0.114192,-0.811056,3.01,-1.6625,-2.03
129,197529,0.5797441,0.11467999999999999,-0.8115439999999999,3.1325,-1.5225,-1.925
130,197626,0.581696,0.11394800000000001,-0.812032,3.185,-1.4,-1.8725
131,197723,0.581208,0.111996,-0.8127641,3.2025,-1.26,-1.925
132,197820,0.581696,0.11126400000000002,-0.813008,3.115,-1.1375,-1.82
133,197917,0.579256,0.10931199999999999,-0.813008,3.115,-1.085,-1.8375
134,198015,0.57828,0.10858,-0.812276,3.045,-0.9625,-1.8025
135,198112,0.5795,0.10736,-0.81374,2.9225,-0.77,-1.855
136,198209,0.5785241,0.1098,-0.815936,2.87,-0.455,-1.995
137,198306,0.5736441,0.113704,-0.8117880000000001,2.835,0.0,-1.995
138,198403,0.57462,0.11394800000000001,-0.8132520999999999,2.94,0.665,-1.7325
139,198500,0.5753520000000001,0.106628,-0.812276,2.9575,1.645,-1.505
140,198597,0.583648,0.10004,-0.8142281,2.8,2.4325,-1.5575
141,198694,0.583648,0.104432,-0.8176439999999999,2.45,3.115,-1.89
142,198791,0.583404,0.100772,-0.8149601,2.1,3.71,-2.38
143,198888,0.585356,0.10418800000000002,-0.8193521,1.645,4.4975,-2.695
144,198985,0.585356,0.099552,-0.821304,1.4175,5.46,-3.08
145,199082,0.5443640000000001,0.083936,-0.802272,0.525,6.755,-3.4475
146,199180,0.4743361,0.147376,-0.853756,-2.24,9.6425,-2.6775
147,199277,0.5648601,0.099552,-0.8466800999999999,-0.5425,18.3225,-2.03
148,199374,0.580964,0.12980799999999998,-0.81252,-3.1325,24.2725,-1.82
149,199471,0.589992,0.12175599999999999,-0.8256960999999999,-3.64,28.84,-1.085
150,199568,0.593896,0.13664,-0.826428,-3.605,32.935,0.1575
151,199665,0.599508,0.133468,-0.8222799999999999,-1.8375,37.0475,1.995
152,199762,0.604632,0.142496,-0.849852,-0.3675,40.915,4.795
153,199859,0.605608,0.156892,-0.892064,3.22,44.8,7.595
154,199956,0.621468,0.15006,-0.8410681000000001,9.3975,48.2475,10.43
155,200053,0.6344,0.179584,-0.85034,13.335,51.205,12.8275
156,200150,0.625372,0.17202,-0.8723001,18.2875,52.535,15.3125
157,200247,0.582184,0.14493599999999998,-0.9086559999999999,25.6375,54.11,17.885
158,200345,0.531188,0.10052799999999999,-0.945256,31.185,51.8175,21.385
159,200442,0.451888,0.076616,-0.9903959999999999,33.3725,48.2825,25.935
160,200539,0.417728,0.071248,-1.048224,33.3725,43.015,32.095
161,200636,0.388692,0.10638399999999999,-1.1211799999999998,32.725,35.42,38.535
162,200733,0.335988,0.14762,-1.142652,31.85,24.4825,42.3325
163,200830,0.261812,0.187636,-1.131672,30.17,12.8625,40.8975
164,200927,0.2257,0.227652,-1.145824,25.2175,2.065,33.495
165,201024,0.14347200000000002,0.263276,-1.114348,16.73,-8.96,22.5575
166,201121,0.101504,0.28181999999999996,-1.089948,10.57,-17.815,12.355
167,201218,0.11614400000000001,0.26718000000000003,-1.091656,7.5775,-24.57,3.955
168,201315,0.15006,0.251076,-1.112884,4.48,-31.85,-4.3925
169,201412,0.193004,0.225944,-1.128256,0.1575,-40.3375,-13.0725
170,201510,0.24034,0.198372,-1.1385040000000002,-3.815,-49.2275,-20.825
171,201607,0.266204,0.175924,-1.131428,-5.8625,-58.17,-26.355
172,201704,0.28157600000000005,0.14884,-1.1094680000000001,-5.5825,-65.9225,-29.575
173,201801,0.30622,0.12248800000000001,-1.090436,-4.1825,-71.8025,-31.2025
174,201898,0.34281999999999996,0.1098,-1.079212,-3.6925,-76.4575,-32.4975
175,201995,0.385764,0.111508,-1.0760399999999999,-3.3075,-80.1675,-33.46
176,202092,0.42626800000000004,0.11053199999999999,-1.0797,-1.26,-83.4225,-33.4075
177,202189,0.476288,0.09906401,-1.089948,1.75,-86.7125,-32.725
178,202286,0.50874,0.082472,-1.081408,3.1325,-90.755,-32.6375
179,202383,0.528992,0.071004,-1.056032,2.1175,-94.78,-33.46
180,202480,0.547536,0.06832001,-1.02114,-0.1225,-97.21251,-34.3525
181,202577,0.5690081,0.06563601,-0.9928360999999999,-1.5575,-97.8425,-34.72
182,202675,0.576328,0.061488,-0.9638,-1.96,-96.6175,-34.7025
183,202772,0.5797441,0.059536,-0.9398880999999999,-1.96,-94.01,-34.79
184,202869,0.5926760999999999,0.048556,-0.9240280000000001,-1.7675,-90.28251,-35.14
185,202966,0.6124400999999999,0.050263999999999996,-0.9235399999999999,-1.4875,-86.32751,-35.9625
186,203063,0.612928,0.028792,-0.9267120000000001,1.295,-83.16001,-36.015
187,203160,0.6224441,-0.02196,-0.9052401,4.9525,-80.57,-34.755
188,203257,0.61732,-0.06832001,-0.8723001,5.3725,-78.2075,-34.055
189,203354,0.6319600000000001,-0.08857201,-0.8613200000000001,3.3775,-75.5825,-33.1975
190,203451,0.671244,-0.0854,-0.8657120999999999,1.7675,-73.6925,-30.7125
191,203548,0.7019880000000001,-0.090768,-0.8620521000000001,2.1525,-73.4475,-26.6
192,203645,0.7078439999999999,-0.10736,-0.8283799999999999,2.625,-74.4975,-21.2975
193,203743,0.6763680000000001,-0.118828,-0.7571321,0.525,-75.81,-16.1875
194,203840,0.6588,-0.12688,-0.6836880999999999,-4.9875,-75.5125,-11.2175
195,203937,0.653676,-0.130052,-0.626104,-12.4775,-72.7125,-5.845
196,204034,0.665876,-0.127368,-0.5846241,-21.1225,-68.11,0.4375
197,204131,0.683932,-0.115656,-0.5607121,-29.855,-62.7725,6.9125
198,204228,0.7046720999999999,-0.091744,-0.546804,-36.75,-57.3825,13.125
199,204325,0.734196,-0.068564,-0.530456,-40.18,-51.8525,19.6175
200,204422,0.754448,-0.050996,-0.504104,-40.0225,-46.4625,25.97
201,204519,0.764208,-0.05172801,-0.458232,-37.9575,-40.5475,31.465
202,204616,0.762988,-0.06124401,-0.37746799999999997,-35.5775,-33.1275,36.505
203,204713,0.743468,-0.07246799999999999,-0.260104,-33.6175,-22.2775,42.5425
204,204810,0.7956840999999999,-0.039528,-0.196908,-32.2525,-6.7025,50.5925
205,204907,0.9247601000000001,0.034892,-0.24570799999999998,-29.9425,10.0625,60.725
206,205005,0.998692,0.12053599999999999,-0.299388,-27.4225,22.0325,69.44
207,205102,0.961116,0.214964,-0.261812,-28.105,27.2125,70.5775
208,205199,0.270108,0.8481440999999998,-0.5158159999999999,-29.995,32.83,66.8325
209,205296,-0.143228,0.391376,-0.793976,23.73,57.4,69.37
210,205393,-0.000488,0.2745,-1.198528,28.8925,70.735,70.77
211,205490,0.0305,0.482876,-0.9406200000000001,11.3925,92.90751,39.4625
212,205587,0.353312,0.548756,-0.8447280999999999,1.4525,105.8925,7.21
213,205684,0.853024,0.36648800000000004,-0.8142281,7.91,108.85,-6.02
214,205781,0.815936,0.07490801,-1.021384,10.2375,104.405,-14.8925
215,205878,0.7044279999999999,-0.188124,-1.029192,13.3875,98.9975,-15.435
216,205975,0.7564001,-0.216428,-1.008208,9.695,95.13,-2.8175
217,206072,0.778116,-0.133956,-0.989664,3.535,90.35251,4.6375
218,206169,0.7439560000000001,0.02074,-0.9767321,-4.6725,83.685,5.075
219,206266,0.7373681,0.185684,-0.9718521000000001,-9.485,78.3125,3.3425
220,206363,0.620492,0.257664,-0.9211,-8.6975,73.5,0.7875
221,206461,0.5846241,0.200324,-0.8842561,-5.1625,69.2125,-1.715
222,206558,0.6034121,0.13078399999999998,-0.8791321,-0.91,65.9925,-1.785
223,206655,0.592432,0.129076,-0.8491200000000001,2.8525,62.58,0.455
224,206752,0.8723001,0.511424,-1.09312,5.705,59.57,2.52
225,206849,0.877912,0.193736,-1.0182120000000001,31.255,50.575,3.605
226,206946,0.712236,-0.013175999999999998,-0.954528,36.155,32.7425,6.44
227,207043,0.6009720000000001,0.006344,-0.8581479999999999,19.4775,23.205,3.185
228,207140,0.6588,0.066124,-0.8957241,12.6525,12.1625,0.5425
229,207237,0.583648,0.06270801,-0.8308200000000001,7.595,7.455,-1.225
230,207334,0.604144,0.067588,-0.855708,4.7075,6.2475,-3.045
231,207431,0.5914560000000001,0.086132,-0.8342360000000001,2.3625,5.4075,-4.55
232,207528,0.5934081,0.10614000000000001,-0.8276481,0.945,4.6725,-5.4075
233,207625,0.5980439999999999,0.106628,-0.8235001000000001,1.155,3.4475,-5.32
234,207723,0.590724,0.118584,-0.823256,1.26,2.205,-5.0225
235,207820,0.584136,0.121268,-0.8230120999999999,1.8725,1.3475,-4.4275
236,207917,0.583404,0.116388,-0.820816,2.3625,0.8225,-3.57
237,208014,0.5843801,0.113704,-0.8195960999999999,2.7475,0.5075,-2.94
238,208111,0.5799880000000001,0.10858,-0.820572,2.7475,0.105,-2.555
239,208208,0.580964,0.10248,-0.818132,2.4675,-0.2275,-2.625
240,208305,0.583648,0.09784401,-0.8176439999999999,2.0475,-0.3675,-2.905
241,208402,0.583648,0.101016,-0.814472,1.785,-0.3675,-3.325
242,208499,0.5843801,0.10394400000000001,-0.817156,1.435,-0.4375,-3.8325
243,208596,0.585112,0.112728,-0.815936,1.295,-0.455,-3.99
244,208693,0.576328,0.10687200000000001,-0.8222799999999999,1.54,-0.735,-3.7975
245,208790,0.58072,0.112728,-0.8132520999999999,1.54,-0.77,-3.6925
246,208888,0.5743761,0.111996,-0.812032,1.54,-0.8400001,-3.325
247,208985,0.576816,0.11248399999999999,-0.81374,1.33,-0.6475,-3.15
248,209082,0.57706,0.109556,-0.8113001,1.12,-0.595,-2.975
249,209179,0.583648,0.100772,-0.800808,0.98,-0.595,-2.87
250,209276,0.583404,0.10906800000000001,-0.814472,0.6475,-0.7,-3.0275
251,209373,0.5838920999999999,0.11053199999999999,-0.815448,0.9275,-0.7875,-2.87
252,209470,0.580964,0.108824,-0.8042239999999999,0.8925,-0.8925,-2.87
253,209567,0.581696,0.11467999999999999,-0.8132520999999999,0.8400001,-1.015,-2.87
254,209664,0.582916,0.11053199999999999,-0.81252,1.155,-1.12,-2.45
255,209761,0.5843801,0.118828,-0.8132520999999999,1.2425,-1.0325,-2.345
256,209858,0.576572,0.10638399999999999,-0.823744,1.365,-1.155,-2.1
257,209956,0.5846241,0.11834000000000001,-0.815448,1.68,-0.98,-2.03
258,210053,0.58194,0.111752,-0.8054439999999999,1.8725,-1.05,-1.89
259,210150,0.579256,0.1098,-0.805688,1.9775,-1.05,-1.75
260,210247,0.5787680000000001,0.10540799999999999,-0.815936,2.1525,-1.0325,-1.4875
261,210344,0.579256,0.10858,-0.813984,2.415,-1.19,-1.3125
262,210441,0.576816,0.111752,-0.8113001,2.31,-1.19,-1.1725
263,210538,0.578036,0.109556,-0.813496,2.3275,-1.085,-0.9975
264,210635,0.577548,0.10833599999999999,-0.8105680000000001,2.2925,-0.8225,-0.91
265,210732,0.57828,0.107116,-0.812276,2.3625,-0.6475,-0.945
266,210829,0.583404,0.104676,-0.81374,2.1525,-0.42,-0.98
267,210926,0.5797441,0.106628,-0.8105680000000001,1.9425,-0.315,-1.0325
268,211023,0.580964,0.09979600000000001,-0.809348,1.82,0.035,-1.155
269,211120,0.580232,0.10223600000000001,-0.8115439999999999,1.5225,0.35,-1.5925
270,211218,0.582184,0.10321199999999998,-0.81374,1.26,0.7875,-1.96
271,211315,0.58316,0.102968,-0.8132520999999999,1.0325,1.4875,-2.2225
272,211412,0.588284,0.105652,-0.814472,0.8575,2.3625,-2.5375
273,211509,0.586088,0.100772,-0.809348,0.6475,3.3075,-2.66
274,211606,0.576328,0.10052799999999999,-0.819108,0.665,4.4275,-2.7825
275,211703,0.570716,0.09345201,-0.8166680000000001,0.035,5.9325,-3.3425
276,211800,0.5292359999999999,0.07515201,-0.824232,-2.1175,9.38,-3.7275
277,211897,0.5577840000000001,0.102724,-0.813496,-5.1275,18.095,-4.2875
278,211994,0.5631520000000001,0.098088,-0.815448,-7.5075,23.1525,-5.04
279,212091,0.568032,0.10492,-0.820084,-9.52,28.455,-5.6875
280,212188,0.57218,0.10687200000000001,-0.809836,-11.4275,34.1075,-5.845
281,212285,0.5797441,0.10858,-0.7998321,-13.5625,39.97,-5.6175
282,212383,0.58194,0.11321600000000001,-0.8076399999999999,-15.61,46.34,-4.935
283,212480,0.5919439999999999,0.107116,-0.794708,-16.835,51.5725,-3.5525
284,212577,0.586332,0.102968,-0.81984,-17.9725,55.9475,-2.6775
285,212674,0.6080479999999999,0.10931199999999999,-0.826916,-16.765,59.6225,-1.1375
286,212771,0.6117081,0.11248399999999999,-0.815204,-15.61,63.5425,0.3675
287,212868,0.574864,0.122,-0.898164,-13.5275,68.4775,3.5
288,212965,0.604388,0.125416,-0.9340321,-7.9625,73.045,9.0125
289,213062,0.5892601,0.10516400000000001,-0.9189040999999999,-0.3675,76.1775,16.1875
290,213159,0.533384,0.11345999999999999,-0.97356,7.5775,77.525,22.68
291,213256,0.546804,0.17202,-0.9828321,13.51,79.345,28.7875
292,213353,0.571204,0.16348,-0.9328120000000001,19.8625,83.96500999999999,36.855
293,213450,0.5368,0.245952,-0.950868,31.7975,97.28251,47.46
294,213547,0.705404,0.33379200000000003,-0.934276,38.675,123.2175,54.705
295,213645,0.8559521000000001,0.290604,-0.75884,49.2275,168.8575,61.9675
296,213742,0.8769360999999999,0.321104,-0.8937719999999999,50.3125,219.275,63.0
297,213839,0.8808401,0.166408,-0.815448,57.54,267.1025,68.95
298,213936,0.8620521000000001,0.17446,-1.041148,61.7575,301.595,76.1075
299,214033,0.8640040000000001,0.21447600000000003,-1.088484,61.25,305.515,77.42
300,214130,1.2939319999999999,0.537532,-1.11996,66.9375,307.1075,69.9125
301,214227,1.166564,0.238144,-0.9857600000000001,84.455,345.4325,44.275
302,214324,1.1228879999999999,0.205936,-0.870592,82.915,386.6275,39.9525
303,214421,1.005768,0.257664,-1.306132,74.25251,416.815,58.135
304,214518,0.44652,0.028792,-1.545008,63.4375,412.0725,75.985
305,214615,1.122156,-0.26718000000000003,-2.2006360000000003,29.0675,330.6975,94.74501
306,214712,1.86782,0.053191999999999996,-2.471964,9.6075,154.3675,106.295
307,214810,0.9623360999999999,0.412116,-2.4207240000000003,-32.7775,17.6925,58.38
308,214907,-0.34867600000000004,0.39113200000000004,-1.23586,-39.3575,-59.85,32.4975
309,215004,-0.433832,0.40894400000000003,-0.9025559999999999,-35.2275,-65.835,32.8825
310,215101,0.167872,0.42553599999999997,-1.217804,-16.975,-44.8875,35.805
311,215198,0.387228,0.41846000000000005,-1.422276,-3.2025,-58.1,30.5375
312,215295,0.358192,0.33379200000000003,-1.389092,2.0475,-94.93751,18.725
313,215392,0.315004,0.242536,-1.257576,0.6125,-132.895,8.155
314,215489,0.319396,0.156404,-1.134112,-2.6425,-163.345,3.29
315,215586,0.360632,0.0976,-1.028704,-7.875,-189.035,3.115
316,215683,0.3904,0.08442401,-0.913292,-14.8575,-210.7,4.48
317,215780,0.40504,0.114924,-0.834968,-21.84,-226.905,4.3925
318,215877,0.434076,0.152988,-0.7956840999999999,-26.4075,-237.3,1.3125
319,215975,0.503372,0.163724,-0.8105680000000001,-29.0325,-243.6875,-6.195
320,216072,0.601704,0.12444000000000001,-0.828868,-32.2,-249.62,-17.6575
321,216169,0.6980841,0.098332,-0.823256,-38.115,-256.9525,-30.415
322,216266,0.762988,0.12175599999999999,-0.827892,-44.7125,-263.83,-41.7025
323,216363,0.826672,0.159576,-0.8554641,-47.425,-268.3975,-51.8875
324,216460,0.8959681,0.17519200000000001,-0.9042641,-45.3425,-271.3025,-61.5475
325,216557,0.946232,0.143716,-0.9591639999999999,-41.335,-274.0325,-70.6825
326,216654,0.9745360000000001,0.05563200000000001,-0.9950319999999999,-39.6725,-276.92,-79.415
327,216751,1.011868,-0.044407999999999996,-1.003328,-43.4175,-278.6525,-87.3075
328,216848,1.024068,-0.13761600000000002,-0.9718521000000001,-52.115,-277.235,-92.1025
329,216945,1.100684,-0.228384,-0.9889319999999999,-62.8775,-269.64,-92.8725
330,217042,1.326384,-0.282308,-1.1714440000000002,-75.0925,-259.035,-91.2275
331,217139,1.542568,-0.290116,-1.316136,-84.735,-254.38,-88.48001
332,217237,1.569652,-0.29646,-1.2846600000000001,-87.97251,-255.6575,-84.00001
333,217334,1.5706280000000001,-0.234972,-1.1448479999999999,-83.1775,-252.665,-75.88
334,217431,1.62504,-0.149572,-0.9779521000000001,-68.075,-240.17,-64.9075
335,217528,1.684088,-0.055388,-0.762744,-47.705,-222.6,-54.6525
336,217625,1.7355720000000001,-0.015616,-0.5614439999999999,-29.575,-204.54,-49.2975
337,217722,1.783396,-0.034892,-0.377956,-18.375,-187.075,-51.7475
338,217819,1.7999880000000001,-0.10736,-0.229604,-13.6675,-170.2925,-59.395
339,217916,1.869284,-0.139812,-0.13176,-13.3525,-154.385,-67.4275
340,218013,1.903932,-0.245464,0.041236,-10.2725,-140.315,-70.7175
341,218110,1.8636720000000002,-0.462136,0.290116,-7.9625,-125.93,-66.92
342,218208,1.7760759999999998,-0.604876,0.527528,-15.5925,-105.2975,-57.3475
343,218304,1.701412,-0.581696,0.6409881,-28.595,-75.88,-43.75
344,218402,1.676768,-0.464088,0.619272,-30.9925,-40.845,-25.83
345,218499,1.7172720000000001,-0.313052,0.45628,-18.585,-5.25,-6.1075
346,218596,1.682868,-0.229848,0.340624,1.47,23.24,10.5875
347,218693,1.55306,-0.164212,0.2928,14.595,45.115,20.055
348,218790,0.8447280999999999,0.8388721,-0.406992,23.87,69.86,27.1075
349,218887,-0.207156,0.221308,-1.4879120000000001,94.5,123.305,39.1475
350,218984,-0.43602799999999997,-0.145424,-1.2019440000000001,69.475,120.6275,41.6675
351,219081,0.064416,0.340136,-0.9535521,16.8875,155.47,-6.825
352,219178,1.525976,0.07393200000000001,-0.666608,8.7675,176.68,-32.9525
353,219275,1.148264,-0.5463161,-1.0887280000000001,15.4,164.0275,-30.0825
354,219372,0.89426,-0.690764,-1.30174,6.6325,150.15,-16.835
355,219469,0.834724,-0.390888,-0.9989360999999999,-1.925,145.6,11.025
356,219566,0.873276,0.197884,-1.013332,-18.4625,141.4525,14.595
357,219664,0.9206120000000001,0.385764,-0.992592,-19.0925,139.125,7.77
358,219761,0.7686,0.21276799999999998,-0.8876719999999999,-14.14,136.01,1.155
359,219858,0.71126,-0.014152000000000001,-0.9106081,-7.8225,133.245,0.315
360,219955,0.450668,0.14396,-0.9357401,-8.54,122.99,1.9775
361,220052,2.110112,1.2968600000000001,-1.8336599999999998,4.9875,112.665,2.205
362,220149,0.687104,0.062464,-0.7315119999999999,56.0175,66.15,4.2
363,220246,0.916952,-0.277672,-1.19926,52.7975,31.15,14.42
364,220343,0.7324881,0.07442,-0.8425321,27.65,22.4875,10.08
365,220440,0.653432,0.04148,-0.85156,20.965,15.2775,7.665
366,220537,0.6573359999999999,0.050996,-0.8481440999999998,19.775,7.9275,7.5425
367,220634,0.6070720000000001,0.033916,-0.7937320999999999,16.2925,3.7975,5.145
368,220732,0.619028,0.072712,-0.8335040000000001,13.2125,1.8025,2.2925
369,220829,0.600484,0.060512,-0.8359440999999999,10.3075,0.0525,0.2625
370,220926,0.595116,0.074664,-0.8298440999999999,7.875,-0.6125,-1.6975
371,221023,0.583648,0.076616,-0.820816,6.3175,-0.6475,-3.1325
372,221120,0.585112,0.07808001,-0.819108,5.04,-0.525,-4.27
373,221217,0.58072,0.091988,-0.818132,3.885,-0.4375,-4.865
374,221314,0.5795,0.11394800000000001,-0.828624,3.325,-0.77,-4.97
375,221411,0.5736441,0.11053199999999999,-0.8100801,3.22,-1.4,-4.7075
376,221508,0.569984,0.11712,-0.82594,2.8875,-1.9425,-3.78
377,221605,0.587796,0.071492,-0.7998321,3.4125,-2.4675,-3.0275
378,221702,0.541924,0.12078,-0.8554641,2.3975,-2.73,-2.345
379,221799,0.568032,0.098576,-0.8117880000000001,2.59,-2.3975,-2.45
380,221896,0.562908,0.081252,-0.8025161,1.575,-1.8025,-2.2225
381,221994,0.5614439999999999,0.07564,-0.7991,0.735,-1.3825,-2.3975
382,222091,0.560956,0.08637601,-0.8054439999999999,-0.1225,-0.595,-2.87
383,222188,0.5653481,0.08784,-0.8108121,-0.28,0.21,-2.73
384,222285,0.5665680000000001,0.09125599999999999,-0.8164239999999999,-0.1925,0.7175,-2.4325
385,222382,0.5726680000000001,0.09540401,-0.823256,-0.28,0.9625,-2.275
386,222479,0.5787680000000001,0.09979600000000001,-0.820084,-0.1925,1.155,-1.855
387,222576,0.5777920999999999,0.098576,-0.8166680000000001,-0.21,1.0675,-1.3125
388,222673,0.571936,0.08564401,-0.819108,-0.2625,1.1725,-0.9625
389,222770,0.57462,0.0976,-0.8210601000000001,-0.0525,1.61,-0.7875
390,222867,0.577548,0.0854,-0.813008,0.1575,2.0475,-0.56
391,222964,0.590724,0.09272000000000001,-0.8254520000000001,0.0525,2.3975,-0.6125
392,223061,0.598288,0.09442801,-0.8147161,0.14,2.415,-0.8400001
393,223158,0.590968,0.096624,-0.8142281,0.1575,2.5025,-0.7875
394,223256,0.586332,0.096624,-0.8178880999999999,0.175,2.6075,-0.665
395,223353,0.587796,0.09930800000000001,-0.8169121,0.525,2.6425,-0.1225
396,223450,0.5917,0.093696,-0.8178880999999999,0.945,2.5025,0.2975
397,223547,0.593164,0.07978801,-0.8166680000000001,1.0675,2.52,0.315
398,223644,0.5917,0.082472,-0.815936,1.05,3.0625,-0.0175
399,223741,0.590724,0.081252,-0.8174001000000001,0.665,3.78,-0.4375
400,223838,0.57218,0.091988,-0.830576,0.28,5.1975,-0.77
401,223935,0.5392399999999999,0.04514,-0.8418,0.6825,8.47,-0.945
402,224032,0.5734,0.118828,-0.8708360999999999,-2.17,16.8,-2.3975
403,224129,0.5404601,0.085156,-0.8352120000000001,-5.32,27.265,-3.9725
404,224226,0.5653481,0.071492,-0.8086161000000001,-7.945,34.0025,-3.8675
405,224323,0.561932,0.07978801,-0.8091041,-11.48,42.3675,-4.1125
406,224420,0.561688,0.094672,-0.8039801,-14.6825,51.38,-3.395
407,224518,0.56608,0.10223600000000001,-0.829356,-17.85,61.39,-2.0475
408,224615,0.564616,0.09272000000000001,-0.847412,-19.285,70.2975,-0.77
409,224712,0.55266,0.10809200000000001,-0.862296,-19.5475,76.58,1.925
410,224809,0.5795,0.08369201,-0.8937719999999999,-16.38,83.0025,4.7425
411,224906,0.5489999999999999,0.09125599999999999,-0.9642879999999999,-12.95,89.25,9.7825
412,225003,0.56608,0.156404,-0.983808,-6.44,97.12501,17.22
413,225100,0.568764,0.127856,-1.10532,0.665,105.49,30.8175
414,225197,0.5587601,0.164944,-1.092632,13.895,110.5125,47.95
415,225294,0.460672,0.239364,-1.043344,27.2825,121.52,65.065
416,225391,0.5463161,0.354044,-0.953308,52.605,147.7175,83.80751
417,225488,0.618784,0.377956,-1.022848,70.14,192.955,101.325
418,225585,0.913292,0.35843600000000003,-1.155828,67.06,247.8,109.97
419,225682,0.9296399999999999,0.152988,-1.0711600000000001,74.41,318.465,111.3175
420,225780,1.090192,0.356484,-1.285392,69.09,357.595,107.345
421,225877,0.9882001,0.495076,-1.4835200000000002,78.015,363.1775,107.7475
422,225974,1.363716,0.42748800000000003,-1.242448,113.4875,370.4925,100.9225
423,226071,1.2280520000000001,0.167628,-1.1733959999999999,134.295,430.9025,74.8125
424,226168,1.005036,0.30256,-1.334436,110.4425,465.5525,75.8275
425,226265,0.30841599999999997,-0.0305,-1.517924,69.545,469.4725,85.71500999999999
426,226362,1.58112,-0.295484,-2.417064,22.505,366.065,109.41
427,226459,1.7877880000000002,0.19983599999999999,-2.8416240000000004,-4.6025,128.8,134.96
428,226556,0.6980841,0.7198,-2.2955520000000003,-67.1475,-19.5825,65.765
429,226653,-0.387228,0.6753920999999999,-1.137284,-54.0575,-80.7625,33.74
430,226750,-0.3965,0.713212,-0.9691681000000001,-38.57,-81.5675,25.9525
431,226847,0.118828,0.61488,-1.101416,-10.9375,-71.4525,15.54
432,226944,0.36356,0.528748,-1.273192,2.52,-81.32251,-4.13
433,227042,0.422608,0.431148,-1.301984,4.34,-113.015,-24.2375
434,227139,0.390888,0.305732,-1.194868,2.2925,-150.4475,-40.81
435,227236,0.367464,0.18056,-1.068476,-0.28,-181.965,-49.91
436,227333,0.45164399999999993,0.08442401,-1.00528,-5.7225,-206.3775,-53.55
437,227430,0.503372,0.024156,-0.941108,-14.28,-227.85,-54.7925
438,227527,0.49044,-0.0051240009999999996,-0.863028,-24.4475,-246.2425,-55.615
439,227624,0.518744,-0.025376,-0.8459479999999999,-33.145,-258.1075,-56.875
440,227721,0.6283,-0.055144000000000006,-0.8327720999999999,-40.1625,-265.09,-58.6775
441,227818,0.708576,-0.024644,-0.833992,-47.915,-271.3375,-61.0225
442,227915,0.740052,0.016104,-0.8174001000000001,-52.64,-276.955,-63.595
443,228012,0.7671359999999999,0.040504000000000005,-0.809348,-53.865,-279.58,-68.215
444,228110,0.8108121,0.05563200000000001,-0.841556,-53.0775,-279.335,-74.6375
445,228207,0.8708360999999999,0.050263999999999996,-0.9186601000000001,-51.5725,-278.53,-81.90001
446,228304,0.9267120000000001,0.005368,-0.9845401,-50.26,-279.825,-89.0925
447,228401,0.9394,-0.10394400000000001,-1.027728,-50.4875,-282.03,-95.1475
448,228498,0.945744,-0.217404,-1.0462719999999999,-54.8625,-283.1325,-97.5975
449,228595,0.996008,-0.29402,-1.105076,-64.085,-282.1,-95.69
450,228692,1.134112,-0.382348,-1.2458639999999999,-74.8825,-279.79,-91.0
451,228789,1.352004,-0.425292,-1.41154,-86.3975,-280.2975,-83.0375
452,228886,1.4905959999999998,-0.460672,-1.447408,-95.725,-285.18,-70.56
453,228983,1.5464719999999998,-0.444812,-1.430572,-100.9225,-288.9075,-56.5075
454,229080,1.60674,-0.381372,-1.345172,-100.485,-285.915,-42.1575
455,229177,1.711416,-0.266448,-1.2336639999999999,-93.7125,-275.8525,-30.3275
456,229275,1.778028,-0.022936,-1.006256,-84.385,-262.325,-24.1325
457,229372,1.8126759999999997,0.251564,-0.734196,-70.91001,-246.4525,-25.2
458,229469,1.8470799999999998,0.3294,-0.4209,-51.695,-225.6625,-35.945
459,229566,1.9476080000000002,0.195444,-0.11955999999999999,-37.275,-200.9525,-52.4825
460,229663,2.014708,-0.30622,0.399428,-35.1575,-175.735,-62.615
461,229760,1.9368720000000001,-0.7366361,0.9028,-63.945,-147.2975,-62.0375
462,229857,1.900516,-0.650992,1.053592,-108.1325,-106.6275,-58.7475
463,229954,2.115236,-0.328912,0.859368,-118.2825,-56.6825,-56.665
464,230051,2.135488,-0.169824,0.739564,-70.14,-11.6375,-51.38
465,230148,1.987624,-0.2745,0.658312,13.8075,28.5425,-34.7025
466,230245,1.4454559999999999,0.13054000000000002,0.163724,87.29,68.635,-2.625
467,230342,0.45383999999999997,-0.729804,0.347456,158.1825,145.04,57.295
468,230439,0.601704,0.395524,-1.486448,101.815,148.47,94.93751
469,230537,0.006587999999999999,0.014396,-1.84342,152.74,154.245,121.415
470,230634,0.946232,0.076616,-0.5958479999999999,95.13,181.8775,54.6
471,230731,1.331752,-0.11102000000000001,-0.916952,29.4875,193.305,-20.4225
472,230828,1.036268,-0.8669319999999999,-1.44814,27.055,173.7575,-24.3075
473,230925,0.788608,-0.8015399999999999,-1.16388,6.5975,159.0575,-5.9325
474,231022,0.681248,-0.222284,-0.9335440999999999,-10.78,152.95,18.55
475,231119,0.8378960999999999,0.5070319999999999,-1.072624,-25.3925,150.1675,18.41
476,231216,0.824232,0.6380600000000001,-0.9362280000000001,-20.79,149.065,8.575
477,231313,0.773724,0.20178800000000002,-0.863028,-11.13,148.0325,0.7525
478,231410,0.772504,-0.166164,-0.964044,-10.1325,143.9725,-1.12
479,231507,0.7861680999999999,-0.019275999999999998,-0.9474520000000001,-15.855,134.5575,3.2025
480,231604,0.9142680000000001,0.652456,-1.2056040000000001,-16.4675,122.255,4.7425
481,231701,1.477908,0.942572,-1.4945,25.4975,90.42251,2.0475
482,231798,0.571448,-0.22106399999999998,-0.733464,78.1725,38.29,13.5275
483,231895,0.868884,-0.14566800000000002,-1.086044,54.7925,37.765,12.9675
484,231993,0.6985720999999999,0.132248,-0.879376,35.3325,19.355,8.5225
485,232090,0.661484,-0.026351999999999997,-0.8827921000000001,28.3325,16.905,6.7725
486,232187,0.638548,0.06832001,-0.8801081000000001,20.23,10.885,4.5325
487,232284,0.605608,0.063928,-0.8376520000000001,15.19,8.3825,2.6075
488,232381,0.6029241,0.069052,-0.8296,12.0225,6.79,1.0675
489,232478,0.597068,0.063684,-0.830576,9.0825,5.7575,-1.2075
490,232575,0.5873079999999999,0.102968,-0.826672,6.9475,4.69,-3.22
491,232672,0.5875520000000001,0.105652,-0.8103239999999999,6.09,4.655,-3.6925
492,232769,0.585356,0.114436,-0.8188641,5.3025,4.27,-3.6225
493,232866,0.577548,0.11345999999999999,-0.8115439999999999,5.0925,3.535,-3.5175
494,232963,0.585112,0.121512,-0.8247200000000001,4.3575,3.3075,-3.3775
495,233060,0.589504,0.133956,-0.813984,4.515,3.115,-2.5025
496,233158,0.582184,0.117852,-0.8100801,4.69,2.6425,-1.2075
497,233255,0.5897479999999999,0.111752,-0.813008,4.6375,1.89,-0.455
498,233352,0.583648,0.09272000000000001,-0.8239880999999999,4.6025,1.2425,-0.0525
499,233449,0.587796,0.10809200000000001,-0.820816,4.1125,0.595,-0.4725
500,233546,0.583404,0.08637601,-0.824232,4.2875,0.1575,-0.385
501,233643,0.590236,0.10492,-0.815936,3.955,-0.3325,-0.77
502,233740,0.57828,0.11394800000000001,-0.809348,3.8325,-0.8400001,-0.875
503,233837,0.582184,0.11102000000000001,-0.808372,2.9925,-0.735,-0.805
504,233934,0.578036,0.109556,-0.8164239999999999,2.6775,-0.595,-0.63
505,234031,0.5785241,0.10394400000000001,-0.812276,2.66,-0.2975,-0.7175
506,234128,0.584868,0.10394400000000001,-0.8127641,2.7475,-0.07,-0.4725
507,234225,0.581696,0.098576,-0.807884,2.9575,-0.4725,-0.1575
508,234322,0.5885281,0.101504,-0.8108121,2.6425,-0.5075,-0.315
509,234420,0.580232,0.101748,-0.815204,2.6075,-0.7525,-0.3325
510,234517,0.5856,0.093696,-0.8132520999999999,2.5375,-0.2625,-0.1575
511,234614,0.589016,0.098576,-0.813496,2.5375,-0.0525,-0.14
512,234711,0.5856,0.09979600000000001,-0.8147161,2.1875,0.4375,-0.28
513,234808,0.585112,0.09735601,-0.8178880999999999,2.17,1.0325,-0.07
514,234905,0.582184,0.09784401,-0.817156,2.065,1.6975,0.0875
515,235002,0.5875520000000001,0.09613601,-0.818132,1.9075,2.3625,0.28
516,235099,0.592188,0.09516001,-0.8195960999999999,1.9075,3.0275,0.1575
517,235196,0.595116,0.091988,-0.8193521,1.89,3.8675,0.035
518,235293,0.58804,0.09979600000000001,-0.828868,1.8025,4.83,-0.2275
519,235390,0.5260640000000001,0.034648000000000005,-0.8337481,2.7825,7.35,0.14
520,235487,0.582916,0.0976,-0.844972,-1.4,17.4475,-0.14
521,235584,0.534116,0.09442801,-0.8396040000000001,-5.32,26.8625,-1.19
522,235681,0.56608,0.086864,-0.8164239999999999,-6.3175,34.055,-1.4175
523,235779,0.559004,0.081496,-0.8176439999999999,-10.0625,42.63,-1.3475
524,235876,0.5502199999999999,0.087108,-0.8052,-13.405,52.5175,-0.7875
525,235973,0.5607121,0.09223200000000001,-0.8369200000000001,-16.6075,63.385,0.8400001
526,236070,0.553392,0.09272000000000001,-0.84424,-17.3075,72.275,1.96
527,236167,0.540216,0.077836,-0.8693719999999999,-15.96,79.8,3.85
528,236264,0.520208,0.07832401,-0.9581881,-14.56,88.23501,6.125
529,236361,0.562176,0.104676,-0.9928360999999999,-9.8525,96.0925,10.9025
530,236458,0.565104,0.172752,-1.057008,-1.7675,104.9475,23.135
531,236555,0.652212,0.15054800000000002,-1.026752,13.7375,109.375,37.38
532,236652,0.41675200000000007,0.186416,-1.159,27.405,114.3975,53.8825
533,236749,0.366976,0.30182800000000004,-1.1192280000000001,43.4,124.985,71.645
534,236846,0.70516,0.360388,-1.016504,64.34751,166.075,88.6025
535,236943,0.925736,0.329644,-1.0199200000000002,63.0175,225.8725,99.085
536,237040,0.927688,0.12395199999999999,-0.9608721,57.925,290.85,100.9925
537,237138,1.030656,0.203008,-0.9520881,59.36,347.795,102.4625
538,237235,1.011624,0.382104,-1.3237,49.35,365.995,97.37
539,237332,1.358104,0.691008,-1.081408,65.8875,361.3225,98.7875
540,237429,1.124352,0.167628,-1.152168,102.4975,410.165,78.68
541,237526,1.134844,0.19397999999999999,-1.11264,93.9575,455.63,72.0825
542,237623,0.974292,0.309148,-1.416176,73.4825,478.5725,85.575
543,237720,0.21838000000000002,-0.378444,-3.4918839999999998,37.24,452.34,97.26501
544,237817,2.38266,0.398208,-2.495388,31.465,250.7925,140.5425
545,237914,1.554036,0.638304,-3.0863560000000003,-21.875,73.90250999999999,114.625
546,238011,0.10321199999999998,0.550708,-1.6994599999999997,-55.44,-57.8375,48.37
547,238108,-0.7451760000000001,0.744688,-0.9713639999999999,-56.1925,-95.13,27.3175
548,238205,-0.379664,0.7639640999999999,-0.9211,-46.1825,-80.29,14.4725
549,238302,0.169824,0.75274,-1.246108,-25.8825,-66.955,-6.0025
550,238400,0.360632,0.6753920999999999,-1.405928,-6.5625,-85.4,-26.25
551,238497,0.31354,0.471896,-1.341024,10.92,-121.975,-41.58
552,238594,0.288408,0.26108000000000003,-1.185108,17.01,-157.99,-50.015
553,238691,0.331108,0.10321199999999998,-1.059936,11.2175,-186.4975,-52.3775
554,238788,0.39161999999999997,0.025131999999999998,-0.9701440999999998,-1.7675,-210.49,-49.8225
555,238885,0.438468,0.01952,-0.898408,-15.6275,-230.9125,-43.715
556,238982,0.488,0.05246,-0.8764481,-26.5125,-246.8725,-37.0125
557,239079,0.57096,0.07515201,-0.888648,-33.5475,-259.035,-33.0225
558,239176,0.648796,0.05172801,-0.893284,-38.6225,-269.9725,-33.5125
559,239273,0.7190681,0.046116000000000004,-0.8786440999999999,-45.5875,-280.0175,-37.1525
560,239370,0.765428,0.082472,-0.869616,-54.1275,-288.8725,-42.805
561,239467,0.8030041,0.125172,-0.8752280000000001,-60.06,-294.07,-50.8725
562,239564,0.859368,0.148352,-0.9147559999999999,-61.565,-295.96,-61.25
563,239661,0.9203680000000001,0.125416,-0.9903959999999999,-59.92,-296.625,-72.7125
564,239758,0.9613601,0.066124,-1.045296,-58.66,-297.85,-83.44001
565,239856,0.987712,-0.02806,-1.09312,-60.0425,-298.585,-92.435
566,239953,1.0169920000000001,-0.127368,-1.1041,-65.31,-296.765,-98.56
567,240050,1.1263040000000002,-0.18666,-1.1956,-73.9375,-290.0975,-99.7675
568,240147,1.378112,-0.2074,-1.405928,-84.0525,-282.625,-98.63
569,240244,1.6043,-0.2867,-1.539152,-93.4675,-282.7125,-99.24251
570,240341,1.707268,-0.42016800000000004,-1.5523280000000002,-102.5325,-288.9775,-100.2575
571,240438,1.802672,-0.462136,-1.511092,-111.65,-294.2275,-97.21251
572,240535,1.8866080000000003,-0.404064,-1.390312,-113.7675,-294.945,-89.72251
573,240632,1.968104,-0.248148,-1.135576,-102.0075,-291.2525,-78.7325
574,240729,1.944192,-0.035136,-0.800808,-73.4825,-281.68,-66.5525
575,240826,1.9032,0.10906800000000001,-0.44090799999999997,-34.2475,-262.15,-58.3275
576,240923,1.928332,0.089304,-0.044896,0.8925,-232.785,-57.5225
577,241020,1.9837200000000001,-0.28157600000000005,0.301584,19.81,-200.0775,-56.385
578,241117,2.079612,-0.90646,0.9318360000000001,5.6875,-165.2875,-46.5675
579,241215,1.9720080000000002,-1.03944,1.2214639999999999,-63.2975,-126.35,-35.805
580,241312,2.0571639999999998,-0.5104479999999999,1.042124,-130.2875,-77.35,-34.335
581,241409,2.1435400000000002,-0.06270801,0.8081281,-126.2625,-28.2275,-34.335
582,241506,2.043256,0.052703999999999994,0.631228,-55.6675,15.4525,-24.6575
583,241603,2.002508,-0.174704,0.429196,32.165,53.5325,-6.51
584,241700,1.849764,-0.36282800000000004,0.243024,74.2175,78.2075,6.685
585,241797,0.36112,0.450424,-0.444568,62.7025,90.37001,13.7025
586,241894,-0.45164399999999993,-0.28548,-0.8935280999999999,116.55,118.44,49.455
587,241991,-1.099708,0.883768,-1.69092,116.655,143.885,80.2375
588,242088,0.732244,-0.69418,-0.133224,125.3,181.265,77.28
589,242185,1.7807119999999999,-0.424804,-0.995764,58.17,219.2925,-4.62
590,242282,0.9955200000000001,-1.111664,-1.4032440000000002,14.7175,193.655,-21.3675
591,242379,0.9699,-0.874252,-1.328092,0.7525,184.6425,6.16
592,242476,0.8576601,-0.044164,-0.981124,-21.5775,176.75,31.605
593,242574,0.9023121,0.759328,-1.11752,-33.495,169.9775,25.69
594,242671,0.868152,0.6790520999999999,-1.000156,-19.46,165.795,13.405
595,242768,0.8508280999999999,0.071248,-0.984296,-5.6525,160.5975,4.795
596,242865,0.8544879999999999,-0.21813600000000002,-0.9830760000000001,-5.67,151.5675,5.8975
597,242962,0.8244761,0.12395199999999999,-0.9535521,-15.505,140.07,11.48
598,243059,0.8927959999999999,0.435784,-0.9850280999999999,-16.2225,130.2,11.5325
599,243156,1.261236,0.758108,-1.296616,-0.1575,112.2625,9.8175
600,243253,0.9501360999999999,0.533872,-1.16754,41.4575,76.545,9.9925
601,243350,0.589016,-0.000976,-0.853024,68.65250999999999,39.3575,15.855
602,243447,0.931348,-0.01464,-1.0169920000000001,56.56,42.77,14.6475
603,243544,0.720776,0.07417601,-0.9001161,45.815,22.61,13.265
604,243642,0.7032079999999999,0.000488,-0.904752,36.995,16.135,11.6025
605,243739,0.671488,0.031964,-0.8723001,28.28,9.7475,8.085
606,243836,0.628788,0.02928,-0.853024,20.23,6.2125,4.235
607,243933,0.617564,0.073688,-0.831308,14.6475,3.85,1.015
608,244030,0.593896,0.076616,-0.818132,10.885,2.94,-1.3825
609,244127,0.596336,0.086132,-0.8127641,7.8925,2.2925,-3.3075
610,244224,0.5846241,0.100284,-0.81984,6.09,2.135,-4.48
611,244321,0.5919439999999999,0.11541199999999999,-0.8127641,4.7425,2.0475,-4.8475
612,244418,0.585356,0.12053599999999999,-0.8100801,4.235,1.6625,-4.7425
613,244515,0.59048,0.118096,-0.805688,4.06,1.3475,-4.5675
614,244612,0.58316,0.118828,-0.807884,3.885,0.8575,-4.095
615,244709,0.5873079999999999,0.112728,-0.8066641,4.165,0.7525,-3.4475
616,244806,0.582916,0.117852,-0.8086161000000001,3.99,0.385,-2.9925
617,244904,0.586088,0.10931199999999999,-0.8025161,4.2525,0.35,-2.59
618,245001,0.581696,0.111508,-0.800076,4.0775,0.385,-2.065
619,245098,0.584136,0.101992,-0.80886,3.745,0.56,-1.82
620,245195,0.583404,0.09882,-0.8039801,3.185,0.945,-1.8725
621,245292,0.585112,0.09930800000000001,-0.7951961,2.94,1.1725,-2.135
622,245389,0.56852,0.09320801,-0.8193521,2.905,1.225,-2.1875
623,245486,0.58194,0.105652,-0.83814,3.0625,1.4875,-2.1
624,245583,0.5873079999999999,0.116388,-0.8195960999999999,3.185,1.75,-1.5575
625,245680,0.5926760999999999,0.120048,-0.811056,3.3775,1.9075,-0.7175
626,245777,0.5856,0.11053199999999999,-0.814472,3.4125,1.925,0.1925
627,245874,0.5997520000000001,0.114436,-0.8142281,3.885,2.1525,0.98
628,245971,0.595116,0.107848,-0.8169121,3.6925,2.52,1.3125
629,246068,0.593164,0.10345599999999999,-0.817156,3.605,2.835,1.5575
630,246166,0.5941401,0.1037,-0.8103239999999999,3.0975,3.1325,1.295
631,246263,0.611952,0.10394400000000001,-0.80276,2.73,3.5525,1.05
632,246360,0.60268,0.09613601,-0.807396,2.415,3.605,0.7175
633,246457,0.605608,0.10345599999999999,-0.809348,1.9425,3.955,0.3325
634,246554,0.6070720000000001,0.09735601,-0.8091041,1.5925,4.235,-0.175
635,246651,0.602436,0.092964,-0.8100801,1.085,4.7775,-0.945
636,246748,0.61122,0.102724,-0.8100801,0.2975,5.9675,-1.925
637,246845,0.514352,0.07246799999999999,-0.845216,-0.0175,7.7175,-2.6075
638,246942,0.5697399999999999,0.11028800000000001,-0.8510719999999999,-3.115,19.215,-2.94
639,247039,0.5294800000000001,0.10687200000000001,-0.8486319999999999,-9.31,33.0575,-3.36
640,247136,0.5604680000000001,0.07637200000000001,-0.803248,-11.165,42.175,-2.3275
641,247233,0.532896,0.07686,-0.820084,-16.66,54.8275,-2.2575
642,247330,0.546804,0.07588400000000001,-0.798124,-21.5075,70.3675,-2.1875
643,247428,0.46774799999999994,0.069784,-0.904508,-27.79,88.04251,-1.82
644,247525,0.506788,0.112728,-0.9484280999999999,-28.07,105.8925,-1.54
645,247622,0.508984,0.12980799999999998,-1.0797,-26.3725,121.5025,3.5175
646,247719,0.542168,0.125416,-1.079944,-13.3175,129.0275,18.6025
647,247816,0.5697399999999999,0.18422,-1.17608,5.7925,134.05,37.52
648,247913,0.4209,0.207644,-1.14802,28.805,139.51,55.335
649,248010,0.4743361,0.34477199999999997,-1.127768,45.85,151.5325,69.86
650,248107,0.6649,0.42895200000000006,-1.1163,61.74,202.4225,82.285
651,248204,0.9740479999999999,0.35014,-1.07482,61.4075,275.4675,84.8925
652,248301,0.8701040000000001,0.211548,-0.94306,57.89,348.9675,82.39
653,248398,0.9803921,0.30841599999999997,-1.641876,64.4875,388.8325,85.82
654,248495,1.493768,0.64904,-1.19072,66.29,379.155,82.6
655,248593,1.285392,0.396012,-1.277584,84.4025,424.0075,55.09
656,248690,0.9906401,0.269376,-1.613328,86.11751,481.46,49.0175
657,248787,0.673928,0.206668,-1.4095879999999998,74.13,489.37,74.18251
658,248884,1.216828,-0.6885680999999999,-2.797216,54.74,413.1575,107.45
659,248981,2.000556,-0.248148,-3.0929439999999997,38.7975,196.7525,152.88
660,249078,0.9023121,0.5675439999999999,-2.633492,-49.525,25.0425,92.69751
661,249175,-0.558516,0.6527,-1.294176,-68.18,-54.145,50.9075
662,249272,-0.756888,0.9025559999999999,-0.968924,-71.435,-63.0525,38.8325
663,249369,-0.09930800000000001,0.9171961,-1.2099959999999998,-36.715,-41.2125,24.815
664,249466,0.265716,0.8698601,-1.474736,-2.5375,-47.5475,1.19
665,249563,0.284504,0.6117081,-1.462292,23.0825,-81.4975,-26.5825
666,249660,0.258884,0.35014,-1.338096,32.69,-121.6425,-47.5475
667,249757,0.277916,0.12712400000000001,-1.187548,28.945,-156.205,-57.0675
668,249855,0.360388,0.005856,-1.110444,17.3425,-185.5175,-56.4025
669,249952,0.469944,-0.038796,-1.068476,4.3225,-212.0475,-49.0175
670,250049,0.56242,-0.033672,-1.0206520000000001,-6.23,-237.79,-37.6775
671,250146,0.6117081,-0.010248,-0.978928,-14.5075,-261.17,-26.8275
672,250243,0.646112,-0.000244,-0.9325680000000001,-20.6325,-280.035,-19.4775
673,250340,0.70638,-0.0034159999999999998,-0.889136,-27.4225,-293.9825,-17.0975
674,250437,0.755424,0.034648000000000005,-0.8437520000000001,-36.89,-304.325,-19.18
675,250534,0.7944641,0.08954801,-0.8203280000000001,-46.0425,-310.8875,-24.5875
676,250631,0.850584,0.158112,-0.8337481,-52.1325,-312.8125,-33.74
677,250728,0.9120720999999999,0.20252,-0.898408,-53.305,-311.7275,-45.815
678,250825,0.968192,0.19032000000000002,-0.97234,-50.5225,-310.7475,-59.675
679,250923,1.006988,0.116632,-1.0504200000000001,-47.9325,-310.5725,-72.6425
680,251020,1.056032,0.011224,-1.095072,-48.895,-311.08,-82.8975
681,251117,1.067744,-0.08174001,-1.116544,-54.425,-310.1175,-88.9
682,251214,1.164856,-0.14274,-1.21756,-63.315,-304.15,-90.0375
683,251311,1.431548,-0.219356,-1.378844,-72.8175,-296.38,-87.85
684,251408,1.700436,-0.391864,-1.481324,-82.3025,-294.385,-86.06501
685,251505,1.8522040000000002,-0.48214399999999996,-1.4513120000000002,-94.29,-297.7275,-82.4075
686,251602,1.8880720000000002,-0.454816,-1.365424,-99.925,-299.1625,-71.12
687,251699,1.9180840000000001,-0.229116,-1.2021879999999998,-90.335,-292.1625,-54.4775
688,251796,2.010072,0.037088,-0.8998719999999999,-62.2825,-277.7075,-38.955
689,251893,1.972984,0.233752,-0.517768,-24.0975,-259.63,-30.66
690,251990,1.951268,0.2135,-0.10638399999999999,10.85,-233.66,-31.22
691,252087,1.9893319999999999,-0.027327999999999998,0.345748,26.0575,-201.7575,-36.3475
692,252185,2.019344,-0.5799880000000001,0.915976,11.3575,-167.58,-37.5375
693,252282,2.036912,-0.9259799999999999,1.161928,-47.1625,-127.925,-35.21
694,252379,2.112796,-0.5489999999999999,1.0084520000000001,-118.58,-83.51001,-35.5075
695,252476,2.174772,-0.16348,0.805932,-129.0975,-40.81,-36.6975
696,252573,2.0464279999999997,0.001464,0.6605081,-70.4725,-1.0325,-29.8025
697,252670,1.979328,-0.149816,0.48068,22.4175,38.8675,-11.1825
698,252767,1.880264,-0.370636,0.284504,87.81501,69.0025,8.3125
699,252864,1.691652,-0.371856,0.14762,96.005,87.67501,16.2925
700,252961,-0.8571719999999999,1.289784,-1.390556,68.075,92.34751,24.4825
701,253058,-1.32736,-0.2135,-1.220488,123.235,129.5,47.67
702,253155,-1.7821759999999998,0.22716399999999998,-0.9701440999999998,73.36,154.7,51.975
703,253252,2.282864,0.223992,-0.169824,24.6225,224.56,-2.24
704,253350,2.089616,-0.762988,-1.36884,16.9225,229.2325,-36.82
705,253447,1.115812,-1.121668,-1.67872,3.36,184.205,-21.385
706,253544,1.017724,-0.546072,-1.188036,-4.13,171.1675,21.28
707,253641,0.834724,0.480192,-1.017236,-26.7225,160.2125,27.3175
708,253738,0.8725440999999999,0.69296,-1.097756,-26.355,155.2775,9.6425
709,253835,0.8422879999999999,0.266936,-0.967216,-10.4125,150.71,2.3625
710,253932,0.7722600000000001,-0.125416,-0.9240280000000001,-5.88,143.5875,1.4175
711,254029,0.792024,-0.03538,-0.9567241,-10.99,135.9575,4.97
712,254126,0.811056,0.2623,-0.951356,-14.1925,127.2425,5.425
713,254223,0.8342360000000001,0.5489999999999999,-1.0521280000000002,-8.155,108.5175,5.18
714,254320,1.358592,0.8757159999999999,-1.4278879999999998,22.435,82.4775,4.27
715,254417,0.526308,0.008540001,-0.7373681,67.865,46.025,12.04
716,254515,0.944524,-0.174948,-1.168028,61.0575,39.41,14.21
717,254612,0.696376,0.082716,-0.868396,39.4275,23.695,11.2
718,254709,0.6480640000000001,-0.020252000000000003,-0.8913321,31.7975,17.395,9.135
719,254806,0.642452,0.035136,-0.8769360999999999,23.4325,12.18,7.1575
720,254903,0.6280560000000001,0.030256,-0.8493641,16.03,9.555,4.1475
721,255000,0.6009720000000001,0.05368,-0.8317960999999999,11.165,7.56,0.9275
722,255097,0.590968,0.07637200000000001,-0.8310639999999999,7.5425,6.23,-1.6625
723,255194,0.6021920000000001,0.09150001,-0.8283799999999999,5.495,5.705,-2.94
724,255291,0.5897479999999999,0.09735601,-0.824232,4.235,4.97,-3.7275
725,255388,0.5873079999999999,0.1037,-0.8249639999999999,3.5175,4.1825,-4.0775
726,255485,0.5914560000000001,0.10516400000000001,-0.820084,2.835,3.885,-3.955
727,255582,0.589504,0.11102000000000001,-0.813984,2.5375,3.325,-3.5875
728,255679,0.588284,0.10809200000000001,-0.808372,2.59,2.345,-3.0975
729,255777,0.5914560000000001,0.101992,-0.813984,2.7475,1.5225,-2.52
730,255874,0.590724,0.101748,-0.8178880999999999,2.73,0.7,-2.415
731,255971,0.584136,0.09711201,-0.815448,2.835,0.28,-2.45
732,256068,0.57584,0.09613601,-0.81374,2.8,-0.0875,-2.485
733,256165,0.579012,0.09418401,-0.818376,2.695,0.0875,-2.4675
734,256262,0.58072,0.10126,-0.81984,2.555,0.14,-2.31
735,256359,0.5743761,0.10321199999999998,-0.792024,2.2925,0.315,-2.2575
736,256456,0.586332,0.095648,-0.8132520999999999,2.2225,0.7525,-1.785
737,256553,0.5826720000000001,0.10540799999999999,-0.813984,2.38,0.875,-1.33
738,256650,0.580476,0.098576,-0.8117880000000001,2.6425,0.77,-0.91
739,256747,0.585112,0.09540401,-0.805932,2.6075,0.7525,-0.7175
740,256844,0.586332,0.09979600000000001,-0.812032,2.52,0.7175,-0.77
741,256942,0.5873079999999999,0.098332,-0.812276,2.4325,0.875,-0.735
742,257039,0.586088,0.09711201,-0.8127641,2.38,1.1725,-0.7175
743,257136,0.589992,0.09930800000000001,-0.8142281,2.31,1.505,-0.5775
744,257233,0.594384,0.09442801,-0.8113001,2.2575,1.7675,-0.315
745,257330,0.590724,0.09418401,-0.8105680000000001,2.275,1.9425,-0.245
746,257427,0.59902,0.10394400000000001,-0.8222799999999999,2.1525,2.555,-0.21
747,257524,0.592188,0.102968,-0.815448,2.3975,3.4125,0.175
748,257621,0.58804,0.101016,-0.8222799999999999,1.9075,4.165,0.42
749,257718,0.563884,0.081252,-0.846924,2.17,5.915,0.8925
750,257815,0.47823999999999994,0.029524,-0.802272,3.4825,11.2175,1.33
751,257912,0.571936,0.067588,-0.829356,-3.36,22.0325,-0.5425
752,258009,0.541924,0.06075601,-0.830576,-5.9325,29.19,-1.7325
753,258106,0.551928,0.0793,-0.8042239999999999,-9.24,39.27,-2.5375
754,258204,0.5455840000000001,0.08564401,-0.8239880999999999,-14.0,50.3475,-2.6425
755,258301,0.558028,0.09613601,-0.8315520000000001,-18.41,62.7375,-1.015
756,258398,0.551928,0.111752,-0.8552200000000001,-21.6825,75.0925,1.0325
757,258495,0.5214281,0.07978801,-0.877668,-22.365,84.00001,2.905
758,258592,0.5219159999999999,0.076616,-0.9423280999999999,-20.5625,92.47001,3.8325
759,258689,0.589504,0.06270801,-0.969412,-16.695,101.22,6.0375
760,258786,0.554124,0.116388,-1.001132,-11.9525,108.0625,13.72
761,258883,0.621224,0.11955999999999999,-1.031876,-3.85,112.98,27.2125
762,258980,0.5009319999999999,0.213256,-1.1829120000000002,7.455,116.7075,44.6775
763,259077,0.34867600000000004,0.24497600000000003,-1.103612,28.4025,125.0025,61.95
764,259174,0.616588,0.416996,-1.006988,48.86,150.885,79.205
765,259271,0.8117880000000001,0.397964,-0.8823040000000001,63.98,199.15,96.25
766,259369,1.075552,0.357704,-1.180472,60.585,266.175,104.1425
767,259466,0.93696,0.16689600000000002,-1.087264,73.5,341.565,109.235
768,259563,1.01138,0.363804,-1.444236,69.80751,374.08,109.2525
769,259660,1.266116,0.809348,-1.0736,72.17,368.725,108.36
770,259757,1.286368,0.367708,-1.377868,107.6075,413.3325,84.91
771,259854,1.337364,0.309392,-1.324188,121.1875,465.85,70.6825
772,259951,0.935984,0.394548,-1.626016,101.9375,491.4875,84.455
773,260048,0.164456,-0.6070720000000001,-3.6875720000000003,61.285,446.2325,97.4225
774,260145,2.337764,0.39918400000000004,-2.52662,54.6175,235.4625,154.5425
775,260242,1.357616,0.633668,-2.911164,-16.3275,73.29,119.6125
776,260339,-0.047824,0.49727200000000005,-1.59454,-52.2725,-45.5175,47.46
777,260436,-0.764696,0.7005239999999999,-0.930616,-60.725,-75.3725,29.925
778,260533,-0.2928,0.7381001,-1.022604,-50.3475,-56.9625,21.5425
779,260631,0.24863600000000002,0.702964,-1.294664,-27.9125,-50.9425,3.395
780,260728,0.367464,0.626104,-1.42374,-10.3425,-76.2475,-17.3075
781,260825,0.290848,0.44822799999999996,-1.313208,4.48,-115.29,-34.6675
782,260922,0.233264,0.24522,-1.1228879999999999,10.9725,-150.0275,-45.4475
783,261019,0.294508,0.10223600000000001,-1.001132,6.51,-175.385,-50.5225
784,261116,0.376492,0.03538,-0.944768,-5.39,-196.9975,-51.8175
785,261213,0.42822,0.040992,-0.8937719999999999,-18.1475,-217.4025,-50.4175
786,261310,0.46164799999999995,0.071004,-0.859368,-26.775,-234.6225,-48.3
787,261407,0.5131319999999999,0.07198,-0.853756,-30.6075,-247.3625,-47.53
788,261504,0.6107319999999999,0.038796,-0.85644,-32.7775,-257.565,-49.2275
789,261601,0.703696,0.030987999999999998,-0.858392,-37.5025,-267.4875,-52.5
790,261698,0.7849480999999999,0.05977999999999999,-0.877912,-43.8025,-277.5675,-56.6125
791,261795,0.8518040000000001,0.092964,-0.904508,-47.8275,-286.6325,-62.3875
792,261893,0.8991401,0.10394400000000001,-0.8949921000000001,-48.1425,-294.3675,-68.79251
793,261990,0.9418401,0.105652,-0.9581881,-47.9325,-300.2125,-75.775
794,262087,0.98088,0.05856,-0.992348,-48.055,-304.0275,-82.915
795,262184,1.010648,-0.036112,-1.018944,-52.0625,-306.4425,-89.65250999999999
796,262281,1.051884,-0.1037,-1.033828,-63.0175,-305.97,-94.43
797,262378,1.16144,-0.113704,-1.1331360000000001,-79.905,-301.0,-97.4925
798,262475,1.440332,-0.058316,-1.365912,-97.3875,-294.77,-100.0475
799,262572,1.7150759999999998,-0.049044,-1.5372,-106.085,-293.7025,-102.5325
800,262669,1.9305279999999998,-0.083204,-1.552084,-107.205,-297.0275,-104.265
801,262766,2.0342279999999997,-0.10858,-1.430084,-102.13,-299.7925,-101.43
802,262863,2.1059639999999997,-0.031476,-1.19438,-90.56251,-297.4825,-91.14
803,262960,2.086932,0.05856,-0.8413120000000001,-70.8225,-288.3475,-78.785
804,263057,2.0571639999999998,0.07978801,-0.459208,-48.9825,-270.305,-72.38
805,263155,2.013488,0.081252,-0.164212,-34.02,-245.8925,-72.2575
806,263252,2.031056,-0.07978801,0.200568,-22.33,-215.74,-70.5775
807,263349,2.012756,-0.435784,0.5814520000000001,-25.06,-186.3575,-62.37
808,263446,1.9654200000000002,-0.6993041,0.8791321,-51.8175,-152.9675,-52.4825
809,263543,1.999336,-0.576084,0.8532681000000001,-91.63,-112.6475,-48.825
810,263640,2.0234919999999996,-0.37990799999999997,0.8357,-101.7975,-71.19,-46.655
811,263737,1.99226,-0.258396,0.7610359999999999,-69.37,-27.755,-39.4975
812,263834,1.98128,-0.241804,0.530212,-11.865,15.33,-25.6725
813,263931,1.16144,0.9889319999999999,-0.15616,43.6625,51.66,-4.2
814,264028,0.837408,-0.56608,0.9943001,178.1675,138.5475,37.485
815,264125,0.774944,0.262788,-1.2756319999999999,147.9625,153.2475,67.4625
816,264222,0.17738800000000002,-0.45896400000000004,-1.929064,159.25,163.695,48.7725
817,264320,0.9684360999999999,-0.24156,-0.8342360000000001,75.6875,191.9925,-22.54
818,264417,1.2312239999999999,-0.69784,-0.846924,44.7825,196.805,-57.9775
819,264514,1.079944,-1.146312,-1.426424,29.54,180.74,-48.755
820,264611,0.7376119999999999,-1.002108,-1.1033680000000001,10.115,165.8125,-10.815
821,264708,0.6785640000000001,-0.167872,-0.9376921,-12.2675,159.0575,18.4275
822,264805,0.7327321,0.604144,-0.965752,-25.97,156.87,18.5325
823,264902,0.7832399999999999,0.670268,-0.9167081,-19.355,158.3225,7.49
824,264999,0.8852321,0.149572,-0.9474520000000001,-5.635,157.745,1.6275
825,265096,0.8671761,-0.1708,-0.957944,-3.5,149.8,2.5725
826,265193,0.8193521,0.302072,-1.09922,-10.2725,137.55,8.365
827,265290,2.014464,0.91012,-2.115236,3.1325,121.8875,6.615
828,265387,-0.07027201,0.25498000000000004,-0.321592,62.895,29.2775,18.5675
829,265485,0.9691681000000001,-0.024644,-1.273436,70.315,49.595,20.0725
830,265582,0.5856,0.128588,-0.762744,59.5525,33.3375,17.7625
831,265679,0.686128,0.052703999999999994,-0.9171961,52.9375,33.565,17.3775
832,265776,0.654652,0.040992,-0.869616,50.4,28.1225,17.9725
833,265873,0.6344,0.025376,-0.8576601,43.155,25.305,16.8175
834,265970,0.6390359999999999,0.024644,-0.8591241,37.765,22.89,14.5075
835,266067,0.6068279999999999,-0.005612,-0.850096,30.835,20.055,11.165
836,266164,0.6197600000000001,0.064172,-0.83814,23.7475,18.0075,7.9975
837,266261,0.6068279999999999,0.05587601,-0.8322841000000001,20.02,17.15,6.8775
838,266358,0.605608,0.050752,-0.8195960999999999,17.3075,15.89,5.705
839,266455,0.636596,0.040992,-0.8310639999999999,14.0875,14.805,4.1825
840,266552,0.718824,0.020008,-0.8396040000000001,10.15,12.8625,3.0625
841,266649,0.626836,0.061,-0.824232,6.125,8.4525,1.5575
842,266747,0.613904,0.07856801,-0.81618,3.9725,6.265,0.8575
843,266844,0.6034121,0.047824,-0.794708,2.2925,4.97,0.42
844,266941,0.6036560999999999,0.077836,-0.826428,1.26,4.5325,0.2275
845,267038,0.60878,0.065148,-0.787144,1.7675,3.5,-0.07
846,267135,0.584136,0.07710399999999999,-0.8195960999999999,0.9975,3.815,-0.4025
847,267232,0.5997520000000001,0.066856,-0.795928,1.1725,3.3425,-1.085
848,267329,0.598288,0.057096,-0.80642,0.14,3.5875,-1.4875
849,267426,0.621224,0.083204,-0.813008,-0.14,3.71,-2.3625
850,267523,0.608536,0.050508,-0.8015399999999999,-0.42,3.57,-2.7475
851,267620,0.603168,0.06490399999999999,-0.8317960999999999,-0.9625,3.9725,-3.36
852,267717,0.609268,0.079056,-0.7598161,-0.455,3.1675,-3.71
853,267814,0.598532,0.042212,-0.794952,-0.28,3.3075,-3.36
854,267911,0.631228,0.061975999999999996,-0.830576,1.05,2.59,-3.045
855,268009,0.624884,0.08662001,-0.834724,1.9075,1.68,-2.5725
856,268106,0.62342,0.09394001,-0.8193521,2.17,1.295,-2.1875
857,268203,0.6273241,0.08052000000000001,-0.80886,2.275,1.2775,-1.82
858,268300,0.61,0.080276,-0.8044680999999999,2.3275,1.4,-1.2425
859,268397,0.604388,0.07978801,-0.802272,2.485,1.9425,-0.315
860,268494,0.595116,0.087352,-0.8100801,2.66,2.8,0.7175
861,268591,0.593896,0.080276,-0.818376,3.465,4.655,2.4325
862,268688,0.576328,0.053191999999999996,-0.8252079999999999,4.8825,7.3325,3.465
863,268785,0.5614439999999999,0.066856,-0.8493641,4.4625,13.1775,2.7125
864,268882,0.5607121,0.039772,-0.8169121,2.1875,21.21,1.05
865,268979,0.5856,0.034892,-0.803492,1.26,28.2625,0.105
866,269076,0.586576,0.041236,-0.8049561,-0.525,36.1725,-1.5925
867,269173,0.5914560000000001,0.051972000000000004,-0.8010520000000001,-2.87,44.52,-2.695
868,269270,0.592188,0.057584,-0.8020281,-6.055,53.725,-2.135
869,269367,0.579256,0.05587601,-0.7771399999999999,-8.995,64.33,-0.4375
870,269465,0.582428,0.059048,-0.7822640000000001,-13.3525,77.1575,1.9775
871,269562,0.540948,0.060512,-0.861808,-16.625,90.685,4.48
872,269659,0.52094,0.086132,-0.9242720999999999,-17.4125,99.9425,6.265
873,269756,0.615368,0.087352,-0.987712,-14.7,108.22,7.3675
874,269853,0.55388,0.085156,-0.9489161,-9.4325,113.995,13.405
875,269950,0.6161,0.09906401,-1.034316,-2.135,124.53,23.0125
876,270047,0.54656,0.104432,-1.166564,3.5175,125.265,35.0175
877,270144,0.43554,0.115168,-1.0382200000000001,22.82,120.295,48.4225
878,270241,1.0467600000000001,0.35136,-0.9171961,41.895,137.9525,58.9575
879,270338,1.12484,0.251076,-1.2900280000000002,61.7225,201.5825,73.0625
880,270435,0.8964561,0.14762,-0.9581881,69.3875,278.3025,64.1725
881,270532,0.975024,0.348188,-1.3529799999999998,58.17,328.3875,60.1825
882,270629,0.8476561,0.38795999999999997,-1.300032,67.935,340.2,60.865
883,270727,1.50548,0.609024,-1.31272,103.285,351.96,62.545
884,270824,1.17852,0.12980799999999998,-1.240984,135.5725,411.775,47.4075
885,270921,1.021872,0.239852,-1.408612,110.985,450.135,45.99
886,271018,0.580476,-0.068564,-1.4186159999999999,65.905,462.0,56.0875
887,271115,1.7707080000000002,-0.8105680000000001,-2.3955919999999997,28.525,371.4025,85.55751
888,271212,1.867088,-0.221552,-2.835768,3.2375,169.785,140.1225
889,271309,0.797392,0.557296,-2.38144,-74.5325,28.945,100.975
890,271406,-0.38186,0.6124400999999999,-1.247084,-70.875,-32.4275,72.5025
891,271503,-0.396012,0.724436,-1.062132,-63.385,-34.2825,61.5125
892,271600,0.10004,0.714432,-1.2749,-42.98,-24.395,45.6925
893,271697,0.306952,0.6675840000000001,-1.454728,-26.25,-38.6225,22.05
894,271794,0.28377199999999997,0.5246,-1.413248,-14.77,-73.90250999999999,-0.9975
895,271891,0.23668000000000003,0.367952,-1.288076,-10.745,-111.825,-18.9525
896,271989,0.279868,0.22496799999999997,-1.17974,-12.6875,-143.8675,-29.1725
897,272086,0.333548,0.13054000000000002,-1.0972680000000001,-20.2125,-172.305,-33.705
898,272183,0.355752,0.101016,-1.0025959999999998,-29.995,-199.08,-35.0175
899,272280,0.38064000000000003,0.10418800000000002,-0.9450120000000001,-38.9725,-220.7975,-36.015
900,272377,0.46164799999999995,0.123464,-0.9362280000000001,-45.43,-238.35,-37.94
901,272474,0.537532,0.11834000000000001,-0.941108,-49.2975,-254.0475,-42.315
902,272571,0.603168,0.063196,-0.9179280000000001,-51.625,-269.2025,-48.475
903,272668,0.6771,0.00976,-0.873276,-55.86,-282.625,-54.775
904,272765,0.71614,0.009516001,-0.8405800999999999,-61.9675,-293.1425,-59.3775
905,272862,0.749812,0.038796,-0.8479,-66.4125,-299.215,-64.365
906,272959,0.8164239999999999,0.06490399999999999,-0.9113399999999999,-68.0575,-301.7175,-71.75
907,273056,0.8876719999999999,0.051484,-1.015284,-66.64,-304.395,-80.92
908,273154,0.9618481,-0.022936,-1.114348,-63.735,-308.8225,-90.70251
909,273251,0.999668,-0.144448,-1.125572,-62.475,-314.23,-99.015
910,273348,0.9928360999999999,-0.25376,-1.086776,-65.0125,-316.12,-102.7775
911,273445,1.036512,-0.326472,-1.120204,-70.665,-309.855,-101.3075
912,273542,1.339316,-0.35258,-1.419348,-77.6825,-297.745,-96.49501
913,273639,1.749724,-0.404064,-1.7531400000000001,-83.405,-295.9425,-91.1925
914,273736,1.94346,-0.51972,-1.79462,-86.8875,-309.1025,-83.4575
915,273833,1.979084,-0.543144,-1.619184,-90.65001,-324.205,-68.6875
916,273930,1.9964080000000002,-0.42333999999999994,-1.2993,-88.2875,-330.225,-50.2425
917,274027,1.952488,-0.156648,-0.9450120000000001,-76.4925,-322.3675,-34.8425
918,274124,1.952732,0.124928,-0.544608,-54.67,-300.8775,-25.095
919,274221,2.0098279999999997,0.023912,-0.083936,-13.195,-257.4075,-22.085
920,274318,1.8785560000000001,0.043432,0.152988,-0.98,-215.705,-30.8175
921,274416,2.035936,-0.43066000000000004,0.273524,-5.0575,-181.9125,-50.05
922,274513,2.0059240000000003,-0.8591241,0.8615640999999999,-45.4475,-173.425,-62.2475
923,274610,1.867576,-0.996008,1.178032,-81.48001,-121.45,-51.6775
924,274707,2.24968,-0.5690081,0.776408,-111.615,-64.27750999999999,-36.5925
925,274804,2.1530560000000003,-0.331108,0.672708,-82.0575,-24.43,-18.9
926,274901,1.855864,-0.26961999999999997,1.333948,4.48,26.5125,19.075
927,274998,1.7755880000000002,-1.2500120000000001,0.9396440999999999,114.73,124.985,84.77
928,275095,0.549488,0.24034,-0.47482399999999997,94.8325,156.6775,159.53
929,275192,0.659532,-0.192272,-2.281644,130.0075,175.0175,183.54
930,275289,0.9867360999999999,0.7439560000000001,-1.0858,58.66,190.2425,98.3675
931,275386,1.1394799999999998,0.8430200999999999,-0.681492,-0.5425,194.9325,0.5425
932,275483,1.231468,-0.026595999999999998,-1.630408,32.55,185.185,-12.7225
933,275580,0.667828,-0.484828,-1.101416,32.0775,162.3825,-17.1325
934,275678,0.499468,-0.6980841,-0.847412,17.5,153.825,-5.4775
935,275775,0.6075600999999999,-0.44286000000000003,-0.9860040999999999,-5.0575,152.4775,6.5975
936,275872,0.642696,0.11712,-0.9057280999999999,-22.05,152.005,16.2575
937,275969,0.74908,0.6202479999999999,-0.9586761,-28.63,154.595,13.5625
938,276066,0.954284,0.50752,-0.9857600000000001,-17.5,156.31,6.755
939,276163,0.9264680000000001,0.156404,-0.964044,-8.89,151.0075,1.505
940,276260,0.807884,-0.031964,-0.8805960999999999,-6.265,140.525,3.5175
941,276357,0.768356,0.072956,-0.9769760000000001,-10.2725,129.57,5.74
942,276454,0.636352,0.341844,-1.0321200000000001,-6.65,109.865,5.67
943,276551,1.944924,1.0023520000000001,-1.8004759999999997,19.6175,91.595,5.495
944,276648,0.5343600000000001,-0.091012,-0.627812,70.875,41.1425,12.8275
945,276745,0.8757159999999999,-0.15420799999999998,-1.114348,54.11,32.34,14.7
946,276843,0.713212,0.11467999999999999,-0.8713241,32.655,19.2675,9.31
947,276940,0.667096,-0.016104,-0.883768,26.6175,14.595,6.9475
948,277037,0.6480640000000001,0.064416,-0.8601,20.58,8.6975,4.9
949,277134,0.6307401,0.068564,-0.831308,15.4,5.7925,2.345
950,277231,0.6197600000000001,0.077592,-0.824232,12.5475,3.6225,0.4025
951,277328,0.610488,0.08369201,-0.8220360000000001,10.1325,1.9425,-1.225
952,277425,0.599264,0.08296,-0.813496,8.33,0.8925,-2.5725
953,277522,0.5892601,0.093696,-0.8142281,6.8775,0.4375,-3.7625
954,277619,0.5926760999999999,0.10540799999999999,-0.8215481,5.81,0.245,-4.55
955,277716,0.582184,0.10687200000000001,-0.8091041,5.3375,0.0875,-4.935
956,277813,0.578036,0.10540799999999999,-0.8149601,4.34,0.2975,-5.04
957,277911,0.5826720000000001,0.10809200000000001,-0.805688,3.5525,0.0,-5.0925
958,278008,0.5873079999999999,0.105652,-0.808372,3.395,-0.2625,-4.97
959,278105,0.580964,0.11028800000000001,-0.8108121,3.185,-0.4725,-4.585
960,278202,0.5892601,0.10516400000000001,-0.793244,3.43,-0.595,-3.85
961,278299,0.582428,0.112728,-0.813008,3.99,-0.8575,-3.0275
962,278396,0.57706,0.112728,-0.8091041,4.2525,-0.9275,-2.2575
963,278493,0.589016,0.109556,-0.7820199999999999,4.3925,-0.595,-1.5575
964,278590,0.58194,0.099552,-0.7856801,4.27,-0.2275,-0.665
965,278687,0.585356,0.096624,-0.7929999999999999,4.1125,0.105,-0.1225
966,278784,0.5856,0.096624,-0.807396,3.8675,0.385,0.035
967,278881,0.587796,0.09638,-0.8105680000000001,3.745,0.5775,0.07
968,278979,0.587064,0.099552,-0.8108121,3.5875,0.49,-0.0175
969,279076,0.586332,0.106628,-0.815448,3.5,0.665,0.1575
970,279173,0.5856,0.10394400000000001,-0.812276,3.815,0.6825,0.7175
971,279270,0.591212,0.112972,-0.8149601,3.885,0.9275,1.225
972,279367,0.5856,0.10394400000000001,-0.809348,4.34,0.875,1.855
973,279464,0.587064,0.100284,-0.809836,4.235,0.9625,2.275
974,279561,0.590968,0.09052401,-0.8117880000000001,3.815,1.225,2.5725
975,279658,0.5958479999999999,0.08881599,-0.809348,3.1325,1.575,2.45
976,279755,0.604144,0.09125599999999999,-0.8066641,2.6775,1.715,1.96
977,279852,0.602436,0.09125599999999999,-0.8086161000000001,2.485,1.89,1.5225
978,279949,0.604632,0.094672,-0.8081281,2.415,2.1,1.0325
979,280046,0.602436,0.09272000000000001,-0.807884,2.3275,2.275,0.8575
980,280144,0.5987760999999999,0.098088,-0.813008,1.9775,2.5375,0.9625
981,280241,0.5917,0.1037,-0.823744,1.925,3.3775,1.505
982,280338,0.5799880000000001,0.109556,-0.8471681000000001,2.5725,6.02,2.6775
983,280435,0.460916,-0.024888,-0.7951961,5.0575,11.5675,4.0775
984,280532,0.597312,0.061975999999999996,-0.83814,-1.7325,24.92,3.2725
985,280629,0.542656,0.06588,-0.834724,-4.2875,34.755,3.9725
986,280726,0.518256,0.044407999999999996,-0.81984,-9.065,47.355,4.27
987,280823,0.5165481,0.055144000000000006,-0.8522921,-14.7,64.295,4.2525
988,280920,0.45725600000000005,0.10223600000000001,-0.9459880999999999,-19.215,85.3125,5.9325
989,281017,0.43041599999999997,0.14152,-0.98088,-16.38,105.91,10.92
990,281114,0.521184,0.07686,-1.05774,-7.945,124.11,20.44
991,281211,0.5614439999999999,0.13908,-1.1346,0.77,135.59,38.955
992,281308,0.5565640000000001,0.14518,-1.164124,18.06,154.1925,60.97
993,281405,0.511668,0.335012,-1.2402520000000001,32.865,172.27,85.225
994,281502,0.4553041,0.48263199999999995,-1.1794959999999999,68.985,197.89,113.75
995,281599,0.772504,0.521672,-1.135576,90.70251,237.195,129.6925
996,281696,1.003328,0.13542,-0.969412,91.77,296.1,132.965
997,281794,1.292468,0.539972,-1.360056,82.915,347.795,126.875
998,281891,0.9057280999999999,0.662704,-1.636752,85.645,357.84,121.625
999,281988,1.319552,0.409432,-1.273436,147.245,360.815,123.5675
1000,282085,1.067256,0.23472800000000002,-1.016748,174.965,415.94,103.39
1001,282182,0.874984,0.25498000000000004,-1.28588,148.0325,446.3375,97.4225
1002,282279,0.158844,-0.160796,-2.7542720000000003,92.41751,442.9775,94.1325
1003,282376,1.830732,0.050263999999999996,-2.005436,72.1525,272.3525,141.925
1004,282473,1.339072,0.477264,-2.700104,-1.47,83.96500999999999,123.445
1005,282570,-0.091012,0.7439560000000001,-1.514996,-64.61,-31.3075,41.545
1006,282667,-0.7605481,0.9472079999999999,-0.927932,-70.0525,-54.67,5.4775
1007,282764,-0.2379,0.9396440999999999,-1.015528,-46.3575,-41.1075,-14.0175
1008,282861,0.21228000000000002,0.782508,-1.27734,-10.7275,-37.1175,-36.9775
1009,282958,0.28011199999999997,0.535824,-1.343708,13.7375,-58.275,-57.6275
1010,283056,0.24424400000000002,0.26766799999999996,-1.255868,21.805,-92.995,-70.665
1011,283152,0.254736,0.07076001,-1.1326479999999999,12.81,-125.5975,-77.875
1012,283250,0.332816,-0.008784,-1.06628,-5.705,-153.44,-77.875
1013,283347,0.3965,-0.007320001,-1.0279719999999999,-22.4875,-178.605,-72.8875
1014,283444,0.45383999999999997,0.006587999999999999,-0.9884440000000001,-32.095,-201.53,-65.94
1015,283541,0.496296,0.02074,-0.9630681000000001,-37.38,-221.48,-60.445
1016,283638,0.54168,0.014152000000000001,-0.9467200000000001,-41.5975,-238.42,-58.94
1017,283735,0.619272,-0.03294,-0.9335440999999999,-46.725,-252.2625,-61.2675
1018,283832,0.7032079999999999,-0.042456,-0.9154880999999999,-54.74,-264.39,-65.345
1019,283929,0.749324,-0.035624,-0.8969440000000001,-62.8775,-274.4525,-68.7575
1020,284026,0.7795801,-0.010004,-0.892308,-68.67,-281.645,-72.9225
1021,284123,0.8174001000000001,-0.001952,-0.919392,-71.2775,-285.285,-78.26
1022,284220,0.883524,0.00366,-1.007232,-70.6825,-287.1225,-84.805
1023,284317,0.942572,-0.026108,-1.08702,-69.4225,-289.3275,-91.49
1024,284414,0.9716081,-0.11467999999999999,-1.1446040000000002,-68.5125,-292.18,-97.58
1025,284511,1.00528,-0.21081599999999998,-1.1636360000000001,-71.085,-293.895,-101.2725
1026,284608,1.054324,-0.26766799999999996,-1.2019440000000001,-78.015,-292.5475,-101.605
1027,284706,1.2343959999999998,-0.361608,-1.333216,-85.90751,-287.9275,-99.9075
1028,284803,1.548912,-0.532652,-1.519388,-93.345,-285.9675,-97.1075
1029,284900,1.7938880000000001,-0.660752,-1.594784,-102.8125,-291.0075,-88.2175
1030,284997,1.8343919999999998,-0.6722199999999999,-1.519388,-109.9875,-298.865,-71.5575
1031,285094,1.869284,-0.5453399999999999,-1.324676,-107.45,-299.915,-52.185
1032,285191,1.9215,-0.271816,-1.01626,-91.385,-290.9375,-34.3175
1033,285288,1.99958,0.172996,-0.61488,-63.875,-273.7875,-22.1725
1034,285385,2.039596,0.366244,-0.18178,-21.6125,-248.2725,-18.2175
1035,285482,2.01788,0.303292,0.3538,13.93,-213.71,-29.6975
1036,285579,2.0510639999999998,-0.139324,0.8488761,27.8775,-175.6475,-47.6
1037,285676,2.085468,-0.837408,1.319796,5.74,-132.5275,-54.95
1038,285773,2.1474439999999997,-0.8239880999999999,1.196576,-57.575,-84.7525,-56.84
1039,285870,2.204052,-0.376492,0.9037761000000001,-96.11,-40.8975,-60.935
1040,285967,2.083272,-0.170068,0.70516,-60.445,-0.6125,-59.605
1041,286064,2.007144,-0.270596,0.49532,24.57,38.5,-43.6625
1042,286161,1.904664,-0.59048,0.329888,100.8175,69.615,-19.7225
1043,286258,0.9057280999999999,-1.129232,0.007320001,120.295,88.27,4.62
1044,286355,-0.441884,-0.7288279999999999,-1.240984,90.265,115.4475,78.27750999999999
1045,286453,-1.0025959999999998,0.24131599999999997,-1.927356,58.8875,134.155,111.5625
1046,286550,0.173484,-0.45457200000000003,-0.054655999999999996,96.5825,162.155,147.0175
1047,286647,2.092056,0.477508,-0.90646,-10.675,227.01,56.945
1048,286744,1.2017,-0.21716,-1.461316,-20.65,193.2525,9.695
1049,286841,1.1509479999999999,-0.08174001,-1.494744,-12.775,180.7225,18.9
1050,286938,0.9152440000000001,0.207156,-0.935008,-11.9,170.03,32.7425
1051,287035,0.880352,0.608536,-1.097024,-17.9375,159.7925,17.7625
1052,287132,0.81862,0.35136,-0.942816,-7.105,154.77,7.42
1053,287229,0.745664,0.0244,-0.8698601,-7.035,150.7275,0.8925
1054,287326,0.742004,-0.026595999999999998,-0.883768,-13.37,144.655,-2.7825
1055,287423,0.7659161,0.186904,-0.8571719999999999,-23.205,138.3375,-4.0075
1056,287520,2.5705400000000003,1.013576,-1.936384,-11.585,133.07,-7.4725
1057,287617,0.02806,0.21374400000000002,-0.677344,51.4325,65.1175,5.425
1058,287714,1.024556,-0.149572,-1.285148,62.16,38.85,8.75
1059,287811,0.6351319999999999,0.04148,-0.787144,38.045,30.1525,3.815
1060,287908,0.715408,0.100772,-0.9267120000000001,28.4375,20.755,3.2375
1061,288005,0.672708,-0.007076001,-0.80276,25.0775,17.1675,4.4975
1062,288103,0.6470880999999999,0.057828,-0.8422879999999999,15.19,13.02,2.1175
1063,288200,0.62708,0.060024,-0.8359440999999999,9.555,9.7125,-0.7
1064,288297,0.610244,0.086864,-0.833992,5.53,8.33,-3.045
1065,288394,0.604876,0.115168,-0.8222799999999999,2.7475,7.315,-4.62
1066,288491,0.6075600999999999,0.09735601,-0.814472,1.925,6.265,-5.215
1067,288588,0.62098,0.159088,-0.8540000000000001,0.6475,5.425,-5.8975
1068,288685,0.6036560999999999,0.143228,-0.8335040000000001,1.7675,4.655,-5.95
1069,288782,0.598288,0.138348,-0.8100801,0.6825,3.99,-4.7775
1070,288879,0.600484,0.126148,-0.8091041,1.295,3.115,-4.06
1071,288976,0.5978,0.131272,-0.7986121,1.715,2.1875,-3.92
1072,289073,0.599508,0.121024,-0.80276,2.1,1.4875,-3.7275
1073,289170,0.6029241,0.128588,-0.801296,2.485,0.875,-3.4475
1074,289267,0.600484,0.128588,-0.797636,2.7825,0.105,-3.3425
1075,289364,0.597312,0.133224,-0.7978801,3.255,-0.63,-3.115
1076,289461,0.5826720000000001,0.14005599999999999,-0.7956840999999999,3.8675,-1.435,-2.5725
1077,289558,0.57828,0.139812,-0.8042239999999999,4.4975,-1.575,-1.9075
1078,289656,0.5787680000000001,0.13639600000000002,-0.797148,5.145,-1.365,-1.0675
1079,289753,0.57706,0.134688,-0.8025161,5.5475,-0.77,-0.035
1080,289850,0.58072,0.12688,-0.7998321,5.67,0.175,0.595
1081,289947,0.5936520000000001,0.122244,-0.81252,5.775,0.945,1.1375
1082,290044,0.591212,0.119072,-0.803492,5.88,1.1725,1.19
1083,290141,0.5980439999999999,0.118828,-0.8071520000000001,5.775,1.26,1.085
1084,290238,0.596092,0.11614400000000001,-0.80276,5.5475,1.1025,0.8925
1085,290335,0.6019479999999999,0.11321600000000001,-0.8066641,5.1625,1.05,0.4375
1086,290432,0.5948720000000001,0.119804,-0.8039801,4.865,0.8225,0.0
1087,290529,0.58804,0.11712,-0.8071520000000001,4.725,0.8925,-0.0875
1088,290626,0.597068,0.122976,-0.8230120999999999,4.62,1.645,0.3325
1089,290723,0.591212,0.125172,-0.815204,5.1625,1.89,1.12
1090,290820,0.595116,0.116632,-0.814472,5.1275,2.52,1.8025
1091,290917,0.60512,0.10809200000000001,-0.8113001,5.425,3.185,2.2575
1092,291014,0.607804,0.09784401,-0.809348,4.9525,3.5525,1.82
1093,291112,0.604876,0.098576,-0.813008,3.9375,4.1825,0.7
1094,291209,0.459208,0.09906401,-0.814472,2.6075,6.16,-0.2975
1095,291306,0.60146,0.08857201,-0.8335040000000001,-1.8025,19.355,0.035
1096,291403,0.5453399999999999,0.08564401,-0.8220360000000001,-6.8075,29.9775,-0.9275
1097,291500,0.558516,0.08906,-0.8300879999999999,-8.1375,37.3975,-1.085
1098,291597,0.57462,0.09394001,-0.805932,-10.7275,46.7775,-1.47
1099,291694,0.5692520000000001,0.10248,-0.803492,-15.1725,55.86,-0.6475
1100,291791,0.5734,0.10223600000000001,-0.823256,-18.13,65.94,0.63
1101,291888,0.559004,0.098576,-0.8481440999999998,-19.5825,75.0225,1.715
1102,291985,0.545096,0.083204,-0.8840120000000001,-19.25,84.6475,3.045
1103,292082,0.532652,0.0793,-0.9620920000000001,-19.2675,94.08,5.53
1104,292179,0.579256,0.087352,-1.009672,-14.2625,100.8525,11.165
1105,292276,0.554856,0.158844,-1.065548,-3.57,104.65,22.2425
1106,292373,0.577304,0.167872,-1.0431,14.805,107.52,37.59
1107,292470,0.5121560000000001,0.21057199999999998,-1.026752,23.205,112.0875,52.3075
1108,292567,0.571692,0.36648800000000004,-0.85156,43.085,129.22,70.0875
1109,292664,0.576572,0.431392,-0.987712,58.0825,177.0475,83.73751
1110,292762,1.011868,0.292556,-0.9381801,59.71,237.58,90.23001
1111,292859,0.9823440999999999,0.236436,-1.116544,54.32,315.84,89.8975
1112,292956,0.9857600000000001,0.302072,-1.250988,65.6075,370.44,97.21251
1113,293053,0.837408,0.297192,-1.1289879999999999,69.4925,374.3075,98.6475
1114,293150,1.422764,0.609268,-1.322968,74.3225,387.73,82.5125
1115,293247,1.269044,0.23253200000000002,-1.206336,90.58001,445.515,51.24
1116,293344,0.9596520000000001,0.411628,-1.566724,82.7925,484.3475,62.16
1117,293441,0.624396,0.231068,-1.416664,72.2925,484.54,82.95
1118,293538,1.604544,-0.23741199999999998,-2.6871720000000003,55.055,396.83,112.9625
1119,293635,2.118652,-0.042944,-3.04146,50.8725,156.5025,139.475
1120,293732,0.9598959999999999,0.587064,-2.542724,-25.6725,-18.3225,65.94
1121,293829,-0.586332,0.54656,-1.13216,-31.7275,-94.92,28.3325
1122,293926,-0.7044279999999999,0.734928,-0.8193521,-36.82,-99.785,20.5275
1123,294023,-0.066124,0.711504,-1.006988,-10.01,-72.24,10.6225
1124,294121,0.293288,0.6878361,-1.2609920000000001,13.86,-74.9175,-8.5225
1125,294218,0.341844,0.536556,-1.286368,32.4625,-103.32,-31.71
1126,294315,0.29426399999999997,0.34648,-1.16388,42.035,-138.495,-50.4
1127,294412,0.308904,0.142008,-1.010892,44.065,-167.895,-59.3775
1128,294509,0.40357600000000005,0.022203999999999998,-0.9333,37.7825,-191.6425,-59.955
1129,294606,0.5070319999999999,-0.019032,-0.9059721,26.4425,-212.73,-55.0375
1130,294703,0.560956,-0.012931999999999999,-0.8744960999999999,14.945,-232.9075,-48.3875
1131,294800,0.6158561,-0.008784,-0.8657120999999999,6.475,-250.46,-41.825
1132,294897,0.7129681,-0.016347999999999998,-0.868396,0.07,-264.74,-35.91
1133,294994,0.803492,-0.005368,-0.8637601,-7.2625,-278.355,-30.8875
1134,295091,0.8510719999999999,0.05587601,-0.83814,-16.835,-291.41,-28.21
1135,295188,0.8727879999999999,0.130052,-0.794952,-25.095,-301.805,-29.435
1136,295285,0.892064,0.1891,-0.808372,-30.695,-307.895,-34.8075
1137,295382,0.9628241,0.24156,-0.815936,-34.16,-309.8725,-43.75
1138,295480,0.9969841,0.25058800000000003,-0.855708,-36.9775,-309.9775,-54.1625
1139,295577,1.0309,0.188856,-0.8940161,-40.4425,-309.47,-66.0625
1140,295674,1.072136,0.109556,-0.9237841,-48.685,-307.4925,-77.14
1141,295771,1.148508,0.090768,-1.010892,-61.705,-302.9775,-85.435
1142,295868,1.2963719999999999,0.1159,-1.19926,-73.3425,-296.73,-90.72001
1143,295965,1.568188,0.106628,-1.468392,-79.3975,-293.265,-94.44751
1144,296062,1.868064,0.0366,-1.619428,-80.6575,-298.9875,-97.07251
1145,296159,1.96298,-0.177144,-1.474004,-79.9225,-311.5,-97.19501
1146,296256,1.907348,-0.532408,-1.1770559999999999,-84.1925,-319.9525,-93.555
1147,296353,1.950536,-0.6280560000000001,-0.922076,-98.1925,-314.86,-84.01751
1148,296450,1.943704,-0.388936,-0.6563601,-108.08,-295.68,-63.735
1149,296547,1.8012080000000001,-0.052703999999999994,-0.272304,-92.1725,-264.3375,-41.1775
1150,296644,1.6552959999999999,0.044652,0.316224,-54.2675,-218.33,-22.68
1151,296741,1.922232,-0.29792399999999997,0.8147161,-20.86,-160.2825,-3.1675
1152,296838,2.3272720000000002,-0.6736840000000001,1.069208,-35.2275,-106.7325,10.045
1153,296936,2.3541119999999998,-0.6563601,1.045052,-98.61251,-72.2925,0.8925
1154,297033,2.246752,-0.313052,1.055056,-144.1825,-45.0275,-22.33
1155,297130,2.109136,0.077592,0.9577,-118.965,-7.455,-36.19
1156,297227,2.044964,0.048556,0.6675840000000001,-25.76,39.3925,-31.675
1157,297324,2.02642,-0.26596,0.35477600000000004,75.7925,78.26,-17.15
1158,297421,0.462624,0.11053199999999999,-0.337208,119.8925,97.475,3.885
1159,297518,-0.53314,-0.219844,-1.106296,136.78,132.1775,50.82
1160,297615,-0.7224841,0.607804,-1.9068599999999998,106.47,132.5625,73.395
1161,297712,0.055144000000000006,-0.404796,-0.533384,126.1575,160.475,86.765
1162,297809,1.8766040000000002,-0.317688,-0.55388,55.6325,208.005,4.585
1163,297906,1.1150799999999998,-1.0260200000000002,-1.3351680000000001,7.035,186.935,-23.275
1164,298003,1.1533879999999999,-0.9406200000000001,-1.535736,-1.5925,174.4925,0.63
1165,298100,0.9772200999999999,-0.09150001,-0.9894200000000001,-21.21,162.9075,30.6075
1166,298197,0.91622,0.8239880999999999,-1.077748,-34.93,152.565,22.715
1167,298294,0.865956,0.735172,-0.9474520000000001,-18.62,145.04,9.1875
1168,298392,0.720288,0.10906800000000001,-0.8642481,-4.1125,139.055,-1.225
1169,298489,0.7278521,-0.240096,-0.8720559999999999,-3.2375,133.07,-1.6975
1170,298586,0.776896,0.000732,-0.908168,-15.47,126.0,1.82
1171,298683,1.8168240000000002,1.0138200000000002,-1.603324,-13.44,114.6075,0.2275
1172,298780,0.32696,0.58804,-0.830576,39.2,62.335,3.78
1173,298877,0.772504,-0.08174001,-1.041636,70.875,31.675,12.705
1174,298974,0.72346,-0.10418800000000002,-0.9145120999999999,51.9225,38.0975,9.4325
1175,299071,0.7415161,0.148596,-0.960628,38.5525,19.39,7.105
1176,299168,0.690032,0.005856,-0.8725440999999999,31.7975,16.625,7.5075
1177,299265,0.6502600000000001,0.07393200000000001,-0.863516,23.765,11.865,6.6325
1178,299362,0.631228,0.045384,-0.8459479999999999,17.8675,9.1875,4.4975
1179,299459,0.6109760000000001,0.066124,-0.838628,12.635,7.245,1.61
1180,299557,0.6007279999999999,0.077836,-0.776408,8.89,6.3875,-1.2075
1181,299654,0.6080479999999999,0.096624,-0.8193521,5.425,5.915,-3.01
1182,299751,0.60634,0.102968,-0.8103239999999999,3.92,4.9875,-3.9375
1183,299848,0.59902,0.10858,-0.8103239999999999,3.0625,4.2,-4.445
1184,299945,0.5941401,0.10540799999999999,-0.807884,2.8525,3.4825,-4.5675
1185,300042,0.593164,0.117852,-0.811056,2.73,3.2375,-4.515
1186,300139,0.5856,0.10858,-0.8310639999999999,3.1325,3.045,-3.92
1187,300236,0.5948720000000001,0.121512,-0.8203280000000001,3.85,2.9575,-3.22
1188,300333,0.595604,0.12175599999999999,-0.8049561,3.7625,2.415,-2.38
1189,300430,0.586088,0.10906800000000001,-0.7993439999999999,3.9725,2.2225,-1.6975
1190,300527,0.5934081,0.11614400000000001,-0.803736,4.1825,2.065,-1.295
1191,300624,0.5997520000000001,0.116388,-0.7954399999999999,4.795,1.7675,-0.945
1192,300722,0.6007279999999999,0.11394800000000001,-0.807884,4.8475,1.47,-0.385
1193,300819,0.6080479999999999,0.108824,-0.779824,5.11,0.98,0.28
1194,300916,0.60634,0.11541199999999999,-0.780312,4.935,0.5075,0.8400001
1195,301013,0.6058520000000001,0.110044,-0.7986121,5.355,-0.28,1.75
1196,301110,0.6039,0.11028800000000001,-0.797392,5.3025,-1.2075,2.0825
1197,301207,0.59536,0.098576,-0.801784,5.3025,-1.9425,1.9425
1198,301304,0.593896,0.102968,-0.8039801,5.285,-2.2575,1.435
1199,301401,0.592188,0.10345599999999999,-0.8042239999999999,5.18,-1.855,1.0325
1200,301498,0.589992,0.101504,-0.8042239999999999,4.9875,-1.4525,0.7525
1201,301595,0.596092,0.10931199999999999,-0.8066641,4.76,-1.19,0.735
1202,301692,0.59536,0.10614000000000001,-0.798856,4.655,-1.0675,0.9275
1203,301789,0.59536,0.101504,-0.801784,4.5325,-1.05,1.1025
1204,301887,0.596092,0.110044,-0.8113001,4.3225,-0.91,1.3125
1205,301984,0.599996,0.105652,-0.8076399999999999,4.515,-0.455,2.03
1206,302081,0.604388,0.09394001,-0.8086161000000001,4.3225,-0.2275,2.3625
1207,302178,0.59902,0.091988,-0.8039801,3.815,0.5075,2.2225
1208,302275,0.58316,0.093696,-0.8239880999999999,3.2025,1.6975,1.82
1209,302372,0.522892,0.018788,-0.8127641,3.8325,5.8975,1.785
1210,302469,0.571692,0.06929600000000001,-0.8344801,-0.63,16.66,0.49
1211,302566,0.542168,0.06661201,-0.824232,-3.7625,26.565,-1.68
1212,302663,0.559004,0.06270801,-0.8142281,-6.3875,35.6125,-3.2025
1213,302760,0.5575399999999999,0.07978801,-0.8117880000000001,-11.2,46.025,-4.2
1214,302857,0.578036,0.091988,-0.787876,-15.1725,57.54,-3.4125
1215,302954,0.5751081,0.10223600000000001,-0.833016,-19.3375,70.0875,-1.785
1216,303051,0.543632,0.098088,-0.839116,-19.67,79.4675,-1.0325
1217,303148,0.533384,0.08857201,-0.8869401,-19.3725,87.46500999999999,0.9975
1218,303246,0.568032,0.07222401,-0.9320801,-17.605,94.85,2.59
1219,303343,0.5738880000000001,0.055388,-0.9530641,-13.8775,102.165,6.9475
1220,303440,0.5795,0.10418800000000002,-0.9940559999999999,-9.1175,108.36,13.0375
1221,303537,0.6224441,0.16689600000000002,-1.0025959999999998,1.4,112.175,24.5525
1222,303634,0.506788,0.14396,-1.084336,18.0425,120.3125,38.57
1223,303731,0.503128,0.293532,-1.019676,34.8425,131.7225,54.775
1224,303828,0.483364,0.43066000000000004,-1.1770559999999999,57.0325,169.1025,72.8
1225,303925,0.874252,0.413092,-0.8940161,72.485,218.5225,88.655
1226,304022,0.9964959999999999,0.31158800000000003,-1.175836,77.21,293.1425,90.8775
1227,304119,0.989176,0.264008,-1.06628,96.28501,354.9875,92.90751
1228,304216,0.9691681000000001,0.30256,-1.361276,107.1525,377.7375,96.93251
1229,304313,1.56526,0.7388319999999999,-1.00406,121.7125,372.26,90.755
1230,304411,1.2099959999999998,0.14152,-1.247816,146.9125,436.1875,50.2425
1231,304508,1.136796,0.12444000000000001,-1.141676,131.11,475.4575,38.5875
1232,304605,0.8071520000000001,0.09418401,-1.397144,98.035,485.0825,51.6775
1233,304702,0.793976,-0.9440360999999999,-3.7556480000000003,46.235,419.58,65.135
1234,304799,1.871968,-0.052948,-2.570296,27.195,196.4725,124.355
1235,304896,1.049688,0.43944399999999995,-2.584692,-38.85,29.6975,92.2075
1236,304993,-0.27938,0.4697,-1.220244,-59.36,-63.98,56.4375
1237,305090,-0.604876,0.676612,-0.9059721,-60.55,-73.675,48.65
1238,305187,-0.068564,0.7166279999999999,-1.030656,-38.535,-60.8125,39.7075
1239,305284,0.30475599999999997,0.7510321,-1.264896,-14.5075,-62.58,16.6775
1240,305381,0.382348,0.6673399999999999,-1.312232,7.455,-88.44501,-10.4475
1241,305478,0.35038400000000003,0.482388,-1.214876,27.1775,-123.4975,-32.935
1242,305576,0.388204,0.280356,-1.098488,36.5225,-155.54,-47.775
1243,305673,0.487756,0.131272,-1.01138,34.7725,-184.03,-55.72
1244,305770,0.524112,0.05002,-0.925736,26.075,-210.805,-57.5925
1245,305867,0.527284,0.0305,-0.8437520000000001,16.45,-233.065,-54.2325
1246,305964,0.5577840000000001,0.030987999999999998,-0.8015399999999999,8.505,-248.64,-48.7375
1247,306061,0.640012,0.02684,-0.8047121,2.03,-259.49,-44.2925
1248,306158,0.730292,0.021716,-0.790804,-4.9175,-269.2025,-41.8425
1249,306255,0.769576,0.059048,-0.74542,-14.21,-278.3725,-41.23
1250,306352,0.7795801,0.135176,-0.652212,-23.205,-284.3925,-43.505
1251,306449,0.805688,0.213988,-0.7078439999999999,-28.56,-285.2325,-49.6825
1252,306546,0.8554641,0.269376,-0.7664041,-29.3825,-282.5725,-58.975
1253,306643,0.9333,0.2928,-0.8547319999999999,-27.3875,-280.1225,-70.1225
1254,306740,0.9530641,0.24278000000000002,-0.899384,-25.62,-280.5075,-82.04
1255,306838,0.9608721,0.145424,-0.9211,-27.16,-280.5425,-93.4675
1256,306935,1.069696,0.053191999999999996,-0.9964959999999999,-34.615,-276.745,-101.605
1257,307032,1.209508,-0.018056,-1.1009280000000001,-43.5925,-271.915,-103.74
1258,307129,1.424716,-0.00244,-1.301008,-54.88,-269.3075,-101.535
1259,307226,1.613572,0.006344,-1.399584,-62.2125,-272.335,-97.965
1260,307323,1.7277639999999999,-0.03294,-1.408368,-64.225,-277.4975,-95.2875
1261,307420,1.8544,-0.115656,-1.33346,-61.8975,-280.21,-91.0
1262,307517,1.9522439999999999,-0.17446,-1.16998,-56.07,-279.125,-80.325
1263,307614,1.94346,-0.13785999999999998,-0.9006040999999999,-50.155,-273.91,-64.7325
1264,307711,1.932968,-0.041724000000000004,-0.587064,-43.33,-261.9925,-50.7675
1265,307808,1.98616,0.037576,-0.371612,-36.96,-242.76,-44.59
1266,307905,2.040816,0.08417999999999999,-0.159088,-32.935,-220.605,-45.78
1267,308002,2.016416,-0.021716,0.21008400000000002,-29.6625,-197.785,-49.175
1268,308100,1.9356520000000002,-0.38552,0.721264,-33.18,-168.805,-47.4075
1269,308197,2.090348,-0.665632,0.9940559999999999,-56.1575,-128.17,-39.6025
1270,308294,2.177212,-0.548756,0.9557479999999999,-91.2625,-86.3625,-33.39
1271,308391,2.107672,-0.3355,0.9496479999999999,-95.1475,-48.72,-29.6275
1272,308488,2.028372,-0.186904,0.8552200000000001,-51.835,-7.9975,-22.5925
1273,308585,1.7345959999999998,0.22691999999999998,0.45993999999999996,17.4825,33.2325,-7.35
1274,308682,1.648952,-0.8605879999999999,1.286856,144.3925,106.5925,31.2375
1275,308779,0.279868,-0.0366,-1.35786,118.5275,129.395,60.13
1276,308876,-0.266936,-0.33818400000000004,-1.7855919999999998,117.32,139.8075,66.0975
1277,308973,0.9391560999999999,-0.021472,-0.9232961,41.965,171.5,7.42
1278,309070,1.264896,-0.417972,-0.488,12.3375,192.15,-38.64
1279,309167,1.095072,-1.197308,-1.4593639999999999,20.475,175.6475,-20.615
1280,309265,0.9171961,-0.9208561,-1.272704,3.0625,161.42,9.87
1281,309362,0.763476,0.047580000000000004,-0.9186601000000001,-22.155,152.775,31.1675
1282,309459,0.9093880999999999,0.8115439999999999,-1.072624,-33.4775,151.1825,19.32
1283,309556,0.865468,0.621712,-0.8998719999999999,-15.1025,148.4175,5.6875
1284,309653,0.739564,0.132004,-0.8547319999999999,-3.7625,145.7575,1.54
1285,309750,0.7256560000000001,-0.166164,-0.9091440000000001,-4.375,143.3775,0.6475
1286,309847,0.695156,0.153476,-0.9516,-17.29,132.965,1.295
1287,309944,2.171112,1.494256,-2.0215400000000003,-9.8875,117.355,-1.0675
1288,310041,0.472384,-0.031232,-0.585112,55.755,60.2525,2.835
1289,310138,0.952332,-0.38503200000000004,-1.2444,49.98,35.0875,10.0275
1290,310235,0.7034521,0.186172,-0.831308,21.1925,25.34,3.3775
1291,310332,0.623908,0.030744,-0.8788879999999999,16.9575,18.7075,2.345
1292,310430,0.646112,0.065148,-0.8493641,14.595,13.895,2.6425
1293,310527,0.628544,0.041236,-0.8359440999999999,8.995,11.55,-0.2625
1294,310624,0.607316,0.079544,-0.837408,4.025,9.0825,-3.535
1295,310721,0.5997520000000001,0.102724,-0.8344801,0.665,7.805,-6.02
1296,310818,0.604144,0.12444000000000001,-0.829356,-1.1025,7.035,-7.035
1297,310915,0.596092,0.11955999999999999,-0.81984,-1.925,6.16,-7.035
1298,311012,0.59536,0.12395199999999999,-0.806908,-2.345,5.5825,-7.0175
1299,311109,0.5887720000000001,0.144448,-0.81252,-2.345,4.9875,-6.44
1300,311206,0.589992,0.13176,-0.8195960999999999,-1.26,4.4625,-5.0925
1301,311303,0.597312,0.12444000000000001,-0.8203280000000001,-0.455,3.745,-4.13
1302,311400,0.597068,0.116876,-0.815936,0.1225,2.905,-3.6225
1303,311497,0.589504,0.11614400000000001,-0.8003201,0.49,2.17,-3.36
1304,311594,0.588284,0.11541199999999999,-0.8039801,0.945,1.5575,-3.36
1305,311691,0.60024,0.121268,-0.838628,1.2425,0.9975,-3.2375
1306,311788,0.596336,0.12712400000000001,-0.8178880999999999,1.855,0.315,-2.9925
1307,311886,0.5917,0.121512,-0.8047121,2.135,-0.1925,-2.7475
1308,311983,0.58804,0.121268,-0.8044680999999999,2.3275,-0.6825,-2.3275
1309,312080,0.583404,0.121268,-0.803248,2.59,-1.015,-1.96
1310,312177,0.585112,0.119316,-0.8108121,2.835,-1.4,-1.6975
1311,312274,0.5843801,0.12175599999999999,-0.8105680000000001,2.905,-1.3475,-1.365
1312,312371,0.5946279999999999,0.119316,-0.811056,3.1325,-0.945,-1.1375
1313,312468,0.584868,0.11345999999999999,-0.8030041,3.325,-1.225,-1.12
1314,312565,0.589504,0.10638399999999999,-0.786656,3.7275,-1.085,-0.945
1315,312662,0.583648,0.11394800000000001,-0.8091041,3.29,-0.8400001,-1.015
1316,312759,0.5843801,0.11736400000000001,-0.806176,3.465,-0.63,-0.8925
1317,312856,0.583648,0.11394800000000001,-0.815448,3.5,-0.245,-0.735
1318,312953,0.592188,0.118096,-0.815936,3.64,0.0175,-0.665
1319,313050,0.5885281,0.116876,-0.8095920999999999,3.675,-0.0875,-0.4725
1320,313148,0.5875520000000001,0.116632,-0.8091041,4.025,0.21,-0.2625
1321,313245,0.5887720000000001,0.11736400000000001,-0.8091041,4.3225,0.21,0.1225
1322,313342,0.5917,0.11321600000000001,-0.809348,4.4275,0.455,0.3325
1323,313439,0.590236,0.105896,-0.8091041,4.34,0.6475,0.315
1324,313536,0.589504,0.102724,-0.8108121,3.99,1.155,-0.0175
1325,313633,0.590236,0.102968,-0.8113001,3.255,2.135,-0.7
1326,313730,0.5934081,0.09516001,-0.811056,2.52,3.3775,-1.505
1327,313827,0.5917,0.10345599999999999,-0.8169121,1.435,4.7425,-2.45
1328,313924,0.5614439999999999,0.094916,-0.8039801,-0.21,6.5275,-3.3775
1329,314021,0.519476,0.038308,-0.79666,-3.3425,13.9825,-3.4125
1330,314118,0.577304,0.09320801,-0.831308,-6.9475,27.4925,-3.9375
1331,314215,0.5368,0.09345201,-0.818132,-9.065,32.8825,-4.06
1332,314312,0.553148,0.090768,-0.829356,-13.0375,42.1575,-4.3575
1333,314409,0.550952,0.08857201,-0.826672,-16.345,52.0275,-4.83
1334,314506,0.536068,0.08857201,-0.8549761,-20.4925,62.86,-5.0575
1335,314604,0.550952,0.09930800000000001,-0.847412,-23.7125,73.16751,-5.1975
1336,314701,0.5221600000000001,0.07686,-0.9059721,-25.8825,83.80751,-5.215
1337,314798,0.582916,0.091988,-0.9791719999999999,-26.95,94.255,-4.27
1338,314895,0.47677600000000003,0.0793,-1.061888,-26.46,103.6175,2.6425
1339,314992,0.4514,0.13785999999999998,-1.170224,-17.2725,110.25,14.14
1340,315089,0.44725200000000004,0.139324,-1.129964,2.4675,115.7625,23.8875
1341,315186,0.45896400000000004,0.23301999999999998,-0.9635560999999999,5.11,118.93,30.0125
1342,315283,0.71614,0.310368,-0.7986121,17.0975,151.3925,36.3825
1343,315380,0.795928,0.36209600000000003,-0.989664,28.5775,213.5875,38.3075
1344,315477,1.02968,0.50142,-1.095804,37.975,278.845,35.1575
1345,315574,0.9511120000000001,0.158844,-1.030168,75.88,352.0825,39.9875
1346,315671,0.868396,-0.058316,-1.2136559999999998,98.3325,373.6775,51.8
1347,315768,1.106784,0.004392,-1.071404,65.50251,388.15,17.7275
1348,315865,1.1831559999999999,0.319152,-1.3022280000000002,17.0625,421.05,-18.795
1349,315963,0.8754719999999999,0.547536,-1.641388,17.1675,433.195,-0.7525
1350,316060,0.654896,0.09394001,-1.774368,47.6525,411.39,24.465
1351,316157,1.149484,-0.6919841,-2.368752,66.4125,320.215,55.1425
1352,316254,1.075308,-0.129076,-2.689612,52.325,123.2,107.765
1353,316351,0.209596,0.17836400000000002,-1.7690000000000001,25.5325,-11.76,94.2025
1354,316448,-0.341356,0.357216,-1.166564,2.905,-57.995,85.99501
1355,316545,-0.338672,0.711992,-1.1631479999999998,-4.235,-68.145,85.365
1356,316642,0.01464,0.9291520000000001,-1.296616,16.835,-73.4825,77.105
1357,316739,0.267424,1.0467600000000001,-1.378844,52.15,-93.1525,55.16
1358,316836,0.325496,0.9174399999999999,-1.288564,92.48751,-125.265,26.7225
1359,316933,0.296948,0.630252,-1.0706719999999998,121.6775,-157.395,4.9175
1360,317030,0.315736,0.45725600000000005,-0.9286639999999999,125.0025,-183.2775,-6.545
1361,317127,0.45603599999999994,0.401136,-0.8625401,109.655,-203.7175,-14.2275
1362,317224,0.597068,0.472384,-0.80886,87.43,-221.7425,-20.02
1363,317322,0.6231760999999999,0.6375721,-0.772016,68.6875,-237.2825,-25.83
1364,317419,0.648308,0.785192,-0.734928,61.95,-246.82,-35.4725
1365,317516,0.739564,0.84546,-0.71858,64.6625,-250.53,-50.0675
1366,317613,0.863028,0.8105680000000001,-0.687104,69.9125,-250.565,-67.4275
1367,317710,0.9516,0.7883640000000001,-0.667096,70.385,-249.8825,-84.6825
1368,317807,0.983808,0.79422,-0.677588,67.725,-247.7825,-101.3425
1369,317904,1.0121120000000001,0.778116,-0.72956,66.3425,-244.0375,-117.39
1370,318001,1.059692,0.733952,-0.7881199999999999,66.92,-240.94,-130.76
1371,318098,1.096536,0.654652,-0.8693719999999999,67.97,-240.0825,-140.63
1372,318195,1.161928,0.5797441,-0.9418401,66.64,-241.605,-147.9275
1373,318292,1.22732,0.559736,-0.9952761,61.845,-244.9825,-152.9325
1374,318390,1.2822200000000001,0.603168,-1.019432,56.385,-249.0425,-157.5175
1375,318486,1.347612,0.69906,-1.017724,54.075,-252.035,-162.4525
1376,318584,1.410808,0.801784,-0.97356,57.435,-253.0325,-168.7
1377,318681,1.4818120000000001,0.863516,-0.913048,64.75,-250.005,-178.885
1378,318778,1.574288,0.8100801,-0.819108,74.235,-242.4625,-192.4825
1379,318875,1.613084,0.41553199999999996,-0.67832,83.0025,-231.91,-207.69
1380,318972,1.7109279999999998,0.290116,-0.6224441,75.6,-217.105,-216.265
1381,319069,1.7509439999999998,0.370636,-0.546804,72.345,-198.555,-208.5825
1382,319166,1.752652,0.46433199999999997,-0.42724399999999996,86.625,-178.36,-194.6525
1383,319263,1.773148,0.466772,-0.2318,107.52,-159.88,-179.4625
1384,319360,1.759728,0.275476,0.071004,120.1725,-143.1325,-165.2
1385,319457,1.8358560000000002,-0.02806,0.36234,109.515,-126.28,-149.9575
1386,319554,1.878068,-0.29036,0.538508,68.67,-108.4825,-130.025
1387,319651,1.77998,-0.27571999999999997,0.648552,9.625,-86.1,-111.93
1388,319749,1.7141,-0.040260000000000004,0.6131721,-36.2775,-57.8375,-100.3975
1389,319846,1.6979959999999998,0.17519200000000001,0.5063,-43.9075,-26.1975,-93.135
1390,319943,1.668716,0.250344,0.377224,-16.1175,4.55,-90.8775
1391,320040,1.637728,0.155916,0.248392,28.63,30.2575,-88.76
1392,320137,1.569408,-0.03172,0.14396,67.3575,48.09,-81.935
1393,320234,0.359168,-1.0079639999999999,1.053592,76.2125,63.8575,-71.71500999999999
1394,320331,0.053924,-0.803248,-0.83936,-34.9825,106.435,-95.55
1395,320428,-0.221308,-1.283196,-1.1102,-64.7675,103.0575,-89.0925
1396,320525,0.146644,-0.495076,-1.1653440000000002,-84.00001,125.23,-43.4175
1397,320622,1.467904,0.016104,-1.01748,-79.3275,145.495,32.4975
1398,320719,1.156072,0.305244,-1.159244,-63.0175,141.925,40.215
1399,320816,0.9376921,0.5936520000000001,-1.216828,-67.3925,131.3725,16.905
1400,320913,0.836676,0.721264,-1.077016,-44.6425,126.525,17.8675
1401,321011,0.8095920999999999,0.553392,-0.975512,-28.8575,122.745,8.26
1402,321108,0.709064,0.239364,-0.967216,-16.1175,117.985,0.49
1403,321205,0.6224441,0.040992,-0.9203680000000001,-14.315,113.2425,-2.205
1404,321302,0.55266,0.076616,-0.8359440999999999,-18.9175,107.345,-1.4525
1405,321399,0.612196,0.280844,-0.8400921,-23.625,102.6375,-1.225
1406,321496,2.08498,1.041636,-1.6504159999999999,-9.24,101.8675,-4.6025
1407,321593,0.484584,0.047824,-0.775188,29.9075,58.38,0.035
1408,321690,0.865468,-0.052703999999999994,-1.117764,25.34,29.47,6.265
1409,321787,0.5121560000000001,0.121512,-0.8166680000000001,19.285,23.45,5.425
1410,321884,0.6954,0.142496,-0.9118280000000001,16.9225,19.39,3.185
1411,321981,0.622688,0.071492,-0.850096,18.935,14.9625,3.535
1412,322078,0.623664,0.082228,-0.85644,16.1,9.94,2.485
1413,322175,0.60512,0.09125599999999999,-0.843508,13.4925,6.7725,0.77
1414,322272,0.5978,0.09882,-0.8432639999999999,11.34,4.585,-0.3675
1415,322369,0.582916,0.11736400000000001,-0.83204,9.975,2.765,-1.085
1416,322467,0.567788,0.10858,-0.8230120999999999,9.275,1.8375,-1.1375
1417,322564,0.559736,0.121512,-0.823256,8.6275,1.3125,-1.0325
1418,322661,0.571448,0.128588,-0.8332601000000001,8.1025,1.4875,-0.6825
1419,322758,0.5443640000000001,0.104432,-0.830332,8.1025,1.505,-0.2625
1420,322855,0.5612,0.11834000000000001,-0.830332,7.735,1.75,-0.175
1421,322952,0.5314321,0.11028800000000001,-0.8222799999999999,8.3125,2.1525,0.2975
1422,323049,0.547536,0.10760399999999999,-0.828868,8.54,3.2025,1.015
1423,323146,0.563396,0.101992,-0.8193521,8.82,4.2525,1.505
1424,323243,0.5702281,0.09442801,-0.8166680000000001,8.575,4.4975,1.4175
1425,323340,0.571936,0.09125599999999999,-0.8281360999999999,7.7175,4.2525,0.735
1426,323437,0.576328,0.10248,-0.822768,7.105,4.06,0.4725
1427,323534,0.57218,0.10687200000000001,-0.8252079999999999,7.0175,3.78,0.385
1428,323631,0.57828,0.107116,-0.8220360000000001,6.86,3.325,0.0875
1429,323729,0.5826720000000001,0.107848,-0.8256960999999999,6.615,3.045,0.0
1430,323826,0.5875520000000001,0.10760399999999999,-0.8188641,6.4225,2.415,-0.175
1431,323923,0.5875520000000001,0.09882,-0.8164239999999999,6.125,1.7675,-0.1225
1432,324020,0.58194,0.09516001,-0.815204,5.5825,0.91,-0.455
1433,324117,0.5814520000000001,0.09638,-0.8169121,4.9525,0.525,-0.63
1434,324214,0.577548,0.09394001,-0.812032,4.6025,0.1575,-0.8400001
1435,324311,0.5777920999999999,0.09028,-0.8188641,3.92,0.2625,-0.98
1436,324408,0.58194,0.09052401,-0.823256,3.3775,0.4375,-1.4175
1437,324505,0.5795,0.094672,-0.8195960999999999,3.115,0.455,-1.89
1438,324602,0.579012,0.095648,-0.815936,2.66,0.5075,-2.2925
1439,324699,0.579256,0.09150001,-0.8091041,2.31,0.6475,-2.695
1440,324796,0.5799880000000001,0.087108,-0.808372,2.1175,0.735,-2.66
1441,324893,0.5897479999999999,0.07881200000000001,-0.8261841000000001,2.2225,0.77,-2.5375
1442,324991,0.5941401,0.08052000000000001,-0.8252079999999999,2.2225,0.805,-2.275
1443,325088,0.59048,0.08052000000000001,-0.813496,2.485,0.8925,-1.9075
1444,325185,0.583404,0.089304,-0.8086161000000001,2.52,0.7525,-1.995
1445,325282,0.57584,0.100284,-0.8044680999999999,2.59,0.8575,-1.995
1446,325379,0.567788,0.11321600000000001,-0.830576,2.59,1.19,-1.925
1447,325476,0.599996,0.062220000000000004,-0.826672,2.7125,1.8025,-1.9775
1448,325573,0.57096,0.07978801,-0.770308,2.205,2.485,-2.415
1449,325670,0.561688,0.13542,-0.8383841000000001,1.855,3.5525,-3.08
1450,325767,0.5777920999999999,0.108824,-0.8432639999999999,2.9225,4.6375,-4.06
1451,325864,0.573156,0.09613601,-0.8335040000000001,2.1525,6.1075,-4.9875
1452,325961,0.445788,0.033428,-0.830332,1.4175,9.0825,-5.32
1453,326058,0.592432,0.07393200000000001,-0.84546,-4.655,21.9975,-4.7775
1454,326156,0.513376,0.061975999999999996,-0.84424,-7.5075,30.8525,-4.235
1455,326253,0.522648,0.070516,-0.8657120999999999,-10.5525,42.77,-3.955
1456,326350,0.514352,0.08637601,-0.883524,-15.8025,57.54,-4.025
1457,326447,0.49166000000000004,0.09028,-0.945744,-23.0125,75.4775,-2.03
1458,326544,0.5131319999999999,0.0854,-0.9242720999999999,-27.4575,92.5925,1.9075
1459,326641,0.5206960999999999,0.09735601,-0.9947881,-32.13,107.9925,4.69
1460,326738,0.539484,0.136152,-1.060424,-29.61,118.0375,9.9225
1461,326835,0.50752,0.22057600000000002,-1.146068,-18.795,125.2125,22.8025
1462,326932,0.4933681,0.22667600000000002,-1.114348,10.885,134.61,37.1525
1463,327029,0.5455840000000001,0.271816,-1.088484,45.0625,146.4225,52.15
1464,327126,0.727364,0.5043479999999999,-0.978684,76.8775,165.41,69.475
1465,327223,0.8437520000000001,0.5246,-0.9823440999999999,121.24,212.415,85.085
1466,327321,0.724436,0.30378,-1.115812,147.0175,265.44,82.95
1467,327418,0.9969841,0.278404,-1.128256,164.36,299.1975,81.025
1468,327515,1.0187,0.49117200000000005,-1.331752,181.615,291.445,73.8675
1469,327612,1.114104,0.630008,-1.0889719999999998,224.0525,272.51,60.4625
1470,327709,0.989664,0.23155599999999998,-1.04554,268.03,296.59,24.4825
1471,327806,0.8142281,0.22935999999999998,-1.10166,283.7625,315.1225,14.315
1472,327903,0.472384,0.262544,-0.9801479999999999,271.1975,323.6975,15.925
1473,328000,-0.00366,0.072956,-1.868064,250.1625,299.8625,13.545
1474,328097,1.4295959999999999,0.332572,-2.274324,226.205,140.525,3.4475
1475,328194,0.820084,0.523624,-1.971032,167.125,3.2375,-37.065
1476,328291,-0.158112,0.311832,-1.0431,151.375,-43.9425,-65.36251
1477,328388,-0.136152,0.45115600000000006,-0.9918600000000001,142.065,-54.3025,-55.405
1478,328485,0.196664,0.5214281,-1.134356,152.7925,-59.0625,-35.9625
1479,328583,0.30109600000000003,0.5404601,-1.200724,159.3375,-79.3975,-27.7375
1480,328680,0.268644,0.5826720000000001,-1.140212,152.46,-111.125,-30.94
1481,328777,0.291824,0.655384,-1.060424,141.785,-140.175,-38.5175
1482,328874,0.355752,0.7300479999999999,-0.9955200000000001,133.8575,-163.7825,-46.27
1483,328971,0.43773599999999996,0.790804,-0.9384239999999999,130.2,-184.6775,-55.4575
1484,329068,0.494588,0.834724,-0.8664440000000001,129.045,-203.035,-66.325
1485,329165,0.5543680000000001,0.85156,-0.8113001,128.24,-217.4025,-79.03
1486,329262,0.654652,0.8335040000000001,-0.760304,126.1575,-227.0625,-93.3975
1487,329359,0.7854361,0.797148,-0.8195960999999999,120.75,-235.8125,-107.6425
1488,329456,0.883524,0.7944641,-0.81252,112.8225,-245.7525,-119.42
1489,329553,0.9235399999999999,0.815448,-0.7893399999999999,106.1375,-254.2925,-129.36
1490,329650,0.9479401,0.858392,-0.8605879999999999,102.2525,-258.7725,-138.7575
1491,329747,1.05164,0.839116,-0.806176,101.6925,-260.155,-148.2425
1492,329845,1.1089799999999999,0.8720559999999999,-0.8398479999999999,99.41751,-259.945,-159.565
1493,329942,1.170468,0.8842561,-0.8808401,98.82251,-259.07,-172.235
1494,330039,1.230004,0.8842561,-0.9110959999999999,98.3675,-258.265,-186.06
1495,330136,1.281244,0.8840120000000001,-0.906216,98.2275,-257.075,-199.815
1496,330233,1.328092,0.8901120000000001,-0.8818159999999999,98.98001,-253.8375,-212.205
1497,330330,1.3947040000000002,0.9174399999999999,-0.853756,100.765,-247.905,-223.1075
1498,330427,1.469368,0.9315921,-0.820084,103.425,-239.645,-233.3975
1499,330524,1.538908,0.885964,-0.785192,106.5925,-229.6875,-243.5825
1500,330621,1.582096,0.73688,-0.8239880999999999,107.5025,-218.96,-252.5775
1501,330718,1.6399240000000002,0.21716,-0.658068,104.825,-208.7925,-260.0325
1502,330815,1.7038520000000001,0.158112,-0.677344,82.4775,-196.7175,-257.74
1503,330913,1.701412,0.258884,-0.6375721,73.3425,-182.2275,-241.045
1504,331010,1.687748,0.402844,-0.49141599999999996,84.28,-166.0575,-221.27
1505,331107,1.6387040000000002,0.48312,-0.25351599999999996,106.9425,-148.82,-199.9025
1506,331204,1.573312,0.40504,-0.13761600000000002,124.775,-130.0775,-179.4975
1507,331301,1.689456,0.159332,0.193248,120.47,-111.3525,-159.25
1508,331398,1.70312,-0.082472,0.38966799999999996,80.955,-96.005,-136.9725
1509,331495,1.619428,-0.053436000000000004,0.465552,19.4075,-78.4525,-118.545
1510,331592,1.537932,0.183976,0.399428,-35.5075,-56.56,-107.765
1511,331689,1.497428,0.44383599999999995,0.28694400000000003,-56.945,-33.0925,-103.2675
1512,331786,1.432524,0.60878,0.19032000000000002,-42.8575,-9.695,-104.8075
1513,331883,1.359568,0.556076,0.132736,-5.915,12.7925,-109.725
1514,331980,1.294908,0.328424,0.09345201,29.9425,31.6575,-111.685
1515,332078,1.112152,0.143228,0.009272001,41.3875,44.66,-110.7575
1516,332175,0.9994241,0.8708360999999999,-0.14274,28.21,76.405,-128.9225
1517,332272,0.527528,-0.712724,-0.463844,51.0125,129.3775,-166.075
1518,332369,0.616588,-0.919392,-0.8400921,14.21,134.19,-184.695
1519,332466,0.9806360000000001,-1.051152,-1.115812,-22.6275,150.0625,-174.58
1520,332563,1.317844,-1.470588,-1.3851879999999999,-11.235,158.27,-89.18
1521,332660,1.4213,-1.2038959999999999,-1.470832,-22.3825,144.095,-5.845
1522,332757,1.087508,-0.192272,-1.192428,-41.93,122.115,20.0375
1523,332854,0.7820199999999999,0.823256,-0.9806360000000001,-50.2775,107.835,16.5375
1524,332951,0.5980439999999999,0.876692,-0.8439959999999999,-32.5325,106.4875,1.435
1525,333048,0.5734,0.298168,-0.861808,-14.2975,106.995,-7.525
1526,333145,0.7068681,-0.201544,-0.917684,-7.8575,104.51,-8.75
1527,333243,0.63318,-0.156648,-0.8142281,-15.0325,96.8975,-4.655
1528,333340,2.3860759999999996,1.1148360000000002,-1.7626560000000002,-14.875,89.5125,-5.1625
1529,333437,0.221308,0.14518,-0.641232,15.89,41.8775,-8.3825
1530,333534,0.778116,0.035136,-1.079456,12.7225,20.545,0.28
1531,333631,0.633424,0.101992,-0.843508,15.05,23.065,0.91
1532,333728,0.665144,0.10809200000000001,-0.8642481,10.9725,19.635,-1.12
1533,333825,0.6409881,0.08759601,-0.847412,11.795,13.5975,-0.21
1534,333922,0.623908,0.067832,-0.85034,10.08,10.7975,-0.91
1535,334019,0.6222,0.09320801,-0.826916,8.155,8.6975,-2.0825
1536,334116,0.624884,0.081984,-0.8317960999999999,6.8775,7.3675,-2.9575
1537,334213,0.6182960999999999,0.110776,-0.815692,5.9325,5.425,-3.9725
1538,334310,0.612928,0.114924,-0.8166680000000001,5.2325,4.1475,-4.0775
1539,334407,0.605608,0.1159,-0.81374,5.005,2.625,-3.605
1540,334505,0.5975560000000001,0.11760799999999999,-0.813008,4.7075,1.61,-3.2375
1541,334602,0.58804,0.107848,-0.813496,4.5675,0.945,-2.4675
1542,334699,0.583404,0.11394800000000001,-0.814472,4.165,0.7175,-2.0125
1543,334796,0.589504,0.10906800000000001,-0.8132520999999999,3.955,0.7525,-1.4875
1544,334893,0.58804,0.10321199999999998,-0.812276,3.9025,0.3325,-1.015
1545,334990,0.585112,0.101748,-0.809348,3.8675,0.07,-0.8225
1546,335087,0.5873079999999999,0.09638,-0.805932,3.71,0.2625,-0.805
1547,335184,0.590724,0.09223200000000001,-0.8071520000000001,3.43,0.1575,-0.98
1548,335281,0.587796,0.08808401,-0.8066641,3.0625,0.2275,-1.4175
1549,335378,0.591212,0.09930800000000001,-0.8047121,2.7125,0.4725,-2.0475
1550,335475,0.5917,0.09979600000000001,-0.8054439999999999,2.5375,0.385,-2.275
1551,335572,0.59292,0.100772,-0.8054439999999999,2.4675,0.21,-2.3625
1552,335670,0.596092,0.09735601,-0.805932,2.45,-0.245,-2.2575
1553,335767,0.592432,0.09930800000000001,-0.8044680999999999,2.45,-0.665,-2.1525
1554,335864,0.590236,0.09735601,-0.805932,2.485,-0.77,-2.17
1555,335961,0.5885281,0.096624,-0.8030041,2.3975,-0.8925,-2.31
1556,336058,0.588284,0.09613601,-0.805932,2.24,-0.8400001,-2.2925
1557,336155,0.5948720000000001,0.089304,-0.8066641,2.275,-0.8225,-2.45
1558,336252,0.59048,0.0976,-0.8030041,2.1,-0.91,-2.835
1559,336349,0.592188,0.087352,-0.803492,1.9425,-0.91,-3.045
1560,336446,0.589016,0.10345599999999999,-0.803736,1.9075,-0.6825,-3.045
1561,336543,0.592432,0.107848,-0.8105680000000001,2.17,-0.5775,-3.045
1562,336640,0.5858439999999999,0.09589201,-0.791292,2.275,-0.3675,-2.9225
1563,336737,0.5892601,0.07637200000000001,-0.782752,2.24,-0.21,-3.15
1564,336834,0.591212,0.072712,-0.778604,1.715,0.2275,-3.5875
1565,336931,0.586088,0.07076001,-0.769576,1.4525,0.8575,-4.1125
1566,337029,0.586576,0.07344400000000001,-0.7795801,1.4175,1.61,-4.5325
1567,337126,0.587064,0.06929600000000001,-0.7893399999999999,1.7325,2.765,-4.725
1568,337223,0.5917,0.047824,-0.765184,2.065,4.1125,-5.04
1569,337320,0.595116,0.068076,-0.803248,1.715,5.6,-5.4775
1570,337417,0.578036,0.10052799999999999,-0.8188641,0.5425,7.175,-5.6525
1571,337514,0.5158159999999999,0.091744,-0.8461921,-2.0825,11.0775,-4.725
1572,337611,0.569984,0.111996,-0.824232,-4.445,20.755,-3.115
1573,337708,0.570716,0.09784401,-0.822524,-7.28,27.195,-1.785
1574,337805,0.58682,0.087108,-0.8047121,-8.61,32.865,-0.91
1575,337902,0.5873079999999999,0.08662001,-0.80642,-10.605,37.835,-0.9975
1576,337999,0.5934081,0.089792,-0.8030041,-12.6525,42.9625,-1.26
1577,338097,0.5946279999999999,0.093696,-0.7954399999999999,-14.8925,48.965,-1.715
1578,338194,0.5897479999999999,0.09272000000000001,-0.807884,-17.4825,54.4425,-1.015
1579,338291,0.6068279999999999,0.11102000000000001,-0.826672,-19.39,59.815,0.1925
1580,338388,0.6007279999999999,0.08857201,-0.8547319999999999,-20.0725,63.8925,1.26
1581,338485,0.585356,0.098088,-0.9267120000000001,-19.6,67.9525,3.08
1582,338582,0.606096,0.138836,-0.9284200999999999,-16.59,72.3275,6.8425
1583,338679,0.604388,0.159576,-0.9052401,-11.8125,76.9475,14.7525
1584,338776,0.59658,0.133224,-0.9320801,-1.5575,81.13,25.8825
1585,338873,0.587064,0.17519200000000001,-1.021384,11.375,84.5425,36.12
1586,338970,0.5165481,0.18178,-1.012356,27.5625,92.2075,46.795
1587,339067,0.6329359999999999,0.282796,-0.9589200999999999,45.92,106.2425,59.85
1588,339165,0.712724,0.37698000000000004,-0.8193521,73.465,133.28,78.2425
1589,339262,0.685396,0.46848,-1.0650600000000001,105.14,179.9875,95.7075
1590,339359,0.823256,0.132004,-0.8949921000000001,139.37,225.0325,102.375
1591,339456,0.8718120999999999,0.332084,-1.2078,140.455,267.82,96.04
1592,339553,1.097512,0.43163599999999996,-1.324676,161.1925,294.91,96.4075
1593,339650,1.064816,0.5292359999999999,-1.32126,199.6225,292.3025,98.0525
1594,339747,1.241472,0.7517640999999999,-1.090436,237.405,290.045,89.86251
1595,339844,1.167784,0.279624,-1.07482,259.1225,336.84,43.3475
1596,339941,1.035048,0.293044,-1.316868,251.44,375.515,35.2275
1597,340038,0.966728,0.21594000000000002,-1.013332,228.655,392.2975,37.45
1598,340135,-0.08466801,-0.178852,-2.610312,188.7025,364.91,42.175
1599,340232,2.1657439999999997,0.5206960999999999,-2.0986439999999997,176.9425,197.505,69.73751
1600,340329,1.1631479999999998,0.721996,-2.693516,108.7625,60.375,16.5725
1601,340426,0.03904,0.259372,-1.305888,85.97751,-31.7275,-36.3825
1602,340524,-0.399428,0.362584,-0.9791719999999999,63.1925,-53.2525,-33.0225
1603,340621,0.002928,0.43432,-1.096048,58.065,-43.155,-14.6825
1604,340718,0.305,0.447984,-1.269288,57.855,-46.55,-9.6075
1605,340815,0.39967199999999997,0.522648,-1.3510280000000001,50.4525,-74.515,-13.72
1606,340912,0.387228,0.5441199999999999,-1.274656,44.4675,-111.545,-20.825
1607,341009,0.34257600000000005,0.534116,-1.132892,42.525,-144.62,-26.8625
1608,341106,0.34648,0.5011760000000001,-1.002108,41.1775,-170.4325,-32.2525
1609,341203,0.397476,0.47336000000000006,-0.815692,36.3125,-191.24,-39.9
1610,341300,0.449692,0.48922,-0.841556,27.125,-208.74,-50.19
1611,341397,0.49702799999999997,0.5260640000000001,-0.788608,17.9025,-222.7925,-61.285
1612,341494,0.5697399999999999,0.571936,-0.7381001,13.0725,-233.66,-72.2575
1613,341591,0.653432,0.586332,-0.790804,13.16,-242.3575,-83.51001
1614,341688,0.7232161,0.552172,-0.7954399999999999,14.7525,-249.585,-95.34
1615,341786,0.8066641,0.483608,-0.7895840999999999,16.1525,-255.8325,-105.14
1616,341883,0.8908440999999999,0.49580799999999997,-0.8439959999999999,12.9675,-262.115,-111.93
1617,341980,0.9669721,0.45506,-0.8532681000000001,10.01,-267.9075,-116.8475
1618,342077,1.021384,0.47336000000000006,-0.889868,6.4925,-271.3375,-122.92
1619,342174,1.075796,0.4553041,-0.9394,4.3925,-273.9275,-128.5725
1620,342271,1.125084,0.40138,-0.964044,2.065,-275.66,-133.63
1621,342368,1.140212,0.313296,-0.961116,-2.2225,-275.135,-137.0425
1622,342465,1.17486,0.231068,-0.984784,-10.045,-270.9875,-136.7975
1623,342562,1.301984,0.185684,-1.094096,-21.5075,-263.83,-133.14
1624,342659,1.512556,0.14493599999999998,-1.264652,-34.6675,-259.805,-128.3275
1625,342756,1.672132,0.10492,-1.353712,-47.6875,-263.4625,-123.515
1626,342853,1.702632,0.045627999999999995,-1.307352,-57.89,-270.5675,-117.4075
1627,342950,1.6836,-0.03172,-1.179984,-64.61,-274.575,-109.305
1628,343047,1.696532,-0.1525,-1.059936,-68.0925,-272.2475,-98.875
1629,343145,1.743136,-0.17397200000000002,-0.9628241,-70.525,-265.93,-86.38
1630,343242,1.7624119999999999,-0.11102000000000001,-0.826672,-68.9675,-257.6,-73.255
1631,343339,1.7355720000000001,-0.061488,-0.599264,-58.555,-245.4025,-61.635
1632,343436,1.718248,-0.071248,-0.30378,-43.365,-226.3625,-54.0225
1633,343533,1.624796,-0.20691199999999998,0.179828,-29.575,-199.22,-48.37
1634,343630,1.728984,-0.52582,0.6202479999999999,-24.045,-156.45,-39.6375
1635,343727,2.077172,-0.772016,0.8342360000000001,-43.8725,-106.68,-29.015
1636,343824,2.1655,-0.624396,0.789828,-81.18251,-66.045,-25.8825
1637,343921,2.0874200000000003,-0.371612,0.731268,-89.9675,-33.7575,-30.6775
1638,344018,1.9888439999999998,-0.237656,0.6378159999999999,-50.9775,0.42,-33.7225
1639,344115,1.9422400000000002,-0.240096,0.479704,14.245,34.7725,-31.5
1640,344212,1.8417119999999998,-0.400892,0.35282399999999997,68.8625,62.2475,-26.1275
1641,344310,1.578924,-0.47506800000000005,0.228384,85.0675,82.6175,-25.4625
1642,344407,0.630252,-0.0976,0.06588,103.88,118.86,1.8375
1643,344504,0.156648,-0.41113999999999995,-1.74216,120.2775,149.03,29.1725
1644,344601,-0.204228,-0.27889200000000003,-1.3085719999999998,80.08,153.0025,41.16
1645,344698,1.49084,-0.163724,-0.612928,10.15,201.6525,-7.7
1646,344795,1.368352,-0.645868,-0.9596520000000001,2.4325,202.9825,-31.2375
1647,344892,1.2817319999999999,-0.7605481,-1.628944,9.5725,186.62,0.525
1648,344989,1.014308,-0.057828,-1.0845799999999999,-2.4325,171.9725,22.26
1649,345086,0.87108,0.563396,-0.9696561,-11.6725,163.765,18.6025
1650,345183,0.9347639999999999,0.384056,-0.9979600000000001,-1.19,159.215,7.9975
1651,345280,0.757376,-0.11345999999999999,-0.8757159999999999,8.575,152.88,2.38
1652,345377,0.7156520000000001,-0.139812,-0.922076,2.6775,144.76,4.6025
1653,345475,0.931348,0.28621199999999997,-1.050664,-6.7725,133.0175,6.615
1654,345572,2.346304,1.30784,-2.102792,18.7425,106.785,3.255
1655,345669,0.265472,-0.161772,-0.280844,80.43,31.4125,14.4025
1656,345766,0.8996280999999999,-0.20984,-1.18218,56.9275,42.175,14.77
1657,345863,0.761524,0.11467999999999999,-0.9001161,34.4925,20.335,9.1525
1658,345960,0.6512359999999999,0.00366,-0.837408,25.1125,16.135,7.105
1659,346057,0.6453800000000001,0.057828,-0.8344801,20.965,11.1475,6.3525
1660,346154,0.616588,0.046116000000000004,-0.8100801,15.26,10.0625,4.5675
1661,346251,0.612684,0.054167999999999994,-0.8235001000000001,10.15,8.0675,1.7675
1662,346348,0.616344,0.0854,-0.835456,5.915,7.315,-0.805
1663,346445,0.621468,0.100284,-0.81984,3.71,6.9125,-2.3275
1664,346542,0.604144,0.07417601,-0.809836,2.765,5.8275,-3.15
1665,346640,0.60024,0.08784,-0.807884,1.225,5.5125,-4.8825
1666,346737,0.586332,0.091988,-0.85156,0.21,5.425,-5.81
1667,346834,0.6021920000000001,0.11126400000000002,-0.8010520000000001,0.105,4.7775,-5.67
1668,346931,0.5978,0.096868,-0.7993439999999999,-0.49,4.235,-5.495
1669,347028,0.59048,0.08466801,-0.889136,-1.5225,4.0425,-6.0375
1670,347125,0.619516,0.11053199999999999,-0.823256,-2.0475,3.955,-6.615
1671,347222,0.6039,0.111508,-0.7983680000000001,-2.31,3.465,-6.8775
1672,347319,0.59902,0.133468,-0.8283799999999999,-2.205,3.2375,-6.7375
1673,347416,0.611464,0.124928,-0.820084,-1.12,2.415,-6.0725
1674,347513,0.61,0.113704,-0.802272,-0.9625,1.4875,-5.6
1675,347610,0.602436,0.12712400000000001,-0.80276,-0.6825,0.735,-5.215
1676,347707,0.5926760999999999,0.130296,-0.741028,0.42,0.3675,-4.3575
1677,347804,0.5897479999999999,0.12029200000000001,-0.788608,1.1375,-0.245,-3.5175
1678,347902,0.597068,0.117852,-0.770308,2.205,-0.6825,-2.2925
1679,347999,0.5958479999999999,0.122,-0.798124,2.2575,-0.7175,-1.54
1680,348096,0.596092,0.121024,-0.784704,3.045,-0.7875,-0.49
1681,348193,0.589016,0.10931199999999999,-0.8247200000000001,3.29,-0.6475,0.175
1682,348290,0.6039,0.114436,-0.8095920999999999,3.85,-0.385,0.7875
1683,348387,0.6082920999999999,0.11126400000000002,-0.790072,4.165,-0.4375,1.2075
1684,348484,0.6036560999999999,0.105896,-0.796904,4.235,-0.1925,1.1375
1685,348581,0.6021920000000001,0.102968,-0.798124,4.2525,0.07,1.085
1686,348678,0.599996,0.10638399999999999,-0.800564,4.1125,0.3325,0.8400001
1687,348775,0.6009720000000001,0.1098,-0.802272,4.095,0.7,0.8225
1688,348872,0.6058520000000001,0.101504,-0.8042239999999999,3.7625,1.2075,0.5775
1689,348969,0.6021920000000001,0.10248,-0.808372,3.5,1.995,0.315
1690,349067,0.549244,0.09150001,-0.8296,3.6925,4.1475,0.455
1691,349164,0.582916,0.113704,-0.8430200999999999,1.6275,12.46,1.1025
1692,349261,0.547292,0.083204,-0.8283799999999999,-1.295,21.28,0.7525
1693,349358,0.567056,0.07612801,-0.8025161,-2.3625,26.81,0.035
1694,349455,0.56242,0.067588,-0.807884,-5.8275,35.4025,-1.6275
1695,349552,0.56242,0.08344800000000001,-0.800564,-9.765,45.115,-3.0975
1696,349649,0.573156,0.091744,-0.8108121,-14.14,56.035,-3.255
1697,349746,0.587796,0.10906800000000001,-0.8108121,-17.605,66.7275,-2.135
1698,349843,0.569984,0.116632,-0.8271601000000001,-18.7775,75.2325,-0.4375
1699,349940,0.563396,0.082472,-0.8464360000000001,-17.255,82.1275,0.77
1700,350037,0.638548,0.08759601,-0.8291120999999999,-14.9275,89.0225,3.5175
1701,350134,0.5072760000000001,0.09540401,-0.9623360999999999,-11.5675,95.97,9.2575
1702,350232,0.5875520000000001,0.15274400000000002,-1.030412,-6.265,103.5475,19.2675
1703,350329,0.6222,0.21667199999999998,-1.050664,3.255,109.515,35.56
1704,350426,0.500688,0.14566800000000002,-1.082384,23.59,119.665,53.3225
1705,350523,0.471408,0.356484,-1.0499319999999999,40.075,131.4075,73.8325
1706,350620,0.557052,0.443104,-1.1333799999999998,66.4475,174.8775,94.74501
1707,350717,0.9398880999999999,0.44896,-0.9706319999999999,78.155,227.22,111.79
