,T,ax,ay,az,gx,gy,gz
0,193481,0.619516,-0.05002,-0.614392,16.2225,-16.555,-16.3975
1,193630,0.6378159999999999,-0.048556,-0.68076,49.2625,-99.995,-109.585
2,193726,0.6753920999999999,-0.061975999999999996,-0.7285841,42.1225,-171.255,-173.11
3,193822,0.677588,-0.060512,-0.7283400999999999,47.8625,-136.815,-60.375
4,193919,0.6771,-0.062220000000000004,-0.729804,3.7975,-10.3775,-6.0025
5,194015,0.676124,-0.062220000000000004,-0.7315119999999999,1.54,-3.885,-3.2025
6,194111,0.6785640000000001,-0.060267999999999995,-0.73078,1.575,-3.9025,-3.2375
7,194207,0.676124,-0.06270801,-0.73078,1.5925,-3.885,-3.2725
8,194304,0.6785640000000001,-0.062464,-0.729316,1.5925,-3.85,-3.185
9,194400,0.676124,-0.061,-0.733952,1.5575,-3.85,-3.15
10,194496,0.676856,-0.063196,-0.7320001,1.6625,-3.9725,-3.2025
11,194593,0.678076,-0.062220000000000004,-0.732244,1.61,-3.9375,-3.255
12,194689,0.677588,-0.06270801,-0.731268,1.6625,-3.7975,-3.2375
13,194785,0.677832,-0.061975999999999996,-0.731024,1.6625,-3.85,-3.29
14,194881,0.677832,-0.061488,-0.731024,1.645,-3.8325,-3.2375
15,194978,0.6785640000000001,-0.06124401,-0.73078,1.6975,-3.8675,-3.2375
16,195074,0.677344,-0.06124401,-0.733464,1.68,-3.8325,-3.2375
17,195170,0.675148,-0.062220000000000004,-0.733708,1.7325,-3.8675,-3.22
18,195266,0.6785640000000001,-0.063196,-0.731024,1.575,-3.8325,-3.2375
19,195363,0.677588,-0.063196,-0.730292,1.68,-3.7975,-3.185
20,195459,0.676856,-0.062952,-0.7315119999999999,1.715,-3.85,-3.3075
21,195555,0.6771,-0.062220000000000004,-0.7324881,1.61,-3.815,-3.2725
22,195651,0.6771,-0.063196,-0.730536,1.6275,-3.815,-3.255
23,195748,0.67588,-0.063928,-0.732244,1.61,-3.7975,-3.15
24,195844,0.676612,-0.06124401,-0.7317560000000001,1.5575,-3.78,-3.185
25,195940,0.6771,-0.062464,-0.730536,1.575,-3.7975,-3.185
26,196036,0.6785640000000001,-0.062464,-0.731024,1.6275,-3.815,-3.3075
27,196133,0.678076,-0.062220000000000004,-0.7317560000000001,1.6275,-3.815,-3.22
28,196229,0.676612,-0.062952,-0.73078,1.6625,-3.85,-3.22
29,196325,0.6753920999999999,-0.064172,-0.731024,1.6625,-3.78,-3.2725
30,196422,0.676612,-0.059536,-0.7327321,1.5925,-3.7625,-3.185
31,196518,0.6790520999999999,-0.061488,-0.7317560000000001,1.575,-3.71,-3.255
32,196614,0.679296,-0.061488,-0.7317560000000001,1.575,-3.6925,-3.2725
33,196710,0.6785640000000001,-0.062220000000000004,-0.72956,1.61,-3.7625,-3.2025
34,196807,0.676856,-0.06124401,-0.73078,1.68,-3.815,-3.2725
35,196903,0.677832,-0.061975999999999996,-0.73078,1.6625,-3.78,-3.2375
36,196999,0.67588,-0.064416,-0.7300479999999999,1.645,-3.7975,-3.22
37,197095,0.674416,-0.06270801,-0.733464,1.6275,-3.815,-3.255
38,197192,0.676856,-0.061975999999999996,-0.7315119999999999,1.6275,-3.78,-3.255
39,197288,0.676124,-0.062464,-0.7327321,1.5925,-3.78,-3.2725
40,197384,0.677588,-0.061,-0.72956,1.61,-3.7975,-3.2375
41,197481,0.677832,-0.062464,-0.7315119999999999,1.6625,-3.815,-3.15
42,197577,0.6753920999999999,-0.063196,-0.7300479999999999,1.6275,-3.7975,-3.1325
43,197673,0.677344,-0.061488,-0.7329760000000001,1.61,-3.6925,-3.22
44,197769,0.676856,-0.06270801,-0.730536,1.68,-3.6575,-3.1675
45,197866,0.677344,-0.06124401,-0.730292,1.6275,-3.7625,-3.29
46,197962,0.677344,-0.060267999999999995,-0.7315119999999999,1.575,-3.745,-3.2725
47,198058,0.678076,-0.063196,-0.730292,1.6275,-3.7975,-3.255
48,198154,0.678076,-0.06270801,-0.730292,1.6275,-3.815,-3.2375
49,198251,0.676856,-0.061732,-0.732244,1.645,-3.85,-3.1325
50,198347,0.676856,-0.061975999999999996,-0.7315119999999999,1.5925,-3.7975,-3.1675
51,198443,0.67466,-0.063196,-0.732244,1.645,-3.885,-3.15
52,198539,0.67466,-0.061732,-0.730292,1.5925,-3.6925,-3.2025
53,198636,0.6749041,-0.063684,-0.729316,1.6625,-3.6925,-3.1675
54,198732,0.6771,-0.062220000000000004,-0.7315119999999999,1.6625,-3.7625,-3.2375
55,198828,0.6771,-0.062952,-0.729804,1.68,-3.7975,-3.185
56,198925,0.6790520999999999,-0.059536,-0.731268,1.6975,-3.78,-3.1675
57,199021,0.6749041,-0.064416,-0.7327321,1.645,-3.85,-3.1325
58,199117,0.677588,-0.05929201,-0.734684,1.715,-3.7625,-3.15
59,199213,0.67588,-0.06270801,-0.73078,1.7675,-3.78,-3.08
60,199310,0.678808,-0.061,-0.729804,1.7675,-3.7625,-3.15
61,199406,0.673928,-0.06124401,-0.730292,1.82,-3.7975,-3.185
62,199502,0.6763680000000001,-0.063196,-0.72956,1.7325,-3.815,-3.1675
63,199598,0.6763680000000001,-0.063684,-0.730292,1.6975,-3.8325,-3.115
64,199695,0.6753920999999999,-0.06588,-0.7288279999999999,1.7325,-3.885,-3.115
65,199791,0.6756361,-0.064172,-0.729804,1.7325,-3.7625,-3.22
66,199887,0.67832,-0.061,-0.73078,1.68,-3.605,-3.255
67,199984,0.676612,-0.064416,-0.7300479999999999,1.6625,-3.605,-3.2375
68,200080,0.6763680000000001,-0.063684,-0.730292,1.6975,-3.71,-3.2725
69,200176,0.6756361,-0.063684,-0.7300479999999999,1.6275,-3.6575,-3.2375
70,200272,0.6756361,-0.064416,-0.73078,1.6625,-3.6575,-3.255
71,200369,0.6753920999999999,-0.061732,-0.73078,1.5925,-3.71,-3.29
72,200465,0.67588,-0.06075601,-0.729072,1.68,-3.7625,-3.255
73,200561,0.67588,-0.062220000000000004,-0.731268,1.68,-3.675,-3.2725
74,200657,0.67832,-0.062952,-0.728096,1.645,-3.71,-3.29
75,200754,0.6749041,-0.062952,-0.729072,1.6275,-3.71,-3.29
76,200850,0.6771,-0.06270801,-0.729804,1.6275,-3.6225,-3.2375
77,200946,0.6790520999999999,-0.061488,-0.7317560000000001,1.5925,-3.675,-3.255
78,201043,0.67588,-0.064172,-0.729072,1.5575,-3.675,-3.22
79,201139,0.678076,-0.062464,-0.7288279999999999,1.61,-3.6575,-3.29
80,201235,0.6756361,-0.06124401,-0.731268,1.61,-3.64,-3.3075
81,201331,0.6756361,-0.062464,-0.7300479999999999,1.645,-3.5875,-3.255
82,201428,0.676612,-0.06344,-0.731024,1.68,-3.6925,-3.255
83,201524,0.676124,-0.061488,-0.7300479999999999,1.6275,-3.6575,-3.29
84,201620,0.6753920999999999,-0.061732,-0.729804,1.61,-3.6225,-3.255
85,201717,0.6753920999999999,-0.061488,-0.7315119999999999,1.6975,-3.675,-3.22
86,201813,0.6763680000000001,-0.061975999999999996,-0.73078,1.6625,-3.64,-3.2725
87,201909,0.6763680000000001,-0.060512,-0.729316,1.7325,-3.6925,-3.2375
88,202005,0.676612,-0.06124401,-0.731268,1.6625,-3.7275,-3.29
89,202102,0.677588,-0.06124401,-0.729316,1.645,-3.6575,-3.255
90,202198,0.677344,-0.061488,-0.7300479999999999,1.6275,-3.71,-3.185
91,202294,0.675148,-0.062220000000000004,-0.7317560000000001,1.6625,-3.815,-3.2025
92,202391,0.679296,-0.062952,-0.727364,1.6625,-3.6225,-3.115
93,202487,0.677832,-0.06124401,-0.733952,1.6625,-3.64,-3.15
94,202583,0.676124,-0.06466001,-0.7300479999999999,1.68,-3.64,-3.325
95,202679,0.6771,-0.061975999999999996,-0.729804,1.6975,-3.57,-3.29
96,202776,0.677832,-0.06124401,-0.7329760000000001,1.6975,-3.64,-3.2725
97,202872,0.677588,-0.06539201,-0.730292,1.645,-3.6225,-3.3425
98,202968,0.6785640000000001,-0.061732,-0.7327321,1.6275,-3.4125,-3.325
99,203065,0.6802720999999999,-0.062220000000000004,-0.7278521,1.68,-3.4475,-3.185
100,203161,0.677588,-0.06539201,-0.729072,1.75,-3.57,-3.185
101,203257,0.677832,-0.06075601,-0.7283400999999999,1.75,-3.4825,-3.1675
102,203353,0.6753920999999999,-0.061488,-0.727364,1.82,-3.43,-3.29
103,203450,0.677832,-0.060267999999999995,-0.731024,1.925,-3.3075,-3.185
104,203546,0.6763680000000001,-0.063684,-0.729316,1.9775,-3.325,-3.08
105,203642,0.677832,-0.05929201,-0.730536,1.855,-3.2025,-3.0975
106,203739,0.677832,-0.061732,-0.729316,1.925,-3.3075,-3.1675
107,203835,0.677832,-0.063684,-0.7283400999999999,1.9075,-3.29,-3.115
108,203931,0.6753920999999999,-0.061488,-0.7285841,1.8025,-3.2725,-3.2375
109,204027,0.6756361,-0.064416,-0.7241920000000001,1.7675,-3.2725,-3.29
110,204124,0.6763680000000001,-0.063684,-0.727364,1.7675,-3.2725,-3.2725
111,204220,0.6795401,-0.062220000000000004,-0.72712,1.8375,-3.15,-3.255
112,204316,0.6980841,-0.057096,-0.736392,1.82,-3.2375,-3.2375
113,204413,0.672708,-0.069052,-0.724924,1.715,-3.9375,-2.8525
114,204509,0.676612,-0.062464,-0.7300479999999999,1.8375,-3.465,-3.1325
115,204605,0.6753920999999999,-0.061975999999999996,-0.728096,1.925,-3.5175,-3.115
116,204701,0.68076,-0.059536,-0.731268,1.995,-3.43,-3.0975
117,204798,0.68808,-0.0549,-0.73444,2.275,-3.2025,-2.9225
118,204894,0.683932,-0.060512,-0.732244,2.695,-3.5,-2.625
119,204990,0.685884,-0.05612,-0.7356600000000001,3.115,-3.955,-2.3625
120,205087,0.682956,-0.060512,-0.732244,3.465,-4.235,-2.31
121,205183,0.678076,-0.05929201,-0.7442,3.7975,-4.2,-2.2925
122,205279,0.681248,-0.052703999999999994,-0.726144,5.1625,-4.165,-1.5225
123,205375,0.686616,-0.05612,-0.7256560000000001,6.2475,-4.2,-0.7525
124,205472,0.682956,-0.07515201,-0.7237041,6.895,-4.235,-0.525
125,205568,0.678808,-0.080276,-0.7259001,7.4375,-4.165,-0.2975
126,205664,0.675148,-0.07564,-0.730536,7.3675,-4.445,-0.28
127,205761,0.677588,-0.07417601,-0.726388,7.2625,-4.83,-0.385
128,205857,0.669292,-0.08174001,-0.730292,7.0,-5.1625,-0.6125
129,205953,0.653188,-0.092964,-0.73078,6.615,-5.3375,-0.945
130,206049,0.65758,-0.09320801,-0.7198,5.88,-4.9175,-1.4525
131,206146,0.664412,-0.07978801,-0.72224,5.0225,-4.97,-2.135
132,206242,0.6695361,-0.06880801,-0.726876,4.2175,-4.935,-2.7125
133,206338,0.680028,-0.068076,-0.7259001,3.92,-4.6025,-2.905
134,206435,0.6902761,-0.070516,-0.728096,4.0425,-4.445,-2.695
135,206531,0.6753920999999999,-0.080764,-0.715164,4.13,-4.6725,-2.4675
136,206627,0.693448,-0.07564,-0.72712,3.8325,-4.6025,-2.4675
137,206723,0.6749041,-0.0732,-0.7229720000000001,3.535,-5.32,-2.38
138,206820,0.6709999999999999,-0.07832401,-0.7195560000000001,3.5175,-5.8625,-2.2925
139,206916,0.681736,-0.069784,-0.729804,3.115,-6.055,-2.45
140,207012,0.680516,-0.065148,-0.72346,2.9925,-6.4575,-2.1875
141,207109,0.6675840000000001,-0.079056,-0.7217521,2.905,-6.895,-1.925
142,207205,0.6646561,-0.07222401,-0.7259001,2.8,-6.86,-1.715
143,207301,0.6646561,-0.08417999999999999,-0.7171161,2.695,-6.5625,-1.6625
144,207397,0.653188,-0.094916,-0.71614,2.0825,-6.58,-1.9425
145,207494,0.657092,-0.083204,-0.7134560999999999,1.54,-6.475,-2.1
146,207590,0.6588,-0.08637601,-0.71492,0.525,-6.4225,-2.5725
147,207686,0.6563601,-0.082228,-0.71248,-0.455,-6.6675,-3.01
148,207783,0.661484,-0.080764,-0.7171161,-1.505,-7.1225,-3.4825
149,207879,0.665632,-0.07612801,-0.7198,-2.5725,-7.7875,-3.885
150,207975,0.66368,-0.066124,-0.72956,-3.5525,-8.4,-4.06
151,208071,0.667096,-0.06563601,-0.735904,-4.235,-8.715,-4.2175
152,208168,0.655628,-0.055388,-0.74298,-4.655,-8.8025,-4.3225
153,208264,0.671976,-0.069052,-0.749324,-4.4275,-8.05,-4.235
154,208360,0.672708,-0.068076,-0.7473721,-4.3925,-7.4725,-4.4975
155,208457,0.66856,-0.07564,-0.7439560000000001,-3.7975,-6.8075,-4.445
156,208553,0.6649,-0.083204,-0.7373681,-3.6925,-6.615,-4.62
157,208649,0.6736840000000001,-0.063684,-0.7449321,-3.9375,-6.3175,-5.005
158,208746,0.676856,-0.060512,-0.7451760000000001,-3.6925,-5.95,-4.97
159,208842,0.6734399999999999,-0.05636401,-0.7417600000000001,-2.9575,-5.8625,-4.6375
160,208938,0.664168,-0.061488,-0.743468,-2.275,-5.845,-4.3225
161,209034,0.673196,-0.057096,-0.7468840999999999,-1.7675,-5.3725,-4.0075
162,209131,0.669292,-0.057828,-0.74054,-1.05,-5.0225,-3.745
163,209227,0.670024,-0.062220000000000004,-0.741028,-0.5425,-4.7775,-3.64
164,209323,0.662704,-0.06832001,-0.7427361,-0.5775,-4.62,-3.7275
165,209419,0.665632,-0.071492,-0.739564,-0.735,-4.445,-4.165
166,209516,0.659288,-0.06954,-0.742004,-1.085,-4.305,-4.6375
167,209612,0.659532,-0.07173600000000001,-0.7388319999999999,-1.5925,-4.1825,-5.075
168,209708,0.652456,-0.069784,-0.7288279999999999,-1.89,-3.92,-5.39
169,209805,0.6514800000000001,-0.06880801,-0.726876,-2.17,-3.8675,-5.8275
170,209901,0.650992,-0.061975999999999996,-0.7317560000000001,-2.2575,-3.9025,-6.0025
171,209997,0.658556,-0.057096,-0.740052,-2.2925,-3.85,-6.2825
172,210093,0.66246,-0.063196,-0.7356600000000001,-2.6775,-3.955,-6.65
173,210190,0.662216,-0.05563200000000001,-0.735904,-2.8175,-4.06,-6.7375
174,210286,0.661484,-0.052948,-0.7439560000000001,-2.6775,-4.165,-6.5625
175,210382,0.665144,-0.050508,-0.736392,-2.555,-4.3575,-6.3525
176,210479,0.6497721,-0.049288,-0.7390760000000001,-2.3975,-4.41,-6.195
177,210575,0.653676,-0.05368,-0.7366361,-2.2225,-4.34,-6.1075
178,210671,0.646112,-0.058072000000000006,-0.738344,-1.925,-4.0425,-5.8975
179,210767,0.6502600000000001,-0.060024,-0.74054,-1.645,-3.9375,-5.8625
180,210864,0.6539201,-0.05587601,-0.7388319999999999,-1.575,-3.7275,-6.0725
181,210960,0.665876,-0.053924,-0.738588,-1.47,-3.675,-6.2475
182,211056,0.6563601,-0.053924,-0.7388319999999999,-1.435,-3.64,-6.3525
183,211152,0.6390359999999999,-0.059536,-0.74054,-1.3825,-3.535,-6.4925
184,211249,0.64172,-0.053924,-0.741272,-1.26,-2.5725,-6.755
185,211345,0.665876,-0.037088,-0.740052,-0.63,-1.015,-6.4575
186,211441,0.656116,-0.05002,-0.739564,0.315,0.0175,-5.9675
187,211538,0.658312,-0.056852,-0.73932,0.6475,0.735,-5.8275
188,211634,0.661728,-0.043188,-0.742492,0.8575,1.5925,-6.1425
189,211730,0.6602640000000001,-0.046848,-0.7417600000000001,1.225,1.9775,-6.23
190,211827,0.6453800000000001,-0.051484,-0.749324,1.47,2.345,-6.3525
191,211923,0.6663640000000001,-0.044896,-0.7468840999999999,2.03,3.7275,-6.4925
192,212019,0.657092,-0.054412,-0.7442,2.485,5.2325,-6.7025
193,212115,0.665144,-0.052703999999999994,-0.748104,2.31,6.58,-7.2975
194,212212,0.674172,-0.059536,-0.7473721,2.5025,8.715,-8.1025
195,212308,0.661972,-0.052948,-0.748836,2.24,10.7625,-8.82
196,212404,0.6541640000000001,-0.05368,-0.7539600000000001,2.905,14.56,-9.3275
197,212501,0.659532,-0.058316,-0.7820199999999999,4.13,19.5475,-9.3975
198,212597,0.581696,-0.08637601,-0.832528,2.1,26.4775,-10.2725
199,212693,0.6375721,-0.047336,-0.8142281,-4.06,37.4675,-10.57
200,212789,0.5814520000000001,-0.049776,-0.840824,-0.3675,50.295,-10.815
201,212886,0.69296,-0.023912,-0.794952,6.7375,70.2275,-10.3775
202,212982,0.693204,-0.011712,-0.778604,7.84,85.78501,-9.1
203,213078,0.666608,0.003904,-0.7861680999999999,10.7625,102.06,-6.86
204,213175,0.68686,-0.00976,-0.768112,15.295,121.45,-3.9025
205,213271,0.668072,0.01464,-0.75762,18.6025,141.2425,-1.54
206,213367,0.6649,0.02928,-0.72224,23.1175,166.5825,1.3825
207,213463,0.646112,0.022448,-0.7315119999999999,25.13,197.75,3.955
208,213560,0.628544,-0.010248,-0.690764,28.2975,227.8675,4.0775
209,213656,0.68198,-0.06490399999999999,-0.67466,31.0625,250.74,-2.485
210,213752,0.772992,-0.12395199999999999,-0.680516,33.11,262.115,-16.4675
211,213849,0.8464360000000001,-0.151036,-0.654408,22.26,250.215,-30.695
212,213945,0.814472,-0.180072,-0.614636,9.9575,238.035,-40.2675
213,214041,0.8725440999999999,-0.195688,-0.59048,7.63,248.6925,-48.0025
214,214137,0.8842561,-0.181536,-0.504592,0.3325,262.0975,-57.8025
215,214234,1.134112,-0.09930800000000001,-0.406016,-4.8825,284.06,-67.165
216,214330,1.431792,-0.22277199999999997,-0.60634,34.72,347.3575,-81.11251
217,214426,1.492548,-0.197152,-0.377224,50.5225,374.6925,-99.155
218,214523,1.8317080000000001,-0.36136399999999996,-0.673928,57.575,396.3225,-113.9425
219,214619,1.771684,-0.21228000000000002,-0.3782,56.91,402.255,-118.3525
220,214715,2.128168,-0.12053599999999999,-0.8788879999999999,48.1425,398.0025,-121.17
221,214811,2.502708,-0.39113200000000004,-0.87718,24.4475,338.8175,-98.54251
222,214908,1.9868919999999999,-0.02074,-0.9969841,-88.23501,195.8075,-95.515
223,215004,2.336056,-0.606584,-1.307108,-17.4125,286.755,-126.385
224,215100,1.6023479999999999,-0.609024,-1.3969,-27.1775,274.9075,-137.585
225,215197,1.260748,-0.738588,-2.1957560000000003,-46.0775,218.3475,-129.885
226,215293,0.31524800000000003,-0.528504,0.047824,-187.7925,2.205,-159.215
227,215389,2.697908,-0.838628,-2.631052,-51.5725,224.245,-86.5725
228,215486,2.2240599999999997,-1.0797,-2.077172,-38.815,120.54,-8.9775
229,215582,1.275144,-0.9652639999999999,-1.741428,-49.4025,17.0625,39.8475
230,215678,0.48702399999999996,-0.6517241,-1.2500120000000001,-76.1775,-51.415,61.5125
231,215774,0.155672,-0.317688,-1.0438319999999999,-94.0625,-73.6225,66.15
232,215871,0.090036,-0.095648,-0.9972281,-90.9475,-76.93,64.4525
233,215967,0.223748,0.0305,-1.034804,-70.91001,-78.82,63.14
234,216063,0.382348,0.062952,-1.0765280000000002,-43.4,-89.86251,64.34751
235,216160,0.537532,0.030744,-1.1028799999999999,-17.7625,-111.9825,64.7675
236,216256,0.6202479999999999,-0.013175999999999998,-1.073844,-1.1025,-142.345,61.8625
237,216352,0.635864,-0.037576,-0.993568,5.9325,-176.1025,56.175
238,216448,0.6258600000000001,-0.024156,-0.904752,6.405,-206.71,49.49
239,216545,0.609024,0.008540001,-0.8308200000000001,5.39,-231.5425,43.225
240,216641,0.64172,0.047336,-0.79178,7.07,-250.74,38.885
241,216737,0.6749041,0.064416,-0.754692,12.4425,-265.8425,36.6275
242,216834,0.7027201,0.07076001,-0.7259001,19.9675,-277.69,35.35
243,216930,0.7317560000000001,0.05977999999999999,-0.6993041,27.615,-286.6325,34.055
244,217026,0.7754321,0.042456,-0.692472,33.6175,-293.3175,31.815
245,217122,0.839116,0.02806,-0.710284,38.0275,-297.815,29.365
246,217219,0.9372040999999999,0.010736,-0.7468840999999999,41.72,-300.8425,27.7725
247,217315,1.053104,-0.008052001,-0.790804,45.3425,-303.2925,27.58
248,217411,1.172908,-0.038551999999999996,-0.827892,48.475,-306.5125,29.2075
249,217508,1.257088,-0.068076,-0.8459479999999999,49.98,-310.485,32.69
250,217604,1.334924,-0.08296,-0.8752280000000001,50.085,-313.4425,37.6425
251,217700,1.398608,-0.10492,-0.8862081,49.1575,-314.755,43.505
252,217797,1.49206,-0.145424,-0.9311040999999999,47.11,-312.7075,49.91
253,217893,1.601616,-0.187636,-0.9555040000000001,43.0325,-308.91,56.315
254,217989,1.713856,-0.212524,-0.9623360999999999,36.7675,-302.33,64.19
255,218085,1.862696,-0.209108,-0.9813681000000001,30.03,-291.6375,74.9175
256,218182,2.090348,-0.177876,-1.02236,23.905,-278.355,89.0225
257,218278,2.4502479999999998,-0.128344,-1.0584719999999999,18.8475,-266.28,104.9825
258,218374,2.8774919999999997,-0.066856,-1.0462719999999999,14.805,-262.465,119.9975
259,218470,3.3225480000000003,-0.048068,-0.9413520000000001,12.5475,-271.9675,132.2475
260,218567,3.537268,-0.09442801,-0.631228,7.2625,-296.345,137.6375
261,218663,3.367688,-0.175924,-0.209596,-7.0,-324.8,133.1225
262,218759,3.0683,-0.029036000000000003,0.28011199999999997,-33.2325,-343.2275,114.7125
263,218856,2.80966,0.211792,0.7754321,-53.6375,-344.19,88.725
264,218952,2.587132,0.465796,1.3022280000000002,-54.495,-331.87,61.39
265,219048,2.421456,0.701012,1.818532,-33.005,-302.8375,37.59
266,219144,2.173308,0.850584,2.3333720000000002,5.145,-258.86,20.6325
267,219241,1.871968,0.776896,2.684488,49.7,-194.3375,10.815
268,219337,1.541104,0.5070319999999999,2.7120599999999997,77.98,-113.4,-1.2075
269,219433,1.480836,0.236436,2.3846119999999997,80.2725,-23.8525,-20.1075
270,219530,1.636996,-0.132492,2.018368,63.77,63.1225,-38.0975
271,219626,0.9633120999999999,-0.8103239999999999,1.2841719999999999,-17.3425,169.9425,-55.3875
272,219722,2.126216,-0.00488,-0.7315119999999999,-87.3075,214.6725,-73.16751
273,219818,-0.147376,-1.1916959999999999,-2.075708,-88.0775,189.5075,-31.325
274,219915,-0.870592,-0.23911999999999997,-0.337452,-31.325,224.105,9.835
275,220011,0.897432,0.5038600000000001,0.37576,-11.305,313.9675,19.0925
276,220107,2.583228,0.490196,-1.13704,-10.22,330.2775,17.1675
277,220203,2.16062,0.6646561,-1.500844,-5.0925,290.8675,10.57
278,220300,1.02968,1.1148360000000002,-1.2134120000000002,-12.67,224.4375,-41.09
279,220396,2.0400840000000002,0.25058800000000003,-1.270752,-7.6475,209.0375,-79.2575
280,220492,3.098312,-2.5071,-2.135,5.2675,188.335,-45.71
281,220589,2.744756,-1.5645280000000001,0.289628,-63.98,93.205,-7.315
282,220685,0.6390359999999999,1.211216,-1.7265439999999999,-93.3275,0.4725,-73.36
283,220781,0.59536,0.60878,-0.8820601,-72.59,18.83,-54.18
284,220877,1.3856760000000001,-0.605608,-0.673196,-33.32,26.7225,-22.575
285,220974,0.64294,0.185196,-0.9394,-44.66,4.55,-34.195
286,221070,0.796416,0.02928,-0.8376520000000001,-34.125,5.145,-27.965
287,221166,0.8400921,-0.044896,-0.774456,-19.11,7.1225,-17.955
288,221262,0.72712,0.129564,-0.8413120000000001,-13.0375,2.59,-15.7325
289,221359,0.759572,-0.023424,-0.752008,-1.3825,6.2825,-7.07
290,221455,0.707112,-0.058803999999999995,-0.7407841,4.305,7.42,-1.7675
291,221551,0.681248,-0.12395199999999999,-0.72468,6.0725,7.4375,-0.0875
292,221648,0.6856399999999999,-0.13054000000000002,-0.725168,5.355,7.1225,-1.085
293,221744,0.6919841,-0.11224,-0.7259001,3.4825,6.5625,-3.4825
294,221840,0.6973520000000001,-0.108824,-0.720776,2.3275,5.985,-4.865
295,221937,0.68808,-0.11394800000000001,-0.7229720000000001,0.7175,5.355,-6.3
296,222033,0.671732,-0.129564,-0.718824,-1.295,4.6025,-8.0325
297,222129,0.6734399999999999,-0.146644,-0.7078439999999999,-4.2,3.5,-10.9725
298,222225,0.6834439999999999,-0.13176,-0.713212,-7.4725,2.0125,-14.8925
299,222322,0.7137001000000001,-0.07442,-0.730292,-9.835,0.525,-17.7275
300,222418,0.693204,-0.060512,-0.7285841,-9.94,-0.6125,-18.06
301,222514,0.70028,-0.060512,-0.734928,-8.8025,-0.455,-16.8525
302,222611,0.697596,-0.066856,-0.728096,-7.735,0.4375,-15.5925
303,222707,0.699792,-0.08003201,-0.720776,-7.455,0.2275,-15.47
304,222803,0.690032,-0.08052000000000001,-0.7156520000000001,-7.105,-0.385,-16.4325
305,222899,0.6724640000000001,-0.095648,-0.726388,-6.055,0.4725,-17.5525
306,222996,0.6456241,-0.09516001,-0.7537159999999999,-8.9775,0.6825,-19.0925
307,223092,0.697596,-0.082716,-0.7198,-10.9025,2.905,-21.105
308,223188,0.681736,-0.056852,-0.725168,-12.2325,2.7125,-22.925
309,223285,0.6834439999999999,-0.033916,-0.7283400999999999,-11.935,4.3575,-23.135
310,223381,0.671732,-0.038796,-0.7285841,-7.2975,7.6125,-22.505
311,223477,0.6895439999999999,-0.02196,-0.720532,-4.4275,11.9175,-20.6325
312,223574,0.684908,-0.02928,-0.71248,-3.2025,14.315,-17.9375
313,223670,0.6878361,-0.032208,-0.705404,-1.3125,17.7625,-14.8575
314,223766,0.6944241,-0.031964,-0.706136,0.105,20.79,-12.3725
315,223862,0.705404,-0.029768,-0.709064,1.1375,23.975,-10.78
316,223959,0.708332,-0.024156,-0.706136,2.3975,27.5625,-9.415
317,224055,0.7046720999999999,-0.016104,-0.705892,3.745,31.5,-7.77
318,224151,0.710284,-0.030012,-0.708088,5.0925,37.1175,-5.7925
319,224248,0.701256,-0.02806,-0.70516,6.3525,43.2775,-3.9725
320,224344,0.698328,-0.03294,-0.711992,7.7525,51.2225,-2.2225
321,224440,0.7032079999999999,-0.047580000000000004,-0.702964,10.01,61.355,-0.6825
322,224536,0.6985720999999999,-0.042944,-0.6993041,11.9175,72.38,-0.245
323,224633,0.70638,-0.050508,-0.69052,13.405,85.0325,-0.28
324,224729,0.6893,-0.045384,-0.69906,14.77,100.555,-0.6125
325,224825,0.6885680999999999,-0.031964,-0.7095520000000001,17.57,120.9425,-0.8400001
326,224922,0.69906,-0.003904,-0.6785640000000001,20.8075,142.4325,-1.7675
327,225018,0.724924,0.042944,-0.6649,23.485,162.925,-2.345
328,225114,0.74542,0.035868000000000004,-0.674416,26.53,180.705,-1.5925
329,225210,0.7176041,-0.0017079999999999999,-0.679784,29.0675,198.1525,-0.385
330,225307,0.776408,-0.071004,-0.6885680999999999,30.835,215.5125,-3.605
331,225403,0.762012,-0.10614000000000001,-0.698816,27.9125,220.71,-9.065
332,225499,0.7288279999999999,-0.139568,-0.65758,21.1225,223.965,-15.575
333,225596,0.755912,-0.172752,-0.697596,23.2575,244.3875,-20.825
334,225692,0.726876,-0.185196,-0.7005239999999999,15.75,264.0925,-26.8275
335,225788,1.1155680000000001,-0.409432,-0.616344,33.8975,323.0325,-39.445
336,225884,1.217072,-0.24717199999999998,-0.746396,65.485,402.85,-79.9225
337,225981,1.575996,-0.132004,-0.733464,82.81,455.63,-99.89
338,226077,1.912716,-0.319152,-0.361852,95.655,495.46,-86.7125
339,226173,2.38876,-0.6946681,-0.58072,80.395,510.125,-95.375
340,226270,2.5693200000000003,-0.312564,-0.735416,70.0175,491.9425,-121.415
341,226366,2.41438,0.14347200000000002,-1.194868,69.3875,433.055,-114.7475
342,226462,2.7877,-0.5665680000000001,-1.3773799999999998,6.545,279.9125,-79.6075
343,226559,2.6532560000000003,-0.46481999999999996,-1.6799400000000002,-34.37,230.3,-91.07
344,226655,1.977132,-0.8967,-1.75558,60.3925,334.4775,-134.54
345,226751,0.921832,-0.25132,-1.09312,19.81,233.24,-140.105
346,226847,2.445368,-0.8679081,-1.586488,-66.78,122.465,-186.6025
347,226944,2.858704,-1.225856,-2.666676,35.3675,197.4175,-115.6925
348,227040,2.1047439999999997,-1.404708,-2.10938,14.4025,50.785,-44.5025
349,227136,1.0582280000000002,-1.141676,-1.667252,-20.8425,-40.18,3.8675
350,227233,0.25058800000000003,-0.7829961,-1.186572,-66.6925,-100.7825,26.3025
351,227329,-0.06832001,-0.41553199999999996,-0.9674601,-94.95501,-113.365,31.85
352,227425,-0.122732,-0.11614400000000001,-0.9110959999999999,-98.665,-111.055,32.62
353,227521,0.036356,0.064416,-0.9540401,-76.65,-106.155,37.905
354,227618,0.27718400000000004,0.08662001,-1.02358,-40.355,-111.0375,47.845
355,227714,0.49434399999999995,0.029524,-1.042612,-8.75,-131.6875,54.145
356,227810,0.62952,-0.010248,-1.011624,7.2625,-165.62,52.955
357,227907,0.6663640000000001,-0.0051240009999999996,-0.9464761,10.64,-204.82,47.46
358,228003,0.668316,0.035136,-0.865468,9.3275,-241.395,41.37
359,228099,0.687592,0.09150001,-0.7881199999999999,9.7125,-271.845,36.9775
360,228195,0.710284,0.133956,-0.7200439999999999,13.9125,-295.1375,35.8575
361,228292,0.72956,0.14152,-0.676856,21.9275,-311.08,37.94
362,228388,0.7427361,0.12395199999999999,-0.6378159999999999,29.785,-321.09,40.775
363,228485,0.7881199999999999,0.10736,-0.6273241,34.86,-327.6525,42.385
364,228581,0.8488761,0.101748,-0.638548,37.1,-332.465,42.0175
365,228677,0.912316,0.107848,-0.662216,37.8,-335.93,40.425
366,228773,1.012844,0.119804,-0.726144,39.7075,-336.875,39.4975
367,228869,1.150216,0.102968,-0.7849480999999999,43.435,-336.805,40.0925
368,228966,1.279536,0.06124401,-0.8256960999999999,47.32,-337.4,41.86
369,229062,1.372744,0.022448,-0.862296,49.245,-339.3425,45.01
370,229158,1.45302,-0.016104,-0.8954801,49.455,-340.2875,50.3125
371,229255,1.5403719999999999,-0.074664,-0.9352520000000001,48.51,-338.8175,57.575
372,229351,1.6662759999999999,-0.156404,-0.9774639999999999,45.7625,-334.0575,66.53501
373,229447,1.84464,-0.23058,-1.00528,40.425,-326.0425,77.3675
374,229544,2.114748,-0.275476,-1.036756,33.145,-314.6675,92.05001
375,229640,2.588352,-0.20008,-1.081408,25.655,-300.4225,112.6125
376,229736,3.1827360000000002,-0.09223200000000001,-1.088484,20.93,-291.2,139.02
377,229832,3.694404,0.000976,-1.026996,18.865,-296.695,162.8725
378,229929,4.075044,-0.002684,-0.775188,14.105,-319.3925,175.42
379,230025,4.147755999999999,-0.089304,-0.265228,1.4175,-354.1475,173.25
380,230121,3.667808,-0.06832001,0.369904,-27.65,-386.2425,155.015
381,230217,3.157116,0.181292,1.017236,-63.6125,-392.385,127.995
382,230314,2.806732,0.43505200000000005,1.63114,-82.32,-372.4525,98.28
383,230410,2.553948,0.72468,2.154764,-76.3525,-334.845,65.15250999999999
384,230506,2.447808,0.9933241,2.646424,-42.21,-278.495,34.6675
385,230603,2.318732,1.054568,3.0866,12.005,-211.0675,12.215
386,230699,2.01422,0.8396040000000001,3.1934720000000003,62.2825,-132.4575,-8.8025
387,230795,1.699948,0.465796,2.853336,83.86001,-43.82,-36.5575
388,230891,1.412272,-0.108824,1.950292,74.585,46.235,-66.1325
389,230988,0.636108,-1.129232,0.40528400000000003,-3.92,132.3,-104.1425
390,231084,2.1059639999999997,0.06563601,-1.22732,-69.52750999999999,208.845,-135.7125
391,231180,-1.365424,-1.182424,-2.93776,-36.5575,178.465,-76.965
392,231277,-0.6649,0.284504,0.6541640000000001,36.12,240.835,-17.85
393,231373,1.742648,0.344528,0.623664,49.9625,353.9025,11.0075
394,231469,3.312788,-0.025863999999999998,-1.671644,50.8025,351.7325,9.4675
395,231565,1.7336200000000002,0.21276799999999998,-1.3590799999999998,33.1975,273.6125,-8.0325
396,231662,1.303692,0.40381999999999996,-1.0650600000000001,21.805,224.1575,-56.0
397,231758,2.216008,-0.9686799999999999,-0.9860040999999999,22.785,230.65,-64.015
398,231854,3.30376,-3.172976,-1.6445599999999998,8.6975,189.9975,-38.0275
399,231950,2.026908,-0.2867,-0.13542,-77.595,99.54,-32.095
400,232047,0.887916,1.347856,-1.6989720000000001,-104.1425,24.5175,-76.6325
401,232143,0.965996,0.09613601,-0.7171161,-52.2725,33.285,-40.81
402,232239,1.1448479999999999,-0.6663640000000001,-0.580964,-27.055,30.9575,-17.64
403,232336,0.76982,0.205936,-0.9496479999999999,-46.935,10.955,-30.9575
404,232432,0.8906,-0.000732,-0.8203280000000001,-32.165,5.635,-26.0575
405,232528,0.7659161,-0.046848,-0.7854361,-19.915,2.3275,-17.92
406,232624,0.756156,-0.03904,-0.787144,-16.3275,-0.14,-15.3475
407,232721,0.7046720999999999,-0.142252,-0.72224,-10.395,0.315,-11.48
408,232817,0.656848,-0.12468399999999999,-0.7315119999999999,-10.675,-0.5075,-11.655
409,232913,0.662216,-0.14688800000000002,-0.72346,-11.3925,0.91,-13.02
410,233010,0.6851520999999999,-0.110776,-0.7373681,-12.0925,1.6975,-14.1925
411,233106,0.7005239999999999,-0.09150001,-0.7283400999999999,-12.075,2.2575,-14.3325
412,233202,0.701256,-0.102724,-0.72956,-11.4275,1.8025,-13.9825
413,233298,0.685396,-0.111996,-0.7139439999999999,-11.6025,0.77,-14.105
414,233395,0.692716,-0.100772,-0.7278521,-12.6875,-0.35,-14.7
415,233491,0.7019880000000001,-0.100772,-0.7327321,-13.2125,-1.82,-15.1375
416,233587,0.69296,-0.09906401,-0.7329760000000001,-12.46,-3.5875,-15.1725
417,233683,0.692228,-0.106628,-0.730292,-11.935,-5.145,-15.2775
418,233780,0.67588,-0.112728,-0.7139439999999999,-12.18,-7.07,-16.0475
419,233876,0.681736,-0.104432,-0.714676,-12.845,-9.0125,-16.765
420,233972,0.685396,-0.090036,-0.7232161,-13.1425,-10.5875,-17.0975
421,234069,0.679296,-0.077592,-0.7200439999999999,-12.6525,-11.305,-16.9225
422,234165,0.661484,-0.08857201,-0.715164,-11.97,-11.515,-16.3275
423,234261,0.657092,-0.085156,-0.7241920000000001,-11.165,-11.41,-15.5925
424,234357,0.676612,-0.057096,-0.727608,-10.36,-10.465,-15.225
425,234454,0.671976,-0.052948,-0.727608,-9.065,-9.1525,-14.385
426,234550,0.670024,-0.0549,-0.7232161,-7.77,-7.945,-13.405
427,234646,0.67832,-0.05172801,-0.7227279999999999,-6.755,-6.58,-12.8275
428,234743,0.688812,-0.049532,-0.7315119999999999,-5.7925,-5.8275,-12.32
429,234839,0.660752,-0.063684,-0.7241920000000001,-4.3925,-5.4075,-11.725
430,234935,0.6734399999999999,-0.05172801,-0.728096,-3.57,-4.165,-11.76
431,235031,0.679784,-0.053191999999999996,-0.729072,-2.24,-2.8525,-11.585
432,235128,0.68076,-0.059048,-0.73444,-1.4,-1.9425,-11.9
433,235224,0.660996,-0.067588,-0.7320001,-1.015,-1.33,-12.915
434,235320,0.668072,-0.069784,-0.734196,-0.8400001,0.2625,-14.5075
435,235417,0.62464,-0.07612801,-0.7664041,-1.47,2.9225,-15.645
436,235513,0.6602640000000001,-0.0732,-0.755424,-2.2925,8.5925,-16.87
437,235609,0.6512359999999999,-0.069052,-0.7612800999999999,-2.065,13.09,-18.76
438,235705,0.6602640000000001,-0.06880801,-0.7610359999999999,-0.9275,18.1125,-20.16
439,235802,0.5799880000000001,0.0051240009999999996,-0.856196,-0.805,25.9875,-20.2475
440,235898,0.676124,-0.02684,-0.8039801,6.0725,43.9075,-17.1675
441,235994,0.659532,0.012688,-0.805688,9.5375,61.355,-13.0725
442,236090,0.6512359999999999,0.031232,-0.8030041,13.23,81.0775,-7.0
443,236187,0.6527,0.027083999999999997,-0.7795801,15.1025,101.4125,0.91
444,236283,0.6634359999999999,0.014396,-0.74542,16.66,125.4225,9.0475
445,236379,0.63562,-0.006344,-0.73444,18.13,152.6525,14.42
446,236476,0.6326921,-0.022203999999999998,-0.760304,20.44,186.5675,15.5575
447,236572,0.623664,-0.036112,-0.753472,23.6075,223.755,9.9575
448,236668,0.644892,-0.0488,-0.794708,29.89,262.0275,-3.64
449,236764,0.60024,-0.05856,-0.781044,39.375,294.385,-17.85
450,236861,0.7088201,-0.136884,-0.8369200000000001,42.1225,310.6775,-33.88
451,236957,0.6790520999999999,-0.213988,-0.812032,28.5425,302.47,-47.845
452,237053,0.72346,-0.267912,-0.75274,15.4175,314.2475,-59.0275
453,237150,0.9511120000000001,-0.146644,-0.383324,13.3525,348.3375,-68.7575
454,237246,1.444968,-0.3355,-0.7522521,49.49,438.0775,-95.795
455,237342,1.9971400000000001,-0.20984,-0.91012,86.06501,509.565,-121.9925
456,237438,2.039108,-0.422364,-0.39894,88.0775,523.5825,-117.6175
457,237535,2.356552,-0.174704,-0.576572,63.175,525.3325,-125.5975
458,237631,2.704496,-0.009028000999999999,-1.350784,48.86,490.91,-119.945
459,237727,2.691076,-0.329156,-1.129964,35.2625,388.7975,-82.285
460,237824,2.288232,-0.211792,-1.378112,-77.7875,247.3275,-89.25
461,237920,2.298724,-0.7232161,-1.7714400000000001,4.34,354.515,-131.565
462,238016,1.127524,-0.467016,-2.6837560000000003,-7.595,326.6375,-134.4
463,238112,0.908168,0.014396,-1.236592,-92.48751,138.4425,-156.135
464,238209,3.3630519999999997,-0.921588,-3.216652,-4.13,216.965,-139.8075
465,238305,2.556388,-1.281244,-2.5268639999999998,36.12,120.82,-59.8325
466,238401,1.523536,-1.297104,-2.1374400000000002,10.115,-17.7275,-9.24
467,238497,0.43212399999999995,-1.025288,-1.43716,-45.535,-111.5275,19.1275
468,238594,0.055144000000000006,-0.625372,-1.160464,-90.59751,-140.8925,28.42
469,238690,-0.036356,-0.28304,-1.078968,-104.6675,-145.5825,35.7
470,238786,0.10906800000000001,-0.059048,-1.1102,-85.0325,-143.15,50.435
471,238883,0.33013200000000004,-0.007076001,-1.152656,-47.3025,-149.5725,69.44
472,238979,0.5219159999999999,-0.03294,-1.136308,-13.51,-171.29,82.6875
473,239075,0.6219561,-0.058316,-1.067988,4.0075,-204.3825,85.19
474,239171,0.64294,-0.042212,-0.955016,7.7525,-239.54,79.8525
475,239268,0.6380600000000001,0.011712,-0.841556,4.865,-270.2525,70.9625
476,239364,0.649528,0.08906,-0.7722600000000001,2.5725,-293.8425,61.985
477,239460,0.648796,0.170068,-0.728096,4.9525,-310.7475,55.02
478,239557,0.658312,0.202764,-0.687592,12.215,-320.8625,49.35
479,239653,0.701256,0.2257,-0.678076,21.21,-326.025,42.98
480,239749,0.769088,0.23424,-0.692716,30.0475,-328.8075,35.9275
481,239845,0.8571719999999999,0.24131599999999997,-0.7256560000000001,38.7625,-330.7325,28.875
482,239942,1.00406,0.233264,-0.7937320999999999,48.02,-331.45,23.38
483,240038,1.148508,0.198128,-0.8518040000000001,57.0675,-332.6925,20.3525
484,240134,1.2724600000000001,0.14005599999999999,-0.889624,64.435,-335.9825,19.0575
485,240230,1.3771360000000001,0.09345201,-0.913048,69.055,-339.57,19.8975
486,240327,1.4757120000000001,0.040016,-0.9516,71.71500999999999,-342.02,24.1675
487,240423,1.597712,-0.028304000000000003,-1.010892,72.765,-342.3875,31.395
488,240519,1.7824200000000001,-0.12444000000000001,-1.092144,71.645,-341.46,40.495
489,240616,2.037644,-0.237656,-1.157292,67.4275,-340.6375,52.395
490,240712,2.3321520000000002,-0.357216,-1.175348,59.3425,-340.4975,68.8275
491,240808,2.675704,-0.40504,-1.152412,45.535,-340.4975,90.685
492,240904,3.029748,-0.270352,-1.073844,27.09,-340.8125,117.5125
493,241001,3.403312,-0.10931199999999999,-0.9479401,11.4625,-342.8775,143.535
494,241097,3.7332,-0.02806,-0.707112,1.785,-351.61,157.9375
495,241193,3.8808199999999995,-0.065148,-0.280356,-6.615,-366.31,159.4425
496,241289,3.5848480000000005,0.028792,0.292068,-22.155,-380.1525,149.345
497,241386,3.2117720000000003,0.279136,0.8820601,-41.16,-375.305,134.7325
498,241482,2.846016,0.431148,1.554036,-48.2475,-353.2375,117.8625
499,241578,2.579812,0.6834439999999999,2.154032,-43.9425,-312.9175,89.565
500,241675,2.545896,1.0345600000000001,2.671312,-23.1875,-253.925,55.7025
501,241771,2.56078,1.134112,3.1537,19.215,-184.31,28.35
502,241867,2.1581799999999998,0.891576,3.26838,61.0575,-107.0475,0.0525
503,241963,1.7999880000000001,0.5443640000000001,2.866268,76.7025,-18.7075,-34.09
504,242060,1.469368,-0.084912,1.76778,66.6575,72.205,-66.8325
505,242156,1.223904,-1.275876,-0.636108,-13.7375,150.15,-99.5575
506,242252,1.631872,-0.16909200000000002,-0.821304,-90.93,210.7875,-124.705
507,242349,-1.5523280000000002,-1.130452,-2.79014,-53.2525,198.065,-81.165
508,242445,-0.696376,0.43163599999999996,0.625128,33.53,264.7225,-25.3225
509,242541,2.1752599999999997,0.465552,0.606584,52.2025,388.4475,21.3325
510,242637,3.4330800000000004,0.129076,-1.5586719999999998,65.415,367.85,33.495
511,242734,1.624796,0.182268,-1.4008040000000002,48.125,286.9825,1.505
512,242830,1.479128,0.27694,-1.1794959999999999,30.1525,240.59,-64.1375
513,242926,2.351672,-1.169492,-0.8220360000000001,20.825,240.8175,-66.815
514,243023,4.248284,-3.9645120000000005,-1.098244,-9.065,189.1925,-29.19
515,243119,1.525488,0.466528,-0.48433999999999994,-99.365,77.28,-43.47
516,243215,0.6946681,1.523536,-1.782664,-119.5075,14.8575,-88.865
517,243311,1.105076,-0.39113200000000004,-0.6007279999999999,-48.9475,34.055,-37.905
518,243408,1.156072,-0.293044,-0.7107720000000001,-35.14,28.7175,-21.63
519,243504,0.749568,0.2379,-0.9791719999999999,-51.4675,-0.8400001,-36.9775
520,243600,0.8608319999999999,-0.180072,-0.72102,-30.1175,0.0875,-26.3025
521,243696,0.7503,0.065148,-0.8481440999999998,-26.8975,-1.4525,-23.5725
522,243793,0.779824,0.025376,-0.797148,-20.51,-2.2925,-19.7225
523,243889,0.70638,-0.116876,-0.7451760000000001,-11.62,-2.0825,-12.705
524,243985,0.662216,-0.102968,-0.741028,-11.4975,-4.13,-12.81
525,244082,0.685396,-0.11028800000000001,-0.735172,-11.41,-3.3075,-13.335
526,244178,0.6851520999999999,-0.09711201,-0.7388319999999999,-11.8825,-3.36,-13.895
527,244274,0.689056,-0.07978801,-0.7329760000000001,-11.7425,-3.255,-14.1575
528,244371,0.686616,-0.09247601,-0.726876,-10.9375,-3.36,-13.7025
529,244467,0.676612,-0.101992,-0.721996,-11.0425,-4.165,-13.7725
530,244563,0.685884,-0.082228,-0.735416,-11.7775,-4.8475,-14.5775
531,244659,0.6824680000000001,-0.088328,-0.729072,-11.3225,-5.0925,-14.6825
532,244756,0.68076,-0.08857201,-0.730292,-10.2375,-4.9875,-14.4725
533,244852,0.673928,-0.090036,-0.7217521,-9.5375,-5.11,-14.63
534,244948,0.6832,-0.08637601,-0.71858,-9.135,-5.425,-14.8925
535,245044,0.6832,-0.064416,-0.7176041,-8.89,-5.9675,-15.085
536,245141,0.68198,-0.052948,-0.72712,-8.33,-6.685,-14.525
537,245237,0.6663640000000001,-0.057096,-0.7327321,-6.86,-6.825,-13.195
538,245333,0.6695361,-0.05246,-0.734928,-5.495,-5.6875,-11.725
539,245430,0.6602640000000001,-0.047092,-0.73688,-3.885,-4.2875,-10.2375
540,245526,0.662948,-0.06466001,-0.7224841,-2.1175,-2.52,-8.54
541,245622,0.6753920999999999,-0.062952,-0.7178479999999999,-1.155,-1.2425,-7.945
542,245718,0.679784,-0.044652,-0.7224841,-0.4025,-0.63,-8.1375
543,245815,0.6729520999999999,-0.057584,-0.7227279999999999,0.9975,-0.4025,-7.42
544,245911,0.6756361,-0.058316,-0.721264,2.4325,0.2275,-6.44
545,246007,0.676856,-0.039284,-0.7200439999999999,3.8325,1.085,-5.6525
546,246104,0.6763680000000001,-0.06344,-0.729804,4.69,2.1,-4.8125
547,246200,0.6724640000000001,-0.06661201,-0.724436,4.725,2.065,-5.18
548,246296,0.6771,-0.07686,-0.730292,4.4975,2.8875,-6.37
549,246392,0.6649,-0.068564,-0.7300479999999999,4.1825,3.5175,-8.0325
550,246489,0.671244,-0.0854,-0.7288279999999999,4.5325,5.81,-9.1875
551,246585,0.64782,-0.09906401,-0.7549359999999999,4.5675,8.3125,-11.06
552,246681,0.6456241,-0.09540401,-0.759084,2.1525,11.9,-13.23
553,246778,0.661972,-0.094672,-0.7468840999999999,2.0475,17.7275,-15.5225
554,246874,0.6019479999999999,-0.04514,-0.8369200000000001,0.9275,22.995,-17.2725
555,246970,0.5797441,-0.072712,-0.8488761,5.425,38.99,-15.4875
556,247066,0.642452,-0.029768,-0.8222799999999999,10.7625,62.7725,-11.3925
557,247163,0.652456,0.019275999999999998,-0.7993439999999999,13.1775,85.0675,-6.9475
558,247259,0.648308,0.02684,-0.795928,14.8925,110.0925,0.4375
559,247355,0.623664,0.010492,-0.801296,15.6625,136.7625,8.68
560,247452,0.631228,-0.011956,-0.774212,17.185,168.385,14.2975
561,247548,0.5875520000000001,-0.007808001,-0.826428,20.0725,206.71,14.175
562,247644,0.635864,-0.020252000000000003,-0.800564,29.6625,251.615,6.405
563,247740,0.589992,-0.040260000000000004,-0.807884,40.88,292.565,-5.9675
564,247837,0.625616,-0.07637200000000001,-0.8552200000000001,49.5075,324.7125,-15.7325
565,247933,0.602436,-0.142252,-0.809348,39.235,331.3625,-24.1675
566,248029,0.632204,-0.227652,-0.794952,23.9925,340.1475,-34.1425
567,248126,0.999668,-0.29524,-0.67466,27.3525,378.385,-44.0825
568,248222,1.343952,-0.471164,-0.7300479999999999,68.985,470.3125,-78.5925
569,248318,1.7870560000000002,-0.251808,-0.9964959999999999,85.1025,535.5875,-116.095
570,248414,2.053748,-0.49824799999999997,-0.35672800000000005,103.7925,562.8875,-103.3375
571,248511,2.631296,-0.552904,-0.45115600000000006,88.09501,567.9275,-116.5675
572,248607,2.976068,0.01098,-1.291492,60.97,526.7849,-135.7125
573,248703,2.8426,-0.4575,-1.130452,36.26,405.9125,-104.6675
574,248800,2.8487,-0.48116800000000004,-1.4659520000000001,-85.575,242.375,-102.41
575,248896,2.179896,-0.7722600000000001,-1.8346360000000002,-0.0875,343.455,-136.8675
576,248992,1.0086959999999998,-0.34111199999999997,-2.729384,11.0775,327.775,-144.34
577,249088,1.342976,-0.027083999999999997,-1.402756,-65.3275,164.2375,-176.19
578,249185,3.491396,-1.1775440000000001,-3.1756599999999997,32.8125,250.39,-156.9575
579,249281,2.595916,-1.4774200000000002,-2.569076,44.275,104.1075,-83.1075
580,249377,1.512312,-1.426424,-2.178676,15.75,-42.3325,-26.425
581,249474,0.33428,-1.14924,-1.4391120000000002,-35.6825,-137.025,7.7875
582,249570,-0.101504,-0.793488,-1.0979999999999999,-82.9325,-163.17,20.4225
583,249666,-0.179096,-0.45383999999999997,-0.9752681000000001,-107.1875,-157.185,25.4625
584,249762,-0.004392,-0.179584,-1.027728,-100.8,-146.9825,36.575
585,249859,0.272304,-0.06661201,-1.106296,-70.49,-148.575,55.545
586,249955,0.5404601,-0.087352,-1.118008,-36.05,-168.56,73.4475
587,250051,0.630008,-0.12566,-1.054568,-16.03,-204.645,82.355
588,250147,0.641964,-0.127368,-0.9464761,-11.865,-244.16,80.955
589,250244,0.651968,-0.072712,-0.8296,-16.52,-278.88,73.185
590,250340,0.6756361,0.017812,-0.7600600000000001,-20.7025,-306.11,63.7
591,250436,0.690032,0.09125599999999999,-0.7141881,-17.7275,-325.29,56.6825
592,250533,0.7056479999999999,0.121268,-0.664412,-8.9775,-337.1025,51.7475
593,250629,0.7227279999999999,0.13542,-0.6405,1.1375,-344.1375,47.145
594,250725,0.772748,0.1403,-0.641964,11.375,-346.78,41.4925
595,250821,0.853024,0.11345999999999999,-0.6304960000000001,20.9125,-346.22,35.1225
596,250918,1.0025959999999998,0.14566800000000002,-0.748104,28.7175,-343.84,28.42
597,251014,1.148508,0.11736400000000001,-0.8210601000000001,38.2725,-342.44,25.0425
598,251110,1.279292,0.071004,-0.888648,46.6725,-343.21,22.995
599,251207,1.3832360000000001,0.012931999999999999,-0.9189040999999999,52.7625,-344.4525,22.89
600,251303,1.49694,-0.036112,-0.9669721,56.98,-344.6975,25.27
601,251399,1.5859999999999999,-0.09784401,-1.016016,58.7475,-342.895,30.5025
602,251496,1.6836,-0.163724,-1.069452,57.575,-338.4325,37.065
603,251592,1.850008,-0.231068,-1.116788,54.8975,-330.3125,44.975
604,251688,2.1191400000000002,-0.296704,-1.187548,51.345,-317.975,55.685
605,251784,2.609092,-0.291824,-1.302716,47.4425,-303.2925,71.5575
606,251881,3.287168,-0.171776,-1.350052,45.465,-292.565,95.935
607,251977,3.921812,-0.087352,-1.245132,48.615,-298.5325,125.055
608,252073,4.281224,-0.08759601,-0.961116,52.185,-326.7075,145.915
609,252170,4.097980000000001,-0.09589201,-0.47555600000000003,42.21,-362.7575,151.4625
610,252266,3.6260839999999996,0.213988,0.431148,9.03,-390.74,136.7275
611,252362,3.4469879999999997,0.335256,0.9406200000000001,5.2325,-395.745,127.925
612,252458,2.901404,0.34257600000000005,1.7697319999999999,-14.6125,-397.705,105.8225
613,252555,2.440732,0.623908,2.4817240000000003,-27.6675,-361.6375,64.47
614,252651,2.3982759999999996,1.068964,3.042192,-18.7075,-296.8175,20.16
615,252747,2.323124,1.209508,3.4560160000000004,22.5575,-214.6725,-6.8075
616,252844,1.9522439999999999,0.8657120999999999,3.415512,70.105,-117.5125,-23.8875
617,252940,1.698484,0.453108,2.88408,85.99501,-13.3875,-45.6925
618,253036,2.189412,-0.066124,2.2967720000000003,65.975,91.0875,-68.5125
619,253132,-0.183488,-0.24912399999999998,1.032608,-86.17,192.9025,-98.0875
620,253229,2.327028,-0.264008,-1.257576,-137.9175,267.89,-114.94
621,253325,-1.522804,-0.7388319999999999,-2.39852,-83.335,206.0625,-51.8175
622,253421,-0.009028000999999999,0.49263599999999996,0.69906,7.385,312.9175,13.02
623,253518,2.25822,0.8076399999999999,0.297192,20.2825,376.6875,35.105
624,253614,3.3691519999999997,0.413092,-1.8592799999999998,31.885,376.32,30.205
625,253710,1.8051119999999998,0.5511961,-1.463268,10.5175,289.695,-11.0075
626,253807,1.8483,0.255712,-1.19926,-2.7825,235.4975,-77.315
627,253903,2.324832,-1.367864,-0.9113399999999999,-3.8325,219.555,-64.5575
628,253999,3.789564,-2.730848,-0.108824,-41.335,156.8875,-18.8125
629,254095,0.8439959999999999,1.210728,-1.2214639999999999,-103.1625,43.19,-67.375
630,254192,1.02236,1.404708,-1.597712,-110.145,21.3675,-82.8975
631,254288,1.4720520000000001,-0.5309441,-0.547536,-36.295,25.7425,-26.9675
632,254384,0.69296,-0.019032,-0.8527800999999999,-34.755,5.18,-23.2925
633,254481,0.8540000000000001,0.085888,-0.850096,-36.1025,-2.1875,-27.72
634,254577,0.853024,-0.004148001,-0.772504,-17.7275,2.9575,-15.96
635,254673,0.6836880999999999,-0.006832001,-0.793488,-11.025,-2.8525,-11.7075
636,254769,0.729804,-0.123708,-0.720532,-3.5875,0.91,-6.2475
637,254866,0.692228,-0.082228,-0.742492,-1.8375,-0.0525,-5.18
638,254962,0.6736840000000001,-0.09882,-0.744688,-0.21,0.35,-4.9175
639,255058,0.684664,-0.085156,-0.738588,0.945,1.8375,-4.515
640,255155,0.6834439999999999,-0.09028,-0.731024,1.925,3.045,-3.885
641,255251,0.7015,-0.08784,-0.7278521,2.7125,3.8675,-3.15
642,255347,0.692228,-0.111996,-0.7198,3.3425,4.2875,-2.625
643,255443,0.691008,-0.12468399999999999,-0.7224841,3.185,4.1825,-3.045
644,255540,0.69296,-0.116632,-0.7137001000000001,2.31,3.36,-4.2175
645,255636,0.69662,-0.113704,-0.715896,1.3825,2.8175,-5.3025
646,255732,0.677344,-0.12248800000000001,-0.713212,0.7875,2.0475,-6.5275
647,255829,0.687104,-0.11028800000000001,-0.7178479999999999,0.1575,1.8375,-7.77
648,255925,0.688812,-0.10687200000000001,-0.708576,-0.21,1.715,-8.6625
649,256021,0.697108,-0.10223600000000001,-0.7056479999999999,-0.525,1.855,-8.96
650,256118,0.6883239999999999,-0.10394400000000001,-0.705892,-0.7875,1.05,-9.2925
651,256214,0.681492,-0.10809200000000001,-0.7017439999999999,-1.365,0.5075,-9.7475
652,256310,0.6902761,-0.09540401,-0.7015,-2.31,-0.1575,-10.4125
653,256406,0.682712,-0.08637601,-0.705404,-3.1325,-1.0675,-10.85
654,256503,0.681736,-0.089304,-0.708088,-3.9025,-1.365,-10.955
655,256599,0.687592,-0.10418800000000002,-0.703696,-4.165,-1.1725,-10.6925
656,256695,0.685884,-0.11028800000000001,-0.7044279999999999,-4.4275,-1.3475,-11.235
657,256792,0.685396,-0.099552,-0.7019880000000001,-4.8825,-1.9075,-12.6525
658,256888,0.66978,-0.09979600000000001,-0.7117479999999999,-5.2325,-2.3625,-13.755
659,256984,0.6695361,-0.100284,-0.7139439999999999,-4.9,-2.52,-14.3675
660,257081,0.662216,-0.106628,-0.709796,-4.4975,-2.6075,-15.6625
661,257177,0.679784,-0.096868,-0.7168720000000001,-4.6025,-3.3075,-17.5
662,257273,0.6844201,-0.085888,-0.7105279999999999,-5.0575,-4.2525,-19.215
663,257369,0.6753920999999999,-0.090768,-0.715408,-6.0375,-5.6875,-20.475
664,257466,0.6844201,-0.06954,-0.7229720000000001,-7.28,-5.39,-21.4725
665,257562,0.687592,-0.05246,-0.720776,-4.935,-1.505,-21.945
666,257658,0.665632,-0.06270801,-0.74542,-0.8225,3.01,-21.455
667,257755,0.654896,-0.079056,-0.758108,3.7975,9.9225,-21.1925
668,257851,0.589504,-0.013908000000000002,-0.8147161,5.95,18.2875,-20.02
669,257947,0.654896,-0.063196,-0.785924,7.875,34.3,-14.63
670,258043,0.629764,-0.061975999999999996,-0.81862,11.06,51.9575,-9.5025
671,258140,0.6600201,0.0,-0.800808,13.4575,72.905,-4.1125
672,258236,0.685396,0.022936,-0.7571321,15.4,95.97,2.9225
673,258332,0.673928,0.025863999999999998,-0.752008,16.17,118.9825,10.9025
674,258429,0.649284,-0.00122,-0.7854361,16.59,144.3225,18.725
675,258525,0.6097560000000001,-0.033672,-0.7820199999999999,18.13,175.07,22.9425
676,258621,0.6451359999999999,-0.08100801,-0.7705521,25.795,214.4625,19.2325
677,258718,0.6117081,-0.042212,-0.8142281,36.05,254.1525,6.86
678,258814,0.638792,-0.09150001,-0.7659161,49.56,292.4425,-5.4425
679,258910,0.659288,-0.133468,-0.783728,50.6275,310.17,-16.03
680,259006,0.6158561,-0.133468,-0.794708,35.77,311.9025,-26.425
681,259103,0.701012,-0.21838000000000002,-0.771772,29.4175,335.58,-34.23
682,259199,1.158024,-0.45335200000000003,-0.695156,43.0325,385.035,-46.2175
683,259295,1.353956,-0.313296,-0.812032,75.775,469.0875,-90.405
684,259392,1.8031599999999999,-0.22423600000000002,-0.960628,86.905,519.365,-110.2675
685,259488,2.186484,-0.5058121,-0.576572,100.9225,544.7225,-92.48751
686,259584,2.589572,-0.43432,-0.580964,86.1,548.4675,-106.4175
687,259680,2.909456,0.155184,-1.4276440000000001,59.7975,505.4175,-126.0525
688,259777,2.871636,-0.572912,-1.237568,23.695,380.9925,-100.975
689,259873,2.628124,-0.42822,-1.58722,-107.7125,229.985,-109.83
690,259969,2.017636,-0.812032,-1.838784,-7.9625,348.8275,-144.8475
691,260066,0.47775200000000007,-0.030987999999999998,-2.245044,-16.8525,311.5525,-146.4225
692,260162,1.5340280000000002,-0.038551999999999996,-1.451068,-85.4,193.3925,-180.1975
693,260258,3.2788720000000002,-1.0077200000000002,-3.13662,31.5875,292.775,-144.3925
694,260354,2.624952,-1.358592,-2.541748,25.795,129.6575,-88.18251
695,260451,1.571116,-1.280268,-2.213568,1.6625,-0.805,-36.0325
696,260547,0.564372,-1.0201639999999998,-1.519876,-40.9325,-99.435,1.0675
697,260643,0.001464,-0.6844201,-1.169736,-77.945,-140.175,20.44
698,260740,-0.118828,-0.427976,-0.989908,-95.4275,-141.365,31.675
699,260836,0.004148001,-0.243756,-0.9679481,-92.8025,-133.1925,43.0325
700,260932,0.19885999999999998,-0.15494000000000002,-1.000644,-75.5825,-133.5775,55.5275
701,261029,0.46433199999999997,-0.117852,-1.0401719999999999,-54.6,-148.015,66.2375
702,261125,0.705404,-0.098088,-1.061644,-38.1675,-177.0475,72.2925
703,261221,0.8369200000000001,-0.076616,-1.010892,-28.665,-217.6475,73.4825
704,261317,0.8520479999999999,-0.053924,-0.894748,-24.9725,-262.29,70.5425
705,261414,0.8315520000000001,-0.016104,-0.773968,-23.905,-300.545,63.9975
706,261510,0.79178,0.017568,-0.6729520999999999,-23.7125,-328.09,56.3675
707,261606,0.76494,0.057584,-0.618052,-20.9825,-344.995,50.295
708,261703,0.81374,0.067832,-0.6117081,-15.1375,-352.2925,44.8875
709,261799,0.868884,0.07222401,-0.605608,-7.5425,-355.7575,39.83
710,261895,0.9618481,0.07686,-0.6280560000000001,0.1575,-358.015,35.0525
711,261992,1.048956,0.0732,-0.666608,7.6825,-360.3075,29.4
712,262088,1.16632,0.067344,-0.726388,16.45,-361.305,24.3425
713,262184,1.312232,0.034648000000000005,-0.7822640000000001,25.725,-360.675,21.35
714,262280,1.435208,-0.0305,-0.8142281,33.7575,-360.4825,20.685
715,262377,1.523048,-0.09272000000000001,-0.8481440999999998,38.29,-360.6925,22.68
716,262473,1.62992,-0.157868,-0.903532,39.62,-359.8175,26.8275
717,262569,1.783396,-0.246196,-0.9613601,38.9025,-357.175,33.11
718,262666,1.950048,-0.329156,-0.9823440999999999,34.9825,-353.9375,40.7575
719,262762,2.12646,-0.380152,-0.985516,27.545,-347.8475,51.0825
720,262858,2.3480119999999998,-0.329644,-0.964776,17.2725,-336.315,64.33
721,262955,2.730848,-0.180072,-0.9618481,9.1,-318.64,81.375
722,263051,3.346704,-0.020252000000000003,-0.9437921,9.9225,-301.4025,97.5625
723,263147,4.064552,0.01952,-0.7808001,17.6925,-300.9125,107.1175
724,263243,4.236328,-0.041236,-0.3843,22.2775,-326.2175,109.06
725,263340,4.046252,0.022936,0.122976,13.6675,-357.9275,99.68
726,263436,3.52092,0.183976,0.8671761,-0.1925,-383.145,82.67
727,263532,3.1085599999999998,0.308904,1.532564,-6.965,-392.0875,61.2675
728,263629,2.635932,0.5602239999999999,2.196488,-9.5025,-377.055,28.315
729,263725,2.378268,0.9115840000000001,2.769644,10.255,-326.13,-4.97
730,263821,2.246752,1.0504200000000001,3.30254,54.53,-249.4625,-23.38
731,263917,1.8919759999999999,0.7551800000000001,3.4096559999999996,98.47251,-153.055,-35.9275
732,264014,1.596248,0.411628,3.2715520000000002,105.805,-42.035,-55.8075
733,264110,0.49873599999999996,-0.0732,3.060004,9.9925,109.2525,-87.1325
734,264206,2.097912,-0.01342,0.6068279999999999,-80.815,254.9925,-116.025
735,264303,0.472628,-0.708576,-1.9900639999999998,-114.6425,222.0575,-104.79
736,264399,-0.907192,0.022936,-1.7153200000000002,-11.445,244.86,-35.945
737,264495,1.1455799999999998,0.8481440999999998,1.291248,42.8925,360.815,34.7025
738,264591,3.091968,0.288408,-0.748836,52.115,386.12,51.625
739,264688,2.581276,0.40211199999999997,-2.105232,37.66,343.7175,18.0425
740,264784,1.9254040000000001,0.5914560000000001,-1.491816,12.705,258.3,-55.2125
741,264880,2.483676,-0.752984,-0.862296,1.8375,220.0275,-80.045
742,264977,4.0423480000000005,-4.052352,-0.9535521,-14.945,167.125,-27.6675
743,265073,1.0760399999999999,-0.067588,-0.211792,-87.6225,63.385,-32.0775
744,265169,0.7722600000000001,1.4339879999999998,-1.725812,-111.895,13.65,-92.575
745,265265,1.509628,-0.068564,-0.794708,-64.33,32.8125,-48.125
746,265362,1.001376,-0.186904,-0.715164,-38.395,18.0425,-26.7925
747,265458,0.6029241,0.07515201,-0.877912,-49.91,-6.79,-38.8675
748,265554,1.012844,0.08857201,-0.8210601000000001,-33.3725,3.885,-28.3325
749,265651,0.715408,0.036112,-0.820572,-22.33,-0.14,-21.735
750,265747,0.778604,-0.001464,-0.7664041,-12.985,-0.2625,-15.4
751,265843,0.7190681,-0.05172801,-0.7600600000000001,-5.74,0.7875,-9.065
752,265939,0.686372,-0.054167999999999994,-0.754204,-3.395,0.245,-7.4725
753,266036,0.6939361,-0.08784,-0.739564,-0.91,1.9425,-5.9325
754,266132,0.697108,-0.06270801,-0.738588,-0.5425,1.995,-5.8625
755,266228,0.6912520000000001,-0.080764,-0.7278521,0.035,2.5725,-5.39
756,266325,0.687592,-0.090036,-0.7324881,0.0875,2.7125,-5.3025
757,266421,0.6912520000000001,-0.09540401,-0.731024,-0.14,2.66,-5.915
758,266517,0.691496,-0.100772,-0.721996,-0.5075,2.2575,-6.6325
759,266613,0.6763680000000001,-0.117852,-0.71492,-1.26,1.47,-7.5775
760,266710,0.6734399999999999,-0.12078,-0.72224,-1.995,0.9625,-9.1525
761,266806,0.665632,-0.126636,-0.715896,-3.5175,0.245,-11.375
762,266902,0.6810039999999999,-0.102968,-0.716384,-5.0575,-0.5775,-13.4925
763,266998,0.681492,-0.08759601,-0.715164,-5.67,-1.1375,-14.665
764,267095,0.6810039999999999,-0.07222401,-0.7256560000000001,-5.5825,-1.505,-14.945
765,267191,0.69052,-0.061488,-0.733464,-5.0575,-1.155,-14.1925
766,267287,0.691008,-0.0671,-0.721264,-4.5325,-0.5775,-13.44
767,267384,0.6856399999999999,-0.08637601,-0.707112,-3.85,-0.5075,-12.7925
768,267480,0.686372,-0.07881200000000001,-0.720776,-4.2,-0.8225,-13.44
769,267576,0.685396,-0.07612801,-0.7183361,-3.8325,-1.295,-14.385
770,267672,0.683932,-0.07808001,-0.7156520000000001,-2.7475,-1.6275,-15.2075
771,267769,0.6753920999999999,-0.07710399999999999,-0.73078,-2.345,-1.3125,-16.1875
772,267865,0.660996,-0.07588400000000001,-0.727364,-3.885,-0.2975,-16.8175
773,267961,0.6824680000000001,-0.06124401,-0.7178479999999999,-3.9725,1.7325,-17.36
774,268057,0.6824680000000001,-0.05587601,-0.7195560000000001,-3.605,2.5375,-17.6225
775,268154,0.68686,-0.052216,-0.7183361,-3.0275,3.955,-17.0975
776,268250,0.6893,-0.045384,-0.7224841,-2.6075,5.8275,-16.8875
777,268346,0.658312,-0.026595999999999998,-0.740052,-1.26,9.1,-16.135
778,268443,0.6895439999999999,-0.026595999999999998,-0.738588,0.1225,15.8725,-13.7725
779,268539,0.684176,-0.03782,-0.734928,2.03,23.5725,-10.5525
780,268635,0.670512,-0.038064,-0.733464,3.815,30.2225,-8.5225
781,268731,0.6893,-0.04148,-0.72468,5.39,37.9225,-6.1075
782,268828,0.685396,-0.05246,-0.7361481,6.195,45.15,-4.0075
783,268924,0.673928,-0.042456,-0.7422481,6.8775,53.445,-2.4675
784,269020,0.6634359999999999,-0.05246,-0.762012,8.0325,66.29,-0.8400001
785,269117,0.653432,-0.051972000000000004,-0.7722600000000001,9.835,83.4575,0.7525
786,269213,0.6661201,-0.034648000000000005,-0.7522521,11.7425,104.1775,2.38
787,269309,0.671976,-0.010248,-0.7046720999999999,14.4025,126.9625,4.2175
788,269405,0.6824680000000001,0.011956,-0.71004,16.0825,151.3925,6.545
789,269502,0.6653880999999999,0.019764,-0.69906,18.55,177.1875,8.2075
790,269598,0.686616,-0.0122,-0.742492,24.3425,207.445,6.3175
791,269694,0.661484,-0.025376,-0.774456,29.33,237.0375,-1.05
792,269791,0.670024,-0.072956,-0.7754321,39.97,270.3925,-8.96
793,269887,0.7068681,-0.11126400000000002,-0.7315119999999999,38.6575,282.975,-15.2775
794,269983,0.65514,-0.13639600000000002,-0.75274,25.3925,285.495,-23.2575
795,270079,0.74908,-0.221552,-0.6824680000000001,23.94,308.56,-28.42
796,270176,1.1326479999999999,-0.323788,-0.6573359999999999,32.76,350.2975,-39.795
797,270272,1.250744,-0.32574000000000003,-0.7259001,67.6725,430.0275,-77.805
798,270368,1.5823399999999999,-0.19276,-0.7700640999999999,75.9325,481.005,-106.5575
799,270465,1.909788,-0.403088,-0.29646,82.8275,511.2975,-97.335
800,270561,2.423896,-0.6378159999999999,-0.5002,64.855,522.48,-109.5675
801,270657,2.657892,-0.14078800000000002,-0.8178880999999999,46.9525,501.06,-132.7025
802,270753,2.51442,0.005612,-0.9628241,36.365,430.3075,-117.915
803,270850,2.735728,-0.581696,-1.2343959999999998,-56.14,267.89,-91.35
804,270946,2.291892,-0.548512,-1.599176,-75.9675,254.59,-102.9525
805,271042,1.909788,-0.7922680000000001,-1.9000279999999998,9.135,349.5975,-138.1625
806,271139,0.760792,0.119316,-1.0889719999999998,-45.5525,219.0475,-139.265
807,271235,2.519056,-0.5443640000000001,-1.81902,-101.43,117.145,-187.4425
808,271331,2.7069360000000002,-0.731268,-2.841868,23.9925,170.66,-135.765
809,271427,1.901248,-0.9289081,-2.292868,26.005,11.7075,-84.42
810,271524,0.798856,-0.9030440000000001,-1.727032,21.035,-80.8325,-40.5825
811,271620,0.11126400000000002,-0.7937320999999999,-1.2104840000000001,2.38,-133.945,-12.495
812,271716,-0.07393200000000001,-0.636108,-0.9933241,-13.16,-140.28,5.6875
813,271813,0.038064,-0.501908,-0.9396440999999999,-22.1725,-137.235,21.105
814,271909,0.23424,-0.398452,-0.9686799999999999,-22.8725,-140.945,36.8725
815,272005,0.41577600000000003,-0.312076,-0.9906401,-19.3725,-158.3925,51.6425
816,272101,0.552904,-0.24863600000000002,-0.9833200000000001,-14.6125,-186.76,63.9275
817,272198,0.622688,-0.19178399999999998,-0.919636,-11.4275,-221.165,72.905
818,272294,0.648552,-0.142252,-0.847412,-9.7475,-254.45,78.3825
819,272390,0.6893,-0.09150001,-0.76982,-9.275,-283.6575,80.1325
820,272487,0.6795401,-0.053191999999999996,-0.685884,-9.695,-307.195,79.555
821,272583,0.6912520000000001,-0.020984,-0.6375721,-9.3625,-322.665,76.86
822,272679,0.735416,-0.00122,-0.6156119999999999,-8.4175,-332.7625,72.52
823,272775,0.7747001,0.031232,-0.59902,-6.8075,-339.2375,67.0775
824,272872,0.83204,0.059048,-0.621224,-3.71,-342.195,60.9175
825,272968,0.949892,0.087352,-0.6785640000000001,1.33,-342.3175,54.5125
826,273064,1.103612,0.08100801,-0.7483479999999999,8.435,-341.215,48.755
827,273160,1.256844,0.044652,-0.8015399999999999,15.68,-341.81,43.8025
828,273257,1.4010479999999998,-0.010492,-0.8491200000000001,20.9825,-345.1875,40.285
829,273353,1.5262200000000001,-0.063196,-0.8976761000000001,23.17,-349.195,39.0075
830,273449,1.6521240000000001,-0.114436,-0.945744,22.4,-352.24,40.1625
831,273546,1.803404,-0.156648,-0.99308,19.46,-353.7975,43.2425
832,273642,1.9956759999999998,-0.172752,-1.0201639999999998,15.0325,-353.7625,47.3725
833,273738,2.246264,-0.157136,-1.009428,9.94,-352.5375,52.5
834,273834,2.5283279999999997,-0.1037,-0.9650200999999999,5.53,-350.7,57.5575
835,273931,2.797948,-0.004148001,-0.8918200000000001,3.2025,-348.6875,61.0925
836,274027,3.0558560000000003,0.122,-0.7881199999999999,5.53,-346.5525,61.565
837,274123,3.22202,0.22106399999999998,-0.61854,14.98,-345.4675,58.485
838,274220,3.273016,0.230336,-0.36648800000000004,30.3975,-343.8225,54.635
839,274316,2.966796,-0.0793,0.01708,46.2175,-327.3375,49.91
840,274412,2.99388,0.270352,0.5363121,51.5025,-313.8975,40.8275
841,274508,2.8443080000000003,0.41260399999999997,0.6392800000000001,65.17,-301.525,32.7075
842,274605,2.564928,0.484096,1.238056,80.71,-286.755,26.0925
843,274701,2.399252,0.619516,1.7636319999999999,100.87,-245.8575,17.325
844,274797,2.2894520000000003,0.633912,2.175748,115.6575,-199.7625,9.905
845,274894,2.095472,0.481412,2.444636,117.46,-145.1275,0.8400001
846,274990,1.830976,0.277672,2.465864,98.315,-82.2325,-13.3
847,275086,1.6555400000000002,0.072956,2.079368,63.8575,-9.345,-28.3325
848,275182,2.096692,-0.7476161,1.487668,-3.465,90.07251,-39.865
849,275279,1.480592,0.13664,1.497916,-117.285,181.965,-51.4325
850,275375,1.399828,-0.066856,-1.215852,-152.985,207.4625,-43.9075
851,275471,-0.9023121,-0.55266,-2.182092,-129.6225,179.025,2.275
852,275568,-0.9225639999999999,0.605608,-0.201544,-24.7275,251.965,65.38
853,275664,1.44936,1.2334200000000002,0.477996,-4.1475,330.2775,96.6175
854,275760,2.592988,0.8571719999999999,-1.162416,27.125,361.725,96.3725
855,275856,1.667252,1.1956,-1.563552,4.9175,299.2675,22.0325
856,275953,1.896612,0.434076,-1.196576,-15.9425,241.99,-79.87
857,276049,4.331732,-3.7832199999999996,-1.9661520000000001,-14.21,206.01,-65.415
858,276145,2.8225919999999998,-1.528904,0.4023561,-81.2875,116.4975,9.275
859,276242,1.483032,2.579812,-2.850652,-141.1025,8.12,-111.1425
860,276338,0.659532,0.281088,-0.6039,-74.5675,12.32,-65.52
861,276434,1.143628,-0.550952,-0.5206960999999999,-21.8925,24.5,-12.1275
862,276530,0.731024,0.343796,-0.9852719999999999,-48.44,-7.4375,-37.94
863,276627,0.8547319999999999,-0.085156,-0.7381001,-25.655,-2.2225,-22.4
864,276723,0.7473721,-0.067344,-0.743468,-16.8525,-1.0325,-16.73
865,276819,0.76494,0.09028,-0.7820199999999999,-15.5225,-4.76,-18.7425
866,276916,0.727608,-0.016104,-0.746396,-6.58,-2.31,-10.605
867,277012,0.671732,-0.07612801,-0.749324,-3.71,-3.325,-7.5425
868,277108,0.6878361,-0.08296,-0.740296,-3.255,-3.0275,-7.665
869,277204,0.694912,-0.06563601,-0.735904,-3.465,-3.255,-8.6275
870,277301,0.69296,-0.047092,-0.730292,-3.2375,-3.2025,-8.785
871,277397,0.6834439999999999,-0.057828,-0.732244,-2.59,-2.975,-8.19
872,277493,0.6883239999999999,-0.0549,-0.730536,-1.645,-2.3275,-7.175
873,277589,0.6844201,-0.06075601,-0.731268,-1.2775,-1.96,-6.8075
874,277686,0.682956,-0.064416,-0.7329760000000001,-0.8400001,-1.82,-6.65
875,277782,0.679784,-0.07978801,-0.72956,-0.665,-1.785,-7.0
876,277878,0.674172,-0.07808001,-0.7241920000000001,-0.9975,-2.0125,-8.1375
877,277975,0.67466,-0.07490801,-0.736392,-1.47,-2.4675,-9.275
878,278071,0.674416,-0.060024,-0.7315119999999999,-1.7325,-2.8,-9.975
879,278167,0.66856,-0.053924,-0.729072,-1.7675,-2.835,-10.115
880,278263,0.6724640000000001,-0.040748,-0.729072,-1.5925,-2.6425,-9.7825
881,278360,0.663192,-0.038064,-0.731024,-0.9975,-2.2925,-8.6275
882,278456,0.668072,-0.059536,-0.72346,-0.0525,-1.295,-7.49
883,278552,0.662704,-0.08003201,-0.71004,0.21,-1.015,-7.49
884,278649,0.671488,-0.07710399999999999,-0.709796,-0.175,-1.6625,-8.61
885,278745,0.6763680000000001,-0.044164,-0.7171161,-0.6825,-3.01,-9.5375
886,278841,0.678076,-0.035136,-0.71736,-0.455,-3.29,-8.785
887,278937,0.6736840000000001,-0.044652,-0.725412,0.1925,-2.7475,-7.4025
888,279034,0.6734399999999999,-0.041724000000000004,-0.727364,0.7525,-2.17,-6.615
889,279130,0.678808,-0.042456,-0.728096,1.2425,-1.33,-6.0375
890,279226,0.680028,-0.037088,-0.72224,1.4525,-0.9275,-5.635
891,279323,0.676124,-0.042944,-0.72224,1.75,-0.875,-5.0575
892,279419,0.675148,-0.047336,-0.721996,1.68,-0.49,-4.6725
893,279515,0.677344,-0.050752,-0.7324881,1.5575,0.3675,-4.5325
894,279611,0.658068,-0.05977999999999999,-0.7381001,1.19,1.785,-4.97
895,279708,0.671732,-0.05246,-0.7329760000000001,0.6475,4.095,-6.0725
896,279804,0.6734399999999999,-0.057584,-0.7376119999999999,0.0875,5.845,-7.3325
897,279900,0.662704,-0.07173600000000001,-0.743224,-0.98,7.9975,-8.1375
898,279997,0.658312,-0.060024,-0.764452,-2.555,11.8825,-9.1525
899,280093,0.636108,-0.032695999999999996,-0.786412,-1.7325,18.62,-10.08
900,280189,0.63562,-0.05563200000000001,-0.7829961,3.675,30.0475,-10.115
901,280285,0.650992,-0.014884,-0.7705521,5.53,43.505,-8.575
902,280382,0.661972,-0.02196,-0.7622561,6.51,56.0,-5.6875
903,280478,0.6470880999999999,-0.030256,-0.774456,6.65,69.2125,-2.065
904,280574,0.643184,-0.050263999999999996,-0.7712840999999999,7.0525,85.295,0.525
905,280671,0.624884,-0.080276,-0.7747001,7.175,103.32,0.91
906,280767,0.617564,-0.085156,-0.775676,7.1575,123.6725,-2.6775
907,280863,0.649284,-0.084912,-0.771528,8.7675,148.505,-10.325
908,280959,0.6566041,-0.059536,-0.8015399999999999,12.2325,175.385,-21.9975
909,281056,0.715164,-0.043676,-0.835456,18.1825,206.115,-37.94
910,281152,0.70638,-0.06075601,-0.90036,26.005,240.3275,-56.7525
911,281248,0.65758,-0.07515201,-0.919392,31.36,272.195,-78.96
912,281344,0.655628,-0.17324,-0.9272,37.8875,300.7025,-103.4425
913,281441,0.6753920999999999,-0.296216,-0.796904,43.4875,326.165,-123.55
914,281537,0.79666,-0.2379,-0.766892,43.75,358.365,-140.6825
915,281633,1.308816,-0.312076,-0.753228,59.605,411.635,-146.755
916,281730,1.920768,-0.10906800000000001,-1.055056,107.8525,495.9325,-162.47
917,281826,2.553704,-0.366244,-0.625616,140.5425,534.9225,-171.6925
918,281922,2.750124,-0.309636,-1.0243120000000001,119.1925,528.0625,-167.3875
919,282018,2.82918,-0.345992,-1.310524,118.1425,470.33,-132.265
920,282115,2.027884,0.046604,-1.214632,65.0825,331.7825,-93.415
921,282211,2.129632,-0.519964,-1.737768,119.665,375.34,-122.71
922,282307,1.45546,-0.581696,-1.962004,145.3725,358.2075,-126.1225
923,282404,0.6885680999999999,0.11760799999999999,-1.8470799999999998,122.3775,194.7925,-114.03
924,282500,2.269932,-1.377624,-1.7328880000000002,133.6475,83.4575,-143.675
925,282596,1.899784,-1.668716,-2.1411,194.915,134.75,-61.3725
926,282692,1.241228,-1.884168,-1.627968,155.925,-7.2275,9.0825
927,282789,0.27938,-1.6445599999999998,-0.9860040999999999,92.6625,-80.01,80.4825
928,282885,-0.038308,-1.1794959999999999,-0.772992,26.0925,-100.94,134.6975
929,282981,0.08003201,-0.604632,-0.8781559999999999,-16.1525,-93.9925,175.735
930,283078,0.294508,-0.129564,-1.0553,-25.48,-92.48751,208.2325
931,283174,0.5121560000000001,0.211548,-1.198772,-11.3225,-104.72,230.65
932,283270,0.640012,0.47092,-1.267092,7.315,-133.1575,239.47
933,283366,0.7044279999999999,0.708332,-1.264896,21.1575,-170.1525,233.5725
934,283463,0.7266321,0.974292,-1.226588,32.2,-208.11,216.2475
935,283559,0.726388,1.21146,-1.1733959999999999,48.02,-241.5,192.185
936,283655,0.729316,1.375184,-1.134112,72.555,-268.555,165.55
937,283752,0.7556681,1.428132,-1.098976,103.5125,-289.03,139.2475
938,283848,0.8193521,1.398364,-1.071892,134.68,-304.3775,115.185
939,283944,0.9171961,1.32492,-1.069696,160.4225,-315.525,95.97
940,284040,1.039684,1.229516,-1.095316,177.6425,-324.0825,82.88
941,284137,1.173152,1.1472879999999999,-1.125084,186.7425,-331.94,75.845
942,284233,1.2702639999999998,1.078724,-1.1285,188.7025,-340.41,74.04251
943,284329,1.336876,1.0206520000000001,-1.14192,182.6475,-348.4425,72.17
944,284426,1.3947040000000002,1.02846,-1.163392,169.2775,-354.97,66.0625
945,284522,1.464244,1.075064,-1.20414,152.6525,-359.2925,56.1575
946,284618,1.542812,1.164124,-1.254892,138.11,-363.02,44.5025
947,284714,1.651636,1.28954,-1.303448,130.165,-366.5375,32.2875
948,284811,1.7748560000000002,1.401292,-1.29198,130.0425,-369.6875,19.6175
949,284907,1.903688,1.486204,-1.231956,134.3475,-372.5575,2.38
950,285003,2.0400840000000002,1.5762399999999999,-1.175348,140.245,-373.52,-21.5425
951,285100,2.202832,1.67628,-1.11752,147.7175,-371.735,-49.945
952,285196,2.363872,1.8048680000000001,-1.0711600000000001,158.8125,-365.89,-80.08
953,285292,2.550288,1.9529759999999998,-0.973316,173.7225,-356.8075,-111.16
954,285388,2.686928,2.0803439999999997,-0.781044,190.33,-346.745,-143.885
955,285485,2.674484,2.106452,-0.50752,204.8375,-335.0025,-177.94
956,285581,2.564928,2.0356919999999996,-0.23228800000000002,212.1875,-319.7075,-214.095
957,285677,2.488312,1.873432,0.036112,211.4525,-299.495,-251.3
958,285774,2.431216,1.567212,0.32403200000000004,204.19,-275.8,-283.64
959,285870,2.338984,0.8845,0.7666480999999999,192.29,-254.2575,-307.09
960,285966,2.201368,1.112884,1.059936,174.86,-227.2375,-331.1175
961,286062,2.069852,1.137284,1.319796,191.695,-178.2725,-327.8975
962,286159,1.93492,0.386252,1.590392,216.405,-122.115,-287.035
963,286255,1.9600520000000001,-0.07832401,1.568676,176.4,-72.2225,-248.4825
964,286351,1.967616,-0.062220000000000004,1.292224,84.1925,-31.78,-214.235
965,286447,1.382016,1.59454,1.1263040000000002,2.835,8.015,-182.7525
966,286544,1.060912,0.223748,1.234884,21.175,90.1775,-219.345
967,286640,1.8458599999999998,-0.392108,-0.693692,18.1125,102.5325,-245.3675
968,286736,1.313452,-2.512468,-1.8480560000000001,13.055,91.0525,-258.6675
969,286833,1.167784,-2.102792,-0.40748,-60.025,41.615,-296.7125
970,286929,1.014308,-1.693848,0.389424,-63.245,75.6875,-258.3175
971,287025,1.285148,-1.4208120000000002,0.07490801,-107.9225,104.8425,-188.0725
972,287121,1.317356,-1.055056,-1.289052,-135.6075,129.885,-101.6575
973,287218,1.7397200000000002,1.73606,-1.378356,-115.885,137.9875,-51.8175
974,287314,2.8238119999999998,1.40178,-2.121092,-76.16001,102.55,-54.11
975,287410,0.598532,0.15396400000000002,-0.787876,-48.6325,51.38,-42.4375
976,287507,1.07726,0.186904,-1.276852,-42.7,39.3925,-19.3725
977,287603,0.8252079999999999,0.16348,-0.793244,-38.465,18.2,-23.8
978,287699,0.7217521,-0.0366,-0.8142281,-28.805,8.05,-14.49
979,287795,0.9433041,0.034404000000000004,-0.7571321,-27.4225,3.0975,-13.2475
980,287892,0.8640040000000001,-0.136884,-0.67832,-19.565,-3.3075,-10.78
981,287988,0.747128,-0.050508,-0.751276,-17.8325,-4.9525,-11.2
982,288084,0.705892,-0.053436000000000004,-0.752008,-15.3125,-3.6225,-11.3925
983,288181,0.73444,-0.053191999999999996,-0.764208,-12.0575,0.4375,-9.3975
984,288277,0.6985720999999999,-0.062464,-0.7625,-8.575,3.64,-7.385
985,288373,0.71004,-0.10004,-0.739564,-5.46,5.775,-5.6175
986,288469,0.7332201,-0.06832001,-0.7183361,-3.7625,7.21,-4.62
987,288566,0.724436,-0.06344,-0.716384,-1.8725,7.5425,-3.1675
988,288662,0.704916,-0.079544,-0.73688,0.2275,8.155,-1.155
989,288758,0.6973520000000001,-0.11834000000000001,-0.739808,1.61,9.4325,-0.5775
990,288855,0.699792,-0.120048,-0.7373681,2.1175,11.0075,-1.75
991,288951,0.7105279999999999,-0.099552,-0.7232161,2.73,12.565,-2.6075
992,289047,0.7171161,-0.119072,-0.709796,3.7625,14.0525,-2.135
993,289144,0.6985720999999999,-0.14274,-0.7256560000000001,4.165,14.6475,-1.75
994,289240,0.66246,-0.171532,-0.740052,5.8275,16.1875,-3.675
995,289336,0.682956,-0.175924,-0.71736,8.995,19.7925,-7.3675
996,289432,0.705892,-0.15396400000000002,-0.696376,11.725,21.21,-11.7775
997,289529,0.7239479999999999,-0.125416,-0.685884,13.545,21.315,-14.315
998,289625,0.736392,-0.08784,-0.650748,10.885,17.64,-14.49
999,289721,0.7139439999999999,-0.081252,-0.7046720999999999,3.64,13.0725,-11.5325
1000,289818,0.730292,-0.11345999999999999,-0.6722199999999999,4.7775,16.6775,-7.6125
1001,289914,0.720532,-0.107116,-0.6851520999999999,6.44,18.13,-6.1425
1002,290010,0.729072,-0.114192,-0.676856,7.28,19.25,-4.9175
1003,290106,0.727608,-0.133956,-0.670512,7.2625,19.6,-4.2525
1004,290203,0.7239479999999999,-0.148596,-0.6673399999999999,7.14,19.6525,-4.62
1005,290299,0.727364,-0.15762400000000001,-0.659288,6.7725,18.6025,-6.545
1006,290395,0.7315119999999999,-0.1586,-0.650748,7.0875,17.29,-8.9775
1007,290492,0.7327321,-0.14884,-0.65514,7.6475,15.5575,-11.6375
1008,290588,0.734196,-0.151524,-0.649528,8.855,14.035,-14.035
1009,290684,0.740052,-0.10833599999999999,-0.6480640000000001,10.2375,12.81,-16.2925
1010,290781,0.740296,-0.121512,-0.644404,11.9175,12.0225,-17.3425
1011,290877,0.7549359999999999,-0.120048,-0.631228,13.265,11.0775,-17.5
1012,290973,0.7500560000000001,-0.10321199999999998,-0.6314721,14.0175,9.7825,-17.0625
1013,291069,0.756156,-0.10004,-0.630252,15.435,8.75,-16.0125
1014,291166,0.7549359999999999,-0.095648,-0.6351319999999999,16.835,8.085,-14.6825
1015,291262,0.750788,-0.10492,-0.635864,18.27,7.7175,-13.23
1016,291358,0.7468840999999999,-0.101016,-0.646844,20.0375,7.735,-12.1275
1017,291455,0.7390760000000001,-0.11028800000000001,-0.647576,22.6625,8.6275,-11.34
1018,291551,0.7317560000000001,-0.135908,-0.644648,26.46,10.3075,-10.99
1019,291647,0.735172,-0.143716,-0.642696,30.555,12.1625,-11.7075
1020,291743,0.7285841,-0.13664,-0.655384,34.685,14.315,-12.7925
1021,291840,0.720532,-0.164944,-0.6480640000000001,37.94,18.2175,-13.58
1022,291936,0.734928,-0.16835999999999998,-0.627812,40.04,22.1725,-14.42
1023,292032,0.735172,-0.165432,-0.646112,42.2975,25.1475,-15.54
1024,292129,0.727364,-0.17128800000000002,-0.6563601,43.645,28.91,-16.065
1025,292225,0.721508,-0.175924,-0.670512,45.395,35.21,-17.0625
1026,292321,0.726876,-0.168604,-0.6897880999999999,49.7175,44.45,-18.795
1027,292417,0.7241920000000001,-0.13761600000000002,-0.672708,54.005,55.2825,-20.1775
1028,292514,0.7137001000000001,-0.111752,-0.6856399999999999,59.9375,69.73751,-20.685
1029,292610,0.733464,-0.128832,-0.7068681,65.8175,84.56,-21.2275
1030,292706,0.764452,-0.105896,-0.72102,68.53,97.58,-20.02
1031,292803,0.7449321,-0.07027201,-0.7178479999999999,70.07,106.085,-12.81
1032,292899,0.7771399999999999,-0.099552,-0.697108,75.28501,118.265,-1.6625
1033,292995,0.7556681,-0.024888,-0.7237041,80.675,134.5225,9.59
1034,293091,0.821792,-0.091744,-0.735416,89.0225,157.43,17.43
1035,293188,0.762744,-0.063684,-0.7883640000000001,92.85501,179.7775,29.0675
1036,293284,0.772992,-0.11614400000000001,-0.8015399999999999,104.23,208.67,39.795
1037,293380,0.8281360999999999,-0.079544,-0.8930401,122.115,236.1275,51.5725
1038,293477,1.231468,-0.310368,-0.7993439999999999,161.5425,274.645,67.83
1039,293573,1.260504,-0.24522,-1.0145520000000001,226.9575,341.2675,76.055
1040,293669,1.342976,-0.166652,-1.048712,285.46,383.81,83.66751
1041,293766,1.7280080000000002,0.040260000000000004,-0.8608319999999999,347.585,412.4225,104.65
1042,293862,2.158424,0.10321199999999998,-1.121912,421.05,422.73,166.4075
1043,293958,1.8229240000000002,-0.320128,-0.36112,467.5475,375.5325,200.97
1044,294054,2.433168,-0.06954,-0.5736441,419.6325,302.295,171.0625
1045,294151,1.9837200000000001,-0.260104,-1.165832,346.0275,192.4475,162.3825
1046,294247,1.45668,-0.31646799999999997,-1.392508,419.8775,244.545,1.47
1047,294343,0.7015,-0.1952,-1.6235760000000001,328.5625,136.2025,-102.2875
1048,294440,1.559404,0.15396400000000002,-1.537932,228.13,27.02,-156.7825
1049,294536,2.690344,-0.552416,-2.570052,377.5975,163.3625,-104.09
1050,294632,2.285792,-0.942572,-2.039352,313.565,-20.16,-110.7225
1051,294728,1.212436,-0.9001161,-1.5645280000000001,266.0175,-120.54,-83.615
1052,294825,0.5321640000000001,-0.7259001,-1.164368,207.7775,-180.4425,-54.565
1053,294921,0.272304,-0.441396,-0.9828321,161.875,-186.025,-32.025
1054,295017,0.266936,-0.19154000000000002,-0.964044,127.0675,-175.56,-11.1475
1055,295114,0.44993599999999995,0.048312,-1.027484,106.82,-167.5275,12.7225
1056,295210,0.6124400999999999,0.21106,-1.0645719999999999,95.6025,-171.535,36.1725
1057,295306,0.752984,0.380152,-1.104344,86.24,-185.9375,53.935
1058,295403,0.8481440999999998,0.540948,-1.095072,76.3175,-208.8625,63.9975
1059,295499,0.9211,0.7422481,-1.06994,66.325,-235.1125,64.575
1060,295595,0.9616040000000001,0.9442801,-1.0145520000000001,59.8675,-260.785,58.065
1061,295691,0.9555040000000001,1.110444,-0.9625799999999999,60.1125,-283.885,46.0775
1062,295788,0.928176,1.22366,-0.8927959999999999,67.83,-301.49,29.9775
1063,295884,0.9406200000000001,1.2524520000000001,-0.8359440999999999,80.7975,-313.11,11.76
1064,295980,0.968924,1.200968,-0.789828,93.555,-320.39,-7.7175
1065,296077,1.030168,1.11142,-0.77836,102.2525,-324.66,-26.5125
1066,296173,1.128744,1.011136,-0.7881199999999999,105.6825,-327.1275,-41.9825
1067,296269,1.2221959999999998,0.9042641,-0.805688,104.4925,-329.7875,-52.29
1068,296365,1.3066200000000001,0.807884,-0.826916,99.75,-333.34,-57.75
1069,296462,1.359568,0.7190681,-0.8420440999999999,92.26001,-338.5025,-59.0625
1070,296558,1.377868,0.634644,-0.8464360000000001,83.37001,-343.6825,-57.8025
1071,296654,1.38958,0.5565640000000001,-0.8461921,73.4125,-347.4625,-56.1225
1072,296751,1.41154,0.487756,-0.8605879999999999,63.4025,-349.265,-54.9675
1073,296847,1.46034,0.432612,-0.8857200999999999,54.7225,-349.335,-53.69
1074,296943,1.559648,0.3599,-0.9186601000000001,48.825,-347.6375,-50.9425
1075,297039,1.6818919999999997,0.2806,-0.94916,44.2575,-345.2575,-46.0775
1076,297136,1.838784,0.204716,-0.959408,39.375,-343.0875,-39.9525
1077,297232,2.0303240000000002,0.165676,-0.931348,32.4625,-341.4425,-33.6175
1078,297328,2.237968,0.169336,-0.8359440999999999,23.45,-339.4825,-28.4025
1079,297425,2.475868,0.215452,-0.677588,14.77,-336.7875,-27.6325
1080,297521,2.744756,0.272304,-0.438224,10.2025,-333.4275,-32.7425
1081,297617,2.9079919999999997,0.336476,-0.13761600000000002,11.3925,-328.16,-42.2975
1082,297713,2.926536,0.386008,0.209352,19.8975,-317.52,-51.3975
1083,297810,2.833572,0.396988,0.610488,33.46,-300.58,-57.75
1084,297906,2.6715560000000003,0.313296,1.01748,47.3375,-277.27,-63.595
1085,298002,2.523692,0.211304,1.3888479999999999,56.735,-245.595,-73.5525
1086,298098,2.453664,0.136884,1.7141,62.65,-205.6075,-88.655
1087,298195,2.38876,0.10931199999999999,1.957368,66.5525,-156.7825,-102.935
1088,298291,2.38144,0.081496,2.103768,75.2675,-100.03,-108.325
1089,298387,2.240652,-0.060024,2.1103560000000003,82.285,-40.425,-101.4475
1090,298484,2.3663119999999997,-0.6290319999999999,1.9778639999999998,55.965,49.4025,-94.16751
1091,298580,1.361764,-0.401624,1.6213799999999998,-36.05,148.3825,-99.6275
1092,298676,1.5982,-0.808372,-1.4422840000000001,-103.8625,169.785,-89.4075
1093,298772,-1.164124,-1.6328479999999999,-2.507832,-108.5,117.075,-46.5675
1094,298869,-0.373564,-0.384056,0.354288,-29.5225,228.6025,11.6375
1095,298965,0.627812,0.974292,0.108824,-1.155,291.725,46.0775
1096,299061,2.262124,1.2160959999999998,-1.430328,20.1425,300.825,63.91
1097,299158,2.032764,0.913536,-1.606252,28.2625,269.5,28.6825
1098,299254,1.3620079999999999,0.594384,-1.24074,10.9725,188.02,-69.7025
1099,299350,1.952488,-1.243424,-0.683932,9.3625,172.235,-86.0825
1100,299446,1.9171080000000003,-1.60674,-0.618052,1.295,158.2525,-37.275
1101,299543,2.8896919999999997,-0.59658,-1.022116,-46.0425,94.95501,-45.4825
1102,299639,0.758352,0.8991401,-0.9598959999999999,-72.9925,28.315,-62.16
1103,299735,1.06018,0.556808,-1.296616,-67.8475,15.7675,-53.865
1104,299832,1.105076,-0.321348,-0.6422081000000001,-37.4675,16.7125,-25.97
1105,299928,0.8071520000000001,-0.016836,-0.7893399999999999,-35.245,5.7925,-27.5975
1106,300024,0.8876719999999999,0.213256,-0.877912,-30.695,1.295,-26.6525
1107,300121,0.7998321,0.007320001,-0.791048,-16.3275,1.5225,-15.54
1108,300217,0.7117479999999999,0.021716,-0.7829961,-7.8225,-0.28,-9.66
1109,300313,0.719312,-0.056608000000000006,-0.740296,-1.3125,1.7325,-4.5675
1110,300409,0.678076,-0.07686,-0.741272,1.0675,1.085,-3.2725
1111,300506,0.6810039999999999,-0.08954801,-0.7366361,2.03,1.8375,-3.3075
1112,300602,0.6836880999999999,-0.054412,-0.740296,2.2575,2.2925,-3.9725
1113,300698,0.7034521,-0.05929201,-0.735904,3.675,3.5175,-3.0625
1114,300795,0.6856399999999999,-0.09247601,-0.7200439999999999,4.305,3.9025,-2.5725
1115,300891,0.7034521,-0.07173600000000001,-0.7320001,4.0075,3.8325,-3.1675
1116,300987,0.6944241,-0.08881599,-0.725412,3.535,3.15,-3.7975
1117,301083,0.6919841,-0.08954801,-0.719312,2.275,2.17,-4.9525
1118,301180,0.69052,-0.0854,-0.726144,0.8575,1.225,-6.3525
1119,301276,0.687348,-0.08369201,-0.7198,-0.4375,0.5425,-7.665
1120,301372,0.6919841,-0.069784,-0.7237041,-1.6275,0.175,-8.6975
1121,301469,0.692228,-0.071004,-0.7139439999999999,-2.17,0.1575,-9.135
1122,301565,0.6810039999999999,-0.061732,-0.708576,-2.835,-0.2275,-9.3975
1123,301661,0.669048,-0.07856801,-0.71126,-3.5875,-1.015,-9.835
1124,301758,0.677832,-0.080276,-0.7107720000000001,-4.4275,-1.6275,-10.5525
1125,301854,0.657824,-0.07198,-0.7156520000000001,-5.1975,-2.3275,-11.6025
1126,301950,0.6736840000000001,-0.07222401,-0.7139439999999999,-5.81,-1.75,-12.845
1127,302046,0.673928,-0.083936,-0.708576,-6.86,-2.3975,-14.42
1128,302143,0.675148,-0.0793,-0.7117479999999999,-7.0525,-2.975,-16.7125
1129,302239,0.671976,-0.060267999999999995,-0.7190681,-5.9325,-3.0975,-18.7775
1130,302335,0.672708,-0.0488,-0.720532,-5.0575,-3.2375,-19.5125
1131,302432,0.669292,-0.046848,-0.720288,-3.9025,-2.9925,-19.3375
1132,302528,0.6729520999999999,-0.060024,-0.7239479999999999,-2.87,-2.765,-19.88
1133,302624,0.6539201,-0.05977999999999999,-0.742004,-3.6225,-3.955,-20.9825
1134,302720,0.687104,-0.04392,-0.729316,-5.9325,-3.64,-22.47
1135,302817,0.696132,-0.033672,-0.721264,-5.705,-3.325,-23.7125
1136,302913,0.688812,-0.036112,-0.715408,-5.215,-2.695,-24.92
1137,303009,0.676612,-0.039772,-0.728096,-4.025,-1.5925,-26.0575
1138,303106,0.6653880999999999,-0.045627999999999995,-0.7427361,-1.4525,1.33,-27.02
1139,303202,0.650748,-0.028548,-0.774212,1.7675,6.8775,-27.6325
1140,303298,0.625372,-0.003904,-0.815692,2.0475,15.2425,-25.41
1141,303395,0.6329359999999999,-0.029036000000000003,-0.815692,4.1125,31.3425,-19.9325
1142,303491,0.646112,0.016836,-0.821792,6.3875,48.9125,-15.4875
1143,303587,0.66856,0.062952,-0.7951961,8.925,68.9325,-9.5725
1144,303683,0.6541640000000001,0.061732,-0.79178,10.3425,89.53,-0.8400001
1145,303780,0.650016,0.05124001,-0.772748,9.73,111.265,8.5925
1146,303876,0.650748,-0.00488,-0.773968,11.1825,138.4425,16.6425
1147,303972,0.6451359999999999,-0.033428,-0.754692,14.0175,170.9925,18.62
1148,304069,0.608536,-0.027327999999999998,-0.7808001,19.88,209.965,14.84
1149,304165,0.648552,0.006587999999999999,-0.765428,24.99,249.515,7.9275
1150,304261,0.59902,-0.009272001,-0.767868,33.215,285.67,0.5075
1151,304357,0.560956,-0.02562,-0.807396,42.8575,317.45,-11.9525
1152,304454,0.7232161,-0.18324400000000002,-0.8105680000000001,52.6225,339.9375,-22.7325
1153,304550,0.738344,-0.261324,-0.7639640999999999,30.1875,324.52,-36.7325
1154,304646,0.88328,-0.1708,-0.5838920999999999,13.1425,333.7075,-54.1275
1155,304743,1.327604,-0.31451599999999996,-0.561932,43.2425,417.13,-78.575
1156,304839,1.578924,-0.217648,-0.92232,64.2425,493.8325,-111.5275
1157,304935,2.0364240000000002,-0.229604,-0.22082,70.875,518.35,-110.81
1158,305031,2.572492,-0.5455840000000001,-0.613904,49.945,530.95,-120.9775
1159,305128,2.7120599999999997,-0.0061,-1.021384,25.7075,512.1375,-134.4875
1160,305224,2.693516,-0.01464,-1.0943399999999999,20.335,438.0425,-106.155
1161,305320,3.0634200000000003,-0.683932,-1.357616,-58.135,287.385,-65.43251
1162,305417,2.179408,-0.6653880999999999,-1.678964,-66.6925,279.9825,-85.1725
1163,305513,1.719956,-0.686372,-2.688148,13.44,350.8225,-115.7625
1164,305609,0.547048,0.20178800000000002,-1.1263040000000002,-78.96,135.2225,-123.69
1165,305705,3.158824,-1.010648,-2.594208,-26.2325,176.365,-146.23
1166,305802,2.5161279999999997,-1.166564,-2.5998200000000002,41.055,146.475,-70.875
1167,305898,1.574044,-1.2282959999999998,-2.249924,21.9625,-3.325,-22.68
1168,305994,0.39967199999999997,-0.9825879999999999,-1.58112,-13.23,-91.7525,10.745
1169,306091,-0.09906401,-0.715896,-1.2219520000000001,-49.595,-125.2825,25.9
1170,306187,-0.142252,-0.428708,-1.0972680000000001,-68.705,-121.4675,31.92
1171,306283,0.060024,-0.199104,-1.123376,-67.5675,-116.97,38.395
1172,306380,0.30378,-0.06832001,-1.1794959999999999,-47.74,-124.7575,48.7025
1173,306476,0.531188,-0.03538,-1.193892,-20.09,-148.47,59.815
1174,306572,0.6439159999999999,-0.051484,-1.130208,1.54,-185.3425,65.9225
1175,306668,0.6729520999999999,-0.044652,-1.0260200000000002,12.18,-225.47,64.995
1176,306765,0.692228,-0.020252000000000003,-0.921832,15.085,-260.5575,59.64
1177,306861,0.746152,0.007320001,-0.8261841000000001,14.9275,-289.59,52.57
1178,306957,0.76372,0.050508,-0.756644,14.5075,-313.1275,46.0775
1179,307054,0.76494,0.08857201,-0.7078439999999999,16.415,-329.035,41.965
1180,307150,0.7822640000000001,0.09540401,-0.657092,20.685,-339.36,38.955
1181,307246,0.7983680000000001,0.10394400000000001,-0.6197600000000001,25.4625,-345.24,35.3675
1182,307342,0.8527800999999999,0.11394800000000001,-0.64294,30.7125,-346.5875,31.675
1183,307439,0.9552601000000001,0.11321600000000001,-0.7019880000000001,37.17,-344.2075,29.4525
1184,307535,1.098976,0.083936,-0.7761640999999999,44.3625,-340.515,29.05
1185,307631,1.252208,0.033672,-0.833992,50.12,-338.94,29.855
1186,307728,1.368352,-0.005612,-0.877912,52.71,-340.2,32.0425
1187,307824,1.470344,-0.037332,-0.921588,52.885,-341.67,36.6975
1188,307920,1.57502,-0.082472,-0.9738041,52.0275,-342.195,43.365
1189,308016,1.723128,-0.1647,-1.02358,49.6475,-341.3375,51.0125
1190,308113,1.9132040000000001,-0.249856,-1.0589600000000001,43.4525,-340.0075,59.5875
1191,308209,2.112796,-0.307196,-1.066036,32.795,-337.2775,70.63
1192,308305,2.406084,-0.264252,-1.0614,19.1975,-331.6775,85.48751
1193,308402,2.78526,-0.10321199999999998,-1.0340719999999999,7.1225,-323.995,104.6325
1194,308498,3.214212,0.07832401,-0.9506241,2.66,-318.9025,123.165
1195,308594,3.6146160000000003,0.162992,-0.7415161,7.14,-322.5075,133.525
1196,308690,3.819332,0.11760799999999999,-0.35038400000000003,12.845,-335.58,133.735
1197,308787,3.608028,0.12029200000000001,0.159576,10.0625,-351.225,123.935
1198,308883,3.348168,0.258396,0.715408,0.595,-354.2525,108.4125
1199,308979,3.014376,0.354532,1.35176,-4.9525,-345.6425,88.8825
1200,309076,2.65594,0.54168,1.932968,-4.83,-321.5625,60.2175
1201,309172,2.442684,0.83814,2.3894919999999997,9.2575,-274.9075,28.245
1202,309268,2.360456,0.9860040999999999,2.847968,44.0825,-209.86,7.1225
1203,309364,2.149396,0.765184,3.082696,83.335,-131.8625,-5.3725
1204,309461,1.8763599999999998,0.449204,2.9031119999999997,97.7375,-45.4825,-24.5175
1205,309557,1.690432,-0.12980799999999998,2.453908,82.075,43.3825,-48.65
1206,309653,1.086288,-1.069452,1.061888,-34.4575,166.5125,-70.6475
1207,309750,2.0364240000000002,-0.009516001,-0.24034,-167.93,220.5175,-100.065
1208,309846,-0.5363121,-0.8410681000000001,-2.91946,-138.4075,203.35,-65.9925
1209,309942,-1.094584,0.553636,-0.499468,-15.5225,250.25,18.3925
1210,310039,1.2014559999999999,0.863516,1.0626200000000001,25.8475,370.685,88.32251
1211,310135,3.371104,0.470188,-1.1387479999999999,42.0525,403.0425,97.05501
1212,310231,2.19722,0.9247601000000001,-2.018368,14.14,335.58,34.055
1213,310327,1.6104,1.049688,-1.448628,-6.4225,247.765,-66.71
1214,310424,2.534916,-1.089948,-1.1629040000000002,-4.9875,221.7775,-78.05
1215,310520,4.031612,-3.7695559999999997,0.282064,-38.2025,140.7,-0.735
1216,310616,0.7183361,0.9067040000000001,-1.179252,-99.7675,26.3375,-57.365
1217,310713,1.248304,1.6796959999999999,-1.728984,-114.8875,9.87,-96.98501
1218,310809,1.224148,-0.6785640000000001,-0.426756,-47.915,12.4075,-36.9775
1219,310905,0.8252079999999999,0.019275999999999998,-0.966484,-42.105,0.9625,-28.8225
1220,311001,0.839116,0.183976,-0.8479,-49.5075,-8.82,-42.2275
1221,311098,0.8049561,0.006832001,-0.768112,-24.675,-2.24,-24.22
1222,311194,0.7241920000000001,0.022936,-0.773968,-15.9775,-4.1475,-19.1975
1223,311290,0.7442,0.0549,-0.7564001,-9.17,-0.9625,-14.9275
1224,311387,0.684908,-0.061488,-0.744444,-2.0125,0.525,-6.755
1225,311483,0.664168,-0.100284,-0.740052,-0.6125,1.435,-5.8625
1226,311579,0.684176,-0.062952,-0.7356600000000001,-0.91,2.4675,-7.7
1227,311675,0.698816,-0.032208,-0.7329760000000001,-0.7875,2.5725,-8.3475
1228,311772,0.680028,-0.056608000000000006,-0.733708,0.455,2.835,-7.0525
1229,311868,0.687348,-0.060512,-0.7415161,1.0325,2.8875,-6.3525
1230,311964,0.689056,-0.05246,-0.7366361,1.4175,2.835,-6.1775
1231,312061,0.682712,-0.066124,-0.733708,1.505,2.485,-6.0375
1232,312157,0.662948,-0.11028800000000001,-0.734196,1.155,2.2225,-6.825
1233,312253,0.662704,-0.12248800000000001,-0.72102,-0.0875,1.7325,-9.485
1234,312349,0.676856,-0.08417999999999999,-0.7139439999999999,-2.1175,0.455,-13.1775
1235,312446,0.680516,-0.049532,-0.718824,-3.045,-0.77,-14.8925
1236,312542,0.677344,-0.038308,-0.7324881,-2.6075,-1.015,-14.0875
1237,312638,0.6771,-0.036112,-0.739564,-1.4175,0.105,-12.4075
1238,312735,0.685396,-0.045627999999999995,-0.729804,-0.035,1.6975,-11.165
1239,312831,0.67832,-0.066124,-0.7224841,0.6825,2.7825,-11.0775
1240,312927,0.670024,-0.077348,-0.7259001,0.9975,3.115,-12.6175
1241,313024,0.639524,-0.09150001,-0.7473721,-0.63,3.2725,-14.9975
1242,313120,0.684664,-0.06929600000000001,-0.7178479999999999,-4.1475,4.9525,-17.675
1243,313216,0.678808,-0.050996,-0.708576,-4.165,4.865,-19.5125
1244,313312,0.693448,-0.041236,-0.7117479999999999,-3.5175,4.2875,-20.16
1245,313409,0.687104,-0.038551999999999996,-0.710284,-2.345,4.0075,-20.3875
1246,313505,0.690032,-0.039772,-0.714676,-1.6275,4.2525,-20.4925
1247,313601,0.682712,-0.020984,-0.7195560000000001,-0.6125,5.67,-20.265
1248,313698,0.69052,-0.015372,-0.7324881,0.315,9.6775,-18.9175
1249,313794,0.6722199999999999,-0.020252000000000003,-0.732244,1.2425,14.595,-16.5375
1250,313890,0.676124,-0.014396,-0.73932,2.6075,20.23,-14.3325
1251,313987,0.679296,-0.013908000000000002,-0.7366361,3.5,26.95,-11.725
1252,314083,0.6832,-0.024644,-0.7373681,4.34,34.1425,-9.52
1253,314179,0.68198,-0.030012,-0.7278521,4.8125,41.195,-7.7875
1254,314275,0.6763680000000001,-0.030987999999999998,-0.759084,4.9175,49.1925,-6.51
1255,314372,0.659288,-0.037576,-0.7612800999999999,5.9325,59.8675,-4.8125
1256,314468,0.662948,-0.026108,-0.774944,7.6125,75.7925,-3.15
1257,314564,0.652212,-0.021716,-0.7451760000000001,9.485,95.9525,-1.575
1258,314661,0.66368,0.009028000999999999,-0.7178479999999999,12.18,120.505,0.035
1259,314757,0.676856,0.0305,-0.718824,14.5775,147.4375,3.3425
1260,314853,0.6724640000000001,0.037088,-0.7327321,15.7675,172.515,6.58
1261,314950,0.6724640000000001,0.025376,-0.7483479999999999,18.585,200.34,7.1225
1262,315046,0.67588,-0.036112,-0.7671359999999999,23.4325,230.4925,0.42
1263,315142,0.640256,-0.037576,-0.77836,30.1525,260.9425,-12.985
1264,315238,0.7266321,-0.12712400000000001,-0.777872,42.0525,290.115,-24.9025
1265,315335,0.697108,-0.178608,-0.768844,31.43,286.545,-36.2425
1266,315431,0.671732,-0.201544,-0.769088,18.375,292.285,-46.69
1267,315527,0.916464,-0.219112,-0.6097560000000001,14.7525,330.015,-56.525
1268,315624,1.286856,-0.35868,-0.659776,52.325,421.7675,-83.4575
1269,315720,1.6960439999999999,-0.05368,-0.889136,71.1725,490.2975,-120.715
1270,315816,2.051552,-0.2013,-0.386252,78.48751,528.1675,-114.2225
1271,315912,2.6327599999999998,-0.538752,-0.691496,53.7775,546.98,-115.045
1272,316009,2.60226,-0.040016,-0.8518040000000001,32.725,522.5325,-120.715
1273,316105,2.537112,0.131272,-1.26026,28.805,456.0675,-93.3275
1274,316201,2.93166,-0.6229319999999999,-1.386652,-29.505,317.0125,-63.35
1275,316298,2.221376,-0.472384,-1.610156,-82.67,269.045,-78.54
1276,316394,1.7855919999999998,-0.7422481,-1.8931959999999999,5.4075,372.435,-118.1425
1277,316490,0.5058121,0.015616,-0.791048,-59.0625,232.8725,-117.0925
1278,316586,2.455372,-0.80886,-1.7048279999999998,-104.685,176.8375,-153.86
1279,316683,2.885056,-0.9025559999999999,-2.60348,2.52,244.545,-92.82001
1280,316779,2.305312,-1.1272799999999998,-2.480748,-10.3075,88.83,-42.7875
1281,316875,1.45912,-1.014308,-2.0037279999999997,-34.4575,-22.05,3.01
1282,316972,0.7551800000000001,-0.7515201,-1.533784,-72.5025,-114.065,31.5
1283,317068,0.36087600000000003,-0.47336000000000006,-1.218048,-99.365,-160.72,46.7075
1284,317164,0.19154000000000002,-0.254736,-1.030412,-109.34,-182.6825,55.055
1285,317260,0.10760399999999999,-0.08174001,-0.9328120000000001,-102.6725,-194.7225,59.8325
1286,317357,0.194468,0.061,-0.9108521,-82.775,-202.79,62.8075
1287,317453,0.37942,0.135664,-0.9106081,-56.2275,-214.445,64.435
1288,317549,0.540948,0.161528,-0.906216,-30.45,-234.6575,62.3175
1289,317646,0.657092,0.15128,-0.8713241,-10.3775,-261.0825,55.6325
1290,317742,0.6980841,0.14078800000000002,-0.795928,2.9925,-290.3425,46.2175
1291,317838,0.720532,0.13761600000000002,-0.746396,10.7275,-316.1725,36.1375
1292,317934,0.7503,0.134932,-0.719312,15.26,-336.0875,26.355
1293,318031,0.797392,0.14078800000000002,-0.688812,19.4075,-351.0675,18.1125
1294,318127,0.823744,0.14786400000000002,-0.661484,24.2025,-361.7425,11.3575
1295,318223,0.845216,0.15176800000000001,-0.6373281,30.8875,-367.745,6.72
1296,318320,0.8823040000000001,0.15372,-0.65514,39.2875,-369.53,3.36
1297,318416,0.9862479999999999,0.141276,-0.721264,48.8775,-367.045,1.0675
1298,318512,1.1472879999999999,0.099552,-0.7951961,58.1,-362.8625,0.4725
1299,318608,1.31028,0.038064,-0.8576601,65.205,-360.36,1.365
1300,318705,1.416176,-0.006344,-0.9023121,69.37,-360.2375,4.305
1301,318801,1.519876,-0.043676,-0.9650200999999999,72.0125,-359.59,10.955
1302,318897,1.666032,-0.11955999999999999,-1.0321200000000001,74.515,-357.4375,21.1575
1303,318993,1.8534240000000002,-0.223992,-1.084336,74.9875,-354.1475,34.09
1304,319090,2.033496,-0.34794400000000003,-1.080432,69.545,-349.0025,50.47
1305,319186,2.218692,-0.39528,-1.0279719999999999,56.0,-339.22,70.9275
1306,319282,2.45464,-0.294508,-0.9489161,35.7525,-322.385,95.9175
1307,319379,2.81332,-0.141032,-0.868884,17.1675,-299.6525,121.9225
1308,319475,3.3347480000000003,-0.002928,-0.765184,6.02,-278.25,140.5075
1309,319571,3.96622,0.05124001,-0.591212,-0.1575,-268.8175,150.5175
1310,319668,4.327096,0.171776,-0.23911999999999997,-9.45,-278.6875,155.9775
1311,319764,4.310992,0.07686,0.44090799999999997,-20.7375,-304.5875,154.49
1312,319860,3.8739879999999998,0.093696,1.200724,-45.255,-343.6475,129.5525
1313,319956,3.2769199999999996,0.34648,2.013,-72.0825,-372.715,84.385
1314,320053,2.72182,0.813496,2.726456,-77.21,-366.73,32.4275
1315,320149,2.24602,1.267336,3.365004,-41.5275,-312.2875,-9.3975
1316,320245,1.869284,1.241716,3.701236,36.925,-212.66,-28.35
1317,320342,1.516216,0.71858,3.45382,105.8575,-87.0275,-54.1625
1318,320438,2.090836,-0.099552,2.376804,111.58,53.7425,-92.925
1319,320534,-0.528016,-0.034404000000000004,1.6628599999999998,-53.725,186.7075,-136.0625
1320,320630,2.4034,-0.685396,-2.150372,-120.085,253.19,-180.5475
1321,320727,-0.795928,-0.0305,-2.60348,-74.4625,182.42,-118.8075
1322,320823,-0.128588,0.22326,0.386984,48.8425,304.465,12.705
1323,320919,1.8636720000000002,-0.035624,0.8488761,85.2075,376.46,92.48751
1324,321016,3.273748,0.334036,-1.48108,80.22,366.135,90.59751
1325,321112,1.8524479999999999,0.509472,-1.738012,54.2675,290.5525,42.7875
1326,321208,1.485228,0.7332201,-1.23464,37.3625,226.2925,-41.8075
1327,321305,2.079612,-1.3766479999999999,-0.75762,33.6875,212.87,-58.1175
1328,321401,3.8471480000000002,-4.299524,-0.527772,5.7575,166.355,-10.2375
1329,321497,1.302716,0.38503200000000004,-0.534116,-80.0975,55.895,-32.445
1330,321593,0.808372,1.7685119999999999,-1.78608,-107.6425,-2.065,-97.615
1331,321690,1.266848,-0.473116,-0.583404,-42.455,24.955,-35.3675
1332,321786,0.8400921,-0.267912,-0.721508,-28.3325,14.9275,-18.095
1333,321882,0.708332,0.21594000000000002,-0.899384,-44.835,-5.6,-36.7675
1334,321979,0.850096,-0.09540401,-0.74664,-27.1775,2.0125,-24.045
1335,322075,0.69906,-0.002196,-0.8030041,-23.7125,-2.6425,-21.2625
1336,322171,0.765672,0.000732,-0.7442,-19.7925,-3.5,-20.1425
1337,322267,0.705404,-0.089792,-0.7522521,-14.7525,-4.06,-15.61
1338,322364,0.6724640000000001,-0.081984,-0.759328,-14.4725,-5.81,-16.24
1339,322460,0.701256,-0.08344800000000001,-0.7442,-13.6325,-4.795,-16.17
1340,322556,0.701012,-0.058803999999999995,-0.7407841,-13.2825,-5.1275,-16.38
1341,322653,0.697596,-0.066124,-0.734684,-12.32,-5.075,-16.0475
1342,322749,0.686128,-0.071004,-0.736392,-11.5325,-5.425,-15.5925
1343,322845,0.699548,-0.042212,-0.7427361,-10.78,-5.53,-15.015
1344,322942,0.699548,-0.053924,-0.7407841,-9.03,-4.9875,-13.755
1345,323038,0.685396,-0.0427,-0.737124,-7.3325,-4.655,-13.1075
1346,323134,0.69296,-0.050996,-0.734684,-6.0375,-3.9025,-12.5125
1347,323231,0.670268,-0.059536,-0.720288,-5.005,-3.465,-12.3375
1348,323327,0.6824680000000001,-0.048312,-0.7283400999999999,-4.165,-2.8175,-11.8475
1349,323423,0.674172,-0.06466001,-0.729804,-3.5875,-2.625,-11.55
1350,323520,0.670268,-0.058072000000000006,-0.7327321,-3.5525,-2.905,-11.935
1351,323616,0.66978,-0.048312,-0.726876,-3.2375,-2.345,-11.8825
1352,323712,0.6729520999999999,-0.031476,-0.740052,-2.7475,-2.0125,-11.2
1353,323808,0.6663640000000001,-0.047092,-0.733464,-1.82,-1.4175,-10.1325
1354,323905,0.6736840000000001,-0.06539201,-0.725412,-1.2075,-0.3675,-9.765
1355,324001,0.6695361,-0.067832,-0.72224,-1.015,0.1925,-10.745
1356,324097,0.6771,-0.054412,-0.7229720000000001,-1.19,-0.035,-12.1625
1357,324194,0.6810039999999999,-0.033672,-0.727608,-0.525,-0.2275,-13.02
1358,324290,0.669048,-0.040016,-0.729316,0.7525,0.98,-12.7225
1359,324386,0.6453800000000001,-0.063196,-0.7427361,0.245,2.2575,-12.2675
1360,324482,0.659532,-0.048556,-0.7283400999999999,-0.4375,3.7625,-13.3175
1361,324579,0.6673399999999999,-0.03782,-0.727364,-0.2975,4.8475,-14.2275
1362,324675,0.6734399999999999,-0.038551999999999996,-0.7241920000000001,0.2975,6.37,-14.1225
1363,324771,0.683932,-0.036844,-0.718092,0.6475,8.575,-13.9825
1364,324868,0.680516,-0.027572000000000003,-0.7278521,1.5575,10.465,-13.86
1365,324964,0.664412,-0.023424,-0.744444,3.43,13.37,-13.4925
1366,325060,0.625372,-0.008784,-0.764452,6.6325,20.265,-11.6375
1367,325156,0.665144,-0.028792,-0.7617681,8.61,31.08,-7.77
1368,325253,0.666608,-0.018056,-0.7707961,10.43,40.215,-4.76
1369,325349,0.656848,-0.01708,-0.790804,11.235,51.03,-1.47
1370,325445,0.653676,-0.019275999999999998,-0.790072,13.16,66.1325,2.4675
1371,325542,0.6558721,0.009272001,-0.784216,15.26,85.61,6.475
1372,325638,0.6763680000000001,0.027083999999999997,-0.748836,17.5525,107.24,12.18
1373,325734,0.6771,0.0122,-0.7361481,19.39,129.64,18.795
1374,325831,0.644404,-0.02562,-0.7427361,19.7575,154.9625,23.03
1375,325927,0.626104,-0.052216,-0.772016,22.0325,186.7425,22.015
1376,326023,0.63562,-0.058316,-0.79056,25.655,222.25,13.265
1377,326119,0.63318,-0.043676,-0.794952,34.7725,260.155,-0.035
1378,326216,0.612196,-0.061,-0.78446,46.0075,293.895,-12.25
1379,326312,0.718824,-0.12932000000000002,-0.7812880999999999,51.1875,314.44,-21.805
1380,326408,0.6795401,-0.165432,-0.762744,30.345,305.2,-30.6075
1381,326505,0.7612800999999999,-0.2257,-0.673196,23.5375,321.2125,-36.75
1382,326601,1.164124,-0.4514,-0.702232,48.8775,386.645,-53.83
1383,326697,1.330776,-0.207644,-0.8047121,70.5075,461.055,-95.97
1384,326793,1.92638,-0.17128800000000002,-0.84546,84.6825,507.185,-105.385
1385,326890,2.183068,-0.43212399999999995,-0.5751081,91.0525,531.09,-88.76
1386,326986,2.553216,-0.22106399999999998,-0.623664,73.8325,534.3975,-103.0225
1387,327082,2.7774520000000003,0.27205999999999997,-1.4313040000000001,52.9025,491.61,-112.5425
1388,327179,2.894816,-0.5736441,-1.2056040000000001,24.5,379.75,-80.185
1389,327275,2.7837959999999997,-0.409432,-1.518168,-95.4625,233.6775,-84.15751
1390,327371,2.217228,-0.772016,-1.99836,-6.895,336.8225,-123.8475
1391,327467,0.9764879999999999,-0.345992,-2.209664,-10.22,282.31,-126.0
1392,327564,1.8817279999999998,-0.367464,-1.6631040000000001,-108.6925,112.28,-164.43
1393,327660,3.097336,-1.06018,-3.313764,15.26,219.905,-117.2325
1394,327756,2.1179200000000002,-1.23586,-2.544432,6.5275,58.1175,-49.21
1395,327853,1.038708,-1.0675,-2.086932,-14.5775,-60.445,0.0
1396,327949,0.112972,-0.8054439999999999,-1.486448,-51.0475,-134.2075,25.0425
1397,328045,-0.162748,-0.49044,-1.220976,-76.93,-147.525,32.97
1398,328142,-0.098576,-0.23301999999999998,-1.152656,-84.6475,-141.96,35.0
1399,328238,0.129076,-0.03782,-1.1899879999999998,-71.54,-140.665,40.39
1400,328334,0.366732,0.039528,-1.211216,-44.24,-153.895,50.4175
1401,328430,0.538752,0.037088,-1.1714440000000002,-16.5725,-181.755,58.87
1402,328527,0.616344,0.024156,-1.089216,0.98,-218.2075,60.69
1403,328623,0.613904,0.0305,-0.9577,8.4525,-254.7125,56.385
1404,328719,0.650992,0.071492,-0.8610761,9.66,-284.8125,48.5275
1405,328816,0.671976,0.116632,-0.783728,9.8175,-308.2975,39.7425
1406,328912,0.7068681,0.14688800000000002,-0.7327321,12.1625,-325.4825,31.395
1407,329008,0.748104,0.172752,-0.7041841,17.29,-337.3825,23.9575
1408,329105,0.780312,0.172264,-0.6749041,24.185,-345.135,17.9025
1409,329201,0.836676,0.160796,-0.672708,32.1125,-349.9475,12.4075
1410,329297,0.9423280999999999,0.155916,-0.729316,40.565,-351.715,7.735
1411,329393,1.0911680000000001,0.1281,-0.79422,49.91,-351.8025,5.3725
1412,329490,1.24318,0.070516,-0.862296,59.045,-352.3275,5.145
1413,329586,1.359568,0.004148001,-0.8845,65.17,-355.145,6.79
1414,329682,1.46888,-0.043432,-0.930372,68.1975,-356.93,11.55
1415,329779,1.61284,-0.102968,-0.9994241,69.73751,-356.7375,19.25
1416,329875,1.8153599999999999,-0.209352,-1.084336,69.825,-355.6,29.365
1417,329971,2.062532,-0.33184,-1.137528,65.7475,-354.9,41.755
1418,330067,2.3563080000000003,-0.416508,-1.154608,55.02,-353.6925,57.085
1419,330164,2.734752,-0.362584,-1.145824,38.745,-350.56,77.175
1420,330260,3.168096,-0.167872,-1.100196,23.5375,-346.5175,102.69
1421,330356,3.5948519999999995,0.004636001,-0.975024,16.5375,-346.5175,127.4175
1422,330453,3.9674400000000003,0.036356,-0.685396,16.31,-355.6525,141.4175
1423,330549,4.026976,-0.036844,-0.190564,10.955,-373.17,141.435
1424,330645,3.6512160000000002,0.086132,0.393328,-5.7575,-385.7875,128.5725
1425,330741,3.3130319999999998,0.35502,1.055056,-23.6425,-378.3325,111.4925
1426,330838,2.949472,0.510692,1.7387439999999998,-25.2,-355.3725,92.085
1427,330934,2.619096,0.8095920999999999,2.368996,-13.72,-313.46,62.3525
1428,331030,2.632516,1.154852,2.9036,19.04,-247.6075,34.16
1429,331127,2.600064,1.112396,3.3733,68.11,-169.2075,14.14
1430,331223,2.146224,0.768844,3.362564,100.94,-85.225,-14.5075
1431,331319,1.7160520000000001,0.29572800000000005,2.786236,99.7675,8.1375,-51.555
1432,331415,2.0069,-1.162416,0.9652639999999999,23.8525,134.715,-85.92501
1433,331512,1.096048,0.282796,0.27718400000000004,-147.0,217.0,-125.615
1434,331608,0.709064,-1.2019440000000001,-3.194692,-143.5175,228.445,-118.545
1435,331704,-0.9467200000000001,-0.04392,-1.4478959999999998,-67.06,198.6425,-42.4025
1436,331801,-0.00488,0.390888,1.14314,31.92,325.3075,62.79
1437,331897,2.112552,0.612684,0.13664,41.265,363.5275,102.795
1438,331993,2.931172,0.656848,-1.8529360000000001,49.1575,378.63,91.98001
1439,332090,1.351272,1.3205280000000001,-1.41032,26.215,285.005,12.4425
1440,332186,1.9061279999999998,0.365268,-1.205116,17.3075,235.585,-82.285
1441,332282,5.65348,-4.966376,-2.04838,9.6075,205.0125,-44.7475
1442,332379,2.050576,-1.2724600000000001,0.774212,-82.88,93.485,27.6675
1443,332475,0.698816,2.31556,-2.3489880000000003,-131.7925,-10.99,-125.6325
1444,332571,1.267824,0.44408000000000003,-0.879376,-71.26,24.7975,-69.52750999999999
1445,332667,0.9945440000000001,-0.754204,-0.466772,-20.5275,23.6425,-10.6925
1446,332764,0.49044,0.082228,-0.9023121,-48.58,-7.1575,-38.2025
1447,332860,1.033828,0.135176,-0.8457040000000001,-41.2475,1.995,-35.245
1448,332956,0.7473721,-0.030012,-0.7822640000000001,-27.0725,-2.1175,-25.7425
1449,333053,0.752496,0.09930800000000001,-0.7883640000000001,-20.65,-5.5125,-23.59
1450,333149,0.715896,-0.038551999999999996,-0.74542,-9.66,-1.12,-13.44
1451,333245,0.666608,-0.068076,-0.7571321,-6.3175,-1.4525,-10.4125
1452,333342,0.695156,-0.112728,-0.7198,-5.565,1.12,-10.5175
1453,333438,0.7019880000000001,-0.040016,-0.74664,-6.6675,0.2625,-12.9325
1454,333534,0.697596,-0.05124001,-0.736392,-5.8625,0.77,-12.6875
1455,333630,0.686372,-0.05977999999999999,-0.740052,-4.7775,1.26,-11.9
1456,333727,0.69662,-0.059536,-0.7288279999999999,-3.71,1.33,-11.1125
1457,333823,0.70516,-0.042456,-0.74054,-2.87,0.7175,-10.57
1458,333919,0.684664,-0.068076,-0.73688,-1.54,0.21,-9.8
1459,334016,0.677588,-0.081496,-0.7324881,-0.98,0.2625,-10.15
1460,334112,0.673928,-0.0793,-0.728096,-1.015,0.2275,-11.48
1461,334208,0.68686,-0.059048,-0.72224,-0.9275,0.0525,-12.495
1462,334305,0.686372,-0.061488,-0.7300479999999999,-0.56,-0.105,-12.2675
1463,334401,0.68686,-0.044164,-0.7320001,0.0175,-0.245,-11.76
1464,334497,0.6753920999999999,-0.047336,-0.732244,0.735,0.7175,-10.605
1465,334594,0.680516,-0.05587601,-0.718092,1.5925,1.6275,-10.0275
1466,334690,0.690764,-0.05977999999999999,-0.72468,2.45,2.5025,-9.6775
1467,334786,0.66246,-0.06661201,-0.721508,3.7275,3.4475,-10.2375
1468,334882,0.658556,-0.07198,-0.732244,3.8325,4.7775,-11.06
1469,334979,0.679784,-0.06832001,-0.721996,1.505,6.7725,-12.0225
1470,335075,0.685884,-0.054412,-0.7232161,1.2075,7.98,-13.125
1471,335171,0.6790520999999999,-0.05636401,-0.714432,1.61,8.365,-13.51
1472,335268,0.6810039999999999,-0.048068,-0.71858,2.205,9.17,-13.755
1473,335364,0.6724640000000001,-0.040504000000000005,-0.731024,3.4475,10.78,-13.65
1474,335460,0.67588,-0.028548,-0.72956,4.5675,14.9625,-12.6175
1475,335557,0.69418,-0.034404000000000004,-0.7190681,5.25,20.4225,-10.29
1476,335653,0.6822239999999999,-0.037576,-0.720532,6.02,24.64,-8.47
1477,335749,0.691496,-0.048556,-0.7137001000000001,6.5275,29.7675,-6.9475
1478,335846,0.692472,-0.048068,-0.7190681,6.965,34.335,-5.845
1479,335942,0.694912,-0.045872,-0.7107720000000001,7.8225,39.41,-4.7775
1480,336038,0.6895439999999999,-0.046116000000000004,-0.72712,8.7325,45.4825,-3.4825
1481,336134,0.6763680000000001,-0.059048,-0.7549359999999999,9.17,54.2325,-1.995
1482,336231,0.6566041,-0.04392,-0.778116,10.22,67.3925,-0.5775
1483,336327,0.664412,-0.027327999999999998,-0.759572,12.8975,86.765,1.9425
1484,336423,0.6709999999999999,-0.00122,-0.7388319999999999,15.6275,109.6375,5.7925
1485,336520,0.670268,0.007320001,-0.702476,18.41,135.1175,10.78
1486,336616,0.6822239999999999,-0.004636001,-0.7315119999999999,20.58,161.2975,14.4375
1487,336712,0.692472,-0.035624,-0.721508,23.835,187.425,14.0
1488,336809,0.665632,-0.015128,-0.758352,30.2575,216.265,7.385
1489,336905,0.664412,-0.057584,-0.7373681,39.9175,248.535,0.105
1490,337001,0.712236,-0.10394400000000001,-0.746152,48.0725,276.36,-7.4025
1491,337097,0.69906,-0.109556,-0.73444,39.025,278.1625,-13.93
1492,337194,0.6917399999999999,-0.12029200000000001,-0.707356,28.35,286.405,-17.9025
1493,337290,1.057984,-0.22277199999999997,-0.559004,28.945,317.7475,-19.9325
1494,337386,1.161684,-0.485804,-0.6541640000000001,57.785,383.25,-40.5125
1495,337483,1.232688,-0.185196,-0.753472,69.615,439.635,-81.81251
1496,337579,1.652856,-0.101504,-0.70394,87.57,482.44,-82.1275
1497,337675,2.132072,-0.465552,-0.631228,95.305,520.065,-67.3225
1498,337771,2.335568,-0.478728,-0.41284799999999994,82.215,530.0925,-77.0
1499,337868,2.8599240000000004,0.354044,-1.1995040000000001,66.0275,506.9925,-99.9775
1500,337964,2.531256,-0.398208,-0.578036,55.965,415.31,-76.3175
1501,338060,3.07318,-0.8142281,-1.224636,-70.0875,248.92,-76.4225
1502,338157,2.310436,-0.604632,-1.7814439999999998,-53.5325,280.56,-104.4925
1503,338253,1.6108879999999999,-0.741028,-2.56078,11.4975,332.465,-131.6175
1504,338349,0.71492,-0.276696,-0.937448,-77.47251,141.995,-142.1175
1505,338446,3.4035559999999996,-1.2160959999999998,-2.706692,-75.1975,169.3825,-156.87
1506,338542,2.618852,-1.1411879999999999,-2.733044,-17.395,126.5425,-76.755
1507,338638,1.568676,-1.025776,-2.375096,-40.285,-37.9575,-22.3125
1508,338734,0.36234,-0.6893,-1.7094639999999999,-70.1225,-135.835,7.4725
1509,338831,-0.133956,-0.373564,-1.334436,-89.88,-169.6275,15.3475
1510,338927,-0.20105599999999998,-0.13761600000000002,-1.1751040000000001,-88.69,-164.71,13.2475
1511,339023,0.041968,-0.004636001,-1.181936,-69.4225,-157.7975,14.665
1512,339120,0.318176,0.026595999999999998,-1.208532,-39.9875,-165.13,21.385
1513,339216,0.5631520000000001,-0.01708,-1.1951120000000002,-12.9675,-189.42,26.705
1514,339312,0.7107720000000001,-0.046604,-1.116788,3.185,-226.555,26.1975
1515,339409,0.739564,-0.053191999999999996,-0.9772200999999999,9.765,-266.56,21.84
1516,339505,0.734196,-0.0244,-0.85644,11.2875,-300.965,15.4525
1517,339601,0.7237041,0.004148001,-0.7473721,11.585,-327.04,8.3825
1518,339697,0.748836,0.046116000000000004,-0.6856399999999999,14.77,-343.98,2.17
1519,339794,0.78446,0.06929600000000001,-0.6441600000000001,21.49,-353.08,-2.17
1520,339890,0.8127641,0.054412,-0.6068279999999999,30.6775,-357.21,-4.1125
1521,339986,0.8754719999999999,0.038796,-0.62342,39.865,-357.91,-5.0225
1522,340083,0.9979600000000001,0.015616,-0.677832,48.3525,-355.705,-4.7425
1523,340179,1.159244,-0.027083999999999997,-0.7376119999999999,55.755,-352.87,-2.7125
1524,340275,1.316868,-0.082228,-0.7795801,61.355,-351.7675,0.945
1525,340371,1.4191040000000001,-0.130296,-0.800076,64.05,-352.7475,6.72
1526,340468,1.528904,-0.179584,-0.8508280999999999,64.8375,-353.15,15.1725
1527,340564,1.690188,-0.260104,-0.9118280000000001,64.5575,-352.6775,25.9
1528,340660,1.90808,-0.355996,-0.984784,61.67,-352.31,38.99
1529,340757,2.176236,-0.42163199999999995,-1.036024,54.5125,-352.73,54.3025
1530,340853,2.458056,-0.399916,-1.031876,44.975,-354.0425,73.22
1531,340949,2.6959560000000002,-0.299388,-0.9860040999999999,36.505,-354.7775,95.3575
1532,341046,2.906772,-0.145912,-0.861808,32.76,-354.7775,116.8125
1533,341142,3.1049,-0.002196,-0.7198,34.3875,-352.625,133.2625
1534,341238,3.325964,0.101748,-0.47823999999999994,40.635,-349.58,142.1175
1535,341334,3.445768,0.130052,-0.110044,47.95,-347.3575,145.53
1536,341431,3.322304,0.09394001,0.320372,48.9125,-343.1925,142.905
1537,341527,3.064396,0.16128399999999998,0.7951961,37.1875,-332.325,130.095
1538,341623,2.83772,0.32866799999999996,1.261236,18.55,-310.38,104.9825
1539,341720,2.661552,0.586332,1.755336,7.8225,-279.825,68.53
1540,341816,2.64984,0.8847440999999999,2.242848,15.4175,-238.4375,30.1175
1541,341912,2.5559,0.960628,2.6644799999999997,42.0525,-185.955,1.4875
1542,342009,2.184776,0.7227279999999999,2.881396,70.6475,-122.1675,-20.3875
1543,342105,1.874164,0.446276,2.721088,77.945,-44.135,-42.245
1544,342201,1.7733919999999999,-0.128588,2.3589919999999998,64.155,44.1875,-59.5175
1545,342297,0.675148,-0.898652,1.113616,-57.505,158.7425,-72.06501
1546,342394,2.293844,0.075396,-0.525088,-173.7925,209.3525,-98.40250999999999
1547,342490,-0.23424,-0.989176,-2.782332,-155.435,191.7825,-57.645
1548,342586,-1.1453360000000001,0.42065600000000003,-0.9381801,-52.5525,214.865,20.5275
1549,342683,0.118584,0.921832,0.978684,12.845,315.5075,90.58001
1550,342779,2.770132,0.915976,-0.523624,31.43,372.19,103.355
1551,342875,2.582252,0.9174399999999999,-1.9419959999999998,42.84,350.0,68.5825
1552,342972,1.309304,1.2719719999999999,-1.301984,22.4175,252.8925,-25.6375
1553,343068,2.0620439999999998,-0.386984,-0.989176,18.445,223.4575,-87.3075
1554,343164,5.012736,-4.85072,-1.3725,6.755,197.33,-26.705
1555,343261,1.8104799999999999,-0.6378159999999999,0.22326,-82.3375,89.86251,9.205
1556,343357,0.709064,2.228452,-2.129876,-123.5325,-7.945,-115.64
1557,343453,1.161684,0.126392,-0.7944641,-56.6125,31.1675,-50.9775
1558,343549,1.127768,-0.711016,-0.49288000000000004,-19.6525,26.4425,-11.6025
1559,343646,0.541924,0.273036,-0.9884440000000001,-44.415,-4.7075,-35.1925
1560,343742,0.924516,-0.09906401,-0.7468840999999999,-27.8425,5.5475,-24.99
1561,343838,0.795928,0.07076001,-0.8437520000000001,-19.1625,3.325,-18.6375
1562,343935,0.7922680000000001,0.060512,-0.7890961,-12.6525,0.5425,-15.1375
1563,344031,0.6944241,-0.057096,-0.7612800999999999,-2.3975,2.73,-6.16
1564,344127,0.68808,-0.08296,-0.747128,-0.105,2.45,-4.3575
1565,344224,0.706624,-0.089304,-0.7376119999999999,1.2425,4.41,-3.815
1566,344320,0.6885680999999999,-0.06490399999999999,-0.7442,1.82,4.0075,-4.0775
1567,344416,0.709064,-0.06466001,-0.735416,3.36,5.4775,-3.0625
1568,344512,0.7041841,-0.080764,-0.7388319999999999,4.9875,6.3,-1.9075
1569,344609,0.693448,-0.100772,-0.7241920000000001,5.9325,6.895,-1.435
1570,344705,0.69418,-0.107848,-0.7266321,6.055,7.3325,-2.1175
1571,344801,0.689056,-0.116876,-0.7320001,5.985,7.7175,-3.1675
1572,344898,0.684176,-0.120048,-0.721996,5.6875,8.61,-4.7075
1573,344994,0.682712,-0.11614400000000001,-0.712724,4.9,9.3275,-6.16
1574,345090,0.6917399999999999,-0.10906800000000001,-0.706624,4.0775,9.5025,-7.175
1575,345187,0.691496,-0.094916,-0.7056479999999999,3.5,9.2225,-7.525
1576,345283,0.691008,-0.091744,-0.708576,3.3425,9.31,-7.1575
1577,345379,0.697596,-0.083204,-0.7139439999999999,3.4475,9.6075,-6.8075
1578,345476,0.7095520000000001,-0.08100801,-0.7032079999999999,3.4825,10.15,-6.2475
1579,345572,0.704916,-0.09906401,-0.697108,3.5525,10.4125,-5.6175
1580,345668,0.696864,-0.10126,-0.692228,3.4125,10.1675,-5.6525
1581,345765,0.6985720999999999,-0.09882,-0.68808,2.9225,9.73,-6.1075
1582,345861,0.6993041,-0.09638,-0.683932,2.31,9.695,-6.79
1583,345957,0.697596,-0.099552,-0.68076,2.065,9.555,-7.175
1584,346054,0.684664,-0.109556,-0.6834439999999999,1.9425,9.59,-7.735
1585,346150,0.6785640000000001,-0.11248399999999999,-0.6844201,2.03,10.255,-9.2925
1586,346246,0.674416,-0.136884,-0.6946681,2.835,11.025,-12.11
1587,346343,0.670268,-0.10394400000000001,-0.69784,4.9,12.3725,-15.225
1588,346439,0.7217521,-0.10052799999999999,-0.6771,6.72,14.8575,-16.1
1589,346535,0.6836880999999999,-0.11736400000000001,-0.686128,4.445,15.2425,-15.995
1590,346631,0.744688,-0.057339999999999995,-0.703696,1.61,17.325,-15.2425
1591,346728,0.7232161,-0.077592,-0.69784,3.85,19.705,-14.1925
1592,346824,0.7088201,-0.064416,-0.69906,4.8475,23.1875,-12.4425
1593,346920,0.69906,-0.087108,-0.713212,7.1575,28.7525,-9.415
1594,347017,0.682712,-0.076616,-0.738344,8.925,37.17,-6.475
1595,347113,0.67466,-0.09418401,-0.7473721,11.095,49.7175,-3.2725
1596,347209,0.664412,-0.077836,-0.74542,12.495,66.0275,-0.14
1597,347306,0.6790520999999999,-0.060512,-0.7388319999999999,14.7175,86.6075,3.605
1598,347402,0.691008,-0.0427,-0.72712,17.01,107.52,8.4
1599,347498,0.701012,-0.02928,-0.714432,18.795,126.9275,13.4575
1600,347594,0.7076001000000001,-0.020008,-0.72102,20.3,146.7375,16.835
1601,347691,0.6832,-0.07222401,-0.73444,24.8675,170.975,17.255
1602,347787,0.7078439999999999,-0.11321600000000001,-0.704916,30.5725,198.03,14.7
1603,347883,0.666852,-0.050996,-0.745908,35.0175,224.7175,8.4
1604,347980,0.7224841,-0.1098,-0.725412,38.3775,252.5075,2.0125
1605,348076,0.696864,-0.120048,-0.714676,35.9275,272.7725,-1.96
1606,348172,0.6973520000000001,-0.18446400000000002,-0.6917399999999999,40.075,301.5075,-6.0025
1607,348269,1.062376,-0.38186,-0.662704,48.02,336.245,-17.64
1608,348365,1.192672,-0.39284,-0.796416,62.65,391.3525,-53.55
1609,348461,1.31028,-0.08954801,-0.795928,78.12,445.1825,-79.415
1610,348558,1.7019,-0.392108,-0.7183361,96.65250999999999,484.12,-63.875
1611,348654,2.407548,-0.48165600000000003,-0.8840120000000001,105.7,510.8075,-57.9075
1612,348750,2.3663119999999997,-0.31598000000000004,-0.26108000000000003,102.6025,513.905,-78.47
1613,348846,2.787212,0.07198,-1.423008,78.365,476.4375,-92.505
1614,348943,2.787212,-0.827892,-1.053104,29.82,355.355,-75.635
1615,349039,2.69864,-0.384544,-1.700192,-107.065,219.0125,-107.765
1616,349135,2.01056,-0.787144,-1.972984,0.21,329.0175,-146.23
1617,349232,0.81862,-0.165188,-1.9339439999999999,-21.245,255.9375,-148.2075
1618,349328,1.6531,-0.4392,-1.5103600000000001,-122.885,108.85,-185.955
1619,349424,2.975336,-0.921344,-3.2644759999999997,-1.1025,236.005,-130.7425
1620,349521,2.164524,-1.01626,-2.573712,-19.705,71.47,-79.135
1621,349617,1.047492,-0.796172,-2.147932,-36.785,-51.8525,-34.475
1622,349713,0.14274,-0.5702281,-1.554768,-60.76,-128.275,-11.2175
1623,349810,-0.122244,-0.309148,-1.297104,-72.2225,-148.3125,-5.39
1624,349906,-0.09125599999999999,-0.146644,-1.186572,-67.445,-148.8025,-5.1625
1625,350002,0.125172,-0.053191999999999996,-1.203164,-48.8775,-150.99,-2.31
1626,350099,0.386252,-0.03782,-1.217072,-24.9025,-167.09,2.3625
1627,350195,0.55388,-0.0732,-1.155584,-3.885,-197.4175,5.1275
1628,350291,0.6036560999999999,-0.101504,-1.035048,8.7675,-235.6025,3.5
1629,350387,0.60878,-0.107848,-0.895236,14.42,-271.8625,-1.4875
1630,350484,0.628544,-0.08954801,-0.803492,16.66,-299.915,-8.4175
1631,350580,0.696864,-0.067832,-0.735172,19.4075,-319.9875,-14.595
1632,350676,0.734196,-0.045872,-0.69418,24.115,-334.915,-18.0775
1633,350773,0.774944,-0.05612,-0.649528,31.6925,-344.3825,-18.13
1634,350869,0.821792,-0.069052,-0.6290319999999999,39.27,-351.0675,-16.7825
1635,350965,0.9028,-0.091012,-0.633668,46.795,-354.1125,-13.8425
1636,351062,1.0262639999999998,-0.11394800000000001,-0.690032,53.6375,-354.2,-9.135
1637,351158,1.193892,-0.15494000000000002,-0.756156,59.85,-353.22,-2.6425
1638,351254,1.347612,-0.207644,-0.80886,64.19,-354.06,4.9875
1639,351350,1.4722959999999998,-0.23692399999999997,-0.8437520000000001,65.975,-356.615,13.9825
1640,351447,1.583316,-0.256444,-0.893284,66.36,-358.12,25.3575
1641,351543,1.719956,-0.29572800000000005,-0.976,66.885,-357.595,38.3775
1642,351639,1.943948,-0.377712,-1.068964,66.6925,-356.1775,51.8875
1643,351736,2.223816,-0.43798000000000004,-1.15168,62.8775,-355.145,66.4125
1644,351832,2.484164,-0.452132,-1.136796,55.405,-355.565,83.5625
1645,351928,2.687904,-0.273524,-1.050176,45.57,-354.725,103.845
1646,352024,2.8796880000000002,0.003904,-0.9598959999999999,41.3,-347.8125,126.245
1647,352121,3.1937159999999998,0.22204000000000002,-0.8117880000000001,49.3675,-335.9825,144.62
1648,352217,3.5689879999999996,0.29646,-0.536068,63.315,-328.3,153.895
1649,352313,3.543368,0.047824,-0.19032000000000002,70.3675,-320.67,155.0675
1650,352410,3.552396,0.23009200000000002,0.66856,53.5675,-317.1875,144.9175
1651,352506,3.5089639999999997,0.377712,0.748836,44.73,-309.7675,132.1775
1652,352602,3.11832,0.43798000000000004,1.48474,23.8,-319.165,105.07
1653,352698,2.714988,0.765184,2.193072,12.8275,-300.3525,60.445
1654,352795,2.558828,1.13704,2.835036,24.675,-257.88,14.455
1655,352891,2.287256,1.1211799999999998,3.2086,60.55,-190.855,-18.8475
1656,352987,1.778272,0.7732359999999999,3.1634599999999997,93.8175,-105.2625,-46.4975
1657,353084,1.42496,0.09418401,2.77428,99.38251,-2.94,-73.325
1658,353180,1.0979999999999999,-1.205116,2.049112,-20.895,126.6475,-90.59751
1659,353276,1.8153599999999999,0.007808001,0.13054000000000002,-199.045,204.7325,-124.8975
1660,353372,0.9154880999999999,-0.615124,-2.77062,-184.03,208.39,-104.5975
1661,353469,-0.898164,0.44383599999999995,-1.422276,-99.26001,184.17,-6.8425
1662,353565,-0.533628,0.568276,1.020408,-0.0175,290.85,99.365
1663,353661,2.02398,1.093364,0.130052,23.59,368.62,125.9125
1664,353758,2.703764,0.951844,-1.901248,44.4675,390.285,103.6875
1665,353854,1.476688,1.735084,-1.522804,20.7375,294.2975,5.1975
1666,353950,2.023248,0.072712,-1.077504,11.3925,237.5275,-92.365
1667,354046,5.670072,-5.4919519999999995,-1.1468,-2.5025,197.1025,-35.0525
1668,354143,1.7101959999999998,-1.035048,0.483608,-99.75,88.725,43.365
1669,354239,0.972828,2.916288,-2.536868,-150.5,0.8400001,-153.44
1670,354335,1.2261,0.320616,-0.735172,-62.2125,27.4925,-74.4625
1671,354432,0.879864,-0.8291120999999999,-0.44090799999999997,-15.8375,23.5725,-7.1575
1672,354528,0.6224441,0.29524,-1.083848,-48.825,-2.9575,-39.69
1673,354624,0.9799041,0.062220000000000004,-0.8054439999999999,-34.5975,4.2175,-30.9575
1674,354721,0.725168,-0.030987999999999998,-0.791536,-20.0375,-0.735,-20.2475
1675,354817,0.774944,0.07417601,-0.7610359999999999,-15.75,-3.01,-19.11
1676,354913,0.69052,-0.041968,-0.767624,-7.8575,-1.225,-11.1475
1677,355009,0.6785640000000001,-0.112972,-0.72956,-6.195,-1.995,-9.66
1678,355106,0.684176,-0.08466801,-0.727364,-7.1575,-1.3125,-11.865
1679,355202,0.715164,-0.054167999999999994,-0.740296,-8.4525,-2.73,-14.2625
1680,355299,0.692472,-0.039284,-0.7439560000000001,-7.5775,-1.9075,-13.8775
1681,355395,0.710284,-0.031232,-0.7332201,-6.0375,-1.0325,-12.4775
1682,355491,0.708576,-0.032451999999999995,-0.720776,-4.2525,-0.7,-10.7275
1683,355587,0.693448,-0.054412,-0.7288279999999999,-4.0425,-1.6975,-10.3425
1684,355683,0.684176,-0.07002799999999999,-0.7288279999999999,-3.64,-2.38,-10.675
1685,355780,0.684664,-0.088328,-0.728096,-3.85,-2.205,-11.795
1686,355876,0.676612,-0.07881200000000001,-0.7266321,-4.06,-2.7475,-13.5625
1687,355972,0.6836880999999999,-0.06075601,-0.7241920000000001,-4.025,-2.975,-15.015
1688,356069,0.692472,-0.045872,-0.720776,-3.64,-2.9925,-15.1725
1689,356165,0.689056,-0.032695999999999996,-0.727364,-2.9575,-3.3425,-14.5075
1690,356261,0.676856,-0.031476,-0.72224,-2.1,-3.0625,-13.0725
1691,356358,0.67588,-0.031964,-0.7224841,-1.4,-2.2575,-11.6025
1692,356454,0.68686,-0.041724000000000004,-0.7200439999999999,-0.525,-1.12,-10.36
1693,356550,0.6856399999999999,-0.046848,-0.720776,0.0,-0.875,-10.185
1694,356647,0.6749041,-0.038796,-0.718092,0.0525,-0.91,-10.6575
1695,356743,0.675148,-0.049532,-0.728096,-0.42,0.0875,-10.5
1696,356839,0.6836880999999999,-0.044407999999999996,-0.7285841,-0.8925,0.9275,-10.605
1697,356935,0.684664,-0.036112,-0.7237041,-0.77,1.26,-10.8325
1698,357032,0.677344,-0.042456,-0.713212,-0.385,2.0475,-10.395
1699,357128,0.6795401,-0.033672,-0.726388,-0.28,2.17,-10.325
1700,357224,0.6832,-0.032451999999999995,-0.71858,-0.3675,3.08,-9.7825
1701,357321,0.6856399999999999,-0.032695999999999996,-0.726388,-1.26,4.0775,-9.345
1702,357417,0.68808,-0.021228,-0.72712,-2.275,5.635,-8.96
1703,357513,0.680516,-0.013663999999999999,-0.7366361,-2.3275,8.295,-7.8925
1704,357610,0.6724640000000001,-0.03538,-0.729072,1.1725,12.6,-7.2275
