,T,ax,ay,az,gx,gy,gz
0,9516100,0.80215,-0.07393200000000001,-0.30622,18.5675,-16.0475,-15.995
1,9516253,0.8459479999999999,-0.014884,-0.428098,-38.1325,26.1275,-134.575
2,9516350,0.93696,-0.025254,-0.445788,-82.9325,40.5825,-273.2625
3,9516448,0.9564799999999999,-0.04819,-0.45335200000000003,17.0275,-80.5525,-87.95501
4,9516546,0.9630681000000001,-0.07198,-0.46323400000000003,1.085,-1.0675,-9.8525
5,9516644,0.9479401,-0.08784,-0.46726,-2.0825,5.1975,-5.25
6,9516742,0.9232961,-0.081618,-0.49654,-6.0375,5.6875,-6.2125
7,9516840,0.8897459999999999,-0.07722601,-0.46201400000000004,-9.73,4.6725,-7.0875
8,9516938,0.8805960999999999,-0.056608000000000006,-0.46469799999999994,-14.3675,4.6375,-7.8925
9,9517036,0.8782780000000001,-0.033672,-0.480436,-15.015,1.2775,-7.8225
10,9517134,0.864614,-0.016104,-0.489098,-12.565,-1.9075,-7.1575
11,9517232,0.84851,-0.007564001,-0.476654,-6.755,-2.1,-6.195
12,9517330,0.8338700000000001,0.009637999999999999,-0.4636,1.0675,-1.4175,-5.1275
13,9517428,0.8276481,0.011224,-0.44249399999999994,11.69,2.5375,-3.99
14,9517525,0.8405800999999999,0.005246,-0.42858599999999997,21.21,10.7275,-2.5375
15,9517623,1.172298,-0.402478,-0.066246,19.95,17.815,-0.2275
16,9517721,0.980514,0.09638,-0.761402,-76.6325,-36.19,4.4975
17,9517819,0.811178,-0.023668,-0.34782199999999996,-46.025,-78.645,3.185
18,9517917,0.9019459999999999,-0.014884,-0.43432,-19.0225,-36.225,-0.2975
19,9518015,0.8399700000000001,-0.002806,-0.43944399999999995,-25.76,-35.455,-2.065
20,9518113,0.794586,0.0122,-0.40052600000000005,-19.9675,-32.3925,-1.0325
21,9518211,0.856562,-0.009637999999999999,-0.44469,-9.38,-8.575,-3.92
22,9518309,0.8823040000000001,-0.010492,-0.46896800000000005,-5.53,-2.0475,-4.48
23,9518407,0.8755940000000001,-0.010492,-0.454694,-6.44,-7.98,-4.235
24,9518505,0.8757159999999999,-0.010492,-0.45871999999999996,-5.25,-5.88,-3.9725
25,9518603,0.8757159999999999,-0.011224,-0.457988,-4.0425,-5.0225,-3.7625
26,9518701,0.8773021000000001,-0.011346,-0.45152200000000003,-3.6575,-6.195,-3.605
27,9518799,0.8786440999999999,-0.011712,-0.44896,-3.0625,-5.6875,-3.7625
28,9518896,0.879864,-0.010614,-0.44676400000000005,-2.485,-4.7075,-4.0425
29,9518994,0.8792540999999999,-0.012565999999999999,-0.44237200000000004,-2.24,-4.305,-4.3575
30,9519092,0.8769360999999999,-0.013541999999999998,-0.43602799999999997,-1.75,-4.2875,-4.6375
31,9519190,0.8792540999999999,-0.011346,-0.43468599999999996,-1.82,-4.7425,-4.865
32,9519288,0.88023,-0.012688,-0.432856,-1.68,-4.9525,-5.0225
33,9519386,0.8801081000000001,-0.012078,-0.43346599999999996,-1.575,-5.5475,-5.04
34,9519484,0.8819381,-0.012931999999999999,-0.43236800000000003,-1.505,-5.775,-5.075
35,9519582,0.8843781,-0.009882,-0.42822,-1.4875,-5.8275,-5.11
36,9519680,0.8862081,-0.010248,-0.42773199999999995,-1.505,-6.1425,-5.1975
37,9519778,0.8838901,-0.012931999999999999,-0.428464,-1.26,-6.7025,-5.04
38,9519876,0.880352,-0.016225999999999997,-0.426756,-1.155,-7.4375,-4.83
39,9519974,0.8810841,-0.016225999999999997,-0.42639,-1.12,-7.7,-4.7425
40,9520072,0.88328,-0.01464,-0.42419399999999996,-1.2075,-7.7,-4.62
41,9520170,0.8860860999999999,-0.014518000000000001,-0.4209,-1.3125,-7.63,-4.655
42,9520268,0.886452,-0.016225999999999997,-0.42114399999999996,-1.26,-7.5775,-4.4975
43,9520366,0.8827921000000001,-0.01464,-0.41980200000000006,-1.2775,-7.7525,-4.445
44,9520464,0.8809620000000001,-0.013908000000000002,-0.419314,-1.3125,-7.8925,-4.3925
45,9520562,0.8791321,-0.012565999999999999,-0.41907,-1.1725,-7.5075,-4.2
46,9520660,0.8813280000000001,-0.01098,-0.42065600000000003,-1.1725,-7.035,-4.1125
47,9520758,0.883158,-0.010248,-0.41992399999999996,-0.945,-6.615,-4.27
48,9520856,0.882914,-0.012565999999999999,-0.42028999999999994,-0.9625,-6.5625,-4.2525
49,9520954,0.883158,-0.014152000000000001,-0.41968,-0.9275,-6.5625,-4.375
50,9521052,0.8826700000000001,-0.013908000000000002,-0.42004600000000003,-0.77,-6.475,-4.48
51,9521150,0.883036,-0.013663999999999999,-0.420412,-0.7175,-6.545,-4.445
52,9521247,0.8846219999999999,-0.013297999999999999,-0.42065600000000003,-0.56,-6.4925,-4.5325
53,9521345,0.885476,-0.013054,-0.42443800000000004,-0.5775,-6.3525,-4.5325
54,9521443,0.8847440999999999,-0.011590000000000001,-0.423706,-0.4375,-6.0375,-4.48
55,9521541,0.882914,-0.01098,-0.423584,-0.4375,-5.8625,-4.655
56,9521639,0.882548,-0.011956,-0.423706,-0.3675,-5.95,-4.7775
57,9521737,0.880474,-0.012688,-0.425292,-0.3675,-5.635,-4.795
58,9521835,0.8815719999999999,-0.014518000000000001,-0.425658,-0.28,-5.53,-4.8825
59,9521933,0.8840120000000001,-0.01586,-0.426512,-0.3325,-5.32,-5.005
60,9522031,0.8846219999999999,-0.014884,-0.42895200000000006,-0.35,-5.1975,-5.0225
61,9522129,0.8819381,-0.014762,-0.429928,-0.35,-5.0225,-5.005
62,9522227,0.8816940000000001,-0.015616,-0.430782,-0.35,-4.9525,-4.9
63,9522325,0.8820601,-0.016347999999999998,-0.43163599999999996,-0.245,-4.655,-4.97
64,9522423,0.8816940000000001,-0.016836,-0.43188000000000004,-0.28,-4.48,-4.9525
65,9522521,0.882914,-0.016958,-0.43200200000000005,-0.35,-4.34,-4.9175
66,9522619,0.880474,-0.017812,-0.431758,-0.385,-4.3575,-4.8825
67,9522717,0.880718,-0.019032,-0.43346599999999996,-0.5075,-4.41,-4.83
68,9522815,0.8818159999999999,-0.020130000000000002,-0.43554,-0.5775,-4.515,-4.6725
69,9522913,0.8813280000000001,-0.019398,-0.437004,-0.5775,-4.4625,-4.8125
70,9523011,0.8824261,-0.0183,-0.438224,-0.6475,-4.5325,-4.725
71,9523108,0.8815719999999999,-0.018422,-0.439932,-0.7525,-4.655,-4.7075
72,9523206,0.8812059999999999,-0.018422,-0.43785799999999997,-0.7875,-4.6025,-4.6375
73,9523304,0.8785219999999999,-0.017812,-0.43981000000000003,-0.7525,-4.69,-4.62
74,9523402,0.8784,-0.018544,-0.439566,-0.7175,-4.6725,-4.55
75,9523500,0.878034,-0.017202000000000002,-0.43761400000000006,-0.6475,-4.7075,-4.5675
76,9523598,0.8796200000000001,-0.017934000000000002,-0.43639399999999995,-0.56,-4.83,-4.55
77,9523696,0.8812059999999999,-0.016104,-0.43737,-0.42,-4.97,-4.515
78,9523794,0.8851100000000001,-0.01708,-0.438224,-0.4025,-5.0225,-4.55
79,9523892,0.886452,-0.015982,-0.43907799999999997,-0.385,-4.8125,-4.6375
80,9523990,0.8869401,-0.017202000000000002,-0.43773599999999996,-0.49,-4.655,-4.8125
81,9524088,0.8860860999999999,-0.0183,-0.43810200000000005,-0.4375,-4.6025,-4.8825
82,9524186,0.8851100000000001,-0.019642,-0.43554,-0.4725,-4.62,-4.865
83,9524284,0.882548,-0.02196,-0.43432,-0.525,-4.76,-4.8825
84,9524382,0.8797421000000001,-0.021472,-0.432856,-0.665,-4.865,-4.76
85,9524480,0.877912,-0.020252000000000003,-0.432734,-0.595,-4.83,-4.6375
86,9524578,0.877912,-0.017324000000000003,-0.435174,-0.595,-4.8475,-4.6025
87,9524675,0.8794981,-0.017568,-0.432734,-0.525,-4.865,-4.515
88,9524773,0.882182,-0.018056,-0.432978,-0.385,-4.8475,-4.515
89,9524871,0.88328,-0.019398,-0.431148,-0.3325,-4.9525,-4.515
90,9524969,0.88328,-0.02135,-0.429196,-0.315,-4.935,-4.55
91,9525067,0.8842561,-0.02257,-0.430172,-0.3325,-4.725,-4.62
92,9525165,0.8853540000000001,-0.021106,-0.429562,-0.4725,-4.5325,-4.655
93,9525263,0.8818159999999999,-0.018056,-0.430172,-0.49,-4.62,-4.7425
94,9525361,0.8808401,-0.016225999999999997,-0.430172,-0.3675,-4.4975,-4.7075
95,9525459,0.8786440999999999,-0.014396,-0.43053800000000003,-0.28,-4.27,-4.795
96,9525557,0.8796200000000001,-0.01403,-0.431514,-0.105,-3.85,-4.9175
97,9525655,0.8797421000000001,-0.01342,-0.43358800000000003,0.1575,-3.57,-5.075
98,9525753,0.879376,-0.013786000000000001,-0.43322200000000005,0.42,-3.4475,-5.215
99,9525851,0.8790100000000001,-0.015493999999999999,-0.43236800000000003,0.6125,-3.1325,-5.355
100,9525949,0.882548,-0.016347999999999998,-0.430782,0.8575,-2.8,-5.635
101,9526047,0.8834021000000001,-0.020374,-0.431148,1.0325,-2.52,-5.6
102,9526145,0.8824261,-0.021106,-0.42883009999999994,1.05,-2.1525,-5.7575
103,9526243,0.8849879999999999,-0.0183,-0.427976,0.9625,-1.33,-5.88
104,9526341,0.886452,-0.01891,-0.426878,1.1375,-1.1025,-6.0375
105,9526438,0.8838901,-0.02074,-0.427976,1.085,-1.2075,-6.055
106,9526536,0.885842,-0.021106,-0.42639,1.1025,-0.805,-5.915
107,9526634,0.8851100000000001,-0.024156,-0.427854,0.98,-0.595,-6.0025
108,9526732,0.8869401,-0.027572000000000003,-0.42724399999999996,0.7175,-0.3325,-5.915
109,9526830,0.885476,-0.027572000000000003,-0.426756,0.56,0.0175,-5.8275
110,9526928,0.883158,-0.026351999999999997,-0.423584,0.2975,0.1225,-5.67
111,9527026,0.8843781,-0.027206,-0.42321800000000004,-0.035,0.3325,-5.4425
112,9527124,0.8860860999999999,-0.02684,-0.424072,-0.315,0.28,-5.3375
113,9527222,0.886452,-0.026474,-0.421754,-0.6475,0.2625,-5.11
114,9527320,0.8876719999999999,-0.025498,-0.42138809999999993,-0.8925,0.63,-5.0225
115,9527418,0.889624,-0.024644,-0.422486,-1.2425,0.7,-4.795
116,9527516,0.889502,-0.025376,-0.422364,-1.47,1.05,-4.725
117,9527614,0.889502,-0.024522,-0.42114399999999996,-1.6625,1.4525,-4.6375
118,9527712,0.889136,-0.023302,-0.419314,-1.96,1.2775,-4.585
119,9527810,0.8903561,-0.022448,-0.41663,-2.2575,1.05,-4.515
120,9527907,0.8918200000000001,-0.02196,-0.41589799999999993,-2.4325,0.56,-4.3575
121,9528005,0.89487,-0.02135,-0.41358,-2.52,-0.105,-4.2525
122,9528103,0.897432,-0.019886,-0.413092,-2.59,-0.875,-4.235
123,9528201,0.9002379999999999,-0.018178,-0.411384,-2.485,-1.3825,-4.1475
124,9528299,0.9018241,-0.01708,-0.40967600000000004,-2.4325,-1.75,-4.0075
125,9528397,0.9034101000000001,-0.015738,-0.409066,-2.3625,-2.24,-3.955
126,9528495,0.903532,-0.015616,-0.407846,-2.2575,-2.6425,-4.025
127,9528593,0.9001161,-0.013786000000000001,-0.406138,-2.205,-3.01,-4.2175
128,9528691,0.8973101000000001,-0.015738,-0.40528400000000003,-2.065,-3.465,-4.27
129,9528789,0.8957241,-0.01708,-0.406748,-1.8725,-3.7275,-4.2875
130,9528887,0.8938940000000001,-0.016958,-0.40662600000000004,-1.7675,-4.0775,-4.2525
131,9528985,0.8908440999999999,-0.014884,-0.407968,-1.7325,-4.2525,-4.3575
132,9529083,0.891576,-0.01586,-0.407724,-1.61,-4.41,-4.3575
133,9529181,0.8904780000000001,-0.016958,-0.407724,-1.4875,-4.6375,-4.375
134,9529278,0.8906,-0.016104,-0.407724,-1.4525,-4.7075,-4.305
135,9529376,0.889136,-0.01586,-0.40992,-1.435,-4.9525,-4.27
136,9529474,0.889868,-0.016225999999999997,-0.40894400000000003,-1.47,-4.7425,-4.3225
137,9529572,0.8904780000000001,-0.015982,-0.40662600000000004,-1.4525,-4.3225,-4.305
138,9529670,0.8934059999999999,-0.018056,-0.406504,-1.5225,-4.0075,-4.2175
139,9529768,0.894626,-0.017934000000000002,-0.407114,-1.5925,-3.9025,-4.1825
140,9529866,0.8930401,-0.017568,-0.407114,-1.6275,-3.85,-4.165
141,9529964,0.8941380999999999,-0.015982,-0.406138,-1.61,-3.92,-4.1125
142,9530062,0.8935280999999999,-0.014518000000000001,-0.404064,-1.645,-4.165,-4.06
143,9530160,0.8931620000000001,-0.014274,-0.403698,-1.68,-4.1825,-3.955
144,9530258,0.8967,-0.015738,-0.40443,-1.68,-3.7275,-4.0075
145,9530356,0.8962120000000001,-0.018056,-0.40528400000000003,-1.75,-3.4125,-4.06
146,9530454,0.8949921000000001,-0.018544,-0.406504,-1.7325,-3.2025,-4.13
147,9530552,0.893284,-0.019398,-0.406992,-1.8025,-3.1325,-4.165
148,9530650,0.890966,-0.018544,-0.40967600000000004,-1.89,-3.2725,-4.1825
149,9530747,0.889136,-0.01708,-0.408456,-1.9425,-3.4125,-4.165
150,9530845,0.8901120000000001,-0.016714,-0.409554,-1.89,-3.4125,-4.13
151,9530943,0.8901120000000001,-0.01647,-0.409432,-2.0825,-3.395,-4.095
152,9531041,0.892308,-0.013663999999999999,-0.41016400000000003,-2.0125,-3.465,-4.0775
153,9531139,0.894748,-0.01342,-0.410774,-1.8725,-3.71,-4.025
154,9531237,0.8954801,-0.0122,-0.413458,-1.89,-3.7275,-4.165
155,9531335,0.8971879999999999,-0.012444,-0.415166,-1.75,-3.675,-4.2175
156,9531433,0.89975,-0.015616,-0.411262,-1.5225,-3.5175,-4.305
157,9531531,0.8976761000000001,-0.01586,-0.410896,-1.5225,-3.78,-4.48
158,9531629,0.9018241,-0.018422,-0.405406,-1.645,-3.9375,-4.6375
159,9531727,0.9054840000000001,-0.021472,-0.403454,-1.47,-4.375,-4.4975
160,9531825,0.9067040000000001,-0.0244,-0.40052600000000005,-1.365,-5.3725,-4.55
161,9531923,0.9065821,-0.022936,-0.40016,-1.225,-6.16,-4.3225
162,9532021,0.903166,-0.022203999999999998,-0.395646,-0.9275,-6.615,-4.0075
163,9532118,0.901458,-0.018178,-0.397476,-1.0675,-7.0875,-4.2175
164,9532216,0.9009700999999999,-0.019764,-0.395036,-0.7875,-7.0525,-3.99
165,9532314,0.9025559999999999,-0.017934000000000002,-0.396012,-0.8225,-6.965,-3.9725
166,9532412,0.902068,-0.021106,-0.39479200000000003,-0.5775,-6.8075,-4.06
167,9532510,0.9002379999999999,-0.023180000000000003,-0.393084,-0.5075,-6.7725,-4.0775
168,9532608,0.895602,-0.026108,-0.39223,-0.49,-6.615,-4.095
169,9532706,0.8914540000000001,-0.025986000000000002,-0.39271799999999996,-0.595,-6.4225,-4.0425
170,9532804,0.8912100000000001,-0.024644,-0.39405999999999997,-0.595,-5.985,-3.955
171,9532902,0.89426,-0.025131999999999998,-0.38966799999999996,-0.525,-5.495,-3.99
172,9533000,0.898408,-0.022813999999999997,-0.39113200000000004,-0.455,-5.3725,-4.0425
173,9533098,0.898408,-0.024034,-0.389912,-0.4725,-5.3375,-4.06
174,9533196,0.898042,-0.023668,-0.39161999999999997,-0.49,-5.32,-4.1825
175,9533294,0.8977980999999999,-0.02196,-0.393206,-0.63,-5.1625,-4.2
176,9533392,0.8976761000000001,-0.019154,-0.394304,-0.6475,-5.1275,-4.2525
177,9533489,0.8988959999999999,-0.014762,-0.39894,-0.6125,-5.215,-4.3575
178,9533587,0.9021899999999999,-0.014396,-0.39955,-0.385,-5.11,-4.41
179,9533685,0.9053620000000001,-0.014274,-0.398452,-0.1225,-5.11,-4.445
180,9533783,0.90402,-0.015738,-0.39918400000000004,0.07,-5.5475,-4.6025
181,9533881,0.90402,-0.017568,-0.399794,0.1225,-5.775,-4.55
182,9533979,0.8995059999999999,-0.0183,-0.39955,0.105,-5.6175,-4.655
183,9534077,0.8964561,-0.019764,-0.401258,0.1925,-5.67,-4.865
184,9534175,0.8949921000000001,-0.020618,-0.401258,0.14,-5.9325,-4.795
185,9534273,0.895236,-0.021106,-0.401868,0.07,-5.8275,-4.83
186,9534371,0.895114,-0.021106,-0.401746,-0.0175,-5.8975,-4.7775
187,9534469,0.8965780000000001,-0.019398,-0.40381999999999996,-0.14,-6.0375,-4.7075
188,9534567,0.898652,-0.018422,-0.403332,-0.105,-6.0725,-4.6375
189,9534664,0.9052401,-0.01708,-0.40321,-0.105,-6.2825,-4.69
190,9534762,0.904508,-0.016225999999999997,-0.40626,-0.0875,-6.65,-4.9
191,9534860,0.9018241,-0.018422,-0.40589400000000003,0.0875,-6.7375,-4.9875
192,9534958,0.901702,-0.018666,-0.404796,-0.07,-6.7725,-4.8475
193,9535056,0.9010921000000001,-0.018056,-0.40589400000000003,-0.035,-7.07,-5.005
194,9535154,0.898164,-0.0183,-0.40589400000000003,-0.28,-7.455,-5.11
195,9535252,0.8968221,-0.01769,-0.407846,-0.1225,-7.6475,-5.075
196,9535350,0.8963341,-0.01891,-0.40748,0.1575,-7.7,-5.075
197,9535448,0.895358,-0.018056,-0.406748,0.1925,-8.1375,-5.11
198,9535546,0.897066,-0.017934000000000002,-0.407968,0.3675,-8.33,-5.32
199,9535644,0.9032879999999999,-0.018178,-0.406382,0.49,-8.5925,-5.74
200,9535742,0.902068,-0.016958,-0.409188,0.7175,-8.9775,-5.5125
201,9535840,0.900848,-0.019154,-0.406504,0.7,-9.1875,-5.6525
202,9535938,0.8996280999999999,-0.0183,-0.40979799999999994,0.5775,-9.2925,-5.74
203,9536036,0.908168,-0.02257,-0.406504,0.6125,-9.3275,-5.5125
204,9536134,0.8852321,-0.017568,-0.409066,0.5075,-9.135,-5.425
205,9536232,0.8848659999999999,-0.016836,-0.40992,0.245,-9.5375,-5.5475
206,9536330,0.8893800999999999,-0.019398,-0.40992,0.3325,-9.4675,-5.4775
207,9536427,0.8907221,-0.020862000000000002,-0.41199399999999997,0.21,-9.94,-5.5475
208,9536525,0.8926741,-0.018788,-0.41236000000000006,-0.0525,-10.1325,-5.7575
209,9536623,0.8931620000000001,-0.021228,-0.41150600000000004,0.035,-10.22,-5.4775
210,9536721,0.8938940000000001,-0.02074,-0.41284799999999994,0.0175,-10.2375,-5.565
211,9536819,0.8921860999999999,-0.021472,-0.41053,-0.28,-10.22,-5.46
212,9536917,0.8935280999999999,-0.020252000000000003,-0.41113999999999995,-0.49,-10.1325,-5.53
213,9537015,0.8914540000000001,-0.021228,-0.410042,-0.35,-9.9575,-5.3025
214,9537113,0.8913321,-0.022936,-0.409432,-0.455,-9.73,-5.355
215,9537211,0.8908440999999999,-0.01952,-0.40687,-0.6825,-9.7125,-5.39
216,9537309,0.8893800999999999,-0.01952,-0.409432,-0.56,-9.7125,-5.2325
217,9537407,0.8914540000000001,-0.019764,-0.40589400000000003,-0.56,-9.73,-5.25
218,9537505,0.8908440999999999,-0.019642,-0.40565,-0.735,-9.6425,-5.425
219,9537603,0.8904780000000001,-0.018666,-0.406504,-0.805,-9.45,-5.25
220,9537701,0.8913321,-0.020008,-0.40443,-0.7,-9.1525,-5.11
221,9537799,0.8887700000000001,-0.018422,-0.404796,-0.735,-8.925,-5.04
222,9537896,0.8881600000000001,-0.02074,-0.406748,-0.8400001,-8.8725,-5.04
223,9537994,0.8881600000000001,-0.01891,-0.407358,-1.0325,-8.8375,-5.1625
224,9538092,0.887184,-0.01891,-0.406382,-0.9275,-8.54,-4.9
225,9538190,0.885964,-0.018788,-0.40882199999999996,-0.98,-8.3125,-4.795
226,9538288,0.888282,-0.017934000000000002,-0.408578,-1.0325,-7.9975,-4.865
227,9538386,0.8885261000000001,-0.019275999999999998,-0.40931,-1.0675,-7.875,-4.795
228,9538484,0.88999,-0.018666,-0.41101800000000005,-1.33,-7.8225,-4.9875
229,9538582,0.8888921000000001,-0.016714,-0.411384,-1.2075,-7.77,-4.6725
230,9538680,0.889258,-0.015982,-0.414678,-1.225,-7.6475,-4.6375
231,9538778,0.889502,-0.017324000000000003,-0.41577600000000003,-1.1025,-7.4025,-4.6725
232,9538876,0.9381801,-0.027572000000000003,-0.41846000000000005,-1.05,-7.0875,-4.6725
233,9538974,0.8995059999999999,-0.021594,-0.410774,-1.12,-5.7575,-4.1475
234,9539072,0.8676640999999999,-0.016714,-0.414678,-2.17,-5.775,-4.69
235,9539169,0.864614,-0.018422,-0.40967600000000004,-1.47,-5.81,-4.83
236,9539267,0.8834021000000001,-0.019764,-0.41053,-1.5925,-6.86,-4.6375
237,9539365,0.8885261000000001,-0.018422,-0.40979799999999994,-1.5225,-6.8425,-4.4625
238,9539463,0.8888921000000001,-0.018788,-0.41150600000000004,-1.6275,-6.685,-4.4275
239,9539561,0.8884040000000001,-0.016836,-0.41113999999999995,-1.7675,-6.4225,-4.4275
240,9539659,0.8876719999999999,-0.01647,-0.41284799999999994,-1.89,-6.3,-4.41
241,9539757,0.8880380999999999,-0.017324000000000003,-0.41272600000000004,-1.89,-6.0375,-4.34
242,9539855,0.889136,-0.017202000000000002,-0.412116,-1.9075,-6.16,-4.2875
243,9539953,0.889502,-0.01708,-0.413458,-1.7325,-6.055,-4.165
244,9540051,0.8901120000000001,-0.014884,-0.41382399999999997,-1.7675,-6.0725,-4.2175
245,9540149,0.8897459999999999,-0.013786000000000001,-0.414922,-1.82,-6.055,-4.235
246,9540247,0.887916,-0.014274,-0.41504399999999997,-1.82,-5.9325,-4.235
247,9540344,0.8901120000000001,-0.015982,-0.41589799999999993,-1.855,-5.7225,-4.2525
248,9540442,0.8901120000000001,-0.01708,-0.415288,-1.8375,-5.635,-4.2175
249,9540540,0.8888921000000001,-0.01525,-0.416996,-1.89,-5.67,-4.3575
250,9540638,0.886574,-0.01342,-0.41687399999999997,-1.9425,-5.3025,-4.3575
251,9540736,0.8875501,-0.012931999999999999,-0.41589799999999993,-1.7325,-4.97,-4.34
252,9540834,0.8875501,-0.015006,-0.417484,-1.6975,-5.145,-4.305
253,9540932,0.887184,-0.015006,-0.41858199999999995,-1.68,-5.005,-4.375
254,9541030,0.8866961,-0.014884,-0.41882600000000003,-1.5575,-4.9175,-4.3575
255,9541128,0.8873059999999999,-0.014762,-0.41907,-1.435,-4.8825,-4.515
256,9541226,0.889258,-0.014152000000000001,-0.41785,-1.365,-4.8825,-4.6725
257,9541323,0.890966,-0.013786000000000001,-0.41968,-1.33,-4.8825,-4.6375
258,9541421,0.8918200000000001,-0.015128,-0.420778,-1.295,-4.8125,-4.6025
259,9541519,0.8912100000000001,-0.016958,-0.422364,-1.2425,-4.83,-4.655
260,9541617,0.889258,-0.015738,-0.42273,-1.2775,-5.005,-4.585
261,9541715,0.8866961,-0.013908000000000002,-0.42273,-1.365,-5.005,-4.725
262,9541813,0.8874280999999999,-0.014274,-0.42419399999999996,-1.365,-5.075,-4.7075
263,9541911,0.8862081,-0.0122,-0.424804,-1.365,-5.145,-4.725
264,9542009,0.8853540000000001,-0.017568,-0.42724399999999996,-1.26,-5.355,-4.69
265,9542107,0.8852321,-0.016104,-0.42553599999999997,-1.1375,-5.5125,-4.6025
266,9542204,0.883768,-0.015616,-0.42724399999999996,-1.295,-5.53,-4.7425
267,9542302,0.8849879999999999,-0.015616,-0.428708,-1.3125,-5.5125,-4.8125
268,9542400,0.885964,-0.015128,-0.42736599999999997,-1.2775,-5.5825,-4.725
269,9542498,0.8853540000000001,-0.014762,-0.42822,-1.2775,-5.6,-4.585
270,9542596,0.8849879999999999,-0.014884,-0.428342,-1.2425,-5.5825,-4.69
271,9542694,0.8824261,-0.015616,-0.42517,-1.26,-5.565,-4.6375
272,9542792,0.8842561,-0.015006,-0.42456000000000005,-1.19,-5.8625,-4.725
273,9542890,0.8838901,-0.014518000000000001,-0.423462,-1.2425,-6.0025,-4.7075
274,9542988,0.88633,-0.014152000000000001,-0.42321800000000004,-1.19,-6.09,-4.725
275,9543085,0.8884040000000001,-0.01281,-0.42285200000000006,-1.1725,-6.335,-4.8125
276,9543183,0.88999,-0.012931999999999999,-0.42273,-1.19,-6.44,-4.8475
277,9543281,0.889136,-0.012078,-0.42395,-1.19,-6.3875,-5.04
278,9543379,0.8887700000000001,-0.01281,-0.42602399999999996,-1.2075,-6.545,-5.0575
279,9543477,0.886574,-0.014518000000000001,-0.42321800000000004,-1.0325,-6.4925,-4.725
280,9543575,0.886574,-0.013175999999999998,-0.423584,-0.9975,-6.615,-4.7425
281,9543673,0.886452,-0.013663999999999999,-0.42273,-1.0325,-6.86,-4.725
282,9543771,0.8860860999999999,-0.013786000000000001,-0.422364,-1.0325,-6.8775,-4.8125
283,9543869,0.8869401,-0.013908000000000002,-0.422486,-0.9975,-6.9475,-4.725
284,9543966,0.88633,-0.014152000000000001,-0.421266,-0.945,-7.0,-4.725
285,9544064,0.886452,-0.015493999999999999,-0.42285200000000006,-0.9625,-7.105,-4.8125
286,9544162,0.8874280999999999,-0.017568,-0.42138809999999993,-1.1025,-7.1225,-5.04
287,9544260,0.887184,-0.015616,-0.42163199999999995,-1.1725,-7.21,-4.9525
288,9544358,0.885842,-0.016347999999999998,-0.421266,-1.1025,-7.1575,-4.655
289,9544456,0.888282,-0.014884,-0.421266,-1.2075,-7.1575,-4.6025
290,9544554,0.888282,-0.013297999999999999,-0.420778,-1.2775,-7.14,-4.55
291,9544652,0.8884040000000001,-0.01281,-0.420534,-1.3475,-7.1575,-4.6025
292,9544750,0.887184,-0.010492,-0.41992399999999996,-1.3475,-7.1575,-4.6025
293,9544847,0.885964,-0.011956,-0.42163199999999995,-1.3825,-7.0175,-4.5675
294,9544945,0.885964,-0.01464,-0.420412,-1.2775,-6.685,-4.5675
295,9545043,0.8862081,-0.013786000000000001,-0.419558,-1.2775,-6.545,-4.6725
296,9545141,0.8881600000000001,-0.011590000000000001,-0.4209,-1.2425,-6.65,-4.8125
297,9545239,0.8857200999999999,-0.013297999999999999,-0.4209,-1.1725,-6.79,-4.69
298,9545337,0.8876719999999999,-0.012444,-0.42321800000000004,-1.1025,-6.72,-4.7075
299,9545435,0.8866961,-0.012688,-0.42285200000000006,-1.1725,-6.6325,-4.62
300,9545533,0.885964,-0.014274,-0.42163199999999995,-1.1725,-6.475,-4.585
301,9545631,0.8855980999999999,-0.015493999999999999,-0.420534,-1.2425,-6.335,-4.585
302,9545728,0.8860860999999999,-0.01403,-0.422486,-1.225,-6.4925,-4.62
303,9545826,0.8870620000000001,-0.014152000000000001,-0.42114399999999996,-1.2075,-6.58,-4.5325
304,9545924,0.8875501,-0.012322,-0.42590200000000006,-1.26,-6.65,-4.55
305,9546022,0.8873059999999999,-0.010736,-0.423584,-1.155,-6.615,-4.5675
306,9546120,0.8847440999999999,-0.012444,-0.42700000000000005,-1.12,-6.3525,-4.62
307,9546218,0.8857200999999999,-0.014884,-0.42431599999999997,-1.155,-6.3175,-4.6025
308,9546316,0.8874280999999999,-0.015128,-0.42199799999999993,-1.2775,-6.2475,-4.69
309,9546414,0.885476,-0.016104,-0.42443800000000004,-1.2775,-6.2825,-4.725
310,9546512,0.88633,-0.015372,-0.423462,-1.2425,-6.265,-4.6025
311,9546609,0.8834021000000001,-0.012565999999999999,-0.425414,-1.26,-6.2475,-4.55
312,9546707,0.88328,-0.011712,-0.42761000000000005,-1.26,-6.4575,-4.5325
313,9546805,0.883158,-0.009516001,-0.43200200000000005,-1.155,-6.5975,-4.48
314,9546903,0.882182,-0.011224,-0.43249,-1.0325,-6.5975,-4.4275
315,9547001,0.8801081000000001,-0.011224,-0.432856,-0.945,-6.545,-4.3925
316,9547099,0.879864,-0.012444,-0.432978,-0.875,-6.51,-4.48
317,9547197,0.8801081000000001,-0.013663999999999999,-0.43468599999999996,-0.91,-6.475,-4.5675
318,9547295,0.880474,-0.01281,-0.43554,-0.8400001,-6.475,-4.5675
319,9547393,0.8790100000000001,-0.013908000000000002,-0.435662,-0.8925,-6.4225,-4.515
320,9547490,0.8790100000000001,-0.01342,-0.435784,-0.875,-6.3175,-4.4975
321,9547588,0.8785219999999999,-0.010492,-0.435906,-0.91,-6.4225,-4.4975
322,9547686,0.8808401,-0.011834,-0.435296,-0.805,-6.545,-4.5325
323,9547784,0.880718,-0.012688,-0.435662,-0.7875,-6.5275,-4.5675
324,9547882,0.8797421000000001,-0.011956,-0.434808,-0.8400001,-6.6325,-4.655
325,9547980,0.8801081000000001,-0.01098,-0.43468599999999996,-0.7875,-6.685,-4.655
326,9548078,0.879986,-0.01037,-0.433954,-0.8575,-6.615,-4.7075
327,9548176,0.8786440999999999,-0.01037,-0.43602799999999997,-0.805,-6.6675,-4.7075
328,9548274,0.8782780000000001,-0.010858,-0.43554,-0.6475,-6.5975,-4.7425
329,9548371,0.879376,-0.011468,-0.435906,-0.5425,-6.51,-4.76
330,9548469,0.8784,-0.01037,-0.43627200000000005,-0.56,-6.51,-4.7425
331,9548567,0.8794981,-0.01098,-0.43602799999999997,-0.735,-6.4225,-4.865
332,9548665,0.8786440999999999,-0.012444,-0.43505200000000005,-0.735,-6.2825,-4.8825
333,9548763,0.8786440999999999,-0.014518000000000001,-0.435174,-0.735,-6.1075,-4.8125
334,9548861,0.8791321,-0.014884,-0.435784,-0.8400001,-6.1075,-4.7075
335,9548959,0.877424,-0.012565999999999999,-0.43334399999999995,-0.9625,-6.0025,-4.795
336,9549057,0.8775459999999999,-0.014762,-0.434808,-0.98,-5.9325,-4.7075
337,9549155,0.8794981,-0.01403,-0.43249,-1.015,-5.9675,-4.5675
338,9549253,0.879864,-0.011956,-0.43212399999999995,-1.0675,-6.0025,-4.445
339,9549350,0.8797421000000001,-0.012931999999999999,-0.431148,-1.085,-5.915,-4.3925
340,9549448,0.879376,-0.010614,-0.431514,-1.1025,-5.845,-4.445
341,9549546,0.8814501,-0.010126000000000001,-0.430782,-1.12,-5.81,-4.3925
342,9549644,0.880718,-0.010736,-0.43188000000000004,-1.1025,-5.775,-4.41
343,9549742,0.88023,-0.01098,-0.430782,-1.19,-5.67,-4.3925
344,9549840,0.879864,-0.011468,-0.43212399999999995,-1.19,-5.6525,-4.4275
345,9549938,0.8785219999999999,-0.01098,-0.432734,-1.26,-5.565,-4.48
346,9550036,0.8792540999999999,-0.009394,-0.432612,-1.2775,-5.495,-4.55
347,9550134,0.8805960999999999,-0.009516001,-0.432978,-1.225,-5.4425,-4.4975
348,9550231,0.880718,-0.009637999999999999,-0.432978,-1.26,-5.46,-4.375
349,9550329,0.8813280000000001,-0.01098,-0.432246,-1.1375,-5.32,-4.4625
350,9550427,0.8815719999999999,-0.011956,-0.432246,-1.2425,-5.18,-4.48
351,9550525,0.8805960999999999,-0.011346,-0.431514,-1.2075,-5.145,-4.445
352,9550623,0.8809620000000001,-0.01098,-0.43127,-1.2425,-5.1275,-4.3925
353,9550721,0.8816940000000001,-0.012322,-0.431758,-1.2775,-5.04,-4.4975
354,9550819,0.8814501,-0.010736,-0.432856,-1.2425,-4.9875,-4.3925
355,9550917,0.880352,-0.011834,-0.43371000000000004,-1.3125,-5.005,-4.375
356,9551015,0.8816940000000001,-0.011956,-0.43212399999999995,-1.26,-5.0925,-4.48
357,9551113,0.8812059999999999,-0.010614,-0.43236800000000003,-1.2425,-5.145,-4.48
358,9551210,0.88023,-0.011834,-0.434076,-1.3475,-5.1275,-4.445
359,9551308,0.8816940000000001,-0.011101999999999999,-0.432856,-1.4,-5.0575,-4.3225
360,9551406,0.8816940000000001,-0.010736,-0.431392,-1.3825,-4.9175,-4.3225
361,9551504,0.8809620000000001,-0.010614,-0.434564,-1.2775,-4.8125,-4.3225
362,9551602,0.8819381,-0.011834,-0.434564,-1.2425,-4.9175,-4.375
363,9551700,0.8816940000000001,-0.011712,-0.43493000000000004,-1.33,-4.795,-4.4625
364,9551798,0.8812059999999999,-0.012444,-0.43602799999999997,-1.225,-4.97,-4.4625
365,9551896,0.879376,-0.01037,-0.43639399999999995,-1.33,-4.7775,-4.41
366,9551994,0.878034,-0.01037,-0.435174,-1.2775,-4.8825,-4.445
367,9552092,0.8805960999999999,-0.01037,-0.434442,-1.3125,-4.8825,-4.445
368,9552190,0.8797421000000001,-0.010492,-0.434564,-1.2425,-4.8825,-4.3225
369,9552287,0.8824261,-0.011101999999999999,-0.435418,-1.2425,-4.9175,-4.41
370,9552385,0.8820601,-0.012322,-0.435174,-1.2775,-4.9,-4.4275
371,9552483,0.8812059999999999,-0.010858,-0.43346599999999996,-1.295,-4.8825,-4.48
372,9552581,0.882182,-0.010492,-0.435662,-1.3475,-4.9875,-4.515
373,9552679,0.8820601,-0.011224,-0.43249,-1.2425,-4.865,-4.4975
374,9552777,0.8801081000000001,-0.011346,-0.43346599999999996,-1.2075,-4.935,-4.445
375,9552875,0.879864,-0.011101999999999999,-0.431392,-1.12,-4.9175,-4.41
376,9552973,0.880474,-0.01281,-0.431026,-1.1725,-4.97,-4.34
377,9553071,0.8816940000000001,-0.011101999999999999,-0.431148,-1.33,-4.9175,-4.445
378,9553169,0.8818159999999999,-0.012565999999999999,-0.43236800000000003,-1.3125,-5.04,-4.3575
379,9553267,0.8840120000000001,-0.010858,-0.43200200000000005,-1.3125,-5.1975,-4.3575
380,9553365,0.8840120000000001,-0.009637999999999999,-0.432612,-1.1375,-5.1275,-4.375
381,9553462,0.883158,-0.010004,-0.431514,-1.12,-5.11,-4.4275
382,9553560,0.8836459999999999,-0.011346,-0.43029399999999995,-1.155,-5.0925,-4.4975
383,9553658,0.883524,-0.013297999999999999,-0.42907399999999996,-1.155,-4.9875,-4.515
384,9553756,0.883524,-0.012565999999999999,-0.42822,-1.225,-4.9525,-4.4625
385,9553854,0.8813280000000001,-0.011468,-0.42590200000000006,-1.2075,-5.005,-4.27
386,9553952,0.8814501,-0.011346,-0.426634,-1.3125,-5.145,-4.27
387,9554050,0.8812059999999999,-0.011712,-0.427122,-1.225,-5.145,-4.235
388,9554148,0.8838901,-0.01037,-0.42553599999999997,-1.2775,-5.2325,-4.2175
389,9554246,0.8847440999999999,-0.010248,-0.42517,-1.2075,-5.39,-4.2
390,9554344,0.885476,-0.011101999999999999,-0.426756,-1.1375,-5.32,-4.2875
391,9554442,0.883768,-0.011712,-0.42639,-1.1025,-5.215,-4.3225
392,9554540,0.883524,-0.011956,-0.42590200000000006,-1.05,-5.1275,-4.305
393,9554637,0.8838901,-0.010858,-0.425414,-1.1025,-4.9875,-4.41
394,9554735,0.8840120000000001,-0.009882,-0.426756,-1.1025,-4.935,-4.41
395,9554833,0.8857200999999999,-0.008540001,-0.426512,-1.0675,-4.7075,-4.3925
396,9554931,0.8834021000000001,-0.011346,-0.42590200000000006,-1.0675,-4.7425,-4.48
397,9555029,0.8840120000000001,-0.011101999999999999,-0.424804,-1.1025,-4.8475,-4.3925
398,9555127,0.8851100000000001,-0.011224,-0.424072,-1.05,-5.075,-4.305
399,9555225,0.8847440999999999,-0.011590000000000001,-0.426512,-1.05,-4.9175,-4.305
400,9555323,0.8842561,-0.011346,-0.42578,-1.085,-4.865,-4.34
401,9555421,0.8862081,-0.010736,-0.42626800000000004,-1.1375,-4.7775,-4.3575
402,9555519,0.8849879999999999,-0.010736,-0.42858599999999997,-1.19,-4.865,-4.375
403,9555617,0.885476,-0.011956,-0.42748800000000003,-1.26,-4.8475,-4.375
404,9555715,0.8847440999999999,-0.009637999999999999,-0.42602399999999996,-1.1725,-4.8825,-4.3575
405,9555812,0.8853540000000001,-0.01037,-0.424926,-1.1025,-4.9175,-4.34
406,9555910,0.8853540000000001,-0.011468,-0.42590200000000006,-1.015,-4.9175,-4.3575
407,9556008,0.8857200999999999,-0.0122,-0.42602399999999996,-1.155,-4.8825,-4.3925
408,9556106,0.8845,-0.011834,-0.42553599999999997,-1.05,-4.9875,-4.3925
409,9556204,0.8842561,-0.013054,-0.42578,-1.2425,-4.97,-4.27
410,9556302,0.8855980999999999,-0.012078,-0.42639,-1.1725,-4.9875,-4.2875
411,9556400,0.8852321,-0.010004,-0.42553599999999997,-1.155,-5.0925,-4.305
412,9556498,0.885476,-0.01037,-0.42602399999999996,-1.1025,-5.215,-4.2525
413,9556596,0.885842,-0.010126000000000001,-0.427122,-1.1025,-5.2675,-4.3225
414,9556694,0.8862081,-0.008174001,-0.426146,-1.015,-5.18,-4.3925
415,9556791,0.8855980999999999,-0.010736,-0.427854,-0.98,-5.145,-4.3925
416,9556889,0.8855980999999999,-0.012931999999999999,-0.42724399999999996,-0.945,-5.1625,-4.48
417,9556987,0.8845,-0.011590000000000001,-0.42736599999999997,-0.945,-5.1625,-4.4975
418,9557085,0.8842561,-0.010492,-0.42626800000000004,-0.98,-5.2675,-4.4275
419,9557183,0.8841341,-0.01098,-0.42736599999999997,-1.1025,-5.32,-4.41
420,9557281,0.883036,-0.011712,-0.426878,-1.0675,-5.3025,-4.4275
421,9557379,0.8855980999999999,-0.0122,-0.42700000000000005,-1.12,-5.355,-4.3925
422,9557477,0.883158,-0.0122,-0.42602399999999996,-0.9625,-5.3725,-4.305
423,9557575,0.8848659999999999,-0.011834,-0.426634,-1.015,-5.5825,-4.2875
424,9557673,0.8841341,-0.011590000000000001,-0.425048,-1.0675,-5.5475,-4.3575
425,9557771,0.885964,-0.013908000000000002,-0.42431599999999997,-1.1025,-5.67,-4.34
426,9557868,0.8857200999999999,-0.013054,-0.42456000000000005,-1.1025,-5.4775,-4.3575
427,9557966,0.885964,-0.011834,-0.425414,-1.085,-5.5475,-4.2525
428,9558064,0.8853540000000001,-0.011468,-0.425414,-1.1375,-5.32,-4.27
429,9558162,0.8862081,-0.0122,-0.425658,-1.085,-5.4775,-4.305
430,9558260,0.8855980999999999,-0.010858,-0.425292,-1.0325,-5.495,-4.375
431,9558358,0.8849879999999999,-0.010614,-0.42517,-1.1025,-5.5125,-4.3925
432,9558456,0.8847440999999999,-0.011590000000000001,-0.42517,-0.945,-5.5125,-4.445
433,9558554,0.885476,-0.01098,-0.42578,-0.8575,-5.5825,-4.3575
434,9558652,0.8860860999999999,-0.011468,-0.425292,-0.9275,-5.565,-4.34
435,9558750,0.8842561,-0.011101999999999999,-0.423584,-0.875,-5.6875,-4.55
436,9558848,0.8843781,-0.012444,-0.42431599999999997,-0.8400001,-5.74,-4.55
437,9558945,0.8853540000000001,-0.013297999999999999,-0.424072,-0.8575,-5.705,-4.4975
438,9559043,0.886574,-0.013297999999999999,-0.424926,-0.8400001,-5.775,-4.4275
439,9559141,0.885842,-0.014274,-0.42395,-0.805,-5.845,-4.41
440,9559239,0.886452,-0.013908000000000002,-0.424072,-0.7525,-5.88,-4.41
441,9559337,0.8848659999999999,-0.012444,-0.424926,-0.91,-5.9325,-4.4275
442,9559435,0.8845,-0.011956,-0.42590200000000006,-0.945,-5.9675,-4.4625
443,9559533,0.8847440999999999,-0.012931999999999999,-0.42517,-1.015,-5.845,-4.3575
444,9559631,0.8845,-0.011224,-0.42590200000000006,-0.945,-5.8625,-4.3225
445,9559729,0.8849879999999999,-0.012444,-0.42724399999999996,-1.05,-5.915,-4.34
446,9559827,0.8852321,-0.013054,-0.42700000000000005,-1.1025,-5.775,-4.3925
447,9559925,0.883768,-0.013786000000000001,-0.42590200000000006,-1.085,-5.845,-4.3575
448,9560022,0.88328,-0.014274,-0.42736599999999997,-1.0675,-5.88,-4.48
449,9560120,0.8847440999999999,-0.012322,-0.42700000000000005,-1.12,-5.915,-4.375
450,9560218,0.8841341,-0.012931999999999999,-0.428098,-1.085,-5.8975,-4.375
451,9560316,0.8823040000000001,-0.01098,-0.42931800000000003,-1.0325,-5.8975,-4.445
452,9560414,0.8826700000000001,-0.013663999999999999,-0.427976,-1.1025,-5.845,-4.3575
453,9560512,0.8845,-0.013541999999999998,-0.42761000000000005,-1.085,-5.81,-4.4275
454,9560610,0.8848659999999999,-0.014396,-0.42748800000000003,-1.015,-5.775,-4.41
455,9560708,0.8852321,-0.013175999999999998,-0.42944,-1.1025,-5.95,-4.2875
456,9560806,0.8846219999999999,-0.012078,-0.43236800000000003,-1.0675,-6.0025,-4.375
457,9560904,0.883524,-0.008906,-0.430782,-0.9975,-6.0025,-4.3225
458,9561002,0.88328,-0.010736,-0.429684,-0.9625,-5.8975,-4.445
459,9561100,0.8845,-0.011956,-0.431392,-0.9275,-6.055,-4.5675
460,9561197,0.883524,-0.014762,-0.42931800000000003,-1.0325,-6.16,-4.55
461,9561295,0.883158,-0.016836,-0.429806,-1.085,-6.0025,-4.4975
462,9561393,0.8819381,-0.013786000000000001,-0.429928,-1.225,-6.195,-4.445
463,9561491,0.882182,-0.014274,-0.429562,-1.2075,-6.195,-4.34
464,9561589,0.8805960999999999,-0.01342,-0.429196,-1.1725,-6.1425,-4.27
465,9561687,0.8808401,-0.012565999999999999,-0.428708,-1.12,-6.23,-4.305
466,9561785,0.8836459999999999,-0.013297999999999999,-0.43053800000000003,-1.26,-6.23,-4.27
467,9561883,0.88328,-0.013786000000000001,-0.43053800000000003,-1.225,-6.23,-4.2175
468,9561981,0.8826700000000001,-0.012688,-0.43029399999999995,-1.1375,-6.125,-4.1475
469,9562079,0.8819381,-0.013663999999999999,-0.42858599999999997,-1.2425,-6.125,-4.27
470,9562177,0.8824261,-0.013175999999999998,-0.430172,-1.2775,-6.0025,-4.27
471,9562275,0.8823040000000001,-0.013541999999999998,-0.429562,-1.19,-5.88,-4.375
472,9562372,0.8820601,-0.011712,-0.431026,-1.19,-5.81,-4.2875
473,9562470,0.8813280000000001,-0.011468,-0.431392,-1.1725,-5.88,-4.375
474,9562568,0.8819381,-0.011590000000000001,-0.43041599999999997,-1.1725,-5.915,-4.34
475,9562666,0.8819381,-0.010858,-0.43066000000000004,-1.12,-5.81,-4.4275
476,9562764,0.8826700000000001,-0.012444,-0.43041599999999997,-1.085,-5.8625,-4.4275
477,9562862,0.8823040000000001,-0.013175999999999998,-0.43212399999999995,-1.0675,-5.6875,-4.375
478,9562960,0.882182,-0.012688,-0.43066000000000004,-1.05,-5.67,-4.3575
479,9563058,0.8808401,-0.013175999999999998,-0.43127,-1.05,-5.775,-4.41
480,9563156,0.8801081000000001,-0.010736,-0.432246,-0.98,-5.705,-4.62
481,9563253,0.88023,-0.011590000000000001,-0.430172,-0.9275,-5.67,-4.62
482,9563351,0.8816940000000001,-0.011346,-0.431148,-0.91,-5.8275,-4.55
483,9563449,0.883158,-0.012444,-0.432246,-0.91,-5.845,-4.6025
484,9563547,0.8823040000000001,-0.013908000000000002,-0.429806,-0.8575,-5.5125,-4.655
485,9563645,0.882548,-0.014274,-0.42931800000000003,-0.875,-5.4775,-4.62
486,9563743,0.8824261,-0.01464,-0.430782,-1.0325,-5.3725,-4.5675
487,9563841,0.8838901,-0.015128,-0.43005,-1.0325,-5.285,-4.55
488,9563939,0.8834021000000001,-0.014396,-0.429806,-1.05,-5.3375,-4.41
489,9564037,0.8810841,-0.013054,-0.42858599999999997,-1.0325,-5.4425,-4.4625
490,9564135,0.8823040000000001,-0.013908000000000002,-0.428708,-1.0675,-5.3375,-4.445
491,9564232,0.8813280000000001,-0.014274,-0.42858599999999997,-1.2075,-5.355,-4.515
492,9564330,0.8818159999999999,-0.013663999999999999,-0.428464,-1.2425,-5.3725,-4.445
493,9564428,0.882914,-0.013054,-0.42858599999999997,-1.155,-5.39,-4.41
494,9564526,0.8836459999999999,-0.01281,-0.42931800000000003,-1.1725,-5.3025,-4.4625
495,9564624,0.88328,-0.01281,-0.42944,-1.295,-5.2325,-4.445
496,9564722,0.882182,-0.012931999999999999,-0.428342,-1.2775,-5.1975,-4.445
497,9564820,0.883768,-0.012565999999999999,-0.427976,-1.225,-5.075,-4.4625
498,9564918,0.8820601,-0.014274,-0.42895200000000006,-1.26,-5.0925,-4.4625
499,9565016,0.8820601,-0.01342,-0.429196,-1.225,-5.075,-4.48
500,9565113,0.8819381,-0.012565999999999999,-0.429806,-1.2425,-5.0575,-4.3575
501,9565211,0.8816940000000001,-0.011712,-0.429196,-1.1375,-5.145,-4.48
502,9565309,0.882914,-0.014762,-0.42907399999999996,-1.19,-5.25,-4.48
503,9565407,0.883036,-0.01342,-0.428708,-1.225,-5.145,-4.48
504,9565505,0.883524,-0.013054,-0.42931800000000003,-1.1725,-5.18,-4.4625
505,9565603,0.882548,-0.01281,-0.429562,-1.225,-5.1275,-4.515
506,9565701,0.883158,-0.014274,-0.429806,-1.1375,-5.145,-4.4975
507,9565799,0.8827921000000001,-0.013541999999999998,-0.429684,-1.1725,-5.2675,-4.48
508,9565896,0.88328,-0.014518000000000001,-0.429684,-1.2775,-5.2675,-4.4275
509,9565994,0.8834021000000001,-0.01342,-0.430904,-1.19,-5.2325,-4.4975
510,9566092,0.883036,-0.012322,-0.429684,-1.19,-5.0925,-4.4975
511,9566190,0.8836459999999999,-0.013541999999999998,-0.43029399999999995,-1.1725,-5.075,-4.48
512,9566288,0.88328,-0.013908000000000002,-0.430172,-1.1375,-5.11,-4.585
513,9566386,0.8810841,-0.0122,-0.428464,-1.085,-5.2325,-4.4975
514,9566484,0.882914,-0.01281,-0.429806,-1.1375,-5.1625,-4.62
515,9566582,0.88328,-0.01342,-0.428708,-1.1025,-5.075,-4.55
516,9566680,0.8836459999999999,-0.011712,-0.42822,-1.085,-5.145,-4.655
517,9566777,0.8838901,-0.011590000000000001,-0.42858599999999997,-1.1375,-5.2325,-4.585
518,9566875,0.8841341,-0.0122,-0.43041599999999997,-1.19,-5.2325,-4.515
519,9566973,0.8848659999999999,-0.012078,-0.429806,-1.1725,-5.1975,-4.5325
520,9567071,0.8845,-0.0122,-0.42895200000000006,-1.19,-5.1625,-4.5325
521,9567169,0.8840120000000001,-0.012078,-0.42822,-1.0675,-5.215,-4.5675
522,9567267,0.882548,-0.013297999999999999,-0.428464,-1.12,-5.2675,-4.55
523,9567365,0.882914,-0.014274,-0.42773199999999995,-1.12,-5.3725,-4.6375
524,9567463,0.882914,-0.013175999999999998,-0.42883009999999994,-1.12,-5.39,-4.4975
525,9567560,0.8842561,-0.010614,-0.428464,-1.2425,-5.355,-4.515
526,9567658,0.88328,-0.012565999999999999,-0.42931800000000003,-1.2775,-5.3025,-4.55
527,9567756,0.8841341,-0.013054,-0.429806,-1.3125,-5.3375,-4.445
528,9567854,0.8824261,-0.012322,-0.42858599999999997,-1.365,-5.2325,-4.4975
529,9567952,0.8809620000000001,-0.010858,-0.42895200000000006,-1.3125,-5.215,-4.585
530,9568050,0.8818159999999999,-0.011712,-0.426634,-1.2775,-5.2325,-4.5675
531,9568148,0.883036,-0.013663999999999999,-0.425414,-1.2775,-5.1975,-4.4625
532,9568246,0.8841341,-0.01037,-0.426512,-1.295,-5.3725,-4.5325
533,9568344,0.888648,-0.01098,-0.42748800000000003,-1.3825,-5.46,-4.4625
534,9568442,0.8874280999999999,-0.009637999999999999,-0.42858599999999997,-1.2775,-5.6,-4.375
535,9568540,0.8857200999999999,-0.009150001,-0.429562,-1.12,-5.53,-4.4975
536,9568637,0.8846219999999999,-0.009637999999999999,-0.428464,-1.085,-5.5125,-4.5325
537,9568735,0.8836459999999999,-0.011712,-0.427122,-1.05,-5.425,-4.62
538,9568833,0.8848659999999999,-0.01281,-0.426512,-1.0325,-5.4775,-4.76
539,9568931,0.8843781,-0.013908000000000002,-0.42553599999999997,-1.225,-5.6,-4.62
540,9569029,0.883036,-0.013663999999999999,-0.424926,-1.2775,-5.495,-4.655
541,9569127,0.8818159999999999,-0.014396,-0.424072,-1.1725,-5.53,-4.5325
542,9569225,0.883768,-0.011712,-0.425048,-1.1725,-5.5125,-4.55
543,9569323,0.8851100000000001,-0.011468,-0.42736599999999997,-1.1375,-5.53,-4.48
544,9569421,0.8842561,-0.011712,-0.428098,-1.1725,-5.6,-4.62
545,9569519,0.8834021000000001,-0.010858,-0.42748800000000003,-1.1725,-5.5475,-4.4625
546,9569617,0.8826700000000001,-0.013297999999999999,-0.428098,-1.1725,-5.565,-4.4625
547,9569714,0.8823040000000001,-0.01281,-0.42700000000000005,-1.12,-5.32,-4.3575
548,9569812,0.8824261,-0.012931999999999999,-0.42626800000000004,-1.2075,-5.425,-4.4275
549,9569910,0.8841341,-0.010736,-0.428342,-1.26,-5.4775,-4.5325
550,9570008,0.8852321,-0.010248,-0.42590200000000006,-1.2425,-5.46,-4.4975
551,9570106,0.8838901,-0.01037,-0.42626800000000004,-1.2425,-5.4775,-4.41
552,9570204,0.8840120000000001,-0.01037,-0.42602399999999996,-1.19,-5.53,-4.48
553,9570302,0.8842561,-0.010614,-0.425658,-1.12,-5.5825,-4.55
554,9570400,0.8836459999999999,-0.011956,-0.426634,-1.1025,-5.6,-4.55
555,9570498,0.883158,-0.010248,-0.42748800000000003,-1.0675,-5.4775,-4.62
556,9570596,0.8827921000000001,-0.010248,-0.426878,-1.2075,-5.67,-4.585
557,9570694,0.8834021000000001,-0.009272001,-0.42931800000000003,-1.05,-5.74,-4.55
558,9570792,0.8816940000000001,-0.009637999999999999,-0.42883009999999994,-1.015,-5.775,-4.55
559,9570889,0.882548,-0.008540001,-0.428708,-0.945,-5.775,-4.6725
560,9570987,0.8836459999999999,-0.010736,-0.42858599999999997,-0.8575,-5.8275,-4.62
561,9571085,0.883158,-0.011834,-0.42773199999999995,-0.8225,-5.8975,-4.585
562,9571183,0.8824261,-0.013054,-0.42858599999999997,-0.91,-5.845,-4.6725
563,9571281,0.8836459999999999,-0.013541999999999998,-0.42761000000000005,-0.91,-5.88,-4.655
564,9571379,0.8852321,-0.01342,-0.42626800000000004,-1.085,-5.915,-4.585
565,9571477,0.8842561,-0.010248,-0.427976,-1.1375,-5.915,-4.5675
566,9571575,0.883036,-0.010126000000000001,-0.427976,-0.98,-5.95,-4.41
567,9571673,0.883524,-0.010248,-0.42736599999999997,-1.0325,-6.0025,-4.41
568,9571771,0.8846219999999999,-0.010248,-0.42590200000000006,-1.12,-5.9675,-4.375
569,9571868,0.883768,-0.01037,-0.42736599999999997,-1.1375,-6.16,-4.48
570,9571966,0.8834021000000001,-0.011468,-0.42748800000000003,-1.1375,-6.0375,-4.4275
571,9572064,0.882548,-0.011956,-0.427122,-1.1725,-6.1075,-4.4275
572,9572162,0.8843781,-0.010126000000000001,-0.428464,-1.155,-6.09,-4.41
573,9572260,0.8847440999999999,-0.011101999999999999,-0.42822,-1.1725,-6.1425,-4.34
574,9572358,0.8814501,-0.010492,-0.42858599999999997,-1.2075,-6.195,-4.3925
575,9572456,0.8813280000000001,-0.010736,-0.42822,-1.2425,-6.1425,-4.3925
576,9572554,0.8834021000000001,-0.011712,-0.428708,-1.26,-6.23,-4.3925
577,9572652,0.8827921000000001,-0.010126000000000001,-0.427976,-1.2425,-6.09,-4.4275
578,9572750,0.8836459999999999,-0.011468,-0.428464,-1.295,-6.195,-4.48
579,9572848,0.8834021000000001,-0.011590000000000001,-0.428342,-1.225,-6.16,-4.3225
580,9572946,0.8851100000000001,-0.012078,-0.42700000000000005,-1.2775,-6.1775,-4.3925
581,9573043,0.8855980999999999,-0.0122,-0.427854,-1.26,-6.2125,-4.3575
582,9573141,0.8840120000000001,-0.009882,-0.429928,-1.19,-6.2825,-4.3225
583,9573239,0.883158,-0.010492,-0.429562,-1.2075,-6.23,-4.3575
584,9573337,0.8819381,-0.010858,-0.43005,-1.1725,-6.125,-4.3575
585,9573435,0.879986,-0.010858,-0.43029399999999995,-1.19,-6.09,-4.41
586,9573533,0.8819381,-0.011834,-0.430782,-1.2075,-6.1425,-4.375
587,9573631,0.8818159999999999,-0.01098,-0.432734,-1.33,-6.23,-4.34
588,9573729,0.882548,-0.010736,-0.43188000000000004,-1.295,-6.23,-4.3925
589,9573827,0.8820601,-0.010614,-0.43200200000000005,-1.225,-6.2475,-4.375
590,9573925,0.8812059999999999,-0.011712,-0.430904,-1.26,-6.195,-4.3225
591,9574023,0.8816940000000001,-0.010614,-0.431026,-1.2425,-6.09,-4.2875
592,9574121,0.882182,-0.011468,-0.431514,-1.2775,-6.1075,-4.27
593,9574218,0.8818159999999999,-0.012565999999999999,-0.43005,-1.2075,-6.055,-4.305
594,9574316,0.8819381,-0.012444,-0.43188000000000004,-1.26,-6.195,-4.27
595,9574414,0.8824261,-0.011834,-0.431392,-1.3125,-6.125,-4.34
596,9574512,0.8812059999999999,-0.01037,-0.43188000000000004,-1.295,-6.2125,-4.3225
597,9574610,0.8815719999999999,-0.011712,-0.430782,-1.435,-6.2125,-4.3925
598,9574708,0.8820601,-0.010126000000000001,-0.431026,-1.33,-6.0725,-4.305
599,9574806,0.8816940000000001,-0.010492,-0.43249,-1.3125,-6.2475,-4.305
600,9574904,0.8809620000000001,-0.009637999999999999,-0.43334399999999995,-1.3475,-6.195,-4.3225
601,9575002,0.8808401,-0.010126000000000001,-0.432978,-1.26,-6.0725,-4.34
602,9575100,0.8805960999999999,-0.010126000000000001,-0.43358800000000003,-1.26,-6.055,-4.375
603,9575198,0.880718,-0.00976,-0.43371000000000004,-1.33,-6.125,-4.3575
604,9575295,0.8814501,-0.010492,-0.43432,-1.2425,-6.0375,-4.4275
605,9575393,0.8810841,-0.01037,-0.434198,-1.2425,-6.0375,-4.34
606,9575491,0.8813280000000001,-0.009028000999999999,-0.433832,-1.3125,-6.055,-4.305
607,9575589,0.879376,-0.012322,-0.434198,-1.2425,-6.0375,-4.2875
608,9575687,0.8788879999999999,-0.009882,-0.43432,-1.3825,-5.8625,-4.34
609,9575785,0.8786440999999999,-0.011712,-0.43322200000000005,-1.3825,-5.9325,-4.3225
610,9575883,0.880352,-0.012078,-0.433954,-1.3825,-6.0025,-4.2525
611,9575981,0.8818159999999999,-0.00976,-0.43505200000000005,-1.295,-6.2825,-4.2
612,9576079,0.8813280000000001,-0.008906,-0.43615,-1.1725,-6.2475,-4.2175
613,9576177,0.8797421000000001,-0.00793,-0.436882,-1.1725,-6.1075,-4.375
614,9576275,0.880352,-0.010614,-0.434442,-1.12,-6.02,-4.4275
615,9576373,0.8815719999999999,-0.011590000000000001,-0.434564,-1.225,-5.985,-4.4625
616,9576470,0.8801081000000001,-0.013054,-0.43249,-1.2775,-6.1075,-4.3575
617,9576568,0.8801081000000001,-0.013175999999999998,-0.432612,-1.3475,-6.0025,-4.3925
618,9576666,0.8777901,-0.01281,-0.43200200000000005,-1.365,-6.02,-4.34
619,9576764,0.877912,-0.010736,-0.43602799999999997,-1.3475,-6.0375,-4.1475
620,9576862,0.8775459999999999,-0.010736,-0.435296,-1.3125,-6.0375,-4.1475
621,9576960,0.8788879999999999,-0.009272001,-0.43505200000000005,-1.2775,-5.9675,-4.2
622,9577058,0.8787661,-0.010126000000000001,-0.435906,-1.1725,-6.125,-4.1825
623,9577156,0.8782780000000001,-0.00976,-0.435418,-1.2075,-6.1425,-4.2175
624,9577254,0.880352,-0.009882,-0.43493000000000004,-1.12,-6.02,-4.2525
625,9577352,0.8794981,-0.010492,-0.435296,-1.12,-5.9675,-4.34
626,9577450,0.8788879999999999,-0.011834,-0.43676000000000004,-1.085,-5.95,-4.305
627,9577548,0.8792540999999999,-0.009637999999999999,-0.436882,-1.05,-5.7925,-4.235
628,9577646,0.88023,-0.007564001,-0.435662,-1.155,-5.6525,-4.3575
629,9577743,0.8786440999999999,-0.008052001,-0.434442,-1.015,-5.565,-4.3575
630,9577841,0.8794981,-0.008052001,-0.434808,-1.0325,-5.6175,-4.445
631,9577939,0.879376,-0.009150001,-0.437126,-0.9275,-5.495,-4.55
632,9578037,0.8785219999999999,-0.010858,-0.43493000000000004,-0.9975,-5.565,-4.55
633,9578135,0.8787661,-0.01098,-0.43602799999999997,-1.0325,-5.5125,-4.55
634,9578233,0.8781559999999999,-0.01098,-0.437004,-0.98,-5.635,-4.5325
635,9578331,0.8781559999999999,-0.010614,-0.43639399999999995,-0.945,-5.7225,-4.55
636,9578429,0.8785219999999999,-0.009394,-0.43639399999999995,-0.9275,-5.6525,-4.5325
637,9578527,0.8801081000000001,-0.00976,-0.436638,-0.7875,-5.67,-4.515
638,9578625,0.8812059999999999,-0.010614,-0.437004,-0.8225,-5.5825,-4.5325
639,9578723,0.879864,-0.011101999999999999,-0.43602799999999997,-0.875,-5.39,-4.585
640,9578821,0.879376,-0.012931999999999999,-0.437004,-0.8575,-5.285,-4.655
641,9578918,0.879864,-0.011712,-0.435174,-0.875,-5.2325,-4.55
642,9579016,0.8786440999999999,-0.013297999999999999,-0.435296,-1.05,-5.25,-4.5325
643,9579114,0.878034,-0.013297999999999999,-0.435784,-1.1025,-5.3025,-4.515
644,9579212,0.8781559999999999,-0.012444,-0.43615,-1.0675,-5.4425,-4.48
645,9579310,0.878034,-0.011956,-0.437004,-1.085,-5.5125,-4.4275
646,9579408,0.8792540999999999,-0.011590000000000001,-0.435174,-1.1725,-5.5825,-4.305
647,9579506,0.8787661,-0.011712,-0.43468599999999996,-1.085,-5.4775,-4.2875
648,9579604,0.8801081000000001,-0.010492,-0.434442,-1.19,-5.46,-4.3225
649,9579702,0.879864,-0.009637999999999999,-0.43651599999999996,-1.225,-5.4425,-4.3225
650,9579800,0.8808401,-0.011224,-0.434808,-1.19,-5.4775,-4.41
651,9579898,0.8782780000000001,-0.01037,-0.435418,-1.1725,-5.3725,-4.34
652,9579996,0.879864,-0.011224,-0.435906,-1.2075,-5.25,-4.41
653,9580094,0.8796200000000001,-0.010126000000000001,-0.433832,-1.1375,-5.2675,-4.4275
654,9580191,0.879864,-0.008662000999999999,-0.435174,-1.1725,-5.4075,-4.41
655,9580289,0.8801081000000001,-0.010614,-0.433832,-1.2075,-5.3725,-4.5325
656,9580387,0.8805960999999999,-0.010614,-0.434442,-1.155,-5.495,-4.515
657,9580485,0.8813280000000001,-0.010614,-0.43432,-1.085,-5.3725,-4.515
658,9580583,0.879864,-0.009882,-0.43371000000000004,-1.155,-5.3025,-4.585
659,9580681,0.8814501,-0.010126000000000001,-0.43432,-1.155,-5.39,-4.5675
660,9580779,0.880718,-0.011468,-0.4331,-1.155,-5.3375,-4.62
661,9580877,0.8810841,-0.011834,-0.43493000000000004,-1.12,-5.32,-4.4975
662,9580975,0.879986,-0.012688,-0.43371000000000004,-1.12,-5.3725,-4.41
663,9581073,0.8813280000000001,-0.011712,-0.43432,-1.2075,-5.4075,-4.41
664,9581171,0.8818159999999999,-0.011956,-0.434076,-1.225,-5.425,-4.4625
665,9581269,0.8820601,-0.0122,-0.43358800000000003,-1.225,-5.3725,-4.3575
666,9581367,0.8812059999999999,-0.0122,-0.434076,-1.2075,-5.4075,-4.41
667,9581464,0.880718,-0.009882,-0.43334399999999995,-1.225,-5.4775,-4.4275
668,9581562,0.8818159999999999,-0.011101999999999999,-0.43322200000000005,-1.26,-5.3025,-4.445
669,9581660,0.880352,-0.010858,-0.432246,-1.2775,-5.3725,-4.445
670,9581758,0.880474,-0.011712,-0.43371000000000004,-1.1025,-5.425,-4.3225
671,9581856,0.8809620000000001,-0.010248,-0.43322200000000005,-1.085,-5.3725,-4.375
672,9581954,0.8814501,-0.01037,-0.434198,-1.12,-5.3725,-4.445
673,9582052,0.8810841,-0.010248,-0.432856,-1.19,-5.3725,-4.445
674,9582150,0.8797421000000001,-0.009882,-0.432734,-1.1375,-5.4425,-4.515
675,9582248,0.8809620000000001,-0.010858,-0.43249,-1.1025,-5.46,-4.4275
676,9582346,0.8819381,-0.011468,-0.43334399999999995,-1.1725,-5.425,-4.445
677,9582444,0.8823040000000001,-0.012688,-0.432734,-1.085,-5.4775,-4.4275
678,9582542,0.8823040000000001,-0.011224,-0.43249,-1.0675,-5.5125,-4.3925
679,9582640,0.8816940000000001,-0.011101999999999999,-0.4331,-1.1025,-5.4075,-4.41
680,9582738,0.8816940000000001,-0.01098,-0.43249,-1.0675,-5.355,-4.5325
681,9582836,0.879864,-0.011590000000000001,-0.431392,-1.085,-5.4075,-4.48
682,9582933,0.879864,-0.010858,-0.432612,-1.0675,-5.4775,-4.3575
683,9583031,0.8794981,-0.012078,-0.43371000000000004,-1.085,-5.495,-4.27
684,9583129,0.8808401,-0.011101999999999999,-0.434076,-1.12,-5.39,-4.34
685,9583227,0.880352,-0.011224,-0.43358800000000003,-1.12,-5.4075,-4.4275
686,9583325,0.8812059999999999,-0.011224,-0.43432,-1.12,-5.425,-4.3925
687,9583423,0.880352,-0.011956,-0.434198,-1.19,-5.495,-4.3575
688,9583521,0.8808401,-0.01037,-0.432734,-1.2425,-5.425,-4.2875
689,9583619,0.8784,-0.010492,-0.434198,-1.2425,-5.4075,-4.3225
690,9583717,0.8787661,-0.011956,-0.43371000000000004,-1.225,-5.4775,-4.41
691,9583815,0.879986,-0.011712,-0.430904,-1.1725,-5.4425,-4.4275
692,9583913,0.8810841,-0.010614,-0.43188000000000004,-1.2425,-5.5825,-4.375
693,9584011,0.883158,-0.011224,-0.432734,-1.2425,-5.5825,-4.3225
694,9584109,0.8848659999999999,-0.010248,-0.43358800000000003,-1.19,-5.635,-4.3575
695,9584207,0.883158,-0.010004,-0.435418,-1.2425,-5.5125,-4.4275
696,9584305,0.8840120000000001,-0.011834,-0.43358800000000003,-1.1375,-5.4075,-4.5325
697,9584402,0.8836459999999999,-0.012322,-0.43188000000000004,-1.19,-5.4775,-4.515
698,9584500,0.8824261,-0.01342,-0.43053800000000003,-1.26,-5.46,-4.445
699,9584598,0.8808401,-0.012688,-0.429806,-1.225,-5.5125,-4.4275
700,9584696,0.8788879999999999,-0.012931999999999999,-0.430172,-1.2775,-5.5475,-4.3575
701,9584794,0.8785219999999999,-0.012444,-0.429196,-1.3825,-5.67,-4.2525
702,9584892,0.879864,-0.0122,-0.431026,-1.365,-5.74,-4.165
703,9584990,0.8808401,-0.012322,-0.43322200000000005,-1.2775,-5.7575,-4.1475
704,9585088,0.882914,-0.010004,-0.432856,-1.26,-5.88,-4.1825
705,9585186,0.882914,-0.010248,-0.43127,-1.155,-5.7925,-4.2175
706,9585284,0.8814501,-0.012078,-0.431758,-1.26,-5.775,-4.3225
707,9585382,0.8797421000000001,-0.011224,-0.432612,-1.12,-5.67,-4.2175
708,9585480,0.8801081000000001,-0.01281,-0.43212399999999995,-1.19,-5.5825,-4.305
709,9585578,0.8815719999999999,-0.011590000000000001,-0.431026,-1.1725,-5.5825,-4.34
710,9585676,0.880474,-0.010248,-0.43127,-1.085,-5.635,-4.3925
711,9585774,0.8820601,-0.008906,-0.43188000000000004,-1.19,-5.565,-4.34
712,9585871,0.882914,-0.00976,-0.43200200000000005,-1.1025,-5.67,-4.41
713,9585969,0.883768,-0.01037,-0.431392,-1.05,-5.6,-4.34
714,9586067,0.883158,-0.011712,-0.429928,-1.2075,-5.635,-4.41
715,9586165,0.88328,-0.011590000000000001,-0.43053800000000003,-1.2075,-5.6175,-4.3925
716,9586263,0.8816940000000001,-0.01403,-0.43041599999999997,-1.2075,-5.5125,-4.3925
717,9586361,0.8809620000000001,-0.01098,-0.43053800000000003,-1.1375,-5.39,-4.3925
718,9586459,0.880718,-0.009882,-0.432856,-1.1375,-5.7225,-4.3225
719,9586557,0.882914,-0.010126000000000001,-0.432734,-1.0325,-5.775,-4.2875
720,9586655,0.8823040000000001,-0.009516001,-0.43200200000000005,-0.9975,-5.74,-4.375
721,9586753,0.8845,-0.009882,-0.432978,-0.9625,-5.81,-4.41
722,9586851,0.8841341,-0.011346,-0.43371000000000004,-0.8925,-5.985,-4.5675
723,9586949,0.8824261,-0.011346,-0.432612,-0.9975,-5.8975,-4.55
724,9587047,0.8820601,-0.010858,-0.434808,-1.0325,-5.8975,-4.515
725,9587145,0.8815719999999999,-0.01098,-0.435296,-1.015,-5.95,-4.4975
726,9587242,0.8796200000000001,-0.011346,-0.434808,-0.9975,-6.0025,-4.4625
727,9587341,0.8808401,-0.011956,-0.434198,-1.1025,-5.9675,-4.445
728,9587438,0.8791321,-0.013054,-0.43358800000000003,-1.0675,-6.0025,-4.48
729,9587536,0.88023,-0.012444,-0.43322200000000005,-1.12,-6.2125,-4.375
730,9587634,0.882182,-0.01281,-0.431758,-1.2775,-6.3,-4.375
731,9587732,0.8810841,-0.012322,-0.432734,-1.19,-6.335,-4.305
732,9587830,0.880718,-0.011712,-0.432978,-1.225,-6.3875,-4.2875
733,9587928,0.8815719999999999,-0.011956,-0.431758,-1.2075,-6.37,-4.3225
734,9588026,0.8812059999999999,-0.011468,-0.43334399999999995,-1.3125,-6.3525,-4.34
735,9588124,0.8834021000000001,-0.01098,-0.43236800000000003,-1.2775,-6.37,-4.2875
736,9588222,0.8818159999999999,-0.010126000000000001,-0.43358800000000003,-1.2775,-6.3175,-4.235
737,9588320,0.8809620000000001,-0.010004,-0.432856,-1.4175,-6.265,-4.2525
738,9588418,0.8808401,-0.010004,-0.432246,-1.4,-6.37,-4.305
739,9588516,0.8816940000000001,-0.010736,-0.431758,-1.2425,-6.4925,-4.305
740,9588614,0.8819381,-0.00976,-0.432978,-1.2775,-6.4575,-4.3225
741,9588711,0.8838901,-0.01098,-0.431758,-1.155,-6.44,-4.3925
742,9588809,0.8819381,-0.010492,-0.43188000000000004,-1.2075,-6.475,-4.4625
743,9588907,0.8826700000000001,-0.01098,-0.432246,-1.1375,-6.5275,-4.4625
744,9589005,0.8842561,-0.011346,-0.43334399999999995,-1.12,-6.545,-4.4975
745,9589103,0.8824261,-0.013541999999999998,-0.43212399999999995,-0.91,-6.58,-4.375
746,9589201,0.8843781,-0.014274,-0.431758,-0.8400001,-6.615,-4.165
747,9589299,0.8847440999999999,-0.01464,-0.430904,-0.6475,-6.7025,-3.955
748,9589397,0.887184,-0.014396,-0.432734,-0.5425,-6.965,-3.955
749,9589495,0.885476,-0.013297999999999999,-0.43200200000000005,-0.42,-7.2975,-4.0075
750,9589593,0.8843781,-0.01098,-0.43334399999999995,-0.175,-7.4375,-4.0425
751,9589691,0.8840120000000001,-0.012322,-0.433832,0.0525,-7.4375,-4.0425
752,9589789,0.8834021000000001,-0.013175999999999998,-0.43493000000000004,0.21,-7.6825,-4.2875
753,9589887,0.8841341,-0.016592,-0.43322200000000005,0.28,-7.8925,-4.445
754,9589985,0.8814501,-0.01464,-0.428342,0.525,-7.8925,-4.41
755,9590083,0.879986,-0.017934000000000002,-0.427122,0.6125,-8.1375,-4.3575
756,9590180,0.8801081000000001,-0.021716,-0.42590200000000006,0.6825,-8.295,-4.1825
757,9590278,0.8818159999999999,-0.024034,-0.423462,0.77,-8.3125,-4.3225
758,9590376,0.8814501,-0.027206,-0.42273,0.8575,-8.3475,-4.375
759,9590474,0.8797421000000001,-0.031598,-0.42163199999999995,0.7175,-8.4875,-4.34
760,9590572,0.8819381,-0.031354,-0.416264,0.595,-8.5225,-4.2875
761,9590670,0.8845,-0.03172,-0.417362,0.5425,-8.6625,-4.445
762,9590768,0.885476,-0.03172,-0.410286,0.665,-8.785,-4.3925
763,9590866,0.887916,-0.032208,-0.41175,0.5775,-9.1175,-4.3925
764,9590964,0.8888921000000001,-0.034282,-0.409066,0.6825,-9.17,-4.4975
765,9591062,0.888648,-0.034282,-0.406992,0.42,-9.03,-4.6375
766,9591160,0.888648,-0.035013999999999997,-0.403332,0.245,-8.855,-4.7075
767,9591258,0.889258,-0.033672,-0.400282,-0.28,-8.75,-5.005
768,9591356,0.890966,-0.037088,-0.401502,-0.735,-8.3825,-5.18
769,9591453,0.895358,-0.040504000000000005,-0.40528400000000003,-0.8575,-8.4,-5.1975
770,9591551,0.937326,-0.047945999999999996,-0.4087,-1.0325,-8.6975,-5.145
771,9591649,0.894626,-0.039528,-0.40223400000000004,-0.9975,-8.2425,-4.1125
772,9591747,0.891576,-0.039284,-0.406382,-1.855,-8.3825,-4.2525
773,9591845,0.8843781,-0.042944,-0.405406,-1.4175,-7.84,-4.375
774,9591943,0.897432,-0.04392,-0.410286,-1.9075,-8.575,-4.34
775,9592041,0.9067040000000001,-0.041602,-0.41248199999999996,-1.925,-9.1,-4.27
776,9592139,0.903166,-0.040260000000000004,-0.414434,-2.275,-9.4675,-4.095
777,9592237,0.8957241,-0.035746,-0.41236000000000006,-1.6625,-9.31,-3.605
778,9592335,0.8964561,-0.030256,-0.40882199999999996,-1.2775,-9.66,-3.045
779,9592433,0.8885261000000001,-0.031964,-0.40626,-0.0525,-9.45,-2.7125
780,9592531,0.8753501,-0.030866,-0.400404,0.8225,-9.835,-2.1525
781,9592629,0.886574,-0.030378,-0.393938,1.995,-9.94,-2.1175
782,9592727,0.8808401,-0.036844,-0.37746799999999997,3.0275,-8.9775,-2.31
783,9592825,0.868884,-0.049532,-0.36783000000000005,3.1675,-7.7175,-3.045
784,9592923,0.869128,-0.060512,-0.36087600000000003,3.2025,-6.7025,-3.9725
785,9593020,0.8818159999999999,-0.067832,-0.352458,3.045,-5.705,-5.25
786,9593118,0.89975,-0.07246799999999999,-0.351116,1.995,-4.6375,-6.0025
787,9593216,0.8826700000000001,-0.07893401,-0.34733400000000003,0.5425,-3.2025,-5.9325
788,9593314,0.8855980999999999,-0.082228,-0.348554,-1.015,-2.17,-5.9325
789,9593412,0.891576,-0.08064199,-0.349774,-2.485,-1.3825,-5.845
790,9593510,0.898408,-0.07393200000000001,-0.35477600000000004,-4.3225,-0.385,-5.425
791,9593608,0.903532,-0.06270801,-0.366122,-6.1075,0.28,-4.585
792,9593706,0.9036540000000001,-0.044286,-0.380152,-8.05,0.595,-4.1475
793,9593804,0.8959681,-0.032818,-0.393572,-9.4325,0.7,-3.6225
794,9593902,0.8818159999999999,-0.021838,-0.406504,-10.29,0.5075,-2.73
795,9594000,0.8647360000000001,-0.027206,-0.41297,-10.57,-0.4025,-1.68
796,9594098,0.855708,-0.032818,-0.427854,-10.6925,-1.015,-0.1925
797,9594195,0.8377741,-0.029524,-0.434564,-10.5525,-1.2775,1.3475
798,9594293,0.815692,-0.021594,-0.441274,-10.6575,-2.0475,2.6075
799,9594391,0.85949,-0.005002,-0.449326,-10.57,-3.8325,4.34
800,9594489,0.7829961,-0.0244,-0.44066400000000006,-10.6925,-5.1275,6.2475
801,9594587,0.7789699999999999,-0.01403,-0.44688599999999995,-10.36,-7.7875,8.365
802,9594685,0.787388,-0.01281,-0.446276,-9.1,-10.3775,10.885
803,9594783,0.802882,-0.018666,-0.44859399999999994,-8.4525,-13.475,12.5125
804,9594881,0.8357,-0.019398,-0.46323400000000003,-7.945,-15.3125,13.23
805,9594979,0.8809620000000001,-0.029524,-0.47153,-8.68,-17.0625,13.0375
806,9595077,0.946232,-0.032574,-0.49349,-10.6575,-18.83,11.3575
807,9595175,0.9684360999999999,-0.026962,-0.482022,-12.8275,-19.845,8.5225
808,9595273,0.9906401,-0.016347999999999998,-0.4697,-14.6125,-19.46,5.1975
809,9595371,0.9768540000000001,0.008906,-0.448838,-15.89,-17.0275,2.1
810,9595469,0.9528200000000001,0.036478,-0.42285200000000006,-16.7475,-14.1225,-1.155
811,9595566,0.9091440000000001,0.067588,-0.386374,-15.6975,-11.4625,-3.535
812,9595664,0.9221981,0.09674601,-0.36807399999999996,-14.98,-11.5325,-5.495
813,9595762,0.916586,0.11870599999999999,-0.351482,-12.7575,-13.965,-6.8075
814,9595860,0.927932,0.14090999999999998,-0.355142,-9.9225,-17.36,-7.84
815,9595958,1.0023520000000001,0.12505,-0.35746,-6.475,-23.135,-9.8175
816,9596056,1.021384,0.103822,-0.36087600000000003,-4.0075,-27.23,-11.1125
817,9596154,1.037488,0.07588400000000001,-0.37112399999999995,-2.5725,-29.0325,-13.0725
818,9596252,1.075552,0.02562,-0.372344,-0.595,-28.455,-15.1725
819,9596350,1.027118,0.014884,-0.36905,-0.8575,-25.865,-16.4325
820,9596448,1.033584,-0.008052001,-0.376004,-2.52,-21.735,-19.4075
821,9596546,0.9558701,-0.015493999999999999,-0.375638,-2.7125,-15.0675,-20.2475
822,9596644,0.93391,-0.01281,-0.36953800000000003,-4.83,-12.6525,-21.455
823,9596741,0.9264680000000001,-0.00549,-0.35099400000000003,-6.44,-10.5525,-22.0325
824,9596839,0.8610761,0.008052001,-0.34794400000000003,-7.9275,-6.8075,-20.51
825,9596937,0.793244,0.031110000000000002,-0.356118,-10.8675,-6.0725,-19.53
826,9597035,0.738222,0.043188,-0.359534,-12.425,-9.17,-20.1425
827,9597133,0.7828741,0.035258,-0.340258,-13.0375,-14.8225,-20.2825
828,9597231,0.7993439999999999,0.030866,-0.321714,-12.6175,-16.6425,-18.235
829,9597329,0.81801,0.024888,-0.317322,-13.51,-15.995,-16.1525
830,9597427,0.811178,0.026474,-0.309514,-14.4375,-14.3325,-14.455
831,9597525,0.811666,0.050508,-0.30707399999999996,-15.1025,-12.1975,-13.02
832,9597623,0.820938,0.03904,-0.28938400000000003,-15.1025,-9.7475,-12.1275
833,9597721,0.823378,0.05795,-0.270474,-14.7875,-7.42,-9.9575
834,9597819,0.8287459999999999,0.050996,-0.259128,-14.805,-5.355,-8.995
835,9597916,0.8310639999999999,0.05587601,-0.249002,-13.5275,-2.275,-7.1225
836,9598014,0.8453381,0.06356201,-0.24192600000000003,-12.0925,-0.035,-6.16
837,9598112,0.856806,0.071248,-0.24436599999999997,-11.0075,0.8925,-5.4075
838,9598210,0.8708360999999999,0.08100801,-0.253882,-9.5025,0.8575,-4.69
839,9598308,0.878034,0.08466801,-0.26913200000000004,-6.9825,-0.0875,-3.9375
840,9598406,0.8816940000000001,0.104432,-0.285236,-4.375,-1.2775,-2.9925
841,9598504,0.8876719999999999,0.111996,-0.30927,-1.7675,-2.485,-3.08
842,9598602,0.9004821,0.11773,-0.3111,2.1875,-3.2025,-3.36
843,9598700,0.8968221,0.13725,-0.30866,6.09,-4.2175,-3.395
844,9598798,0.916952,0.119072,-0.306464,8.89,-5.81,-4.9525
845,9598896,0.9252481,0.11041,-0.28792,12.2675,-6.9125,-5.215
846,9598994,0.924516,0.09589201,-0.296094,13.16,-8.715,-5.18
847,9599091,0.9446460999999999,0.045506,-0.29902199999999995,12.8625,-9.065,-6.4925
848,9599189,0.945744,0.021228,-0.296582,10.8675,-8.47,-5.9325
849,9599287,0.9337880999999999,0.02745,-0.30744,7.665,-8.505,-5.005
850,9599385,0.9363501000000001,0.045384,-0.31903000000000004,4.76,-9.415,-4.55
851,9599483,0.95831,0.059536,-0.315126,3.43,-9.695,-4.725
852,9599581,0.990274,0.10919000000000001,-0.30012,3.2025,-10.0275,-5.4775
853,9599679,1.057374,0.132858,-0.288408,2.135,-11.1475,-7.91
854,9599777,1.1653440000000002,0.11760799999999999,-0.27876999999999996,3.7275,-11.83,-9.8875
855,9599875,1.2153639999999999,0.144326,-0.26961999999999997,6.755,-12.075,-7.7525
856,9599973,1.251354,0.163602,-0.274744,10.0975,-9.66,-6.335
857,9600071,1.26148,0.16897,-0.36356,13.8775,-6.475,-7.77
858,9600168,1.247816,0.156526,-0.45432799999999995,16.03,-6.09,-10.5
859,9600266,1.24928,0.065026,-0.555466,11.7075,-6.1425,-17.2725
860,9600364,1.251354,-0.05856,-0.484096,6.265,0.2275,-23.065
861,9600462,1.2042620000000002,-0.133956,-0.373076,0.805,12.2675,-21.6475
862,9600560,1.137894,-0.07222401,-0.37698000000000004,-7.0875,16.3975,-17.045
863,9600658,1.1178860000000002,-0.025986000000000002,-0.411384,-11.5675,13.58,-15.785
864,9600756,1.0882399999999999,0.054778,-0.38186,-10.1325,10.29,-12.6525
865,9600854,1.040294,0.133224,-0.356118,-10.5,10.2025,-10.92
866,9600952,1.009428,0.13639600000000002,-0.347456,-7.5075,11.1125,-11.48
867,9601050,0.9978379999999999,0.08113001,-0.36441399999999996,-2.59,9.765,-10.2025
868,9601148,0.940742,0.090768,-0.457988,-2.3275,7.49,-6.3525
869,9601245,0.8910879999999999,0.060634,-0.543144,-2.3975,5.6525,-6.5275
870,9601343,0.8346021,0.051118000000000004,-0.669902,-3.22,5.1275,-9.0475
871,9601441,0.833626,0.0183,-0.694912,-5.88,1.96,-11.27
872,9601539,0.870958,-0.047824,-0.6886899999999999,-4.13,0.8925,-9.6425
873,9601637,0.8791321,-0.08405800000000001,-0.68686,-1.61,-1.82,-0.6825
874,9601735,0.903532,-0.089792,-0.6918621,-0.595,-3.6575,5.8625
875,9601833,0.9343981,-0.03477,-0.710284,-0.9975,-5.705,6.265
876,9601931,0.9261021,-0.009394,-0.719312,-0.4025,-6.9475,5.2325
877,9602029,0.89243,0.006222,-0.682956,3.3075,-6.23,4.4975
878,9602127,0.8703481,0.00671,-0.668926,4.6025,-5.0575,4.375
879,9602225,0.880474,-0.004514,-0.662582,5.565,-5.5825,4.97
880,9602323,0.8708360999999999,-0.026718000000000002,-0.623908,5.67,-6.335,5.705
881,9602420,0.8432639999999999,-0.010126000000000001,-0.625372,3.8325,-6.09,5.5475
882,9602518,0.8332601000000001,-0.014762,-0.5892601,3.465,-7.385,5.81
883,9602616,0.83265,-0.020618,-0.56852,2.7825,-8.2425,7.07
884,9602714,0.8432639999999999,-0.00976,-0.550342,0.1575,-9.6775,7.7175
885,9602812,0.8605879999999999,0.002318,-0.527894,-0.7,-10.64,10.675
886,9602910,0.835456,-0.014518000000000001,-0.500444,0.1225,-10.1675,15.3475
887,9603008,0.803492,-0.059048,-0.476166,-0.7875,-10.43,19.215
888,9603106,0.775676,-0.069906,-0.433832,-0.595,-11.6025,23.2225
889,9603204,0.7567659999999999,-0.07698201,-0.42724399999999996,-1.295,-12.7575,24.85
890,9603302,0.746274,-0.069906,-0.409554,-1.4525,-13.4575,24.01
891,9603400,0.7452979999999999,-0.055144000000000006,-0.416996,-0.14,-14.21,22.085
892,9603498,0.723338,0.0032939999999999996,-0.408456,1.7325,-16.24,21.245
893,9603596,0.72956,0.033672,-0.40138,3.99,-18.165,19.1975
894,9603694,0.715896,0.009150001,-0.378322,7.595,-17.815,18.0775
895,9603791,0.725534,-0.010736,-0.359656,10.2725,-15.8725,17.92
896,9603889,0.6675840000000001,0.02562,-0.34281999999999996,11.48,-13.8775,17.8325
897,9603987,0.619638,0.010126000000000001,-0.317078,11.3575,-13.4575,13.3175
898,9604085,0.6362300000000001,-0.05843801,-0.30853800000000003,12.39,-12.845,8.89
899,9604183,0.655506,-0.078202,-0.329644,12.565,-13.37,8.295
900,9604281,0.656726,-0.05563200000000001,-0.28621199999999997,12.6875,-15.9075,7.6125
901,9604379,0.6545300000000001,-0.07503,-0.306342,12.3375,-15.19,3.745
902,9604477,0.721386,-0.091988,-0.30341399999999996,12.005,-16.7825,0.0175
903,9604575,0.718824,-0.069174,-0.29377600000000004,11.515,-17.36,-0.98
904,9604673,0.7374901,-0.055510000000000004,-0.29682600000000003,10.7625,-15.47,-3.6575
905,9604771,0.743712,-0.050142,-0.29097,9.695,-13.79,-6.265
906,9604869,0.7470060000000001,-0.039162,-0.28621199999999997,7.665,-11.0425,-7.7175
907,9604967,0.753838,-0.049288,-0.27084,5.5825,-7.6475,-8.7325
908,9605064,0.765306,-0.05977999999999999,-0.270474,2.4675,-3.36,-9.66
909,9605162,0.775188,-0.09516001,-0.259738,-0.4375,1.645,-11.0425
910,9605260,0.739808,-0.07588400000000001,-0.23582600000000004,-4.3575,7.595,-10.8325
911,9605358,0.7296819999999999,-0.09638,-0.231068,-9.6075,14.0525,-11.83
912,9605456,0.703696,-0.116022,-0.21801399999999999,-14.0175,20.9825,-11.0775
913,9605554,0.7034521,-0.14469200000000002,-0.217648,-19.775,28.42,-10.57
914,9605652,0.740052,-0.169702,-0.22509,-24.115,31.7275,-10.64
915,9605750,0.77653,-0.18239,-0.279136,-25.7425,28.1575,-10.08
916,9605848,0.8427761,-0.188368,-0.319396,-22.75,23.52,-7.2625
917,9605946,0.913536,-0.143594,-0.36295,-17.5525,19.285,-2.5725
918,9606044,1.000034,-0.081618,-0.405406,-11.41,14.805,0.56
919,9606142,1.11142,-0.03721,-0.431758,-5.3025,12.6175,2.2925
920,9606240,1.1977959999999999,0.01037,-0.423096,1.155,11.2525,4.445
921,9606338,1.1984059999999999,0.08527801,-0.377956,7.2275,9.5375,9.9225
922,9606435,1.199992,0.142984,-0.310002,9.5025,6.5975,12.845
923,9606533,1.26331,0.040016,-0.230336,7.28,2.5025,8.8375
924,9606631,1.269654,-0.028792,-0.205936,3.465,-2.1525,7.1575
925,9606729,1.273192,-0.15982000000000002,-0.26608200000000004,-2.275,-7.0,4.1475
926,9606827,1.279658,-0.24644000000000002,-0.388814,-6.1425,-6.58,3.7275
927,9606925,1.295152,-0.21862399999999999,-0.5777920999999999,-3.8325,0.3675,8.9425
928,9607023,1.3352899999999999,-0.100162,-0.6178081,6.475,8.9425,16.135
929,9607121,1.279292,0.008906,-0.470188,15.68,28.315,24.43
930,9607219,1.136674,0.100772,-0.350018,12.215,39.585,28.7525
931,9607317,0.942694,0.019642,-0.46543,7.9975,19.285,25.7075
932,9607415,0.8670540999999999,-0.050386,-0.700036,10.4475,-0.945,25.6725
933,9607513,0.8674200000000001,0.026595999999999998,-0.7793359999999999,12.635,-0.1925,23.275
934,9607611,0.8703481,0.10089400000000001,-0.8338700000000001,14.0525,-3.5525,20.2125
935,9607709,0.897432,0.0854,-0.825574,20.2825,-10.1675,16.695
936,9607806,0.953674,0.07137001,-0.62098,20.0025,-10.6225,12.3375
937,9607904,0.9678261,-0.049898000000000005,-0.5489999999999999,10.045,-9.345,2.625
938,9608002,0.8808401,-0.138104,-0.552172,0.3675,-17.2375,-2.52
939,9608100,0.8398479999999999,-0.18104800000000001,-0.5665680000000001,-12.04,-18.9,-0.385
940,9608198,0.8616860000000001,-0.19947,-0.6034121,-18.6725,-20.8775,2.2225
941,9608296,0.8726661,-0.188612,-0.6883239999999999,-19.6875,-21.525,6.0375
942,9608394,0.9535521,-0.157136,-0.7195560000000001,-16.31,-23.1875,10.465
943,9608492,1.0493219999999999,-0.108214,-0.6769781,-13.16,-24.36,12.8975
944,9608590,1.061156,-0.08527801,-0.6344,-11.4625,-21.42,12.5125
945,9608688,1.0321200000000001,-0.100772,-0.630862,-12.7225,-16.5375,6.755
946,9608786,0.9465981,-0.069052,-0.614636,-11.445,-11.62,0.49
947,9608883,0.8726661,-0.025254,-0.59658,-12.53,-9.3975,-7.035
948,9608981,0.8471681000000001,-0.055754,-0.5724239999999999,-13.2125,-8.295,-17.3775
949,9609079,0.779824,-0.0035380000000000003,-0.54595,-14.4725,-8.33,-22.1375
950,9609177,0.778482,-0.039162,-0.511058,-17.5175,-8.5575,-29.2075
951,9609275,0.729804,-0.01586,-0.49849209999999994,-19.5125,-7.4375,-31.535
952,9609373,0.68137,-0.040504000000000005,-0.47506800000000005,-19.775,-6.23,-32.0775
953,9609471,0.618174,0.023912,-0.44822799999999996,-19.67,-5.3725,-31.2725
954,9609569,0.620736,-0.007686,-0.404918,-21.4375,-6.65,-32.795
955,9609667,0.575596,-0.015738,-0.414434,-19.2675,-4.13,-29.4
956,9609765,0.5702281,-0.024644,-0.366,-18.76,-7.07,-26.67
957,9609863,0.5777920999999999,-0.013786000000000001,-0.34111199999999997,-16.7825,-8.925,-24.535
958,9609961,0.6006060000000001,-0.033184,-0.35233600000000004,-16.975,-8.9425,-23.0825
959,9610059,0.6145141,-0.065026,-0.31097800000000003,-16.9575,-10.7275,-22.1375
960,9610157,0.6098779999999999,-0.023790000000000002,-0.312442,-16.275,-9.835,-20.7025
961,9610254,0.627202,-0.027694,-0.31232,-18.62,-11.6025,-21.3325
962,9610352,0.63379,-0.008662000999999999,-0.296704,-16.8525,-11.585,-20.055
963,9610450,0.6124400999999999,0.004758,-0.292312,-15.7675,-10.6575,-18.1475
964,9610548,0.612074,0.020130000000000002,-0.29219,-15.6275,-11.6025,-16.66
965,9610646,0.650748,0.05453401,-0.298046,-14.595,-13.16,-14.98
966,9610744,0.696986,0.07600599999999999,-0.283406,-10.7975,-12.705,-13.3875
967,9610842,0.737978,0.11846199999999998,-0.291458,-7.14,-11.76,-10.22
968,9610940,0.784582,0.114558,-0.288408,-4.9175,-12.5825,-8.4875
969,9611038,0.8100801,0.09845401,-0.28121,-1.645,-11.585,-6.9125
970,9611136,0.827526,0.09150001,-0.27389,1.575,-8.715,-4.3575
971,9611234,0.8425321,0.08662001,-0.25498000000000004,6.0375,-3.5,-0.6825
972,9611332,0.8300879999999999,0.085156,-0.217038,10.7625,4.06,3.2375
973,9611429,0.8142281,0.08808401,-0.166164,15.4175,12.95,6.0025
974,9611527,0.7754321,0.07527400000000001,-0.138348,18.8825,21.8575,8.19
975,9611625,0.739686,0.07381001,-0.167262,20.4575,30.1525,8.8375
976,9611723,0.723582,0.05172801,-0.17140999999999998,21.4375,36.7325,6.335
977,9611821,0.794098,0.00305,-0.21838000000000002,23.1,38.7275,3.57
978,9611919,0.8624181000000001,-0.054778,-0.313662,20.86,32.48,1.47
979,9612017,0.8908440999999999,-0.08662001,-0.439688,14.455,22.54,-1.68
980,9612115,0.957334,-0.10089400000000001,-0.421754,5.4775,11.9,-5.4075
981,9612213,1.09617,-0.149206,-0.30792800000000004,-1.435,4.655,-5.0925
982,9612311,1.253672,-0.17263,-0.160552,-6.09,1.4525,-2.4675
983,9612409,1.37006,-0.132126,-0.08308201,-9.415,2.73,-4.97
984,9612507,1.4004379999999998,-0.05002,-0.059048,-7.945,4.9525,-6.44
985,9612604,1.3407799999999999,0.07832401,-0.100284,0.175,9.73,-7.945
986,9612702,1.25416,0.20752199999999998,-0.39918400000000004,2.0825,12.5825,-16.59
987,9612800,1.247694,0.228872,-0.580476,0.5775,12.2675,-29.8725
988,9612898,1.2944200000000001,0.206546,-0.531798,0.35,20.0025,-47.9325
989,9612996,1.224636,0.08417999999999999,-0.376126,0.875,35.525,-59.5875
990,9613094,1.020286,-0.12053599999999999,-0.473238,-3.255,35.1925,-55.1425
991,9613192,0.9882001,-0.125782,-0.5738880000000001,-7.6825,23.205,-50.2775
992,9613290,0.9552601000000001,-0.193004,-0.7032079999999999,-5.39,19.18,-49.6475
993,9613388,0.886818,-0.111752,-0.7239479999999999,-4.655,14.2275,-43.645
994,9613486,0.9152440000000001,-0.00793,-0.834358,-7.8925,8.2075,-41.195
995,9613584,1.107638,-0.09698999999999999,-0.7027201,-5.39,4.0775,-43.7675
996,9613682,1.155218,-0.029158,-0.7034521,-2.38,0.0,-36.82
997,9613780,1.08031,0.058926,-0.711992,-1.68,-4.6375,-30.905
998,9613877,1.050176,0.11407,-0.756278,2.8,-2.9925,-30.0125
999,9613975,1.102392,0.090768,-0.8026380999999999,3.2725,-3.92,-27.37
1000,9614073,1.141676,-0.00671,-0.753472,4.0075,-1.33,-22.3825
1001,9614171,1.152778,-0.06344,-0.71919,0.8925,0.1225,-15.47
1002,9614269,1.126182,-0.07978801,-0.695156,-2.345,0.385,-9.87
1003,9614367,1.073844,-0.053924,-0.665876,-3.71,-0.0525,-3.745
1004,9614465,1.026508,-0.075762,-0.609146,-4.585,-1.9425,3.43
1005,9614563,0.9972281,-0.086132,-0.594018,-6.545,-2.6425,9.485
1006,9614661,0.9608721,-0.044774,-0.561932,-6.545,-5.04,14.9275
1007,9614759,0.9110959999999999,-0.027938,-0.5100819999999999,-5.4425,-7.945,19.005
1008,9614857,0.8430200999999999,-0.030622000000000003,-0.47336000000000006,-5.0925,-9.1175,21.735
1009,9614955,0.769332,-0.05063,-0.44090799999999997,-4.6375,-10.08,24.08
1010,9615053,0.7060141,-0.055754,-0.399794,-4.515,-12.565,26.2675
1011,9615151,0.656848,-0.04514,-0.387228,-4.8475,-14.5075,27.16
1012,9615248,0.64599,-0.07222401,-0.371612,-5.2325,-17.85,25.2
1013,9615346,0.633424,-0.06039,-0.36441399999999996,-4.2525,-19.95,23.835
1014,9615444,0.625494,-0.027206,-0.375394,-3.955,-23.31,22.75
1015,9615542,0.6414761,-0.021106,-0.360266,-2.0825,-27.265,21.6475
1016,9615640,0.637694,-0.0064659999999999995,-0.344894,0.14,-28.5075,21.6475
1017,9615738,0.6480640000000001,0.007320001,-0.325252,1.995,-27.72,20.1425
1018,9615836,0.63562,-0.024522,-0.313906,2.2925,-28.595,19.04
1019,9615934,0.6229319999999999,-0.019275999999999998,-0.287066,2.4675,-29.7325,17.675
1020,9616032,0.6117081,-0.041358,-0.28938400000000003,2.45,-26.67,14.4375
1021,9616130,0.619272,-0.030256,-0.260714,4.9525,-24.7275,11.62
1022,9616228,0.597434,-0.011956,-0.24192600000000003,4.76,-24.3425,9.625
1023,9616326,0.615124,-0.004148001,-0.22277199999999997,7.945,-21.6125,4.9525
1024,9616424,0.644892,0.012931999999999999,-0.215696,8.3475,-20.8425,0.9625
1025,9616522,0.679906,0.03599,-0.192272,9.73,-19.6175,-1.5225
1026,9616619,0.700158,0.028548,-0.200934,8.96,-18.9,-3.605
1027,9616717,0.71248,0.0032939999999999996,-0.21825799999999998,9.1525,-16.0825,-5.2675
1028,9616815,0.7138220000000001,-0.04087,-0.232044,7.77,-11.2525,-5.8625
1029,9616913,0.729316,-0.102114,-0.22167399999999998,4.655,-3.115,-6.79
1030,9617011,0.7421260000000001,-0.15237799999999999,-0.19947,0.2975,8.225,-6.7375
1031,9617109,0.729438,-0.190442,-0.17507,-6.65,18.41,-6.65
1032,9617207,0.7539600000000001,-0.25315,-0.193248,-15.2075,22.8375,-6.8775
1033,9617305,0.755912,-0.29463,-0.225212,-24.955,23.2225,-4.6725
1034,9617403,0.76555,-0.304268,-0.247538,-33.3025,24.885,-3.535
1035,9617501,0.788974,-0.271938,-0.27205999999999997,-35.98,23.9575,-2.17
1036,9617599,0.8685181000000001,-0.21386599999999997,-0.30341399999999996,-34.0025,18.235,-1.6975
1037,9617697,0.9713639999999999,-0.122,-0.315126,-26.915,13.86,1.2425
1038,9617795,1.048468,-0.004636001,-0.323178,-17.9025,12.075,5.775
1039,9617892,1.181326,0.102846,-0.318054,-9.135,10.045,6.755
1040,9617990,1.306498,0.171898,-0.26657,-0.3325,5.845,6.86
1041,9618088,1.36396,0.19947,-0.202398,6.335,3.22,7.2975
1042,9618186,1.355176,0.19459,-0.160674,10.57,0.315,7.6825
1043,9618284,1.3351680000000001,0.08430201,-0.10248,14.28,1.12,5.53
1044,9618382,1.336998,-0.09381801,-0.11870599999999999,13.7725,3.9375,1.68
1045,9618480,1.344074,-0.17738800000000002,-0.30073,12.6525,-0.595,0.2275
1046,9618578,1.379332,-0.12566,-0.50325,15.855,-4.445,2.9575
1047,9618676,1.395192,0.01708,-0.532652,26.3375,-1.3125,11.8825
1048,9618774,1.2017,0.219966,-0.374418,32.76,21.0525,20.8425
1049,9618872,1.003694,0.136274,-0.361608,30.8175,24.9375,20.545
1050,9618970,0.792146,-0.000732,-0.569862,33.4425,4.2875,22.3825
1051,9619068,0.7854361,0.041968,-0.69357,31.955,-1.2775,18.7425
1052,9619166,0.7895840999999999,0.039772,-0.674172,32.2875,1.61,16.3975
1053,9619264,0.8310639999999999,-0.044774,-0.7418819999999999,30.7475,-2.1,15.82
1054,9619361,0.8758381,-0.12065799999999999,-0.7257781,29.7675,-9.6075,15.8025
1055,9619459,0.9725841000000001,-0.138836,-0.624152,22.82,-11.2175,16.6075
1056,9619557,1.035048,-0.20691199999999998,-0.636718,13.2125,-17.465,18.8125
1057,9619656,1.0255319999999999,-0.252906,-0.6724640000000001,3.1325,-23.555,25.165
1058,9619753,1.00528,-0.263154,-0.712358,-4.5325,-22.4175,29.925
1059,9619851,1.031266,-0.250954,-0.743346,-7.035,-21.735,30.205
1060,9619949,1.1059299999999999,-0.195932,-0.7356600000000001,-7.9625,-21.5425,28.9275
1061,9620047,1.131794,-0.07808001,-0.709796,-6.58,-22.365,26.1975
1062,9620145,1.1916959999999999,-0.117974,-0.668072,-7.3675,-21.175,17.15
1063,9620243,1.097512,-0.054778,-0.602314,-4.4275,-15.6275,11.06
1064,9620341,1.015284,-0.016592,-0.567788,-6.6675,-12.355,-3.185
1065,9620439,0.9444020000000001,0.01952,-0.5131319999999999,-7.0525,-10.64,-16.4325
1066,9620537,0.871934,0.045018,-0.47811800000000004,-8.19,-10.3425,-25.3225
1067,9620635,0.84241,0.034648000000000005,-0.452132,-9.5375,-10.045,-34.02
1068,9620733,0.8006861,-0.009272001,-0.435784,-10.4825,-8.855,-41.3875
1069,9620831,0.727486,0.028548,-0.410896,-9.275,-8.715,-44.485
1070,9620929,0.6481859999999999,0.031232,-0.397354,-7.1575,-9.9575,-46.62
1071,9621027,0.6110981,0.026108,-0.36539,-5.6,-13.8425,-47.5475
1072,9621125,0.5903579999999999,0.023668,-0.34099,-3.115,-16.6775,-46.3225
1073,9621222,0.5614439999999999,0.04392,-0.32208000000000003,-0.6125,-16.8525,-45.64
1074,9621320,0.5743761,0.008296000999999999,-0.334158,2.0125,-16.1,-47.3025
1075,9621418,0.563396,0.017446,-0.285846,5.845,-18.4975,-43.61
1076,9621516,0.57218,0.030012,-0.283894,5.0575,-21.0,-41.195
1077,9621614,0.6219561,-0.007198,-0.284748,6.02,-21.945,-39.62
1078,9621712,0.673562,-0.045262000000000004,-0.26779000000000003,6.1775,-22.8375,-35.1575
1079,9621810,0.693692,-0.061488,-0.256322,5.5125,-22.4875,-31.2725
1080,9621908,0.7229720000000001,-0.104066,-0.24522,4.095,-20.09,-28.14
1081,9622006,0.705038,-0.112728,-0.232044,2.8525,-17.3425,-19.845
1082,9622104,0.693326,-0.079056,-0.221308,-0.595,-16.625,-13.0375
1083,9622202,0.7046720999999999,-0.087962,-0.21886799999999998,-4.8125,-15.3825,-10.0975
1084,9622300,0.6767340000000001,-0.064538,-0.2135,-7.1575,-13.5975,-5.705
1085,9622398,0.7019880000000001,-0.036722000000000005,-0.209352,-8.75,-11.9525,-2.975
1086,9622496,0.768112,-0.05355801,-0.21301199999999998,-9.31,-9.135,-1.4525
1087,9622594,0.797392,-0.028548,-0.202276,-9.1875,-4.55,2.6075
1088,9622692,0.7984899999999999,0.000366,-0.190198,-8.9075,0.9975,5.95
1089,9622790,0.7856801,0.027572000000000003,-0.17360599999999998,-8.6625,7.1925,8.3475
1090,9622888,0.7771399999999999,0.046116000000000004,-0.162138,-7.735,14.5075,9.695
1091,9622986,0.77653,0.07039400000000001,-0.156282,-4.97,22.3475,10.4475
1092,9623083,0.776774,0.10614000000000001,-0.172752,-0.525,26.9325,9.1175
1093,9623181,0.811178,0.13298,-0.20447200000000001,4.5675,26.2675,5.18
1094,9623279,0.9118280000000001,0.148596,-0.244854,10.6575,21.2625,0.3675
1095,9623377,0.9708760000000001,0.111996,-0.33171799999999996,13.475,13.2825,-3.465
1096,9623475,1.025654,0.069052,-0.43249,11.725,6.1075,-6.58
1097,9623573,1.058838,0.034892,-0.471164,3.885,0.5425,-10.1675
1098,9623671,1.1320379999999999,-0.03172,-0.398818,-3.1325,-3.535,-12.0925
1099,9623769,1.235128,-0.12163399999999999,-0.263886,-6.615,-6.5275,-7.875
1100,9623867,1.374696,-0.219234,-0.139324,-9.275,-6.02,-4.3925
1101,9623965,1.490718,-0.22777399999999998,-0.07698201,-9.1175,-1.015,-5.18
1102,9624063,1.495232,-0.140422,0.011101999999999999,-4.6025,1.855,-6.9475
1103,9624161,1.396046,0.032208,-0.081374,-4.025,2.0125,-11.27
1104,9624259,1.3108899999999999,0.174216,-0.368684,-3.465,3.0275,-20.965
1105,9624357,1.280268,0.15921,-0.52094,-6.7025,1.4875,-32.6375
1106,9624455,1.25599,0.09089001,-0.446032,-4.935,11.165,-47.705
1107,9624553,1.1659540000000002,-0.07332201,-0.35392199999999996,-4.2875,26.145,-54.4775
1108,9624651,1.011258,-0.159942,-0.395158,-10.535,23.3275,-45.605
1109,9624749,0.962458,-0.127368,-0.505202,-17.325,11.655,-42.21
1110,9624847,0.8810841,-0.082472,-0.50508,-13.195,13.0375,-39.305
1111,9624945,0.791658,-0.005734,-0.645258,-16.555,9.8525,-35.2975
1112,9625043,0.78995,0.014884,-0.731024,-16.03,3.3075,-31.7975
1113,9625141,0.8337481,0.000976,-0.80886,-17.185,-2.52,-30.1175
1114,9625239,0.930006,-0.039528,-0.7046720999999999,-15.2775,-5.88,-32.34
1115,9625336,1.004792,-0.020252000000000003,-0.631228,-11.9175,-9.0475,-29.47
1116,9625434,1.000156,0.05209400000000001,-0.6883239999999999,-11.515,-15.995,-24.57
1117,9625532,1.021628,0.089426,-0.7184581,-6.2475,-17.85,-24.7975
1118,9625630,1.09251,0.10687200000000001,-0.756034,-3.745,-19.2325,-25.0775
1119,9625728,1.168028,0.08527801,-0.7315119999999999,-0.595,-16.345,-23.1875
1120,9625826,1.17303,0.07722601,-0.694546,1.2775,-12.6,-19.6
1121,9625924,1.0859219999999998,0.048312,-0.662948,1.8375,-10.0975,-14.5775
1122,9626022,1.007354,0.007320001,-0.625128,3.0975,-8.225,-6.58
1123,9626120,0.9801479999999999,-0.02074,-0.5702281,2.2225,-9.0475,-0.0175
1124,9626218,0.9429379999999999,-0.038918,-0.5091061,0.9625,-10.29,5.915
1125,9626316,0.8840120000000001,-0.071858,-0.453718,-0.1925,-11.41,11.6025
1126,9626414,0.8117880000000001,-0.09125599999999999,-0.406016,0.49,-11.165,18.69
1127,9626512,0.754204,-0.1159,-0.365512,-0.4025,-13.2125,25.4975
1128,9626610,0.69845,-0.10638399999999999,-0.342088,-3.2025,-17.78,30.2575
1129,9626708,0.6707561,-0.080398,-0.337818,-6.09,-23.0825,31.1325
1130,9626806,0.660752,-0.03599,-0.343674,-6.09,-26.6525,30.2225
1131,9626904,0.660996,0.000244,-0.360388,-5.705,-29.33,28.3325
1132,9627002,0.6663640000000001,0.019154,-0.338916,-2.555,-32.27,27.51
1133,9627100,0.667706,-0.005856,-0.319762,0.3325,-34.3525,27.65
1134,9627198,0.6771,0.005246,-0.31158800000000003,1.2775,-34.2825,29.6975
1135,9627295,0.6456241,0.00793,-0.28987199999999996,2.5375,-32.655,31.2375
1136,9627393,0.623664,-0.013175999999999998,-0.269254,3.36,-32.8825,28.2975
1137,9627491,0.6168319999999999,-0.040504000000000005,-0.264374,5.5125,-32.2525,24.605
1138,9627589,0.634278,-0.052582000000000004,-0.239364,7.63,-28.7,19.04
1139,9627687,0.613416,-0.005246,-0.22106399999999998,8.0325,-26.3375,13.2475
1140,9627785,0.6150021,-0.013908000000000002,-0.209108,8.4525,-24.08,7.56
1141,9627883,0.636596,-0.00183,-0.210694,10.22,-22.5225,2.45
1142,9627981,0.6558721,0.030012,-0.194468,11.585,-21.28,-1.33
1143,9628079,0.665022,0.033306,-0.191174,12.215,-18.5675,-5.0575
1144,9628177,0.67588,-0.00061,-0.184952,11.8125,-15.4875,-8.5575
1145,9628275,0.674416,-0.030378,-0.195322,10.3775,-9.66,-10.2375
1146,9628373,0.68198,-0.074298,-0.202764,8.365,-2.0475,-10.5875
1147,9628471,0.693326,-0.11846199999999998,-0.22496799999999997,4.3575,7.91,-11.48
1148,9628569,0.682712,-0.14884,-0.22557800000000003,-1.3825,20.72,-12.1975
1149,9628667,0.7183361,-0.177998,-0.229116,-7.6825,33.3725,-13.7725
1150,9628765,0.7788480999999999,-0.22277199999999997,-0.21679400000000001,-13.0375,40.3725,-15.0675
1151,9628863,0.8076399999999999,-0.25132,-0.23301999999999998,-19.67,39.935,-14.245
1152,9628960,0.838506,-0.260592,-0.278038,-23.7825,32.795,-12.565
1153,9629058,0.900848,-0.22057600000000002,-0.332206,-22.68,25.725,-10.7625
1154,9629156,0.9540401,-0.145546,-0.335622,-15.3475,23.66,-8.6975
1155,9629254,1.0529819999999999,-0.071004,-0.324276,-5.8275,22.5925,-6.23
1156,9629352,1.2135340000000001,0.03416,-0.327204,4.13,15.4525,-2.7825
1157,9629450,1.345538,0.156892,-0.255834,12.67,8.015,3.99
1158,9629548,1.418372,0.172996,-0.19825,18.6725,5.2325,11.6375
1159,9629646,1.402024,0.134688,-0.122732,18.8125,0.0875,14.805
1160,9629744,1.35176,0.04453,-0.07503,17.8325,-4.655,11.7075
1161,9629842,1.37921,-0.14566800000000002,-0.135542,13.1075,-5.2675,5.3025
1162,9629940,1.4040979999999998,-0.218746,-0.37698000000000004,9.275,-7.3325,2.6425
1163,9630038,1.4868139999999999,-0.13542,-0.558272,9.765,-8.085,7.0
1164,9630136,1.48901,0.0976,-0.49995600000000007,18.3575,6.1425,17.6575
1165,9630234,1.220488,0.225212,-0.350628,22.0675,29.54,23.8875
1166,9630332,0.945866,0.064782,-0.413336,22.505,25.2875,24.0975
1167,9630430,0.7686,-0.027083999999999997,-0.622566,24.0625,6.93,23.0475
1168,9630528,0.781898,0.008174001,-0.738466,25.6025,3.9025,19.1625
1169,9630625,0.781776,0.043066,-0.746762,28.7,3.71,16.275
1170,9630723,0.846924,-0.00305,-0.7890961,29.4875,1.3825,14.2625
1171,9630821,0.8721780000000001,-0.028669999999999998,-0.6803941,29.61,-2.73,15.0675
1172,9630919,0.9534301,-0.147254,-0.52704,21.5075,-1.89,14.1925
1173,9631017,0.990884,-0.24936799999999998,-0.6080479999999999,7.2275,-15.1725,15.5925
1174,9631115,0.9828321,-0.288164,-0.6586781,-3.9375,-22.225,21.4025
1175,9631213,1.009794,-0.28633400000000003,-0.72712,-14.6125,-21.0175,27.545
1176,9631311,1.0492,-0.26535,-0.764452,-16.1525,-23.4675,32.5325
1177,9631409,1.096658,-0.19983599999999999,-0.715408,-14.385,-23.7125,37.3275
1178,9631507,1.143994,-0.123708,-0.7016220000000001,-13.1775,-25.2175,35.98
1179,9631605,1.19438,-0.09516001,-0.647942,-11.34,-23.5725,26.7575
1180,9631703,1.15595,-0.025986000000000002,-0.5892601,-14.42,-19.7225,15.47
1181,9631801,1.051884,0.004148001,-0.534116,-14.7175,-16.4325,1.61
1182,9631898,0.9507460999999999,0.077592,-0.478728,-17.08,-14.2625,-11.4625
1183,9631996,0.9412299999999999,0.044286,-0.4331,-19.32,-12.3025,-26.4425
1184,9632094,0.8526581,-0.009394,-0.411872,-20.9125,-9.0125,-36.015
1185,9632192,0.7356600000000001,0.034648000000000005,-0.391498,-20.965,-7.5075,-41.965
1186,9632290,0.6517241,0.005246,-0.36209600000000003,-19.7575,-8.2425,-48.1775
1187,9632388,0.5757180000000001,0.009516001,-0.321592,-16.1,-12.145,-47.7575
1188,9632486,0.5410699999999999,0.018178,-0.318176,-13.9825,-17.2725,-44.87
1189,9632584,0.523502,0.03294,-0.293166,-11.4275,-19.775,-44.9225
1190,9632682,0.497882,0.07832401,-0.288408,-10.36,-20.965,-45.0975
1191,9632780,0.556076,0.048312,-0.268034,-9.1175,-23.205,-45.0975
1192,9632878,0.5602239999999999,0.09735601,-0.262544,-6.5275,-23.0825,-40.6175
1193,9632976,0.60817,0.029158,-0.288652,-8.26,-24.8675,-39.7775
1194,9633073,0.613538,0.033184,-0.256444,-3.115,-22.015,-37.415
1195,9633171,0.6579461,-0.043554,-0.23363,-1.1375,-18.865,-33.775
1196,9633269,0.66368,-0.09845401,-0.21862399999999999,-1.015,-17.185,-25.55
1197,9633367,0.6290319999999999,-0.089304,-0.195932,0.175,-14.105,-16.8525
1198,9633465,0.63379,-0.11028800000000001,-0.18178,-1.7675,-12.2325,-13.6675
1199,9633563,0.613294,-0.06771001,-0.167018,-2.625,-12.18,-8.0675
1200,9633661,0.6612401,-0.026962,-0.179828,-3.43,-12.8975,-3.43
1201,9633759,0.7067460999999999,0.004758,-0.160918,-2.6775,-13.4925,0.4025
1202,9633857,0.745542,0.013786000000000001,-0.174582,-2.6775,-12.1975,3.3775
1203,9633955,0.768478,0.027572000000000003,-0.184586,-1.05,-8.0675,5.845
1204,9634053,0.782508,0.038064,-0.18727,0.7525,-0.42,8.5925
1205,9634150,0.760182,0.05246,-0.17519200000000001,3.675,10.4825,11.13
1206,9634248,0.7391979999999999,0.055754,-0.174216,5.74,22.12,12.5825
1207,9634346,0.7086979999999999,0.063928,-0.167384,9.5025,32.1475,12.88
1208,9634444,0.755912,0.11626600000000001,-0.18043800000000002,12.67,34.09,9.73
1209,9634542,0.8194739999999999,0.15945399999999998,-0.206058,15.4,29.435,4.27
1210,9634640,0.8853540000000001,0.14213,-0.281454,18.1825,21.455,0.2975
1211,9634738,0.954406,0.068686,-0.364292,18.5675,13.37,-2.205
1212,9634836,0.9895421,-0.0034159999999999998,-0.42138809999999993,13.825,6.79,-4.62
1213,9634934,1.0972680000000001,-0.013541999999999998,-0.40565,4.9,-1.4525,-7.735
1214,9635032,1.293444,-0.05453401,-0.316224,-1.1725,-6.44,-7.7175
1215,9635130,1.481324,-0.15006,-0.18605,-4.8125,-6.405,-6.44
1216,9635228,1.613206,-0.22777399999999998,-0.062952,-4.795,-0.0875,-8.575
1217,9635326,1.601616,-0.25363800000000003,-0.006832001,-4.34,1.5575,-9.3275
1218,9635423,1.507188,-0.06661201,0.001586,-1.645,-0.5775,-8.9075
1219,9635521,1.402512,0.111752,-0.26913200000000004,-4.865,-1.82,-15.0325
1220,9635619,1.3266280000000001,0.119926,-0.6052420000000001,-13.3875,-8.12,-24.465
1221,9635717,1.323334,0.082228,-0.554002,-17.185,0.525,-40.5125
1222,9635815,1.218048,-0.059536,-0.324276,-15.5575,24.36,-53.9875
1223,9635913,0.981124,-0.174582,-0.43053800000000003,-20.4925,24.1675,-44.5375
1224,9636011,0.9700219999999999,-0.18470799999999998,-0.594384,-31.395,6.0375,-38.5875
1225,9636109,0.8575379999999999,-0.0549,-0.459086,-27.475,9.3625,-34.3
1226,9636207,0.734928,-0.018666,-0.547292,-26.4775,12.215,-31.57
1227,9636305,0.7759199999999999,-0.004026,-0.6191501,-24.0975,4.0775,-28.8225
1228,9636403,0.812886,0.076616,-0.729072,-23.17,1.82,-25.7425
1229,9636501,0.8937719999999999,0.12444000000000001,-0.6634359999999999,-20.895,0.175,-28.175
1230,9636599,0.9234180000000001,0.156648,-0.6497721,-13.93,-1.645,-28.56
1231,9636696,0.977342,0.105896,-0.6883239999999999,-8.505,-8.6625,-28.0
1232,9636794,1.067012,0.08893801,-0.684908,-0.665,-9.7125,-28.455
1233,9636892,1.148996,0.062098,-0.760914,-0.6475,-11.7775,-26.8625
1234,9636990,1.24928,0.02196,-0.7104060000000001,1.3825,-9.24,-23.4325
1235,9637088,1.261358,0.010492,-0.708576,0.2625,-6.405,-18.7075
1236,9637186,1.20658,0.013541999999999998,-0.691496,-0.9625,-3.6225,-14.2975
1237,9637284,1.109712,-0.010126000000000001,-0.636718,-0.4725,-2.8,-8.33
1238,9637382,1.071648,-0.03477,-0.588406,-1.33,-2.45,-3.36
1239,9637480,1.0249219999999999,-0.008906,-0.5296021,-0.7175,-2.3975,3.1325
1240,9637578,0.9440360999999999,-0.037698,-0.488,-1.645,-3.85,8.05
1241,9637676,0.870714,-0.059902,-0.425292,-0.91,-4.9525,12.985
1242,9637774,0.8072741,-0.095648,-0.398208,-2.6425,-6.93,17.22
1243,9637871,0.7865340000000001,-0.1098,-0.35929,-4.235,-9.1525,22.085
1244,9637969,0.749324,-0.09577000000000001,-0.34465,-6.9125,-11.6375,24.9725
1245,9638067,0.712724,-0.09845401,-0.345138,-9.8175,-14.91,25.13
1246,9638165,0.70089,-0.095282,-0.32561799999999996,-12.0225,-18.8125,24.15
1247,9638263,0.687958,-0.07039400000000001,-0.295362,-13.0025,-21.9975,25.165
1248,9638361,0.6695361,-0.05977999999999999,-0.32635,-12.7925,-22.645,26.32
1249,9638459,0.665266,-0.044896,-0.305732,-10.36,-24.115,27.2825
1250,9638557,0.641232,-0.049166,-0.29646,-9.9225,-26.845,26.775
1251,9638655,0.64355,-0.05209400000000001,-0.284992,-10.1675,-29.9075,26.145
1252,9638753,0.619394,-0.062098,-0.267912,-7.7525,-30.17,25.515
1253,9638851,0.591212,-0.058926,-0.25681,-6.2475,-26.775,21.7525
1254,9638949,0.5636399999999999,-0.058803999999999995,-0.253882,-5.88,-25.06,18.165
1255,9639046,0.565104,-0.05941401,-0.211548,-5.1975,-25.5675,13.965
1256,9639144,0.569984,-0.029889999999999996,-0.20264200000000002,-2.485,-21.4375,8.855
1257,9639242,0.5968241,0.0017079999999999999,-0.192028,-1.61,-18.48,1.855
1258,9639340,0.5980439999999999,0.07015,-0.17519200000000001,-0.4375,-16.4675,-4.095
1259,9639438,0.62037,0.09040201,-0.153232,0.07,-14.0875,-7.77
1260,9639536,0.6168319999999999,0.07869,-0.13639600000000002,2.66,-6.93,-9.87
1261,9639634,0.636962,0.034526,-0.124928,3.605,-0.2975,-12.215
1262,9639732,0.642818,0.007808001,-0.123708,2.975,7.035,-14.525
1263,9639830,0.693326,-0.076738,-0.15006,-0.0175,16.135,-16.0825
1264,9639928,0.694912,-0.105652,-0.143716,-3.22,25.935,-15.12
1265,9640026,0.7503,-0.199226,-0.183976,-7.315,30.0475,-13.755
1266,9640123,0.79422,-0.291458,-0.266692,-12.81,24.395,-10.4475
1267,9640221,0.8884040000000001,-0.313784,-0.32818,-15.8725,15.645,-6.3875
1268,9640319,0.916464,-0.24339,-0.354288,-13.4925,11.13,-2.03
1269,9640417,0.9753901,-0.170068,-0.367464,-11.655,8.155,-0.35
1270,9640515,1.053226,-0.09711201,-0.387716,-7.385,2.7825,1.6625
1271,9640613,1.157414,0.028548,-0.362218,0.5075,-2.8525,5.7225
1272,9640711,1.2524520000000001,0.132736,-0.27218200000000004,8.2075,-2.065,8.1375
1273,9640809,1.279048,0.189466,-0.153598,11.935,1.295,12.6175
1274,9640907,1.321138,0.116998,-0.07027201,9.8,-3.36,15.785
1275,9641005,1.28039,-0.006222,-0.06880801,7.6125,-8.365,16.415
1276,9641103,1.336754,-0.171166,-0.12078,3.6225,-7.07,11.725
1277,9641200,1.375184,-0.16409,-0.33428,3.1675,-4.935,9.87
1278,9641298,1.470588,-0.07076001,-0.517768,9.2225,-7.77,13.265
1279,9641396,1.484618,0.12041400000000001,-0.5132541,22.5575,3.4825,22.5575
1280,9641494,1.285392,0.21533000000000002,-0.331352,25.375,30.94,30.0125
1281,9641592,1.02236,0.10943399999999999,-0.38295799999999997,27.1075,25.9525,27.2475
1282,9641690,0.843508,0.042334,-0.64172,33.5475,-0.385,24.0625
1283,9641788,0.842166,0.091378,-0.67893,35.875,-0.21,19.04
1284,9641886,0.8543661,0.06270801,-0.638548,35.7,4.165,14.245
1285,9641984,0.8877940000000001,-0.061732,-0.661484,34.0725,-1.645,12.2325
1286,9642082,0.8916980999999999,-0.139568,-0.5777920999999999,29.295,-6.58,13.125
1287,9642180,0.9834421,-0.21093800000000001,-0.6170760000000001,15.9775,-12.11,12.9325
1288,9642278,1.043344,-0.197518,-0.693326,8.3475,-26.3025,16.17
1289,9642375,1.0858,-0.171044,-0.7126020000000001,1.365,-26.635,23.7125
1290,9642473,1.121668,-0.165798,-0.7584741,-0.9975,-27.2825,30.415
1291,9642571,1.1259379999999999,-0.12675799999999998,-0.7373681,-1.2075,-24.255,30.905
1292,9642669,1.145702,-0.09942999999999999,-0.7055260999999999,-2.17,-20.965,30.205
1293,9642767,1.122278,-0.062464,-0.696376,-1.26,-22.1025,27.3
1294,9642865,1.125206,-0.09552601,-0.6603859999999999,-0.63,-20.6675,17.815
1295,9642963,1.102392,-0.08296,-0.6178081,0.035,-18.0425,6.79
1296,9643061,1.015528,-0.003782,-0.561566,2.415,-16.17,-4.725
1297,9643159,0.9702661,0.008174001,-0.5104479999999999,1.4,-16.59,-19.565
1298,9643257,0.9591639999999999,-0.008296000999999999,-0.484096,0.315,-14.875,-34.4925
1299,9643355,0.8877940000000001,0.014152000000000001,-0.46603999999999995,0.42,-13.2825,-41.475
1300,9643453,0.8099581,0.019275999999999998,-0.43322200000000005,1.2425,-13.0725,-46.34
1301,9643550,0.72956,0.01769,-0.40565,2.5025,-13.895,-48.58
1302,9643648,0.639402,0.043554,-0.386374,2.2575,-16.695,-49.105
1303,9643746,0.6076819999999999,0.02562,-0.355752,2.87,-21.21,-48.86
1304,9643844,0.5873079999999999,0.034282,-0.326838,4.235,-23.275,-47.8975
1305,9643942,0.580842,0.011224,-0.335866,3.955,-24.115,-49.7
1306,9644040,0.57767,0.027572000000000003,-0.30561,7.385,-25.8475,-46.515
1307,9644138,0.58072,-0.010126000000000001,-0.2867,9.6425,-27.055,-41.475
1308,9644236,0.589626,-0.038064,-0.288042,8.4525,-29.0325,-39.4625
1309,9644334,0.5838920999999999,-0.046360000000000005,-0.271694,9.1525,-27.1425,-39.41
1310,9644432,0.606462,-0.08674201,-0.24522,8.8725,-23.765,-38.3425
1311,9644530,0.6097560000000001,-0.130662,-0.22252800000000003,7.2975,-22.61,-32.2525
1312,9644628,0.6007279999999999,-0.138714,-0.205936,4.655,-21.105,-25.7075
1313,9644725,0.61305,-0.14579,-0.195322,-0.77,-17.7975,-22.6275
1314,9644823,0.619516,-0.114558,-0.16835999999999998,-4.69,-13.8775,-16.31
1315,9644921,0.61854,-0.110044,-0.14945,-10.22,-11.795,-10.64
1316,9645019,0.633058,-0.071858,-0.151646,-13.72,-11.515,-5.1625
1317,9645117,0.6777101,-0.028792,-0.14823,-14.9975,-9.4325,-1.9075
1318,9645215,0.7196779999999999,-0.031232,-0.146644,-15.7325,-6.8425,0.5075
1319,9645313,0.7315119999999999,-0.020984,-0.171898,-15.855,-5.1625,3.8325
1320,9645411,0.7256560000000001,0.041846,-0.199714,-14.35,-1.6275,7.385
1321,9645509,0.719312,0.07442,-0.20861999999999997,-11.4275,3.9375,8.995
1322,9645607,0.715164,0.128588,-0.22728600000000002,-8.295,10.8325,11.13
1323,9645705,0.74847,0.17202,-0.241194,-3.99,17.57,10.4825
1324,9645802,0.7388319999999999,0.214964,-0.26718000000000003,2.205,22.365,8.4525
1325,9645900,0.8228901,0.22948200000000002,-0.303902,6.965,21.77,5.1625
1326,9645998,0.8988959999999999,0.170068,-0.317444,13.02,21.105,2.7825
1327,9646096,0.9459880999999999,0.105896,-0.446154,10.57,14.875,0.0875
1328,9646194,0.924394,0.018788,-0.470554,2.275,5.0925,-6.055
1329,9646292,1.02663,-0.09540401,-0.360998,-1.6275,-0.8400001,-10.43
1330,9646390,1.275388,-0.153354,-0.22582199999999997,-3.675,-4.935,-4.1825
1331,9646488,1.517802,-0.270962,-0.136274,-10.71,-6.93,1.1025
1332,9646586,1.679452,-0.285846,-0.021472,-8.4875,-0.8925,-2.8175
1333,9646684,1.702754,-0.160918,0.019764,-8.9425,2.4325,-8.19
1334,9646782,1.5281719999999999,-0.051362,-0.017934000000000002,-8.085,3.99,-13.965
1335,9646880,1.39263,0.163236,-0.297192,-8.6275,1.8025,-15.1375
1336,9646977,1.310036,0.18470799999999998,-0.586454,-14.315,-3.6925,-23.3625
1337,9647075,1.29015,0.11577799999999999,-0.5124001,-11.095,6.86,-38.36
1338,9647173,1.16876,0.009150001,-0.319396,-9.45,25.4975,-51.975
1339,9647271,0.9702661,-0.08369201,-0.40223400000000004,-16.38,22.12,-44.5725
1340,9647369,0.9128040000000001,-0.10736,-0.553148,-25.27,6.79,-38.4125
1341,9647467,0.7890961,0.02257,-0.5463161,-23.065,9.1875,-37.24
1342,9647565,0.707966,-0.039894,-0.6439159999999999,-25.0775,9.275,-37.94
1343,9647663,0.79361,-0.08576601,-0.727364,-25.9525,1.96,-34.405
1344,9647761,0.8430200999999999,-0.041846,-0.7870221,-28.5425,-2.905,-29.33
1345,9647859,0.9301280000000001,-0.0032939999999999996,-0.6885680999999999,-27.6325,-1.89,-30.415
1346,9647957,1.005768,0.036478,-0.716384,-23.3975,-6.685,-28.6825
1347,9648055,1.080188,0.04392,-0.7183361,-17.29,-12.565,-25.9
1348,9648153,1.165466,0.06039,-0.737246,-8.8375,-11.76,-24.325
1349,9648250,1.241716,0.07332201,-0.786412,-8.75,-13.5275,-19.775
1350,9648348,1.274168,0.042944,-0.7266321,-4.76,-9.3625,-13.8075
1351,9648446,1.2159739999999999,0.041846,-0.6855180000000001,-5.53,-6.8075,-9.7475
1352,9648544,1.128378,0.017934000000000002,-0.643672,-3.85,-5.355,-3.92
1353,9648642,1.056398,-0.012688,-0.6131721,-5.0925,-5.5475,2.4325
1354,9648740,0.9949100000000001,-0.027206,-0.56791,-7.6825,-6.9475,6.755
1355,9648838,0.933666,-0.034892,-0.5131319999999999,-8.0325,-7.9975,11.48
1356,9648936,0.8625401,-0.05648601,-0.45323,-8.0325,-8.995,17.01
1357,9649034,0.8023939999999999,-0.08918200000000001,-0.414922,-9.7475,-10.885,22.3475
1358,9649132,0.764696,-0.101504,-0.3721,-10.0975,-13.5625,28.525
1359,9649230,0.734684,-0.109556,-0.34831,-11.9525,-15.6275,32.8825
1360,9649327,0.681126,-0.118584,-0.328424,-14.5425,-17.9025,34.2825
1361,9649425,0.651846,-0.11126400000000002,-0.325496,-17.36,-21.385,33.2325
1362,9649523,0.649284,-0.060146000000000005,-0.324642,-18.69,-25.445,32.2
1363,9649621,0.66978,-0.025986000000000002,-0.311222,-18.5675,-28.9625,31.92
1364,9649719,0.662948,-0.016714,-0.316834,-16.765,-29.75,31.78
1365,9649817,0.660996,-0.022448,-0.30853800000000003,-13.1775,-29.505,31.7625
1366,9649915,0.6250060000000001,-0.024156,-0.301462,-8.995,-29.05,29.505
1367,9650013,0.615368,-0.00244,-0.27266999999999997,-6.0375,-30.065,24.8675
1368,9650111,0.601338,0.038186000000000005,-0.261446,-2.905,-27.615,23.8525
1369,9650209,0.57462,0.00061,-0.266326,-1.4,-26.4075,21.0
1370,9650307,0.5644939999999999,-0.011956,-0.22948200000000002,1.2775,-27.3,15.645
1371,9650405,0.5903579999999999,-0.0035380000000000003,-0.23363,1.1375,-25.515,10.1675
1372,9650502,0.6161,0.025131999999999998,-0.227042,2.415,-23.73,4.2175
1373,9650600,0.6525781,0.034282,-0.213256,2.3625,-23.38,-1.5225
1374,9650698,0.6734399999999999,0.049532,-0.199348,3.71,-21.42,-5.355
1375,9650796,0.681614,0.036844,-0.195322,3.57,-16.3975,-7.7
1376,9650894,0.6832,0.014518000000000001,-0.187392,4.34,-7.8925,-10.0975
1377,9650992,0.688812,-0.024888,-0.17397200000000002,5.0925,2.415,-11.55
1378,9651090,0.628178,-0.049898000000000005,-0.170678,3.395,16.1525,-11.8475
1379,9651188,0.6292760000000001,-0.09991799999999999,-0.156526,0.6825,32.48,-15.5225
1380,9651286,0.6777101,-0.135664,-0.128588,-1.12,43.0675,-16.4325
1381,9651384,0.722362,-0.20264200000000002,-0.155672,-5.985,41.23,-15.8375
1382,9651482,0.794952,-0.261812,-0.23301999999999998,-12.53,30.8,-13.2825
1383,9651579,0.8773021000000001,-0.279868,-0.31585799999999997,-19.8625,17.8325,-9.7125
1384,9651677,0.9646541,-0.257786,-0.354166,-21.6475,8.75,-10.6575
1385,9651775,0.989908,-0.18605,-0.355142,-19.355,4.13,-8.3125
1386,9651873,1.1003180000000001,-0.135908,-0.3843,-16.03,-0.1225,-4.9875
1387,9651971,1.21451,0.00549,-0.35624,-5.985,-2.8175,2.03
1388,9652069,1.295152,0.07332201,-0.26108000000000003,6.86,0.7,10.4475
1389,9652167,1.275998,0.15006,-0.17202,12.88,4.1125,15.6275
1390,9652265,1.297958,0.138836,-0.153232,13.0725,-1.96,16.9925
1391,9652363,1.2580639999999998,0.12871,-0.106018,17.4125,-5.1275,19.5125
1392,9652460,1.3474899999999999,-0.023058000000000002,-0.28243,19.4775,-4.515,13.5975
1393,9652558,1.4496040000000001,-0.03965,-0.51667,23.1875,-10.185,13.1425
1394,9652656,1.54574,0.114924,-0.5694961,35.385,-4.3575,16.555
1395,9652754,1.433378,0.21301199999999998,-0.40528400000000003,43.5225,24.43,23.73
1396,9652852,1.178398,0.127246,-0.41711800000000004,42.42,36.0325,25.3925
1397,9652950,0.942694,-0.004392,-0.621712,49.21,11.62,24.5
1398,9653048,0.915976,0.05355801,-0.6985720999999999,51.5725,3.1675,21.035
1399,9653145,0.9092661,0.063074,-0.65209,50.5925,11.2,16.2575
1400,9653243,0.836676,-0.06929600000000001,-0.684542,47.3375,5.005,12.6175
1401,9653341,0.8509501,-0.17568,-0.550586,40.81,0.7875,10.1325
1402,9653439,0.8897459999999999,-0.285968,-0.51362,20.965,0.6825,5.1275
1403,9653537,0.915732,-0.328424,-0.6541640000000001,4.5325,-17.2025,5.0575
1404,9653635,0.961482,-0.31537,-0.659532,-8.1725,-22.9425,11.76
1405,9653733,1.033218,-0.277916,-0.690154,-15.3125,-21.28,22.0675
1406,9653831,1.068964,-0.230702,-0.69967,-15.225,-21.1575,29.4525
1407,9653928,1.100196,-0.12993,-0.696132,-15.5225,-18.235,34.0375
1408,9654026,1.2019440000000001,-0.136152,-0.698328,-15.295,-20.7025,34.3525
1409,9654124,1.15778,-0.034892,-0.665144,-12.32,-19.005,33.3725
1410,9654222,1.0856780000000001,-0.040016,-0.6084141,-11.235,-14.105,23.1
1411,9654320,1.014186,-0.026962,-0.556076,-10.15,-11.3225,10.22
1412,9654418,0.9241501,0.005246,-0.514718,-9.485,-10.3775,-3.6925
1413,9654516,0.9225639999999999,0.025376,-0.48397399999999996,-9.2225,-9.695,-18.34
1414,9654614,0.903898,0.044286,-0.461892,-8.085,-7.735,-29.925
1415,9654712,0.8280139999999999,0.053924,-0.43615,-6.9825,-6.09,-37.38
1416,9654809,0.731878,0.07978801,-0.403698,-5.9325,-5.4425,-44.24
1417,9654907,0.650382,0.076494,-0.367342,-5.7575,-5.495,-49.5425
1418,9655005,0.5694961,0.066246,-0.36722,-4.6375,-8.6975,-50.75
1419,9655103,0.546804,0.06819800000000001,-0.324398,-1.5575,-13.055,-48.7725
1420,9655201,0.540338,0.043798000000000004,-0.32818,-1.47,-15.365,-47.005
1421,9655299,0.53741,0.035136,-0.327692,0.455,-16.6075,-44.6425
1422,9655397,0.558882,-0.01281,-0.31012399999999996,1.4525,-19.8975,-41.8425
1423,9655495,0.58011,-0.018666,-0.29292199999999996,3.29,-19.46,-39.7075
1424,9655592,0.6080479999999999,-0.06405001,-0.28609,4.1475,-19.9675,-37.0125
1425,9655690,0.639402,-0.133712,-0.273646,3.955,-21.07,-33.88
1426,9655788,0.631594,-0.132248,-0.2318,3.465,-20.4225,-27.8775
1427,9655886,0.657824,-0.16897,-0.228262,-1.855,-21.035,-23.9225
1428,9655984,0.654896,-0.14762,-0.23521599999999998,-7.035,-20.1425,-19.075
1429,9656082,0.662094,-0.08235001,-0.22643200000000002,-9.31,-18.0075,-13.51
1430,9656180,0.681858,-0.0305,-0.218746,-11.83,-15.505,-9.5375
1431,9656278,0.7129681,-0.008418,-0.21447600000000003,-13.2125,-13.8425,-4.865
1432,9656376,0.7399300999999999,0.029158,-0.21057199999999998,-13.195,-12.6175,-0.9625
1433,9656473,0.7679901,0.046848,-0.20679,-11.6725,-9.0475,1.0675
1434,9656571,0.783728,0.050874,-0.197884,-9.6775,-3.9375,3.29
1435,9656669,0.7904380999999999,0.07173600000000001,-0.19959200000000002,-7.6125,3.325,6.335
1436,9656767,0.7834840000000001,0.07881200000000001,-0.17568,-5.1275,13.44,8.1375
1437,9656865,0.797636,0.099186,-0.158356,-2.3625,22.33,10.395
1438,9656963,0.8053220999999999,0.114924,-0.155428,0.0175,25.6725,12.005
1439,9657061,0.8203280000000001,0.138958,-0.18068199999999998,3.115,24.4475,11.5675
1440,9657159,0.888282,0.146766,-0.203862,7.595,19.425,8.365
1441,9657257,0.951844,0.098088,-0.264984,12.6,14.245,5.0225
1442,9657354,0.9675819999999999,0.00366,-0.33733,14.9625,10.29,2.73
1443,9657452,0.983808,-0.033916,-0.409188,12.215,5.7925,-2.3275
1444,9657550,1.005524,-0.055022,-0.39955,4.095,-2.66,-10.185
1445,9657648,1.1533879999999999,-0.083814,-0.284992,-2.7825,-6.9125,-10.5875
1446,9657746,1.366644,-0.14383800000000002,-0.127856,-9.66,-5.81,-6.2825
1447,9657844,1.44875,-0.235704,-0.056608000000000006,-14.21,-2.17,-7.2975
1448,9657942,1.431182,-0.21520799999999998,-0.017934000000000002,-12.075,1.8375,-9.6075
1449,9658040,1.339682,-0.06892999999999999,-0.06832001,-9.555,-0.1225,-12.04
1450,9658137,1.312476,0.07832401,-0.310856,-10.6575,-4.8475,-16.8875
1451,9658235,1.298324,0.107116,-0.46603999999999995,-16.4675,-5.5825,-27.195
1452,9658333,1.3407799999999999,0.07137001,-0.42151000000000005,-16.135,10.4475,-43.2425
1453,9658431,1.180228,0.081252,-0.332694,-16.7475,30.31,-51.59
1454,9658529,0.9287861,-0.0064659999999999995,-0.468358,-21.945,26.285,-46.515
1455,9658627,0.8962120000000001,-0.09259801,-0.593164,-23.275,8.7325,-42.8925
1456,9658725,0.7670140000000001,0.082594,-0.6021920000000001,-20.1075,11.1825,-40.2325
1457,9658823,0.7162621,0.035502,-0.654652,-17.7975,12.25,-43.1725
1458,9658921,0.8106899999999999,-0.07490801,-0.80825,-15.855,1.75,-40.32
1459,9659018,0.8244761,0.008662000999999999,-0.678808,-14.63,-2.835,-34.2125
1460,9659116,0.878034,0.053191999999999996,-0.5887720000000001,-10.36,1.785,-33.985
1461,9659214,0.961482,0.10650599999999999,-0.654896,-5.565,-7.84,-33.1625
1462,9659312,0.9999121,0.12041400000000001,-0.680882,3.85,-12.1975,-32.41
1463,9659410,1.049688,0.107116,-0.705892,14.6825,-10.255,-32.9175
1464,9659508,1.124718,0.038796,-0.739808,17.08,-11.1825,-30.9925
1465,9659606,1.20963,-0.040748,-0.6939361,19.8275,-8.05,-26.0925
1466,9659704,1.24745,-0.07381001,-0.6694140000000001,17.4825,-3.6225,-20.1775
1467,9659802,1.189866,-0.09650201,-0.6512359999999999,14.735,-0.6125,-12.2325
1468,9659899,1.127402,-0.12932000000000002,-0.611586,11.9175,0.28,-5.25
1469,9659997,1.086898,-0.127856,-0.568886,7.7525,0.1225,1.8025
1470,9660095,1.036268,-0.09540401,-0.528504,2.7475,-0.9275,7.2275
1471,9660193,0.9767321,-0.098942,-0.487756,-0.7,-2.1525,11.6025
1472,9660291,0.9091440000000001,-0.104798,-0.449204,-3.5,-3.815,17.5
1473,9660389,0.8616860000000001,-0.131028,-0.416386,-7.6125,-6.37,22.4875
1474,9660487,0.8294780999999999,-0.139324,-0.382226,-11.62,-9.4325,26.67
1475,9660585,0.800808,-0.14823,-0.367586,-16.975,-12.8975,29.2075
1476,9660683,0.78141,-0.12980799999999998,-0.37417399999999995,-21.49,-16.275,31.605
1477,9660780,0.7645741,-0.08344800000000001,-0.36539,-24.9375,-20.0375,32.97
1478,9660878,0.765428,-0.062952,-0.35026199999999996,-27.5275,-24.43,32.1125
1479,9660976,0.7645741,-0.06405001,-0.325862,-28.9975,-27.1775,31.4125
1480,9661074,0.7287060000000001,-0.049654000000000004,-0.35221399999999997,-28.735,-26.9325,32.725
1481,9661172,0.7199220000000001,-0.026718000000000002,-0.33610999999999996,-25.76,-29.645,32.0775
1482,9661270,0.695156,0.002928,-0.332816,-22.3475,-30.485,29.995
1483,9661368,0.678808,0.020374,-0.30439,-18.55,-30.555,27.6325
1484,9661466,0.636596,0.007076001,-0.295484,-15.0675,-28.525,23.0125
1485,9661564,0.6040220000000001,0.012688,-0.279746,-12.9675,-27.7025,18.235
1486,9661662,0.590846,0.001952,-0.25498000000000004,-9.835,-27.2475,14.945
1487,9661760,0.6124400999999999,0.000122,-0.243024,-6.825,-26.7925,10.115
1488,9661857,0.620004,0.010614,-0.25363800000000003,-6.7725,-24.675,5.7925
1489,9661955,0.6171979999999999,0.05124001,-0.240706,-5.075,-19.075,1.015
1490,9662053,0.601704,0.060267999999999995,-0.222284,-3.3425,-8.785,-2.66
1491,9662151,0.5967021,0.055265999999999996,-0.188612,-1.89,4.4275,-5.25
1492,9662249,0.583404,0.028792,-0.164822,-0.35,20.1075,-7.42
1493,9662347,0.6007279999999999,0.011712,-0.11394800000000001,1.9775,34.0025,-9.8175
1494,9662445,0.643794,-0.044774,-0.08503401,1.925,41.8775,-12.355
1495,9662543,0.6852739999999999,-0.081252,-0.07442,0.8400001,41.0725,-13.055
1496,9662641,0.7692101,-0.1403,-0.116632,-2.7825,32.5675,-12.6875
1497,9662739,0.856196,-0.167384,-0.179096,-6.6675,21.4375,-11.795
1498,9662837,0.9630681000000001,-0.187392,-0.249246,-10.43,10.4825,-11.2875
1499,9662934,1.066402,-0.18849000000000002,-0.28462600000000005,-10.36,4.165,-12.1625
1500,9663032,1.101294,-0.14310599999999998,-0.29585,-11.06,5.0575,-11.6375
1501,9663130,1.132892,-0.097722,-0.31146599999999997,-9.45,5.3025,-5.3025
1502,9663228,1.170468,-0.046482,-0.28914,-4.795,5.4075,0.4025
1503,9663326,1.17974,0.029646,-0.22057600000000002,0.21,9.1175,3.045
1504,9663424,1.1385040000000002,0.09223200000000001,-0.134688,3.9375,11.4625,7.035
1505,9663522,1.097756,0.068076,-0.07112601,3.7275,6.0375,10.3775
1506,9663620,1.124474,-0.012444,-0.065148,0.595,-0.0525,9.3275
1507,9663717,1.16083,-0.104676,-0.024278,-3.185,-0.7525,8.7675
1508,9663815,1.229272,-0.163114,-0.068686,-6.1775,2.9925,6.02
1509,9663913,1.276486,-0.182268,-0.30792800000000004,-9.3975,1.4175,7.5075
1510,9664011,1.364692,-0.050874,-0.442982,-1.575,-3.5,12.7925
1511,9664109,1.350906,0.17738800000000002,-0.42761000000000005,13.2125,8.8025,17.85
1512,9664207,1.133258,0.225334,-0.295362,18.935,29.5575,21.7875
1513,9664305,0.9464761,0.043432,-0.38198200000000004,20.6325,30.3975,23.9575
1514,9664403,0.8376520000000001,-0.010858,-0.67466,21.3675,8.89,23.1525
1515,9664500,0.8607100000000001,0.06575800000000001,-0.8086161000000001,29.715,0.14,21.4725
1516,9664598,0.9053620000000001,0.040382,-0.8219139999999999,36.155,4.48,21.4725
1517,9664696,0.9214661,0.049288,-0.7229720000000001,38.9725,-0.1225,23.1875
1518,9664794,0.903898,-0.082106,-0.5380199999999999,32.375,-1.75,20.16
1519,9664892,0.8677860000000001,-0.219234,-0.49824799999999997,11.6375,-4.9875,15.015
1520,9664990,0.909998,-0.28072199999999997,-0.533994,-7.3675,-16.2225,10.5
1521,9665088,1.00345,-0.31646799999999997,-0.614758,-19.8625,-21.49,14.3675
1522,9665186,1.048224,-0.26461799999999996,-0.654408,-23.9225,-22.715,20.055
1523,9665284,1.0767719999999998,-0.163358,-0.662826,-22.2075,-20.44,21.875
1524,9665381,1.1346,-0.080886,-0.648552,-18.585,-19.8625,20.37
1525,9665479,1.1289879999999999,0.035136,-0.624518,-14.9625,-20.335,19.7225
1526,9665577,1.169614,0.021472,-0.5918220999999999,-12.5825,-20.1425,12.705
1527,9665675,1.118862,0.076494,-0.536068,-8.75,-15.365,4.4625
1528,9665773,1.0967799999999999,0.02745,-0.502274,-7.9625,-11.1825,-11.235
1529,9665871,1.051762,0.034404000000000004,-0.47067600000000004,-6.6675,-7.07,-22.8375
1530,9665969,1.0004,-0.003782,-0.462136,-5.8975,-4.4625,-34.3
1531,9666067,0.883524,0.04087,-0.441396,-3.3775,-3.01,-41.44
1532,9666165,0.7834840000000001,0.062098,-0.407114,-0.7525,-3.36,-47.1275
1533,9666262,0.709186,0.008662000999999999,-0.3843,2.485,-5.0925,-51.135
1534,9666360,0.613416,0.09442801,-0.365512,6.79,-8.365,-49.6475
1535,9666458,0.5946279999999999,0.053801999999999996,-0.3355,8.89,-13.055,-51.5725
1536,9666556,0.5843801,0.034892,-0.346236,12.4075,-14.07,-49.9975
1537,9666654,0.584136,0.049044,-0.312198,16.9925,-15.2075,-48.7725
1538,9666752,0.646844,0.002684,-0.305244,18.69,-17.8325,-48.51
1539,9666850,0.659654,0.016714,-0.292434,22.3125,-20.5625,-44.555
1540,9666948,0.660752,0.022326,-0.274256,24.4475,-20.86,-39.8125
1541,9667046,0.6810039999999999,-0.009516001,-0.25522399999999995,25.7075,-21.2975,-34.8775
1542,9667144,0.687592,-0.065514,-0.24497600000000003,25.4275,-19.775,-30.45
1543,9667241,0.7126020000000001,-0.074664,-0.231312,25.0075,-18.165,-29.1375
1544,9667339,0.723338,-0.06892999999999999,-0.214232,24.8675,-20.1075,-24.01
1545,9667437,0.7422481,-0.049654000000000004,-0.214598,22.6625,-23.7475,-19.53
1546,9667535,0.775188,-0.038064,-0.233996,20.5975,-26.46,-17.43
1547,9667633,0.8016621,-0.004026,-0.241194,20.9125,-26.1275,-15.2425
1548,9667731,0.8641260000000001,0.010004,-0.23582600000000004,21.42,-22.5925,-13.4225
1549,9667829,0.8818159999999999,-0.01769,-0.228872,23.3975,-14.98,-8.89
1550,9667927,0.8422879999999999,0.02501,-0.219966,26.18,-6.545,-3.2025
1551,9668024,0.79666,0.05160601,-0.200812,28.805,3.22,-1.54
1552,9668122,0.7435901,0.05941401,-0.16652999999999998,31.115,15.96,-1.68
1553,9668220,0.721264,0.07381001,-0.13359000000000001,35.77,27.58,-3.6225
1554,9668318,0.7388319999999999,0.096868,-0.09625801,40.5475,31.36,-6.4225
1555,9668416,0.780434,0.109922,-0.093574,46.2875,28.805,-10.01
1556,9668514,0.849608,0.107482,-0.107482,52.6225,21.8925,-14.2975
1557,9668612,0.919026,0.099674,-0.173362,56.8925,13.5625,-19.4775
1558,9668710,0.9740479999999999,0.095648,-0.244,55.7025,3.85,-24.01
1559,9668808,1.002718,0.071004,-0.328912,49.175,-3.85,-29.12
1560,9668905,1.057374,0.01037,-0.38918,39.655,-10.8675,-32.1125
1561,9669003,1.123376,-0.06661201,-0.35563,29.2775,-18.4625,-31.395
1562,9669101,1.1661979999999998,-0.151402,-0.23363,20.5275,-18.0075,-28.9975
1563,9669199,1.17303,-0.199348,-0.141764,14.665,-4.5675,-26.18
1564,9669297,1.167418,-0.2135,-0.08601,13.6325,11.585,-23.9925
1565,9669395,1.149606,-0.14188599999999998,-0.053436000000000004,18.165,22.575,-24.5175
1566,9669493,1.127646,-0.056852,-0.10736,19.565,24.4125,-28.035
1567,9669591,1.103734,-0.07381001,-0.35502,13.1075,13.7725,-33.0925
1568,9669688,1.1224,-0.14993800000000002,-0.46506400000000003,5.355,2.87,-42.4725
1569,9669786,1.143506,-0.057584,-0.42761000000000005,4.095,21.105,-59.7975
1570,9669884,1.161806,0.0034159999999999998,-0.326716,7.5425,42.245,-72.975
1571,9669982,1.0859219999999998,-0.071492,-0.36173,11.0425,33.95,-64.0325
1572,9670080,1.109346,-0.078202,-0.47641000000000006,17.5175,15.9775,-59.8675
1573,9670178,1.116056,-0.089304,-0.587064,27.7025,7.035,-57.19
1574,9670276,1.128134,-0.09711201,-0.840458,30.0475,-5.005,-55.09
1575,9670374,1.149118,-0.24216999999999997,-1.092144,22.75,-24.465,-58.45
1576,9670472,1.15351,-0.484828,-0.9368380999999999,23.6425,-27.37,-67.27
1577,9670569,1.218048,-0.44847200000000004,-0.703696,31.99,-7.2275,-71.4175
1578,9670667,1.092632,-0.149328,-0.7021101,26.32,-11.0075,-61.7925
1579,9670765,1.00833,0.09162200000000001,-0.70394,27.195,-14.14,-55.475
1580,9670863,0.99918,0.21533000000000002,-0.7046720999999999,38.115,-8.19,-54.8975
1581,9670961,0.974292,0.229848,-0.677954,45.2375,-8.5925,-54.1275
1582,9671059,0.959408,0.149084,-0.633058,52.71,-8.645,-48.5275
1583,9671157,0.9777081,0.054655999999999996,-0.598166,60.27,-8.3825,-38.5875
1584,9671255,1.017968,-0.023424,-0.5810860999999999,64.505,-12.355,-29.68
1585,9671353,1.02846,-0.079544,-0.549732,68.565,-15.54,-21.98
1586,9671450,1.003328,-0.137982,-0.514352,71.5225,-17.2025,-16.38
1587,9671548,0.9506241,-0.133468,-0.493856,72.3975,-19.2325,-12.8275
1588,9671646,0.8819381,-0.10504200000000001,-0.45603599999999994,75.5125,-19.5475,-11.8125
1589,9671744,0.8178880999999999,-0.066978,-0.424072,79.7475,-17.535,-12.95
1590,9671842,0.76067,-0.03782,-0.396866,84.35,-15.8375,-15.435
1591,9671940,0.695766,-0.0305,-0.381006,89.46,-14.56,-18.725
1592,9672038,0.6600201,0.001586,-0.36722,92.1025,-15.54,-22.68
1593,9672136,0.65758,0.039284,-0.36051,93.73,-19.0925,-26.0575
1594,9672234,0.640622,0.03965,-0.347578,95.9875,-22.5225,-28.56
1595,9672331,0.6390359999999999,0.05856,-0.33000999999999997,95.1825,-23.8,-31.9025
1596,9672429,0.650992,0.046116000000000004,-0.30439,93.0125,-25.97,-36.19
1597,9672527,0.6703899999999999,0.037454,-0.305854,90.3875,-26.7225,-38.7625
1598,9672625,0.707112,0.03965,-0.28853,89.11,-27.055,-40.635
1599,9672723,0.7208981,0.024156,-0.29036,87.2025,-26.67,-42.525
1600,9672821,0.746152,-0.006587999999999999,-0.273402,85.92501,-26.67,-42.4375
1601,9672919,0.761524,-0.031110000000000002,-0.272548,86.5375,-23.135,-41.8075
1602,9673017,0.7853140000000001,-0.050874,-0.262788,85.8725,-20.4225,-44.1875
1603,9673114,0.801296,-0.037332,-0.255834,85.6625,-18.3575,-46.13
1604,9673212,0.809226,-0.00122,-0.239608,86.3625,-13.65,-47.88
1605,9673310,0.8141060999999999,0.010858,-0.22557800000000003,85.8025,-8.8375,-51.59
1606,9673408,0.803614,0.025863999999999998,-0.2013,84.91,-4.06,-55.51
1607,9673506,0.796294,0.015128,-0.170434,84.21,1.9075,-59.0625
1608,9673604,0.7984899999999999,-0.0122,-0.139568,83.72001,7.735,-60.41
1609,9673702,0.818132,-0.028792,-0.112972,82.565,12.8275,-61.5475
1610,9673800,0.847046,-0.029768,-0.08454600000000001,80.3075,15.995,-62.895
1611,9673898,0.8540000000000001,-0.06649,-0.096624,77.8225,17.43,-64.1725
1612,9673995,0.8697379999999999,-0.13944600000000001,-0.13176,73.92,16.0125,-63.56
1613,9674093,0.8916980999999999,-0.232044,-0.173728,66.5875,14.56,-60.2
1614,9674191,0.8846219999999999,-0.308904,-0.203374,59.255,13.055,-55.1775
1615,9674289,0.9076799999999999,-0.360998,-0.24265799999999998,50.6275,8.645,-51.17
1616,9674387,0.9330560999999999,-0.361852,-0.274622,44.205,5.0575,-47.9675
1617,9674485,0.9409860999999999,-0.299144,-0.318054,39.6375,3.3775,-43.365
1618,9674583,0.9625799999999999,-0.127368,-0.27523200000000003,35.385,4.7075,-41.44
1619,9674681,0.9590420000000001,0.005368,-0.22411399999999998,32.27,12.775,-41.8075
1620,9674779,0.9913719999999999,0.028669999999999998,-0.22423600000000002,35.1925,13.1425,-37.73
1621,9674877,1.035902,0.09821001,-0.18775799999999998,40.5825,11.34,-37.17
1622,9674975,1.082506,0.115168,-0.13785999999999998,43.365,14.875,-37.2925
1623,9675072,1.104588,0.09320801,-0.12261,42.9275,15.4175,-38.255
1624,9675170,1.121424,0.06380599999999999,-0.12895399999999999,41.195,15.3475,-41.5975
1625,9675268,1.1234979999999999,-0.01769,-0.146644,40.6,14.9975,-44.2225
1626,9675366,1.109956,-0.104798,-0.260104,43.54,13.09,-43.8375
1627,9675464,1.0826280000000001,-0.178974,-0.36905,50.855,11.6025,-42.14
1628,9675562,1.036756,-0.163602,-0.41858199999999995,63.6825,15.2775,-39.2875
1629,9675660,0.97173,-0.07417601,-0.31354,76.37001,23.975,-39.4275
1630,9675758,0.898408,-0.0183,-0.265716,85.1375,31.885,-41.9125
1631,9675856,0.8342360000000001,0.036112,-0.540704,89.215,24.5175,-47.32
1632,9675954,0.840824,0.15372,-0.791536,100.555,1.505,-50.1725
1633,9676052,0.8755940000000001,0.322202,-0.9562360999999999,119.84,-18.69,-48.0025
1634,9676150,0.945256,0.36136399999999996,-0.779458,141.2425,-11.4625,-40.39
1635,9676247,1.000156,0.205448,-0.512278,148.89,5.8975,-31.185
1636,9676345,0.8971879999999999,-0.079056,-0.402844,141.155,13.405,-27.5625
1637,9676443,0.8025161,-0.290604,-0.42883009999999994,119.9625,10.7625,-31.535
1638,9676541,0.809226,-0.307684,-0.518988,103.495,6.23,-40.7575
1639,9676639,0.8985301,-0.27389,-0.612074,101.99,2.625,-49.4725
1640,9676737,0.9852719999999999,-0.128344,-0.687104,111.825,-0.5075,-54.285
1641,9676835,1.0182120000000001,0.025863999999999998,-0.743834,124.81,-8.0675,-52.1325
1642,9676933,1.082262,0.20483800000000002,-0.7556681,138.81,-13.755,-53.935
1643,9677031,1.1293540000000002,0.312686,-0.7195560000000001,152.74,-11.725,-59.605
1644,9677129,1.147532,0.425414,-0.625738,161.42,-7.77,-64.33
1645,9677227,1.136308,0.42590200000000006,-0.6039,164.4125,-3.0275,-76.1075
1646,9677325,1.148142,0.298046,-0.5948720000000001,164.7625,-1.9075,-90.30001
1647,9677423,1.08641,0.251076,-0.55083,166.6525,-2.7825,-98.75251
1648,9677520,1.08092,0.17580199999999999,-0.56425,166.95,-3.4825,-109.4975
1649,9677618,1.108004,0.06075601,-0.5499761,171.0975,-3.675,-116.3575
1650,9677716,1.041758,0.040504000000000005,-0.52094,179.305,-2.555,-114.31
