,T,ax,ay,az,gx,gy,gz
0,183688,0.47775200000000007,0.057828,-0.70516,17.8325,-17.92,-17.605
1,183838,0.49751599999999996,0.061975999999999996,-0.794708,69.0375,-95.375,-39.7075
2,183935,0.5321640000000001,0.06636801,-0.8483879999999999,123.6025,-144.9875,-46.865
3,184032,0.533872,0.06588,-0.8464360000000001,57.9775,-101.08,-31.8675
4,184130,0.533628,0.06636801,-0.8464360000000001,3.325,-5.005,-3.465
5,184227,0.5321640000000001,0.067588,-0.850096,2.275,-3.045,-2.8175
6,184324,0.532652,0.06929600000000001,-0.8486319999999999,2.2925,-2.9225,-2.8525
7,184421,0.532652,0.068076,-0.8486319999999999,2.1875,-2.905,-2.8175
8,184518,0.5309441,0.068564,-0.8479,2.275,-2.975,-2.8525
9,184615,0.531188,0.06636801,-0.8510719999999999,2.2575,-2.9575,-2.8525
10,184712,0.532896,0.066124,-0.85034,2.1875,-2.87,-2.8
11,184809,0.532896,0.067832,-0.85156,2.205,-2.765,-2.8525
12,184906,0.531676,0.065148,-0.850584,2.17,-2.8175,-2.905
13,185003,0.530212,0.067832,-0.8488761,2.1,-2.7475,-2.905
14,185100,0.531188,0.06466001,-0.849852,2.135,-2.6425,-2.9225
15,185197,0.531676,0.063684,-0.850584,2.1175,-2.52,-2.9925
16,185294,0.5309441,0.06466001,-0.850584,2.0475,-2.4325,-3.0275
17,185391,0.53192,0.06588,-0.849608,2.03,-2.415,-2.975
18,185488,0.532408,0.066856,-0.85034,2.1,-2.3625,-2.9575
19,185585,0.532896,0.066856,-0.8510719999999999,2.0825,-2.485,-2.9575
20,185682,0.53314,0.066856,-0.8510719999999999,2.065,-2.485,-2.8875
21,185780,0.532896,0.066124,-0.8483879999999999,2.0825,-2.4325,-2.9225
22,185877,0.532408,0.06588,-0.849852,2.1525,-2.3975,-3.0275
23,185974,0.53314,0.066856,-0.8527800999999999,2.065,-2.3975,-2.94
24,186071,0.5321640000000001,0.066856,-0.85034,2.0125,-2.31,-2.94
25,186168,0.5314321,0.067832,-0.8510719999999999,2.065,-2.3625,-2.8525
26,186265,0.531676,0.066856,-0.850584,2.1,-2.45,-2.975
27,186362,0.53192,0.067344,-0.849852,2.0475,-2.4325,-2.9225
28,186459,0.5321640000000001,0.06636801,-0.85156,2.0475,-2.3275,-2.8875
29,186556,0.534116,0.067588,-0.849608,2.135,-2.2925,-2.8875
30,186653,0.53192,0.06661201,-0.849608,2.1875,-2.45,-2.8175
31,186750,0.5309441,0.06636801,-0.8493641,2.17,-2.415,-2.8875
32,186847,0.530456,0.06832001,-0.8491200000000001,2.1525,-2.2575,-2.94
33,186944,0.533384,0.067832,-0.8520479999999999,2.1175,-2.3975,-2.87
34,187042,0.532408,0.063928,-0.849852,2.1875,-2.4325,-2.835
35,187139,0.5343600000000001,0.06563601,-0.850584,2.135,-2.4325,-2.94
36,187236,0.530456,0.06661201,-0.8491200000000001,2.1875,-2.5025,-2.9575
37,187333,0.532408,0.06563601,-0.8491200000000001,2.1525,-2.4675,-2.9225
38,187430,0.53192,0.065148,-0.850096,2.1,-2.4675,-2.835
39,187527,0.531676,0.06661201,-0.850584,2.1525,-2.4675,-2.835
40,187624,0.531676,0.06539201,-0.8493641,2.17,-2.5725,-2.9225
41,187721,0.53192,0.066856,-0.8510719999999999,2.17,-2.555,-2.87
42,187818,0.53314,0.06636801,-0.849608,2.17,-2.4675,-2.94
43,187915,0.5314321,0.06661201,-0.8493641,2.135,-2.45,-2.8525
44,188012,0.531188,0.06539201,-0.8486319999999999,2.0825,-2.5025,-2.905
45,188109,0.53314,0.06880801,-0.850584,2.0825,-2.555,-3.01
46,188207,0.532896,0.06832001,-0.850096,2.1,-2.52,-2.9575
47,188304,0.532896,0.067588,-0.850096,2.1175,-2.4675,-2.905
48,188401,0.5321640000000001,0.06661201,-0.849852,2.205,-2.5725,-2.905
49,188498,0.53314,0.06636801,-0.8493641,2.17,-2.625,-2.835
50,188595,0.532652,0.066856,-0.8481440999999998,2.1,-2.765,-2.905
51,188692,0.529968,0.06563601,-0.8488761,2.1175,-2.8175,-2.835
52,188789,0.5321640000000001,0.06588,-0.8493641,2.1,-2.8,-2.9925
53,188886,0.531676,0.066856,-0.8510719999999999,2.1175,-2.8175,-3.08
54,188983,0.5314321,0.064416,-0.850096,2.17,-2.8525,-2.9925
55,189080,0.5294800000000001,0.066856,-0.849608,2.205,-2.8175,-2.9925
56,189177,0.531676,0.063928,-0.849608,2.2925,-2.8175,-2.9575
57,189274,0.531188,0.062220000000000004,-0.85034,2.2925,-2.7475,-2.9575
58,189372,0.528992,0.063928,-0.8479,2.1175,-2.555,-3.0625
59,189469,0.530456,0.063928,-0.849852,2.03,-2.485,-3.0975
60,189566,0.531676,0.062464,-0.8481440999999998,2.0125,-2.4675,-3.15
61,189663,0.532652,0.06636801,-0.8486319999999999,1.96,-2.3275,-3.2375
62,189760,0.53192,0.06563601,-0.8488761,1.855,-2.3625,-3.255
63,189857,0.531676,0.06636801,-0.849608,1.82,-2.38,-3.2025
64,189954,0.5321640000000001,0.063928,-0.8508280999999999,1.8025,-2.3625,-3.15
65,190051,0.531676,0.06661201,-0.849608,1.9425,-2.3625,-3.185
66,190148,0.5292359999999999,0.06661201,-0.8479,1.925,-2.4675,-3.2025
67,190245,0.531188,0.06588,-0.849852,1.8025,-2.485,-3.115
68,190342,0.530456,0.06661201,-0.849608,1.855,-2.38,-3.08
69,190439,0.5282600000000001,0.06636801,-0.8479,1.89,-2.485,-3.0975
70,190536,0.53192,0.06636801,-0.850584,1.8375,-2.345,-3.1325
71,190633,0.53192,0.064172,-0.8483879999999999,1.855,-2.2575,-3.185
72,190730,0.531676,0.06466001,-0.8479,1.7675,-2.24,-3.22
73,190828,0.53314,0.06563601,-0.8483879999999999,1.7675,-2.2575,-3.255
74,190925,0.531188,0.06636801,-0.8491200000000001,1.75,-2.1525,-3.255
75,191022,0.5314321,0.06466001,-0.8486319999999999,1.8025,-2.17,-3.255
76,191119,0.530456,0.06588,-0.849608,1.7675,-2.1525,-3.255
77,191216,0.5321640000000001,0.06661201,-0.8493641,1.75,-2.0475,-3.22
78,191313,0.5314321,0.067588,-0.849852,1.75,-2.135,-3.185
79,191410,0.5307,0.06539201,-0.8488761,1.82,-2.1875,-3.185
80,191507,0.530456,0.067832,-0.849852,1.785,-2.17,-3.1675
81,191604,0.5294800000000001,0.066124,-0.8491200000000001,1.7675,-2.1525,-3.1675
82,191701,0.5309441,0.067344,-0.849608,1.7675,-2.1175,-3.15
83,191798,0.530212,0.066124,-0.849852,1.82,-2.065,-3.1675
84,191895,0.5307,0.0671,-0.8510719999999999,1.785,-2.1175,-3.0625
85,191992,0.530212,0.066856,-0.849852,1.8375,-2.065,-3.08
86,192090,0.529724,0.0671,-0.8486319999999999,1.82,-1.9775,-3.115
87,192187,0.529724,0.0671,-0.849852,1.8025,-2.0475,-3.115
88,192284,0.5314321,0.069052,-0.8488761,1.7675,-2.0125,-3.1325
89,192381,0.5314321,0.06832001,-0.8479,1.855,-2.03,-3.0975
90,192478,0.5314321,0.067588,-0.8493641,1.8725,-1.995,-3.08
91,192575,0.532408,0.069784,-0.8491200000000001,1.82,-1.9775,-3.0275
92,192672,0.53192,0.067588,-0.8486319999999999,1.855,-1.995,-3.01
93,192769,0.53192,0.069052,-0.846924,1.89,-2.1175,-2.9575
94,192866,0.5307,0.06661201,-0.849608,2.03,-2.1175,-2.975
95,192963,0.53192,0.069784,-0.8481440999999998,2.0125,-2.17,-2.94
96,193060,0.532408,0.067588,-0.8481440999999998,2.03,-2.17,-2.87
97,193157,0.53192,0.067832,-0.850584,2.0475,-2.1525,-2.8875
98,193255,0.532652,0.066856,-0.8481440999999998,2.0475,-2.2225,-2.7825
99,193352,0.5321640000000001,0.066856,-0.8471681000000001,2.1175,-2.3625,-2.87
100,193449,0.53192,0.06661201,-0.8479,2.0825,-2.24,-2.8525
101,193546,0.5314321,0.06832001,-0.847412,2.1,-2.3275,-2.8
102,193643,0.534604,0.068076,-0.844972,2.1525,-2.38,-2.8175
103,193740,0.534848,0.06636801,-0.844972,2.205,-2.4325,-2.765
104,193837,0.533628,0.067344,-0.8476561,2.24,-2.485,-2.7475
105,193934,0.534116,0.069052,-0.8466800999999999,2.3275,-2.66,-2.6425
106,194031,0.53314,0.071492,-0.849852,2.5025,-2.87,-2.52
107,194128,0.527528,0.06124401,-0.854244,2.66,-2.9225,-2.3625
108,194225,0.521184,0.062952,-0.8601,2.765,-2.485,-2.5725
109,194323,0.5368,0.063928,-0.8513161,3.2025,-1.6625,-2.7475
110,194420,0.534604,0.062220000000000004,-0.85034,3.57,-1.82,-2.835
111,194517,0.541192,0.067832,-0.8532681000000001,2.905,-2.45,-2.87
112,194614,0.5489999999999999,0.069052,-0.8525360000000001,2.6775,-3.465,-2.485
113,194711,0.5458281,0.07344400000000001,-0.856684,2.1875,-4.6025,-2.03
114,194808,0.553636,0.07978801,-0.853512,1.9425,-5.5825,-1.33
115,194905,0.5594920999999999,0.08808401,-0.8520479999999999,2.1,-7.105,-0.5775
116,195002,0.550708,0.09516001,-0.8520479999999999,2.7825,-9.17,0.385
117,195099,0.5565640000000001,0.07881200000000001,-0.854244,4.06,-10.9025,1.225
118,195196,0.544852,0.08052000000000001,-0.855708,4.8125,-12.4075,1.715
119,195293,0.5343600000000001,0.06880801,-0.860344,5.5125,-13.6675,2.1875
120,195390,0.539484,0.052703999999999994,-0.859856,6.2475,-14.35,2.45
121,195487,0.519964,0.047092,-0.8605879999999999,6.1075,-14.77,2.2925
122,195585,0.5221600000000001,0.020984,-0.8662001,5.8275,-14.5775,1.4
123,195682,0.522404,0.013175999999999998,-0.8698601,4.4625,-14.525,0.4025
124,195779,0.534604,0.050752,-0.873764,2.6425,-14.5425,-0.7175
125,195876,0.536068,0.027327999999999998,-0.8625401,1.085,-14.385,-2.275
126,195973,0.5551,0.007564001,-0.8927959999999999,-0.8225,-15.015,-3.1325
127,196070,0.5577840000000001,-0.014396,-0.748592,-1.2425,-14.175,-3.01
128,196167,0.592188,0.07978801,-0.877912,-3.29,-14.1225,-2.905
129,196264,0.565104,0.06124401,-0.918416,-4.3925,-19.18,-4.0775
130,196361,0.61732,0.087352,-0.9669721,-4.41,-22.33,-3.115
131,196458,0.5321640000000001,0.09784401,-0.8647360000000001,-3.1325,-27.8425,-2.905
132,196555,0.488,0.06636801,-0.8642481,-1.1725,-30.24,-3.4475
133,196652,0.518744,0.061732,-0.880352,-0.91,-29.6275,-3.4125
134,196750,0.499712,0.08442401,-0.868884,-1.12,-31.0975,-3.465
135,196847,0.410652,0.07442,-0.8210601000000001,-0.8575,-32.2875,-4.795
136,196944,0.363316,0.063684,-0.7954399999999999,-1.2425,-29.4,-6.055
137,197041,0.36966,0.040260000000000004,-0.798124,-2.1,-23.87,-7.28
138,197138,0.364292,0.017568,-0.794952,-3.185,-18.8825,-8.015
139,197235,0.34867600000000004,0.016347999999999998,-0.787876,-4.76,-13.965,-8.0325
140,197332,0.343064,0.02196,-0.790804,-6.2125,-8.435,-7.6825
141,197429,0.33061999999999997,0.047580000000000004,-0.7832399999999999,-6.965,-2.7825,-6.965
142,197526,0.329644,0.08052000000000001,-0.772992,-6.895,3.675,-6.5275
143,197623,0.335744,0.10638399999999999,-0.7759199999999999,-5.32,11.025,-5.8975
144,197720,0.35233600000000004,0.1159,-0.7861680999999999,-2.03,18.41,-4.935
145,197817,0.462624,0.121024,-0.8701040000000001,0.8575,25.0425,-4.5675
146,197915,0.49141599999999996,0.21106,-0.8735200000000001,5.6875,26.9325,-3.4475
147,198012,0.769576,0.29426399999999997,-1.12362,14.98,29.0675,-1.8725
148,198109,0.48702399999999996,-0.027572000000000003,-0.8784,26.7225,14.3675,-3.08
149,198206,0.543632,0.079544,-0.916464,22.7675,13.055,-1.155
150,198303,0.6304960000000001,0.07832401,-0.9630681000000001,23.66,10.6575,1.3125
151,198400,0.514596,-0.007564001,-0.898408,23.7825,6.02,2.52
152,198497,0.5343600000000001,0.07686,-0.9079241,20.4225,2.7825,4.515
153,198594,0.533628,0.046360000000000005,-0.8918200000000001,20.125,0.945,5.1975
154,198691,0.521672,0.024888,-0.892308,19.8975,-1.0675,5.495
155,198788,0.5206960999999999,0.040748,-0.892308,17.8675,-2.7475,5.4425
156,198885,0.5165481,0.018056,-0.8801081000000001,16.38,-3.815,5.005
157,198982,0.510692,0.024156,-0.8764481,14.455,-4.55,4.375
158,199080,0.504836,0.017568,-0.8752280000000001,12.8975,-4.7425,3.57
159,199177,0.49995600000000007,0.033184,-0.877424,10.9725,-5.1275,3.15
160,199274,0.49751599999999996,0.02074,-0.868396,9.87,-4.865,2.7125
161,199371,0.493856,0.026108,-0.868152,8.7675,-4.8825,2.3275
162,199468,0.492392,0.026108,-0.8701040000000001,8.1375,-4.725,1.96
163,199565,0.49288000000000004,0.025131999999999998,-0.8676640999999999,7.5075,-4.3925,1.5925
164,199662,0.487512,0.02806,-0.8637601,6.8775,-4.165,1.4175
165,199759,0.465552,0.02196,-0.8637601,6.3525,-4.2,1.295
166,199856,0.48068,0.01098,-0.8640040000000001,5.6175,-3.4475,1.365
167,199953,0.477508,0.005368,-0.8605879999999999,4.2175,-2.835,1.0325
168,200050,0.47458,0.002684,-0.8610761,2.0825,-2.2925,0.2625
169,200147,0.48433999999999994,0.0051240009999999996,-0.863516,-0.035,-1.26,-0.42
170,200245,0.480436,0.02074,-0.8632719999999999,-1.47,-0.455,-1.0675
171,200342,0.47823999999999994,0.016836,-0.865956,-2.38,0.21,-1.33
172,200439,0.47653199999999996,0.008052001,-0.8674200000000001,-3.5875,1.2775,-1.61
173,200536,0.48165600000000003,0.007076001,-0.8674200000000001,-5.32,2.6775,-2.4325
174,200633,0.489464,0.008540001,-0.86864,-6.895,4.305,-3.71
175,200730,0.486048,0.011956,-0.8674200000000001,-8.085,6.0025,-4.9875
176,200827,0.488976,0.02806,-0.8725440999999999,-9.2575,7.91,-5.88
177,200924,0.49288000000000004,0.034892,-0.862784,-9.7825,9.9575,-6.23
178,201021,0.5023960999999999,0.057828,-0.8727879999999999,-9.9575,12.0225,-6.23
179,201118,0.490928,0.057584,-0.869616,-8.8025,13.9475,-5.8275
180,201215,0.486048,0.047824,-0.869616,-7.98,16.275,-4.935
181,201312,0.5009319999999999,0.023912,-0.85888,-6.9475,19.285,-3.9725
182,201409,0.483608,0.038064,-0.874984,-7.1225,22.2425,-3.71
183,201507,0.48092399999999996,0.067588,-0.880352,-7.4025,25.69,-3.0975
184,201604,0.47604399999999997,0.032451999999999995,-0.8740081000000001,-6.8075,30.8,-1.6275
185,201701,0.438224,0.062220000000000004,-0.9208561,-7.0175,36.785,0.105
186,201798,0.48433999999999994,0.09882,-0.9118280000000001,-6.265,45.43,2.0475
187,201895,0.48433999999999994,0.047580000000000004,-0.8752280000000001,-8.085,55.405,4.27
188,201992,0.49580799999999997,0.055144000000000006,-0.876692,-9.52,65.1875,5.6175
189,202089,0.483608,0.067344,-0.9091440000000001,-9.1875,75.1275,6.93
190,202186,0.505568,0.06661201,-0.8725440999999999,-8.05,85.89,7.63
191,202283,0.5038600000000001,0.046360000000000005,-0.8540000000000001,-7.98,97.8425,8.225
192,202380,0.521184,0.066856,-0.856684,-7.5775,109.9875,8.365
193,202478,0.5429,0.07222401,-0.844484,-6.0375,122.43,8.3125
194,202575,0.596336,0.061,-0.8913321,-2.9575,133.35,8.4
195,202672,0.603168,0.07881200000000001,-0.8662001,2.625,134.4875,9.2225
196,202769,0.596336,0.051484,-0.839116,8.26,140.4025,10.29
197,202866,0.6280560000000001,0.06539201,-0.8149601,13.475,148.75,11.025
198,202963,0.600484,0.089792,-0.9010921000000001,17.675,159.6,10.71
199,203060,0.586088,0.098576,-0.84424,31.115,177.2925,8.225
200,203157,0.7195560000000001,0.194712,-0.8625401,41.0025,193.3225,6.44
201,203254,0.6344,0.14762,-0.8701040000000001,52.885,211.3825,11.5325
202,203351,0.7315119999999999,0.08564401,-0.8874280999999999,58.8525,233.7825,15.8725
203,203448,0.7539600000000001,0.09028,-0.826672,60.34,255.43,16.7825
204,203545,0.7598161,0.12566,-0.965752,59.78,281.3475,20.5625
205,203643,1.209752,0.12395199999999999,-0.9403761,58.6425,305.0075,28.1925
206,203740,0.912316,0.031232,-1.016748,55.1075,332.4475,38.2025
207,203837,1.2153639999999999,-0.025863999999999998,-1.046516,49.595,354.865,39.585
208,203934,1.0126,-0.19764,-0.8823040000000001,29.89,375.1825,35.0175
209,204031,1.578436,-0.14274,-1.254404,5.635,398.1775,25.025
210,204128,1.712636,0.441396,-1.309792,-11.3225,414.715,19.3025
211,204225,1.58844,0.261324,-1.473272,29.715,443.2575,41.65
212,204322,1.7082439999999999,0.2196,-1.74826,24.885,439.5825,66.8325
213,204419,1.4274,0.477264,-1.414224,7.4725,399.385,75.95
214,204516,2.403156,0.635864,-3.3903800000000004,26.7575,314.2125,58.6425
215,204613,3.104412,1.1873040000000001,-4.273172,19.8975,183.575,31.2725
216,204710,1.3908,1.063108,-3.1351560000000003,57.6975,25.6725,12.7225
217,204807,0.335012,0.60634,-2.151104,114.1525,-67.97,-4.2
218,204905,-0.14274,0.16201600000000002,-1.4654639999999999,130.3925,-96.005,-15.4525
219,205002,-0.07856801,-0.1159,-1.2902719999999999,99.5575,-97.45749,-25.3925
220,205099,0.119316,-0.07198,-1.385432,45.15,-105.0,-33.0925
221,205196,0.26766799999999996,0.049532,-1.4818120000000001,9.52,-124.2675,-31.115
222,205293,0.30036399999999996,0.071248,-1.4539959999999998,1.8025,-152.88,-20.02
223,205390,0.257176,-0.02562,-1.342244,5.46,-183.3475,-6.615
224,205487,0.204228,-0.119316,-1.2139,1.4175,-210.98,2.6075
225,205584,0.176656,-0.144204,-1.122156,-13.1075,-234.36,7.175
226,205681,0.213988,-0.153232,-1.075796,-29.6625,-253.085,9.275
227,205778,0.273524,-0.153232,-1.06384,-44.4675,-270.1825,10.2725
228,205875,0.363804,-0.172996,-1.059448,-56.385,-286.6325,10.7275
229,205972,0.466528,-0.17397200000000002,-1.060424,-66.3075,-302.7325,10.7275
230,206070,0.531676,-0.182024,-1.029924,-73.325,-318.325,11.235
231,206167,0.589992,-0.213988,-0.9833200000000001,-78.3125,-330.4875,12.565
232,206264,0.654652,-0.21667199999999998,-0.9769760000000001,-85.225,-338.45,13.895
233,206361,0.734196,-0.168848,-1.0199200000000002,-92.69751,-343.28,14.35
234,206458,0.8166680000000001,-0.11345999999999999,-1.08092,-97.00251,-346.22,12.9675
235,206555,0.908168,-0.10052799999999999,-1.12362,-97.05501,-347.235,9.625
236,206652,1.018456,-0.14786400000000002,-1.157292,-96.93251,-345.4675,3.85
237,206749,1.1387479999999999,-0.188124,-1.20658,-101.8325,-341.5825,-4.97
238,206846,1.2343959999999998,-0.229604,-1.27124,-110.2325,-335.5625,-16.31
239,206943,1.337852,-0.294996,-1.355664,-118.3175,-325.7975,-27.6325
240,207040,1.552084,-0.32256799999999997,-1.495232,-125.6675,-313.46,-36.96
241,207138,1.950048,-0.28914,-1.716784,-128.2575,-303.8,-43.89
242,207235,2.334836,-0.2501,-1.7863240000000002,-118.965,-304.4825,-47.3025
243,207332,2.4673279999999997,-0.252052,-1.501576,-97.26501,-312.7425,-46.5325
244,207429,2.563708,-0.223992,-1.1453360000000001,-71.8725,-312.8475,-43.61
245,207526,2.7206,-0.11614400000000001,-0.9372040999999999,-50.26,-302.3825,-40.6875
246,207623,2.811368,0.08564401,-0.756888,-31.01,-292.4075,-44.0475
247,207720,2.709376,0.264496,-0.399428,-9.765,-285.18,-57.645
248,207817,2.595428,0.29768,0.020984,10.5875,-269.535,-80.71
249,207914,2.654476,0.25498000000000004,0.38674000000000003,20.4575,-241.6925,-109.3225
250,208011,2.562488,-0.104432,0.93696,23.625,-206.2375,-137.4975
251,208108,2.805024,-0.830332,1.268312,15.365,-157.5875,-162.435
252,208206,3.154188,-1.018944,1.288808,-12.5475,-115.7275,-169.4525
253,208303,3.120272,-1.235372,1.491816,-5.075,-81.13,-131.005
254,208400,2.775012,-1.298324,1.553548,12.04,-39.4625,-60.095
255,208497,2.5876200000000003,-1.059448,1.222928,3.29,7.3675,9.765
256,208594,2.4668400000000004,-0.6373281,0.784704,-23.8875,41.58,60.235
257,208691,2.25334,-0.21008400000000002,0.518256,-52.8675,59.2375,90.335
258,208788,-0.36722,2.1374400000000002,-0.6019479999999999,-60.5675,67.7075,112.7875
259,208885,-1.436672,0.62952,-1.22854,105.7875,162.855,137.5325
260,208982,0.211304,0.671488,-0.24863600000000002,107.66,256.0425,121.135
261,209079,1.8175560000000002,-0.451888,-1.0645719999999999,78.48751,306.4775,42.98
262,209176,2.167208,-1.1892559999999999,-1.9144240000000001,43.4525,296.695,8.4175
263,209274,1.8478119999999998,-1.130208,-1.535736,46.935,255.15,46.585
264,209371,1.677012,0.151036,-1.5640399999999999,-7.6125,218.8375,57.225
265,209468,1.471076,0.74664,-1.396168,-13.055,185.5175,30.52
266,209565,1.7646080000000002,-0.223016,-1.765828,6.9125,153.6675,-9.73
267,209662,1.443992,-0.199348,-1.4213,6.1075,104.7375,-9.6075
268,209759,1.09922,0.787876,-1.229028,-6.195,57.5225,2.345
269,209856,0.537044,-0.102968,-0.931348,29.5575,29.26,-13.475
270,209953,0.8235001000000001,0.010004,-0.941108,23.3975,25.095,-5.8625
271,210050,0.62342,0.266204,-0.877912,11.305,9.8,3.6925
272,210147,0.563884,-0.040748,-0.8976761000000001,17.255,4.6025,2.3275
273,210244,0.544852,0.012688,-0.9042641,11.9525,3.745,5.1625
274,210341,0.525576,0.024888,-0.8991401,6.825,2.975,3.8675
275,210439,0.518744,0.0017079999999999999,-0.8913321,5.9675,3.7975,1.6625
276,210536,0.49727200000000005,-0.002928,-0.8908440999999999,2.38,4.3925,-0.63
277,210633,0.512644,-0.034892,-0.8823040000000001,-0.9975,6.9125,-4.2875
278,210730,0.511668,0.01586,-0.8718120999999999,-5.8625,9.1,-7.84
279,210827,0.514596,0.051972000000000004,-0.8632719999999999,-8.435,10.8325,-9.975
280,210924,0.523624,0.08174001,-0.856196,-8.6275,11.2525,-10.1675
281,211021,0.529968,0.118096,-0.853756,-7.07,10.3775,-8.505
282,211118,0.5221600000000001,0.15274400000000002,-0.8510719999999999,-2.275,8.6625,-4.2875
283,211215,0.533384,0.162504,-0.8464360000000001,4.375,6.7025,0.9275
284,211312,0.534848,0.141032,-0.8508280999999999,9.7475,3.885,5.4775
285,211409,0.537776,0.116632,-0.853756,12.565,0.98,9.0125
286,211506,0.539972,0.09418401,-0.8549761,13.7025,-1.3825,11.5325
287,211604,0.525088,0.067832,-0.853756,13.5275,-3.885,13.265
288,211701,0.5206960999999999,0.0244,-0.849852,12.53,-4.8825,13.5975
289,211798,0.525576,0.014884,-0.8493641,10.6575,-5.075,12.81
290,211895,0.5219159999999999,0.015616,-0.846924,8.4875,-4.7075,11.5325
291,211992,0.508252,0.029036000000000003,-0.8491200000000001,6.8075,-4.3575,10.2375
292,212089,0.505568,0.04514,-0.847412,4.9525,-3.29,9.1875
293,212186,0.491904,0.0793,-0.8508280999999999,3.6575,-2.5025,8.6625
294,212283,0.48848800000000003,0.07002799999999999,-0.8493641,2.8875,-1.085,9.3975
295,212380,0.47384799999999994,0.071248,-0.853512,1.6975,0.35,11.1475
296,212477,0.46116,0.08564401,-0.865956,0.2625,3.2375,13.16
297,212574,0.46311199999999997,0.042456,-0.865956,-0.91,8.19,15.33
298,212672,0.482876,0.07588400000000001,-0.868884,-5.7925,14.9975,17.7275
299,212769,0.438224,0.0793,-0.8888921000000001,-9.59,22.4525,22.1725
300,212866,0.503372,0.049532,-0.8847440999999999,-10.8325,32.515,26.285
301,212963,0.40528400000000003,-0.025131999999999998,-0.9179280000000001,-14.5425,41.4225,27.965
302,213060,0.49605200000000005,0.023912,-0.91622,-12.8975,57.05,22.855
303,213157,0.44944799999999996,-0.0183,-0.9147559999999999,-13.7025,72.5725,17.2375
304,213254,0.445788,-0.061,-0.897432,-12.74,89.53,11.1825
305,213351,0.45628,-0.029036000000000003,-0.9042641,-12.0575,106.435,3.465
306,213448,0.46848,0.009028000999999999,-0.8788879999999999,-12.0225,123.69,-3.2725
307,213545,0.47823999999999994,0.022448,-0.8762040000000001,-11.305,141.89,-7.6475
308,213642,0.5043479999999999,0.07881200000000001,-0.898164,-8.085,160.44,-10.605
309,213739,0.6021920000000001,0.0854,-0.9720960999999999,-0.7175,178.8325,-11.6725
310,213837,0.5648601,0.131028,-0.8906,8.19,182.42,-8.8025
311,213934,0.588284,0.202276,-0.8662001,16.765,191.6425,-2.625
312,214031,0.570472,0.21447600000000003,-0.879864,24.745,206.9375,5.6525
313,214128,0.662948,0.22716399999999998,-0.8613200000000001,36.505,229.95,14.0175
314,214225,0.521672,0.244732,-1.0016200000000002,47.74,256.0425,22.33
315,214322,0.6480640000000001,0.109556,-0.8669319999999999,65.905,287.9975,25.83
316,214419,0.562664,0.298656,-0.99308,64.435,330.68,31.7975
317,214516,1.108492,0.24131599999999997,-1.193648,60.375,371.1925,52.9375
318,214613,1.030656,0.10833599999999999,-1.3834799999999998,61.005,418.1275,74.9175
319,214710,1.4064159999999999,-0.161772,-1.407148,59.5875,452.585,78.8025
320,214807,1.17242,-0.487512,-0.9796600000000001,24.6925,476.9975,63.14
321,214904,1.8234119999999998,0.22057600000000002,-1.930284,-20.475,504.105,43.33
322,215002,2.783064,1.000156,-2.326784,-16.135,519.61,50.575
323,215099,2.1533,0.5131319999999999,-2.633248,22.3125,530.04,100.7825
324,215196,1.89588,0.491904,-2.107916,52.8675,461.79,123.2525
325,215293,3.439668,1.174372,-3.9140040000000003,44.5375,301.5775,74.3925
326,215390,1.9593200000000002,1.808528,-4.49448,34.2825,129.29,23.8875
327,215487,0.5443640000000001,1.40544,-3.006568,98.0175,-21.3675,-13.1425
328,215584,-0.24326799999999998,0.614636,-1.8121880000000001,154.1225,-68.0575,-34.0025
329,215681,-0.21813600000000002,0.018788,-1.4691239999999999,142.8175,-77.9625,-48.195
330,215778,0.026108,-0.08637601,-1.5196319999999999,78.5225,-92.0675,-61.3025
331,215875,0.233996,0.038308,-1.652368,20.825,-122.57,-62.475
332,215972,0.259128,0.08637601,-1.618696,1.9425,-163.8175,-46.3925
333,216069,0.21276799999999998,-0.009028000999999999,-1.459608,5.74,-204.505,-22.05
334,216166,0.203984,-0.126636,-1.281244,5.3025,-238.42,-1.4525
335,216264,0.219356,-0.179584,-1.148996,-10.01,-266.8575,11.4625
336,216361,0.27205999999999997,-0.160064,-1.06628,-31.8675,-291.41,17.9025
337,216458,0.323056,-0.110776,-0.9967401,-50.6625,-312.8825,20.3525
338,216555,0.354044,-0.090036,-0.9171961,-60.3925,-330.47,21.1925
339,216652,0.384544,-0.09906401,-0.8488761,-65.0125,-342.685,20.5275
340,216749,0.44066400000000006,-0.112972,-0.81862,-68.8975,-350.14,17.99
341,216846,0.5170359999999999,-0.121512,-0.834968,-73.7275,-354.4975,15.0325
342,216943,0.6197600000000001,-0.11614400000000001,-0.9089001,-79.345,-357.07,11.935
343,217040,0.731024,-0.09247601,-1.009672,-85.155,-360.5175,8.89
344,217137,0.84424,-0.06270801,-1.125816,-90.195,-365.19,5.5125
345,217234,0.9467200000000001,-0.082716,-1.198528,-94.115,-370.2125,1.225
346,217331,1.0675,-0.132492,-1.248304,-100.66,-373.38,-4.48
347,217428,1.2078,-0.200812,-1.285392,-112.245,-372.9075,-10.8675
348,217525,1.353956,-0.2257,-1.325896,-128.2575,-368.6375,-17.3775
349,217622,1.474248,-0.188124,-1.372744,-142.6775,-359.695,-24.2725
350,217720,1.708488,-0.13298,-1.524024,-148.5225,-344.2075,-31.675
351,217817,2.173064,-0.08466801,-1.779736,-144.7425,-328.3,-39.8825
352,217914,2.691076,-0.0305,-1.970056,-133.525,-324.695,-49.98
353,218011,2.9506919999999996,0.09223200000000001,-1.7746119999999999,-112.9625,-335.9475,-61.53
354,218108,3.0622,0.22423600000000002,-1.2519639999999999,-81.32251,-343.8225,-72.94
355,218205,3.223728,0.332328,-0.7978801,-44.17,-333.48,-84.4025
356,218302,3.3105919999999998,0.4575,-0.429684,-13.9475,-317.17,-99.925
357,218399,3.263744,0.6007279999999999,-0.061,6.685,-302.0325,-125.02
358,218496,3.2761880000000003,0.567056,0.271328,23.1875,-279.8425,-157.6925
359,218593,3.2813120000000002,-0.523868,1.053348,34.055,-249.795,-196.5075
360,218690,3.826164,-1.3725,1.8451279999999999,-12.075,-213.3775,-240.3975
361,218787,3.931572,-1.3571280000000001,2.441464,-83.1075,-166.7225,-241.57
362,218885,3.383304,-1.143872,2.4051080000000002,-89.0575,-89.95,-175.0875
363,218982,3.043168,-1.348344,1.730448,-27.37,7.6825,-75.495
364,219079,2.7669599999999996,-1.244888,0.78446,9.6775,76.65,6.7025
365,219176,0.724436,-0.000976,1.6738400000000002,56.6125,117.74,75.5125
366,219273,-0.726876,-0.96624,-1.731424,193.8825,236.285,155.295
367,219370,0.727364,-0.8052,-0.801784,140.3675,328.86,159.355
368,219467,1.694336,-0.741028,-0.698816,77.07,342.0025,110.215
369,219564,2.1596439999999997,-0.815936,-1.969324,23.275,348.88,65.065
370,219661,1.9942119999999999,-0.538996,-1.381284,17.7975,320.1275,68.425
371,219758,2.086688,0.572912,-1.814872,-21.8225,286.8075,50.9075
372,219855,1.8060880000000001,0.762012,-1.488644,-7.5425,245.105,20.79
373,219952,2.4851400000000003,-0.011224,-2.35948,11.4625,200.1125,-14.035
374,220049,2.32166,0.2562,-1.8404919999999998,27.755,124.8625,-8.3125
375,220147,0.464088,0.017568,-0.8025161,33.9325,40.6,-6.65
376,220244,0.7937320999999999,-0.119804,-0.960628,25.4975,33.9325,-12.495
377,220341,0.786656,0.349652,-0.966728,12.845,18.7775,-0.7
378,220438,0.532408,0.048312,-0.85888,17.29,5.215,1.295
379,220535,0.62098,0.058803999999999995,-0.897432,15.715,4.4975,5.74
380,220632,0.5612,0.00976,-0.8901120000000001,12.8275,-0.21,7.0
381,220729,0.5516840000000001,-0.00976,-0.8862081,10.325,-0.0875,4.13
382,220826,0.5248441,-0.008784,-0.883768,6.825,-0.455,1.6275
383,220923,0.5009319999999999,-0.038551999999999996,-0.8842561,3.465,0.875,-2.0125
384,221020,0.484096,-0.019032,-0.869128,-1.4,3.99,-5.74
385,221117,0.493856,0.010004,-0.8693719999999999,-6.125,7.4025,-8.6975
386,221214,0.50264,0.058072000000000006,-0.8591241,-7.7875,9.5025,-9.905
387,221311,0.49849209999999994,0.12761199999999998,-0.8471681000000001,-6.4225,10.08,-8.1725
388,221409,0.5038600000000001,0.174216,-0.8447280999999999,-2.7475,9.7475,-4.725
389,221506,0.5119121,0.194712,-0.8403360000000001,1.155,8.5575,-0.7
390,221603,0.511668,0.194956,-0.8383841000000001,4.9175,6.8075,3.885
391,221700,0.512644,0.15982000000000002,-0.8464360000000001,8.47,4.6375,9.345
392,221797,0.530212,0.13908,-0.8549761,11.2525,2.31,15.715
393,221894,0.53314,0.086132,-0.8476561,13.37,-0.56,20.335
394,221991,0.532652,0.041724000000000004,-0.8413120000000001,13.825,-2.275,22.3125
395,222088,0.537288,0.00976,-0.8447280999999999,12.3025,-2.485,21.8225
396,222185,0.522404,0.016347999999999998,-0.8483879999999999,10.22,-1.75,19.7225
397,222282,0.504104,0.027816000000000004,-0.849852,7.595,0.245,17.5875
398,222379,0.489464,0.037088,-0.8549761,5.2325,2.5725,16.03
399,222476,0.506544,0.05929201,-0.862784,3.1675,6.1075,16.45
400,222574,0.49654,0.054412,-0.8481440999999998,2.0825,9.1175,17.78
401,222671,0.47043199999999996,0.129564,-0.877668,-0.8225,12.145,21.07
402,222768,0.5170359999999999,0.07173600000000001,-0.8522921,-0.7875,17.885,26.1975
403,222865,0.48556000000000005,0.07393200000000001,-0.885964,-5.3725,23.0475,31.99
404,222962,0.487756,-0.02928,-0.845216,-5.3025,30.2925,33.565
405,223059,0.49166000000000004,0.024156,-0.8866961,-7.455,40.915,30.3625
406,223156,0.513376,0.003904,-0.8866961,-7.5775,52.36,28.2275
407,223253,0.46457600000000004,-0.056852,-0.8884040000000001,-8.505,66.045,25.2
408,223350,0.45335200000000003,-0.002684,-0.9181720999999999,-10.045,81.06,18.8125
409,223447,0.470188,-0.026351999999999997,-0.8708360999999999,-8.295,97.3,11.7075
410,223544,0.48312,0.008540001,-0.8823040000000001,-8.7675,113.3825,5.495
411,223641,0.48116800000000004,-0.004392,-0.8764481,-5.705,128.6775,-0.105
412,223739,0.499712,0.032695999999999996,-0.8874280999999999,-2.3625,146.37,-4.8825
413,223836,0.5856,0.061732,-0.959408,3.1325,165.2175,-7.0
414,223933,0.556808,0.08857201,-0.9152440000000001,12.6875,173.985,-5.285
415,224030,0.548268,0.16909200000000002,-0.913292,21.28,186.515,-1.54
416,224127,0.5604680000000001,0.22716399999999998,-0.8971879999999999,31.5,204.9075,4.34
417,224224,0.605608,0.279136,-0.8849879999999999,42.84,228.305,13.37
418,224321,0.523624,0.262056,-0.9572120999999999,58.6075,258.7725,24.36
419,224418,0.53314,0.19885999999999998,-1.029924,73.3425,289.3625,33.9325
420,224515,0.6724640000000001,0.205936,-1.037,80.3075,335.1075,40.6875
421,224612,1.671156,0.251564,-1.0906799999999999,73.8675,378.4725,56.945
422,224709,1.0797,0.18544000000000002,-1.319308,71.9775,429.2925,81.7075
423,224806,1.461072,-0.08344800000000001,-1.4957200000000002,75.5125,470.785,96.4425
424,224904,1.4600959999999998,-0.250344,-1.239276,39.3575,495.775,86.4325
425,225001,1.9954319999999999,-0.1647,-1.6565159999999999,11.1825,521.7975,70.385
426,225098,2.71938,0.883768,-2.4685479999999997,-23.4675,539.4725,62.2125
427,225195,2.516372,0.904752,-3.040484,2.8875,536.0775,112.5075
428,225292,2.022272,0.357704,-2.81332,83.3175,440.265,143.57
429,225389,3.811036,0.9203680000000001,-4.177524,66.99,260.8375,96.49501
430,225486,1.159,1.72508,-3.7334440000000004,43.4,89.72251,56.63
431,225583,0.125172,1.39202,-2.7633,107.0125,-22.5575,21.9625
432,225680,-0.320128,0.6893,-1.93248,151.48,-45.4475,-7.945
433,225777,-0.143716,0.329888,-1.807552,121.2225,-57.8025,-41.37
434,225874,0.058803999999999995,0.38795999999999997,-1.8778240000000002,60.27,-85.78501,-69.79
435,225971,0.15982000000000002,0.400404,-1.871968,31.0975,-126.0875,-77.77
436,226068,0.172752,0.211304,-1.73606,31.8675,-170.52,-67.62001
437,226166,0.195688,-0.02196,-1.559892,29.2425,-212.45,-52.675
438,226263,0.23009200000000002,-0.11760799999999999,-1.4039760000000001,7.42,-251.0725,-41.1075
439,226360,0.261812,-0.10516400000000001,-1.260504,-20.9475,-284.9175,-32.9875
440,226457,0.34404,-0.07246799999999999,-1.1690040000000002,-42.245,-312.445,-26.2325
441,226554,0.44334799999999996,-0.07198,-1.096536,-53.8125,-335.3,-20.825
442,226651,0.480192,-0.115656,-0.9974719999999999,-59.5175,-355.3025,-17.5875
443,226748,0.553148,-0.16835999999999998,-0.934276,-65.52,-369.5475,-16.8525
444,226845,0.626836,-0.183976,-0.9108521,-74.0775,-379.645,-16.835
445,226942,0.701256,-0.17812,-0.93696,-81.39251,-386.05,-16.0475
446,227039,0.800564,-0.162748,-1.018944,-85.99501,-389.5675,-14.2275
447,227136,0.9042641,-0.175924,-1.13216,-88.25251,-392.3675,-11.935
448,227233,1.0060120000000001,-0.22691999999999998,-1.2056040000000001,-91.6475,-395.08,-10.955
449,227331,1.093608,-0.252052,-1.24684,-100.5725,-396.27,-11.83
450,227428,1.2343959999999998,-0.26156799999999997,-1.30174,-111.86,-392.2975,-13.09
451,227525,1.44814,-0.269864,-1.410076,-122.22,-382.9525,-13.615
452,227622,1.6108879999999999,-0.2684,-1.464732,-129.5,-372.155,-15.7325
453,227719,1.78486,-0.24424400000000002,-1.518168,-133.105,-358.96,-20.5975
454,227816,2.163304,-0.19983599999999999,-1.677012,-133.3325,-342.5625,-28.735
455,227913,2.6278799999999998,-0.10833599999999999,-1.826828,-127.8025,-333.9875,-42.2275
456,228010,2.966064,0.020496,-1.778028,-111.3,-338.415,-59.64
457,228107,3.21104,0.075396,-1.474492,-81.32251,-344.54,-78.015
458,228204,3.3227919999999997,0.134688,-1.016504,-48.9125,-345.8875,-97.1775
459,228301,3.314496,0.23424,-0.546804,-21.77,-340.5675,-116.4975
460,228399,3.3515839999999995,0.41602,-0.19276,0.875,-326.655,-137.515
461,228496,3.3628080000000002,0.370148,0.214232,24.3425,-304.1325,-160.37
462,228593,3.575332,-0.870592,1.145824,37.3275,-271.6875,-191.8525
463,228690,4.36028,-1.634556,2.125972,-28.945,-235.3225,-226.4325
464,228787,4.160932,-1.1897440000000001,2.749148,-118.9125,-188.4925,-208.7925
465,228884,3.386232,-0.8166680000000001,2.636664,-115.2375,-98.40250999999999,-129.4125
466,228981,3.123688,-1.040416,1.764852,-35.875,16.87,-30.275
467,229078,3.046096,-0.9115840000000001,0.6373281,1.715,90.9125,43.1725
468,229175,1.867088,1.3725,0.015372,-16.5375,99.33001,83.195
469,229272,-1.764852,-0.189588,0.9232961,135.695,149.03,137.935
470,229369,-0.6392800000000001,-0.36502399999999996,-1.5262200000000001,187.8625,274.05,152.215
471,229467,1.103124,-0.984784,-0.050996,128.2225,323.785,102.9525
472,229564,2.226012,-1.252208,-1.99348,57.295,359.17,49.49
473,229661,2.2384560000000002,-1.2622120000000001,-1.572824,26.9325,333.0425,54.8275
474,229758,1.863916,-0.115656,-1.67018,-1.89,289.1525,77.9975
475,229855,1.8351240000000002,1.204872,-1.577948,-30.3975,257.8625,54.9675
476,229952,1.7214200000000002,0.42748800000000003,-1.5196319999999999,8.295,223.475,10.0975
477,230049,2.600552,-0.26474000000000003,-2.3363,24.08,181.5625,-16.03
478,230146,1.815116,0.8322841000000001,-1.705804,28.945,98.4375,8.75
479,230243,0.48653599999999997,-0.099552,-0.853756,46.5325,33.04,-1.505
480,230340,0.9103641,-0.180072,-0.9725841000000001,42.28,28.105,1.2075
481,230437,0.624396,0.349408,-0.9623360999999999,23.345,7.3675,16.6425
482,230535,0.579256,-0.057584,-0.895236,31.955,1.995,14.6825
483,230632,0.5838920999999999,0.09589201,-0.9125601000000001,24.9375,-0.07,20.7725
484,230729,0.520452,0.033184,-0.906216,23.7475,-2.5025,19.1275
485,230826,0.522648,-0.023668,-0.8491200000000001,22.0675,-1.4,16.0825
486,230923,0.5119121,-0.038064,-0.8730319999999999,17.3425,0.0525,11.935
487,231020,0.49751599999999996,-0.060267999999999995,-0.8805960999999999,13.685,2.94,6.5975
488,231117,0.489708,-0.037576,-0.87718,7.77,6.72,1.225
489,231214,0.48922,-0.009272001,-0.86498,1.9425,9.695,-3.255
490,231311,0.494832,0.042212,-0.8596120999999999,-1.89,12.2325,-5.705
491,231408,0.503372,0.09735601,-0.8569280999999999,-2.7825,13.545,-5.6525
492,231505,0.514596,0.11760799999999999,-0.85034,-1.54,13.7375,-3.675
493,231602,0.50874,0.114192,-0.849852,0.3325,13.055,-1.155
494,231700,0.520208,0.125904,-0.8520479999999999,1.575,12.46,1.4875
495,231797,0.528504,0.095648,-0.847412,2.7825,11.2875,4.235
496,231894,0.528992,0.077348,-0.8457040000000001,2.9575,9.59,6.825
497,231991,0.525576,0.035624,-0.8615640999999999,2.1875,8.715,9.03
498,232088,0.49873599999999996,0.049532,-0.8554641,0.6475,8.2775,10.6925
499,232185,0.514108,0.012444,-0.8461921,-0.4375,10.99,12.005
500,232282,0.496296,0.06661201,-0.859856,-3.745,13.09,13.65
501,232379,0.509472,0.044164,-0.8422879999999999,-4.9,16.03,15.6625
502,232476,0.522404,0.06661201,-0.8459479999999999,-6.3525,19.4775,17.78
503,232573,0.467992,0.07881200000000001,-0.870592,-6.86,21.665,19.74
504,232670,0.515328,0.021472,-0.8613200000000001,-4.935,26.5125,20.0025
505,232768,0.5023960999999999,0.03294,-0.8574161,-6.2825,32.725,20.51
506,232865,0.5099600000000001,0.011712,-0.85888,-6.9125,39.9525,21.035
507,232962,0.534116,-0.027816000000000004,-0.8510719999999999,-7.63,48.9825,19.67
508,233059,0.472628,-0.05612,-0.8730319999999999,-9.4675,59.8675,15.3125
509,233156,0.47653199999999996,-0.032208,-0.8757159999999999,-12.74,73.5875,8.295
510,233253,0.47092,-0.026351999999999997,-0.8781559999999999,-13.37,89.53,1.1725
511,233350,0.47702,-0.006832001,-0.8744960999999999,-14.2975,107.17,-5.0925
512,233447,0.488976,0.0017079999999999999,-0.8657120999999999,-14.455,124.81,-10.675
513,233544,0.50874,0.043432,-0.86864,-12.8275,142.905,-15.89
514,233641,0.5514399999999999,0.067588,-0.919636,-7.9625,161.455,-19.635
515,233738,0.548268,0.10614000000000001,-0.9032879999999999,0.105,169.5925,-19.6
516,233836,0.5648601,0.162992,-0.8847440999999999,8.82,178.6575,-16.345
517,233933,0.5724239999999999,0.228384,-0.8964561,18.1475,194.6175,-11.0075
518,234030,0.64172,0.269864,-0.9154880999999999,27.5275,214.6725,-2.03
519,234127,0.524112,0.257664,-0.8762040000000001,40.495,242.2175,9.625
520,234224,0.6749041,0.22862800000000003,-0.8601,50.1025,268.8525,19.7925
521,234321,0.487512,0.18178,-0.9913719999999999,52.185,312.97,29.9775
522,234418,1.137284,0.36282800000000004,-1.1407,50.785,361.13,44.205
523,234515,1.136308,0.255712,-1.148752,50.82,415.17,69.16
524,234612,1.0911680000000001,0.07832401,-1.38714,51.555,457.3975,84.03501
525,234709,1.440576,0.011956,-1.424716,31.955,484.715,80.955
526,234807,1.5967360000000002,-0.35672800000000005,-1.41642,9.9925,510.51,73.29
527,234904,2.158668,0.0122,-1.684088,-28.9625,527.45,51.2925
528,235001,2.877004,0.8071520000000001,-2.8020959999999997,-65.0125,548.1175,56.8925
529,235098,2.440244,1.16388,-2.849432,-28.0,532.8225,122.255
530,235195,2.438536,0.13785999999999998,-3.597536,51.9575,390.5125,130.095
531,235292,3.631208,1.3163799999999999,-5.246244,21.4725,216.5625,98.75251
532,235389,0.996008,1.488156,-3.54166,47.425,38.8325,74.165
533,235486,0.076616,1.0384639999999998,-2.453176,110.4425,-36.435,52.605
534,235583,-0.157136,0.47165200000000007,-1.8356119999999998,134.19,-55.5275,32.445
535,235680,-0.050996,0.32403200000000004,-1.713612,93.03,-71.575,4.55
536,235778,0.10418800000000002,0.46506400000000003,-1.7448439999999998,37.8875,-101.0975,-22.8375
537,235875,0.195932,0.5192319999999999,-1.731912,17.1675,-139.615,-35.6475
538,235972,0.197884,0.400404,-1.5906360000000002,23.7825,-181.8075,-35.035
539,236069,0.22716399999999998,0.1891,-1.430572,30.415,-220.78,-29.2775
540,236166,0.296948,0.048068,-1.307108,19.8625,-256.9875,-24.955
541,236263,0.36478,0.012444,-1.193648,-2.2575,-291.235,-22.75
542,236360,0.426512,0.00976,-1.079212,-22.7675,-321.3525,-20.3875
543,236457,0.47823999999999994,0.013175999999999998,-0.967216,-36.6625,-346.36,-17.955
544,236554,0.518744,-0.000488,-0.873276,-44.7125,-364.77,-15.8375
545,236651,0.571204,-0.036356,-0.828624,-50.785,-376.985,-14.735
546,236748,0.662948,-0.038064,-0.8300879999999999,-58.5025,-385.245,-14.8225
547,236846,0.7327321,-0.024888,-0.8708360999999999,-65.6075,-391.3175,-14.665
548,236943,0.8396040000000001,-0.032695999999999996,-0.954284,-71.0325,-394.7475,-14.0175
549,237040,0.9547720999999999,-0.038551999999999996,-1.0687200000000001,-77.9275,-397.9325,-14.21
550,237137,1.061156,-0.046360000000000005,-1.192184,-87.045,-402.3425,-16.6425
551,237234,1.16754,-0.09320801,-1.274168,-97.1075,-406.0,-20.72
552,237331,1.3005200000000001,-0.166652,-1.3054,-109.3575,-405.8425,-24.2025
553,237428,1.496208,-0.174216,-1.369816,-125.37,-399.945,-25.8475
554,237525,1.711416,-0.128344,-1.4398440000000001,-139.16,-389.06,-25.7775
555,237622,1.9114959999999999,-0.08052000000000001,-1.486448,-144.445,-374.71,-27.1775
556,237719,2.2143,-0.0732,-1.574776,-143.01,-355.9675,-32.1475
557,237817,2.696444,-0.069784,-1.724836,-139.23,-339.885,-44.1875
558,237914,3.176148,0.08296,-1.783884,-131.285,-337.6275,-61.425
559,238011,3.424784,0.223992,-1.470344,-104.44,-345.695,-76.51
560,238108,3.451624,0.29377600000000004,-0.873276,-64.05,-348.3025,-89.845
561,238205,3.438448,0.335988,-0.339404,-29.295,-338.3275,-106.05
562,238302,3.44772,0.44090799999999997,0.015128,-7.105,-319.1125,-129.325
563,238399,3.3715919999999997,0.11955999999999999,0.413092,10.22,-293.2125,-158.1475
564,238496,3.674152,-0.9655081,1.2841719999999999,8.9775,-259.4375,-200.4975
565,238593,4.3859,-1.4774200000000002,2.190632,-54.8975,-222.5475,-238.2275
566,238690,4.057232,-1.297348,2.786724,-101.4475,-170.3275,-215.775
567,238787,3.3515839999999995,-1.235616,2.553948,-75.9325,-76.825,-134.015
568,238885,3.1463799999999997,-1.362252,1.531344,-15.015,30.065,-40.1275
569,238982,3.00242,-1.1958440000000001,0.46481999999999996,10.2025,89.425,24.22
570,239079,1.463268,0.434564,0.061488,-0.7875,90.9125,53.8475
571,239176,-2.077416,0.378688,-0.4933681,90.7375,113.4175,104.44
572,239273,-1.3583479999999999,-0.640744,-0.387472,191.2925,240.87,165.935
573,239370,1.137528,-1.2465959999999998,0.079056,155.3825,342.2125,148.75
574,239467,2.6779,-0.87108,-2.36314,45.9025,382.97,83.475
575,239564,2.2057599999999997,-0.7376119999999999,-1.474004,36.89,332.5875,83.58001
576,239661,1.939312,0.345748,-1.85074,17.5525,292.5825,85.41751
577,239758,1.934188,0.909632,-1.6469999999999998,6.2825,260.085,43.05
578,239855,1.795596,-0.12322000000000001,-1.6084479999999999,37.0125,219.695,-1.5575
579,239953,2.112308,-0.774212,-1.939556,30.8175,172.69,-17.045
580,240050,1.7934,0.9618481,-1.684332,4.5325,108.7625,11.2175
581,240147,0.7068681,0.091012,-0.817156,30.8525,45.36,-4.41
582,240244,0.785192,-0.40992,-0.9684360999999999,49.105,24.08,-7.5075
583,240341,0.74664,0.43505200000000005,-0.981124,17.885,12.4425,11.3575
584,240438,0.570472,-0.098576,-0.8698601,25.9,2.1525,7.8575
585,240535,0.572912,0.017568,-0.899384,20.09,0.0525,9.2575
586,240632,0.52094,0.09052401,-0.89426,14.4725,-0.6825,10.3075
587,240729,0.515328,-0.038308,-0.8632719999999999,16.7125,0.4725,7.945
588,240826,0.49141599999999996,-0.0051240009999999996,-0.8752280000000001,12.985,2.1175,7.385
589,240923,0.48116800000000004,-0.030012,-0.879376,11.3225,5.0575,4.7775
590,241020,0.48873199999999994,0.02074,-0.87474,7.63,8.33,1.925
591,241118,0.491904,0.038064,-0.8637601,5.95,10.08,0.07
592,241215,0.503616,0.07832401,-0.8591241,5.0925,11.2875,-0.5075
593,241312,0.511424,0.109556,-0.8544879999999999,5.0925,11.2525,0.07
594,241409,0.508252,0.13298,-0.8527800999999999,6.5275,10.78,2.2225
595,241506,0.5158159999999999,0.121268,-0.8581479999999999,8.61,9.87,5.53
596,241603,0.5314321,0.11102000000000001,-0.853024,9.555,8.68,8.54
597,241700,0.518744,0.08466801,-0.8510719999999999,9.275,6.8075,11.2
598,241797,0.532896,0.049288,-0.85156,8.365,5.635,12.95
599,241894,0.5392399999999999,0.003172,-0.8642481,5.67,4.795,13.58
600,241991,0.512644,0.011956,-0.8481440999999998,2.765,4.2175,13.3525
601,242088,0.50142,0.033184,-0.8579041,0.4375,5.3725,12.5825
602,242186,0.5084960000000001,0.011712,-0.850584,0.0175,8.0675,12.6
603,242283,0.496784,0.031964,-0.8427761,-2.9575,10.885,13.02
604,242380,0.49556400000000006,0.07027201,-0.8527800999999999,-6.3875,14.5775,15.5225
605,242477,0.515084,0.046116000000000004,-0.8400921,-7.0525,18.3575,19.2675
606,242574,0.5314321,0.051972000000000004,-0.8481440999999998,-10.29,22.085,23.205
607,242671,0.47043199999999996,0.064416,-0.8881600000000001,-10.815,24.3075,26.425
608,242768,0.512888,-0.027816000000000004,-0.8479,-7.3325,29.61,25.3225
609,242865,0.48848800000000003,-0.01464,-0.8664440000000001,-8.9425,36.9075,21.4025
610,242962,0.509472,-0.012688,-0.859856,-9.0825,46.9525,17.3075
611,243059,0.45457200000000003,-0.07490801,-0.8784,-9.695,60.34,11.7775
612,243157,0.452376,-0.029524,-0.9023121,-11.585,76.5975,4.1125
613,243254,0.46945600000000004,-0.016104,-0.8805960999999999,-12.2325,94.255,-2.8
614,243351,0.475312,-0.005856,-0.874984,-13.1775,112.1225,-8.61
615,243448,0.47994799999999993,-0.009272001,-0.8620521000000001,-12.74,129.36,-14.455
616,243545,0.499712,0.0427,-0.8818159999999999,-11.2175,148.05,-19.81
617,243642,0.508008,0.07490801,-0.86864,-6.3175,168.175,-22.6625
618,243739,0.622688,0.13054000000000002,-0.9252481,0.6475,182.6475,-21.595
619,243836,0.565836,0.203252,-0.9167081,10.885,186.375,-15.2425
620,243933,0.580232,0.267424,-0.9125601000000001,20.44,203.665,-5.9675
621,244030,0.637084,0.24131599999999997,-0.9489161,30.695,224.14,5.0925
622,244128,0.471164,0.219844,-0.9296399999999999,43.26,253.6975,15.645
623,244225,0.652212,0.14884,-0.8752280000000001,54.495,281.89,22.9075
624,244322,0.45018,0.213988,-1.005524,56.0525,327.8625,29.5575
625,244419,1.3359,0.277916,-1.142164,51.485,373.0125,43.4175
626,244516,1.20902,0.187636,-1.254404,46.5325,429.2925,66.7975
627,244613,1.2627,0.01464,-1.470832,40.95,471.1525,77.2275
628,244710,1.3729879999999999,-0.07588400000000001,-1.2724600000000001,15.1025,495.6525,69.16
629,244807,1.5845360000000002,-0.525088,-1.594784,-8.435,521.0275,56.8575
630,244904,2.5754200000000003,0.599996,-2.1069400000000003,-48.5975,534.9225,39.0775
631,245001,2.699128,0.826428,-2.959476,-47.775,553.1575,74.5325
632,245098,2.257488,0.8571719999999999,-2.527108,1.435,503.65,128.975
633,245195,3.139792,0.5587601,-3.9842760000000004,33.6525,342.4925,105.665
634,245293,2.453664,1.6384599999999998,-4.874876,5.7575,163.0125,76.4575
635,245390,0.5458281,1.515484,-3.353536,61.985,-4.2525,51.8525
636,245487,-0.239852,0.8010520000000001,-2.186972,123.62,-55.72,31.2375
637,245584,-0.261324,0.25302800000000003,-1.752896,113.8025,-71.7325,8.4175
638,245681,-0.12053599999999999,0.267912,-1.707024,43.3475,-94.115,-21.49
639,245778,0.07417601,0.41846000000000005,-1.77388,-14.0,-127.785,-43.19
640,245875,0.182756,0.386496,-1.753872,-27.3525,-168.9975,-47.5825
641,245972,0.237168,0.178608,-1.61894,-20.8075,-213.3075,-41.2125
642,246069,0.258396,-0.0488,-1.43228,-22.9775,-255.36,-34.3175
643,246166,0.29768,-0.137372,-1.289296,-41.8425,-291.7775,-31.71
644,246263,0.35843600000000003,-0.12980799999999998,-1.190964,-63.4025,-321.86,-31.8675
645,246360,0.438712,-0.128344,-1.113372,-73.92,-346.1325,-31.85
646,246457,0.514352,-0.183488,-1.04798,-74.9,-364.9625,-31.5175
647,246555,0.597068,-0.256688,-0.9943001,-75.145,-380.1525,-32.095
648,246652,0.679296,-0.294508,-0.9833200000000001,-79.0475,-392.0525,-33.6875
649,246749,0.74054,-0.29426399999999997,-0.9972281,-83.6325,-400.7675,-34.23
650,246846,0.827892,-0.28792,-1.06628,-85.015,-404.81,-32.445
651,246943,0.9340321,-0.290116,-1.178764,-84.1925,-406.28,-29.3125
652,247040,1.039928,-0.334524,-1.2900280000000002,-83.3175,-406.8925,-26.67
653,247137,1.1895,-0.400892,-1.364692,-86.835,-406.4725,-25.4975
654,247234,1.365668,-0.394548,-1.4173959999999999,-96.25,-404.705,-23.695
655,247331,1.546716,-0.3599,-1.452532,-105.6475,-398.8425,-19.5125
656,247428,1.65798,-0.419192,-1.416908,-111.4575,-387.625,-15.8725
657,247525,1.813652,-0.420412,-1.437648,-119.0525,-369.0925,-15.785
658,247622,2.2189360000000002,-0.366244,-1.612352,-127.085,-345.205,-17.6925
659,247720,2.802828,-0.21716,-1.85074,-128.905,-330.2075,-23.59
660,247817,3.13662,-0.024156,-1.749968,-114.625,-334.1975,-33.3375
661,247914,3.255448,0.064416,-1.260748,-80.43,-340.165,-45.0275
662,248011,3.3332839999999995,0.193248,-0.7468840999999999,-43.9425,-333.8825,-60.515
663,248108,3.37086,0.330376,-0.324276,-13.405,-321.2475,-81.445
664,248205,3.3745199999999995,0.485072,0.013663999999999999,11.6025,-307.8425,-112.6125
665,248302,3.3608559999999996,-0.080276,0.612196,36.0675,-288.12,-152.74
666,248399,3.848612,-0.8725440999999999,1.4598520000000001,29.96,-259.98,-203.84
667,248496,4.250236,-1.47864,2.629832,-15.5575,-224.035,-234.29
668,248593,3.673176,-1.379332,3.0453639999999997,-59.6925,-158.5675,-202.2125
669,248690,3.145648,-1.1209360000000002,2.369728,-52.2725,-51.73,-116.7425
670,248788,3.018768,-1.105076,1.23708,-2.3275,48.825,-21.5425
671,248885,2.698884,-0.9862479999999999,0.40138,19.4425,94.72751,43.645
672,248982,0.243756,0.095648,2.0069,43.47,120.05,100.7825
673,249079,-0.37746799999999997,-0.19154000000000002,-1.8724560000000001,134.4,242.5675,184.695
674,249176,0.9152440000000001,-0.262056,-0.8579041,121.3275,338.415,179.2525
675,249273,1.8231680000000001,-0.081496,-0.8518040000000001,51.975,343.4025,108.885
676,249370,2.34118,-0.51118,-1.933456,36.1375,347.4625,63.07
677,249467,2.163548,-0.327448,-1.687748,31.4825,309.1725,60.235
678,249564,1.939068,0.543144,-1.6857959999999999,9.94,266.3325,49.9275
679,249661,1.7626560000000002,0.277916,-1.5525719999999998,24.43,225.9425,21.14
680,249758,2.507344,-0.37088000000000004,-2.1569599999999998,27.685,178.7625,-4.13
681,249856,1.926136,0.543388,-1.452288,24.08,93.8875,11.515
682,249953,0.428708,-0.16811600000000002,-0.9928360999999999,42.8925,14.875,-0.14
683,250050,0.9057280999999999,-0.12248800000000001,-0.8256960999999999,26.7925,26.39,-0.105
684,250147,0.590236,0.321104,-0.961116,8.715,1.6975,11.34
685,250244,0.5694961,-0.009516001,-0.8930401,18.55,3.0625,7.56
686,250341,0.567056,0.127368,-0.9442801,12.565,-0.14,12.9325
687,250438,0.542656,0.01464,-0.886452,13.825,-2.9225,12.5475
688,250535,0.510692,0.031964,-0.889136,12.2675,-4.3225,10.9375
689,250632,0.5077640999999999,-0.039528,-0.883524,10.465,-2.065,7.875
690,250729,0.496784,-0.040748,-0.8805960999999999,6.1775,0.7175,3.5175
691,250826,0.49288000000000004,-0.018788,-0.8730319999999999,0.9625,4.2175,-1.435
692,250924,0.491904,-0.0061,-0.869616,-3.36,7.8225,-5.635
693,251021,0.50264,0.000732,-0.862784,-6.86,10.9725,-8.2775
694,251118,0.5072760000000001,0.047092,-0.8632719999999999,-9.695,13.23,-9.835
695,251215,0.518012,0.0854,-0.8571719999999999,-10.15,14.4375,-9.695
696,251312,0.520452,0.11053199999999999,-0.853024,-8.155,14.7175,-7.6125
697,251409,0.5353359999999999,0.13151600000000002,-0.8525360000000001,-5.0925,14.28,-4.6025
698,251506,0.544852,0.125172,-0.8486319999999999,-1.89,12.6875,-1.5225
699,251603,0.5355800999999999,0.105652,-0.8459479999999999,0.7875,10.9375,1.3825
700,251700,0.5355800999999999,0.091012,-0.847412,2.6075,9.45,4.165
701,251797,0.5309441,0.075396,-0.8481440999999998,3.7275,8.085,6.6325
702,251894,0.5185,0.06124401,-0.8481440999999998,4.13,7.7175,8.4875
703,251991,0.537532,0.014396,-0.8418,3.85,8.295,9.905
704,252089,0.519964,0.0366,-0.8371639999999999,0.9275,8.4175,11.2525
705,252186,0.51484,0.052216,-0.836676,-2.0825,9.695,12.95
706,252283,0.5231359999999999,0.10004,-0.8459479999999999,-4.2875,11.445,15.54
707,252380,0.534848,0.08808401,-0.83204,-4.62,13.02,19.775
708,252477,0.528016,0.09442801,-0.8361879999999999,-6.3525,14.1575,24.6225
709,252574,0.493856,0.07246799999999999,-0.8518040000000001,-7.3675,15.9775,29.19
710,252671,0.535824,0.012688,-0.8471681000000001,-7.5775,20.3175,31.6225
711,252768,0.5077640999999999,0.050752,-0.8586360000000001,-10.045,26.3025,31.29
712,252865,0.492392,0.029768,-0.86498,-10.6575,34.8075,29.47
713,252962,0.496296,0.020496,-0.8679081,-10.85,45.71,26.6175
714,253059,0.46042799999999995,-0.002196,-0.904752,-10.5,58.6775,22.75
715,253157,0.465308,0.004636001,-0.9059721,-9.7475,74.0075,17.325
716,253254,0.4697,-0.014396,-0.8757159999999999,-9.03,90.07251,11.5675
717,253351,0.48068,-0.036112,-0.8801081000000001,-8.2075,106.05,5.145
718,253448,0.48312,-0.023424,-0.8801081000000001,-6.51,122.605,-2.5725
719,253545,0.491904,0.01342,-0.885476,-3.78,141.7325,-9.905
720,253642,0.6441600000000001,0.06563601,-0.9725841000000001,1.5925,160.6325,-14.6475
721,253739,0.534604,0.13639600000000002,-0.9423280999999999,10.85,164.64,-15.3125
722,253836,0.552416,0.185928,-0.907436,19.355,178.815,-12.145
723,253933,0.543388,0.225456,-0.908168,27.195,196.9625,-4.8125
724,254030,0.5887720000000001,0.269864,-0.965752,38.9375,223.86,4.62
725,254127,0.523624,0.214964,-1.041636,53.095,253.225,13.1075
726,254224,0.6912520000000001,0.171776,-1.045052,65.29251,292.635,17.3075
727,254322,0.9767321,0.312808,-0.9625799999999999,66.92,338.8,26.8625
728,254419,0.758108,0.28426,-1.2963719999999999,64.295,388.885,48.44
729,254516,0.8969440000000001,0.07856801,-1.47986,72.415,439.18,69.59751
730,254613,1.435208,-0.071248,-1.486936,65.625,474.39,71.96
731,254710,1.2627,-0.401868,-1.122156,34.7725,502.7575,62.3175
732,254807,1.842932,-0.24497600000000003,-1.685064,-12.53,525.945,40.0225
733,254904,2.680584,0.9408639999999999,-2.494412,-58.66,543.725,35.875
734,255001,2.202832,0.8957241,-2.681804,-40.495,547.19,93.695
735,255098,1.724104,0.241804,-2.455616,29.435,455.35,125.4925
736,255195,4.0582080000000005,1.097512,-4.545964,-1.505,295.645,96.075
737,255292,1.539152,1.6804279999999998,-4.06992,19.845,104.265,65.8
738,255389,0.43602799999999997,1.422032,-2.949716,94.72751,-32.865,36.26
739,255487,-0.34428400000000003,0.694912,-1.803404,161.7175,-76.0025,21.665
740,255584,-0.346724,0.16835999999999998,-1.4152,153.86,-84.5075,5.95
741,255681,-0.12322000000000001,0.12688,-1.4210559999999999,89.5125,-96.04,-18.9525
742,255778,0.15738,0.31524800000000003,-1.5791680000000001,30.5025,-120.68,-38.5
743,255875,0.270352,0.43505200000000005,-1.6143040000000002,12.67,-158.375,-42.035
744,255972,0.277916,0.331596,-1.495232,25.55,-199.1325,-33.5125
745,256069,0.28987199999999996,0.12932000000000002,-1.331264,37.135,-235.48,-23.835
746,256166,0.33623200000000003,-0.008052001,-1.1960879999999998,28.735,-267.575,-19.6
747,256263,0.410408,-0.02562,-1.102392,6.6675,-296.03,-19.81
748,256360,0.47458,-0.01098,-1.024556,-13.3875,-320.7925,-20.265
749,256457,0.527284,-0.013908000000000002,-0.9455,-24.0975,-340.655,-19.1275
750,256555,0.582916,-0.06075601,-0.8962120000000001,-29.61,-355.285,-17.255
751,256652,0.648796,-0.089792,-0.863028,-35.77,-366.1875,-15.8025
752,256749,0.706624,-0.10687200000000001,-0.8559521000000001,-43.26,-373.9575,-14.21
753,256846,0.781044,-0.09394001,-0.8998719999999999,-51.3625,-377.7375,-11.9175
754,256943,0.892308,-0.07246799999999999,-1.00406,-58.975,-379.6275,-9.5725
755,257040,0.9979600000000001,-0.07002799999999999,-1.118252,-66.15,-381.8675,-8.435
756,257137,1.1087360000000002,-0.09442801,-1.197308,-74.375,-384.2125,-8.9425
757,257234,1.2404959999999998,-0.122,-1.2397639999999999,-85.8725,-384.5625,-10.36
758,257331,1.411052,-0.118584,-1.28588,-100.73,-381.08,-12.53
759,257428,1.550864,-0.069052,-1.305156,-115.08,-373.94,-15.7325
760,257525,1.7333759999999998,0.011468,-1.356884,-124.53,-361.2875,-22.1025
761,257622,2.095716,0.135176,-1.535736,-127.3475,-344.2075,-31.3075
762,257720,2.580788,0.21472,-1.7233720000000001,-119.56,-332.15,-43.3125
763,257817,2.936784,0.288164,-1.6757919999999997,-104.265,-334.25,-60.5675
764,257914,3.188348,0.46238,-1.4125159999999999,-83.1425,-341.6525,-83.475
765,258011,3.343288,0.60878,-0.9962521000000001,-48.895,-343.6475,-106.575
766,258108,3.294488,0.699548,-0.491904,-6.5975,-338.765,-127.925
767,258205,3.25496,0.727364,-0.054412,31.15,-323.89,-150.2375
768,258302,3.253984,0.7808001,0.252296,55.195,-301.0525,-176.015
769,258399,3.2778959999999997,0.362584,0.7283400999999999,67.795,-273.035,-205.4325
770,258496,3.405264,-0.846924,1.657248,51.975,-240.5375,-247.03
771,258593,3.908636,-1.321016,2.401204,-34.09,-199.1325,-291.4625
772,258691,3.540928,-0.984296,2.566392,-108.955,-141.0675,-281.0675
773,258788,2.952644,-1.011868,2.080832,-87.1675,-49.315,-199.0275
774,258885,2.72914,-1.329312,1.1509479999999999,-25.2175,40.3375,-93.5375
775,258982,1.9822560000000002,-1.049444,0.34038,-9.205,82.705,-9.8175
776,259079,-0.334524,-0.764452,3.3196199999999996,30.835,127.33,72.1
777,259176,-0.26108000000000003,-0.9137799999999999,-1.670668,83.72001,301.5075,158.97
778,259273,2.084248,-0.333304,-1.4034879999999998,16.17,417.9525,152.495
779,259370,1.605764,-0.09516001,-0.386252,-22.155,390.7575,111.7375
780,259467,1.800232,0.13664,-1.504504,-19.1975,406.875,86.38
781,259564,1.9951880000000002,0.8169121,-1.131184,-12.7225,407.2075,73.815
782,259662,4.208756,1.5579399999999999,-4.493504,34.1425,387.9925,61.3375
783,259759,7.281692999999999,0.5043479999999999,-1.3419999999999999,108.0975,229.8975,-9.905
784,259856,-1.554768,-1.407148,-1.265628,164.0275,-59.1675,92.19001
785,259953,1.036268,0.5843801,-1.2341520000000001,-1.1025,21.5775,35.9625
786,260050,0.417728,-0.304268,-0.682712,10.465,7.84,-0.1225
787,260147,0.686128,0.28157600000000005,-0.8759601,7.14,8.225,1.365
788,260244,0.5546121,0.11028800000000001,-0.85034,10.8325,-2.135,4.62
789,260341,0.60268,0.17519200000000001,-0.865956,15.995,-5.775,10.535
790,260438,0.5023960999999999,-0.010736,-0.8874280999999999,18.5675,-12.0575,15.1375
791,260535,0.555588,0.09223200000000001,-0.9037761000000001,17.7275,-10.3075,13.7375
792,260632,0.5221600000000001,0.005612,-0.8632719999999999,16.2925,-9.975,12.5125
793,260729,0.503616,0.032695999999999996,-0.8640040000000001,14.8575,-7.595,10.57
794,260826,0.5009319999999999,0.039528,-0.8759601,12.46,-5.4425,8.7675
795,260924,0.5011760000000001,-0.013663999999999999,-0.8613200000000001,10.9725,-2.17,7.0
796,261021,0.5023960999999999,0.0034159999999999998,-0.8615640999999999,7.28,1.015,4.095
797,261118,0.516792,0.01952,-0.8581479999999999,3.9375,3.255,1.6625
798,261215,0.5131319999999999,0.011712,-0.85644,2.065,4.515,0.2625
799,261312,0.514108,0.027327999999999998,-0.8581479999999999,0.245,5.285,-1.1025
800,261409,0.513864,0.039772,-0.856196,-0.735,6.055,-1.925
801,261506,0.514596,0.056852,-0.8581479999999999,-1.1025,6.2825,-1.855
802,261603,0.5192319999999999,0.06539201,-0.853512,-0.77,6.125,-1.1025
803,261700,0.5260640000000001,0.07076001,-0.849852,-0.07,5.5125,0.2275
804,261797,0.53192,0.067832,-0.8486319999999999,0.7875,4.27,1.9075
805,261894,0.528504,0.06636801,-0.8457040000000001,1.435,2.5025,3.605
806,261992,0.515328,0.046116000000000004,-0.8479,1.82,1.1025,4.8825
807,262089,0.516304,0.035624,-0.856196,2.205,0.6825,6.09
808,262186,0.512644,0.015372,-0.8491200000000001,2.1,0.7525,6.965
809,262283,0.5170359999999999,0.022692,-0.849608,1.3125,1.3125,7.5075
810,262380,0.513864,0.036112,-0.8471681000000001,0.0525,2.2225,7.735
811,262477,0.510936,0.051484,-0.8491200000000001,-1.1025,3.255,9.0125
812,262574,0.49873599999999996,0.08052000000000001,-0.8601,-1.6975,4.1125,10.57
813,262671,0.51118,0.061975999999999996,-0.8540000000000001,-1.33,5.67,12.8275
814,262768,0.49849209999999994,0.0671,-0.856684,-2.275,7.28,15.6275
815,262865,0.505568,0.06954,-0.8522921,-3.4825,9.7125,18.8475
816,262962,0.5206960999999999,0.0793,-0.8574161,-4.9875,13.3,22.1025
817,263059,0.496784,0.079544,-0.876692,-6.055,17.6575,26.215
818,263157,0.44286000000000003,0.034892,-0.9059721,-4.9875,24.0625,28.63
819,263254,0.488976,0.011956,-0.9028,-2.205,35.385,25.235
820,263351,0.44896,-0.008052001,-0.908168,-2.3975,47.74,22.7325
821,263448,0.44212799999999997,-0.067832,-0.9415959999999999,-0.5775,62.1075,18.76
822,263545,0.433832,-0.069784,-0.9106081,0.63,76.7725,11.6725
823,263642,0.444324,-0.045872,-0.9067040000000001,-0.1225,94.51751,4.2175
824,263739,0.454084,-0.00122,-0.9179280000000001,-0.3675,113.26,-0.8400001
825,263836,0.46945600000000004,0.024156,-0.9191481,1.6275,133.3325,-3.57
826,263933,0.481412,0.0183,-0.89792,6.5625,154.6125,-5.1275
827,264030,0.58194,0.037088,-0.9059721,13.125,171.5525,-6.3875
828,264127,0.502884,0.09272000000000001,-0.9323239999999999,18.8125,178.43,-5.845
829,264225,0.5158159999999999,0.122244,-0.9086559999999999,24.4475,197.3125,-4.34
830,264322,0.618784,0.307196,-0.9730721,28.6825,219.1525,0.735
831,264419,0.45286400000000004,0.31354,-1.005768,47.7925,249.97,13.58
832,264516,0.49556400000000006,0.20447200000000001,-1.063352,74.9525,290.7275,23.7825
833,264613,0.522892,0.233752,-1.174372,85.55751,343.07,30.9925
834,264710,1.477908,0.30866,-1.267092,91.2975,395.4475,42.595
835,264807,0.7747001,0.13054000000000002,-1.512556,100.1525,448.595,60.445
836,264904,1.241228,-0.5009319999999999,-1.362252,115.78,488.1275,68.8975
837,265001,1.575264,0.10760399999999999,-1.6635919999999997,76.30001,516.3725,52.465
838,265098,2.170868,0.7951961,-1.885144,55.79,531.3525,51.485
839,265196,1.8243880000000001,0.8127641,-2.056676,96.0575,554.12,85.55751
840,265293,1.903688,0.9616040000000001,-2.0169040000000003,109.375,541.975,132.65
841,265390,1.884412,0.465796,-3.15492,153.79,432.6525,131.635
842,265487,3.7485720000000002,1.15412,-4.753851999999999,102.7775,246.6975,87.85
843,265584,1.369816,1.7280080000000002,-3.703676,114.73,34.5625,42.49
844,265681,0.236192,1.413492,-2.27042,176.5225,-99.575,22.26
845,265778,-0.513864,0.8274040000000001,-1.037,244.685,-133.0875,30.87
846,265875,-0.368684,0.248148,-0.73078,254.66,-119.56,36.995
847,265972,0.038308,0.086864,-0.9354959999999999,202.9475,-114.4325,23.94
848,266069,0.320616,0.448716,-1.2580639999999998,129.9375,-137.2175,5.74
849,266166,0.407968,0.800564,-1.4032440000000002,99.8375,-176.785,-0.245
850,266264,0.4392,0.8845,-1.386408,116.9875,-218.505,3.6925
851,266361,0.48556000000000005,0.772016,-1.292224,146.9475,-257.3725,7.6125
852,266458,0.543632,0.620004,-1.146068,161.0,-293.79,5.9675
853,266555,0.595604,0.561688,-0.9955200000000001,152.8975,-326.8125,-1.085
854,266652,0.6265921,0.620004,-0.8744960999999999,133.8225,-353.29,-10.3775
855,266749,0.669292,0.729316,-0.7983680000000001,119.3675,-371.1925,-17.885
856,266846,0.73688,0.785924,-0.7539600000000001,115.4825,-381.36,-22.4
857,266943,0.8091041,0.782508,-0.754204,114.905,-386.5925,-25.27
858,267040,0.9264680000000001,0.79056,-0.8054439999999999,108.325,-388.57,-27.6325
859,267137,1.03944,0.840824,-0.892064,93.94,-389.9525,-31.4125
860,267235,1.1775440000000001,0.8791321,-0.9633120999999999,75.04,-391.5275,-39.1475
861,267332,1.291736,0.9120720999999999,-0.9911281,52.6575,-393.3475,-50.855
862,267429,1.387628,0.924516,-0.979416,28.595,-391.895,-65.15250999999999
863,267526,1.49206,0.9318360000000001,-0.9577,2.73,-384.6675,-81.74251
864,267623,1.642364,1.019676,-0.9940559999999999,-25.1825,-372.1025,-101.43
865,267720,1.8409799999999998,1.215852,-1.084092,-47.6175,-356.545,-125.6675
866,267817,2.150616,1.467416,-1.222928,-54.8625,-340.305,-156.3275
867,267914,2.566636,1.713368,-1.3712799999999998,-43.1375,-326.76,-195.265
868,268011,3.018768,1.878312,-1.40422,-13.2125,-319.4625,-241.0625
869,268108,3.344996,1.969568,-1.203652,30.415,-319.6025,-288.12
870,268205,3.4630919999999996,1.8709919999999998,-0.771528,82.53,-320.5475,-326.8475
871,268302,3.407948,1.594052,-0.2684,126.77,-312.9525,-352.8175
872,268400,3.288876,1.363472,0.171044,143.6225,-292.3725,-371.1225
873,268497,3.167364,1.21146,0.49141599999999996,136.85,-260.6625,-383.6175
874,268594,3.054148,1.1570479999999999,0.650992,119.7875,-223.37,-388.0275
875,268691,3.047804,1.0126,0.755912,104.0725,-185.9025,-384.23
876,268788,3.168096,0.508008,0.957944,89.0575,-152.1625,-374.9025
877,268885,3.297904,-0.6373281,1.50426,54.46,-124.425,-356.5275
878,268982,3.2652080000000003,-1.087508,2.0191,-34.2825,-95.13,-332.4825
879,269079,2.8304,-0.112728,1.758264,-105.0175,-43.155,-284.3575
880,269176,2.5922560000000003,-0.35087199999999996,1.134844,-23.8175,35.28,-187.495
881,269273,2.34118,-2.105232,1.6906759999999998,55.4225,91.91001,-93.6425
882,269370,0.443104,-0.14347200000000002,1.825364,-62.72,146.1075,-51.905
883,269467,-0.0366,-0.585112,-2.15452,-115.92,238.4375,-45.2375
884,269564,0.311832,-0.08662001,-1.071892,-91.455,271.67,-2.555
885,269662,1.4435040000000001,0.090768,-0.621468,-101.0625,302.7675,36.7325
886,269759,2.019588,0.494832,-1.8953919999999997,-103.8975,319.8125,25.935
887,269856,1.2841719999999999,0.251564,-0.7759199999999999,-64.5225,286.8775,26.4075
888,269953,5.107652,2.22528,-5.841116,-25.305,254.8,38.5875
889,270050,1.837076,0.196176,0.18470799999999998,84.56,77.175,-6.58
890,270147,0.23521599999999998,-0.083936,-1.135576,50.995,-43.5225,55.8075
891,270244,0.6441600000000001,0.128344,-1.12606,48.685,39.13,20.7725
892,270341,0.549732,0.12078,-0.9777081,23.765,-6.2125,22.7675
893,270438,0.5675439999999999,0.11321600000000001,-0.812032,18.76,-1.155,19.74
894,270535,0.577548,0.185928,-0.8784,14.595,-10.01,21.84
895,270633,0.5233800000000001,0.098576,-0.864492,16.59,-13.8075,23.0475
896,270730,0.53314,0.10126,-0.8679081,15.12,-14.735,22.995
897,270827,0.522892,0.046116000000000004,-0.8723001,15.9425,-14.4375,22.015
898,270924,0.521184,0.09272000000000001,-0.8796200000000001,14.175,-13.5975,21.1575
899,271021,0.47555600000000003,0.039772,-0.8727879999999999,14.9625,-12.8625,22.225
900,271118,0.4933681,-0.012688,-0.885476,12.985,-10.08,21.0525
901,271215,0.49044,-0.021228,-0.8744960999999999,10.36,-6.8075,17.605
902,271312,0.47458,-0.031476,-0.8727879999999999,7.49,-3.01,14.0875
903,271409,0.47458,-0.037332,-0.879376,4.6025,1.4525,10.5
904,271506,0.46018400000000004,-0.0061,-0.893284,1.68,5.915,6.545
905,271603,0.486048,-0.008540001,-0.8764481,-0.105,9.5375,3.885
906,271701,0.48116800000000004,-0.000244,-0.8801081000000001,-1.225,12.5125,1.855
907,271798,0.48433999999999994,0.047580000000000004,-0.8862081,-1.9075,15.1025,0.35
908,271895,0.5070319999999999,0.009272001,-0.8632719999999999,-0.7175,17.9025,0.1225
909,271992,0.49776000000000004,0.090768,-0.879376,-0.8400001,19.635,0.35
910,272089,0.517768,0.044407999999999996,-0.861808,2.625,22.8375,1.715
911,272186,0.513376,-0.007808001,-0.859856,4.095,24.2375,2.87
912,272283,0.524356,0.096624,-0.8957241,0.0175,25.7075,4.445
913,272380,0.532652,0.038308,-0.8481440999999998,0.945,26.845,7.8575
914,272477,0.542656,0.010248,-0.8405800999999999,1.4875,26.845,9.3625
915,272574,0.5382640000000001,0.01098,-0.8420440999999999,1.8725,26.2325,8.61
916,272671,0.533384,0.006587999999999999,-0.8522921,1.505,26.25,7.5425
917,272768,0.5397281,0.007564001,-0.8420440999999999,1.5575,27.2825,6.825
918,272866,0.536556,0.0,-0.8418,1.715,28.5425,5.67
919,272963,0.525088,0.00122,-0.8447280999999999,1.6275,30.17,4.305
920,273060,0.524356,0.033184,-0.861808,1.9075,33.1975,2.94
921,273157,0.530456,0.04148,-0.858392,3.6925,36.8375,2.8875
922,273254,0.5192319999999999,0.052216,-0.8723001,5.635,41.0725,3.8325
923,273351,0.51362,0.044407999999999996,-0.8805960999999999,8.995,46.7075,5.075
924,273448,0.515084,0.044652,-0.883524,12.3025,54.1975,6.0375
925,273545,0.516792,0.038796,-0.90036,16.205,63.35,6.4925
926,273642,0.5165481,0.004148001,-0.8810841,20.9125,73.7275,7.1925
927,273739,0.516792,0.021716,-0.9067040000000001,24.57,85.99501,7.07
928,273836,0.51484,0.02928,-0.9037761000000001,30.31,99.6275,6.8775
929,273934,0.5246,0.057339999999999995,-0.9335440999999999,36.47,115.115,7.14
930,274031,0.509472,0.075396,-0.948184,46.095,132.93,8.6975
931,274128,0.528992,0.101992,-0.9372040999999999,58.2925,154.385,10.6575
932,274225,0.558516,0.1281,-1.0279719999999999,71.085,179.165,14.6825
933,274322,0.5063,0.11955999999999999,-0.9784401,89.1975,194.6525,21.63
934,274419,0.51118,0.17519200000000001,-1.088484,107.52,217.6825,28.7525
935,274516,0.5690081,0.17324,-1.176324,136.43,249.305,35.525
936,274613,0.674416,0.260104,-1.403732,172.3575,289.485,39.7425
937,274710,0.8866961,0.1586,-1.523292,221.5675,338.415,44.94
938,274807,0.8671761,-0.11736400000000001,-1.580876,282.2925,383.6875,48.825
939,274905,1.562088,-0.024156,-1.7170279999999998,316.33,411.7225,44.2225
940,275002,1.7924240000000002,0.70028,-1.778028,316.2425,410.655,27.65
941,275099,1.7812,0.8552200000000001,-1.627968,366.87,396.76,26.0225
942,275196,1.40666,1.016016,-1.45546,444.465,373.1525,45.605
943,275293,1.8992959999999999,0.33916,-1.8121880000000001,547.8025,318.57,61.9325
944,275390,2.31678,-0.05977999999999999,-2.417064,515.935,224.7525,26.215
945,275487,1.958588,0.69784,-3.231536,397.74,109.4975,-26.4775
946,275584,1.256356,1.0943399999999999,-2.566148,338.52,-12.425,-52.2725
947,275681,0.558272,0.7998321,-1.6689599999999998,366.7475,-72.0825,-31.2025
948,275778,0.343796,0.5489999999999999,-1.2341520000000001,374.5525,-95.97,-7.2275
949,275876,0.339648,0.6007279999999999,-1.130696,341.32,-108.535,9.0475
950,275973,0.42602399999999996,0.8513161,-1.182668,298.1825,-122.745,23.975
951,276070,0.5260640000000001,1.134112,-1.244644,269.5525,-141.3825,40.53
952,276167,0.571204,1.341512,-1.238788,254.835,-164.4825,54.74
953,276264,0.5856,1.465708,-1.1836440000000001,241.9375,-189.21,59.71
954,276361,0.624884,1.580144,-1.11386,220.675,-214.2525,52.2025
955,276458,0.6832,1.714588,-1.0377319999999999,195.195,-239.5575,34.7375
956,276555,0.7283400999999999,1.80682,-0.94306,176.155,-263.34,12.2675
957,276652,0.762988,1.7916919999999998,-0.8357,165.76,-283.325,-11.34
958,276749,0.803492,1.74826,-0.7415161,158.4625,-298.4625,-35.2625
959,276846,0.6844201,1.4393559999999999,-0.533628,163.66,-304.7275,-47.7925
960,276944,1.01504,0.584136,-0.410652,220.815,-288.4175,-16.2225
961,277041,1.161196,0.64782,-0.72712,154.98,-307.4225,-29.68
962,277138,0.951356,1.92028,-0.8249639999999999,13.02,-344.54,-91.35
963,277235,0.99308,2.249436,-0.807396,6.755,-349.615,-119.9625
964,277332,1.096292,1.674816,-0.738344,76.5975,-342.125,-124.25
965,277429,1.1004399999999999,1.12972,-0.661972,99.19001,-341.5125,-135.3625
966,277526,1.073112,1.039928,-0.686128,58.17,-345.8875,-158.7775
967,277623,1.108248,1.071892,-0.773968,11.4975,-343.4375,-179.235
968,277720,1.204872,0.951356,-0.87474,-13.09,-335.265,-189.8575
969,277817,1.306376,0.68686,-0.9596520000000001,-28.8575,-326.41,-193.0775
970,277914,1.4274,0.40748,-1.01748,-52.5525,-317.765,-190.365
971,278012,1.551352,0.260836,-1.098976,-86.32751,-309.3125,-180.2675
972,278109,1.7733919999999999,0.29597199999999996,-1.2444,-116.1125,-299.74,-161.0875
973,278206,2.05692,0.3477,-1.330532,-124.5825,-290.85,-133.98
974,278303,2.290916,0.2501,-1.19804,-112.6475,-284.9175,-106.015
975,278400,2.455616,0.22789600000000002,-0.9596520000000001,-104.09,-278.775,-87.2375
976,278497,2.650084,0.371368,-0.7093081,-102.0775,-267.785,-81.4275
977,278594,2.7886759999999997,0.5726680000000001,-0.4404201,-91.4025,-252.5425,-87.5875
978,278691,2.86334,0.624396,-0.153232,-67.4975,-232.435,-106.5925
979,278788,2.924096,0.580232,0.101992,-42.63,-210.0525,-140.9275
980,278885,2.923364,0.479216,0.31842,-20.3875,-189.4025,-184.1875
981,278982,2.941664,0.16348,0.543388,5.9675,-168.4025,-224.8575
982,279080,2.791848,-0.394304,0.8666879999999999,29.155,-146.79,-256.62
983,279177,2.7284080000000004,-1.022116,1.186328,36.19,-118.265,-274.82
984,279274,2.776232,-1.232932,1.1953559999999999,19.32,-84.175,-266.4375
985,279371,2.72304,-1.485716,1.112152,17.045,-51.345,-222.145
986,279468,2.6108,-1.59942,3.357196,29.5925,-11.2525,-154.21
987,279565,0.6973520000000001,-2.430484,4.617212,85.92501,154.3675,-53.83
988,279662,2.359968,-1.065792,-5.665192,-17.0625,335.0375,42.945
989,279759,1.7514319999999999,-1.010648,-0.479704,29.155,274.82,97.9125
990,279856,1.981036,0.17202,-1.827804,-14.0,254.765,112.63
991,279953,2.437316,1.634068,-1.9241840000000001,-52.4125,246.1725,53.655
992,280050,1.383724,0.5978,-1.370792,14.945,181.3875,8.75
993,280147,1.6326040000000002,-0.642696,-1.587952,23.1,155.68,-27.23
994,280244,1.340048,-0.06661201,-1.19682,20.37,104.3525,-6.7025
995,280341,0.913048,0.773724,-0.783728,3.255,50.6625,2.1
996,280439,0.715408,-0.11248399999999999,-1.097024,33.5825,31.115,-8.645
997,280536,0.8369200000000001,0.049532,-0.9620920000000001,26.4425,22.7325,-0.4375
998,280633,0.5543680000000001,0.145912,-0.8957241,12.845,2.9225,2.73
999,280730,0.6036560999999999,0.006832001,-0.8744960999999999,12.2325,5.5125,-1.5225
1000,280827,0.5665680000000001,0.149328,-0.885476,7.7525,0.8225,-0.245
1001,280924,0.522892,0.101016,-0.892308,11.2,-0.91,0.28
1002,281021,0.527772,0.03904,-0.8903561,12.7225,-1.2425,1.4
1003,281118,0.513864,0.040748,-0.8869401,10.2025,-0.6825,0.77
1004,281215,0.5119121,0.054412,-0.8708360999999999,8.4525,0.665,-0.035
1005,281312,0.490928,0.09906401,-0.85888,7.8225,1.8725,0.0875
1006,281409,0.494832,0.119072,-0.862296,8.05,2.3625,1.19
1007,281506,0.5009319999999999,0.143716,-0.8520479999999999,9.0475,2.03,2.9575
1008,281604,0.511668,0.14005599999999999,-0.8508280999999999,11.165,0.8225,5.3725
1009,281701,0.505568,0.133468,-0.8488761,14.35,-0.875,8.19
1010,281798,0.50874,0.1281,-0.8540000000000001,15.9075,-2.2225,11.095
1011,281895,0.525576,0.10614000000000001,-0.8605879999999999,16.625,-3.0625,13.4225
1012,281992,0.506544,0.09613601,-0.8569280999999999,16.5375,-5.04,15.47
1013,282089,0.5016641,0.07417601,-0.858392,15.645,-6.23,16.9925
1014,282186,0.49312399999999995,0.052703999999999994,-0.8647360000000001,14.3675,-6.3175,17.4475
1015,282283,0.5038600000000001,0.035624,-0.855708,12.145,-5.6525,16.94
1016,282380,0.5011760000000001,0.014884,-0.85156,10.15,-4.515,16.065
1017,282477,0.508008,-0.005368,-0.858392,7.9625,-3.0625,14.49
1018,282574,0.508008,0.000976,-0.8647360000000001,5.1975,-1.5575,12.3725
1019,282671,0.5124001,0.026351999999999997,-0.8579041,3.325,-0.5775,11.0075
1020,282769,0.5011760000000001,0.0183,-0.8508280999999999,2.5025,0.455,10.3775
1021,282866,0.5158159999999999,0.017812,-0.8479,1.295,2.31,9.695
1022,282963,0.496296,0.042456,-0.8459479999999999,-0.21,3.78,8.995
1023,283060,0.48702399999999996,0.07198,-0.855708,-1.4175,6.055,10.605
1024,283157,0.494832,0.045384,-0.8527800999999999,-1.085,9.1875,12.635
1025,283254,0.467016,0.09613601,-0.87718,-2.6775,12.4075,14.21
1026,283351,0.481412,0.08954801,-0.860344,-2.94,17.5175,17.5525
1027,283448,0.47092,0.09784401,-0.8847440999999999,-5.705,24.0275,23.52
1028,283545,0.41602,0.024888,-0.917684,-4.34,31.465,27.895
1029,283642,0.46433199999999997,0.040260000000000004,-0.921832,-4.3925,45.15,27.09
1030,283740,0.44237200000000004,0.016836,-0.913536,-6.23,59.3075,26.39
1031,283837,0.419436,-0.04392,-0.9259799999999999,-6.23,76.4575,23.8175
1032,283934,0.42578,-0.024644,-0.92232,-6.9475,94.58751,17.0275
1033,284031,0.42748800000000003,-0.018544,-0.913536,-6.2825,115.3425,9.4325
1034,284128,0.44408000000000003,0.023180000000000003,-0.919636,-4.3225,136.115,4.025
1035,284225,0.462136,0.056608000000000006,-0.9330560999999999,-0.595,158.445,1.715
1036,284322,0.487756,0.075396,-0.9298841,7.0875,181.02,2.52
1037,284419,0.592188,0.11126400000000002,-0.9945440000000001,17.2375,201.0925,5.8625
1038,284516,0.532896,0.169336,-0.9267120000000001,28.595,210.7,11.76
1039,284613,0.6029241,0.27279200000000003,-0.9333,39.1475,227.3075,20.1775
1040,284710,0.5936520000000001,0.254736,-0.865956,56.91,245.5075,31.4125
1041,284808,0.726876,0.273768,-0.9372040999999999,72.6425,269.85,42.4725
1042,284905,0.524112,0.23009200000000002,-1.0060120000000001,94.36,302.3825,54.705
1043,285002,0.9357401,0.22814,-0.9535521,108.36,338.1,64.0675
1044,285099,0.8166680000000001,0.264496,-1.024556,111.335,381.0275,78.5225
1045,285196,1.36884,0.10833599999999999,-1.208532,120.855,419.755,97.93
1046,285293,1.403,-0.143716,-1.396168,108.22,460.7225,110.1625
1047,285390,1.362252,-0.345016,-1.188036,73.115,482.545,101.36
1048,285487,1.862208,0.02562,-1.630652,47.25,510.02,87.78
1049,285584,2.527596,0.733952,-2.1057200000000003,25.5325,529.62,76.8425
1050,285681,2.136708,0.8422879999999999,-2.3250759999999997,40.005,527.73,112.5425
1051,285779,2.482456,0.6902761,-2.820396,86.8,467.215,135.905
1052,285876,3.317424,1.498648,-3.29644,108.8325,312.62,88.8825
1053,285973,2.175504,1.991528,-4.115304,93.065,147.7,22.89
1054,286070,0.603168,1.6509040000000001,-2.8679759999999996,149.695,-3.4125,-35.875
1055,286167,-0.10052799999999999,0.711992,-1.802428,206.7975,-39.2875,-69.685
1056,286264,0.04514,0.023180000000000003,-1.569408,186.1125,-43.365,-94.08
1057,286361,0.205204,-0.024156,-1.645048,107.1,-63.4725,-111.44
1058,286458,0.321348,0.069052,-1.7202,49.945,-96.4425,-108.5175
1059,286555,0.304512,-0.005856,-1.646268,36.05,-135.6075,-83.79001
1060,286653,0.329888,-0.146644,-1.5403719999999999,31.325,-174.6325,-53.06
1061,286749,0.39723200000000003,-0.14396,-1.485472,11.8825,-214.1125,-30.0475
1062,286846,0.468724,-0.024644,-1.422764,-12.2675,-255.0275,-16.4325
1063,286944,0.491904,0.07564,-1.2902719999999999,-25.83,-293.9475,-8.5225
1064,287041,0.508984,0.10004,-1.119472,-28.525,-326.4625,-5.1975
1065,287138,0.5363121,0.08564401,-0.9769760000000001,-29.3125,-351.365,-6.51
1066,287235,0.5697399999999999,0.05977999999999999,-0.8713241,-32.97,-369.0225,-11.2525
1067,287332,0.635376,0.05636401,-0.815448,-39.3575,-381.115,-17.29
1068,287429,0.726388,0.06466001,-0.823744,-45.7975,-389.1825,-21.6125
1069,287526,0.794952,0.0793,-0.8486319999999999,-50.3475,-395.0275,-23.4325
1070,287623,0.844484,0.07198,-0.8818159999999999,-54.2675,-398.685,-23.205
1071,287720,0.9198799999999999,0.047580000000000004,-0.9708760000000001,-61.32,-399.91,-23.6775
1072,287817,1.055544,0.006344,-1.097512,-73.2375,-399.91,-25.69
1073,287915,1.227808,-0.052703999999999994,-1.192428,-89.18,-401.17,-27.7725
1074,288011,1.403,-0.09784401,-1.226588,-108.675,-402.5,-27.7725
1075,288109,1.533784,-0.0732,-1.238056,-129.535,-401.695,-25.0075
1076,288206,1.6692040000000001,-0.02806,-1.235616,-145.8625,-394.275,-21.805
1077,288303,1.8051119999999998,0.031476,-1.215608,-155.505,-380.03,-21.9275
1078,288400,2.010072,0.048556,-1.2078,-158.41,-357.49,-27.5275
1079,288497,2.395104,0.053436000000000004,-1.3571280000000001,-157.3425,-331.695,-40.075
1080,288594,2.9370279999999998,0.112972,-1.575996,-153.895,-315.0,-58.975
1081,288691,3.2818,0.234972,-1.485472,-138.5475,-315.315,-80.3075
1082,288788,3.2713080000000003,0.266936,-0.974292,-103.285,-321.1775,-100.9925
1083,288885,3.14272,0.229116,-0.3843,-58.8875,-314.335,-122.955
1084,288982,3.142476,0.177144,0.03294,-19.915,-291.41,-147.6125
1085,289079,3.32694,0.1464,0.199104,9.205,-259.6825,-170.6775
1086,289177,3.330112,-0.640256,0.815936,33.04,-229.7925,-191.905
1087,289274,3.432348,-1.092632,1.510848,13.265,-199.5525,-215.4775
1088,289371,3.695868,-1.455704,2.0220279999999997,-15.05,-151.3575,-207.585
1089,289468,3.6548760000000002,-1.6735959999999999,2.112796,-22.19,-88.23501,-150.325
1090,289565,3.2881440000000004,-1.543544,1.74826,-25.7425,-22.9775,-66.53501
1091,289662,3.018768,-1.331752,1.1568040000000002,-24.0275,34.5625,10.2375
1092,289759,2.80844,-1.0384639999999998,0.637084,-31.92,68.5475,59.885
1093,289856,-0.05929201,2.0181240000000003,-1.0492,-52.1325,72.7475,92.995
1094,289953,-2.306288,0.613904,-2.102792,136.99,122.01,140.49
1095,290050,-1.395924,-0.5724239999999999,1.319796,232.7325,233.415,172.235
1096,290147,1.849276,-1.38958,-0.81374,149.1875,369.425,113.5925
1097,290245,2.871636,-1.106296,-2.6171439999999997,46.83,378.805,48.125
1098,290342,2.030568,-1.1890120000000002,-1.2817319999999999,60.6025,315.595,79.4675
1099,290439,2.1108439999999997,0.537288,-1.944192,-4.1125,280.1575,76.8425
1100,290536,1.8282919999999998,0.8637601,-1.6443159999999999,4.13,236.5825,34.195
1101,290633,1.783396,-0.5119121,-1.718248,26.985,191.1175,-14.3675
1102,290730,1.895148,-0.221308,-1.5921,17.1675,134.96,-9.45
1103,290827,1.047492,1.008208,-1.0438319999999999,-2.065,62.1075,6.895
1104,290924,0.6885680999999999,-0.29572800000000005,-1.0589600000000001,42.5075,26.25,-10.9375
1105,291021,0.85156,0.200324,-0.9586761,27.58,20.2475,3.5175
1106,291118,0.555832,0.23424,-0.883524,17.815,1.015,11.5325
1107,291216,0.625372,-0.057584,-0.8876719999999999,25.76,0.7,8.9425
1108,291313,0.517768,0.117852,-0.8876719999999999,16.5375,-3.045,10.395
1109,291410,0.520452,0.030256,-0.90036,15.715,-1.9425,7.2275
1110,291507,0.49556400000000006,0.036356,-0.892064,13.895,-1.225,6.2125
1111,291604,0.490684,-0.014884,-0.891576,10.325,0.2275,4.0075
1112,291701,0.46774799999999994,-0.033428,-0.883036,5.565,3.5175,-0.5075
1113,291798,0.480192,-0.01342,-0.873276,-1.645,8.5575,-5.9325
1114,291895,0.492392,0.017324000000000003,-0.8596120999999999,-7.1925,11.515,-9.5375
1115,291992,0.495076,0.051484,-0.8486319999999999,-10.64,13.23,-11.34
1116,292089,0.503372,0.10906800000000001,-0.853024,-12.4775,14.525,-11.795
1117,292186,0.49849209999999994,0.1342,-0.8464360000000001,-11.795,14.8925,-10.78
1118,292283,0.498004,0.157136,-0.8510719999999999,-9.835,15.015,-8.47
1119,292381,0.528992,0.16104000000000002,-0.849608,-6.895,14.98,-5.5475
1120,292478,0.534116,0.16104000000000002,-0.8527800999999999,-3.2725,13.65,-2.24
1121,292575,0.535092,0.11467999999999999,-0.8488761,0.5075,11.7075,0.7175
1122,292672,0.530456,0.09150001,-0.8479,2.2225,9.8875,3.045
1123,292769,0.52704,0.062220000000000004,-0.8464360000000001,2.4675,9.0125,4.69
1124,292866,0.532408,0.045627999999999995,-0.8471681000000001,1.1375,9.45,5.3025
1125,292963,0.528992,0.046116000000000004,-0.8420440999999999,-0.9975,10.57,4.515
1126,293060,0.519476,0.056852,-0.8378960999999999,-3.1325,11.8825,3.0975
1127,293157,0.495076,0.10809200000000001,-0.8422879999999999,-4.865,13.055,3.1675
1128,293254,0.493612,0.07515201,-0.8166680000000001,-5.3025,15.4875,5.9675
1129,293351,0.519476,0.12444000000000001,-0.849608,-8.0675,18.27,10.325
1130,293449,0.505568,0.128588,-0.8527800999999999,-8.2425,20.16,14.98
1131,293546,0.405528,0.12053599999999999,-0.9120720999999999,-8.7675,24.185,18.9175
1132,293643,0.5038600000000001,0.1037,-0.8769360999999999,-5.2325,33.5125,19.4425
1133,293740,0.49556400000000006,0.059536,-0.8759601,-8.785,43.295,17.885
1134,293837,0.47823999999999994,0.054655999999999996,-0.8813280000000001,-10.15,56.0,16.24
1135,293934,0.447984,-0.015372,-0.862296,-13.2125,72.9925,11.4975
1136,294031,0.45871999999999996,0.058072000000000006,-0.8976761000000001,-16.835,92.33001,4.97
1137,294128,0.46481999999999996,0.033428,-0.8647360000000001,-14.3675,112.21,-1.1025
1138,294225,0.477996,0.052216,-0.873276,-14.035,132.8775,-7.1925
1139,294322,0.487512,0.05124001,-0.8571719999999999,-14.7175,154.4025,-13.1775
1140,294420,0.572912,0.0793,-0.908168,-12.5125,170.7125,-17.78
1141,294517,0.550708,0.136152,-0.9137799999999999,-6.1425,175.035,-17.1675
1142,294614,0.547048,0.248148,-0.9764879999999999,-1.0325,189.7875,-14.07
1143,294711,0.59536,0.242048,-0.9269561,12.285,210.0,-6.825
1144,294808,0.499468,0.29597199999999996,-0.9291520000000001,25.1125,238.7875,3.57
1145,294905,0.7705521,0.230336,-0.850584,36.8025,266.945,11.5675
1146,295002,0.5214281,0.185928,-0.98088,32.13,310.2225,19.88
1147,295099,0.9903959999999999,0.406748,-1.24684,26.355,364.0,34.2125
1148,295196,1.034316,0.307196,-1.1350879999999999,35.805,422.065,55.9475
1149,295293,0.89426,0.07832401,-1.43594,31.0625,466.5675,66.955
1150,295390,1.6438279999999998,-0.007564001,-1.521584,16.94,496.0725,63.91
1151,295487,1.458876,-0.061,-1.402268,-5.3025,517.195,53.935
1152,295585,1.621868,-0.21667199999999998,-1.665544,-34.3175,532.0875,41.2475
1153,295682,3.042436,0.8723001,-2.519788,-65.8875,549.15,38.5875
1154,295779,2.5922560000000003,1.116788,-2.8774919999999997,-64.5575,550.8475,87.3425
1155,295876,1.9075919999999997,0.635864,-2.3733880000000003,11.3225,458.4125,122.605
1156,295973,4.549136,0.840824,-5.496832,-3.605,297.4125,103.9675
1157,296070,1.393972,1.363472,-4.079436,22.9075,84.2625,89.495
1158,296167,0.098576,1.09556,-2.87066,81.83001,-51.3625,72.8875
1159,296264,-0.4594521,0.540948,-1.885388,118.2475,-80.955,64.96
1160,296361,-0.338428,0.2501,-1.6267479999999999,90.8075,-86.7475,52.4475
1161,296458,-0.060512,0.30378,-1.6897,30.0825,-105.84,28.1575
1162,296555,0.128588,0.49117200000000005,-1.778516,-14.4375,-143.605,5.5475
1163,296652,0.139812,0.518744,-1.691652,-21.6825,-189.735,-3.255
1164,296749,0.193736,0.359656,-1.539884,-9.415,-231.14,-2.345
1165,296847,0.258396,0.141764,-1.38592,-5.495,-267.68,-1.505
1166,296944,0.333548,0.035136,-1.2609920000000001,-20.0375,-300.9475,-5.7225
1167,297041,0.433832,0.0244,-1.1653440000000002,-40.6525,-330.33,-12.2675
1168,297138,0.5119121,0.01098,-1.0767719999999998,-53.5675,-355.1975,-17.3425
1169,297235,0.621224,-0.032451999999999995,-1.02358,-57.9075,-374.6225,-20.1425
1170,297332,0.7317560000000001,-0.10394400000000001,-0.9918600000000001,-60.3575,-390.5475,-21.8925
1171,297429,0.767868,-0.1403,-0.927932,-65.22251,-404.285,-22.6625
1172,297526,0.789828,-0.150304,-0.90646,-72.0125,-411.3725,-22.365
1173,297623,0.8866961,-0.132248,-0.981124,-79.1875,-411.39,-21.1225
1174,297720,1.023824,-0.108824,-1.12972,-84.3675,-409.2725,-19.565
1175,297817,1.152412,-0.153476,-1.240984,-87.15,-408.2925,-18.515
1176,297914,1.303448,-0.227408,-1.315892,-94.90250999999999,-406.665,-19.1625
1177,298012,1.4696120000000001,-0.293288,-1.374208,-109.1125,-402.955,-22.1725
1178,298109,1.635532,-0.29377600000000004,-1.431792,-126.91,-396.445,-27.2125
1179,298206,1.777296,-0.242536,-1.487424,-139.6325,-386.54,-33.11
1180,298303,2.056188,-0.17934,-1.6152799999999998,-141.785,-371.9975,-38.815
1181,298400,2.472696,-0.14005599999999999,-1.758752,-132.9825,-358.61,-44.8175
1182,298497,2.89262,-0.098576,-1.784616,-116.165,-354.935,-52.5875
1183,298594,3.174196,-0.01586,-1.548912,-92.68001,-359.38,-60.8825
1184,298691,3.24764,0.085888,-1.0521280000000002,-62.825,-361.655,-67.69001
1185,298788,3.2347080000000004,0.21813600000000002,-0.5011760000000001,-32.2,-350.42,-74.585
1186,298885,3.2696,0.336476,-0.154696,-3.9725,-327.075,-85.96
1187,298982,3.372324,0.439688,0.044652,17.36,-301.7175,-105.385
1188,299079,3.299124,-0.164212,0.6314721,32.305,-277.34,-134.785
1189,299177,3.505304,-0.9677040000000001,1.471076,10.8325,-245.8575,-182.91
1190,299274,4.02844,-1.312232,2.24968,-50.54,-202.475,-218.2075
1191,299371,3.7793160000000006,-1.191208,2.578104,-78.19,-139.8425,-191.38
1192,299468,3.2471520000000003,-1.2517200000000002,2.2140560000000002,-42.8925,-49.0875,-107.24
1193,299565,3.053172,-1.357616,1.295884,6.2825,41.545,-11.165
1194,299662,2.911652,-1.185352,0.46628400000000003,14.14,87.64,56.1225
1195,299759,2.5232040000000002,-0.8244761,0.07808001,-8.82,89.5825,87.4825
1196,299856,-1.83244,1.359324,-0.737124,-1.82,79.1525,118.72
1197,299953,-2.55346,0.26913200000000004,-0.194468,145.32,194.845,188.93
1198,300050,0.5694961,-0.525332,0.43212399999999995,170.8875,355.075,196.175
1199,300147,3.2830199999999996,-0.417972,-2.247484,49.5075,427.385,99.26001
1200,300244,2.230648,-0.671488,-1.420324,48.1075,362.3375,68.1625
1201,300342,2.090348,-0.09638,-1.911252,48.685,327.6,78.715
1202,300439,2.072292,0.61366,-1.609668,23.17,293.125,49.21
1203,300536,2.3502080000000003,-0.213256,-1.996652,40.3725,247.555,10.2375
1204,300633,2.935808,-0.149816,-2.328248,34.09,176.2075,-3.5875
1205,300730,0.9225639999999999,0.214232,-0.889868,32.8825,59.92,8.5575
1206,300827,0.788852,-0.383812,-1.147532,37.8525,18.0775,-11.1125
1207,300924,0.75762,0.316712,-0.84546,12.705,22.8025,-2.7475
1208,301021,0.609024,0.17397200000000002,-0.917684,10.5175,5.0575,2.695
1209,301118,0.62342,-0.01708,-0.8954801,18.5325,2.4325,3.9725
1210,301215,0.570716,0.077592,-0.906216,11.83,-0.875,7.035
1211,301312,0.53192,0.023180000000000003,-0.904752,12.355,-2.2225,5.425
1212,301409,0.543632,0.01342,-0.873764,10.5525,-2.205,4.515
1213,301507,0.514596,0.005612,-0.8703481,8.3125,-2.3975,3.0275
1214,301604,0.49312399999999995,-0.018544,-0.8679081,5.81,-1.2775,0.91
1215,301701,0.48068,-0.003904,-0.8730319999999999,1.715,1.505,-1.75
1216,301798,0.468724,0.007564001,-0.8642481,-1.7675,4.2875,-4.55
1217,301895,0.481412,0.02562,-0.8596120999999999,-4.3225,7.105,-6.6325
1218,301992,0.48556000000000005,0.05172801,-0.8520479999999999,-5.565,9.24,-7.455
1219,302089,0.49824799999999997,0.08003201,-0.849852,-5.2675,10.43,-6.86
1220,302186,0.513376,0.10687200000000001,-0.839116,-3.1325,10.605,-5.11
1221,302283,0.5084960000000001,0.14469200000000002,-0.8420440999999999,0.525,9.7825,-1.96
1222,302380,0.518256,0.14469200000000002,-0.8493641,4.655,8.54,2.0125
1223,302477,0.5221600000000001,0.13176,-0.8527800999999999,7.9975,6.58,6.09
1224,302575,0.532896,0.101992,-0.8439959999999999,10.1675,4.3575,10.4825
1225,302672,0.52704,0.057339999999999995,-0.846924,10.85,2.1,13.335
1226,302769,0.5380199999999999,0.01464,-0.8461921,10.15,0.245,14.91
1227,302866,0.5185,0.022203999999999998,-0.844972,7.14,-0.49,14.4025
1228,302963,0.51362,0.05246,-0.849852,4.27,-0.07,13.335
1229,303060,0.50874,0.053924,-0.8471681000000001,2.6775,0.8925,12.355
1230,303157,0.5043479999999999,0.029524,-0.8605879999999999,1.3825,1.96,12.3375
1231,303254,0.5060560000000001,0.057828,-0.8532681000000001,-0.35,3.255,12.53
1232,303351,0.493612,0.063196,-0.849608,-1.82,5.1975,13.475
1233,303448,0.49288000000000004,0.07612801,-0.8513161,-4.34,8.2075,16.1175
1234,303545,0.472384,0.11102000000000001,-0.868152,-7.91,12.95,20.5275
1235,303643,0.493856,0.058803999999999995,-0.855708,-9.1175,19.8275,25.6025
1236,303740,0.486292,0.05368,-0.88328,-12.6,28.42,28.9275
1237,303837,0.382348,0.010736,-0.945256,-13.4225,37.94,30.24
1238,303934,0.471408,0.0427,-0.919636,-10.5525,54.74,24.5875
1239,304031,0.464088,-0.005856,-0.919636,-11.235,71.92501,18.1125
1240,304128,0.407968,-0.083936,-0.9147559999999999,-8.5925,89.845,10.815
1241,304225,0.42602399999999996,-0.045627999999999995,-0.9152440000000001,-8.295,110.7575,1.0675
1242,304322,0.41723999999999994,-0.01098,-0.9115840000000001,-9.5025,133.805,-7.4375
1243,304419,0.443104,0.024888,-0.913536,-10.0275,159.4425,-13.125
1244,304516,0.466528,0.102968,-0.9467200000000001,-5.3725,184.8875,-15.96
1245,304613,0.6380600000000001,0.159576,-1.050664,4.725,209.93,-14.315
1246,304710,0.48068,0.211548,-0.9708760000000001,17.8675,217.63,-4.7425
1247,304808,0.527284,0.269376,-0.9591639999999999,29.3125,236.04,6.965
1248,304905,0.558272,0.270352,-1.007476,42.9625,262.255,17.3425
1249,305002,0.43724799999999997,0.259372,-1.031388,61.32,301.8575,26.4775
1250,305099,0.8176439999999999,0.202276,-0.9901521000000001,78.505,342.125,33.4075
1251,305196,0.6097560000000001,0.264008,-1.097756,75.88,396.8125,45.8675
1252,305293,1.151924,0.229116,-1.3583479999999999,66.2725,451.36,65.87
1253,305390,1.287344,-0.01586,-1.58356,63.9625,505.26,86.13501
1254,305487,1.398364,-0.1098,-1.352248,44.52,526.96,82.6175
1255,305584,1.616256,-0.36648800000000004,-1.577704,18.8125,544.705,68.7575
1256,305681,2.621536,0.6851520999999999,-2.331664,-15.295,558.88,56.28
1257,305779,2.5244240000000002,0.8869401,-3.056832,-18.55,563.7275,96.42501
1258,305876,2.20332,0.690032,-2.541992,32.97,496.405,143.57
1259,305973,3.7942,0.46042799999999995,-4.263168,41.1775,320.4075,118.8425
1260,306070,1.884656,1.514752,-4.530836,13.0025,120.75,99.24251
1261,306167,0.201544,1.525,-3.032188,62.3525,-39.76,71.6975
1262,306264,-0.48068,0.9254921,-1.872944,124.4775,-71.6975,50.225
1263,306361,-0.3599,0.45457200000000003,-1.5196319999999999,118.9475,-72.59,21.14
1264,306458,-0.045627999999999995,0.512644,-1.624064,58.415,-86.87,-19.7225
1265,306555,0.18470799999999998,0.6480640000000001,-1.74948,15.75,-119.8575,-51.065
1266,306652,0.207156,0.544608,-1.6616400000000002,14.385,-162.7325,-59.815
1267,306749,0.236436,0.27938,-1.514508,23.3625,-203.07,-55.0725
1268,306847,0.327936,0.087352,-1.414468,14.9275,-239.8375,-50.0675
1269,306944,0.40992,0.033672,-1.3266280000000001,-8.5225,-276.1325,-49.1225
1270,307041,0.492148,0.044407999999999996,-1.239032,-29.5225,-309.68,-48.8075
1271,307138,0.5653481,0.030256,-1.145824,-39.305,-338.5375,-47.0575
1272,307235,0.613904,-0.014396,-1.02968,-41.2125,-362.1625,-44.6775
1273,307332,0.659044,-0.09272000000000001,-0.944524,-42.84,-379.6625,-43.225
1274,307429,0.72346,-0.144204,-0.9023121,-49.175,-391.2475,-42.9975
1275,307526,0.800076,-0.14005599999999999,-0.917684,-58.66,-398.93,-42.245
1276,307623,0.879864,-0.122976,-0.9833200000000001,-65.52,-403.305,-39.55
1277,307720,0.965996,-0.111752,-1.065792,-69.7025,-405.335,-35.3675
1278,307817,1.084092,-0.132248,-1.1838879999999998,-73.5,-406.315,-31.955
1279,307915,1.2117040000000001,-0.175924,-1.292224,-79.9925,-407.365,-30.6425
1280,308012,1.345904,-0.230336,-1.351516,-90.825,-407.505,-30.5025
1281,308109,1.512068,-0.24790399999999999,-1.4032440000000002,-105.5775,-403.9,-30.0125
1282,308206,1.689944,-0.20496,-1.4598520000000001,-119.84,-395.9375,-27.86
1283,308303,1.853668,-0.135176,-1.486204,-127.995,-383.2325,-25.41
1284,308400,2.1291439999999997,-0.066124,-1.54818,-129.08,-364.0,-24.92
1285,308497,2.620072,-0.039772,-1.699948,-125.5975,-343.9275,-30.555
1286,308594,3.1476,0.119072,-1.7890080000000002,-119.8225,-337.47,-44.7825
1287,308691,3.447964,0.315492,-1.522316,-99.6975,-346.185,-62.895
1288,308788,3.449184,0.453596,-0.9140241,-61.8275,-353.7975,-80.90250999999999
1289,308886,3.3149839999999995,0.492392,-0.247416,-20.8425,-347.8825,-100.415
1290,308983,3.2783839999999995,0.532896,0.195444,8.5925,-325.255,-124.8975
1291,309080,3.2849720000000002,0.313784,0.536068,24.1675,-291.9,-154.84
1292,309177,3.587044,-0.758352,1.3005200000000001,20.895,-253.12,-198.7125
1293,309274,4.1724,-1.164856,2.0486240000000002,-42.1925,-216.02,-246.015
1294,309371,3.957192,-1.124352,2.643496,-85.5225,-164.7625,-241.5875
1295,309468,3.3088839999999995,-1.115812,2.4668400000000004,-66.85,-75.635,-171.3775
1296,309565,3.097092,-1.29198,1.553548,-10.9025,28.07,-72.765
1297,309662,2.99388,-1.2056040000000001,0.5631520000000001,14.945,90.02,4.8125
1298,309759,2.715232,-0.9252481,0.049532,3.2725,98.42,43.2075
1299,309856,-0.416996,1.328824,-0.83936,-23.6425,76.685,61.6875
1300,309954,-2.89994,0.523868,-1.456436,108.045,136.0275,107.8525
1301,310051,-1.092388,-0.849852,1.137284,192.605,283.325,157.5175
1302,310148,2.737192,-1.24684,-1.238544,90.37001,415.345,116.41
1303,310245,2.775744,-0.703696,-2.24602,19.8625,391.545,66.0975
1304,310342,1.9246720000000002,-0.49556400000000006,-1.298812,46.41,333.9875,95.69
1305,310439,1.9666400000000002,0.9435479999999999,-1.6387040000000002,3.9025,310.8875,76.37001
1306,310536,2.129388,0.511668,-1.689212,34.3175,279.5275,27.8425
1307,310633,3.227388,-0.580476,-2.726456,45.4475,225.6625,-10.22
1308,310730,2.297992,0.403332,-1.714588,40.285,113.295,11.5675
1309,310827,0.265228,-0.15738,-0.899384,40.53,13.7025,0.4375
1310,310925,0.9762440999999998,-0.155916,-0.880352,23.38,32.62,-8.47
1311,311022,0.6229319999999999,0.45383999999999997,-0.9555040000000001,5.67,5.74,6.7025
1312,311119,0.612928,-0.07027201,-0.85034,20.335,4.2175,4.69
1313,311216,0.57828,0.07832401,-0.9093880999999999,14.1925,0.035,10.6575
1314,311313,0.5321640000000001,0.101016,-0.9408639999999999,11.6375,-2.5025,10.185
1315,311410,0.530456,0.040504000000000005,-0.8703481,13.0025,-2.3975,9.275
1316,311507,0.5104479999999999,0.046604,-0.873276,10.71,-3.045,8.2775
1317,311604,0.48531599999999997,-0.0244,-0.8769360999999999,9.905,-2.6425,6.65
1318,311701,0.48312,-0.045872,-0.8701040000000001,6.51,0.665,3.115
1319,311798,0.480436,-0.0183,-0.8669319999999999,0.6475,5.2675,-1.5225
1320,311895,0.49166000000000004,0.016104,-0.8640040000000001,-3.6575,8.89,-5.1625
1321,311993,0.501908,0.04514,-0.8569280999999999,-6.2825,10.9725,-6.9475
1322,312090,0.5131319999999999,0.068564,-0.8483879999999999,-7.4375,12.145,-7.14
1323,312187,0.521672,0.096624,-0.8493641,-7.1225,12.5125,-6.405
1324,312284,0.522404,0.12029200000000001,-0.8569280999999999,-5.355,11.8475,-4.655
1325,312381,0.53314,0.126148,-0.8571719999999999,-2.1875,11.1825,-2.135
1326,312478,0.537776,0.122244,-0.8466800999999999,0.7175,9.835,0.805
1327,312575,0.5343600000000001,0.11614400000000001,-0.844484,2.625,7.9975,3.85
1328,312672,0.534604,0.098332,-0.8432639999999999,3.955,6.1425,6.65
1329,312769,0.535092,0.06490399999999999,-0.83936,4.62,4.6025,8.8025
1330,312866,0.528992,0.043432,-0.8437520000000001,4.2,3.6925,9.8
1331,312963,0.512888,0.061,-0.84546,3.3075,3.6925,10.0975
1332,313060,0.51484,0.042944,-0.8413120000000001,2.8,4.9175,10.64
1333,313158,0.5158159999999999,0.021472,-0.844972,1.54,6.2125,11.62
1334,313255,0.51362,0.046360000000000005,-0.8378960999999999,-1.7325,7.455,13.6325
1335,313352,0.515328,0.101748,-0.8359440999999999,-5.1625,9.0825,16.8175
1336,313449,0.508252,0.10004,-0.8410681000000001,-6.4225,10.2725,21.385
1337,313546,0.526552,0.072956,-0.8388721,-6.2475,13.1425,24.815
1338,313643,0.51362,0.06539201,-0.845216,-8.61,15.8025,27.0025
1339,313740,0.45579200000000003,0.042944,-0.90036,-8.505,20.335,26.565
1340,313837,0.452376,-0.035136,-0.8764481,-5.7925,29.015,21.315
1341,313934,0.45896400000000004,0.008540001,-0.895236,-8.7325,43.33,13.755
1342,314032,0.44408000000000003,-0.00122,-0.90036,-10.4475,61.2675,8.575
1343,314128,0.428708,-0.020252000000000003,-0.9335440999999999,-11.9525,81.3575,3.045
1344,314225,0.43554,-0.010492,-0.915732,-11.655,101.675,-3.9025
1345,314323,0.43627200000000005,-0.000244,-0.887916,-12.2675,123.445,-9.73
1346,314420,0.44896,0.01098,-0.893284,-13.335,146.265,-14.735
1347,314517,0.47604399999999997,0.035624,-0.885476,-12.0575,170.6075,-19.8625
1348,314614,0.632204,0.119804,-1.013088,-7.9625,194.3025,-23.31
1349,314711,0.503372,0.179584,-0.966484,2.17,198.9225,-19.4425
1350,314808,0.5414359999999999,0.256932,-0.9352520000000001,13.545,213.3075,-10.71
1351,314905,0.5941401,0.266692,-0.9633120999999999,24.71,234.815,-0.175
1352,315002,0.45871999999999996,0.243024,-0.975512,38.1675,267.855,11.165
1353,315099,0.69784,0.18422,-0.9337880999999999,52.5875,301.49,17.605
1354,315196,0.55632,0.3294,-1.029192,53.8475,352.38,25.1825
1355,315294,1.1204479999999999,0.321836,-1.2561120000000001,52.3775,406.035,47.0925
1356,315391,0.9864921,0.094672,-1.41154,47.2325,464.3625,70.875
1357,315488,1.450092,0.00122,-1.557208,39.76,503.9125,75.775
1358,315585,1.4217879999999998,-0.105652,-1.1751040000000001,14.21,524.65,64.435
1359,315682,1.539396,-0.399916,-1.652368,-10.22,545.265,50.5575
1360,315779,2.7328,0.7771399999999999,-2.2545599999999997,-42.6475,558.5125,39.27
1361,315876,2.3921759999999996,0.8815719999999999,-2.8792,-43.7675,567.7,84.4025
1362,315973,2.102548,0.5170359999999999,-2.405352,-0.4375,502.3375,127.4875
1363,316070,3.8979,0.8210601000000001,-4.4281120000000005,-5.46,326.41,98.89251
1364,316167,2.0291040000000002,1.58844,-4.667476000000001,-1.155,122.01,81.04251
1365,316264,0.422364,1.340536,-3.200792,71.7675,-48.16,58.6775
1366,316362,-0.4087,0.678808,-1.931504,130.5675,-96.5475,47.075
1367,316459,-0.409432,0.1891,-1.4701,117.32,-103.4775,33.285
1368,316556,-0.174948,0.180072,-1.4539959999999998,49.0525,-114.1175,7.735
1369,316653,0.15128,0.407236,-1.63236,-11.41,-139.545,-17.6575
1370,316750,0.241804,0.518012,-1.6560279999999998,-26.53,-179.655,-26.6875
1371,316847,0.254736,0.378688,-1.5220719999999999,-10.2025,-221.1825,-21.595
1372,316944,0.320372,0.145424,-1.380796,1.3125,-256.7775,-16.1175
1373,317041,0.42138809999999993,0.027816000000000004,-1.288076,-9.7125,-290.29,-18.165
1374,317138,0.499712,0.037332,-1.200236,-30.5025,-322.6825,-24.7625
1375,317235,0.5553441,0.039528,-1.092632,-42.3325,-350.2625,-30.135
1376,317332,0.616588,0.00244,-0.9947881,-44.1175,-371.28,-33.1625
1377,317430,0.677832,-0.07222401,-0.930372,-43.12,-386.015,-34.9825
1378,317527,0.7517640999999999,-0.124196,-0.887916,-45.3775,-396.0075,-36.505
1379,317624,0.8400921,-0.141032,-0.9181720999999999,-51.2225,-401.975,-36.89
1380,317721,0.942816,-0.11053199999999999,-1.004304,-57.225,-405.2825,-35.3325
1381,317818,1.0401719999999999,-0.10492,-1.111908,-60.165,-407.715,-31.885
1382,317915,1.161928,-0.144204,-1.22122,-63.0525,-409.3425,-28.91
1383,318012,1.2622120000000001,-0.196176,-1.283196,-71.8725,-410.83,-28.3675
1384,318109,1.3949479999999999,-0.25351599999999996,-1.325652,-87.185,-409.0625,-29.155
1385,318206,1.587464,-0.23546,-1.3886040000000002,-105.6825,-401.555,-30.1525
1386,318303,1.7697319999999999,-0.16592,-1.44814,-120.295,-391.0375,-31.115
1387,318400,2.036668,-0.071492,-1.5555,-125.44,-377.37,-32.2875
1388,318498,2.4038880000000002,0.00122,-1.6799400000000002,-120.6625,-363.7725,-36.0325
1389,318595,2.728652,0.017568,-1.647732,-109.0775,-357.4725,-45.29
1390,318692,3.029016,0.098576,-1.4696120000000001,-95.1825,-354.9875,-60.725
1391,318789,3.2952199999999996,0.23546,-1.1733959999999999,-73.3075,-350.105,-77.4375
1392,318886,3.4189279999999997,0.379664,-0.760792,-38.92,-342.545,-90.79
1393,318983,3.4157559999999996,0.457744,-0.271328,1.8025,-332.2375,-103.845
1394,319080,3.415268,0.502152,0.191052,34.8425,-315.315,-122.7625
1395,319177,3.387696,-0.39894,1.013332,55.475,-286.8775,-152.355
1396,319274,4.084072,-1.075796,1.87392,17.2725,-248.395,-201.04
1397,319371,4.263656,-1.2932,2.866268,-55.615,-203.6475,-224.1225
1398,319468,3.506036,-0.9982040000000001,2.9575240000000003,-96.53,-124.0225,-182.2975
1399,319566,3.065372,-0.97478,2.05326,-59.6925,-6.8075,-89.915
1400,319663,3.066104,-1.096292,0.8117880000000001,-5.53,86.695,6.1425
1401,319760,2.898964,-0.9955200000000001,0.040992,-1.295,112.4725,69.125
1402,319857,-0.166652,1.083116,0.42724399999999996,11.025,103.81,117.46
1403,319954,-1.260748,-0.820816,-0.942816,193.9525,221.41,164.955
1404,320051,0.549244,-0.5070319999999999,-0.6722199999999999,118.7375,340.69,146.16
1405,320148,2.290428,-0.71126,-1.108248,43.5925,372.7325,73.92
1406,320245,2.3372759999999997,-1.006256,-1.8109680000000001,9.3975,354.235,44.2925
1407,320342,2.0754639999999998,-0.537044,-1.61284,8.5925,315.2275,71.505
1408,320439,1.8109680000000001,0.8927959999999999,-1.551108,-27.615,278.67,64.6625
1409,320536,1.981768,0.6605081,-1.6635919999999997,-3.955,246.715,26.915
1410,320634,3.472608,0.424804,-2.5986,20.51,192.1675,-5.67
1411,320731,0.9511120000000001,-0.038796,-0.79178,56.1575,66.29,5.81
1412,320828,0.7232161,-0.35672800000000005,-1.118496,40.145,18.2875,-2.905
1413,320925,0.845216,0.36087600000000003,-0.889624,16.17,23.59,3.8675
1414,321022,0.5504641,0.136884,-0.901336,18.27,2.6075,8.68
1415,321119,0.6480640000000001,0.082472,-0.8949921000000001,25.1475,0.91,15.2775
1416,321216,0.5636399999999999,0.131028,-0.9354959999999999,22.8725,-5.7225,22.19
1417,321313,0.561932,-0.004636001,-0.91012,26.9325,-8.2425,20.4925
1418,321410,0.5214281,0.024644,-0.877668,23.1525,-9.0825,18.025
1419,321507,0.51118,-0.010736,-0.87474,22.3475,-7.7175,14.595
1420,321605,0.478728,-0.009028000999999999,-0.8862081,19.5475,-6.335,12.1275
1421,321702,0.48531599999999997,-0.03294,-0.880352,15.9425,-2.3275,8.5575
1422,321799,0.489708,-0.020496,-0.8657120999999999,10.885,1.7675,4.3225
1423,321896,0.493856,0.008540001,-0.8664440000000001,6.4925,4.6375,0.875
1424,321993,0.503372,0.025376,-0.8544879999999999,3.9725,6.3525,-1.4875
1425,322090,0.49776000000000004,0.057584,-0.8493641,2.0125,7.2275,-2.1175
1426,322187,0.50874,0.098576,-0.8540000000000001,1.435,7.5425,-1.3475
1427,322284,0.508008,0.09320801,-0.8549761,2.5025,7.105,0.56
1428,322381,0.5077640999999999,0.09735601,-0.853756,3.5175,6.5275,2.9925
1429,322478,0.511668,0.091012,-0.868884,4.2175,5.4075,5.7575
1430,322576,0.511424,0.06344,-0.853512,4.8125,4.13,8.54
1431,322673,0.5072760000000001,0.033428,-0.8466800999999999,4.095,3.675,10.5175
1432,322770,0.49044,0.03904,-0.8608319999999999,2.415,3.325,11.8125
1433,322867,0.504836,0.03538,-0.856196,1.4525,5.2325,12.915
1434,322964,0.504592,-0.005612,-0.8430200999999999,0.49,7.735,13.44
1435,323061,0.48702399999999996,0.03904,-0.8576601,-1.785,10.5175,14.6825
1436,323158,0.508008,0.030987999999999998,-0.8491200000000001,-2.3625,14.245,16.4675
1437,323255,0.509228,0.044407999999999996,-0.8544879999999999,-5.3025,16.835,19.32
1438,323352,0.5380199999999999,0.059048,-0.849852,-8.505,19.9675,23.24
1439,323449,0.5158159999999999,0.05002,-0.8522921,-11.8475,22.61,28.7
1440,323546,0.459696,0.009516001,-0.892308,-10.8325,26.7575,31.395
1441,323644,0.4941,-0.003172,-0.8815719999999999,-7.945,35.35,27.5975
1442,323741,0.5104479999999999,-0.018788,-0.8591241,-9.135,44.835,24.255
1443,323838,0.45261999999999997,-0.039284,-0.894748,-9.8875,57.645,20.545
1444,323935,0.42138809999999993,-0.046360000000000005,-0.9267120000000001,-9.59,72.6425,13.65
1445,324032,0.45554799999999995,-0.036356,-0.8876719999999999,-8.9075,90.405,5.18
1446,324129,0.457012,-0.03294,-0.8918200000000001,-9.45,109.095,-1.995
1447,324226,0.46481999999999996,-0.035136,-0.87718,-8.4875,126.945,-8.715
1448,324323,0.48165600000000003,-0.01098,-0.87718,-6.1775,145.9675,-15.3475
1449,324420,0.5248441,0.047336,-0.856684,-2.7475,165.97,-19.2675
1450,324517,0.6095119999999999,0.085888,-0.9964959999999999,4.1825,187.2325,-19.845
1451,324614,0.5380199999999999,0.157868,-0.9120720999999999,14.455,192.185,-15.9425
1452,324712,0.5726680000000001,0.235704,-0.8913321,23.45,204.82,-7.4375
1453,324809,0.576572,0.2806,-0.8906,33.4775,223.545,2.8
1454,324906,0.639768,0.318176,-0.9825879999999999,46.6725,251.6675,14.8925
1455,325003,0.546072,0.223992,-0.9943001,66.8675,283.185,26.985
1456,325100,0.7788480999999999,0.26303200000000004,-1.025044,72.8875,326.1825,35.56
1457,325197,1.275144,0.206668,-0.967216,73.92,375.1475,52.2025
1458,325294,0.9469641,0.178608,-1.324188,67.9175,429.0825,73.01
1459,325391,1.1263040000000002,-0.053436000000000004,-1.432036,66.675,478.415,90.21251
1460,325488,1.36884,-0.14688800000000002,-1.208776,40.495,504.2275,83.73751
1461,325585,1.453752,-0.42895200000000006,-1.571848,11.9525,529.6725,68.2325
1462,325683,2.417064,0.5948720000000001,-2.117432,-20.125,545.965,53.305
1463,325780,2.6415439999999997,0.81374,-2.875296,-21.8225,559.685,81.48001
1464,325877,2.279692,0.8066641,-2.4817240000000003,29.0325,514.1325,129.2375
1465,325974,3.1049,0.561932,-3.9945239999999997,58.135,357.455,100.2225
1466,326071,2.529548,1.6623720000000002,-4.838032,21.6825,171.1675,59.9375
1467,326168,0.52094,1.568188,-3.170292,70.665,2.6775,23.2925
1468,326265,-0.196664,0.8315520000000001,-2.019832,134.19,-43.8025,-1.1725
1469,326362,-0.11541199999999999,0.22204000000000002,-1.636996,130.7425,-53.97,-24.0275
1470,326459,0.027083999999999997,0.183,-1.595516,65.275,-75.74,-51.625
1471,326556,0.183732,0.29743600000000003,-1.640412,9.7475,-108.5175,-69.8425
1472,326654,0.233752,0.285236,-1.604056,-4.9175,-146.7725,-68.8975
1473,326751,0.281088,0.113704,-1.5001120000000001,1.645,-185.0275,-54.7925
1474,326848,0.37332,-0.052948,-1.408124,-0.14,-221.69,-40.8275
1475,326945,0.43432,-0.11760799999999999,-1.307596,-17.3775,-259.07,-33.6
1476,327042,0.480436,-0.07637200000000001,-1.212192,-37.2925,-294.105,-30.87
1477,327139,0.549244,-0.067588,-1.1192280000000001,-47.0225,-323.12,-29.225
1478,327236,0.6019479999999999,-0.10492,-1.029924,-48.755,-347.1825,-28.42
1479,327333,0.6409881,-0.163236,-0.945256,-49.1575,-366.415,-28.63
1480,327430,0.681248,-0.22691999999999998,-0.900848,-52.465,-379.9075,-29.89
1481,327527,0.740052,-0.244732,-0.903532,-59.4125,-388.99,-30.73
1482,327624,0.784704,-0.259372,-0.9391560999999999,-65.50251,-394.3625,-29.4525
1483,327722,0.8849879999999999,-0.269376,-1.030656,-70.6125,-395.92,-26.32
1484,327819,1.015528,-0.272548,-1.161928,-75.5125,-396.655,-22.33
1485,327916,1.13704,-0.306464,-1.268312,-79.8175,-399.2625,-18.6725
1486,328013,1.278316,-0.33061999999999997,-1.311744,-86.625,-401.6775,-16.4325
1487,328110,1.454972,-0.274744,-1.3571280000000001,-96.72251,-401.73,-14.5775
1488,328207,1.61772,-0.22789600000000002,-1.40056,-103.0575,-397.74,-12.6525
1489,328304,1.735328,-0.27279200000000003,-1.414468,-105.105,-389.515,-14.7875
1490,328401,1.8705040000000002,-0.248148,-1.405196,-111.1775,-377.3875,-22.785
1491,328498,2.1535439999999997,-0.153232,-1.466928,-115.7625,-361.095,-34.265
1492,328595,2.641788,-0.040260000000000004,-1.622112,-111.195,-346.0625,-47.1275
1493,328692,3.112464,0.10492,-1.661152,-95.1825,-342.6675,-60.0425
1494,328790,3.374032,0.203008,-1.3588360000000002,-67.0075,-350.14,-72.1525
1495,328887,3.335236,0.304268,-0.7732359999999999,-34.965,-356.475,-84.2975
1496,328984,3.20494,0.39284,-0.194712,-6.3,-348.74,-98.14
1497,329081,3.208844,0.578036,0.180804,14.4725,-323.575,-115.885
1498,329178,3.307176,0.45335200000000003,0.5594920999999999,32.2,-287.5425,-135.625
1499,329275,3.3415800000000004,-0.762988,1.428132,34.615,-248.6225,-166.8975
1500,329372,3.951336,-1.2883200000000001,2.161352,-41.6325,-207.48,-209.0725
1501,329469,3.8186,-0.768356,2.482944,-125.3,-157.2375,-207.1825
1502,329566,3.192984,-0.661728,2.286524,-99.6975,-71.82,-139.51
1503,329663,2.954352,-1.054568,1.524268,-21.2275,27.3,-44.765
1504,329761,2.82918,-0.9745360000000001,0.5736441,-0.1575,86.22251,27.685
1505,329858,1.557452,0.7571321,0.149328,-26.215,92.2425,65.17
1506,329955,-2.0679,0.091012,1.343708,87.8325,117.565,110.2325
1507,330052,-1.4454559999999999,-0.879864,-0.670512,197.9425,268.3975,135.03
1508,330149,1.328092,-1.145824,-0.177144,108.185,366.275,103.11
1509,330246,2.564684,-1.1324040000000002,-1.937116,32.2175,397.4775,53.725
1510,330343,2.1286560000000003,-1.0230920000000001,-1.4278879999999998,15.1025,357.175,69.055
1511,330440,1.87758,0.323544,-1.685064,-2.87,323.9775,94.92
1512,330537,1.65432,1.25416,-1.300032,-8.365,298.41,66.0275
1513,330635,3.312788,0.47994799999999993,-3.093432,31.64,272.055,16.38
1514,330732,3.79664,0.0183,-1.65188,68.565,162.6975,3.4475
1515,330829,0.09394001,-0.458476,-1.112884,78.12,0.4725,25.7775
1516,330926,0.7983680000000001,0.09247601,-0.8669319999999999,26.1625,23.555,10.4825
1517,331023,0.6722199999999999,0.32403200000000004,-0.9386681,15.26,5.04,17.5525
1518,331120,0.611464,0.045627999999999995,-0.8937719999999999,31.6225,2.1175,19.705
1519,331217,0.5797441,0.111996,-0.9042641,28.28,-5.04,25.8825
1520,331314,0.5814520000000001,-0.017568,-0.883768,29.645,-9.59,22.89
1521,331411,0.52094,0.016347999999999998,-0.8805960999999999,26.7225,-10.6925,20.02
1522,331508,0.5307,-0.016836,-0.8791321,24.4825,-8.4875,16.66
1523,331605,0.499712,-0.010004,-0.885964,20.6325,-7.49,13.825
1524,331703,0.47213999999999995,-0.034892,-0.8723001,16.8175,-4.97,10.7625
1525,331800,0.469944,-0.02196,-0.8664440000000001,11.9175,-0.9625,6.825
1526,331897,0.493856,-0.010248,-0.8701040000000001,7.455,2.6425,3.01
1527,331994,0.504836,0.008540001,-0.860344,4.2525,4.97,0.1925
1528,332091,0.50142,0.02928,-0.8601,2.03,5.81,-1.26
1529,332188,0.5206960999999999,0.050996,-0.860344,1.2075,6.0375,-1.3825
1530,332285,0.519964,0.05368,-0.8579041,1.33,5.4075,-0.595
1531,332382,0.5131319999999999,0.062464,-0.85888,1.6625,4.5675,0.735
1532,332479,0.51118,0.06075601,-0.854244,2.17,3.99,2.1875
1533,332576,0.5165481,0.06344,-0.8549761,2.66,3.395,4.095
1534,332673,0.519476,0.047092,-0.8481440999999998,3.605,2.6425,6.02
1535,332771,0.5058121,0.030012,-0.85644,3.8325,1.785,8.085
1536,332868,0.5011760000000001,0.028304000000000003,-0.85644,3.6225,1.8375,9.625
1537,332965,0.5077640999999999,0.001464,-0.8481440999999998,3.465,2.8175,10.9025
1538,333062,0.5023960999999999,0.003904,-0.853512,2.835,3.8325,11.655
1539,333159,0.49288000000000004,0.050508,-0.862784,1.9775,5.565,12.32
1540,333256,0.5002,0.013663999999999999,-0.85644,2.94,8.085,14.1225
1541,333353,0.508008,0.001464,-0.8510719999999999,1.3825,10.15,15.82
1542,333450,0.5267960999999999,0.003904,-0.845216,-1.1725,12.04,17.535
1543,333547,0.5392399999999999,0.008540001,-0.831308,-5.4425,13.545,21.4025
1544,333644,0.543876,0.009516001,-0.8254520000000001,-10.99,15.54,27.615
1545,333741,0.543876,0.050996,-0.8461921,-16.8525,18.62,34.93
1546,333839,0.49605200000000005,0.05977999999999999,-0.88328,-19.0225,22.225,42.385
1547,333936,0.495076,0.0017079999999999999,-0.855708,-15.855,28.56,44.765
1548,334033,0.483364,0.0051240009999999996,-0.8876719999999999,-15.05,39.025,41.8775
1549,334130,0.45896400000000004,0.014396,-0.9106081,-14.9625,50.505,40.46
1550,334227,0.44334799999999996,-0.02806,-0.9330560999999999,-13.755,63.9975,38.1675
1551,334324,0.41260399999999997,-0.030256,-0.921832,-10.85,78.3125,31.1675
1552,334421,0.42626800000000004,-0.060267999999999995,-0.9150001,-6.3525,94.2725,20.23
1553,334518,0.45335200000000003,-0.0671,-0.9059721,-1.6625,111.23,9.3975
1554,334615,0.462624,-0.076616,-0.8949921000000001,0.945,129.885,1.26
1555,334712,0.493612,-0.07246799999999999,-0.861808,3.36,151.1125,-4.5675
1556,334810,0.49556400000000006,-0.021716,-0.898408,4.935,174.23,-8.9075
1557,334907,0.5826720000000001,0.0366,-0.951844,10.605,191.345,-10.7975
1558,335004,0.537288,0.11467999999999999,-0.9323239999999999,19.075,199.395,-9.135
1559,335101,0.5077640999999999,0.15176800000000001,-0.954284,26.39,220.3775,-6.1775
1560,335198,0.520208,0.158112,-0.9586761,37.7475,248.3075,-3.6575
1561,335295,0.47458,0.29133600000000004,-1.0431,51.8175,289.0825,-2.065
1562,335392,0.647576,0.270596,-0.9901521000000001,64.7325,327.8975,5.6525
1563,335489,0.593164,0.26156799999999997,-1.194136,62.72,379.7325,20.2825
1564,335586,1.399584,0.311832,-1.410076,60.165,425.705,42.315
1565,335683,1.266116,-0.074664,-1.4661959999999998,67.6375,474.285,69.9125
1566,335780,1.159244,-0.557296,-0.9972281,46.9,497.98,65.73
1567,335878,1.8709919999999998,0.274012,-1.8109680000000001,-8.8025,520.345,46.2175
1568,335975,2.684244,1.0565200000000001,-2.22284,-15.4175,536.9525,58.31
1569,336072,2.03496,0.72712,-2.472208,17.115,545.5275,113.4525
1570,336169,1.76046,0.639768,-1.924916,53.83,483.8225,144.97
1571,336266,3.1756599999999997,0.290116,-3.493104,58.7475,340.3225,117.46
1572,336363,2.39608,1.4459440000000001,-4.619408,6.685,174.335,82.67
1573,336460,0.8679081,1.583072,-3.132228,36.9425,2.1,43.89
1574,336557,-0.049532,1.07726,-1.82634,112.7175,-64.1375,27.5625
1575,336654,-0.285968,0.465308,-1.143384,153.545,-75.7925,17.4825
1576,336751,-0.154452,0.130052,-0.9825879999999999,131.425,-74.7425,-3.22
1577,336848,0.10418800000000002,0.19861600000000001,-1.114348,75.39,-85.8725,-29.7325
1578,336946,0.246196,0.397476,-1.248304,36.6625,-110.81,-45.6575
1579,337043,0.291092,0.48995200000000005,-1.283196,36.0325,-142.3625,-46.0075
1580,337140,0.31842,0.37746799999999997,-1.2282959999999998,57.1375,-173.425,-38.045
1581,337237,0.34867600000000004,0.196664,-1.154608,70.4725,-204.155,-32.48
1582,337334,0.42602399999999996,0.09711201,-1.108004,62.93,-235.83,-34.1425
1583,337431,0.46921199999999996,0.09320801,-1.05164,45.0975,-268.0125,-39.585
1584,337528,0.49702799999999997,0.10638399999999999,-0.978684,31.3775,-296.8525,-43.925
1585,337625,0.532408,0.09613601,-0.9018241,25.48,-319.5675,-45.22
1586,337722,0.580964,0.055144000000000006,-0.8596120999999999,23.6775,-336.525,-44.2925
1587,337819,0.642452,0.004148001,-0.8518040000000001,20.58,-349.3875,-42.0525
1588,337916,0.716384,-0.055388,-0.873764,13.0725,-359.24,-38.9725
1589,338014,0.8276481,-0.0854,-0.9489161,-0.7,-367.1675,-35.4025
1590,338111,0.9391560999999999,-0.032208,-1.0321200000000001,-17.745,-375.69,-30.8175
1591,338208,1.051884,0.027572000000000003,-1.1163,-31.2375,-383.9675,-25.1825
1592,338305,1.165832,0.077592,-1.1631479999999998,-40.215,-390.39,-19.075
1593,338402,1.330532,0.10809200000000001,-1.2038959999999999,-48.7025,-393.68,-14.105
1594,338499,1.5103600000000001,0.203984,-1.257088,-60.55,-394.275,-14.49
1595,338596,1.684332,0.378688,-1.30418,-72.5025,-392.6475,-22.2775
1596,338693,1.8724560000000001,0.606584,-1.378112,-76.02,-387.765,-38.045
1597,338790,2.127436,0.863516,-1.452532,-65.94,-379.155,-59.605
1598,338888,2.421456,1.0145520000000001,-1.43228,-40.7575,-368.7775,-85.47
1599,338985,2.714988,1.055544,-1.303204,-11.8125,-358.9775,-117.635
1600,339082,2.988756,1.109224,-1.1192280000000001,8.75,-352.205,-157.3075
1601,339179,3.1390599999999997,1.137772,-0.8315520000000001,25.97,-346.85,-198.905
1602,339276,3.0863560000000003,1.022848,-0.42553599999999997,44.485,-337.1025,-235.9
1603,339373,2.919216,0.921344,-0.06636801,56.105,-316.8725,-269.71
1604,339470,2.8735880000000003,0.916464,0.114192,62.5625,-284.515,-298.62
1605,339567,2.941176,0.9828321,0.1708,72.3275,-248.5,-315.7525
1606,339664,3.1085599999999998,0.885964,0.27889200000000003,88.725,-218.1725,-320.9325
1607,339761,3.244468,0.49776000000000004,0.7378560000000001,99.365,-195.1075,-322.91
1608,339859,3.374764,-0.740296,1.760948,87.2025,-171.15,-322.9975
1609,339956,3.357928,-0.898652,2.40828,3.0975,-133.91,-320.53
1610,340053,2.9036,-0.314272,2.278716,-58.59,-64.0325,-276.0625
1611,340150,2.68644,-0.4209,1.426424,-11.5325,30.3975,-183.3475
1612,340247,2.567856,-0.665876,0.36234,37.625,90.2475,-93.6425
1613,340344,1.508408,-1.137772,1.1331360000000001,23.5025,95.865,-39.795
1614,340441,-2.144516,-0.007076001,1.219268,-62.685,150.9375,-30.3275
1615,340538,-0.965996,-0.299388,-1.01626,-92.9425,304.955,-33.74
1616,340636,1.676768,0.48385200000000006,-0.6958880000000001,-105.4725,388.815,3.675
1617,340733,2.45098,0.15762400000000001,-1.494988,-86.45,416.675,9.8
1618,340830,1.903444,-0.173728,-1.4757120000000001,-73.92,381.7975,-6.8075
1619,340927,1.9951880000000002,-0.17202,-1.29198,-62.37,354.7425,13.0025
1620,341024,3.4077040000000003,0.877912,-3.541904,-49.9975,319.62,38.325
1621,341121,6.199064,1.7443560000000002,-1.392264,17.395,198.0475,-4.69
1622,341218,-1.363228,0.444812,-0.879376,98.91001,-25.13,41.685
1623,341315,1.3886040000000002,-0.320616,-1.0919,51.1875,51.1875,22.3825
1624,341412,0.42895200000000006,0.363072,-0.652944,22.6975,4.2875,17.5525
1625,341509,0.6178081,0.235948,-0.9142680000000001,25.55,11.305,15.645
1626,341607,0.6663640000000001,0.205692,-0.8720559999999999,26.32,-4.1475,23.17
1627,341704,0.527528,0.15762400000000001,-0.868396,22.9775,-10.9725,27.79
1628,341801,0.5726680000000001,0.125904,-0.892308,24.5175,-14.3325,30.8
1629,341898,0.538508,0.01952,-0.8647360000000001,23.8525,-16.8875,30.38
1630,341995,0.503616,0.06661201,-0.893284,20.1425,-16.1875,27.0725
1631,342092,0.518744,0.0305,-0.8849879999999999,18.2175,-13.1775,24.99
1632,342189,0.5172800999999999,0.016836,-0.873276,16.6775,-10.1325,22.26
1633,342286,0.524356,-0.012931999999999999,-0.880352,14.9275,-8.33,19.005
1634,342383,0.5124001,-0.019275999999999998,-0.8637601,12.005,-5.8275,15.54
1635,342481,0.509228,-0.010248,-0.87108,9.345,-3.4125,11.8825
1636,342578,0.492392,0.007320001,-0.870592,6.9125,-0.8925,8.7675
1637,342675,0.48556000000000005,0.038064,-0.8788879999999999,5.18,1.82,7.07
1638,342772,0.50142,0.016592,-0.8693719999999999,5.11,4.4975,6.02
1639,342869,0.49873599999999996,0.010736,-0.8625401,4.06,6.2825,4.7075
1640,342966,0.5058121,0.04392,-0.8693719999999999,2.73,8.12,4.0775
1641,343063,0.516304,0.03172,-0.844972,2.695,9.9225,4.13
1642,343160,0.522648,0.022448,-0.8413120000000001,1.61,10.9725,4.41
1643,343257,0.510204,0.060512,-0.8647360000000001,0.525,12.0225,5.39
1644,343354,0.49556400000000006,0.041968,-0.8693719999999999,2.3275,14.28,7.21
1645,343451,0.516792,0.03294,-0.8657120999999999,2.59,16.765,7.9975
1646,343549,0.5219159999999999,0.023424,-0.8586360000000001,3.0975,18.34,8.33
1647,343646,0.503372,-0.027083999999999997,-0.8371639999999999,3.3425,19.39,7.945
1648,343743,0.5246,0.007320001,-0.849852,0.035,21.1225,6.825
1649,343840,0.534116,0.011224,-0.8410681000000001,0.105,21.8225,5.9325
1650,343937,0.5443640000000001,-0.009516001,-0.8281360999999999,-0.7525,21.8925,5.0575
1651,344034,0.545096,0.0051240009999999996,-0.8300879999999999,-2.065,20.9825,3.57
1652,344131,0.550952,0.015372,-0.828868,-2.59,19.8625,1.925
1653,344228,0.55998,0.0122,-0.8247200000000001,-2.3275,18.62,0.735
1654,344325,0.562664,0.012688,-0.821304,-2.31,16.9575,-0.315
1655,344422,0.558516,-0.008052001,-0.8193521,-3.115,15.435,-1.8025
1656,344520,0.559004,0.057339999999999995,-0.8439959999999999,-3.85,14.63,-3.92
1657,344617,0.548268,0.07442,-0.8510719999999999,-1.05,13.93,-3.8325
1658,344714,0.542168,0.064172,-0.8552200000000001,1.925,14.665,-1.68
1659,344811,0.5355800999999999,0.06636801,-0.8657120999999999,4.1825,17.0975,0.6475
1660,344908,0.5219159999999999,0.05636401,-0.8698601,6.755,21.0525,2.8875
1661,345005,0.5084960000000001,0.028548,-0.8788879999999999,9.1,26.705,4.48
1662,345102,0.49044,0.023424,-0.892064,10.36,34.545,5.04
1663,345199,0.474092,0.000976,-0.8940161,11.62,45.1675,4.9175
1664,345296,0.465796,-0.009272001,-0.9150001,12.18,58.6075,4.4975
1665,345394,0.44383599999999995,-0.033428,-0.9267120000000001,13.335,75.18,3.2725
1666,345491,0.427976,-0.046360000000000005,-0.9291520000000001,12.6175,96.25,0.5075
1667,345588,0.397476,-0.043188,-0.9415959999999999,11.4975,122.605,-3.5
1668,345685,0.373808,0.014396,-0.987224,9.0825,155.2775,-7.5775
1669,345782,0.4209,0.186904,-1.074576,12.495,194.0925,-9.45
1670,345879,0.429684,0.211792,-1.130452,33.81,222.5475,-5.4075
1671,345976,0.43163599999999996,0.312076,-1.268556,58.3625,243.4425,3.0975
1672,346073,0.5429,0.42163199999999995,-1.384456,89.775,285.4775,13.6675
1673,346170,0.494832,0.417484,-1.5579399999999999,141.6625,337.295,29.4175
1674,346268,0.984784,0.15054800000000002,-1.454484,208.11,394.73,39.1825
1675,346365,1.255868,0.36112,-1.938824,238.14,437.605,41.895
1676,346462,1.7577759999999998,0.5785241,-1.732156,269.3775,450.625,48.65
1677,346559,1.87392,0.735172,-1.7982799999999999,319.6725,439.355,56.07
1678,346656,1.187548,0.954284,-1.266848,371.7525,409.22,59.92
1679,346753,1.458144,0.716384,-1.41764,474.3025,366.0475,78.925
1680,346850,1.63968,-0.17324,-2.209908,538.9125,291.2525,62.3525
1681,346947,2.704252,-0.319884,-2.9209240000000003,478.9225,196.28,20.125
1682,347044,1.536468,0.187148,-2.22894,372.015,60.2,-17.7625
1683,347141,0.7117479999999999,0.486292,-1.51768,327.005,-33.5825,-23.205
1684,347238,0.187148,0.518012,-0.841556,342.9125,-57.7675,4.375
1685,347336,0.234972,0.417484,-0.666852,370.335,-43.4525,39.4275
1686,347433,0.449692,0.4023561,-0.823256,374.6225,-32.7425,65.38
1687,347530,0.630984,0.5614439999999999,-1.051884,353.1325,-39.7075,78.5925
1688,347627,0.740052,0.8784,-1.2439120000000001,327.95,-61.775,84.8575
1689,347724,0.8247200000000001,1.2056040000000001,-1.347612,319.5325,-90.86,90.9825
