,T,ax,ay,az,gx,gy,gz
0,9388986,0.8016621,-0.082838,-0.37515,18.6375,-16.0825,-15.785
1,9389139,0.834358,-0.074786,-0.500444,-57.68,47.39,-139.09
2,9389237,0.891942,-0.069906,-0.5296021,-90.70251,31.6925,-274.6975
3,9389335,0.90036,-0.055998,-0.520452,7.595,-96.7575,-88.83
4,9389433,0.8834021000000001,-0.052826,-0.523502,-4.34,-20.72,-9.59
5,9389531,0.89487,-0.071858,-0.50142,-1.365,-16.03,-3.71
6,9389629,0.8499741,-0.050874,-0.531798,-2.73,-15.12,-2.6775
7,9389726,0.844606,-0.062952,-0.531188,-2.1,-11.6725,-3.0625
8,9389824,0.845582,-0.066246,-0.5577840000000001,-4.1125,-7.8225,-3.465
9,9389922,0.8476561,-0.075762,-0.55083,-6.0375,-3.57,-3.2725
10,9390020,0.862784,-0.098576,-0.499224,-10.22,-0.56,-2.03
11,9390118,0.8321620000000001,-0.08784,-0.6034121,-17.4125,-2.2225,2.205
12,9390216,0.83814,-0.06954,-0.653188,-21.56,2.345,5.4075
13,9390314,0.823622,-0.0549,-0.670268,-22.61,9.5725,8.8375
14,9390412,0.8287459999999999,-0.023668,-0.65575,-16.5025,22.0675,10.71
15,9390510,0.945866,0.07259,-0.640378,-7.0175,34.6325,8.5925
16,9390608,1.146678,-0.10089400000000001,-0.05429,42.8925,-15.295,-5.0225
17,9390706,0.5875520000000001,-0.29402,0.13725,13.0375,-165.725,-3.78
18,9390804,0.45713400000000004,0.066246,-0.158722,-33.1975,-149.555,2.17
19,9390902,0.8010520000000001,-0.147498,-0.548024,27.895,21.175,-6.2125
20,9391000,0.9398880999999999,-0.071248,-0.7435901,-0.14,64.05,-6.16
21,9391098,0.865956,-0.077592,-0.577914,-5.3375,4.515,-5.6
22,9391195,0.8249639999999999,-0.06771001,-0.516426,-2.3275,-20.5975,-3.6225
23,9391293,0.823378,-0.06563601,-0.484828,-2.45,-17.2025,-2.975
24,9391391,0.824232,-0.062464,-0.512644,-2.135,-10.2725,-3.6575
25,9391489,0.834724,-0.06563601,-0.5380199999999999,-1.9075,-4.445,-4.4975
26,9391587,0.83204,-0.06466001,-0.5368,-2.24,-5.075,-4.655
27,9391685,0.825574,-0.063318,-0.525576,-2.345,-6.7025,-4.62
28,9391783,0.8258181,-0.065026,-0.524234,-2.0125,-6.5975,-4.585
29,9391881,0.823378,-0.06527000000000001,-0.5292359999999999,-2.135,-6.545,-4.27
30,9391979,0.82411,-0.065148,-0.52704,-2.5025,-6.825,-4.095
31,9392077,0.8253299999999999,-0.061975999999999996,-0.5260640000000001,-2.765,-7.0,-3.92
32,9392175,0.8283799999999999,-0.060146000000000005,-0.527162,-2.7125,-7.455,-4.0775
33,9392273,0.83204,-0.062464,-0.527528,-2.6075,-7.8225,-4.1825
34,9392371,0.834358,-0.062952,-0.5267960999999999,-2.485,-8.3125,-4.1825
35,9392468,0.8342360000000001,-0.063684,-0.5200861,-2.485,-8.47,-4.235
36,9392566,0.8344801,-0.064416,-0.516792,-2.73,-8.12,-4.235
37,9392664,0.834968,-0.06575800000000001,-0.521672,-2.905,-7.6825,-4.165
38,9392762,0.833992,-0.063074,-0.5261859999999999,-3.2375,-7.8575,-4.0775
39,9392860,0.834358,-0.058926,-0.528992,-3.43,-8.6975,-3.9025
40,9392958,0.8331381,-0.054778,-0.52765,-3.395,-9.4675,-3.85
41,9393056,0.832894,-0.050263999999999996,-0.5267960999999999,-3.3775,-9.8,-3.955
42,9393154,0.832894,-0.0488,-0.5239901,-3.115,-9.8875,-4.235
43,9393252,0.8300879999999999,-0.053191999999999996,-0.5246,-2.8525,-9.7825,-4.4275
44,9393350,0.828624,-0.052826,-0.5261859999999999,-2.8175,-9.8525,-4.6025
45,9393448,0.8281360999999999,-0.056608000000000006,-0.525942,-2.555,-10.0275,-4.9
46,9393546,0.828868,-0.056608000000000006,-0.526552,-2.135,-10.29,-5.11
47,9393644,0.8308200000000001,-0.053801999999999996,-0.525088,-1.8375,-10.6575,-5.285
48,9393742,0.833382,-0.052216,-0.521184,-1.6275,-10.5525,-5.425
49,9393839,0.833992,-0.05246,-0.519598,-1.645,-9.94,-5.5825
50,9393937,0.836676,-0.053924,-0.517402,-1.6275,-9.275,-5.53
51,9394035,0.8360661,-0.055510000000000004,-0.520452,-1.6975,-9.17,-5.6
52,9394133,0.8335040000000001,-0.055998,-0.523746,-1.6975,-9.275,-5.565
53,9394231,0.8308200000000001,-0.056729999999999996,-0.52277,-1.6975,-8.925,-5.5475
54,9394329,0.8277700000000001,-0.053924,-0.5239901,-1.6625,-8.225,-5.6875
55,9394427,0.8274040000000001,-0.053191999999999996,-0.524356,-1.5925,-7.525,-5.565
56,9394525,0.827526,-0.05246,-0.5267960999999999,-1.26,-7.21,-5.5475
57,9394623,0.829234,-0.05124001,-0.5282600000000001,-1.0675,-7.6125,-5.5475
58,9394721,0.829722,-0.050752,-0.52582,-0.9275,-8.085,-5.6525
59,9394819,0.829966,-0.050752,-0.52704,-0.8225,-8.435,-5.6175
60,9394917,0.8327720999999999,-0.050996,-0.525576,-0.455,-8.435,-5.6175
61,9395014,0.8315520000000001,-0.052216,-0.5260640000000001,-0.245,-8.2775,-5.7225
62,9395112,0.8277700000000001,-0.054167999999999994,-0.5248441,-0.1925,-8.1025,-5.53
63,9395210,0.82411,-0.05587601,-0.525088,-0.1575,-7.9625,-5.53
64,9395308,0.8203280000000001,-0.05563200000000001,-0.522892,-0.21,-7.525,-5.565
65,9395406,0.818742,-0.055754,-0.5206960999999999,-0.175,-7.0175,-5.6
66,9395504,0.8195960999999999,-0.054167999999999994,-0.521794,-0.105,-6.51,-5.6
67,9395602,0.8210601000000001,-0.051118000000000004,-0.5219159999999999,-0.105,-6.4225,-5.565
68,9395700,0.82655,-0.05246,-0.5206960999999999,-0.0175,-6.7725,-5.425
69,9395798,0.829966,-0.052582000000000004,-0.518134,0.035,-7.14,-5.285
70,9395896,0.8342360000000001,-0.052826,-0.5152061,-0.105,-7.105,-5.1975
71,9395993,0.8352120000000001,-0.053314,-0.5124001,-0.14,-6.685,-5.18
72,9396091,0.8357,-0.05453401,-0.515328,-0.2275,-6.265,-5.005
73,9396189,0.834724,-0.053070000000000006,-0.5160600000000001,-0.315,-5.985,-4.83
74,9396287,0.8327720999999999,-0.051362,-0.518012,-0.4725,-5.95,-4.5675
75,9396385,0.8306979999999999,-0.051972000000000004,-0.518378,-0.49,-5.95,-4.3925
76,9396483,0.8291120999999999,-0.051972000000000004,-0.52155,-0.5075,-5.985,-4.3225
77,9396581,0.8289901,-0.050142,-0.521794,-0.35,-6.1075,-4.4975
78,9396679,0.8271601000000001,-0.051972000000000004,-0.5214281,-0.0875,-6.2125,-4.6375
79,9396777,0.827282,-0.051484,-0.5214281,0.0175,-6.055,-4.8475
80,9396875,0.826428,-0.052338,-0.518378,0.035,-5.8975,-4.935
81,9396973,0.827282,-0.052338,-0.5191100000000001,-0.0525,-5.8625,-5.005
82,9397070,0.829356,-0.053191999999999996,-0.5191100000000001,-0.175,-6.0025,-5.04
83,9397168,0.8294780999999999,-0.05368,-0.5191100000000001,-0.35,-5.88,-4.935
84,9397266,0.8310639999999999,-0.053801999999999996,-0.521062,-0.4375,-5.5475,-4.935
85,9397364,0.8309421,-0.05355801,-0.520208,-0.385,-5.3725,-4.8125
86,9397462,0.83021,-0.053436000000000004,-0.519476,-0.42,-5.2325,-4.865
87,9397560,0.8282579999999999,-0.054046000000000004,-0.518988,-0.6475,-5.005,-4.8125
88,9397658,0.8291120999999999,-0.05453401,-0.519476,-0.735,-4.9,-4.6375
89,9397756,0.8281360999999999,-0.0549,-0.521306,-0.8925,-5.04,-4.48
90,9397854,0.8280139999999999,-0.056974000000000004,-0.5219159999999999,-1.015,-5.2325,-4.3925
91,9397952,0.8296,-0.055265999999999996,-0.5231359999999999,-1.155,-5.4075,-4.235
92,9398050,0.8309421,-0.05648601,-0.5219159999999999,-1.155,-5.46,-4.2
93,9398147,0.8310639999999999,-0.053924,-0.523014,-1.2425,-5.6525,-4.13
94,9398245,0.8317960999999999,-0.053314,-0.521306,-1.4,-5.7925,-4.165
95,9398343,0.830332,-0.052582000000000004,-0.520452,-1.4875,-5.67,-3.99
96,9398441,0.8283799999999999,-0.050752,-0.522526,-1.7675,-5.5475,-3.955
97,9398539,0.8271601000000001,-0.049654000000000004,-0.5249659999999999,-1.925,-5.635,-3.92
98,9398637,0.82655,-0.050874,-0.5247221,-1.96,-5.67,-4.0425
99,9398735,0.8248421,-0.05368,-0.525088,-1.96,-5.565,-4.13
100,9398833,0.82411,-0.053924,-0.5260640000000001,-1.9775,-5.5825,-4.2875
101,9398931,0.823378,-0.050386,-0.523624,-2.275,-5.5125,-4.34
102,9399029,0.822768,-0.049044,-0.523258,-2.31,-5.355,-4.3925
103,9399126,0.823134,-0.04819,-0.525942,-2.24,-5.215,-4.375
104,9399224,0.8253299999999999,-0.047458,-0.528748,-2.3275,-5.2675,-4.4275
105,9399322,0.8260620000000001,-0.048556,-0.52765,-2.2925,-5.285,-4.3225
106,9399420,0.830576,-0.05002,-0.5231359999999999,-2.3625,-5.18,-4.3225
107,9399518,0.8341139999999999,-0.051972000000000004,-0.52155,-2.345,-5.285,-4.515
108,9399616,0.8369200000000001,-0.052216,-0.5239901,-2.2925,-5.845,-4.515
109,9399714,0.83631,-0.053070000000000006,-0.52094,-2.3975,-6.3525,-4.3925
110,9399812,0.834358,-0.053801999999999996,-0.517646,-2.625,-6.1775,-4.2875
111,9399910,0.8308200000000001,-0.053924,-0.5198421,-2.9225,-5.6875,-4.0775
112,9400007,0.83021,-0.05355801,-0.522404,-3.115,-5.285,-3.9025
113,9400105,0.8281360999999999,-0.052338,-0.523624,-3.2375,-5.25,-3.99
114,9400203,0.829722,-0.051362,-0.525942,-3.115,-5.4775,-3.9025
115,9400301,0.8308200000000001,-0.05185,-0.523868,-2.9225,-5.7575,-3.9725
116,9400399,0.831918,-0.051362,-0.525088,-2.835,-5.6175,-3.99
117,9400497,0.8314301,-0.049776,-0.524112,-2.6425,-5.39,-3.85
118,9400595,0.8311860999999999,-0.052582000000000004,-0.522038,-2.6075,-5.355,-3.9025
119,9400693,0.8321620000000001,-0.0549,-0.524234,-2.66,-5.355,-3.745
120,9400791,0.832406,-0.0549,-0.524112,-2.695,-5.4425,-3.6575
121,9400889,0.832406,-0.05355801,-0.5239901,-2.87,-5.635,-3.535
122,9400986,0.8294780999999999,-0.053801999999999996,-0.5252100000000001,-2.66,-5.7575,-3.5875
123,9401084,0.827282,-0.05355801,-0.5260640000000001,-2.59,-5.705,-3.5175
124,9401182,0.82411,-0.053801999999999996,-0.527772,-2.485,-5.5825,-3.5525
125,9401280,0.8235001000000001,-0.053314,-0.527406,-2.485,-5.4775,-3.5175
126,9401378,0.8243541,-0.054046000000000004,-0.526552,-2.3975,-5.4775,-3.5875
127,9401476,0.8230120999999999,-0.053314,-0.528748,-2.3625,-5.3725,-3.6925
128,9401574,0.8244761,-0.052216,-0.527772,-2.205,-5.2675,-3.7275
129,9401672,0.826428,-0.052582000000000004,-0.5282600000000001,-2.0125,-5.4425,-3.7625
130,9401770,0.8258181,-0.052582000000000004,-0.528382,-1.9075,-5.74,-3.6925
131,9401868,0.8254520000000001,-0.051484,-0.528016,-1.7325,-5.8625,-3.85
132,9401966,0.825574,-0.049654000000000004,-0.52704,-1.61,-5.67,-3.9375
133,9402063,0.8258181,-0.052216,-0.527894,-1.5925,-5.5125,-4.025
134,9402161,0.8274040000000001,-0.05209400000000001,-0.525332,-1.5225,-5.4075,-4.095
135,9402259,0.8281360999999999,-0.053191999999999996,-0.5264300000000001,-1.435,-5.355,-4.2525
136,9402357,0.8294780999999999,-0.05429,-0.524112,-1.47,-5.3375,-4.3575
137,9402455,0.83265,-0.053436000000000004,-0.522526,-1.54,-5.3375,-4.3925
138,9402553,0.834358,-0.05368,-0.523502,-1.4525,-5.3375,-4.3925
139,9402651,0.8337481,-0.054046000000000004,-0.52155,-1.4875,-5.5825,-4.375
140,9402749,0.833626,-0.053070000000000006,-0.522526,-1.3825,-5.74,-4.27
141,9402847,0.8298440999999999,-0.054167999999999994,-0.524478,-1.295,-5.5825,-4.34
142,9402944,0.8270379999999999,-0.05368,-0.5231359999999999,-1.4525,-5.2325,-4.3925
143,9403042,0.82411,-0.054046000000000004,-0.522038,-1.4175,-4.7425,-4.34
144,9403140,0.821304,-0.054046000000000004,-0.52155,-1.505,-4.55,-4.375
145,9403238,0.8210601000000001,-0.053314,-0.524112,-1.4175,-4.795,-4.375
146,9403336,0.821426,-0.053314,-0.524356,-1.295,-5.39,-4.3575
147,9403434,0.8250860000000001,-0.051362,-0.523014,-1.3125,-5.88,-4.235
148,9403532,0.8283799999999999,-0.05185,-0.524112,-1.1725,-6.1425,-4.2525
149,9403630,0.8289901,-0.051118000000000004,-0.523258,-1.155,-6.3175,-4.1825
150,9403728,0.8289901,-0.05160601,-0.522648,-1.26,-5.9325,-4.165
151,9403826,0.827526,-0.051362,-0.5206960999999999,-1.2425,-5.495,-4.235
152,9403924,0.825574,-0.053070000000000006,-0.521062,-1.19,-5.075,-4.3225
153,9404021,0.8222799999999999,-0.05185,-0.525088,-1.26,-4.9525,-4.27
154,9404119,0.820938,-0.05124001,-0.526552,-1.225,-5.145,-4.3575
155,9404217,0.823134,-0.050996,-0.526918,-1.0675,-5.25,-4.3575
156,9404315,0.823256,-0.05063,-0.52704,-1.0675,-5.2325,-4.5675
157,9404413,0.8263060999999999,-0.05063,-0.526674,-0.945,-5.285,-4.5675
158,9404511,0.8267940999999999,-0.050386,-0.528016,-0.8925,-5.5125,-4.6725
159,9404609,0.827282,-0.05185,-0.527528,-0.945,-5.635,-4.6725
160,9404707,0.82655,-0.051972000000000004,-0.52582,-1.0675,-5.565,-4.725
161,9404805,0.827526,-0.05124001,-0.527894,-1.0325,-5.67,-4.7425
162,9404903,0.827892,-0.052338,-0.527284,-1.085,-5.635,-4.8125
163,9405001,0.826428,-0.053070000000000006,-0.527162,-1.05,-5.845,-4.76
164,9405098,0.8258181,-0.054046000000000004,-0.528016,-1.1375,-6.0375,-4.76
165,9405196,0.82411,-0.052582000000000004,-0.526918,-1.1725,-6.0375,-4.69
166,9405294,0.825574,-0.052582000000000004,-0.5267960999999999,-1.19,-5.9675,-4.725
167,9405392,0.8253299999999999,-0.053801999999999996,-0.524234,-1.225,-5.81,-4.795
168,9405490,0.8230120999999999,-0.05429,-0.5267960999999999,-1.4175,-5.7925,-4.7425
169,9405588,0.8219139999999999,-0.05636401,-0.5296021,-1.33,-5.635,-4.69
170,9405686,0.8215481,-0.05209400000000001,-0.5313100000000001,-1.365,-5.6525,-4.585
171,9405784,0.8210601000000001,-0.051484,-0.5291140000000001,-1.4,-5.7225,-4.585
172,9405882,0.8203280000000001,-0.0549,-0.531188,-1.3125,-5.7225,-4.6025
173,9405980,0.821792,-0.05429,-0.529724,-1.2775,-5.7925,-4.62
174,9406077,0.8219139999999999,-0.054167999999999994,-0.531066,-1.4,-5.8975,-4.655
175,9406175,0.8239880999999999,-0.05453401,-0.5294800000000001,-1.3475,-5.8625,-4.6725
176,9406273,0.823866,-0.05355801,-0.5281380999999999,-1.225,-5.67,-4.62
177,9406371,0.823866,-0.053314,-0.5294800000000001,-1.3475,-5.4425,-4.62
178,9406469,0.8248421,-0.053801999999999996,-0.528992,-1.4,-5.425,-4.5675
179,9406567,0.82594,-0.05453401,-0.5294800000000001,-1.4175,-5.4775,-4.62
180,9406665,0.8260620000000001,-0.05453401,-0.5294800000000001,-1.5575,-5.5825,-4.5675
181,9406763,0.8243541,-0.055144000000000006,-0.530212,-1.5575,-5.565,-4.585
182,9406861,0.8244761,-0.0549,-0.5282600000000001,-1.505,-5.67,-4.4625
183,9406959,0.8250860000000001,-0.054412,-0.529724,-1.4175,-5.635,-4.48
184,9407057,0.8245979999999999,-0.053191999999999996,-0.530334,-1.505,-5.7225,-4.48
185,9407155,0.823134,-0.053314,-0.528626,-1.5925,-5.7225,-4.305
186,9407252,0.8260620000000001,-0.05172801,-0.5282600000000001,-1.68,-5.53,-4.2
187,9407350,0.8249639999999999,-0.053314,-0.528016,-1.575,-5.5125,-4.1475
188,9407448,0.8244761,-0.05429,-0.529358,-1.6275,-5.6175,-4.095
189,9407546,0.823134,-0.055754,-0.529846,-1.645,-5.565,-4.095
190,9407644,0.8256960999999999,-0.055510000000000004,-0.528504,-1.7325,-5.5125,-4.2
191,9407742,0.8245979999999999,-0.052703999999999994,-0.52582,-1.7675,-5.215,-4.34
192,9407840,0.825574,-0.052338,-0.528016,-1.6975,-5.0925,-4.375
193,9407938,0.8245979999999999,-0.051362,-0.530822,-1.6975,-5.1275,-4.3225
194,9408036,0.8248421,-0.05160601,-0.531554,-1.645,-5.18,-4.165
195,9408134,0.8282579999999999,-0.05160601,-0.528748,-1.8025,-5.2325,-4.2
196,9408232,0.8289901,-0.053801999999999996,-0.524234,-1.6275,-5.285,-4.34
197,9408330,0.832528,-0.052948,-0.5247221,-1.5925,-5.67,-4.3925
198,9408428,0.83265,-0.05368,-0.5231359999999999,-1.575,-6.23,-4.4975
199,9408526,0.831918,-0.054046000000000004,-0.518744,-1.7675,-6.335,-4.3575
200,9408623,0.8283799999999999,-0.052216,-0.52155,-1.925,-5.9675,-4.2875
201,9408721,0.8245979999999999,-0.05246,-0.521794,-2.17,-5.74,-4.1825
202,9408819,0.8222799999999999,-0.052582000000000004,-0.524234,-2.31,-5.4425,-4.3575
203,9408917,0.820572,-0.05002,-0.527528,-2.345,-5.5475,-4.3925
204,9409015,0.823134,-0.048312,-0.529358,-2.2225,-5.845,-4.445
205,9409113,0.8235001000000001,-0.046360000000000005,-0.528504,-1.89,-5.81,-4.4625
206,9409211,0.8247200000000001,-0.045872,-0.528382,-1.75,-5.6,-4.41
207,9409309,0.82594,-0.047336,-0.5281380999999999,-1.6975,-5.4775,-4.3225
208,9409407,0.826428,-0.0488,-0.525698,-1.7675,-5.4075,-4.375
209,9409505,0.8276481,-0.050263999999999996,-0.525332,-1.8725,-5.5825,-4.375
210,9409603,0.8276481,-0.050263999999999996,-0.5247221,-2.0825,-5.7575,-4.34
211,9409701,0.8271601000000001,-0.04941,-0.5247221,-2.1525,-5.775,-4.3575
212,9409799,0.8276481,-0.049532,-0.5248441,-2.3275,-5.7925,-4.48
213,9409897,0.8285021,-0.05002,-0.5249659999999999,-2.345,-6.0025,-4.445
214,9409995,0.8282579999999999,-0.048068,-0.527406,-2.52,-6.16,-4.3575
215,9410092,0.8287459999999999,-0.046482,-0.527162,-2.5025,-6.0375,-4.4275
216,9410190,0.8287459999999999,-0.046726,-0.527162,-2.4675,-5.8975,-4.41
217,9410288,0.828868,-0.04575,-0.527284,-2.3975,-5.6875,-4.4625
218,9410386,0.828624,-0.043432,-0.528748,-2.2575,-5.425,-4.4275
219,9410484,0.828624,-0.04331,-0.528626,-2.0825,-5.25,-4.375
220,9410582,0.828624,-0.044896,-0.5282600000000001,-1.9425,-5.25,-4.41
221,9410680,0.8267940999999999,-0.046238,-0.52582,-1.925,-5.285,-4.3925
222,9410778,0.8263060999999999,-0.048068,-0.524112,-1.8025,-5.0925,-4.2875
223,9410876,0.8248421,-0.049044,-0.524112,-1.8375,-4.865,-4.1825
224,9410974,0.823378,-0.052582000000000004,-0.522648,-1.9075,-4.9,-4.1125
225,9411072,0.8226459999999999,-0.053314,-0.521672,-2.1525,-4.935,-3.99
226,9411170,0.823378,-0.052216,-0.5219159999999999,-2.3625,-4.9,-3.9725
227,9411268,0.824232,-0.053070000000000006,-0.52277,-2.415,-4.8125,-3.8675
228,9411366,0.8253299999999999,-0.052703999999999994,-0.524356,-2.59,-4.865,-3.7625
229,9411464,0.8276481,-0.049532,-0.525454,-2.66,-5.005,-3.815
230,9411561,0.8291120999999999,-0.046482,-0.52582,-2.5725,-4.9875,-3.745
231,9411659,0.8310639999999999,-0.045262000000000004,-0.5260640000000001,-2.5025,-5.005,-3.78
232,9411757,0.8314301,-0.045384,-0.524234,-2.2925,-4.9875,-3.8325
233,9411855,0.8298440999999999,-0.042944,-0.523624,-2.31,-4.865,-3.85
234,9411953,0.8277700000000001,-0.043188,-0.523746,-2.17,-4.795,-3.92
235,9412051,0.8271601000000001,-0.044774,-0.523502,-1.9075,-4.7775,-3.9025
236,9412149,0.8270379999999999,-0.046116000000000004,-0.5248441,-1.7325,-4.795,-4.0425
237,9412247,0.82655,-0.047214,-0.523258,-1.75,-5.04,-3.99
238,9412345,0.8280139999999999,-0.04867801,-0.5221600000000001,-1.6975,-4.9525,-4.1125
239,9412443,0.8281360999999999,-0.049654000000000004,-0.522038,-1.5575,-4.935,-4.0775
240,9412541,0.8280139999999999,-0.049532,-0.523014,-1.6275,-5.11,-4.165
241,9412639,0.8277700000000001,-0.048312,-0.522282,-1.6275,-4.9875,-4.2875
242,9412737,0.827892,-0.047214,-0.521306,-1.4875,-5.0225,-4.3225
243,9412835,0.8253299999999999,-0.047092,-0.5233800000000001,-1.4525,-4.865,-4.375
244,9412932,0.8254520000000001,-0.047580000000000004,-0.523868,-1.365,-4.6375,-4.48
245,9413030,0.8261841000000001,-0.048434,-0.523746,-1.26,-4.62,-4.4275
246,9413128,0.8249639999999999,-0.049044,-0.523014,-1.1725,-4.865,-4.4625
247,9413226,0.82594,-0.048556,-0.52277,-1.05,-4.865,-4.375
248,9413324,0.8280139999999999,-0.049044,-0.521794,-1.05,-4.9525,-4.34
249,9413422,0.8298440999999999,-0.049776,-0.522526,-1.0325,-5.075,-4.34
250,9413520,0.829234,-0.049776,-0.52094,-1.0325,-5.1975,-4.2525
251,9413618,0.8287459999999999,-0.04941,-0.5206960999999999,-1.05,-5.145,-4.1825
252,9413716,0.829722,-0.050142,-0.520818,-1.12,-5.005,-4.375
253,9413814,0.8300879999999999,-0.049898000000000005,-0.523014,-1.155,-5.1975,-4.375
254,9413912,0.829356,-0.049532,-0.522648,-1.155,-5.215,-4.375
255,9414010,0.8276481,-0.047702,-0.522038,-1.12,-5.04,-4.3575
256,9414108,0.8254520000000001,-0.046604,-0.5233800000000001,-1.0675,-4.7775,-4.41
257,9414206,0.8260620000000001,-0.046116000000000004,-0.523624,-0.8400001,-4.8125,-4.445
258,9414303,0.827282,-0.04575,-0.522038,-0.665,-4.9875,-4.5675
259,9414401,0.8281360999999999,-0.046116000000000004,-0.523868,-0.5425,-4.9525,-4.62
260,9414499,0.830332,-0.045872,-0.5248441,-0.4025,-5.3025,-4.7425
261,9414597,0.8310639999999999,-0.046116000000000004,-0.524112,-0.3325,-5.5825,-4.8475
262,9414695,0.8309421,-0.047824,-0.5219159999999999,-0.245,-5.5125,-4.935
263,9414793,0.8298440999999999,-0.048312,-0.519964,-0.21,-5.355,-4.83
264,9414891,0.8281360999999999,-0.049044,-0.51972,-0.2275,-5.005,-4.7425
265,9414989,0.826916,-0.048068,-0.519476,-0.245,-5.005,-4.69
266,9415087,0.8249639999999999,-0.04941,-0.52155,-0.49,-5.005,-4.62
267,9415185,0.8247200000000001,-0.050996,-0.5233800000000001,-0.49,-5.11,-4.445
268,9415283,0.826428,-0.050263999999999996,-0.523746,-0.6825,-5.25,-4.4975
269,9415381,0.8276481,-0.05002,-0.522282,-0.6475,-5.39,-4.55
270,9415479,0.8298440999999999,-0.048922,-0.523624,-0.6825,-5.355,-4.4625
271,9415577,0.829722,-0.047336,-0.5239901,-0.665,-5.4075,-4.4975
272,9415674,0.829356,-0.047945999999999996,-0.5219159999999999,-0.7,-5.3375,-4.4275
273,9415772,0.8285021,-0.048068,-0.519476,-0.665,-5.3725,-4.375
274,9415870,0.8291120999999999,-0.046726,-0.516914,-0.6125,-5.4075,-4.4275
275,9415968,0.8276481,-0.048434,-0.518378,-0.6125,-5.3725,-4.27
276,9416066,0.8274040000000001,-0.0488,-0.518012,-0.735,-5.3725,-4.2525
277,9416164,0.8280139999999999,-0.04867801,-0.518256,-0.735,-5.46,-4.1825
278,9416262,0.8280139999999999,-0.049776,-0.52155,-0.665,-5.46,-4.1125
279,9416360,0.82594,-0.050508,-0.522648,-0.6475,-5.4775,-4.0775
280,9416458,0.8256960999999999,-0.050263999999999996,-0.5221600000000001,-0.5775,-5.3725,-4.2175
281,9416556,0.8298440999999999,-0.048922,-0.521184,-0.6125,-5.2675,-4.34
282,9416654,0.831674,-0.046482,-0.524234,-0.6475,-5.355,-4.445
283,9416752,0.8344801,-0.047092,-0.524478,-0.5775,-5.5475,-4.375
284,9416850,0.8369200000000001,-0.04697001,-0.524356,-0.665,-5.81,-4.2
285,9416948,0.8357,-0.047702,-0.5198421,-0.7,-5.81,-4.025
286,9417046,0.8344801,-0.050996,-0.5161819999999999,-0.7875,-5.565,-4.06
287,9417143,0.8355780999999999,-0.052948,-0.5152061,-0.8225,-5.6,-4.1475
288,9417241,0.8338700000000001,-0.052703999999999994,-0.515572,-0.8225,-5.95,-4.06
289,9417339,0.8306979999999999,-0.053191999999999996,-0.515938,-0.9275,-6.2475,-3.9725
290,9417437,0.827526,-0.054412,-0.51423,-1.12,-6.195,-3.8675
291,9417535,0.8248421,-0.053070000000000006,-0.518134,-1.2775,-5.7575,-3.8675
292,9417633,0.821304,-0.052216,-0.5191100000000001,-1.4525,-5.5475,-3.8675
293,9417731,0.82045,-0.05172801,-0.5221600000000001,-1.505,-5.53,-3.9375
294,9417829,0.8206940999999999,-0.05172801,-0.524234,-1.435,-5.6525,-3.9025
295,9417927,0.8226459999999999,-0.050752,-0.5233800000000001,-1.5575,-5.6875,-3.815
296,9418025,0.82655,-0.05172801,-0.521306,-1.5225,-5.46,-3.8675
297,9418123,0.8285021,-0.05209400000000001,-0.521062,-1.365,-5.1275,-3.815
298,9418221,0.829966,-0.05185,-0.521062,-1.12,-4.7425,-3.7975
299,9418319,0.831674,-0.052826,-0.520452,-1.1025,-4.655,-3.9025
300,9418417,0.829966,-0.053070000000000006,-0.5206960999999999,-1.2075,-4.7075,-3.92
301,9418515,0.8308200000000001,-0.05160601,-0.5221600000000001,-1.2075,-4.83,-3.8675
302,9418612,0.831674,-0.05246,-0.524478,-0.9975,-5.005,-3.99
303,9418710,0.83204,-0.051118000000000004,-0.5246,-0.77,-5.25,-4.0075
304,9418808,0.829234,-0.050508,-0.524112,-0.735,-5.425,-4.1825
305,9418906,0.8282579999999999,-0.05063,-0.524112,-0.6475,-5.67,-4.2875
306,9419004,0.8274040000000001,-0.051362,-0.5248441,-0.5075,-5.8275,-4.27
307,9419102,0.826428,-0.05246,-0.5261859999999999,-0.2975,-5.8275,-4.4275
308,9419200,0.827282,-0.054167999999999994,-0.526308,-0.2275,-5.8275,-4.48
309,9419298,0.8294780999999999,-0.05612,-0.5264300000000001,-0.2275,-6.0375,-4.62
310,9419396,0.833016,-0.055388,-0.5264300000000001,-0.2625,-6.195,-4.7775
311,9419494,0.835334,-0.05624199999999999,-0.525454,-0.21,-6.3175,-4.865
312,9419592,0.836676,-0.055754,-0.5248441,-0.2975,-6.405,-4.69
313,9419690,0.833626,-0.055022,-0.523258,-0.56,-6.3875,-4.585
314,9419787,0.8322841000000001,-0.055022,-0.522282,-0.665,-6.265,-4.4275
315,9419885,0.833626,-0.05453401,-0.523868,-0.63,-6.3525,-4.2875
316,9419983,0.8296,-0.055998,-0.522282,-0.6125,-6.545,-4.2175
317,9420081,0.8291120999999999,-0.055998,-0.522404,-0.5775,-6.6325,-4.2
318,9420179,0.8282579999999999,-0.055022,-0.520574,-0.5075,-6.5975,-4.2525
319,9420277,0.8260620000000001,-0.055388,-0.519598,-0.525,-6.6675,-4.305
320,9420375,0.8280139999999999,-0.05624199999999999,-0.5206960999999999,-0.4725,-6.58,-4.3225
321,9420473,0.827526,-0.054046000000000004,-0.51972,-0.56,-6.37,-4.3575
322,9420571,0.8285021,-0.05368,-0.5185,-0.5775,-6.16,-4.305
323,9420669,0.8281360999999999,-0.052338,-0.5198421,-0.665,-6.1075,-4.34
324,9420767,0.8274040000000001,-0.05355801,-0.5185,-0.63,-5.95,-4.27
325,9420865,0.827526,-0.053801999999999996,-0.518744,-0.595,-5.845,-4.3925
326,9420963,0.8296,-0.053801999999999996,-0.520208,-0.665,-5.6875,-4.3925
327,9421060,0.8291120999999999,-0.05453401,-0.5206960999999999,-0.7175,-5.7925,-4.305
328,9421158,0.829234,-0.053801999999999996,-0.5193541,-0.595,-5.74,-4.305
329,9421256,0.8283799999999999,-0.052216,-0.51789,-0.5775,-5.635,-4.2875
330,9421354,0.8281360999999999,-0.052338,-0.51972,-0.56,-5.5825,-4.375
331,9421452,0.8280139999999999,-0.05185,-0.5198421,-0.6475,-5.5125,-4.3575
332,9421550,0.82655,-0.05185,-0.5206960999999999,-0.665,-5.46,-4.2875
333,9421648,0.827526,-0.051362,-0.521184,-0.7,-5.3375,-4.3225
334,9421746,0.8271601000000001,-0.052216,-0.521794,-0.665,-5.32,-4.34
335,9421844,0.826672,-0.052826,-0.521794,-0.665,-5.215,-4.3925
336,9421942,0.82655,-0.053436000000000004,-0.522038,-0.63,-5.1275,-4.4625
337,9422040,0.8247200000000001,-0.053436000000000004,-0.5200861,-0.63,-5.075,-4.4275
338,9422138,0.8245979999999999,-0.0549,-0.522282,-0.7,-4.83,-4.41
339,9422236,0.823744,-0.054778,-0.523868,-0.91,-4.655,-4.3225
340,9422333,0.823744,-0.052216,-0.524478,-1.1025,-4.62,-4.41
341,9422431,0.8249639999999999,-0.05355801,-0.522892,-1.05,-4.7775,-4.27
342,9422529,0.8252079999999999,-0.052703999999999994,-0.5252100000000001,-1.05,-4.83,-4.3225
343,9422627,0.8243541,-0.052582000000000004,-0.525698,-0.9625,-4.6025,-4.34
344,9422725,0.823866,-0.05429,-0.525698,-0.9625,-4.4275,-4.27
345,9422823,0.823866,-0.052826,-0.5267960999999999,-0.98,-4.445,-4.2
346,9422921,0.8245979999999999,-0.050752,-0.525576,-0.945,-4.27,-4.13
347,9423019,0.8253299999999999,-0.052216,-0.527284,-0.875,-4.2175,-4.0775
348,9423117,0.8258181,-0.052948,-0.526674,-0.7,-4.305,-4.0425
349,9423215,0.8285021,-0.053070000000000006,-0.527406,-0.7525,-4.585,-4.06
350,9423313,0.8296,-0.05160601,-0.52704,-0.735,-4.9525,-4.095
351,9423411,0.8306979999999999,-0.052216,-0.5260640000000001,-0.6475,-4.9525,-4.0425
352,9423509,0.8310639999999999,-0.05124001,-0.525698,-0.5425,-5.0925,-4.0775
353,9423607,0.8311860999999999,-0.050752,-0.525576,-0.4375,-5.32,-4.025
354,9423705,0.8314301,-0.051118000000000004,-0.5267960999999999,-0.2975,-5.3725,-4.095
355,9423802,0.83204,-0.05172801,-0.52765,-0.28,-5.4775,-4.095
356,9423900,0.832406,-0.051484,-0.52704,-0.21,-5.8275,-4.0425
357,9423998,0.8310639999999999,-0.053070000000000006,-0.526918,-0.035,-6.0375,-4.0075
358,9424096,0.831308,-0.05429,-0.5267960999999999,0.2275,-6.125,-4.0075
359,9424194,0.8317960999999999,-0.054046000000000004,-0.524478,0.455,-6.265,-4.095
360,9424292,0.8317960999999999,-0.053924,-0.5248441,0.8225,-6.3175,-4.13
361,9424390,0.832528,-0.05587601,-0.525576,1.015,-6.475,-4.2525
362,9424488,0.83021,-0.055510000000000004,-0.523746,1.1375,-6.8425,-4.095
363,9424586,0.8267940999999999,-0.055388,-0.522404,1.295,-6.79,-4.025
364,9424684,0.8270379999999999,-0.05612,-0.5200861,1.3125,-6.65,-3.9725
365,9424782,0.82655,-0.05819401,-0.5193541,1.3475,-6.615,-3.9025
366,9424880,0.8243541,-0.057584,-0.5193541,1.365,-6.7025,-3.9025
367,9424978,0.8258181,-0.05929201,-0.521062,1.295,-6.4225,-4.1825
368,9425076,0.8245979999999999,-0.058682000000000005,-0.5193541,1.295,-6.23,-4.2875
369,9425174,0.8270379999999999,-0.059048,-0.521062,1.1725,-6.0375,-4.515
370,9425272,0.8271601000000001,-0.05856,-0.5233800000000001,1.2775,-6.195,-4.6025
371,9425369,0.8281360999999999,-0.05819401,-0.525576,1.3125,-6.685,-4.69
372,9425467,0.83021,-0.059902,-0.5246,1.295,-7.0,-4.6725
373,9425565,0.8322841000000001,-0.058926,-0.52155,1.4175,-7.035,-4.865
374,9425663,0.834724,-0.060024,-0.517768,1.5925,-7.1925,-5.0575
375,9425761,0.835456,-0.060512,-0.520574,1.6975,-7.595,-5.0925
376,9425859,0.8337481,-0.060267999999999995,-0.5192319999999999,1.715,-8.1025,-4.97
377,9425957,0.832894,-0.062098,-0.51545,1.575,-8.295,-4.9175
378,9426055,0.8285021,-0.061975999999999996,-0.514596,1.5925,-7.9625,-4.8125
379,9426153,0.8250860000000001,-0.061366,-0.51667,1.6275,-7.5075,-4.8825
380,9426251,0.82411,-0.062341999999999995,-0.521306,1.575,-7.28,-4.935
381,9426349,0.8226459999999999,-0.061610000000000005,-0.518012,1.61,-7.385,-4.935
382,9426447,0.823866,-0.061854,-0.5198421,1.7325,-7.3675,-4.8825
383,9426545,0.8252079999999999,-0.061610000000000005,-0.51972,1.7675,-7.2625,-4.9
384,9426643,0.8287459999999999,-0.060146000000000005,-0.522404,1.925,-7.14,-4.9175
385,9426740,0.8317960999999999,-0.061,-0.521672,1.9775,-7.2975,-4.865
386,9426838,0.8344801,-0.062341999999999995,-0.518744,1.995,-7.245,-4.7075
387,9426936,0.8364321,-0.06490399999999999,-0.51789,1.7675,-7.175,-4.69
388,9427034,0.8372860999999999,-0.065026,-0.516304,1.6625,-7.07,-4.55
389,9427132,0.837042,-0.06575800000000001,-0.5200861,1.61,-7.105,-4.6375
390,9427230,0.834968,-0.064416,-0.520452,1.435,-7.5075,-4.48
391,9427328,0.8355780999999999,-0.06490399999999999,-0.521306,1.505,-7.35,-4.3225
392,9427426,0.833626,-0.06539201,-0.522404,1.7675,-6.9475,-4.27
393,9427524,0.8282579999999999,-0.067588,-0.5233800000000001,1.6975,-6.7375,-4.3225
394,9427622,0.8248421,-0.06649,-0.524234,1.575,-6.5275,-4.235
395,9427720,0.8239880999999999,-0.06490399999999999,-0.523258,1.2075,-6.5625,-4.165
396,9427818,0.8243541,-0.064294,-0.522648,1.12,-6.65,-4.1475
397,9427916,0.8239880999999999,-0.06405001,-0.51972,1.365,-6.615,-4.2525
398,9428013,0.822768,-0.06466001,-0.518988,1.3825,-6.615,-4.2525
399,9428111,0.8239880999999999,-0.06636801,-0.520208,1.33,-6.685,-4.2
400,9428209,0.8248421,-0.06563601,-0.51972,1.19,-6.965,-4.1475
401,9428307,0.8243541,-0.066124,-0.5193541,1.155,-7.2275,-4.2
402,9428405,0.8239880999999999,-0.066856,-0.519964,1.225,-7.0175,-4.2875
403,9428503,0.8243541,-0.068076,-0.521184,1.1375,-6.755,-4.375
404,9428601,0.8245979999999999,-0.06832001,-0.523624,0.91,-6.5625,-4.4275
405,9428699,0.8235001000000001,-0.067222,-0.523014,0.7525,-6.7725,-4.4275
406,9428797,0.823866,-0.069052,-0.522526,0.6825,-6.9125,-4.515
407,9428892,0.8224021,-0.068442,-0.5239901,0.6125,-6.72,-4.55
408,9428990,0.8224021,-0.06819800000000001,-0.523258,0.5775,-6.6675,-4.4975
409,9429088,0.8228901,-0.06880801,-0.523014,0.525,-6.4575,-4.5325
410,9429186,0.8228901,-0.068442,-0.523868,0.525,-6.405,-4.69
411,9429284,0.8224021,-0.067222,-0.523868,0.56,-6.3525,-4.6375
412,9429382,0.8216701,-0.069662,-0.524234,0.5075,-6.405,-4.62
413,9429480,0.8247200000000001,-0.06746601,-0.5247221,0.35,-6.545,-4.585
414,9429578,0.82594,-0.068564,-0.5231359999999999,0.315,-6.5625,-4.62
415,9429676,0.8249639999999999,-0.06880801,-0.522404,0.35,-6.405,-4.4625
416,9429774,0.8271601000000001,-0.07076001,-0.5247221,0.2975,-6.4225,-4.3575
417,9429871,0.829966,-0.071492,-0.525698,0.14,-6.3525,-4.305
418,9429969,0.828868,-0.071004,-0.526674,-0.0525,-6.4925,-4.235
419,9430067,0.8281360999999999,-0.070516,-0.5246,-0.14,-6.44,-4.13
420,9430165,0.8270379999999999,-0.07076001,-0.525698,-0.175,-6.3,-4.025
421,9430263,0.8270379999999999,-0.07246799999999999,-0.526552,-0.28,-6.2825,-3.9375
422,9430361,0.827892,-0.07173600000000001,-0.5291140000000001,-0.4025,-6.475,-3.885
423,9430459,0.8256960999999999,-0.07002799999999999,-0.526918,-0.5075,-6.8075,-3.9375
424,9430557,0.8248421,-0.071004,-0.5282600000000001,-0.42,-6.86,-3.9025
425,9430655,0.8256960999999999,-0.07027201,-0.528382,-0.3325,-6.7375,-3.9725
426,9430753,0.8244761,-0.071004,-0.530822,-0.4025,-6.6675,-3.885
427,9430851,0.8228901,-0.069906,-0.530822,-0.315,-6.5975,-3.8675
428,9430949,0.8211821,-0.069784,-0.531066,-0.21,-6.4225,-3.885
429,9431047,0.8215481,-0.07027201,-0.5322861,0.07,-6.44,-3.9025
430,9431145,0.818376,-0.069906,-0.5314321,0.245,-6.51,-4.0075
431,9431242,0.818498,-0.07173600000000001,-0.529724,0.28,-6.3875,-4.13
432,9431340,0.818376,-0.072712,-0.5292359999999999,0.21,-6.265,-4.1825
433,9431438,0.81801,-0.07198,-0.530334,0.21,-6.5275,-4.235
434,9431536,0.818986,-0.07332201,-0.5294800000000001,0.21,-6.755,-4.34
435,9431634,0.8194739999999999,-0.07356601,-0.5296021,0.2275,-6.5625,-4.375
436,9431732,0.8188641,-0.072102,-0.532652,0.315,-6.37,-4.4625
437,9431830,0.8202060999999999,-0.07246799999999999,-0.531798,0.1925,-6.5275,-4.4625
438,9431928,0.8215481,-0.07246799999999999,-0.531676,0.3325,-6.51,-4.5325
439,9432026,0.821426,-0.07246799999999999,-0.530578,0.49,-6.51,-4.4975
440,9432124,0.8210601000000001,-0.074786,-0.5309441,0.525,-6.545,-4.5675
441,9432222,0.820572,-0.07637200000000001,-0.531066,0.595,-6.545,-4.5675
442,9432320,0.8215481,-0.07564,-0.530578,0.595,-6.545,-4.4975
443,9432418,0.822524,-0.077592,-0.532652,0.595,-6.4575,-4.5675
444,9432515,0.8220360000000001,-0.07978801,-0.532774,0.525,-6.5975,-4.48
445,9432613,0.821792,-0.079178,-0.532652,0.35,-6.58,-4.375
446,9432711,0.8216701,-0.07978801,-0.53314,0.2275,-6.58,-4.305
447,9432809,0.8203280000000001,-0.077958,-0.533018,0.21,-6.5625,-4.27
448,9432907,0.820572,-0.07722601,-0.533018,0.245,-6.545,-4.27
449,9433005,0.8203280000000001,-0.077592,-0.533262,0.245,-6.545,-4.27
450,9433103,0.8193521,-0.07625,-0.5342380999999999,0.2625,-6.685,-4.2875
451,9433201,0.8176439999999999,-0.07600599999999999,-0.533994,0.21,-6.6675,-4.2175
452,9433299,0.81618,-0.07625,-0.5342380999999999,0.175,-6.44,-4.2875
453,9433397,0.8165460999999999,-0.076738,-0.533384,0.175,-6.2475,-4.27
454,9433495,0.8169121,-0.077836,-0.5368,0.21,-6.335,-4.235
455,9433593,0.818132,-0.078202,-0.537166,0.21,-6.615,-4.235
456,9433691,0.81313,-0.081618,-0.5355800999999999,0.1225,-6.7375,-4.4275
457,9433788,0.811056,-0.078446,-0.5322861,0.0175,-6.4575,-4.5325
458,9433886,0.812642,-0.07747001,-0.5352140000000001,0.1225,-5.6,-4.48
459,9433984,0.8164239999999999,-0.07710399999999999,-0.5383861,0.1575,-5.6175,-4.5675
460,9434082,0.815326,-0.07588400000000001,-0.540216,0.1925,-5.985,-4.5325
461,9434180,0.8178880999999999,-0.076616,-0.537044,0.245,-6.125,-4.515
462,9434278,0.81862,-0.077958,-0.5342380999999999,0.28,-5.775,-4.6725
463,9434376,0.820816,-0.078446,-0.533872,0.5075,-5.7925,-4.76
464,9434474,0.820938,-0.08064199,-0.5355800999999999,0.63,-6.1425,-4.795
465,9434572,0.8192299999999999,-0.081252,-0.5343600000000001,0.4725,-6.37,-4.795
466,9434670,0.817766,-0.081252,-0.532774,0.28,-6.16,-4.69
467,9434768,0.8145941,-0.08100801,-0.536556,0.105,-5.775,-4.6375
468,9434866,0.81313,-0.07991000000000001,-0.537776,-0.035,-5.5475,-4.655
469,9434964,0.812154,-0.079422,-0.537044,-0.105,-5.4075,-4.725
470,9435062,0.810934,-0.07722601,-0.5361899999999999,-0.07,-5.25,-4.7075
471,9435160,0.81313,-0.077714,-0.536922,0.14,-5.285,-4.6725
472,9435257,0.813984,-0.076616,-0.537288,0.2625,-5.215,-4.585
473,9435355,0.8147161,-0.07625,-0.535946,0.2975,-5.3025,-4.585
474,9435453,0.8163020999999999,-0.07600599999999999,-0.537166,0.455,-5.3725,-4.515
475,9435551,0.815204,-0.076616,-0.535946,0.4375,-5.39,-4.4625
476,9435649,0.81374,-0.07637200000000001,-0.533994,0.1925,-5.6875,-4.4625
477,9435747,0.818742,-0.076494,-0.534848,0.28,-5.285,-4.375
478,9435845,0.8194739999999999,-0.07722601,-0.537166,0.3325,-4.9875,-4.5325
479,9435943,0.818376,-0.077348,-0.537288,0.4025,-5.0925,-4.5675
480,9436041,0.8169121,-0.078202,-0.536556,0.49,-5.1625,-4.725
481,9436139,0.815204,-0.077592,-0.53497,0.385,-5.11,-4.725
482,9436237,0.8148380000000001,-0.077714,-0.5380199999999999,0.35,-5.1625,-4.795
483,9436335,0.8141060999999999,-0.076494,-0.537532,0.3325,-5.2325,-4.83
484,9436433,0.815082,-0.07612801,-0.537898,0.3325,-5.4425,-4.9
485,9436530,0.8164239999999999,-0.07588400000000001,-0.537654,0.56,-5.5125,-4.9525
486,9436628,0.81679,-0.074298,-0.537288,0.63,-5.5475,-5.04
487,9436726,0.817522,-0.07637200000000001,-0.5361899999999999,0.7175,-5.5825,-4.935
488,9436824,0.8193521,-0.079422,-0.535824,0.7175,-5.81,-4.8825
489,9436922,0.8192299999999999,-0.08100801,-0.535702,0.63,-5.95,-4.7775
490,9437020,0.819108,-0.081618,-0.534848,0.385,-5.8975,-4.7075
491,9437118,0.8195960999999999,-0.08344800000000001,-0.535458,0.28,-5.81,-4.585
492,9437216,0.8182541,-0.081618,-0.5355800999999999,0.1925,-5.8275,-4.6025
493,9437314,0.8193521,-0.082228,-0.5355800999999999,0.035,-5.915,-4.445
494,9437412,0.8194739999999999,-0.08064199,-0.536678,-0.07,-5.9675,-4.4275
495,9437510,0.819108,-0.08113001,-0.537532,0.14,-6.16,-4.3225
496,9437608,0.81862,-0.082106,-0.537288,0.0875,-6.2125,-4.305
497,9437706,0.8169121,-0.081984,-0.53497,0.07,-6.125,-4.3575
498,9437804,0.8176439999999999,-0.08113001,-0.53497,0.035,-6.0375,-4.48
499,9437902,0.817156,-0.08430201,-0.534848,0.14,-5.95,-4.305
500,9438000,0.817156,-0.083936,-0.5355800999999999,-0.0525,-5.915,-4.27
501,9438097,0.815814,-0.08442401,-0.535092,-0.1225,-5.8975,-4.2525
502,9438195,0.8142281,-0.08527801,-0.535824,-0.1925,-5.7925,-4.2175
503,9438293,0.81435,-0.08430201,-0.534482,-0.385,-5.7225,-4.165
504,9438391,0.8160581,-0.08454600000000001,-0.536556,-0.3325,-5.6525,-4.1475
505,9438489,0.8160581,-0.08442401,-0.536678,-0.3675,-5.915,-4.025
506,9438587,0.8169121,-0.08417999999999999,-0.5353359999999999,-0.5775,-6.125,-3.9725
507,9438685,0.8176439999999999,-0.083936,-0.5353359999999999,-0.525,-6.23,-3.9025
508,9438783,0.817034,-0.085522,-0.5352140000000001,-0.595,-6.195,-4.025
509,9438881,0.8176439999999999,-0.08503401,-0.5353359999999999,-0.665,-6.1775,-3.9375
510,9438979,0.81801,-0.08417999999999999,-0.5342380999999999,-0.595,-5.985,-3.85
511,9439077,0.8178880999999999,-0.08430201,-0.534726,-0.5775,-5.95,-3.92
512,9439175,0.817278,-0.0854,-0.535946,-0.49,-5.985,-3.78
513,9439273,0.8174001000000001,-0.0854,-0.53497,-0.455,-5.8975,-3.885
514,9439371,0.8176439999999999,-0.08479,-0.534848,-0.4725,-6.0025,-3.85
515,9439469,0.817278,-0.08527801,-0.535702,-0.525,-5.95,-3.85
516,9439566,0.8164239999999999,-0.08454600000000001,-0.535824,-0.4725,-5.8625,-3.955
517,9439664,0.8169121,-0.08527801,-0.5353359999999999,-0.525,-5.81,-4.0075
518,9439762,0.817156,-0.08357,-0.535702,-0.3325,-5.8975,-4.13
519,9439860,0.8176439999999999,-0.08442401,-0.535458,-0.2975,-5.915,-4.2175
520,9439958,0.8165460999999999,-0.08442401,-0.5361899999999999,-0.21,-6.0375,-4.095
521,9440056,0.815448,-0.08466801,-0.536434,-0.14,-6.055,-4.1475
522,9440154,0.815936,-0.08625401,-0.5352140000000001,-0.2625,-5.915,-4.305
523,9440252,0.8160581,-0.08857201,-0.5361899999999999,-0.1225,-6.0725,-4.41
524,9440350,0.8165460999999999,-0.08918200000000001,-0.534116,-0.175,-6.09,-4.34
525,9440448,0.817278,-0.08649801,-0.535458,-0.245,-6.1425,-4.4275
526,9440546,0.8160581,-0.08674201,-0.534848,-0.315,-6.0375,-4.4625
527,9440644,0.81679,-0.087108,-0.5353359999999999,-0.315,-5.915,-4.445
528,9440742,0.815692,-0.087474,-0.5352140000000001,-0.245,-5.845,-4.375
529,9440840,0.8147161,-0.085888,-0.535946,-0.2625,-5.985,-4.445
530,9440937,0.8148380000000001,-0.08564401,-0.53497,-0.175,-5.95,-4.4625
531,9441035,0.8176439999999999,-0.08527801,-0.533628,-0.1225,-5.915,-4.4975
532,9441133,0.817522,-0.086132,-0.536068,-0.1225,-6.02,-4.6025
533,9441231,0.818132,-0.087352,-0.536434,-0.0175,-6.23,-4.55
534,9441329,0.817766,-0.085522,-0.534726,-0.105,-6.37,-4.445
535,9441427,0.818986,-0.08625401,-0.5368,-0.07,-6.3,-4.48
536,9441525,0.818986,-0.08649801,-0.537044,-0.105,-6.1425,-4.5675
537,9441623,0.8178880999999999,-0.087352,-0.5352140000000001,-0.1575,-5.985,-4.655
538,9441721,0.817034,-0.08674201,-0.5368,-0.21,-5.88,-4.6725
539,9441819,0.8163020999999999,-0.087352,-0.535946,-0.1925,-6.09,-4.5675
540,9441917,0.8160581,-0.08723001,-0.5361899999999999,-0.2975,-6.125,-4.585
541,9442015,0.8141060999999999,-0.08649801,-0.5355800999999999,-0.455,-6.2125,-4.55
542,9442113,0.815692,-0.086132,-0.5353359999999999,-0.49,-6.1775,-4.41
543,9442211,0.8155701,-0.08723001,-0.5353359999999999,-0.49,-6.1775,-4.1825
544,9442308,0.815936,-0.086864,-0.5361899999999999,-0.42,-6.125,-4.27
545,9442406,0.8142281,-0.08845001,-0.536068,-0.42,-5.95,-4.3575
546,9442504,0.81374,-0.087474,-0.537898,-0.42,-5.6525,-4.515
547,9442602,0.8136180000000001,-0.08784,-0.5368,-0.5775,-5.53,-4.55
548,9442700,0.8164239999999999,-0.08564401,-0.540704,-0.5775,-5.81,-4.6025
549,9442798,0.8163020999999999,-0.08527801,-0.541192,-0.595,-6.1775,-4.375
550,9442896,0.817278,-0.085888,-0.543266,-0.595,-6.3525,-4.305
551,9442994,0.8304541,-0.085522,-0.5455840000000001,-0.525,-6.0375,-4.2875
552,9443092,0.8147161,-0.09284201,-0.535702,-0.455,-6.2825,-4.445
553,9443190,0.81801,-0.09259801,-0.536678,-0.665,-6.615,-4.5675
554,9443288,0.82045,-0.09552601,-0.5430221,-0.35,-6.195,-4.655
555,9443386,0.8169121,-0.09479401,-0.5404601,-1.0675,-6.7025,-4.585
556,9443484,0.81374,-0.095648,-0.537532,-1.3475,-6.5975,-4.62
557,9443582,0.809348,-0.09552601,-0.5383861,-1.8025,-6.1425,-4.445
558,9443680,0.806542,-0.090768,-0.540216,-1.82,-5.5125,-4.3575
559,9443778,0.8023939999999999,-0.08674201,-0.539484,-1.89,-5.11,-4.34
560,9443876,0.801296,-0.08674201,-0.543876,-1.575,-5.11,-4.2875
561,9443973,0.8025161,-0.08637601,-0.5422899999999999,-1.2775,-5.1275,-4.2
562,9444071,0.8047121,-0.08808401,-0.543266,-1.295,-5.25,-4.2
563,9444169,0.8058101,-0.08820599999999999,-0.543388,-0.9975,-5.425,-4.305
564,9444267,0.80825,-0.090646,-0.542412,-0.8575,-5.53,-4.34
565,9444365,0.811666,-0.09052401,-0.5414359999999999,-1.0675,-5.32,-4.515
566,9444463,0.813984,-0.091988,-0.5391180999999999,-1.1025,-5.3375,-4.55
567,9444561,0.815814,-0.09259801,-0.5388741,-1.155,-5.3725,-4.5675
568,9444659,0.8160581,-0.09320801,-0.542046,-1.2425,-5.3025,-4.62
569,9444757,0.81435,-0.09223200000000001,-0.542046,-1.33,-5.1625,-4.6725
570,9444855,0.812032,-0.09150001,-0.541924,-1.435,-5.1275,-4.725
571,9444953,0.810446,-0.091378,-0.542046,-1.47,-5.25,-4.655
572,9445051,0.8099581,-0.08906,-0.5429,-1.54,-5.3025,-4.585
573,9445149,0.809226,-0.09052401,-0.5443640000000001,-1.4525,-5.3375,-4.515
574,9445246,0.8084939999999999,-0.08881599,-0.54473,-1.4,-5.39,-4.41
575,9445344,0.809348,-0.089914,-0.543876,-1.1375,-5.425,-4.55
576,9445442,0.80825,-0.08808401,-0.5414359999999999,-1.1025,-5.425,-4.5675
577,9445540,0.8105680000000001,-0.08918200000000001,-0.5410699999999999,-0.9625,-5.6525,-4.515
578,9445638,0.8113001,-0.089914,-0.540582,-0.9275,-5.81,-4.41
579,9445736,0.811178,-0.091012,-0.541802,-1.05,-5.8975,-4.4975
580,9445834,0.8133739999999999,-0.091012,-0.5410699999999999,-1.1375,-5.9675,-4.48
581,9445932,0.81374,-0.090768,-0.542412,-1.2425,-5.8625,-4.4275
582,9446030,0.8136180000000001,-0.09028,-0.543266,-1.1725,-5.8275,-4.62
583,9446128,0.814472,-0.08845001,-0.542534,-1.085,-5.8275,-4.655
584,9446225,0.8132520999999999,-0.08893801,-0.5430221,-1.085,-5.775,-4.7425
585,9446323,0.81313,-0.087352,-0.543388,-0.945,-5.8625,-4.8125
586,9446421,0.812276,-0.08820599999999999,-0.542778,-0.91,-5.8975,-4.9
587,9446519,0.8105680000000001,-0.087474,-0.5413140000000001,-0.7875,-5.88,-4.9175
588,9446617,0.812154,-0.086864,-0.540704,-0.735,-5.95,-5.04
589,9446715,0.811178,-0.08442401,-0.539972,-0.595,-5.775,-5.04
590,9446813,0.8115439999999999,-0.08466801,-0.53985,-0.4725,-5.6525,-5.005
591,9446911,0.81252,-0.086864,-0.5388741,-0.4725,-5.6175,-5.0225
592,9447009,0.8117880000000001,-0.08698601,-0.5391180999999999,-0.595,-5.67,-4.935
593,9447107,0.812886,-0.08784,-0.5391180999999999,-0.665,-5.6525,-4.935
594,9447205,0.812886,-0.08869401,-0.5380199999999999,-0.665,-5.5125,-4.9875
595,9447302,0.8133739999999999,-0.08649801,-0.538996,-0.7175,-5.635,-4.9175
596,9447400,0.8145941,-0.086864,-0.538752,-0.7175,-5.6,-5.04
597,9447498,0.815326,-0.08637601,-0.5380199999999999,-0.805,-5.5825,-4.9525
598,9447596,0.8160581,-0.08576601,-0.537898,-0.77,-5.53,-5.005
599,9447694,0.8176439999999999,-0.08417999999999999,-0.5388741,-0.7525,-5.425,-4.9875
600,9447792,0.81618,-0.08430201,-0.5382640000000001,-0.665,-5.3375,-5.075
601,9447890,0.815326,-0.085888,-0.537898,-0.77,-5.39,-5.11
602,9447988,0.8147161,-0.08564401,-0.5391180999999999,-0.8225,-5.4775,-5.075
603,9448086,0.815448,-0.08662001,-0.538142,-0.9275,-5.53,-5.0225
604,9448184,0.8174001000000001,-0.08723001,-0.536678,-1.015,-5.46,-4.935
605,9448281,0.815448,-0.08759601,-0.537166,-1.0325,-5.355,-4.865
606,9448379,0.815204,-0.086864,-0.537044,-1.015,-5.25,-4.83
607,9448477,0.8155701,-0.08662001,-0.537166,-1.1025,-5.25,-4.7775
608,9448575,0.8164239999999999,-0.08503401,-0.536922,-1.1025,-5.3025,-4.725
609,9448673,0.81679,-0.08527801,-0.536922,-1.1375,-5.4075,-4.69
610,9448771,0.8165460999999999,-0.08576601,-0.537898,-1.19,-5.32,-4.69
611,9448869,0.8149601,-0.08479,-0.536556,-1.225,-5.2675,-4.6725
612,9448967,0.8166680000000001,-0.083814,-0.534726,-1.2775,-5.3725,-4.795
613,9449065,0.815326,-0.08466801,-0.536678,-1.33,-5.39,-4.69
614,9449163,0.815204,-0.08442401,-0.535824,-1.47,-5.3725,-4.725
615,9449261,0.815326,-0.08357,-0.5353359999999999,-1.4175,-5.215,-4.69
616,9449359,0.815448,-0.08442401,-0.537044,-1.3825,-5.1275,-4.8125
617,9449457,0.81618,-0.08430201,-0.535458,-1.365,-5.0575,-4.76
618,9449555,0.8155701,-0.08454600000000001,-0.536556,-1.3475,-5.145,-4.7775
619,9449653,0.8174001000000001,-0.08405800000000001,-0.534604,-1.435,-5.1625,-4.69
620,9449750,0.818498,-0.08564401,-0.536068,-1.4175,-5.285,-4.6025
621,9449848,0.817766,-0.08503401,-0.536678,-1.575,-5.215,-4.69
622,9449946,0.8169121,-0.084912,-0.536068,-1.645,-5.355,-4.655
623,9450044,0.8164239999999999,-0.08442401,-0.537532,-1.61,-5.3375,-4.5325
624,9450142,0.8165460999999999,-0.083936,-0.537044,-1.645,-5.285,-4.48
625,9450240,0.8163020999999999,-0.083936,-0.537654,-1.715,-5.25,-4.6025
626,9450338,0.818132,-0.083814,-0.535946,-1.715,-5.2675,-4.62
627,9450436,0.81801,-0.08308201,-0.5368,-1.7325,-5.355,-4.55
628,9450534,0.8169121,-0.083814,-0.536068,-1.715,-5.4775,-4.6025
629,9450632,0.8166680000000001,-0.08174001,-0.53497,-1.82,-5.3375,-4.62
630,9450730,0.81679,-0.08174001,-0.53375,-1.9075,-5.2325,-4.4975
631,9450828,0.81618,-0.081618,-0.533628,-1.8725,-5.0575,-4.4275
632,9450926,0.81679,-0.081496,-0.5361899999999999,-1.89,-5.0575,-4.305
633,9451023,0.8155701,-0.08369201,-0.537776,-1.9075,-5.215,-4.34
634,9451121,0.8149601,-0.08369201,-0.5363121,-1.96,-5.355,-4.41
635,9451219,0.8164239999999999,-0.083204,-0.535946,-2.0125,-5.215,-4.585
636,9451317,0.8164239999999999,-0.08064199,-0.537654,-2.065,-5.215,-4.655
637,9451415,0.817522,-0.080154,-0.5388741,-1.9775,-5.3025,-4.69
638,9451513,0.81679,-0.07991000000000001,-0.5382640000000001,-2.0825,-5.425,-4.655
639,9451611,0.8182541,-0.08052000000000001,-0.536678,-2.03,-5.425,-4.515
640,9451709,0.820084,-0.081252,-0.533872,-1.96,-5.32,-4.55
641,9451807,0.8199620000000001,-0.082594,-0.53314,-1.9075,-5.39,-4.6025
642,9451905,0.8193521,-0.08332601,-0.535824,-1.925,-5.88,-4.7075
643,9452003,0.8188641,-0.08417999999999999,-0.53497,-2.1175,-6.265,-4.585
644,9452101,0.819108,-0.08601,-0.532652,-2.3275,-6.1425,-4.375
645,9452199,0.817278,-0.08369201,-0.532896,-2.52,-5.8275,-4.165
646,9452296,0.8141060999999999,-0.080398,-0.534116,-2.7825,-5.5125,-4.025
647,9452394,0.81435,-0.079422,-0.537166,-2.8,-5.425,-3.9725
648,9452492,0.81313,-0.077714,-0.537654,-2.52,-5.39,-3.9025
649,9452590,0.813862,-0.077348,-0.537898,-2.3625,-5.355,-4.0075
650,9452688,0.8119101,-0.07808001,-0.538508,-1.9775,-5.32,-3.815
651,9452786,0.8148380000000001,-0.080154,-0.538142,-1.9775,-5.2325,-3.7625
652,9452884,0.815814,-0.082228,-0.537776,-1.89,-5.215,-3.85
653,9452982,0.8174001000000001,-0.079544,-0.534482,-1.8375,-5.11,-3.815
654,9453080,0.817156,-0.079666,-0.535092,-1.89,-4.97,-3.8325
655,9453178,0.818376,-0.07856801,-0.536434,-1.8375,-4.9,-3.92
656,9453276,0.81862,-0.077348,-0.5355800999999999,-1.715,-4.8475,-3.99
657,9453374,0.8188641,-0.078202,-0.536922,-1.6625,-4.7775,-4.1475
658,9453472,0.8176439999999999,-0.07832401,-0.5353359999999999,-1.4875,-4.9175,-4.1825
659,9453570,0.8142281,-0.079178,-0.533506,-1.4,-4.9,-4.3575
660,9453668,0.81435,-0.08003201,-0.533506,-1.3475,-4.9,-4.27
661,9453766,0.8149601,-0.07869,-0.536068,-1.2425,-5.0575,-4.305
662,9453863,0.8149601,-0.079056,-0.5368,-1.155,-5.1275,-4.3575
663,9453961,0.8163020999999999,-0.0793,-0.5380199999999999,-1.05,-5.0575,-4.48
664,9454059,0.8199620000000001,-0.079178,-0.5363121,-0.9625,-5.0925,-4.585
665,9454157,0.8219139999999999,-0.082838,-0.5363121,-0.8225,-5.1975,-4.585
666,9454255,0.822768,-0.08430201,-0.535092,-0.91,-5.3375,-4.585
667,9454353,0.820816,-0.082716,-0.5343600000000001,-0.98,-5.285,-4.655
668,9454451,0.820572,-0.08308201,-0.534116,-0.98,-5.0575,-4.655
669,9454549,0.82045,-0.083204,-0.535946,-0.9275,-4.97,-4.5325
670,9454647,0.818986,-0.081984,-0.5361899999999999,-1.0325,-5.145,-4.4975
671,9454745,0.8182541,-0.08064199,-0.53497,-0.98,-5.3025,-4.41
672,9454843,0.817278,-0.08064199,-0.5353359999999999,-0.8400001,-5.215,-4.5675
673,9454941,0.8174001000000001,-0.081862,-0.534482,-0.735,-5.215,-4.6375
674,9455039,0.8166680000000001,-0.082228,-0.534604,-0.6125,-5.3725,-4.62
675,9455136,0.8169121,-0.08344800000000001,-0.533506,-0.56,-5.4075,-4.7425
676,9455234,0.8176439999999999,-0.083814,-0.531798,-0.6125,-5.46,-4.62
677,9455332,0.8166680000000001,-0.083814,-0.533628,-0.735,-5.3375,-4.725
678,9455430,0.8165460999999999,-0.08417999999999999,-0.532774,-0.7525,-5.4425,-4.62
679,9455528,0.81862,-0.08417999999999999,-0.533262,-0.9275,-5.3025,-4.6725
680,9455626,0.818498,-0.085522,-0.532652,-1.015,-5.11,-4.6375
681,9455724,0.8182541,-0.0854,-0.533994,-1.0325,-5.04,-4.48
682,9455822,0.818132,-0.0854,-0.533506,-1.0675,-5.11,-4.41
683,9455920,0.817034,-0.08296,-0.533506,-1.05,-5.215,-4.4625
684,9456018,0.8169121,-0.082106,-0.533872,-1.0675,-5.1625,-4.4625
685,9456116,0.81801,-0.081618,-0.533506,-1.0325,-5.075,-4.6025
686,9456214,0.81801,-0.082838,-0.532652,-1.1375,-4.9,-4.55
687,9456312,0.8174001000000001,-0.082228,-0.533628,-1.1725,-4.8825,-4.55
688,9456410,0.8182541,-0.082106,-0.533872,-1.225,-4.83,-4.585
689,9456508,0.8174001000000001,-0.08174001,-0.5352140000000001,-1.2425,-4.865,-4.7075
690,9456606,0.8174001000000001,-0.082472,-0.533872,-1.26,-5.0225,-4.62
691,9456704,0.817278,-0.081862,-0.53497,-1.3825,-5.075,-4.6375
692,9456801,0.8176439999999999,-0.08430201,-0.5325300000000001,-1.3475,-5.0925,-4.7425
693,9456899,0.8166680000000001,-0.08405800000000001,-0.533628,-1.4,-5.04,-4.6025
694,9456997,0.818498,-0.08479,-0.533384,-1.435,-5.0575,-4.585
695,9457095,0.817766,-0.082472,-0.534848,-1.5575,-5.0575,-4.585
696,9457193,0.818376,-0.082594,-0.5355800999999999,-1.5575,-5.215,-4.515
697,9457291,0.817522,-0.082228,-0.535946,-1.645,-5.1975,-4.515
698,9457389,0.8178880999999999,-0.082472,-0.5352140000000001,-1.7325,-5.355,-4.4975
699,9457487,0.8169121,-0.082472,-0.5352140000000001,-1.8025,-5.425,-4.5325
700,9457585,0.815936,-0.081374,-0.5343600000000001,-1.8375,-5.4425,-4.515
701,9457683,0.8147161,-0.081862,-0.533872,-1.855,-5.4425,-4.48
702,9457781,0.815936,-0.082228,-0.53314,-1.9775,-5.565,-4.4625
703,9457879,0.8141060999999999,-0.079544,-0.5321640000000001,-2.1,-5.74,-4.4975
704,9457977,0.8155701,-0.07698201,-0.536556,-2.17,-6.055,-4.4975
705,9458075,0.8193521,-0.072956,-0.539606,-2.45,-6.6675,-4.585
706,9458173,0.823622,-0.07417601,-0.538752,-2.87,-7.315,-4.655
707,9458271,0.8271601000000001,-0.072956,-0.535458,-3.5175,-8.435,-4.655
708,9458368,0.8263060999999999,-0.07198,-0.5321640000000001,-4.5675,-9.135,-4.62
709,9458466,0.8254520000000001,-0.068442,-0.5325300000000001,-5.32,-9.59,-4.7075
710,9458564,0.8239880999999999,-0.065514,-0.537166,-6.1425,-10.5875,-4.5325
711,9458662,0.8211821,-0.064782,-0.537166,-6.8775,-11.9875,-4.3925
712,9458760,0.815082,-0.06892999999999999,-0.536678,-7.4025,-13.6675,-3.8325
713,9458858,0.811056,-0.068442,-0.537654,-7.4375,-15.8025,-3.01
714,9458956,0.8117880000000001,-0.055144000000000006,-0.535824,-7.455,-17.115,-2.0825
715,9459054,0.812642,-0.049654000000000004,-0.5388741,-6.755,-17.5875,-1.505
716,9459152,0.809348,-0.045872,-0.5361899999999999,-5.8975,-17.0975,-1.0675
717,9459250,0.809348,-0.042334,-0.53009,-5.18,-16.0475,-0.6475
718,9459348,0.8133739999999999,-0.039894,-0.520818,-4.4275,-14.9275,-0.4375
719,9459446,0.817522,-0.040504000000000005,-0.511058,-3.6225,-14.1225,-0.5425
720,9459544,0.8270379999999999,-0.040138,-0.506544,-2.52,-13.16,-0.7
721,9459642,0.8400921,-0.03843,-0.503738,-1.7675,-12.39,-1.1725
722,9459740,0.8521700999999999,-0.044164,-0.496174,-1.015,-12.705,-1.5925
723,9459838,0.858392,-0.045872,-0.48531599999999997,-0.8400001,-13.405,-2.0125
724,9459936,0.8665661,-0.047458,-0.47885,-0.63,-13.4575,-2.2575
725,9460034,0.8670540999999999,-0.050142,-0.47689799999999993,-0.8225,-13.2825,-2.6775
726,9460132,0.8670540999999999,-0.053070000000000006,-0.485072,-1.1725,-13.2125,-2.7125
727,9460229,0.8663219999999999,-0.05587601,-0.495076,-1.575,-13.4225,-2.6775
728,9460327,0.8586360000000001,-0.054655999999999996,-0.500688,-1.715,-14.0875,-2.87
729,9460425,0.840458,-0.058072000000000006,-0.49959,-2.03,-14.245,-3.185
730,9460523,0.82411,-0.055022,-0.499346,-1.96,-13.02,-3.71
731,9460621,0.809348,-0.055510000000000004,-0.5008100999999999,-1.47,-11.97,-4.515
732,9460719,0.78873,-0.056608000000000006,-0.49837,-0.3675,-12.32,-6.0725
733,9460817,0.7589621,-0.060146000000000005,-0.485804,0.2975,-12.74,-7.98
734,9460915,0.735904,-0.07222401,-0.46908999999999995,0.4725,-11.0775,-10.29
735,9461013,0.717482,-0.081618,-0.44859399999999994,0.525,-8.3125,-13.3175
736,9461111,0.70028,-0.094306,-0.43163599999999996,0.8400001,-7.7175,-16.7125
737,9461209,0.693692,-0.092964,-0.42578,0.2975,-10.185,-19.9325
738,9461307,0.7074779999999999,-0.09577000000000001,-0.428464,-1.1725,-14.14,-22.89
739,9461405,0.745908,-0.098942,-0.44676400000000005,-2.6425,-18.4275,-25.2875
740,9461503,0.796416,-0.10309000000000001,-0.47031000000000006,-4.41,-22.295,-26.9325
741,9461601,0.8422879999999999,-0.098088,-0.47994799999999993,-5.8625,-23.9925,-27.6325
742,9461699,0.89792,-0.06661201,-0.487878,-7.035,-23.2225,-28.7
743,9461796,0.9526979999999999,-0.03538,-0.493856,-5.0925,-21.175,-29.26
744,9461894,0.9897860999999999,-0.006954000000000001,-0.5188659999999999,-1.54,-20.6325,-28.9975
745,9461992,1.003206,0.004758,-0.527894,2.2925,-21.945,-27.5625
746,9462090,1.010038,0.00976,-0.5246,6.2125,-22.1725,-24.5
747,9462188,1.000522,0.020130000000000002,-0.527528,10.01,-19.3025,-21.5425
748,9462286,0.9829540000000001,0.01037,-0.532774,13.6675,-15.295,-18.3925
749,9462384,0.969046,-0.011346,-0.538508,17.6575,-13.37,-16.1875
750,9462482,0.957334,-0.032451999999999995,-0.540216,20.8775,-13.965,-14.7
751,9462580,0.939766,-0.049166,-0.5380199999999999,22.8725,-15.4,-13.055
752,9462678,0.921344,-0.05856,-0.532408,23.5725,-15.82,-11.8125
753,9462776,0.9025559999999999,-0.05209400000000001,-0.5343600000000001,23.9925,-16.1175,-10.255
754,9462874,0.8860860999999999,-0.039772,-0.536068,24.0625,-16.835,-8.855
755,9462972,0.8652241,-0.030378,-0.533018,24.2375,-17.3775,-7.84
756,9463070,0.8425321,-0.021106,-0.5219159999999999,24.5175,-17.0625,-7.1925
757,9463167,0.81984,-0.0183,-0.507642,24.99,-16.0125,-6.8075
758,9463265,0.807396,-0.02745,-0.50203,25.865,-15.12,-6.4225
759,9463363,0.7953180000000001,-0.037698,-0.494832,26.6525,-15.1375,-6.1425
760,9463461,0.778604,-0.052826,-0.478972,26.1625,-14.8575,-5.74
761,9463559,0.764818,-0.066978,-0.46042799999999995,25.3575,-12.8625,-5.0575
762,9463657,0.760304,-0.081618,-0.44420200000000004,24.255,-10.3425,-4.3925
763,9463755,0.754692,-0.09125599999999999,-0.428342,22.89,-8.05,-3.43
764,9463853,0.7570100000000001,-0.09638,-0.41236000000000006,20.79,-6.4575,-2.7125
765,9463951,0.7701859999999999,-0.10553,-0.406138,18.445,-6.1775,-1.47
766,9464049,0.7793359999999999,-0.103334,-0.391986,15.9425,-7.105,-0.35
767,9464147,0.796294,-0.104066,-0.37685799999999997,13.09,-7.9975,0.735
768,9464245,0.810934,-0.10797000000000001,-0.371246,10.4475,-8.0325,1.8725
769,9464343,0.821304,-0.11138599999999999,-0.364048,7.2275,-7.7525,2.8175
770,9464441,0.8341139999999999,-0.11870599999999999,-0.358558,3.99,-6.685,3.71
771,9464538,0.8541221,-0.12749000000000002,-0.36502399999999996,1.0675,-5.5825,5.2675
772,9464636,0.8679081,-0.137738,-0.375882,-1.925,-5.6,6.825
773,9464734,0.8843781,-0.129442,-0.38356799999999996,-5.565,-6.615,7.9625
774,9464832,0.888282,-0.133468,-0.385886,-9.0825,-6.685,9.1875
775,9464930,0.8847440999999999,-0.128466,-0.379054,-11.2875,-5.005,11.445
776,9465028,0.8824261,-0.127856,-0.373564,-13.895,-1.9775,13.09
777,9465126,0.88023,-0.1342,-0.370758,-16.415,0.35,14.8225
778,9465224,0.8740081000000001,-0.15433,-0.370148,-19.46,1.1725,16.8875
779,9465322,0.8726661,-0.16592,-0.376614,-22.75,1.1375,19.3025
780,9465420,0.8701040000000001,-0.183732,-0.384056,-26.8975,0.8225,21.805
781,9465518,0.8782780000000001,-0.196542,-0.388692,-30.7125,1.2775,24.2375
782,9465616,0.864492,-0.21520799999999998,-0.39223,-34.055,4.585,26.04
783,9465714,0.889502,-0.19483399999999998,-0.393084,-36.4,10.4825,26.635
784,9465812,0.91805,-0.18251199999999998,-0.392474,-38.0625,19.145,26.4775
785,9465910,0.9592860000000001,-0.151402,-0.41260399999999997,-36.855,24.85,24.2025
786,9466008,0.980758,-0.127246,-0.412238,-34.825,24.71,22.1725
787,9466106,1.008086,-0.09028,-0.40272199999999997,-30.5025,22.3825,19.355
788,9466204,1.037488,-0.074298,-0.378932,-25.0775,20.5625,17.5875
789,9466301,1.059814,-0.061,-0.35843600000000003,-19.775,18.9875,15.575
790,9466399,1.071526,-0.045872,-0.346602,-16.625,15.365,14.63
791,9466497,1.0826280000000001,-0.03965,-0.327326,-14.42,10.5525,14.3325
792,9466595,1.100806,-0.045018,-0.304146,-12.95,5.985,13.755
793,9466693,1.11752,-0.06075601,-0.274988,-13.79,2.695,13.335
794,9466791,1.14497,-0.17019,-0.43981000000000003,-13.4225,-0.245,13.5625
795,9466889,1.15839,-0.20556999999999997,-0.621102,-5.915,-6.5275,15.68
796,9466987,1.151314,-0.071614,-0.6502600000000001,-13.9475,-3.325,17.85
797,9467085,1.207678,0.014884,-0.65575,-12.005,13.5275,16.66
798,9467183,1.2252459999999998,0.06039,-0.773724,5.5475,22.89,11.6025
799,9467281,1.161684,0.075396,-0.870714,19.39,9.5025,6.405
800,9467379,1.063352,0.066978,-0.7761640999999999,23.5025,-9.5725,1.8375
801,9467477,0.9561139999999999,0.04331,-0.7134560999999999,20.6325,-15.8375,-2.7825
802,9467575,0.8724219999999999,-0.036844,-0.69906,26.0575,-23.59,-7.7525
803,9467673,0.801784,-0.12529400000000002,-0.703086,28.5775,-34.7025,-11.515
804,9467771,0.764208,-0.177998,-0.675026,23.87,-37.7125,-13.86
805,9467868,0.747494,-0.17324,-0.6755140000000001,17.6925,-35.7525,-13.475
806,9467966,0.745664,-0.14579,-0.734928,11.7775,-36.2425,-11.3225
807,9468064,0.7226060000000001,-0.166408,-0.817522,9.5375,-38.64,-8.155
808,9468162,0.733464,-0.165798,-0.8752280000000001,9.52,-41.8425,-3.36
809,9468260,0.7470060000000001,-0.13237000000000002,-0.8509501,13.6325,-41.3875,-0.8925
810,9468358,0.7176041,-0.09821001,-0.8014180000000001,15.61,-41.3525,2.8875
811,9468456,0.7449321,-0.106018,-0.7850699999999999,17.6225,-41.86,6.9475
812,9468554,0.752984,-0.149816,-0.787388,18.6375,-37.8525,12.25
813,9468652,0.7360260000000001,-0.19251600000000002,-0.7540819999999999,14.6825,-33.845,13.3175
814,9468750,0.7670140000000001,-0.200202,-0.7047939999999999,9.8175,-28.8575,6.6675
815,9468848,0.762378,-0.224846,-0.627568,5.81,-19.25,-0.4025
816,9468946,0.7329760000000001,-0.23973000000000003,-0.568642,1.6275,-9.31,-7.5775
817,9469044,0.6851520999999999,-0.22362600000000002,-0.517768,-4.6725,-6.3,-13.825
818,9469142,0.633424,-0.193004,-0.488976,-11.1475,-9.2225,-18.5675
819,9469240,0.60512,-0.163236,-0.46201400000000004,-16.555,-13.4575,-20.3525
820,9469338,0.590724,-0.13078399999999998,-0.442738,-20.3525,-15.05,-20.3
821,9469436,0.5738880000000001,-0.095038,-0.43468599999999996,-22.785,-14.42,-20.3
822,9469534,0.570716,-0.075762,-0.422242,-23.45,-11.76,-21.77
823,9469631,0.568398,-0.05160601,-0.414312,-23.9225,-8.5225,-21.875
824,9469729,0.560956,-0.032208,-0.407602,-23.975,-5.81,-20.79
825,9469827,0.5547340000000001,-0.023424,-0.40882199999999996,-23.345,-4.76,-19.8275
826,9469925,0.55388,-0.013541999999999998,-0.399428,-22.4875,-1.015,-18.9
827,9470023,0.5743761,-0.03416,-0.38918,-20.6325,3.395,-17.29
828,9470121,0.592188,-0.0488,-0.391376,-18.2,7.105,-17.4825
829,9470219,0.6110981,-0.047214,-0.379664,-17.8675,12.53,-17.3425
830,9470317,0.6451359999999999,-0.055510000000000004,-0.373686,-17.2375,14.28,-16.6425
831,9470415,0.668072,-0.05941401,-0.369294,-17.395,14.6125,-16.4675
832,9470513,0.6822239999999999,-0.060146000000000005,-0.36356,-18.305,14.4725,-15.6625
833,9470611,0.690154,-0.057462,-0.36502399999999996,-18.6025,15.2425,-15.05
834,9470709,0.69967,-0.05063,-0.367342,-19.705,15.3475,-15.295
835,9470807,0.7046720999999999,-0.048556,-0.370026,-20.6325,16.765,-14.4025
836,9470905,0.70394,-0.037576,-0.376736,-21.805,20.8075,-13.755
837,9471003,0.702842,-0.018422,-0.396988,-23.0825,26.0575,-12.7925
838,9471101,0.701012,0.005856,-0.42187600000000003,-22.75,32.795,-12.4775
839,9471198,0.712724,0.039162,-0.458842,-19.88,41.475,-12.7575
840,9471296,0.7239479999999999,0.078202,-0.489464,-14.7875,51.3975,-13.1775
841,9471394,0.7183361,0.11016600000000001,-0.504714,-8.1025,61.7225,-15.1025
842,9471492,0.71919,0.133346,-0.48397399999999996,-2.0125,70.1225,-18.585
843,9471590,0.7366361,0.14896199999999998,-0.426512,2.765,74.585,-23.17
844,9471688,0.7771399999999999,0.153354,-0.38503200000000004,5.775,74.76,-26.6525
845,9471786,0.8574161,0.123708,-0.37246599999999996,6.895,66.78,-27.6675
846,9471884,0.950868,0.061488,-0.382348,3.5175,52.29,-25.025
847,9471982,1.050298,0.009637999999999999,-0.40528400000000003,-3.535,38.15,-19.7225
848,9472080,1.1622940000000002,-0.05002,-0.447618,-10.64,29.3825,-14.595
849,9472178,1.2425700000000002,-0.14347200000000002,-0.4575,-18.9175,25.9875,-10.4825
850,9472276,1.281366,-0.20435,-0.381006,-27.405,27.9475,-8.015
851,9472374,1.282586,-0.188002,-0.269376,-35.0,35.42,-8.61
852,9472472,1.26148,-0.131394,-0.19459,-36.61,41.2825,-8.715
853,9472570,1.238056,-0.065026,-0.170068,-33.3025,36.6625,-5.81
854,9472667,1.208288,0.020130000000000002,-0.17385,-27.09,19.565,-2.59
855,9472765,1.141432,0.080886,-0.160796,-18.5325,-2.3975,-0.245
856,9472863,1.134966,0.246196,-0.37454,-10.71,-17.1675,1.225
857,9472961,1.02541,0.11321600000000001,-0.628666,-5.6175,-22.9775,0.91
858,9473059,0.9766101,-0.091134,-0.72346,-10.7975,-15.365,1.68
859,9473157,0.9921040999999999,-0.271938,-0.74054,-25.8825,8.47,-3.22
860,9473255,1.025166,-0.385764,-0.873764,-41.51,24.815,-14.3325
861,9473353,1.006744,-0.469944,-0.93696,-58.7475,19.075,-25.305
862,9473451,0.9473301,-0.42639,-0.888282,-76.0375,2.765,-31.99
863,9473549,0.8411900999999999,-0.23167800000000002,-0.870226,-85.365,-9.5375,-30.765
864,9473647,0.7700640999999999,-0.032818,-0.8228901,-81.515,-19.915,-34.02
865,9473745,0.7550581000000001,0.17751,-0.7822640000000001,-75.0225,-38.675,-38.0625
866,9473843,0.701256,0.274134,-0.773968,-62.9125,-63.105,-35.63
867,9473941,0.7418819999999999,0.301584,-0.761646,-37.4325,-64.26,-32.8825
868,9474039,0.802272,0.39955,-0.80093,-20.7375,-60.13,-33.7925
869,9474136,0.8540000000000001,0.493978,-0.8426540000000001,-8.9075,-61.6525,-34.09
870,9474234,0.8975540000000001,0.465308,-0.8714459999999999,2.835,-60.1125,-31.8325
871,9474332,0.9764879999999999,0.35977800000000004,-0.8399700000000001,10.0275,-53.8125,-27.09
872,9474430,1.073844,0.21313400000000002,-0.787876,13.3525,-45.22,-21.315
873,9474528,1.1263040000000002,0.036356,-0.7004020000000001,15.47,-35.1925,-11.9175
874,9474626,1.048834,-0.105896,-0.609146,14.2625,-24.4825,-1.9775
875,9474724,0.9490379999999999,-0.192028,-0.5322861,11.655,-14.4725,6.8775
876,9474822,0.856196,-0.260836,-0.45383999999999997,10.0275,-5.04,13.685
877,9474920,0.75579,-0.261202,-0.407358,5.3725,0.245,21.0525
878,9475018,0.688934,-0.244,-0.37515,-0.945,-0.4375,28.0525
879,9475116,0.649284,-0.215696,-0.36502399999999996,-5.075,-3.605,34.0375
880,9475214,0.624884,-0.16811600000000002,-0.35026199999999996,-6.405,-7.77,35.0525
881,9475312,0.558516,-0.08296,-0.36539,-7.4375,-13.6325,33.0925
882,9475410,0.51118,-0.037332,-0.35587399999999997,-5.845,-18.095,33.9325
883,9475508,0.496296,0.002806,-0.358802,-3.4125,-17.36,33.565
884,9475606,0.515328,0.048068,-0.353312,-1.925,-16.4675,33.0225
885,9475704,0.547536,0.085156,-0.35136,-0.7525,-16.765,32.3575
886,9475802,0.5814520000000001,0.09089001,-0.35538600000000004,0.595,-18.48,33.04
887,9475900,0.6124400999999999,0.08235001,-0.354288,1.505,-19.1625,32.2875
888,9475998,0.639402,0.06600201,-0.35697199999999996,1.82,-15.12,29.8375
889,9476095,0.6613621000000001,0.04148,-0.362462,1.6275,-8.26,27.055
890,9476193,0.6681941,0.013054,-0.354532,1.3475,-1.1375,23.7825
891,9476291,0.662094,-0.011346,-0.33684200000000003,1.0675,4.165,20.895
892,9476389,0.6456241,-0.03965,-0.31354,0.2975,9.3975,18.4975
893,9476487,0.6348881,-0.07002799999999999,-0.306586,-0.7175,16.3975,16.485
894,9476585,0.622322,-0.104676,-0.30866,-3.4825,23.835,15.26
895,9476683,0.620004,-0.136518,-0.33305999999999997,-8.0675,30.555,15.085
896,9476781,0.630374,-0.144326,-0.34733400000000003,-13.1075,34.5275,14.91
897,9476879,0.643794,-0.131028,-0.345016,-17.64,37.3275,13.405
898,9476977,0.6733180000000001,-0.116632,-0.333548,-19.6175,42.385,10.78
899,9477075,0.7387100000000001,-0.10187,-0.327326,-17.8325,48.755,7.8225
900,9477173,0.8308200000000001,-0.085888,-0.343796,-12.1625,49.7525,4.9175
901,9477271,0.9408639999999999,-0.060146000000000005,-0.394304,-4.55,40.39,1.9075
902,9477369,1.0523719999999999,-0.022692,-0.429562,2.03,26.6875,-1.155
903,9477467,1.1622940000000002,0.030256,-0.45457200000000003,7.5775,17.71,-4.34
904,9477565,1.251598,0.05929201,-0.470554,15.155,15.085,-7.56
905,9477663,1.288442,0.057462,-0.434564,23.835,16.8175,-10.8325
906,9477760,1.313452,0.0244,-0.315614,28.665,20.9475,-12.6
907,9477858,1.336388,-0.013297999999999999,-0.186172,28.0175,22.5225,-12.0225
908,9477956,1.310768,-0.072956,-0.11712,23.2225,14.385,-10.43
909,9478054,1.266726,-0.17019,-0.091134,16.555,-2.205,-6.8425
910,9478152,1.240984,-0.271572,-0.11285,8.7325,-17.5525,-2.135
911,9478250,1.227686,-0.425414,-0.396378,5.6175,-28.9975,2.625
912,9478348,1.160342,-0.40821199999999996,-0.67527,6.5975,-36.715,8.89
913,9478446,1.106784,-0.18775799999999998,-0.7836061,8.4875,-22.4875,11.3575
914,9478544,1.116056,0.024278,-0.8992620000000001,18.4625,4.7075,8.6275
915,9478642,1.170712,0.322934,-1.1181299999999998,40.145,23.2925,8.7675
916,9478740,1.030778,0.573156,-1.098488,59.3075,20.0375,10.325
917,9478838,0.823866,0.5663239999999999,-0.8674200000000001,61.7925,10.0275,12.5475
918,9478936,0.7138220000000001,0.36587800000000004,-0.775676,60.48,1.33,9.345
919,9479034,0.652212,0.028792,-0.798124,68.985,-26.8625,2.8525
920,9479132,0.67527,-0.136274,-0.776774,64.9425,-58.7475,6.895
921,9479230,0.7965380999999999,-0.19397999999999999,-0.71919,58.24,-73.395,8.505
922,9479328,0.8610761,-0.32195799999999997,-0.6828341,54.0575,-80.1675,9.5025
923,9479426,0.9019459999999999,-0.530456,-0.6895439999999999,45.955,-75.6175,15.1375
924,9479524,0.968192,-0.59048,-0.730536,28.4375,-52.5175,23.7475
925,9479622,1.022604,-0.5743761,-0.711504,9.31,-27.475,25.515
926,9479719,1.026874,-0.6062181,-0.655262,1.995,-16.8525,17.9725
927,9479817,0.9744141,-0.499834,-0.635376,-2.31,-16.065,3.4825
928,9479915,0.919636,-0.33818400000000004,-0.6150021,-5.6525,-18.62,-11.165
929,9480013,0.8443620999999999,-0.18556199999999998,-0.558638,-10.08,-22.5575,-20.1075
930,9480111,0.760426,-0.043432,-0.49349,-16.5025,-24.0275,-25.515
931,9480209,0.6913739999999999,0.063928,-0.43163599999999996,-20.055,-20.2825,-29.2775
932,9480307,0.6311060000000001,0.11834000000000001,-0.385764,-21.6825,-12.775,-32.4275
933,9480405,0.5815739999999999,0.133102,-0.361242,-21.945,-5.6525,-35.07
934,9480503,0.542046,0.13298,-0.34562600000000004,-21.5775,-2.1525,-35.63
935,9480601,0.5008100999999999,0.10687200000000001,-0.336354,-21.1575,-4.7775,-31.8675
936,9480699,0.441762,0.046604,-0.33013200000000004,-18.41,-6.4575,-29.26
937,9480797,0.40577199999999997,0.009028000999999999,-0.313906,-16.31,-0.9625,-29.365
938,9480895,0.401502,-0.030012,-0.29572800000000005,-13.2125,0.14,-28.4375
939,9480993,0.41113999999999995,-0.05624199999999999,-0.302438,-9.8525,-1.575,-27.545
940,9481091,0.44993599999999995,-0.0732,-0.29731399999999997,-7.6125,-4.3575,-26.04
941,9481189,0.499712,-0.067588,-0.28609,-5.32,-7.56,-24.92
942,9481287,0.5726680000000001,-0.044896,-0.279746,-3.9025,-10.5875,-22.855
943,9481385,0.632326,-0.016714,-0.280844,-2.5725,-10.605,-19.915
944,9481483,0.67893,0.014884,-0.287188,-2.7475,-7.28,-16.1
945,9481580,0.720776,0.042089999999999995,-0.283528,-2.24,1.2075,-12.2675
946,9481678,0.758108,0.06283,-0.28853,-1.7675,12.1625,-9.45
947,9481776,0.773602,0.07137001,-0.315492,-0.6825,19.915,-7.07
948,9481874,0.770308,0.072102,-0.34416199999999997,2.73,25.48,-6.5275
949,9481972,0.7570100000000001,0.083936,-0.379176,6.51,32.2875,-7.8575
950,9482070,0.752008,0.08417999999999999,-0.39711,10.9375,40.4075,-11.025
951,9482168,0.7564001,0.06819800000000001,-0.41382399999999997,15.155,46.48,-14.77
952,9482266,0.784338,0.053314,-0.411872,17.8675,47.4425,-17.43
953,9482364,0.827282,0.055754,-0.37990799999999997,19.0225,46.7425,-20.7725
954,9482462,0.8842561,0.043432,-0.34526,16.2575,44.4675,-22.9425
955,9482560,0.9724620999999999,0.016958,-0.312442,11.4275,40.2325,-23.5725
956,9482658,1.066524,-0.019154,-0.29365399999999997,5.3025,32.2,-23.6775
957,9482756,1.139724,-0.047092,-0.330742,-3.675,21.8575,-20.2125
958,9482854,1.2042620000000002,-0.16592,-0.39100999999999997,-16.38,16.275,-15.085
959,9482952,1.26941,-0.356118,-0.36002199999999995,-28.63,19.565,-11.13
960,9483050,1.319064,-0.390766,-0.22582199999999997,-41.0375,25.13,-8.89
961,9483148,1.32065,-0.329888,-0.08759601,-47.53,18.725,-6.965
962,9483245,1.302716,-0.20996199999999998,-0.060024,-41.3,-1.05,-2.205
963,9483343,1.286856,0.0035380000000000003,-0.206546,-30.0825,-25.655,4.445
964,9483441,1.207068,0.20496,-0.522648,-15.68,-41.9825,6.895
965,9483539,1.053958,0.15701400000000001,-0.731268,-8.61,-41.0025,5.88
966,9483637,1.026142,0.008662000999999999,-0.7388319999999999,-6.4925,-14.105,2.345
967,9483735,1.103124,-0.090158,-0.8123981,-11.2,19.075,-7.3325
968,9483833,1.166808,-0.309636,-0.9834421,-27.8775,31.5,-19.6175
969,9483931,1.083848,-0.5200861,-0.9882001,-46.2525,21.5425,-33.25
970,9484029,0.9738041,-0.44896,-0.91561,-62.965,1.9075,-42.1575
971,9484127,0.873764,-0.277062,-0.8148380000000001,-64.3125,-19.5125,-50.7675
972,9484225,0.769088,0.033062,-0.7929999999999999,-64.1025,-44.8175,-55.7725
973,9484323,0.7147979999999999,0.23448400000000003,-0.76982,-64.47,-71.6975,-56.035
974,9484421,0.7284619999999999,0.201178,-0.70028,-48.7725,-81.935,-49.385
975,9484519,0.8392381,0.22326,-0.75213,-29.2075,-87.1325,-45.675
976,9484617,0.8760819999999999,0.391498,-0.849242,-17.815,-96.86251,-49.9275
977,9484715,0.927932,0.5058121,-0.886452,-4.55,-90.00251,-50.1025
978,9484813,1.039318,0.51118,-0.8775459999999999,10.2725,-67.165,-40.4425
979,9484911,1.113494,0.399428,-0.802272,17.99,-45.2375,-28.4725
980,9485009,1.133624,0.227408,-0.715164,20.0725,-31.675,-19.18
981,9485107,1.020286,0.036722000000000005,-0.617686,21.9625,-21.525,-8.26
982,9485205,0.8792540999999999,-0.12468399999999999,-0.531554,24.15,-18.4975,-0.735
983,9485303,0.771162,-0.219112,-0.44103000000000003,24.99,-16.555,4.3225
984,9485401,0.7095520000000001,-0.238754,-0.36441399999999996,22.6625,-10.29,9.66
985,9485499,0.661728,-0.262666,-0.313296,16.625,-6.335,16.905
986,9485596,0.6108541000000001,-0.25437,-0.28426,9.1875,-7.245,25.515
987,9485694,0.541924,-0.22996999999999998,-0.268522,1.9775,-10.605,31.5525
988,9485792,0.46176999999999996,-0.204228,-0.257176,-0.105,-14.735,31.3775
989,9485890,0.38003000000000003,-0.135054,-0.27218200000000004,-1.015,-20.3525,30.625
990,9485988,0.341844,-0.096014,-0.285358,0.49,-24.43,31.675
991,9486086,0.377224,-0.065026,-0.297802,2.6425,-24.955,33.1275
992,9486184,0.45603599999999994,-0.008540001,-0.319884,2.24,-25.865,35.14
993,9486282,0.504836,0.020252000000000003,-0.34123400000000004,2.0125,-26.355,36.4
994,9486380,0.5543680000000001,0.021838,-0.35233600000000004,2.0475,-25.865,36.1375
995,9486478,0.607194,0.018544,-0.360754,-0.7875,-21.8575,34.825
996,9486576,0.665144,-0.004514,-0.346602,-3.9725,-12.985,32.4975
997,9486674,0.70821,-0.04331,-0.32391,-8.155,0.1575,29.8025
998,9486772,0.7134560999999999,-0.081618,-0.302316,-12.53,15.05,27.4925
999,9486870,0.6960101,-0.11248399999999999,-0.27279200000000003,-16.345,27.685,25.7425
1000,9486968,0.6633141,-0.129686,-0.252906,-20.195,39.34,24.2725
1001,9487066,0.6408659999999999,-0.151402,-0.24107199999999998,-24.7275,49.6125,23.03
1002,9487164,0.659166,-0.167628,-0.264984,-30.345,56.4725,22.1725
1003,9487262,0.6864941,-0.17238599999999998,-0.30353600000000003,-34.0725,57.47,21.91
1004,9487360,0.7266321,-0.17360599999999998,-0.33305999999999997,-35.105,54.0225,21.315
1005,9487458,0.790072,-0.144204,-0.35892399999999997,-34.9825,50.4875,20.335
1006,9487556,0.8903561,-0.10504200000000001,-0.374052,-31.85,48.3875,18.4975
1007,9487654,1.0046700000000002,-0.057828,-0.404186,-25.1125,44.065,15.0675
1008,9487752,1.098732,-0.030866,-0.460916,-15.4175,35.91,8.68
1009,9487850,1.164124,0.026108,-0.5030060000000001,-3.4125,25.235,0.8225
1010,9487948,1.238422,0.14090999999999998,-0.502884,9.2225,17.605,-6.0025
1011,9488046,1.291492,0.22326,-0.41577600000000003,21.0,17.9375,-10.3775
1012,9488144,1.329556,0.24461,-0.245098,29.19,20.195,-9.8
1013,9488242,1.38165,0.201544,-0.11955999999999999,33.46,16.2575,-7.8575
1014,9488339,1.387994,0.08845001,-0.057096,33.81,-0.63,-7.5425
1015,9488437,1.3743299999999998,-0.079544,-0.047580000000000004,29.75,-27.16,-6.4575
1016,9488535,1.370426,-0.29524,-0.31049,24.0975,-51.0475,-3.8325
1017,9488633,1.242936,-0.42114399999999996,-0.636596,25.2,-64.9425,-0.455
1018,9488731,1.084214,-0.245952,-0.7834840000000001,18.1125,-52.1325,1.1375
1019,9488829,1.1210579999999999,-0.10504200000000001,-0.8730319999999999,27.1775,-12.46,-1.7675
1020,9488927,1.133868,0.159698,-1.107516,44.6775,24.185,-3.5525
1021,9489025,1.063352,0.501542,-1.20414,61.53,38.08,-0.9625
1022,9489123,0.87169,0.602436,-1.01138,69.615,29.61,4.4625
1023,9489221,0.7259001,0.422608,-0.8245979999999999,68.565,5.915,9.0825
1024,9489319,0.645868,0.05856,-0.8294780999999999,73.90250999999999,-32.865,11.165
1025,9489417,0.6456241,-0.195078,-0.856684,76.405,-71.7675,17.115
1026,9489515,0.734684,-0.252296,-0.8258181,70.28,-86.6775,18.6375
1027,9489613,0.892918,-0.377224,-0.776042,65.765,-88.6375,21.245
1028,9489711,1.020774,-0.610122,-0.718824,59.325,-83.1775,30.4325
1029,9489809,1.07055,-0.644892,-0.732366,37.73,-62.23,34.1075
1030,9489907,1.05103,-0.60146,-0.75457,13.8425,-34.93,26.1975
1031,9490005,1.009184,-0.630618,-0.7134560999999999,4.0775,-13.2475,15.54
1032,9490102,0.9638,-0.521794,-0.671244,-2.8525,-6.055,2.5025
1033,9490200,0.904874,-0.33171799999999996,-0.624762,-10.6575,-17.535,-7.56
1034,9490298,0.807884,-0.15176800000000001,-0.557296,-15.9075,-29.82,-15.6275
1035,9490396,0.7178479999999999,-0.000732,-0.48678,-20.1775,-29.6625,-22.5575
1036,9490494,0.6414761,0.10089400000000001,-0.40381999999999996,-21.595,-19.145,-28.1575
1037,9490592,0.568642,0.13944600000000001,-0.331352,-21.1925,-6.1075,-32.935
1038,9490690,0.518988,0.158478,-0.30378,-18.9525,2.6075,-36.2425
1039,9490788,0.49007399999999995,0.150426,-0.30109600000000003,-16.345,5.0925,-37.2925
1040,9490886,0.436638,0.12444000000000001,-0.296094,-14.175,2.1875,-35.9275
1041,9490984,0.378078,0.098942,-0.28767600000000004,-12.74,-2.3275,-34.1775
1042,9491082,0.320738,0.071248,-0.27584200000000003,-10.3425,-4.6725,-31.535
1043,9491180,0.29133600000000004,0.0183,-0.280478,-7.105,-8.4875,-27.195
1044,9491278,0.285724,-0.021838,-0.289628,-2.9925,-6.16,-28.875
1045,9491376,0.35087199999999996,-0.033428,-0.28914,-0.035,-4.305,-31.71
1046,9491474,0.42419399999999996,-0.028669999999999998,-0.30402399999999996,4.795,-6.405,-34.1075
1047,9491572,0.49007399999999995,-0.020862000000000002,-0.32866799999999996,7.4025,-10.955,-33.425
1048,9491670,0.5669341,0.001586,-0.331596,10.2025,-12.0575,-31.4475
1049,9491767,0.6409881,0.034404000000000004,-0.316712,10.5525,-7.1575,-28.455
1050,9491865,0.707112,0.039894,-0.297802,10.115,5.1275,-25.8825
1051,9491963,0.74908,0.025986000000000002,-0.30036399999999996,10.43,24.57,-24.43
1052,9492061,0.760792,0.026351999999999997,-0.329766,11.8125,42.9975,-23.2225
1053,9492159,0.752862,0.040138,-0.36636599999999997,15.785,56.8575,-23.24
1054,9492257,0.7605481,0.045994,-0.383812,22.225,67.6025,-24.7275
1055,9492355,0.7956840999999999,0.051362,-0.386008,28.595,72.1175,-26.1975
1056,9492453,0.840458,0.041114,-0.3477,31.92,64.995,-26.6
1057,9492551,0.904752,0.032086,-0.30536599999999997,32.13,52.955,-26.9675
1058,9492649,1.003816,-0.007076001,-0.274866,29.1025,43.26,-24.0275
1059,9492747,1.140334,0.002196,-0.255834,23.31,36.085,-22.1025
1060,9492845,1.20658,-0.029768,-0.296704,9.73,26.1625,-14.5425
1061,9492943,1.259894,-0.082106,-0.327936,0.63,20.4575,-13.51
1062,9493041,1.286246,-0.282918,-0.332206,-18.27,20.65,-10.7625
1063,9493139,1.347856,-0.41846000000000005,-0.20679,-34.0025,31.885,-9.8525
1064,9493237,1.369084,-0.447008,-0.044774,-53.8825,37.765,-10.43
1065,9493335,1.332362,-0.399428,-0.025376,-63.2625,26.4775,-8.015
1066,9493433,1.280512,-0.264252,-0.116632,-59.815,2.765,-0.77
1067,9493530,1.2219520000000001,-0.044407999999999996,-0.19483399999999998,-49.7875,-23.415,4.13
1068,9493628,1.150094,0.21801399999999999,-0.42602399999999996,-32.2175,-44.345,5.04
1069,9493726,0.990884,0.185928,-0.6691699999999999,-22.75,-51.975,4.445
1070,9493824,0.9330560999999999,0.011956,-0.711992,-25.1125,-30.7125,5.845
1071,9493922,1.000278,-0.1098,-0.737124,-33.2325,3.6225,1.505
1072,9494020,1.056154,-0.306464,-0.9497701,-45.8325,18.3575,-10.255
1073,9494118,1.013332,-0.487634,-1.00345,-64.5925,9.2225,-26.6875
1074,9494216,0.94245,-0.492026,-0.9307380999999999,-77.1925,-6.9125,-39.795
1075,9494314,0.877424,-0.278038,-0.8520479999999999,-79.45,-27.405,-50.435
1076,9494412,0.7928781,0.045627999999999995,-0.7853140000000001,-82.4075,-55.16,-58.1525
1077,9494510,0.7759199999999999,0.21228000000000002,-0.8202060999999999,-80.4475,-80.71,-55.6675
1078,9494608,0.8355780999999999,0.23155599999999998,-0.861442,-65.24,-94.4825,-46.0075
1079,9494706,0.9553821,0.342088,-0.8248421,-47.215,-92.2425,-42.4375
1080,9494804,1.051518,0.6010939999999999,-0.9139021,-30.9225,-86.8525,-50.295
1081,9494902,1.079212,0.679784,-0.9652639999999999,-11.7775,-70.84000999999999,-43.19
1082,9495000,1.114104,0.584014,-0.8852321,7.315,-37.73,-27.58
1083,9495098,1.1453360000000001,0.44542200000000004,-0.7983680000000001,11.97,-18.6025,-16.5025
1084,9495195,1.034438,0.216916,-0.718092,16.485,-18.8125,-2.975
1085,9495293,0.8908440999999999,-0.014274,-0.621102,23.3975,-23.52,8.89
1086,9495391,0.7821421,-0.174094,-0.5165481,28.21,-23.2925,15.015
1087,9495489,0.729438,-0.250954,-0.41711800000000004,29.1025,-17.0275,18.62
1088,9495587,0.70943,-0.276818,-0.336598,25.235,-11.935,24.43
1089,9495685,0.6895439999999999,-0.290848,-0.28328400000000004,17.29,-12.355,32.025
1090,9495783,0.6326921,-0.286456,-0.256932,8.2075,-14.3675,38.4475
1091,9495881,0.5514399999999999,-0.24778200000000003,-0.263398,2.03,-15.5575,41.3525
1092,9495979,0.44334799999999996,-0.21679400000000001,-0.27571999999999997,0.21,-17.115,38.9025
1093,9496077,0.348066,-0.161162,-0.279014,1.1725,-18.1125,35.21
1094,9496175,0.332572,-0.08674201,-0.290848,1.645,-16.6425,33.25
1095,9496273,0.379664,-0.018544,-0.305244,0.7,-15.645,34.1425
1096,9496371,0.395646,0.005612,-0.31317399999999995,-1.0325,-16.9225,36.7675
1097,9496469,0.40577199999999997,-0.000122,-0.313052,-3.4825,-18.935,38.745
1098,9496567,0.444934,-0.011956,-0.325252,-8.05,-21.07,39.305
1099,9496664,0.5099600000000001,-0.045384,-0.337818,-13.335,-21.315,38.01
1100,9496762,0.593896,-0.047336,-0.33489,-19.25,-14.56,35.0875
1101,9496860,0.651846,-0.071248,-0.327204,-25.3225,-0.175,32.795
1102,9496958,0.6634359999999999,-0.121512,-0.31317399999999995,-30.0825,16.24,30.485
1103,9497056,0.660142,-0.168604,-0.269864,-35.2625,30.6775,28.665
1104,9497154,0.6579461,-0.215086,-0.23448400000000003,-40.81,44.17,27.2475
1105,9497252,0.677954,-0.236436,-0.228384,-45.4825,55.3,25.76
1106,9497350,0.71858,-0.224602,-0.24888000000000002,-49.6825,61.425,23.905
1107,9497448,0.78141,-0.17629,-0.279624,-50.2425,61.1275,22.2775
1108,9497546,0.868152,-0.100162,-0.30683,-46.515,55.51,20.125
1109,9497644,0.964532,-0.005002,-0.354288,-37.38,46.165,16.555
1110,9497742,1.042002,0.09455001,-0.42187600000000003,-23.1875,35.0,12.32
1111,9497840,1.104588,0.18104800000000001,-0.460916,-4.97,24.85,6.685
1112,9497938,1.1895,0.283528,-0.49422200000000005,14.5425,20.0725,-1.2075
1113,9498036,1.268556,0.357216,-0.453962,30.52,20.8425,-8.4525
1114,9498134,1.316014,0.377102,-0.29292199999999996,42.105,26.32,-12.3375
1115,9498231,1.358226,0.31659,-0.125538,48.475,29.295,-14.14
1116,9498329,1.383602,0.188002,-0.05636401,49.56,19.005,-16.45
1117,9498427,1.402634,-0.0035380000000000003,-0.04514,42.56,-4.3925,-16.1525
1118,9498525,1.44997,-0.213256,-0.188978,29.9425,-29.3125,-11.585
1119,9498623,1.389702,-0.488976,-0.528504,23.0125,-51.7475,-4.235
1120,9498721,1.140822,-0.463966,-0.742614,16.3275,-61.25,2.695
1121,9498819,0.984418,-0.38966799999999996,-0.76494,19.5475,-29.89,2.94
1122,9498917,1.033706,-0.197762,-0.9113399999999999,32.7075,20.405,0.7
1123,9499015,1.046516,0.1464,-1.17852,46.865,47.285,3.7625
1124,9499113,0.9479401,0.45323,-1.223294,57.3125,38.92,7.805
1125,9499211,0.7931220999999999,0.497882,-1.010892,58.7475,11.8125,15.26
1126,9499309,0.712358,0.315614,-0.885476,57.4525,-17.605,19.4075
1127,9499407,0.668438,0.013297999999999999,-0.835456,60.6025,-49.1925,22.12
1128,9499504,0.7147979999999999,-0.135176,-0.822768,59.4825,-78.12,26.53
1129,9499602,0.8488761,-0.268034,-0.8740081000000001,54.95,-89.65250999999999,29.5575
1130,9499700,0.9864921,-0.46616199999999997,-0.8016621,53.6725,-93.0125,41.055
1131,9499798,1.059692,-0.547658,-0.727608,35.735,-80.325,42.0875
1132,9499896,1.084336,-0.549366,-0.7439560000000001,12.88,-50.2075,34.335
1133,9499994,1.088362,-0.6125619999999999,-0.749324,0.1575,-14.7,25.9875
1134,9500092,1.037,-0.61427,-0.64599,-9.835,5.32,12.4425
1135,9500190,0.9202459999999999,-0.438834,-0.594262,-20.3875,-3.01,-2.5375
1136,9500288,0.7822640000000001,-0.241194,-0.5697399999999999,-24.605,-21.2975,-11.655
1137,9500386,0.680638,-0.052948,-0.52277,-25.9875,-26.32,-20.755
1138,9500484,0.6201260000000001,0.081984,-0.43981000000000003,-24.6925,-17.535,-28.8925
1139,9500582,0.5738880000000001,0.154696,-0.353068,-21.1575,-5.5825,-35.595
1140,9500680,0.5430221,0.197152,-0.31049,-16.625,2.03,-41.37
1141,9500778,0.520574,0.21106,-0.305244,-11.515,3.8325,-44.6425
1142,9500876,0.482754,0.21142600000000003,-0.306952,-7.035,2.1875,-45.5875
1143,9500974,0.41858199999999995,0.200202,-0.296216,-2.5375,0.1225,-44.905
1144,9501071,0.358802,0.1647,-0.29402,1.96,0.1575,-43.785
1145,9501169,0.324154,0.09455001,-0.28633400000000003,7.175,1.5925,-42.98
1146,9501267,0.345748,0.0549,-0.285846,9.9925,-1.61,-39.585
1147,9501365,0.3904,0.00244,-0.299388,12.6175,-9.835,-35.3325
1148,9501463,0.4392,-0.027694,-0.317932,16.17,-10.5875,-37.17
1149,9501561,0.529968,-0.04514,-0.31585799999999997,19.775,-14.3325,-38.36
1150,9501659,0.607194,-0.039406000000000004,-0.31951799999999997,22.2775,-17.4825,-37.1875
1151,9501757,0.6822239999999999,-0.022326,-0.2928,22.225,-15.96,-32.9
1152,9501855,0.7483479999999999,-0.016714,-0.27571999999999997,22.4175,-4.55,-30.9225
1153,9501953,0.7890961,-0.019886,-0.274134,22.9075,13.125,-29.96
1154,9502051,0.8015399999999999,-0.01342,-0.296094,23.7125,28.735,-29.295
1155,9502149,0.8015399999999999,0.01281,-0.331474,26.005,39.2,-28.84
1156,9502247,0.7911701,0.038551999999999996,-0.36807399999999996,30.2575,48.1075,-29.47
1157,9502345,0.7882421,0.020496,-0.378078,36.155,55.09,-31.0275
1158,9502442,0.80703,0.00122,-0.356362,39.97,55.79,-33.1275
1159,9502540,0.8525360000000001,-0.014884,-0.331108,40.18,52.605,-33.845
1160,9502638,0.9358620999999999,-0.041602,-0.304268,37.3975,47.0925,-33.285
1161,9502736,1.03273,-0.07283401,-0.28157600000000005,28.28,37.7125,-28.105
1162,9502834,1.067256,-0.124928,-0.260226,18.41,30.2225,-21.6125
1163,9502932,1.1394799999999998,-0.140178,-0.25363800000000003,6.79,23.345,-16.9575
1164,9503030,1.193526,-0.30353600000000003,-0.2806,-9.0125,21.4375,-11.6025
1165,9503128,1.278438,-0.47885,-0.215696,-21.98,24.8325,-7.245
1166,9503226,1.31272,-0.53192,-0.085156,-40.4075,26.6,-6.8775
1167,9503324,1.319186,-0.46848,0.032574,-51.5025,16.5725,-6.895
1168,9503422,1.28954,-0.32574000000000003,-0.009394,-50.785,-6.265,-1.155
1169,9503520,1.257088,-0.147254,-0.07307801,-43.155,-31.0275,5.6525
1170,9503618,1.234518,0.11712,-0.21142600000000003,-31.1675,-46.515,9.5375
1171,9503716,1.118496,0.322934,-0.5723020999999999,-18.5675,-55.72,9.59
1172,9503813,0.969534,0.202398,-0.8222799999999999,-14.14,-46.9875,10.185
1173,9503911,0.992348,0.010614,-0.788486,-21.105,-8.9425,8.9075
1174,9504009,1.0815299999999999,-0.174094,-0.9147559999999999,-32.2525,30.5725,-1.6975
1175,9504107,1.102636,-0.4514,-1.151924,-48.5975,38.0975,-21.1575
1176,9504205,0.9961300999999999,-0.659288,-1.094584,-68.1625,23.9575,-40.1625
1177,9504303,0.928054,-0.560102,-0.90585,-76.51,6.965,-52.7975
1178,9504401,0.815448,-0.20996199999999998,-0.76372,-81.06,-22.8725,-62.65
1179,9504499,0.709918,0.098088,-0.7551800000000001,-85.1025,-64.4875,-62.895
1180,9504597,0.687958,0.215086,-0.8239880999999999,-77.9975,-97.26501,-54.915
1181,9504695,0.8276481,0.28072199999999997,-0.8541221,-62.0725,-113.05,-46.06
1182,9504793,0.978928,0.45383999999999997,-0.8592460999999999,-44.2225,-114.6425,-46.1125
1183,9504891,1.012234,0.6688041,-0.9201241,-24.605,-94.97251,-46.9875
1184,9504989,1.0754299999999999,0.712114,-0.9269561,-0.7,-53.48,-38.325
1185,9505087,1.159244,0.612318,-0.800076,12.7925,-19.81,-25.2
1186,9505185,1.106296,0.42895200000000006,-0.737124,12.2675,-11.515,-13.2125
1187,9505282,0.9516,0.14335,-0.66978,19.6175,-18.41,1.7675
1188,9505380,0.8226459999999999,-0.080886,-0.5795,27.125,-26.3375,10.8675
1189,9505478,0.761158,-0.222894,-0.47067600000000004,30.4325,-23.4675,14.1225
1190,9505576,0.7494460000000001,-0.28682199999999997,-0.36234,29.47,-13.755,18.41
1191,9505674,0.7387100000000001,-0.30792800000000004,-0.289018,21.7175,-8.4525,26.915
1192,9505772,0.69357,-0.31012399999999996,-0.256688,10.395,-9.135,36.7675
1193,9505870,0.621468,-0.291092,-0.250832,0.595,-10.185,43.4
1194,9505968,0.516914,-0.2623,-0.255346,-5.145,-11.8825,44.9225
1195,9506066,0.423706,-0.22021,-0.262056,-5.6525,-14.7875,43.1025
1196,9506164,0.377346,-0.12322000000000001,-0.287188,-5.635,-16.73,41.2825
1197,9506262,0.403332,-0.036722000000000005,-0.28926199999999996,-4.6375,-16.7825,40.53
1198,9506360,0.436882,0.010126000000000001,-0.29792399999999997,-4.41,-14.595,41.8425
1199,9506458,0.4575,0.021106,-0.301706,-6.685,-12.635,43.645
1200,9506556,0.48531599999999997,0.018666,-0.299266,-11.06,-11.69,45.115
1201,9506654,0.553392,0.023058000000000002,-0.299144,-16.2225,-7.7525,44.975
1202,9506751,0.6314721,0.02074,-0.30707399999999996,-20.545,1.085,43.5225
1203,9506849,0.6600201,-0.029036000000000003,-0.29902199999999995,-23.5725,11.6725,39.9875
1204,9506947,0.665754,-0.08771799999999999,-0.276818,-26.39,20.195,36.2075
1205,9507045,0.6695361,-0.142374,-0.24875799999999998,-30.1875,27.6675,32.97
1206,9507143,0.668072,-0.184952,-0.22801799999999997,-34.23,36.12,30.03
1207,9507241,0.679784,-0.214842,-0.227042,-38.4125,44.8525,27.1775
1208,9507339,0.715286,-0.216428,-0.25254,-41.7375,50.9425,24.2375
1209,9507437,0.75335,-0.175924,-0.308294,-44.0125,50.54,21.7875
1210,9507535,0.7904380999999999,-0.105896,-0.339526,-44.1,43.54,20.02
1211,9507633,0.8519260000000001,-0.023912,-0.35892399999999997,-40.2675,38.85,17.3425
1212,9507731,0.9282981,0.046360000000000005,-0.40882199999999996,-29.3825,38.325,13.615
1213,9507829,1.016504,0.108702,-0.48007,-10.9025,34.0025,8.785
1214,9507927,1.1263040000000002,0.20288599999999998,-0.530456,9.6075,26.2325,2.2225
1215,9508025,1.2195120000000002,0.36209600000000003,-0.509228,26.215,20.265,-6.2475
1216,9508123,1.2700200000000001,0.44896,-0.35282399999999997,40.2325,24.0625,-13.7025
1217,9508220,1.315282,0.395646,-0.17836400000000002,52.535,31.7625,-16.0825
1218,9508318,1.361276,0.262056,-0.116998,58.4325,28.6125,-16.1525
1219,9508416,1.3887260000000001,0.074542,-0.101992,57.3825,11.5675,-14.91
1220,9508514,1.4191040000000001,-0.13859200000000002,-0.08052000000000001,48.0025,-9.0475,-10.325
1221,9508612,1.407514,-0.31537,-0.09711201,34.09,-24.64,-4.27
1222,9508710,1.343342,-0.5233800000000001,-0.312808,22.855,-34.6325,1.05
1223,9508808,1.178276,-0.533628,-0.590236,18.9525,-38.3775,6.37
1224,9508906,1.003816,-0.44249399999999994,-0.720288,22.995,-24.4475,6.9125
1225,9509004,0.9897860999999999,-0.26961999999999997,-0.8344801,32.4975,10.045,4.6725
1226,9509102,0.993202,0.048922,-1.081042,41.37,35.9275,6.685
1227,9509200,0.9372040999999999,0.400038,-1.2189020000000002,48.7375,32.9525,10.2375
1228,9509298,0.818742,0.5292359999999999,-1.103246,47.145,13.7025,16.9925
1229,9509395,0.726754,0.46921199999999996,-0.9470860000000001,44.905,-7.28,24.7625
1230,9509493,0.677588,0.183122,-0.814472,47.4425,-31.8675,29.6625
1231,9509591,0.679662,-0.02745,-0.746518,49.4375,-62.615,34.93
1232,9509689,0.7705521,-0.203252,-0.788608,50.225,-85.7325,35.56
1233,9509787,0.901214,-0.402478,-0.760914,49.56,-93.24,41.125
1234,9509885,1.0310219999999999,-0.549732,-0.6954,38.7975,-84.0525,46.3925
1235,9509983,1.111298,-0.611586,-0.660996,15.4525,-58.52,43.785
1236,9510081,1.1210579999999999,-0.683322,-0.6533100000000001,-4.83,-23.4675,34.51
1237,9510179,1.06323,-0.726876,-0.58011,-19.74,5.25,19.4775
1238,9510277,0.967216,-0.59109,-0.5361899999999999,-29.9425,9.0475,0.1225
1239,9510375,0.844972,-0.384666,-0.5458281,-34.16,-11.8475,-12.18
1240,9510473,0.740418,-0.16506600000000002,-0.527406,-36.435,-31.605,-20.93
1241,9510571,0.685396,0.020252000000000003,-0.46201400000000004,-38.115,-34.1075,-27.6675
1242,9510669,0.642696,0.154086,-0.379054,-37.6425,-22.4,-32.8825
1243,9510766,0.596092,0.22814,-0.313052,-35.4025,-8.89,-37.45
1244,9510864,0.550586,0.246196,-0.293166,-30.3625,-0.6125,-40.845
1245,9510962,0.51667,0.23692399999999997,-0.302682,-25.4275,1.3125,-40.915
1246,9511060,0.45445,0.208254,-0.310734,-22.6275,-1.015,-39.1825
1247,9511158,0.384544,0.16226,-0.30780599999999997,-19.9325,-4.69,-37.3625
1248,9511256,0.33610999999999996,0.104554,-0.291946,-15.8725,-5.915,-34.6325
1249,9511354,0.336354,0.051362,-0.287554,-13.335,-9.2925,-29.3125
1250,9511452,0.353678,-0.007442,-0.294752,-9.24,-13.1425,-25.865
1251,9511550,0.407602,-0.025376,-0.2989,-5.7225,-11.2525,-27.195
1252,9511648,0.48702399999999996,-0.016104,-0.291946,-0.4375,-15.3125,-28.42
1253,9511746,0.5696180000000001,-0.002074,-0.31146599999999997,4.7425,-20.51,-28.9275
1254,9511844,0.64599,0.008662000999999999,-0.317322,8.155,-18.6025,-28.525
1255,9511942,0.718092,0.020496,-0.310002,10.3075,-7.315,-27.615
1256,9512039,0.7664041,0.029768,-0.313906,11.8825,9.345,-27.405
1257,9512137,0.787998,0.054046000000000004,-0.335622,14.77,27.8775,-29.575
1258,9512235,0.809836,0.090158,-0.35685,18.9525,45.5875,-32.27
1259,9512333,0.84546,0.114436,-0.353312,25.6725,59.2375,-33.0925
1260,9512431,0.876326,0.10492,-0.353068,32.4975,64.7675,-34.1075
1261,9512529,0.9320801,0.08674201,-0.327448,38.0625,57.505,-33.39
1262,9512627,0.9910059999999999,0.063684,-0.29951,39.8475,46.2,-32.7075
1263,9512725,1.0584719999999999,0.002684,-0.273768,35.9975,37.66,-29.8025
1264,9512823,1.102514,-0.03904,-0.259494,27.7725,29.225,-24.185
1265,9512921,1.134234,-0.045872,-0.260226,15.155,19.565,-20.7375
1266,9513019,1.143018,-0.1464,-0.26461799999999996,-2.0125,15.4,-15.89
1267,9513117,1.192184,-0.373686,-0.225212,-17.0625,20.265,-9.485
1268,9513215,1.259406,-0.506666,-0.12383,-33.4775,26.8625,-7.175
1269,9513313,1.2755100000000001,-0.48531599999999997,0.034282,-50.9425,22.82,-7.9975
1270,9513410,1.269776,-0.35282399999999997,0.03599,-57.68,9.905,-3.64
1271,9513508,1.292224,-0.170922,-0.07356601,-50.995,-8.155,3.71
1272,9513606,1.328214,0.108946,-0.300242,-40.39,-30.695,9.73
1273,9513704,1.238544,0.23387399999999997,-0.558882,-29.155,-50.365,11.8475
1274,9513802,1.079212,0.104798,-0.6803941,-21.105,-45.57,13.0025
1275,9513900,1.045662,-0.045018,-0.690032,-23.9925,-11.1475,9.4325
1276,9513998,1.035048,-0.207156,-0.791902,-40.145,27.4575,-2.2925
1277,9514096,1.036634,-0.41968,-0.95465,-57.75,40.4775,-16.03
1278,9514194,0.91195,-0.576572,-0.935984,-76.8425,30.8525,-31.0275
1279,9514292,0.829356,-0.457988,-0.843508,-89.04,13.23,-43.925
1280,9514390,0.744444,-0.19947,-0.7850699999999999,-90.755,-10.7275,-53.305
1281,9514488,0.702598,0.13847,-0.808982,-91.5425,-41.86,-58.1875
1282,9514586,0.6958880000000001,0.180316,-0.7489581,-83.80751,-65.7825,-55.37
1283,9514683,0.8350901,0.193126,-0.7628659999999999,-65.94,-89.2325,-46.1475
1284,9514781,0.951844,0.371002,-0.876814,-49.385,-107.59,-45.0275
1285,9514879,1.006866,0.59353,-0.9175620000000001,-29.855,-101.675,-50.4175
1286,9514977,1.073844,0.68137,-0.9046301,-9.1,-72.905,-46.095
1287,9515075,1.133258,0.646478,-0.85644,7.7525,-33.46,-35.2975
1288,9515173,1.139358,0.5011760000000001,-0.791048,10.5525,-13.1425,-24.57
1289,9515271,1.0521280000000002,0.270962,-0.73627,12.4425,-14.2275,-10.57
1290,9515369,0.934642,0.032574,-0.633058,19.3725,-22.435,1.645
1291,9515467,0.854244,-0.1586,-0.538508,24.185,-28.3325,8.7325
1292,9515565,0.80276,-0.273402,-0.45274200000000003,25.235,-23.45,12.9325
1293,9515663,0.7732359999999999,-0.308904,-0.380274,20.79,-12.32,16.9575
1294,9515761,0.7260220000000001,-0.29426399999999997,-0.320494,12.74,-6.3525,24.01
1295,9515859,0.67405,-0.28011199999999997,-0.282064,3.2725,-6.8425,31.745
1296,9515957,0.618174,-0.254736,-0.265594,-4.0775,-8.5575,37.6425
1297,9516054,0.540338,-0.24351199999999998,-0.26718000000000003,-8.365,-12.3375,39.865
1298,9516152,0.48068,-0.21362199999999998,-0.26900999999999997,-10.64,-20.7025,40.11
1299,9516250,0.443958,-0.14396,-0.282064,-12.8975,-29.575,39.865
1300,9516348,0.46164799999999995,-0.085156,-0.29768,-12.67,-34.3875,39.515
1301,9516446,0.506788,-0.0427,-0.298534,-11.69,-34.2125,40.9325
1302,9516544,0.5422899999999999,-0.014396,-0.29768,-13.405,-33.1975,42.63
1303,9516642,0.571936,-0.013663999999999999,-0.298656,-15.6975,-31.745,43.4875
1304,9516740,0.60878,-0.01098,-0.294508,-19.4775,-26.215,43.435
1305,9516838,0.6695361,0.003172,-0.29158,-23.2575,-12.4075,42.21
1306,9516936,0.6844201,-0.0061,-0.29402,-25.585,3.71,40.6525
1307,9517034,0.650382,-0.042334,-0.28633400000000003,-27.09,15.575,38.0275
1308,9517132,0.601338,-0.07869,-0.269254,-29.8375,25.725,35.0525
1309,9517230,0.564738,-0.112606,-0.257298,-32.7425,37.1,31.9375
1310,9517327,0.5655920999999999,-0.15176800000000001,-0.270474,-34.965,48.9125,28.7875
1311,9517425,0.5967021,-0.17202,-0.313418,-36.2425,57.5225,25.6025
1312,9517523,0.63257,-0.146644,-0.35685,-38.1325,56.5775,22.1725
1313,9517621,0.6893,-0.10004,-0.37332,-39.655,48.7375,18.095
1314,9517719,0.756278,-0.031232,-0.346968,-38.7975,41.51,14.875
1315,9517817,0.8552200000000001,0.036112,-0.341844,-31.5525,36.9075,11.13
1316,9517915,0.9547720999999999,0.064538,-0.394426,-15.5925,29.785,4.2175
1317,9518013,1.04554,0.13359000000000001,-0.459574,4.025,20.0725,-5.075
1318,9518111,1.158268,0.291458,-0.49166000000000004,21.42,14.7175,-15.8375
1319,9518209,1.235494,0.426878,-0.38856999999999997,36.1375,17.9725,-23.8875
1320,9518307,1.30235,0.42761000000000005,-0.195078,48.5975,25.2875,-24.7975
1321,9518405,1.363106,0.30439,-0.05856,55.6325,25.2875,-23.4325
1322,9518503,1.439722,0.14383800000000002,-0.045627999999999995,56.4725,10.605,-22.645
1323,9518601,1.48596,-0.060146000000000005,-0.05124001,49.8575,-13.8425,-19.215
1324,9518699,1.493036,-0.318664,-0.238144,39.83,-35.875,-14.0
1325,9518796,1.396534,-0.486292,-0.486048,34.37,-50.5225,-8.47
1326,9518894,1.188036,-0.42114399999999996,-0.6613621000000001,28.7,-45.2375,-5.9325
1327,9518992,1.110322,-0.369294,-0.743224,37.0475,-14.7,-8.5575
1328,9519090,1.1350879999999999,-0.15762400000000001,-0.9403761,49.2975,25.725,-8.155
1329,9519188,1.06445,0.224846,-1.121546,59.7275,41.6675,-4.9525
1330,9519286,0.906948,0.395646,-1.054324,66.5175,24.2725,-1.96
1331,9519384,0.7388319999999999,0.36966,-0.882182,65.1,1.085,5.6175
1332,9519482,0.6828341,0.232776,-0.7704300000000001,61.8275,-19.5125,13.6675
1333,9519580,0.6728301,-0.05209400000000001,-0.775066,64.41751,-47.6875,19.7575
1334,9519678,0.737124,-0.264374,-0.8540000000000001,65.765,-76.7025,26.88
1335,9519776,0.882548,-0.32574000000000003,-0.8095920999999999,66.92,-93.4675,30.73
1336,9519874,1.003084,-0.45078999999999997,-0.7062579999999999,60.4275,-99.9775,31.9375
1337,9519972,1.0521280000000002,-0.544974,-0.700646,45.815,-86.9925,31.2375
1338,9520069,1.069696,-0.559126,-0.7617681,30.1,-53.8125,28.1225
1339,9520167,1.059082,-0.5471701,-0.7643300000000001,18.5675,-18.445,18.0075
1340,9520265,1.025166,-0.527894,-0.662948,9.625,-1.96,6.02
1341,9520363,0.957822,-0.393572,-0.6265921,-0.8925,-4.5675,-7.5425
1342,9520461,0.854244,-0.255834,-0.597068,-7.4025,-15.2075,-17.255
1343,9520559,0.758352,-0.10687200000000001,-0.537898,-11.8825,-21.5425,-24.815
1344,9520657,0.689056,0.011346,-0.454938,-14.0525,-19.705,-31.4125
1345,9520755,0.6480640000000001,0.09028,-0.387472,-14.77,-12.74,-36.8025
1346,9520853,0.6108541000000001,0.12468399999999999,-0.342088,-12.6875,-6.685,-41.4575
1347,9520951,0.577304,0.133224,-0.323056,-8.365,-4.935,-44.5725
1348,9521049,0.532896,0.129198,-0.31890799999999997,-5.32,-4.9525,-45.71
1349,9521147,0.47994799999999993,0.118584,-0.31585799999999997,-3.4125,-5.2675,-44.695
1350,9521244,0.424804,0.08442401,-0.315004,-0.6825,-4.6725,-43.0325
1351,9521342,0.38661799999999996,0.039772,-0.31463800000000003,2.4325,-2.695,-42.1225
1352,9521440,0.382104,-0.000122,-0.302804,5.67,-0.5075,-41.6675
1353,9521538,0.411384,-0.012565999999999999,-0.29036,9.17,-1.2775,-41.685
1354,9521636,0.46018400000000004,-0.024278,-0.308294,12.145,-8.61,-41.79
1355,9521734,0.513376,-0.015372,-0.328546,15.015,-13.3,-43.295
1356,9521832,0.576572,0.008296000999999999,-0.325008,17.5875,-14.84,-43.6625
1357,9521930,0.6335460999999999,0.038308,-0.33013200000000004,19.5125,-15.47,-42.5075
1358,9522028,0.6821020000000001,0.060024,-0.321592,20.405,-10.08,-40.5475
1359,9522126,0.7260220000000001,0.06832001,-0.30780599999999997,22.33,3.8675,-39.165
1360,9522224,0.750544,0.061854,-0.301218,24.4125,17.2725,-36.925
1361,9522322,0.7421260000000001,0.063318,-0.307196,26.845,29.5925,-36.26
1362,9522420,0.7237041,0.07173600000000001,-0.30780599999999997,30.485,43.645,-36.6625
1363,9522518,0.7300479999999999,0.05770599999999999,-0.305244,33.8975,56.91,-37.31
1364,9522615,0.7605481,0.024644,-0.29768,35.6125,63.7,-36.2775
1365,9522713,0.800564,-0.030622000000000003,-0.279502,34.7375,60.025,-32.8125
1366,9522811,0.8671761,-0.080276,-0.24827,31.6575,50.2775,-30.3625
1367,9522909,0.9635560999999999,-0.12688,-0.218502,24.57,40.25,-27.09
1368,9523007,1.081774,-0.134322,-0.21447600000000003,17.4825,32.2,-23.38
1369,9523105,1.1326479999999999,-0.158844,-0.224602,8.2425,23.345,-18.795
1370,9523203,1.1862059999999999,-0.13847,-0.24131599999999997,-2.24,15.6625,-16.3625
1371,9523301,1.218048,-0.211304,-0.264496,-15.6275,18.13,-14.385
1372,9523399,1.2372020000000001,-0.296338,-0.22509,-28.2625,27.8425,-11.445
1373,9523497,1.230858,-0.306342,-0.15189,-40.8275,33.74,-11.2175
1374,9523595,1.18645,-0.260226,-0.06954,-43.8025,24.395,-9.8525
1375,9523693,1.133624,-0.177754,-0.058316,-37.8875,3.4825,-6.51
1376,9523791,1.103856,-0.0305,-0.144814,-27.895,-19.6875,-3.5
1377,9523889,1.086898,0.17519200000000001,-0.453596,-12.0575,-40.915,-3.535
1378,9523987,0.9535521,0.170312,-0.715774,0.385,-52.3075,-6.72
1379,9524085,0.9085340000000001,0.007808001,-0.767746,2.1,-33.4775,-8.8025
1380,9524183,0.9683141,-0.141276,-0.795806,-2.835,4.27,-15.2075
1381,9524280,1.134234,-0.30292600000000003,-0.9204901,-18.9,31.2725,-25.83
1382,9524378,1.0887280000000001,-0.599142,-0.820938,-37.345,34.2475,-43.5925
1383,9524476,1.014918,-0.41418999999999995,-1.0121120000000001,-55.1075,19.6875,-56.6825
1384,9524574,0.9978379999999999,-0.093696,-1.3588360000000002,-71.75,0.77,-64.75
1385,9524672,0.835822,-0.49471000000000004,-1.0309,-64.5575,-4.76,-69.9475
1386,9524770,0.777018,-0.396012,-0.665754,-55.9825,-15.575,-65.17
1387,9524868,0.885476,0.154696,-0.7643300000000001,-55.8425,-43.75,-79.485
1388,9524966,0.90585,0.42285200000000006,-0.9204901,-29.015,-74.76,-80.3425
1389,9525064,0.9418401,0.562908,-0.955992,-4.6025,-87.1325,-67.9525
1390,9525162,1.01565,0.672342,-0.9259799999999999,16.59,-80.045,-59.0275
1391,9525260,1.0942180000000001,0.698328,-0.8977980999999999,36.295,-60.8475,-47.775
1392,9525358,1.122156,0.570838,-0.812276,46.725,-35.4375,-38.7975
1393,9525456,1.0920219999999998,0.338062,-0.743712,53.865,-18.2875,-33.565
1394,9525553,1.030046,0.07490801,-0.660996,56.875,-22.7325,-23.38
1395,9525651,0.9620920000000001,-0.165798,-0.570106,58.345,-35.98,-14.5775
1396,9525749,0.904386,-0.310368,-0.48421800000000004,56.0525,-40.285,-9.485
1397,9525847,0.812886,-0.35526399999999997,-0.398208,50.155,-28.385,-5.845
1398,9525945,0.718946,-0.329278,-0.35831399999999997,41.825,-11.2525,-1.9075
1399,9526043,0.639524,-0.30683,-0.354898,33.67,-1.4,2.1
1400,9526141,0.6039,-0.284992,-0.35258,30.2575,-2.66,4.2175
1401,9526239,0.580354,-0.20447200000000001,-0.349896,26.775,-12.95,2.625
1402,9526337,0.527284,-0.12053599999999999,-0.354044,23.275,-25.445,2.2225
1403,9526435,0.508252,-0.063318,-0.35624,23.485,-33.1625,3.885
1404,9526533,0.5191100000000001,-0.001464,-0.3538,22.8375,-34.9125,5.39
1405,9526631,0.545218,0.047336,-0.34892,22.19,-35.42,7.4375
1406,9526729,0.5754739999999999,0.06795401,-0.349408,22.54,-36.785,10.4125
1407,9526827,0.593164,0.08454600000000001,-0.339526,22.4525,-35.665,12.6
1408,9526925,0.6110981,0.080154,-0.325252,21.77,-28.07,13.405
1409,9527022,0.627934,0.047824,-0.322934,20.545,-15.96,12.775
1410,9527120,0.647454,0.001952,-0.326594,19.25,-3.955,11.165
1411,9527218,0.6695361,-0.048312,-0.316956,17.0975,5.6,9.4325
1412,9527316,0.6822239999999999,-0.09223200000000001,-0.289628,14.5775,12.46,7.21
1413,9527414,0.677588,-0.128344,-0.263398,11.445,18.4975,4.97
1414,9527512,0.6530661,-0.166652,-0.247538,7.7,24.8325,2.835
1415,9527610,0.64172,-0.19861600000000001,-0.256932,3.36,31.535,0.8575
1416,9527708,0.6414761,-0.21606199999999998,-0.277916,-1.7675,36.3125,-0.3675
1417,9527806,0.646478,-0.20556999999999997,-0.294752,-4.83,36.8375,-1.8725
1418,9527904,0.667706,-0.174948,-0.305976,-6.6325,33.985,-4.515
1419,9528002,0.711504,-0.15054800000000002,-0.31463800000000003,-5.3725,32.55,-8.68
1420,9528100,0.778116,-0.13847,-0.310734,0.7,34.09,-13.1425
1421,9528198,0.8522921,-0.095648,-0.33171799999999996,9.52,34.335,-18.6725
1422,9528296,0.9390341,-0.019032,-0.35502,18.7425,28.98,-23.975
1423,9528394,1.026142,0.11248399999999999,-0.36002199999999995,27.5625,24.3775,-29.2775
1424,9528492,1.131428,0.23973000000000003,-0.38308000000000003,36.4525,20.755,-33.4075
1425,9528590,1.240374,0.28999400000000003,-0.36295,47.5825,13.1775,-35.665
1426,9528687,1.285148,0.217038,-0.282674,56.0,5.145,-36.12
1427,9528785,1.272704,0.079056,-0.19397999999999999,61.705,2.345,-35.6125
1428,9528883,1.272216,-0.047214,-0.149816,62.3175,-0.1225,-35.91
1429,9528981,1.2664819999999999,-0.15494000000000002,-0.138226,61.46,-6.65,-35.6825
1430,9529079,1.199382,-0.233264,-0.09845401,57.3825,-16.555,-35.4025
1431,9529177,1.12911,-0.324398,-0.147742,49.28,-26.2675,-34.825
1432,9529275,1.028338,-0.43554,-0.366122,44.1175,-31.5525,-32.935
1433,9529373,0.912438,-0.429806,-0.705038,44.5725,-26.4775,-30.38
1434,9529471,0.8300879999999999,-0.295606,-0.9384239999999999,52.185,-5.5125,-29.82
1435,9529569,0.844606,-0.12712400000000001,-1.04493,61.6875,23.9575,-30.1
1436,9529667,0.91561,0.2562,-1.1533879999999999,78.2075,42.6825,-23.345
1437,9529765,0.948306,0.702354,-1.175226,97.615,31.885,-14.385
1438,9529863,0.775188,0.68991,-0.9286639999999999,109.6025,7.945,-8.4175
1439,9529961,0.6451359999999999,0.401014,-0.6317159999999999,112.105,-9.2225,-6.23
1440,9530058,0.623054,0.10723800000000001,-0.5703501,121.835,-27.72,-10.6575
1441,9530156,0.622078,-0.06746601,-0.711504,127.9775,-59.6575,-14.6125
1442,9530254,0.736758,-0.270596,-0.859002,126.07,-101.5525,-9.1875
1443,9530352,0.9107301,-0.478362,-0.767502,122.815,-125.8075,-2.5375
1444,9530450,0.99918,-0.5261859999999999,-0.6283,103.635,-97.37,-14.595
1445,9530548,1.0589600000000001,-0.489098,-0.650748,81.235,-34.055,-30.5375
1446,9530646,1.06933,-0.47482399999999997,-0.7376119999999999,74.2,8.4525,-44.7825
1447,9530744,1.031388,-0.375638,-0.75579,67.2875,19.74,-56.77
1448,9530842,0.9580661,-0.198494,-0.717482,59.7625,3.29,-62.0375
1449,9530940,0.868884,0.016347999999999998,-0.7062579999999999,58.38,-19.8975,-68.2675
1450,9531038,0.8211821,0.157136,-0.677222,62.86,-28.2975,-75.985
1451,9531136,0.8256960999999999,0.23485,-0.627202,68.46,-23.8525,-81.795
1452,9531234,0.8525360000000001,0.26461799999999996,-0.576328,74.83,-18.4975,-84.8225
1453,9531332,0.8744960999999999,0.22082,-0.545096,82.5475,-16.9225,-85.295
1454,9531430,0.885842,0.139934,-0.5380199999999999,91.7525,-17.9725,-83.58001
1455,9531527,0.9004821,0.07515201,-0.5325300000000001,99.505,-21.28,-81.41001
1456,9531625,0.9254921,0.012322,-0.507886,105.2275,-25.0075,-80.0625
1457,9531723,0.9324460999999999,-0.060634,-0.484706,108.92,-27.5625,-79.1175
1458,9531821,0.90646,-0.122366,-0.47506800000000005,109.9,-29.8025,-79.8175
1459,9531919,0.8669319999999999,-0.14493599999999998,-0.45591400000000004,109.62,-31.5175,-82.2675
1460,9532017,0.8258181,-0.12468399999999999,-0.452376,108.9725,-31.6925,-86.13501
1461,9532115,0.8067861,-0.08296,-0.46152600000000005,110.005,-32.1125,-91.07
1462,9532213,0.786046,-0.034892,-0.46616199999999997,110.4425,-35.175,-94.67501
1463,9532311,0.760914,0.0017079999999999999,-0.457012,111.125,-37.9225,-97.12501
1464,9532409,0.734318,0.035868000000000004,-0.43907799999999997,111.4925,-35.28,-98.3675
1465,9532507,0.700646,0.046482,-0.410286,113.0325,-28.0525,-99.31251
1466,9532605,0.670024,0.049044,-0.377346,114.8,-17.8675,-100.3275
1467,9532703,0.636596,0.033794,-0.34123400000000004,116.7075,-3.78,-100.905
1468,9532801,0.5958479999999999,0.015616,-0.30536599999999997,117.4075,13.4575,-100.555
1469,9532899,0.5838920999999999,-0.003782,-0.277306,117.3025,29.225,-99.085
1470,9532996,0.590236,-0.040748,-0.257786,117.74,36.6275,-96.7575
1471,9533094,0.6326921,-0.07393200000000001,-0.25058800000000003,117.5475,32.2525,-92.3125
1472,9533192,0.70089,-0.09930800000000001,-0.263276,115.71,16.9225,-85.55751
1473,9533290,0.7714061,-0.11943800000000002,-0.26352,111.8775,-3.0275,-77.9275
1474,9533388,0.836676,-0.120902,-0.257786,106.3125,-14.0525,-71.9775
1475,9533486,0.88023,-0.16811600000000002,-0.266204,100.275,-11.0075,-66.46500999999999
1476,9533584,0.9296399999999999,-0.22277199999999997,-0.289628,94.395,-3.0275,-62.475
1477,9533682,0.944524,-0.255468,-0.360754,87.325,0.07,-60.7425
1478,9533780,0.9291520000000001,-0.246928,-0.414678,76.475,-3.4125,-58.94
1479,9533878,0.89975,-0.187636,-0.413946,60.83,-3.4825,-58.03
1480,9533976,0.88328,-0.26095799999999997,-0.374784,48.615,6.1425,-54.88
1481,9534074,0.8569280999999999,-0.30548800000000004,-0.315736,43.2775,16.03,-50.12
1482,9534172,0.8010520000000001,-0.26047,-0.273524,40.39,15.05,-43.75
1483,9534269,0.774212,-0.204594,-0.343674,44.2575,4.095,-40.6
1484,9534367,0.7589621,-0.130174,-0.48421800000000004,54.88,-12.915,-39.9
1485,9534465,0.744688,-0.08564401,-0.609634,64.5225,-27.3,-39.9175
1486,9534563,0.774456,-0.124074,-0.7104060000000001,67.76,-25.2525,-40.5825
1487,9534661,0.8675421,-0.285236,-0.777628,61.3725,-9.6775,-44.73
1488,9534759,0.93147,-0.42333999999999994,-0.8033701,45.465,7.7875,-48.405
1489,9534857,0.9229299999999999,-0.506178,-0.8620521000000001,30.4325,13.93,-53.3575
1490,9534955,0.931958,-0.523502,-1.05713,24.3075,0.385,-62.965
1491,9535053,0.9214661,-0.671976,-0.9744141,15.6625,-14.9975,-78.75
1492,9535151,0.7951961,-0.6021920000000001,-0.70577,6.93,-8.8025,-87.4475
1493,9535249,0.7439560000000001,-0.107848,-0.728218,-1.54,10.2375,-102.4975
1494,9535346,0.799466,0.26461799999999996,-0.801784,7.4375,5.8975,-110.2675
1495,9535444,0.9394,0.404552,-0.8786440999999999,24.465,-25.9,-93.6775
1496,9535542,0.999302,0.463478,-0.8990181,46.97,-56.91,-79.345
1497,9535640,1.04615,0.475434,-0.829722,66.7275,-50.715,-69.1075
1498,9535738,1.093852,0.391254,-0.8049561,93.2225,-19.005,-61.075
1499,9535836,1.113006,0.27084,-0.833992,110.8975,-5.4775,-60.27
1500,9535934,1.0919,0.126636,-0.784704,115.045,-11.1475,-59.5
1501,9536032,1.053714,-0.033916,-0.6851520999999999,117.5825,-17.885,-57.4
1502,9536130,0.9890540000000001,-0.137372,-0.5997520000000001,119.385,-20.0375,-59.395
1503,9536228,0.9145120999999999,-0.171898,-0.5422899999999999,119.9975,-18.8475,-64.1375
1504,9536326,0.8420440999999999,-0.163602,-0.514108,119.1225,-15.75,-68.8275
1505,9536424,0.7914140000000001,-0.14152,-0.5103260000000001,118.44,-15.9775,-72.1875
1506,9536521,0.76982,-0.09930800000000001,-0.49556400000000006,119.28,-22.8375,-76.2825
1507,9536619,0.759938,-0.063074,-0.45640200000000003,120.89,-32.165,-80.57
1508,9536717,0.7479819999999999,-0.04404201,-0.41589799999999993,122.5,-37.52,-81.88251
1509,9536815,0.7399300999999999,-0.037942000000000004,-0.384666,123.515,-36.1025,-81.62001
1510,9536913,0.735172,-0.046238,-0.37685799999999997,123.13,-32.1475,-80.36
1511,9537011,0.7288279999999999,-0.063196,-0.375638,121.24,-30.87,-78.26
1512,9537109,0.721996,-0.08296,-0.364658,117.39,-29.8375,-76.1425
1513,9537207,0.73627,-0.098088,-0.3416,112.8575,-27.58,-74.585
1514,9537305,0.760914,-0.125538,-0.314272,108.535,-23.73,-73.71
1515,9537403,0.774212,-0.167994,-0.30487800000000004,104.9125,-18.7775,-72.905
1516,9537501,0.755302,-0.218502,-0.305732,102.0075,-14.7,-72.6775
1517,9537599,0.7332201,-0.232776,-0.303048,98.0175,-12.0575,-71.96
1518,9537696,0.71004,-0.233996,-0.293288,94.30751,-9.5025,-71.61
1519,9537794,0.709918,-0.254126,-0.30341399999999996,91.9625,-6.51,-71.575
1520,9537892,0.712236,-0.26766799999999996,-0.334524,90.21251,-3.9725,-70.84000999999999
1521,9537990,0.7168720000000001,-0.259006,-0.351238,87.8675,-3.0275,-70.1225
1522,9538088,0.737124,-0.245464,-0.357582,86.20501,-2.24,-69.475
1523,9538186,0.763354,-0.242048,-0.383446,85.12,-0.9625,-69.055
1524,9538284,0.805932,-0.24570799999999998,-0.427122,84.00001,-1.2075,-68.5475
1525,9538382,0.857294,-0.24522,-0.44347,81.69001,-0.91,-68.565
1526,9538480,0.924516,-0.254858,-0.425048,79.0475,1.8375,-68.8625
1527,9538578,0.9770981,-0.258274,-0.392108,76.93,5.075,-69.87751
1528,9538676,1.006134,-0.23826599999999998,-0.390888,75.46,6.195,-71.8375
1529,9538774,1.0285819999999999,-0.20691199999999998,-0.389424,77.3675,3.4475,-74.8475
1530,9538871,1.03883,-0.155916,-0.345138,77.7,-0.5425,-78.225
1531,9538969,1.039318,-0.10223600000000001,-0.276208,75.32,-0.3675,-81.6375
1532,9539067,1.008818,-0.086132,-0.20556999999999997,71.575,2.5725,-83.51001
1533,9539165,0.986614,-0.124074,-0.18141400000000002,67.1825,4.6025,-84.07001
1534,9539263,0.9586761,-0.22191799999999998,-0.226188,62.6675,1.6275,-82.425
1535,9539361,0.939522,-0.33733,-0.382592,56.9275,-6.055,-79.765
1536,9539459,0.9018241,-0.5547340000000001,-0.8426540000000001,59.5525,-14.4025,-77.63
1537,9539557,0.792146,-0.676612,-1.246108,75.39,-19.145,-73.16751
1538,9539655,0.7300479999999999,-0.303658,-1.118252,76.44001,6.5275,-71.19
1539,9539753,0.784338,0.299632,-0.759938,68.4775,58.4675,-74.655
1540,9539851,0.8508280999999999,0.551928,-0.8148380000000001,81.55001,69.0025,-77.49
1541,9539949,0.811666,0.326106,-0.7869,108.6925,15.9775,-74.7775
1542,9540046,0.668072,0.185318,-0.652334,103.215,-43.1375,-65.625
1543,9540144,0.521184,0.061732,-0.6290319999999999,98.5075,-70.105,-61.6
1544,9540242,0.532042,-0.016104,-0.635864,99.82,-63.735,-58.5725
1545,9540340,0.7479819999999999,-0.061488,-0.690886,99.5575,-40.1275,-55.86
1546,9540438,0.9882001,-0.153232,-0.726266,103.32,-28.07,-56.3675
1547,9540536,1.078968,-0.21276799999999998,-0.616466,104.44,-33.2325,-59.955
1548,9540634,1.06018,-0.19861600000000001,-0.568642,100.7475,-28.6125,-68.985
1549,9540732,1.03334,-0.177998,-0.7256560000000001,100.52,-6.7025,-83.09000999999999
1550,9540830,1.0382200000000001,-0.122244,-0.765794,98.5075,6.1775,-90.405
1551,9540928,0.9890540000000001,0.016836,-0.6916180000000001,91.455,0.8575,-92.48751
1552,9541026,0.895602,0.148596,-0.640012,92.0675,-5.4075,-95.3575
1553,9541124,0.833016,0.238144,-0.607926,98.7,-5.39,-99.8725
1554,9541222,0.798734,0.28914,-0.5665680000000001,106.3125,-4.41,-102.9175
1555,9541319,0.759572,0.29365399999999997,-0.525698,110.67,-2.73,-103.985
1556,9541417,0.7435901,0.24436599999999997,-0.491782,115.43,3.675,-103.95
1557,9541515,0.735904,0.167872,-0.474946,120.6975,9.6425,-105.1225
1558,9541613,0.7449321,0.08564401,-0.470554,122.0625,10.2725,-105.2975
1559,9541711,0.7551800000000001,-0.002684,-0.45286400000000004,122.36,13.7375,-106.33
1560,9541809,0.772626,-0.10126,-0.42468199999999995,121.4675,19.075,-107.0475
1561,9541907,0.7766521,-0.16835999999999998,-0.399916,118.1775,20.7025,-107.7475
1562,9542005,0.769454,-0.188368,-0.364292,112.035,17.22,-110.0225
1563,9542103,0.745786,-0.206058,-0.34831,104.4575,12.5475,-110.355
1564,9542201,0.72346,-0.203618,-0.354044,97.93,10.08,-109.3925
1565,9542298,0.7256560000000001,-0.199714,-0.369294,92.54001,10.325,-105.6475
1566,9542396,0.748714,-0.189222,-0.398818,88.2175,12.39,-100.065
1567,9542494,0.768356,-0.19483399999999998,-0.40357600000000005,83.545,12.495,-93.45
1568,9542592,0.7856801,-0.2074,-0.391376,79.0475,12.1625,-86.8525
1569,9542690,0.791536,-0.22167399999999998,-0.368318,74.305,13.37,-81.81251
1570,9542788,0.793366,-0.232898,-0.363926,68.495,16.275,-77.0
1571,9542886,0.8010520000000001,-0.228872,-0.35831399999999997,62.5275,18.445,-71.9075
1572,9542984,0.8100801,-0.20008,-0.35258,55.0725,17.5175,-66.43
1573,9543082,0.813496,-0.17214200000000002,-0.338672,47.74,15.2775,-61.565
1574,9543180,0.815936,-0.15054800000000002,-0.32635,41.195,15.9075,-56.805
1575,9543278,0.8127641,-0.142252,-0.31415,36.225,21.4025,-53.2525
1576,9543376,0.8203280000000001,-0.130418,-0.313296,33.2675,28.7,-50.855
1577,9543473,0.813008,-0.12566,-0.30292600000000003,31.185,33.3375,-48.4575
1578,9543571,0.81801,-0.11577799999999999,-0.277916,29.4525,33.0925,-46.025
1579,9543669,0.8235001000000001,-0.08954801,-0.270474,27.7725,30.94,-42.8575
1580,9543767,0.8524139999999999,-0.079178,-0.270962,26.425,27.405,-40.3725
1581,9543865,0.8973101000000001,-0.071614,-0.28462600000000005,21.2275,23.275,-35.77
1582,9543963,0.975878,-0.08113001,-0.283528,14.5075,22.1375,-29.89
1583,9544061,1.063718,-0.09942999999999999,-0.27755,9.5025,24.36,-26.2675
1584,9544159,1.136796,-0.09735601,-0.28365,3.0975,26.285,-24.7625
1585,9544257,1.1842540000000001,-0.126026,-0.24363400000000002,-3.9025,25.095,-23.555
1586,9544355,1.191452,-0.14518,-0.160674,-6.2825,21.595,-21.56
1587,9544453,1.168028,-0.1281,-0.092964,-1.085,16.8,-19.7225
1588,9544550,1.15839,0.019398,-0.31463800000000003,8.6975,8.3475,-15.925
1589,9544648,1.097146,0.042822000000000006,-0.644648,15.575,-5.775,-12.285
1590,9544746,1.073966,-0.05795,-0.9318360000000001,12.4775,-9.5375,-8.75
1591,9544844,1.115324,-0.21533000000000002,-1.140334,8.47,16.4675,-5.215
1592,9544942,1.154364,-0.522038,-0.9972281,-4.9175,63.1575,-7.0875
1593,9545040,1.12606,-0.8420440999999999,-0.7470060000000001,-11.2,87.08,-13.3
1594,9545138,1.039074,-0.532774,-0.738954,-45.8325,31.4475,-13.0725
1595,9545236,0.81618,-0.294752,-0.647942,-70.77,-51.835,3.255
1596,9545334,0.7645741,-0.044774,-0.8285021,-63.8225,-79.6775,9.1
1597,9545432,0.778116,0.200568,-0.9577,-49.665,-70.49,0.595
1598,9545530,0.832894,0.327204,-0.957944,-28.5775,-63.7525,-12.075
1599,9545628,0.89792,0.43615,-0.9496479999999999,-8.6625,-57.68,-19.915
1600,9545726,0.9375700000000001,0.5070319999999999,-0.94489,7.7,-42.2625,-26.9325
1601,9545824,0.9296399999999999,0.5314321,-0.9030440000000001,14.175,-27.6675,-28.84
1602,9545921,0.8607100000000001,0.498004,-0.8893800999999999,14.8925,-20.1775,-31.3775
1603,9546019,0.8479,0.382592,-0.8936501,18.025,-21.665,-30.4325
1604,9546117,0.883158,0.228384,-0.8664440000000001,22.575,-28.105,-24.5875
1605,9546215,0.946842,0.11211800000000001,-0.7823859999999999,27.1775,-30.66,-16.2575
1606,9546313,0.918538,0.040626,-0.6642899999999999,30.065,-25.0425,-8.05
1607,9546411,0.861442,-0.022813999999999997,-0.5653481,34.7025,-13.5275,-1.995
1608,9546509,0.7448100999999999,-0.063928,-0.510814,38.0975,-6.0725,1.6975
1609,9546607,0.6679501,-0.07112601,-0.492758,39.2875,-9.1875,2.8175
1610,9546705,0.630618,-0.06075601,-0.46457600000000004,41.1775,-16.345,4.725
1611,9546803,0.6049981,-0.033672,-0.435418,43.68,-21.42,5.215
1612,9546901,0.556808,0.007442,-0.42700000000000005,46.025,-24.605,5.2325
1613,9546999,0.491782,0.028182,-0.42065600000000003,49.6125,-26.705,4.13
1614,9547096,0.42138809999999993,0.037454,-0.413214,52.2375,-29.2425,2.065
1615,9547194,0.423828,0.049776,-0.405406,53.165,-32.8475,-0.7525
1616,9547292,0.46335600000000005,0.06380599999999999,-0.394548,52.745,-35.245,-2.24
1617,9547390,0.521184,0.052216,-0.377956,52.3075,-32.865,-1.7675
1618,9547488,0.583404,0.035258,-0.36441399999999996,50.5225,-24.3425,0.8925
1619,9547586,0.6430621,0.018178,-0.351848,46.1825,-13.44,2.485
1620,9547684,0.650626,-0.034038,-0.34477199999999997,41.055,-2.9225,0.9625
1621,9547782,0.57157,-0.174948,-0.336598,38.1675,2.31,-0.63
1622,9547880,0.65575,-0.118096,-0.366976,35.21,7.0175,2.5725
1623,9547978,0.679906,-0.12761199999999998,-0.344894,32.2875,23.4325,3.325
1624,9548076,0.6912520000000001,-0.14213,-0.32818,31.78,35.105,3.9375
1625,9548174,0.681126,-0.14310599999999998,-0.312808,29.225,41.965,5.5475
1626,9548272,0.6781981,-0.16165,-0.309758,26.705,48.7725,7.2625
1627,9548369,0.6537980999999999,-0.196664,-0.334524,22.9075,56.63,9.275
1628,9548467,0.6491621,-0.22252800000000003,-0.371612,17.255,62.0025,12.3025
1629,9548565,0.6512359999999999,-0.22509,-0.403088,10.15,63.8575,14.1575
1630,9548663,0.67588,-0.215086,-0.42858599999999997,2.205,63.8225,14.035
1631,9548761,0.725168,-0.237656,-0.43676000000000004,-4.1475,63.4375,12.8975
1632,9548859,0.802882,-0.281088,-0.42065600000000003,-6.685,60.76,11.34
1633,9548957,0.9053620000000001,-0.270108,-0.40967600000000004,-6.3175,53.025,9.765
1634,9549055,1.037,-0.264862,-0.396622,-1.54,42.035,7.595
1635,9549153,1.1859620000000002,-0.14457,-0.405406,7.98,34.7375,2.8175
1636,9549251,1.318332,0.08113001,-0.445788,16.6075,29.9075,-1.89
1637,9549349,1.448018,0.196176,-0.411262,30.2575,24.2025,-2.135
1638,9549446,1.513288,0.197152,-0.30866,44.2925,22.1375,-0.2275
1639,9549544,1.484374,0.130052,-0.20679,51.275,22.225,0.1225
1640,9549642,1.4339879999999998,0.013297999999999999,-0.134932,54.635,16.555,-0.7525
1641,9549740,1.393972,-0.12688,-0.101748,49.3675,4.9525,-2.0125
1642,9549838,1.358592,-0.260226,-0.09613601,39.6725,-6.2125,-2.485
1643,9549936,1.310402,-0.44944799999999996,-0.369172,35.035,-13.8775,-2.5025
1644,9550034,1.153144,-0.47165200000000007,-0.650992,36.2075,-27.4575,-1.7675
1645,9550132,0.980514,-0.290116,-0.7478600000000001,23.7825,-34.265,-0.0175
1646,9550230,0.953674,-0.11431400000000001,-0.826428,31.465,-5.7575,-2.45
1647,9550328,0.9209780000000001,0.182024,-1.069818,40.1275,19.88,-5.705
1648,9550426,0.838994,0.47604399999999997,-1.195234,52.6225,24.7625,-5.88
1649,9550523,0.737246,0.573522,-1.015894,56.7525,26.39,0.035
1650,9550621,0.6491621,0.425048,-0.8671761,55.965,13.79,12.1625
1651,9550719,0.6095119999999999,0.080886,-0.80276,66.7625,-25.2525,22.715
1652,9550817,0.613538,-0.10736,-0.8220360000000001,72.87,-65.94,23.1
1653,9550915,0.665754,-0.150304,-0.841678,67.655,-72.135,9.5025
1654,9551013,0.798734,-0.351238,-0.838018,68.32,-64.365,13.6325
1655,9551111,0.9947881,-0.55388,-0.769942,64.505,-54.04,26.7225
1656,9551209,1.102026,-0.56303,-0.7610359999999999,40.285,-39.8825,23.8525
1657,9551307,1.1131280000000001,-0.529724,-0.780556,24.045,-34.2825,14.8225
1658,9551405,1.042978,-0.562664,-0.7721380999999999,18.1125,-29.295,0.6825
1659,9551503,0.949526,-0.5191100000000001,-0.7227279999999999,10.5175,-19.53,-15.12
1660,9551600,0.8959681,-0.36051,-0.68015,-0.7525,-14.7525,-24.71
1661,9551698,0.8371639999999999,-0.179096,-0.622688,-9.765,-17.885,-28.9275
1662,9551796,0.744688,-0.031110000000000002,-0.568276,-13.5975,-20.4225,-33.11
1663,9551894,0.66978,0.061610000000000005,-0.49824799999999997,-12.11,-16.24,-37.6075
1664,9551992,0.609634,0.119804,-0.42151000000000005,-9.3625,-8.0325,-41.0025
1665,9552090,0.562664,0.140178,-0.356362,-6.02,-2.415,-42.28
1666,9552188,0.544974,0.135054,-0.33366999999999997,-2.1875,-1.085,-40.32
1667,9552286,0.516914,0.118096,-0.332084,0.42,-2.2925,-37.31
1668,9552384,0.47177399999999997,0.08869401,-0.328912,2.0475,-5.0925,-35.14
1669,9552482,0.41577600000000003,0.05160601,-0.313296,4.935,-6.6325,-34.23
1670,9552580,0.372344,-0.001342,-0.296582,8.54,-6.44,-33.88
