,T,ax,ay,az,gx,gy,gz
0,166493,0.528992,0.11102000000000001,-0.677344,17.535,-18.4625,-17.57
1,166644,0.551928,0.116388,-0.754448,70.805,-97.02,-39.9525
2,166741,0.58804,0.124196,-0.805688,122.815,-146.895,-47.3725
3,166838,0.5887720000000001,0.125904,-0.802272,62.055,-108.0275,-34.2475
4,166935,0.589504,0.127856,-0.803492,3.43,-4.6725,-3.64
5,167032,0.5892601,0.12761199999999998,-0.803736,2.1,-2.0825,-2.94
6,167129,0.5897479999999999,0.1281,-0.8049561,2.065,-1.9775,-2.835
7,167226,0.5897479999999999,0.124196,-0.80276,2.0825,-1.7675,-2.87
8,167323,0.589992,0.12468399999999999,-0.802272,1.9425,-1.855,-2.9925
9,167420,0.593164,0.12688,-0.8042239999999999,1.925,-1.9775,-3.08
10,167517,0.592188,0.12566,-0.8066641,2.0125,-1.9775,-3.045
11,167614,0.5917,0.124196,-0.8025161,2.03,-2.1,-3.045
12,167711,0.5917,0.12444000000000001,-0.803248,1.96,-2.205,-3.0275
13,167808,0.591212,0.125904,-0.8054439999999999,2.0475,-2.31,-3.0275
14,167905,0.591212,0.127856,-0.8071520000000001,2.1175,-2.24,-3.01
15,168002,0.5934081,0.123464,-0.8052,2.1875,-2.3275,-2.94
16,168100,0.590236,0.126392,-0.805932,2.1175,-2.3975,-3.045
17,168197,0.591212,0.12712400000000001,-0.805688,2.0825,-2.2925,-2.975
18,168294,0.591212,0.125904,-0.805932,2.0125,-2.31,-2.9225
19,168391,0.59048,0.126636,-0.806176,2.0125,-2.3275,-2.9575
20,168488,0.5919439999999999,0.126148,-0.806176,2.0125,-2.3625,-3.0275
21,168585,0.5941401,0.12712400000000001,-0.8076399999999999,2.0475,-2.3625,-3.01
22,168682,0.590724,0.125904,-0.8049561,2.03,-2.3975,-2.9925
23,168779,0.5926760999999999,0.123708,-0.8020281,1.9425,-2.345,-2.9925
24,168876,0.590724,0.127368,-0.806176,2.0825,-2.31,-3.01
25,168973,0.590968,0.12688,-0.805932,2.065,-2.2925,-3.0625
26,169070,0.5926760999999999,0.12712400000000001,-0.80642,1.995,-2.3275,-3.0625
27,169167,0.5914560000000001,0.126636,-0.805688,1.96,-2.3275,-2.975
28,169264,0.590724,0.126392,-0.8049561,2.0475,-2.415,-2.9575
29,169361,0.590724,0.12468399999999999,-0.803736,2.065,-2.4675,-2.9575
30,169458,0.590724,0.126636,-0.8044680999999999,2.1,-2.485,-2.94
31,169555,0.590236,0.126636,-0.8071520000000001,2.0825,-2.5375,-2.94
32,169653,0.589992,0.125172,-0.8030041,1.9425,-2.485,-2.9225
33,169750,0.592188,0.123464,-0.8025161,1.9775,-2.3275,-2.8875
34,169847,0.589016,0.124928,-0.8054439999999999,1.9425,-2.1875,-2.9575
35,169944,0.589016,0.126636,-0.8044680999999999,1.995,-2.31,-2.975
36,170041,0.590236,0.125172,-0.803492,1.9775,-2.1875,-3.0275
37,170138,0.5917,0.124196,-0.8025161,1.9775,-2.2225,-3.01
38,170235,0.59048,0.124196,-0.80276,1.96,-2.1175,-2.94
39,170332,0.5892601,0.12468399999999999,-0.8030041,1.9075,-2.17,-3.01
40,170429,0.591212,0.12761199999999998,-0.8054439999999999,1.9075,-2.1175,-2.975
41,170526,0.5914560000000001,0.127368,-0.8052,2.03,-2.1175,-2.9225
42,170623,0.59292,0.123708,-0.8039801,2.1525,-2.1525,-2.94
43,170720,0.5919439999999999,0.123464,-0.802272,2.03,-2.135,-2.8875
44,170817,0.592432,0.122976,-0.8020281,2.1,-2.2225,-2.9225
45,170914,0.590968,0.124928,-0.8039801,2.0825,-2.135,-3.01
46,171011,0.5936520000000001,0.12566,-0.8025161,2.0475,-2.24,-2.9925
47,171108,0.589504,0.12322000000000001,-0.8030041,2.0125,-2.415,-2.9225
48,171206,0.5892601,0.124196,-0.8039801,2.0825,-2.4675,-2.975
49,171303,0.59048,0.125172,-0.805932,1.9775,-2.4675,-2.9925
50,171400,0.589992,0.126392,-0.805932,1.9425,-2.275,-3.045
51,171497,0.593896,0.126148,-0.802272,1.9425,-2.205,-2.975
52,171594,0.589504,0.12444000000000001,-0.803492,1.9775,-2.2225,-2.9925
53,171691,0.590236,0.124196,-0.802272,1.9775,-2.24,-3.045
54,171788,0.593896,0.125416,-0.801784,2.0125,-2.2575,-3.0275
55,171885,0.5946279999999999,0.126636,-0.802272,1.9425,-2.2925,-3.0275
56,171982,0.592432,0.12444000000000001,-0.8003201,1.995,-2.3625,-2.9225
57,172079,0.5934081,0.125416,-0.801784,1.9775,-2.3975,-2.9925
58,172176,0.590236,0.12688,-0.8054439999999999,2.03,-2.2925,-2.87
59,172273,0.590968,0.125904,-0.8039801,2.0825,-2.24,-2.9225
60,172370,0.590724,0.125416,-0.8044680999999999,2.135,-2.2575,-2.9925
61,172467,0.59048,0.12395199999999999,-0.8030041,2.0475,-2.2575,-2.94
62,172565,0.592432,0.12566,-0.80276,2.0825,-2.38,-2.9925
63,172662,0.592432,0.126392,-0.801784,2.0825,-2.24,-2.94
64,172759,0.592432,0.123464,-0.8025161,2.03,-2.24,-2.9225
65,172856,0.592188,0.12444000000000001,-0.8003201,2.1175,-2.3625,-2.9575
66,172953,0.593164,0.12566,-0.8015399999999999,2.0475,-2.205,-2.9575
67,173050,0.5919439999999999,0.12395199999999999,-0.8015399999999999,2.0475,-2.38,-3.0275
68,173147,0.5917,0.12444000000000001,-0.801296,2.065,-2.31,-3.0275
69,173244,0.590724,0.12444000000000001,-0.8039801,2.065,-2.275,-2.975
70,173341,0.590236,0.124196,-0.803492,2.065,-2.135,-2.975
71,173438,0.5926760999999999,0.124928,-0.8003201,2.1525,-2.1,-2.975
72,173535,0.592188,0.12444000000000001,-0.801296,2.17,-2.0825,-3.08
73,173632,0.5917,0.124196,-0.800808,2.065,-2.135,-3.045
74,173729,0.589992,0.12322000000000001,-0.800564,2.065,-2.17,-2.9925
75,173826,0.5926760999999999,0.125172,-0.801296,2.065,-2.24,-3.0275
76,173923,0.5926760999999999,0.12468399999999999,-0.7991,2.1175,-2.205,-2.9925
77,174021,0.5919439999999999,0.1281,-0.800564,2.065,-2.31,-2.975
78,174118,0.5934081,0.126148,-0.7993439999999999,2.0475,-2.4325,-2.975
79,174215,0.5936520000000001,0.12566,-0.8003201,2.03,-2.485,-2.9225
80,174312,0.589504,0.124928,-0.8025161,2.0125,-2.485,-2.9925
81,174409,0.591212,0.126148,-0.803492,2.0475,-2.5725,-2.9575
82,174506,0.589504,0.123464,-0.8010520000000001,2.03,-2.4675,-2.8875
83,174603,0.5897479999999999,0.12566,-0.8042239999999999,2.0475,-2.4325,-2.9225
84,174700,0.5919439999999999,0.12566,-0.8030041,2.03,-2.3625,-2.975
85,174797,0.5941401,0.124196,-0.8003201,2.1,-2.2575,-3.01
86,174894,0.5917,0.126148,-0.805932,2.135,-2.2925,-3.0275
87,174991,0.5941401,0.12248800000000001,-0.814472,2.135,-2.1525,-3.0625
88,175088,0.5934081,0.134932,-0.8147161,2.135,-1.5575,-3.325
89,175185,0.6156119999999999,0.12029200000000001,-0.821792,1.9075,-1.2425,-3.4125
90,175283,0.6158561,0.100772,-0.8298440999999999,0.07,-2.415,-4.235
91,175380,0.585112,0.118096,-0.777384,-1.1375,-4.4975,-4.7775
92,175477,0.596336,0.142008,-0.777872,-2.625,-3.6575,-5.1625
93,175574,0.606584,0.09735601,-0.8066641,-3.4125,-4.935,-5.425
94,175671,0.5987760999999999,0.143716,-0.809348,-4.095,-5.3375,-5.4075
95,175768,0.620004,0.118828,-0.7993439999999999,-5.3375,-4.515,-4.8825
96,175865,0.636352,0.10833599999999999,-0.794952,-7.4025,-5.7925,-5.4425
97,175962,0.640012,0.101504,-0.787144,-11.41,-8.6975,-7.28
98,176059,0.6378159999999999,0.10516400000000001,-0.801296,-12.775,-12.4775,-8.33
99,176156,0.619516,0.122976,-0.8003201,-13.4575,-17.2725,-8.7675
100,176253,0.601704,0.121512,-0.8071520000000001,-12.81,-20.7375,-8.9775
101,176350,0.577548,0.13908,-0.803248,-12.32,-22.785,-9.2925
102,176448,0.55266,0.166408,-0.8071520000000001,-11.6375,-23.17,-9.31
103,176545,0.5692520000000001,0.162504,-0.8230120999999999,-9.555,-21.9975,-8.6625
104,176642,0.565836,0.145912,-0.807396,-8.54,-21.0,-8.3825
105,176739,0.570472,0.163236,-0.8178880999999999,-8.1725,-20.965,-8.0675
106,176836,0.571692,0.149328,-0.817156,-8.1025,-20.5275,-8.2075
107,176933,0.5785241,0.14884,-0.819108,-8.2425,-20.685,-8.4
108,177030,0.596092,0.143228,-0.8235001000000001,-9.2925,-21.3675,-8.96
109,177127,0.545096,0.152256,-0.8076399999999999,-10.43,-23.275,-9.66
110,177224,0.54778,0.16811600000000002,-0.8252079999999999,-10.9375,-23.0475,-9.8
111,177321,0.548024,0.167628,-0.81618,-9.9225,-22.6275,-9.765
112,177418,0.536556,0.172264,-0.8178880999999999,-9.4675,-22.2075,-9.66
113,177515,0.515084,0.193492,-0.81252,-8.7675,-21.2975,-9.0475
114,177612,0.524112,0.19739600000000002,-0.81984,-7.0,-19.285,-8.2775
115,177709,0.5206960999999999,0.188124,-0.824232,-5.705,-17.43,-7.665
116,177807,0.529724,0.189588,-0.831308,-4.865,-15.925,-6.9125
117,177904,0.522404,0.190076,-0.8249639999999999,-3.5,-15.9425,-6.125
118,178001,0.5043479999999999,0.19983599999999999,-0.820572,-2.415,-15.2075,-4.9875
119,178098,0.49312399999999995,0.20252,-0.8193521,-0.63,-13.58,-3.99
120,178195,0.502152,0.2074,-0.822524,0.91,-11.4975,-2.94
121,178292,0.513376,0.205692,-0.8215481,2.8525,-9.6775,-1.785
122,178389,0.5119121,0.19885999999999998,-0.81984,4.6725,-8.575,-0.6125
123,178486,0.496784,0.19642,-0.807884,6.545,-7.665,0.63
124,178583,0.486048,0.199104,-0.8117880000000001,8.4875,-6.1425,1.925
125,178680,0.465796,0.200812,-0.803248,11.0425,-3.9025,3.6575
126,178777,0.454816,0.198372,-0.803248,13.5625,-0.665,5.1975
127,178874,0.42773199999999995,0.19861600000000001,-0.805932,16.73,3.57,6.895
128,178972,0.42944,0.211792,-0.8174001000000001,20.3175,9.17,8.9075
129,179069,0.44066400000000006,0.217404,-0.834968,23.8,15.7325,11.0425
130,179166,0.44896,0.21520799999999998,-0.8410681000000001,27.5275,22.4875,13.4225
131,179263,0.415288,0.21520799999999998,-0.841556,31.6575,29.4525,15.9775
132,179360,0.437004,0.199348,-0.8703481,35.525,38.64,18.8125
133,179457,0.5124001,0.19959200000000002,-0.9330560999999999,39.6725,48.7375,21.77
134,179554,0.5429,0.099552,-0.9955200000000001,42.175,58.1,23.31
135,179651,0.359168,-0.09418401,-1.142652,35.525,66.92,22.8025
136,179748,0.28621199999999997,-0.038308,-1.110932,12.9675,82.495,24.01
137,179845,0.48922,0.152988,-1.2221959999999998,-7.6125,106.855,32.375
138,179942,0.464088,0.349408,-1.256356,-14.1225,122.08,42.2275
139,180039,0.42431599999999997,0.4743361,-1.578924,-7.9275,129.6925,49.9625
140,180136,0.53192,0.552904,-1.7882759999999998,5.1975,121.66,49.8575
141,180234,0.219112,0.598288,-1.6692040000000001,10.5,99.2075,38.0975
142,180331,-0.066124,0.5795,-1.511824,11.48,81.655,19.32
143,180428,-0.20178800000000002,0.513864,-1.494256,9.8875,73.99,-0.2275
144,180525,-0.271816,0.42602399999999996,-1.547204,6.6675,65.31,-17.9375
145,180622,-0.35160399999999997,0.31158800000000003,-1.565748,2.94,50.61,-31.71
146,180719,-0.43358800000000003,0.166408,-1.551108,-1.7325,32.375,-40.0925
147,180816,-0.474092,0.038796,-1.531588,-7.525,14.2625,-42.5075
148,180913,-0.4743361,-0.048556,-1.533784,-12.635,-2.7125,-39.1825
149,181010,-0.450668,-0.09784401,-1.537932,-15.8025,-21.2625,-31.8325
150,181107,-0.44237200000000004,-0.11321600000000001,-1.493768,-16.7475,-40.845,-22.5575
151,181204,-0.415288,-0.08637601,-1.458632,-16.555,-58.555,-13.5975
152,181301,-0.34526,-0.038308,-1.448872,-15.995,-73.64,-6.8425
153,181399,-0.277672,0.033916,-1.42862,-14.3325,-88.44501,-2.94
154,181496,-0.23082399999999997,0.064416,-1.375916,-10.1675,-102.165,-0.945
155,181593,-0.195444,0.08442401,-1.29564,-6.4575,-112.8575,-0.5075
156,181690,-0.167384,0.10858,-1.213168,-3.7625,-119.49,-0.1225
157,181787,-0.13542,0.116388,-1.134356,-0.455,-121.205,1.47
158,181884,-0.10833599999999999,0.11248399999999999,-1.062864,3.2025,-117.565,4.445
159,181981,-0.067832,0.095648,-0.9918600000000001,4.9875,-108.6925,8.26
160,182078,0.030012,0.08662001,-0.9706319999999999,3.57,-94.5,11.62
161,182175,0.153232,0.121268,-0.99308,0.385,-77.4375,14.5075
162,182272,0.369172,0.110776,-1.075064,-4.1125,-60.2175,16.38
163,182369,0.534848,0.10931199999999999,-1.111176,-11.0775,-49.1925,16.2925
164,182466,0.6348881,0.10345599999999999,-1.098976,-19.9325,-45.885,13.2825
165,182563,0.6734399999999999,0.082228,-1.035292,-28.7175,-43.4175,8.5925
166,182661,0.7517640999999999,0.08564401,-0.9669721,-40.04,-38.1325,3.64
167,182758,0.886452,0.10833599999999999,-0.917684,-51.73,-31.15,-1.33
168,182855,1.035536,0.139812,-0.865956,-60.7075,-25.025,-6.895
169,182952,1.22244,0.1586,-0.792024,-66.57,-21.98,-13.8775
170,183049,1.460828,0.191296,-0.7044279999999999,-69.195,-23.2225,-22.2775
171,183146,1.7082439999999999,0.24912399999999998,-0.6070720000000001,-68.18,-30.1,-31.08
172,183243,2.018368,0.28426,-0.5738880000000001,-62.3175,-40.9675,-39.5325
173,183340,2.4734279999999997,0.335012,-0.527284,-50.8725,-60.165,-48.2475
174,183437,2.626904,0.419436,-0.35868,-35.3675,-99.2075,-56.6125
175,183534,2.437316,0.35233600000000004,0.042944,-13.58,-146.405,-62.09
176,183631,2.1884360000000003,0.192272,0.57462,8.295,-176.5575,-64.05
177,183729,2.091568,0.050263999999999996,0.9850280999999999,17.6925,-176.3825,-62.2475
178,183826,2.1655,-0.01342,1.316136,13.7025,-152.3725,-57.05
179,183923,2.073756,0.004392,1.528904,2.275,-117.7225,-52.85
180,184020,2.222352,0.43944399999999995,1.933212,1.3125,-60.62,-46.97
181,184117,0.6724640000000001,0.02684,2.4805040000000003,65.765,57.19,-12.0575
182,184214,0.7041841,0.593164,-1.053104,91.945,145.985,9.8
183,184311,1.090436,0.838628,-2.8477240000000004,81.46251,148.225,-13.755
184,184408,-0.143716,-0.771528,-0.957456,91.9975,88.8825,-33.11
185,184505,-0.10638399999999999,-1.625772,-0.107848,64.2425,128.6775,-41.86
186,184602,1.5847799999999999,-1.444724,-1.513288,7.2275,203.0525,-13.615
187,184699,1.759728,-0.055388,-1.357372,-32.865,173.7925,12.6525
188,184797,1.501576,1.481568,-1.176324,-45.255,126.6475,6.1775
189,184894,1.169736,0.9225639999999999,-1.1751040000000001,12.075,92.48751,-3.3075
190,184991,0.8827921000000001,-0.604632,-0.969412,65.7475,67.55001,8.225
191,185088,0.9494040000000001,-0.1769,-0.9618481,38.78,53.6375,15.6975
192,185185,0.7944641,0.248392,-0.86864,16.065,32.13,8.015
193,185282,0.758108,0.134688,-0.9450120000000001,16.345,19.1625,3.8675
194,185379,0.595116,0.09784401,-0.850096,14.14,8.2075,3.045
195,185476,0.5160600000000001,0.081984,-0.8540000000000001,6.965,3.9025,-0.595
196,185573,0.603168,0.1159,-0.8862081,2.2575,5.9325,-5.285
197,185670,0.5614439999999999,0.19959200000000002,-0.8403360000000001,-0.665,3.745,-8.75
198,185767,0.571936,0.165432,-0.833016,-1.9775,3.885,-9.6075
199,185865,0.566812,0.183488,-0.8481440999999998,-3.745,4.725,-10.36
200,185962,0.555588,0.24326799999999998,-0.8388721,-5.285,6.615,-10.8675
201,186059,0.571936,0.14005599999999999,-0.754204,1.575,9.8875,-10.29
202,186156,0.5980439999999999,0.183976,-0.8400921,-2.415,12.985,-9.7825
203,186253,0.560956,0.175924,-0.8044680999999999,-4.9,16.2225,-10.815
204,186350,0.5463161,0.19251600000000002,-0.8261841000000001,-6.23,19.6525,-11.2875
205,186447,0.551928,0.162748,-0.8298440999999999,-7.7,24.99,-11.0425
206,186544,0.557052,0.172752,-0.841556,-11.55,30.905,-11.6025
207,186641,0.568764,0.196664,-0.8310639999999999,-14.6825,36.47,-12.5125
208,186738,0.5631520000000001,0.211548,-0.8203280000000001,-15.715,41.9125,-13.0375
209,186835,0.577304,0.24156,-0.8142281,-15.0675,47.04,-12.32
210,186933,0.5743761,0.256688,-0.8095920999999999,-13.16,51.5725,-10.4125
211,187030,0.574864,0.29646,-0.808372,-9.9925,55.1075,-6.8425
212,187127,0.579256,0.29792399999999997,-0.800076,-3.4825,57.96,-0.7175
213,187224,0.57584,0.328912,-0.7829961,2.4675,59.99,7.315
214,187321,0.602436,0.357704,-0.7793359999999999,10.64,61.6875,17.22
215,187418,0.6319600000000001,0.278648,-0.7539600000000001,22.2075,63.77,26.8275
216,187515,0.66856,0.226188,-0.7168720000000001,25.6025,65.03,33.495
217,187612,0.683932,0.24131599999999997,-0.710284,22.9075,64.96,38.9375
218,187709,0.6785640000000001,0.24082800000000001,-0.750788,21.8925,65.45,44.38
219,187806,0.70028,0.192272,-0.7239479999999999,24.185,65.38,48.5625
220,187903,0.7171161,0.15396400000000002,-0.701012,23.59,65.50251,50.75
221,188001,0.71004,0.10492,-0.706624,22.855,66.7625,52.1325
222,188098,0.6810039999999999,0.135664,-0.708088,20.335,68.65250999999999,52.4125
223,188195,0.687104,0.12175599999999999,-0.6958880000000001,18.865,70.63,52.7625
224,188292,0.67832,0.134688,-0.7315119999999999,15.3825,72.9225,53.095
225,188389,0.667096,0.069784,-0.685884,15.75,75.985,53.2
226,188486,0.665876,0.01464,-0.680028,13.8775,79.8175,50.5575
227,188583,0.648796,-0.0034159999999999998,-0.706624,13.51,84.91,45.3075
228,188680,0.6634359999999999,-0.01098,-0.7381001,13.475,92.435,38.9025
229,188777,0.659532,0.01952,-0.75762,16.275,104.405,31.99
230,188874,0.668316,0.028304000000000003,-0.765184,19.145,120.0325,25.9175
231,188971,0.6844201,-0.018788,-0.7227279999999999,22.54,138.0575,21.0175
232,189069,0.64782,-0.006832001,-0.731268,25.2175,159.4425,15.3125
233,189166,0.635376,-0.069052,-0.706136,28.1925,182.735,9.5025
234,189263,0.7227279999999999,-0.043432,-0.8547319999999999,26.4775,197.54,3.6225
235,189360,0.5414359999999999,-0.061732,-0.9869800999999999,25.445,185.7975,1.26
236,189457,0.8876719999999999,0.005856,-0.9291520000000001,19.39,205.9575,-1.925
237,189554,0.81252,0.016347999999999998,-0.610244,19.4425,239.54,-1.54
238,189651,0.638304,0.016836,-0.8744960999999999,17.0975,272.055,-6.51
239,189748,0.922076,-0.004148001,-0.76982,13.72,319.06,-13.93
240,189845,1.423984,-0.071004,-0.400892,0.63,374.7975,-21.6125
241,189942,1.2841719999999999,0.087108,-1.170224,-37.135,439.705,-37.0475
242,190039,1.493768,0.31524800000000003,-0.7407841,-32.4625,473.27,-36.82
243,190137,1.654564,0.235948,-1.174128,-22.7325,492.17,-36.7325
244,190234,1.790228,-0.24497600000000003,-0.9840521000000001,-14.21,490.385,-32.97
245,190331,2.815516,0.081984,-1.129232,-35.3675,473.375,-33.5475
246,190428,2.59616,-0.237168,-3.891312,-80.7975,513.485,-48.6325
247,190525,2.191364,0.239608,-2.954596,-71.05,563.8675,-16.73
248,190622,1.54574,0.09272000000000001,-2.136952,-43.785,429.345,-12.18
249,190719,1.662616,-0.386252,-1.350296,-30.66,297.36,30.5375
250,190816,4.582808,0.09930800000000001,-4.746288,-53.165,195.3525,51.975
251,190913,2.001288,0.126392,-2.816736,-99.1375,-53.0425,68.075
252,191010,0.9669721,0.319396,-2.15452,-116.13,-184.695,69.8425
253,191107,0.566812,0.35526399999999997,-1.6445599999999998,-117.5825,-239.1025,55.055
254,191205,0.32696,0.41894799999999993,-1.322724,-109.06,-251.5975,44.17
255,191302,0.335988,0.401868,-1.180228,-90.615,-256.13,37.1
256,191399,0.5546121,0.325008,-1.161684,-69.72,-266.945,31.9725
257,191496,0.7373681,0.24278000000000002,-1.14924,-54.775,-292.565,25.48
258,191593,0.7856801,0.16201600000000002,-1.074576,-46.76,-328.475,16.695
259,191690,0.732244,0.080276,-0.9357401,-45.9375,-365.1025,5.635
260,191787,0.6414761,0.025376,-0.772992,-50.05,-394.2925,-6.545
261,191884,0.5607121,0.009272001,-0.644404,-55.6675,-409.2375,-17.4125
262,191981,0.526308,0.019275999999999998,-0.568276,-60.48,-410.095,-26.3725
263,192078,0.5665680000000001,0.055388,-0.576084,-62.055,-401.5725,-32.6725
264,192175,0.646844,0.137128,-0.6348881,-57.6275,-391.1075,-36.0675
265,192273,0.7661600000000001,0.20105599999999998,-0.727364,-46.4625,-383.6875,-36.7325
266,192370,0.877668,0.211548,-0.8235001000000001,-30.1175,-380.4325,-35.3675
267,192467,0.968192,0.163968,-0.9006040999999999,-15.5575,-379.4875,-33.985
268,192564,1.101172,0.07832401,-0.9711200999999999,-8.68,-378.98,-34.3175
269,192661,1.241228,-0.029768,-1.035536,-13.86,-379.9075,-36.2075
270,192758,1.40178,-0.07198,-1.106296,-31.325,-382.795,-39.62
271,192855,1.566236,-0.042944,-1.122644,-56.2275,-386.6625,-41.7025
272,192952,1.7341080000000002,-0.008296000999999999,-1.1070280000000001,-81.4275,-388.64,-43.2425
273,193049,1.914912,0.030256,-1.0760399999999999,-105.9975,-385.525,-46.97
274,193146,2.118652,0.116632,-1.042368,-130.97,-377.4925,-54.53
275,193243,2.34118,0.046848,-0.9484280999999999,-148.3825,-364.665,-69.51
276,193340,2.709132,-0.09882,-0.913536,-159.32,-346.29,-97.09000999999999
277,193438,3.1585799999999997,-0.133468,-0.8679081,-174.37,-331.8525,-125.2125
278,193535,3.493836,-0.07173600000000001,-0.7015,-181.23,-322.2625,-148.68
279,193632,3.688304,0.169336,-0.376492,-168.3325,-315.3325,-169.155
280,193729,3.583872,0.504104,0.132736,-118.1425,-306.285,-183.155
281,193826,3.347436,0.499712,0.775676,-21.945,-281.75,-186.27
282,193923,4.138972,0.313784,1.5982,85.505,-242.445,-174.0725
283,194020,4.304404,-0.216916,2.614948,141.645,-228.795,-116.4975
284,194117,3.721488,-0.868396,3.201768,128.345,-200.0425,-43.4525
285,194214,3.07196,-0.665632,3.094164,42.1225,-124.3375,-10.36
286,194311,2.604212,-0.06832001,2.49978,-39.6375,-21.2625,-25.97
287,194408,2.05692,1.477908,1.42496,-31.325,89.705,-67.235
288,194506,-0.30402399999999996,-0.122976,-0.34892,105.1925,226.3625,-65.9925
289,194603,1.045784,1.210728,-3.313276,66.2375,247.1,-91.3325
290,194700,-0.07856801,-1.00528,-0.5172800999999999,106.0325,218.82,-83.51001
291,194797,0.34038,-1.72508,-0.043432,120.05,286.0025,-59.6225
292,194894,2.42048,-1.3329719999999998,-1.6143040000000002,27.545,348.6175,-47.425
293,194991,2.255048,-1.028216,-1.411052,-4.725,306.1625,-25.725
294,195088,1.7990119999999998,-0.047824,-1.5196319999999999,-42.175,255.1675,-8.7325
295,195185,2.523448,1.60796,-1.9468759999999998,-38.2725,221.2,6.825
296,195282,1.754604,0.8549761,-1.1131280000000001,44.8525,143.8675,2.625
297,195379,1.290516,-0.447984,-1.282952,82.0575,100.1,16.52
298,195476,0.9150001,-0.039528,-0.9284200999999999,46.34,66.255,25.0775
299,195573,0.7771399999999999,0.32696,-0.9054840000000001,23.2925,42.7,13.2125
300,195671,0.758596,0.47653199999999996,-0.9557479999999999,20.23,25.06,13.3875
301,195768,0.595116,0.31476,-0.8620521000000001,30.8875,12.2675,20.195
302,195865,0.742004,0.09125599999999999,-0.844972,34.265,11.445,24.185
303,195962,0.6329359999999999,0.09784401,-0.8410681000000001,28.735,6.825,21.7
304,196059,0.581208,0.07686,-0.8857200999999999,23.9575,6.615,16.765
305,196156,0.604144,0.160552,-0.853756,17.465,10.5175,12.1275
306,196253,0.598532,0.15396400000000002,-0.835456,14.4375,12.95,9.31
307,196350,0.582428,0.09442801,-0.8488761,13.3,14.3675,8.085
308,196447,0.595604,0.10760399999999999,-0.8317960999999999,9.03,17.43,5.285
309,196544,0.5873079999999999,0.08759601,-0.8244761,5.1975,19.53,2.065
310,196641,0.564616,0.099552,-0.828624,1.75,21.4375,-0.5775
311,196738,0.562176,0.14566800000000002,-0.8215481,-1.155,24.255,-2.45
312,196835,0.554124,0.178852,-0.8210601000000001,-1.68,27.4225,-2.3625
313,196932,0.5653481,0.202032,-0.808372,1.575,30.17,0.105
314,197030,0.5612,0.20691199999999998,-0.8103239999999999,7.07,31.7975,4.515
315,197127,0.571936,0.19642,-0.805688,11.165,33.1975,9.6075
316,197224,0.593896,0.16811600000000002,-0.791292,12.1975,35.28,14.3325
317,197321,0.598532,0.17446,-0.781532,10.78,38.255,19.005
318,197418,0.595116,0.21057199999999998,-0.788852,9.415,41.2475,23.9575
319,197515,0.639524,0.20374,-0.757376,12.9325,43.505,27.8075
320,197612,0.6466,0.202032,-0.7332201,15.7325,45.8675,32.8125
321,197709,0.6661201,0.193248,-0.753472,13.895,46.7075,37.0475
322,197806,0.6527,0.141276,-0.750788,14.14,47.2675,40.8275
323,197903,0.6563601,0.10223600000000001,-0.7500560000000001,10.7975,47.25,42.91
324,198000,0.6646561,0.07710399999999999,-0.7317560000000001,8.8025,48.02,45.08
325,198097,0.647576,0.076616,-0.7378560000000001,3.3425,50.2425,47.0575
326,198194,0.618052,0.04514,-0.750788,-0.3325,53.025,47.6175
327,198291,0.612928,0.029036000000000003,-0.792512,-2.3975,57.5575,46.9
328,198389,0.56608,0.007564001,-0.8239880999999999,-2.8875,65.3275,44.5375
329,198486,0.589504,-0.023668,-0.8308200000000001,-1.05,76.72,39.06
330,198583,0.587796,-0.026595999999999998,-0.863028,1.155,91.98001,31.3075
331,198680,0.596336,-0.0122,-0.8520479999999999,5.6175,109.935,22.925
332,198777,0.61854,-0.057584,-0.819108,10.395,129.045,15.925
333,198874,0.6178081,-0.057096,-0.818376,14.665,147.35,9.7125
334,198971,0.608536,-0.067344,-0.8039801,18.34,166.7575,4.2875
335,199068,0.576084,-0.10540799999999999,-0.765428,22.8375,188.8775,-0.2625
336,199165,0.557296,-0.05563200000000001,-0.786412,26.3025,216.3,-6.3175
337,199262,0.7032079999999999,0.058316,-0.9272,28.7175,250.6175,-9.5025
338,199359,0.5353359999999999,0.160064,-0.9857600000000001,29.4875,252.035,-5.1275
339,199456,0.924516,0.256444,-0.789828,22.9425,259.8225,7.42
340,199554,0.42431599999999997,0.250832,-1.026996,19.3375,323.855,22.75
341,199651,1.132892,0.29768,-1.071648,10.8675,378.6825,37.7475
342,199748,0.904752,0.157868,-1.11752,6.8775,455.4375,45.815
343,199845,1.9337,0.223504,-1.1326479999999999,-12.775,499.8525,47.075
344,199942,1.687016,0.031476,-0.9415959999999999,-15.645,533.645,45.36
345,200039,2.566636,-0.279624,-0.6319600000000001,-26.7925,549.2025,24.6575
346,200136,2.083516,0.299144,-1.466928,-72.1875,571.025,15.995
347,200233,2.825764,0.508984,-1.56282,-61.845,573.405,33.8975
348,200330,3.07928,0.31451599999999996,-2.544432,-19.8975,559.93,56.5425
349,200427,2.04716,0.42187600000000003,-2.00568,-40.11,440.16,69.65
350,200524,0.251076,0.467504,-2.415356,-30.24,355.5125,91.7525
351,200621,5.13132,0.605608,-4.81046,25.4275,224.4725,104.6675
352,200719,2.600064,0.6390359999999999,-3.264232,-4.4975,6.5625,60.655
353,200816,0.7625,0.658312,-2.38876,-7.14,-198.205,42.875
354,200913,0.280844,0.52704,-1.630164,5.845,-253.6625,7.6825
355,201010,0.134688,0.388448,-1.2622120000000001,17.01,-259.4025,-14.0175
356,201107,0.149084,0.21667199999999998,-1.06994,20.7375,-252.8925,-25.27
357,201204,0.45457200000000003,0.07856801,-1.080676,12.6875,-255.29,-30.9575
358,201301,0.704916,0.005856,-1.123376,-6.44,-278.635,-36.2075
359,201398,0.7854361,-0.0061,-1.0979999999999999,-28.5425,-316.61,-42.21
360,201495,0.715896,0.019032,-1.0004,-45.885,-355.985,-47.74
361,201592,0.6810039999999999,0.039284,-0.9052401,-55.09,-384.2475,-52.4125
362,201689,0.667096,0.058316,-0.813008,-57.7675,-400.68,-56.0
363,201787,0.659532,0.091744,-0.74054,-53.935,-409.08,-59.185
364,201884,0.69418,0.10687200000000001,-0.726876,-43.82,-410.5675,-60.48
365,201981,0.7766521,0.09979600000000001,-0.73688,-30.345,-407.085,-58.66
366,202078,0.8042239999999999,0.10638399999999999,-0.748104,-17.1675,-404.5825,-54.25
367,202175,0.8647360000000001,0.069784,-0.785192,-5.7925,-401.2225,-48.02
368,202272,0.9486720999999999,0.025376,-0.8459479999999999,0.525,-396.8125,-42.735
369,202369,1.051884,-0.002928,-0.946232,-0.2975,-392.0175,-39.8125
370,202466,1.2075559999999999,-0.032208,-1.077016,-6.405,-387.4325,-39.0075
371,202563,1.3607879999999999,-0.09516001,-1.197064,-16.59,-384.9475,-39.4625
372,202660,1.4483840000000001,-0.172508,-1.254892,-32.655,-383.39,-40.565
373,202757,1.57746,-0.182024,-1.307596,-55.2825,-378.2975,-40.25
374,202854,1.838296,-0.045384,-1.3542,-81.18251,-368.0075,-35.3325
375,202952,2.046916,-0.023424,-1.241228,-99.33001,-354.6725,-27.2475
376,203049,2.190144,-0.30109600000000003,-1.050664,-111.195,-333.8825,-30.485
377,203146,2.662528,-0.44847200000000004,-0.9501360999999999,-138.67,-302.155,-53.4975
378,203243,3.3715919999999997,-0.509472,-0.936716,-180.635,-274.1025,-83.9125
379,203340,4.09676,-0.081496,-0.849852,-222.2675,-266.21,-121.625
380,203437,4.240232,0.6724640000000001,-0.508008,-221.585,-284.8475,-152.985
381,203534,4.108716,0.9845401,0.29987600000000003,-135.0825,-305.2175,-174.8775
382,203631,5.162308,0.9147559999999999,1.7450880000000002,10.185,-311.535,-177.8875
383,203728,5.221356,-0.083204,3.499204,131.635,-341.1275,-127.9775
384,203825,3.817136,-0.9955200000000001,4.305624,164.605,-316.8725,-68.25
385,203922,2.343864,-0.9203680000000001,4.307576,89.79251,-193.5325,-35.35
386,204019,1.8583040000000002,-0.4553041,3.382328,-0.7175,-14.84,-39.3575
387,204117,2.508808,0.321836,1.61162,-49.0175,143.395,-63.07
388,204214,2.022272,1.329312,-0.903532,-9.9225,222.6525,-89.3725
389,204311,0.585356,0.6224441,-2.196488,96.35501,230.405,-83.1425
390,204408,-0.50264,0.6663640000000001,-1.558916,85.71500999999999,176.05,-104.475
391,204505,-0.12444000000000001,-2.002996,0.136152,134.9775,218.3475,-75.2325
392,204602,1.336876,-1.8243880000000001,-0.8693719999999999,78.7325,324.17,-65.7125
393,204699,2.45952,-1.619672,-1.532808,3.185,337.505,-41.755
394,204796,2.3302,-0.5917,-1.480104,-47.565,291.445,-14.0
395,204893,2.873344,2.157448,-2.1535439999999997,-65.835,233.275,-0.1925
396,204990,1.810236,1.294908,-1.1148360000000002,38.4125,150.64,3.8325
397,205087,1.280512,-0.5355800999999999,-1.409832,100.31,97.335,33.6875
398,205185,0.8378960999999999,-0.129076,-0.8466800999999999,65.975,64.0325,45.15
399,205282,0.849608,0.18104800000000001,-0.8730319999999999,33.7925,41.0725,28.4725
400,205379,0.766892,0.327448,-0.9440360999999999,32.0075,19.355,21.98
401,205476,0.712724,0.43236800000000003,-0.877912,32.5675,9.765,26.5475
402,205573,0.707356,-0.006587999999999999,-0.8371639999999999,42.42,7.875,28.98
403,205670,0.645868,0.118584,-0.83814,32.935,5.565,23.765
404,205767,0.5926760999999999,0.159576,-0.8827921000000001,25.0425,6.8075,17.7975
405,205864,0.5919439999999999,0.029768,-0.844972,23.87,10.6925,14.7875
406,205961,0.6107319999999999,0.21057199999999998,-0.8666879999999999,15.4175,14.595,10.3075
407,206058,0.589016,0.098332,-0.8437520000000001,15.5225,16.7125,9.0475
408,206155,0.599264,0.100284,-0.82594,13.125,19.32,7.5425
409,206253,0.597312,0.095648,-0.818132,9.6075,21.56,4.9
410,206350,0.5751081,0.10492,-0.820572,6.02,24.01,3.395
411,206447,0.571204,0.128588,-0.826428,4.1125,27.7025,2.695
412,206544,0.570716,0.13761600000000002,-0.823744,2.6075,31.255,2.7125
413,206641,0.5516840000000001,0.13639600000000002,-0.8230120999999999,1.575,34.965,3.57
414,206738,0.56242,0.15982000000000002,-0.8178880999999999,0.3675,39.025,5.95
415,206835,0.572912,0.164944,-0.8215481,-0.8575,43.4,9.7125
416,206932,0.5948720000000001,0.16958,-0.8054439999999999,-2.625,47.74,14.105
417,207029,0.5975560000000001,0.192028,-0.803736,-3.29,52.7975,18.06
418,207126,0.618784,0.125904,-0.75762,0.49,56.98,20.4575
419,207223,0.6634359999999999,0.15494000000000002,-0.7190681,0.4725,58.345,23.4325
420,207321,0.6646561,0.167628,-0.724924,5.0225,58.205,26.775
421,207418,0.6512359999999999,0.156404,-0.7229720000000001,8.715,57.365,29.8725
422,207515,0.655628,0.142252,-0.72224,10.535,56.8575,32.55
423,207612,0.696376,0.135908,-0.7166279999999999,9.4325,57.225,35.595
424,207709,0.671244,0.09735601,-0.70516,6.685,56.7,37.5025
425,207806,0.6734399999999999,0.08784,-0.735416,2.905,57.4175,38.3775
426,207903,0.6512359999999999,0.08442401,-0.727364,0.0,60.4625,39.305
427,208000,0.638548,0.05929201,-0.764208,-1.2075,65.2575,40.3025
428,208097,0.642696,0.034648000000000005,-0.7707961,0.0175,72.2575,39.3925
429,208194,0.61732,0.015616,-0.79422,0.63,81.935,35.805
430,208292,0.610488,0.010736,-0.8142281,3.3425,95.62,30.4675
431,208389,0.624152,-0.004148001,-0.8271601000000001,6.7375,112.0525,24.6925
432,208486,0.616344,-0.020252000000000003,-0.806176,12.075,130.4625,18.9875
433,208583,0.6168319999999999,-0.039284,-0.815204,15.82,150.85,14.105
434,208680,0.5946279999999999,-0.090036,-0.770308,20.51,173.04,9.31
435,208777,0.58194,-0.139812,-0.7476161,25.095,200.13,2.9225
436,208874,0.523624,-0.057584,-0.76982,28.8225,232.155,-4.4275
437,208971,1.312964,0.07173600000000001,-1.342244,31.255,262.8675,-7.91
438,209068,0.479704,0.15396400000000002,-1.330288,26.915,242.025,-1.3475
439,209165,0.523624,0.122244,-1.3949479999999999,22.47,285.775,11.655
440,209262,0.874984,0.154452,-1.0821399999999999,21.9975,344.4525,23.1525
441,209360,0.948184,0.311832,-1.2524520000000001,2.0825,418.88,29.2425
442,209457,1.719712,0.173484,-1.2038959999999999,-7.8225,485.1,36.89
443,209554,1.684088,0.309392,-0.877424,-25.3225,532.84,40.4075
444,209651,1.9459,-0.128588,-1.374696,-17.185,559.825,37.8525
445,209748,2.3431319999999998,-0.21057199999999998,-1.40422,-54.88,565.845,22.05
446,209845,2.339228,0.43944399999999995,-1.7504560000000002,-100.8,573.405,17.7625
447,209942,2.714012,0.471896,-2.34484,-87.53501,573.405,27.5625
448,210039,2.8416240000000004,0.42065600000000003,-2.206004,-89.565,515.6375,43.6975
449,210136,1.417884,0.229848,-2.079612,-108.6925,412.7025,60.655
450,210233,2.704984,0.42138809999999993,-2.091324,-60.235,267.9775,107.03
451,210330,4.699928,0.957944,-4.672844,-55.4225,106.785,64.435
452,210427,1.505968,0.8274040000000001,-2.799412,-45.7275,-199.745,49.105
453,210525,0.5214281,0.687348,-1.9276,-11.2875,-295.1725,20.2475
454,210622,0.221552,0.484828,-1.37494,19.53,-317.5025,-6.545
455,210719,0.014884,0.27084,-0.9982040000000001,36.4175,-309.3475,-21.7525
456,210816,0.212524,0.023912,-0.9147559999999999,36.33,-297.9025,-30.3275
457,210913,0.5653481,-0.09418401,-0.9684360999999999,13.055,-302.9425,-38.5
458,211010,0.786412,-0.10248,-1.018944,-21.0875,-328.545,-47.7925
459,211107,0.8274040000000001,-0.058072000000000006,-1.0016200000000002,-50.5225,-364.7875,-56.0875
460,211204,0.823256,0.011956,-0.9337880999999999,-69.0025,-398.055,-61.9325
461,211301,0.7478600000000001,0.07027201,-0.822524,-74.5325,-422.38,-64.8725
462,211398,0.6749041,0.108824,-0.71126,-69.3875,-433.475,-65.17
463,211495,0.654408,0.14152,-0.653676,-56.91,-431.7075,-63.315
464,211592,0.669048,0.19178399999999998,-0.648552,-38.08,-421.295,-58.905
465,211690,0.756644,0.163724,-0.6844201,-15.0325,-408.6425,-51.9575
466,211787,0.8476561,0.08881599,-0.742492,3.745,-397.7575,-44.2925
467,211884,0.955016,0.010004,-0.8252079999999999,10.4825,-389.3575,-39.2175
468,211981,1.0882399999999999,-0.039284,-0.94306,5.285,-382.6725,-37.835
469,212078,1.268312,-0.07417601,-1.086776,-7.735,-378.6825,-39.585
470,212175,1.408612,-0.101748,-1.190964,-24.2375,-378.5775,-42.98
471,212272,1.515728,-0.124928,-1.249768,-42.5425,-379.1725,-44.905
472,212369,1.747528,-0.10906800000000001,-1.3329719999999998,-61.25,-375.7075,-42.7525
473,212466,2.101084,-0.029036000000000003,-1.4112959999999999,-78.9775,-371.0175,-36.155
474,212563,2.3912,-0.12688,-1.323212,-92.7325,-369.74,-28.28
475,212660,2.617876,-0.388692,-1.1733959999999999,-110.5125,-367.045,-35.7525
476,212757,2.916288,-0.484584,-0.958432,-146.6675,-358.855,-61.355
477,212855,3.1985959999999998,-0.442616,-0.729316,-189.7,-344.5225,-91.8925
478,212952,3.6331599999999997,0.007076001,-0.528748,-224.7875,-324.3975,-125.9475
479,213049,3.863496,0.708332,-0.155428,-216.5275,-307.755,-153.2825
480,213146,4.251944,0.9403761,0.576084,-129.71,-289.03,-173.1625
481,213243,5.477312,0.916952,2.013976,1.5575,-283.57,-167.72
482,213340,5.012980000000001,-0.172752,3.6368199999999997,109.8125,-309.9425,-111.965
483,213437,3.367932,-1.06018,4.3610120000000006,124.1625,-266.91,-55.7375
484,213534,2.2530959999999998,-0.7625,4.015264,40.8625,-120.05,-38.9725
485,213631,2.4563479999999998,-0.116632,2.66082,-30.905,59.815,-58.205
486,213728,2.50466,0.993812,0.84546,-44.66,178.36,-90.79
487,213825,1.6862840000000001,1.1746159999999999,-1.154608,52.1325,222.8275,-119.56
488,213922,0.18544000000000002,0.42163199999999995,-2.1347560000000003,149.8525,227.605,-117.7575
489,214020,-0.651968,-0.030256,-0.9696561,140.2975,213.1325,-135.1175
490,214117,0.534604,-2.631784,0.022203999999999998,178.5875,271.95,-102.7425
491,214214,1.8285360000000002,-2.2323560000000002,-1.250744,84.63,342.8775,-93.3625
492,214311,2.4729400000000004,-2.050088,-1.4295959999999999,8.89,333.9,-54.285
493,214408,2.164524,-0.6917399999999999,-1.338096,-51.1875,285.565,-6.755
494,214505,2.706204,2.5034400000000003,-2.09596,-69.37,233.7475,15.8375
495,214602,1.8461040000000002,1.467416,-1.15046,45.2375,159.4775,6.755
496,214699,1.599664,-0.790072,-1.3825040000000002,119.91,113.8375,33.9675
497,214796,0.801784,-0.29426399999999997,-0.8967,60.7425,59.395,43.4175
498,214893,0.94916,0.263276,-0.898652,22.225,30.45,20.93
499,214990,0.7639640999999999,0.38064000000000003,-0.8447280999999999,23.8525,13.8775,14.0
500,215087,0.7224841,0.24107199999999998,-0.8620521000000001,26.425,5.8975,18.795
501,215184,0.700036,0.033428,-0.8256960999999999,29.2425,6.44,17.7625
502,215282,0.660752,0.14469200000000002,-0.8466800999999999,18.4975,3.6575,12.6525
503,215379,0.5690081,0.09906401,-0.8759601,14.42,5.005,7.8925
504,215476,0.6095119999999999,0.211304,-0.8522921,11.0075,8.6625,5.3725
505,215573,0.57462,0.202276,-0.8422879999999999,9.4675,10.99,5.705
506,215670,0.584136,0.127856,-0.8376520000000001,13.3,13.755,8.3475
507,215767,0.5838920999999999,0.133956,-0.826916,11.4625,16.2925,8.0675
508,215864,0.569984,0.155916,-0.833016,12.1275,19.0225,7.6825
509,215961,0.5785241,0.16128399999999998,-0.820816,13.1425,21.7,8.1725
510,216058,0.564616,0.178852,-0.81984,14.35,24.535,9.205
511,216155,0.5604680000000001,0.213988,-0.8193521,17.0275,26.7225,11.8125
512,216252,0.552416,0.198128,-0.8256960999999999,20.405,29.855,16.1175
513,216349,0.57462,0.180804,-0.820572,20.965,33.6,20.685
514,216447,0.589992,0.171044,-0.8166680000000001,18.375,37.0825,25.4275
515,216544,0.603168,0.13639600000000002,-0.794952,14.595,40.6875,30.5725
516,216641,0.6007279999999999,0.183,-0.8117880000000001,10.955,44.5725,34.405
517,216738,0.6661201,0.089792,-0.7442,14.0175,47.1275,36.7675
518,216835,0.659532,0.149084,-0.740296,9.7825,48.44,40.635
519,216932,0.651968,0.122732,-0.754204,9.3975,48.6325,43.2075
520,217029,0.646844,0.061488,-0.7229720000000001,7.875,47.7925,44.73
521,217126,0.644404,0.07490801,-0.73932,4.13,47.81,45.4125
522,217223,0.657092,0.044652,-0.7317560000000001,1.4,47.46,46.2175
523,217320,0.654652,0.020496,-0.721264,-2.695,48.2125,46.6725
524,217417,0.64294,0.039284,-0.74908,-7.105,50.7675,47.4075
525,217515,0.6307401,0.050263999999999996,-0.7600600000000001,-8.33,55.7025,47.005
526,217612,0.61488,-0.002928,-0.796904,-8.05,63.0,46.1825
527,217709,0.6036560999999999,-0.008296000999999999,-0.8247200000000001,-5.775,72.3625,43.2775
528,217806,0.6068279999999999,-0.0305,-0.831308,-3.71,84.595,38.6925
529,217903,0.612196,-0.038064,-0.8491200000000001,-1.33,99.7675,33.2325
530,218000,0.6009720000000001,-0.031964,-0.850584,3.325,116.6725,26.25
531,218097,0.5846241,-0.08466801,-0.833992,8.7675,135.17,19.5125
532,218194,0.5997520000000001,-0.072712,-0.8298440999999999,12.5475,155.2775,13.1425
533,218291,0.577304,-0.14884,-0.780312,18.8125,176.6275,7.1575
534,218388,0.565836,-0.152988,-0.766892,22.6275,202.7375,0.455
535,218486,0.5489999999999999,-0.04514,-0.8054439999999999,27.7725,234.92,-4.795
536,218583,0.485804,0.049532,-0.861808,35.42,273.7,-5.46
537,218680,0.7232161,0.138836,-1.013576,38.325,291.9,-1.365
538,218777,1.037244,0.275964,-0.6502600000000001,31.99,281.505,13.615
539,218874,0.553636,0.244,-1.050908,29.3475,347.0075,32.235
540,218971,0.8976761000000001,0.339404,-1.116544,17.675,415.4325,46.27
541,219068,1.7275200000000002,0.343552,-1.05408,-1.0675,485.695,57.1375
542,219165,1.7092200000000002,0.288164,-0.762744,-11.795,536.7075,69.2825
543,219262,1.9886,-0.030744,-0.81618,-4.1825,562.6425,66.5
544,219359,2.068388,-0.10736,-1.392996,-44.66,571.375,44.5725
545,219456,2.561268,0.488,-1.818532,-99.5575,573.3875,36.1725
546,219554,2.9380040000000003,0.607804,-3.0163279999999997,-65.415,572.005,57.855
547,219651,2.482944,0.4636,-2.079124,-62.3175,484.26,86.94
548,219748,1.065792,0.494588,-1.9473639999999999,-70.56,402.64,106.4875
549,219845,3.178588,0.27279200000000003,-2.72792,-2.4675,254.1,143.5
550,219942,4.219736,0.797636,-4.348812000000001,-34.685,72.6075,76.265
551,220039,0.9901521000000001,0.8996280999999999,-2.595916,-55.2825,-219.31,51.73
552,220136,0.223992,0.863516,-1.7938880000000001,-34.4925,-283.325,13.7025
553,220233,0.050508,0.6566041,-1.343464,-6.7375,-289.2925,-16.59
554,220330,0.0976,0.42456000000000005,-1.082384,11.4625,-274.855,-36.225
555,220427,0.390888,0.195932,-1.048468,10.815,-270.48,-49.9975
556,220524,0.7515201,0.050263999999999996,-1.11142,-10.36,-288.5575,-63.245
557,220622,0.8662001,0.005368,-1.117032,-40.9675,-326.3925,-77.84
558,220719,0.8298440999999999,0.044896,-1.030412,-67.7425,-368.9875,-91.245
559,220816,0.7500560000000001,0.10540799999999999,-0.921344,-82.32,-400.1725,-100.345
560,220913,0.720288,0.148596,-0.830332,-82.8975,-416.57,-104.9825
561,221010,0.7407841,0.15738,-0.7747001,-73.325,-421.3125,-106.4175
562,221107,0.809348,0.167872,-0.758352,-58.3975,-420.735,-106.715
563,221204,0.8554641,0.186416,-0.7622561,-40.6,-419.3875,-105.245
564,221301,0.9147559999999999,0.16226,-0.787876,-21.0,-417.5325,-100.4675
565,221398,0.9650200999999999,0.101748,-0.820084,-4.935,-414.435,-93.5375
566,221495,1.025288,0.015616,-0.8727879999999999,3.1675,-409.185,-86.695
567,221593,1.1568040000000002,-0.082716,-0.96014,0.98,-401.94,-80.885
568,221690,1.3359,-0.17397200000000002,-1.073356,-11.8475,-395.64,-75.74
569,221787,1.5079200000000001,-0.229116,-1.158512,-32.7775,-392.455,-71.4175
570,221884,1.632116,-0.22862800000000003,-1.182668,-59.15,-391.1075,-65.24
571,221981,1.809504,-0.102724,-1.185108,-85.62751,-387.0125,-55.0725
572,222078,1.968592,0.016104,-1.1272799999999998,-103.705,-377.58,-41.58
573,222175,1.9951880000000002,-0.27718400000000004,-0.91012,-111.6325,-361.6025,-35.77
574,222272,2.189412,-0.409188,-0.7883640000000001,-129.4475,-334.11,-53.3925
575,222369,2.694004,-0.59902,-0.7598161,-160.44,-299.5125,-79.835
576,222467,3.3725680000000002,-0.620736,-0.715896,-198.3975,-268.695,-112.875
577,222564,3.927668,-0.169336,-0.595604,-234.3075,-255.15,-147.3675
578,222661,4.040396,0.6802720999999999,-0.3355,-226.52,-260.3475,-167.6325
579,222758,4.223396,1.13704,0.38186,-123.55,-265.825,-170.975
580,222855,4.805092,1.014308,1.844396,41.125,-274.785,-142.7125
581,222952,4.626728,-0.202276,3.234464,168.7525,-293.4575,-70.665
582,223049,3.476268,-1.211216,3.9496279999999997,173.0575,-255.045,-18.8825
583,223146,2.224792,-1.006744,3.843732,59.3425,-135.8525,-24.955
584,223243,2.18502,-0.182268,2.77428,-49.1575,27.0025,-75.7225
585,223340,2.290184,2.4334119999999997,0.45628,-54.6,162.9425,-126.105
586,223437,0.788852,-0.054655999999999996,-0.60512,150.955,271.0925,-125.9825
587,223535,1.42862,0.729804,-2.733288,141.3475,249.55,-141.4875
588,223632,-0.138348,-0.8810841,-0.812276,155.9425,218.96,-137.515
589,223729,0.249856,-2.930196,0.0793,195.0375,283.6925,-81.04251
590,223826,2.3738759999999997,-2.342156,-1.520364,67.0775,355.39,-54.3375
591,223923,2.7054720000000003,-1.519388,-1.569164,-2.415,329.315,-5.145
592,224020,2.5937200000000002,0.78446,-1.9834759999999998,-57.2075,261.8525,24.6575
593,224117,2.46928,2.4500040000000003,-1.6265040000000002,-10.6225,187.74,9.94
594,224214,1.33346,-0.147376,-1.139724,96.77501,118.615,14.7525
595,224311,1.0443200000000001,-0.542656,-1.031144,86.3625,91.07,41.23
596,224408,0.8769360999999999,0.037088,-0.9125601000000001,41.09,52.9725,31.5525
597,224506,0.9386681,0.125904,-1.0443200000000001,30.03,29.54,13.09
598,224603,0.650016,0.504592,-0.8491200000000001,19.3375,5.1275,11.2875
599,224700,0.754448,0.173484,-0.8613200000000001,25.27,6.685,15.33
600,224797,0.664168,0.030744,-0.829356,25.515,5.11,14.14
601,224894,0.6348881,0.18104800000000001,-0.844972,13.4925,3.7275,8.715
602,224991,0.5648601,0.11053199999999999,-0.8662001,11.48,5.3725,5.1625
603,225088,0.6009720000000001,0.237168,-0.8491200000000001,8.5225,10.255,3.605
604,225185,0.584868,0.196664,-0.83204,8.645,12.32,4.235
605,225282,0.571204,0.16201600000000002,-0.8464360000000001,10.8325,14.0875,5.635
606,225379,0.586088,0.131272,-0.8203280000000001,10.185,17.255,5.11
607,225477,0.579012,0.14347200000000002,-0.826428,8.3475,19.81,4.0775
608,225574,0.581696,0.13176,-0.8210601000000001,6.7375,22.47,3.395
609,225671,0.5785241,0.13664,-0.820572,4.9875,25.4275,2.6425
610,225768,0.571936,0.145424,-0.792512,3.3775,27.825,2.1525
611,225865,0.5516840000000001,0.18056,-0.80642,3.955,30.7475,3.43
612,225962,0.5751081,0.18666,-0.8049561,7.28,33.3725,6.5975
613,226059,0.5885281,0.196176,-0.7929999999999999,9.765,35.4375,10.9725
614,226156,0.61122,0.19276,-0.7761640999999999,9.695,37.8175,15.61
615,226253,0.6097560000000001,0.183732,-0.7732359999999999,8.19,39.8825,20.335
616,226350,0.609024,0.22716399999999998,-0.7700640999999999,8.8375,41.37,25.4625
617,226447,0.619516,0.223016,-0.739808,15.0325,42.7,31.85
618,226544,0.6470880999999999,0.212524,-0.7451760000000001,18.9875,43.9425,38.2025
619,226641,0.6661201,0.156648,-0.7195560000000001,17.6925,43.4175,43.155
620,226739,0.692716,0.147376,-0.7324881,14.7175,43.2775,47.1275
621,226836,0.657824,0.114192,-0.7439560000000001,12.04,42.7,48.7025
622,226933,0.643428,0.07076001,-0.735416,8.715,42.9975,49.07
623,227030,0.6512359999999999,0.05856,-0.7259001,4.7075,44.8875,50.2075
624,227127,0.621712,0.063684,-0.7856801,1.5575,48.7025,49.77
625,227224,0.60512,0.033672,-0.8054439999999999,0.175,55.02,49.8575
626,227321,0.604876,-0.004636001,-0.8015399999999999,-1.8375,64.5925,47.7225
627,227418,0.598288,-0.008296000999999999,-0.8300879999999999,-2.38,77.9275,43.1025
628,227515,0.5787680000000001,-0.03172,-0.889624,0.105,94.115,36.155
629,227612,0.601704,-0.05246,-0.8457040000000001,5.7925,112.07,28.105
630,227709,0.6007279999999999,-0.054655999999999996,-0.8174001000000001,9.9575,131.915,19.7575
631,227806,0.6007279999999999,-0.08808401,-0.805932,13.5975,150.8675,12.88
632,227904,0.5975560000000001,-0.13639600000000002,-0.80276,17.745,170.975,5.7225
633,228001,0.5577840000000001,-0.145912,-0.777628,23.0825,195.125,-1.8725
634,228098,0.5170359999999999,-0.011956,-0.841556,27.3175,227.045,-8.1025
635,228195,0.492148,0.051972000000000004,-0.8427761,31.3425,265.5975,-9.0825
636,228292,1.311012,0.08052000000000001,-1.392264,30.87,297.92,-5.565
637,228389,0.680028,0.1952,-0.772016,20.6675,278.04,6.16
638,228486,0.302072,0.240096,-1.036024,15.0325,338.765,20.7025
639,228583,0.924516,0.327448,-1.054812,-2.2925,403.06,29.82
640,228680,1.468148,0.17836400000000002,-1.10166,-20.8775,476.2625,35.665
641,228777,1.8304880000000001,0.233996,-1.053836,-39.585,529.5325,41.2825
642,228874,1.7165400000000002,0.10614000000000001,-1.3588360000000002,-36.7325,564.2525,41.965
643,228972,2.279448,-0.439688,-0.783728,-53.3575,569.065,21.4375
644,229069,2.062288,0.260592,-1.25538,-126.595,573.3,11.69
645,229166,2.477088,0.28426,-1.631628,-127.4175,573.405,15.6275
646,229263,3.354024,0.379176,-2.2143,-116.06,545.7025,40.9675
647,229360,2.2579759999999998,0.42163199999999995,-1.9549279999999998,-137.3225,439.0225,61.53
648,229457,0.9228081,0.7812880999999999,-2.191852,-90.3875,326.3575,112.4375
649,229554,6.105856,1.2073120000000002,-5.794512,-28.5425,158.97,99.505
650,229651,1.921744,0.9442801,-2.969968,-24.43,-133.63,59.675
651,229748,0.509716,0.8169121,-2.113772,9.73,-274.68,37.625
652,229845,0.261812,0.5455840000000001,-1.486204,38.185,-301.875,4.165
653,229942,0.130052,0.276452,-1.130208,45.4475,-296.73,-17.85
654,230039,0.28426,0.071004,-0.989664,31.78,-292.0575,-35.105
655,230137,0.557296,-0.011468,-0.985516,1.085,-302.6975,-49.5075
656,230234,0.71248,-0.045872,-0.993568,-32.585,-328.2125,-61.3375
657,230331,0.763232,-0.024156,-0.97356,-58.4325,-358.2425,-70.63
658,230428,0.736392,0.023912,-0.9145120999999999,-72.1875,-385.2625,-76.755
659,230525,0.69418,0.06661201,-0.8344801,-73.16751,-404.1975,-78.9775
660,230622,0.6956439999999999,0.085156,-0.774944,-63.84,-413.735,-78.6975
661,230719,0.700036,0.09418401,-0.72346,-48.3,-415.87,-77.5075
662,230816,0.758596,0.07417601,-0.7315119999999999,-30.345,-412.5975,-75.565
663,230913,0.8081281,0.057584,-0.734196,-12.5825,-407.6275,-71.6625
664,231010,0.8315520000000001,0.0244,-0.7500560000000001,1.2425,-403.4625,-65.73
665,231107,0.909632,-0.048068,-0.81252,9.7125,-396.83,-58.695
666,231205,1.038952,-0.127856,-0.913048,9.695,-389.1475,-53.165
667,231302,1.209508,-0.18470799999999998,-1.057252,0.6825,-383.3375,-49.875
668,231399,1.39202,-0.237656,-1.19438,-13.9125,-380.975,-48.16
669,231496,1.50548,-0.27571999999999997,-1.269776,-32.2525,-380.7825,-46.515
670,231593,1.71166,-0.23521599999999998,-1.3407799999999999,-53.025,-378.035,-41.895
671,231690,2.0112919999999996,-0.157136,-1.3603,-70.9975,-373.1175,-32.2
672,231787,2.191364,-0.294508,-1.1960879999999998,-83.1775,-368.8125,-22.47
673,231884,2.32532,-0.424804,-1.056276,-99.155,-357.4725,-26.5475
674,231981,2.743292,-0.596092,-0.955016,-126.595,-335.405,-42.63
675,232078,3.33304,-0.652944,-0.8718120999999999,-162.6275,-311.9025,-67.1825
676,232175,3.7680919999999998,-0.09784401,-0.7332201,-198.905,-303.415,-96.72251
677,232272,3.7944440000000004,0.7088201,-0.35160399999999997,-191.765,-302.33,-112.2975
678,232370,4.0118480000000005,1.235616,0.21447600000000003,-106.4525,-304.9025,-122.465
679,232467,4.914892,1.045052,1.6796959999999999,42.0875,-304.3075,-114.31
680,232564,5.08252,-0.118096,3.3576839999999994,146.3875,-327.145,-68.6
681,232661,3.8569080000000002,-1.0589600000000001,4.1021279999999996,139.685,-305.0775,-30.9225
682,232758,2.330444,-0.69906,4.002576,33.4075,-197.2425,-37.2225
683,232855,1.57502,0.761524,3.145404,-36.8025,-23.7825,-70.0875
684,232952,1.832196,0.522404,2.592012,62.0375,216.0025,-73.045
685,233049,0.82594,-0.07515201,-0.7256560000000001,157.64,344.0675,-53.8825
686,233146,2.351672,0.209352,-3.368176,89.2675,332.01,-100.1175
687,233243,0.9406200000000001,-1.299544,-1.016504,92.6625,239.435,-117.0925
688,233340,0.6763680000000001,-1.5372,0.087108,64.47,271.7225,-101.92
689,233437,2.860656,-1.508896,-1.8587919999999998,6.2125,339.2725,-50.3825
690,233534,2.933368,-1.103124,-1.7943759999999997,-30.94,285.46,-16.9225
691,233632,1.88978,0.7978801,-1.471808,-61.6175,190.3125,-2.38
692,233729,1.537688,2.1655,-1.33346,-22.4525,137.69,5.4075
693,233826,1.01626,-0.135176,-0.9669721,76.0725,106.505,6.615
694,233923,1.250744,-0.64294,-1.007232,71.2075,92.82001,21.91
695,234020,0.8908440999999999,0.082228,-0.780556,26.3025,39.585,16.065
696,234117,0.9030440000000001,0.256932,-0.992592,10.535,15.26,1.9775
697,234214,0.71492,0.3355,-0.826428,15.33,-6.405,1.8375
698,234311,0.7195560000000001,0.233264,-0.863516,15.2425,-0.105,4.4275
699,234408,0.6514800000000001,0.104432,-0.8095920999999999,13.23,-2.2925,4.6725
700,234505,0.638304,0.21520799999999998,-0.8147161,6.65,-2.065,2.8875
701,234602,0.567788,0.162992,-0.8762040000000001,5.53,-2.03,2.5725
702,234699,0.6075600999999999,0.159332,-0.8361879999999999,6.7375,2.59,3.255
703,234796,0.572912,0.186416,-0.843508,4.8475,5.4425,3.0275
704,234893,0.5846241,0.142008,-0.839116,5.8975,8.54,3.64
705,234991,0.579012,0.1403,-0.8315520000000001,3.71,11.62,3.2375
706,235088,0.579012,0.10052799999999999,-0.817156,2.45,14.245,2.135
707,235185,0.5697399999999999,0.131028,-0.8274040000000001,-0.2625,16.8525,0.175
708,235282,0.562664,0.181292,-0.822768,-1.6275,19.775,-0.7175
709,235379,0.55998,0.23009200000000002,-0.8052,0.175,22.8375,0.7
710,235476,0.5414359999999999,0.250832,-0.8015399999999999,7.21,24.0975,5.1625
711,235573,0.5724239999999999,0.223992,-0.796416,15.8725,25.2,10.92
712,235670,0.57096,0.211304,-0.7993439999999999,21.665,25.7775,15.9075
713,235767,0.5958479999999999,0.21838000000000002,-0.8020281,23.17,26.985,20.7025
714,235864,0.627812,0.190564,-0.767624,22.3825,28.1225,25.62
715,235961,0.615368,0.21520799999999998,-0.733464,21.7175,28.14,31.3075
716,236058,0.6156119999999999,0.205692,-0.7605481,19.915,29.6275,37.1175
717,236156,0.663192,0.211792,-0.747128,18.6725,30.3975,43.6975
718,236253,0.613904,0.07076001,-0.7373681,18.6025,33.5475,45.6225
719,236350,0.677344,0.072712,-0.790072,12.7925,34.965,47.0225
720,236447,0.66246,0.04392,-0.73932,7.455,35.49,47.0575
721,236544,0.6178081,0.041724000000000004,-0.770308,1.82,36.5925,46.6375
722,236641,0.6029241,0.036112,-0.775676,-1.085,38.1675,44.6425
723,236738,0.6158561,0.028304000000000003,-0.8042239999999999,-3.29,42.14,42.9975
724,236835,0.582184,0.028792,-0.821304,-4.9875,47.915,42.35
725,236932,0.576572,0.0183,-0.8310639999999999,-5.285,56.35,39.5325
726,237029,0.591212,0.00366,-0.8076399999999999,-4.795,68.11,36.435
727,237126,0.5934081,0.0061,-0.868396,-4.3925,82.4075,32.095
728,237223,0.59902,-0.00122,-0.8881600000000001,-1.5575,99.085,27.09
729,237320,0.581696,-0.028304000000000003,-0.871568,2.73,117.11,21.245
730,237418,0.586332,-0.061732,-0.85888,7.7175,136.4825,14.2975
731,237515,0.5777920999999999,-0.06588,-0.8427761,10.395,157.64,7.735
732,237612,0.582184,-0.118828,-0.8281360999999999,14.1225,179.795,2.5725
733,237709,0.5355800999999999,-0.09345201,-0.8100801,18.7775,204.5575,-2.975
734,237806,0.5070319999999999,-0.002196,-0.850096,24.9025,236.8975,-7.5075
735,237903,0.438468,0.07222401,-0.8244761,30.38,276.5875,-6.93
736,238000,1.483032,0.179828,-1.5279280000000002,30.0825,319.62,-2.1
737,238097,0.32256799999999997,0.177876,-1.26514,21.6125,299.46,10.2375
738,238194,0.444812,0.24644000000000002,-1.373476,6.9475,342.8425,27.7725
739,238291,0.850096,0.359168,-1.2141440000000001,-7.595,412.09,41.51
740,238388,1.699948,0.209108,-1.215852,-19.6875,484.4,52.08
741,238486,1.7982799999999999,0.22862800000000003,-0.922076,-29.12,536.3575,59.5525
742,238583,1.934432,0.165188,-1.046028,-30.4325,561.505,55.5625
743,238680,2.070096,-0.375272,-1.063352,-62.9475,570.255,33.8625
744,238777,2.336544,0.409432,-1.617476,-123.6025,573.405,29.155
745,238874,2.452932,0.396744,-2.6278799999999998,-98.28,572.18,37.625
746,238971,2.249924,0.590968,-2.17404,-94.99,501.5675,71.6275
747,239068,1.677744,0.32208000000000003,-2.162328,-103.1275,436.03,82.0925
748,239165,1.955416,0.386008,-1.442772,-44.0825,296.135,123.9875
749,239262,4.896104,1.05164,-5.0220080000000005,-6.0725,170.1875,89.3025
750,239359,1.609668,0.765428,-2.8599240000000004,6.265,-130.795,68.2675
751,239456,0.5121560000000001,0.716384,-2.019344,35.42,-247.065,43.5575
752,239554,0.335744,0.5355800999999999,-1.469856,65.1,-282.24,18.2
753,239651,0.22106399999999998,0.37698000000000004,-1.096536,81.445,-283.115,7.56
754,239748,0.369172,0.16909200000000002,-0.9774639999999999,80.7275,-284.165,1.8025
755,239845,0.671976,0.048068,-0.955016,57.9075,-300.5275,-4.62
756,239942,0.7954399999999999,0.05929201,-0.9289081,19.9675,-335.2125,-14.5425
757,240039,0.7449321,0.125904,-0.8410681000000001,-16.0125,-372.855,-26.1275
758,240136,0.667096,0.205204,-0.742492,-41.2125,-400.7325,-39.025
759,240233,0.653432,0.28011199999999997,-0.674172,-54.1275,-414.785,-51.3275
760,240330,0.675148,0.32866799999999996,-0.6453800000000001,-54.3725,-419.37,-59.7275
761,240427,0.798124,0.337696,-0.6832,-46.095,-417.7425,-64.155
762,240524,0.9869800999999999,0.32818,-0.7468840999999999,-34.3875,-416.255,-66.01
763,240621,1.0650600000000001,0.329156,-0.7761640999999999,-22.3475,-421.225,-65.8
764,240718,1.097512,0.285236,-0.789828,-12.1975,-428.05,-63.525
765,240816,1.1333799999999998,0.21276799999999998,-0.793488,-6.7025,-431.2525,-60.025
766,240913,1.1472879999999999,0.151524,-0.80276,-9.38,-428.75,-56.735
767,241010,1.224636,0.102968,-0.847412,-21.1925,-419.335,-54.7225
768,241107,1.368108,0.048068,-0.930616,-40.67,-405.335,-55.0725
769,241204,1.5762399999999999,0.001952,-1.044808,-68.495,-389.69,-57.295
770,241301,1.9093,0.14005599999999999,-1.2038959999999999,-103.18,-376.39,-59.465
771,241398,2.345816,0.41894799999999993,-1.340048,-130.1825,-368.8125,-59.045
772,241495,2.672044,0.559004,-1.315404,-133.1925,-368.4275,-60.8475
773,241592,2.785504,0.5875520000000001,-1.158268,-116.9525,-373.24,-69.86
774,241689,2.860168,0.094672,-0.9633120999999999,-93.205,-370.195,-94.60501
775,241786,3.016572,-0.11736400000000001,-0.7285841,-92.3825,-359.1175,-141.6625
776,241883,3.080988,0.13542,-0.452376,-98.82251,-342.6325,-187.3025
777,241981,3.102704,0.677344,-0.077592,-69.825,-314.965,-214.2
778,242078,3.4499160000000004,0.889136,0.68198,20.615,-274.54,-215.285
779,242175,4.2944,0.610244,1.9893319999999999,134.47,-246.9775,-181.3
780,242272,4.256824,-0.535092,3.131008,193.9875,-240.9575,-110.5825
781,242369,3.1112439999999997,-1.117764,3.470412,145.0575,-195.1075,-60.83
782,242466,2.351428,-0.487756,2.914336,24.5875,-89.3375,-62.0375
783,242563,2.21674,0.199348,1.735084,-33.5825,34.335,-89.53
784,242660,2.0032400000000004,1.063352,0.318664,-9.9925,124.81,-122.5175
785,242757,2.7654959999999997,-0.351848,0.815692,96.005,216.86,-136.185
786,242854,-0.332328,-0.5653481,-0.190808,103.075,232.2075,-125.16
787,242951,1.266116,-0.556076,-1.968836,38.0625,285.7925,-141.4525
788,243048,1.584292,-1.492548,-1.3973879999999999,50.2425,276.465,-117.67
789,243146,1.365424,-1.6623720000000002,-0.5516840000000001,13.1775,294.3325,-80.6925
790,243243,2.584936,-1.152168,-1.6391919999999998,-43.96,312.2,-46.34
791,243340,1.827316,-0.23253200000000002,-1.365912,-78.41751,256.6025,-24.15
792,243437,1.725568,1.4905959999999998,-1.619428,-87.29,209.0725,-8.995
793,243534,2.092056,1.8468360000000001,-1.4173959999999999,-11.4275,169.9425,-6.7375
794,243631,1.640168,-0.698816,-1.35664,85.83751,111.93,2.5375
795,243728,0.9042641,-0.23741199999999998,-0.7820199999999999,44.0125,61.88,20.16
796,243825,0.849608,0.5858439999999999,-1.036512,-2.5725,31.64,7.5075
797,243922,0.9740479999999999,0.33305999999999997,-0.903532,17.4475,22.085,1.8375
798,244019,0.599508,0.305732,-0.7473721,13.125,15.365,4.41
799,244116,0.711016,0.1952,-0.8901120000000001,16.625,7.805,6.7725
800,244213,0.628544,0.220088,-0.812276,13.72,6.5975,5.88
801,244311,0.607804,0.19959200000000002,-0.8544879999999999,12.915,8.0675,5.8275
802,244408,0.5919439999999999,0.13664,-0.8730319999999999,13.51,9.275,6.755
803,244505,0.5934081,0.27328,-0.840824,11.06,12.355,7.035
804,244602,0.5858439999999999,0.186416,-0.828624,14.875,13.8075,9.59
805,244699,0.598532,0.19764,-0.8103239999999999,18.76,14.91,12.005
806,244796,0.578036,0.188368,-0.8274040000000001,20.5275,14.6475,13.9475
807,244893,0.6075600999999999,0.09442801,-0.792024,23.5375,14.3325,15.9775
808,244990,0.5934081,0.098088,-0.809348,18.4275,15.54,13.4575
809,245087,0.5975560000000001,0.13298,-0.801296,14.8575,16.8175,11.9175
810,245184,0.559736,0.123464,-0.831308,13.685,16.8175,11.69
811,245281,0.612196,0.115168,-0.80642,15.26,15.8375,11.6725
812,245379,0.655384,0.132492,-0.78446,16.8,14.5075,13.055
813,245476,0.590968,0.146644,-0.80276,19.11,13.9125,14.665
814,245573,0.6390359999999999,0.14274,-0.796172,21.4025,12.0575,16.835
815,245670,0.664412,0.140544,-0.76494,20.615,10.15,19.8625
816,245767,0.5309441,0.111508,-0.726388,20.055,8.2425,20.7025
817,245864,0.674172,0.13054000000000002,-0.72712,17.4825,5.04,24.3425
818,245961,0.7129681,0.11248399999999999,-0.774212,16.3275,0.665,27.4575
819,246058,0.638548,0.062464,-0.72346,13.4925,-1.82,27.0375
820,246155,0.598288,0.028792,-0.7500560000000001,10.43,-2.0475,24.6925
821,246252,0.604144,0.03904,-0.8315520000000001,6.58,-3.185,23.4325
822,246349,0.467016,0.023180000000000003,-0.819108,5.8975,0.105,21.2625
823,246447,0.54168,0.030987999999999998,-0.820816,2.5025,4.9525,20.1775
824,246544,0.5565640000000001,0.064416,-0.8483879999999999,1.4,10.955,19.0925
825,246641,0.536556,0.046116000000000004,-0.8610761,-0.315,18.8475,19.3375
826,246738,0.47604399999999997,-0.036112,-0.889868,-0.4375,30.3975,17.325
827,246835,0.509228,0.0793,-0.9237841,-3.99,48.0025,13.3875
828,246932,0.50508,0.096624,-0.9311040999999999,-3.7975,68.915,13.44
829,247029,0.49288000000000004,0.09589201,-0.972828,-4.655,92.27750999999999,16.415
830,247126,0.49898000000000003,0.046360000000000005,-0.9442801,-2.6775,119.49,19.4425
831,247223,0.520208,-0.043676,-0.968924,-1.925,148.8725,20.1075
832,247320,0.425048,-0.096624,-0.981124,-2.3975,178.8325,18.0775
833,247418,0.403088,0.040504000000000005,-1.0077200000000002,-5.46,216.2475,14.49
834,247515,0.38186,0.237168,-1.11142,-3.7625,260.4175,17.64
835,247612,0.235948,0.254736,-1.1685159999999999,10.1675,315.42,29.6625
836,247709,0.300608,0.278648,-1.248304,28.3325,385.7875,44.345
837,247806,1.543788,0.293288,-1.955416,40.2325,461.51,64.34751
838,247903,0.5997520000000001,0.311832,-1.527684,40.215,457.66,86.5025
839,248000,1.39324,0.23228800000000002,-1.730692,34.44,524.8775,104.4575
840,248097,1.6958,0.069052,-0.899384,39.7775,572.215,110.775
841,248194,2.3902240000000003,0.057828,-1.298812,49.5075,573.405,94.7625
842,248291,2.2518759999999998,0.399428,-1.154364,49.8925,573.405,77.3675
843,248388,3.152724,0.48165600000000003,-2.710596,86.555,572.4425,98.77
844,248485,2.128412,0.89792,-2.2713959999999997,126.5075,535.7275,122.36
845,248583,1.784372,0.8510719999999999,-2.094252,172.97,486.8675,132.9125
846,248680,0.813496,0.118828,-2.071072,262.85,360.3425,143.185
847,248777,5.842824,0.676124,-5.925052,282.0825,205.5025,102.41
848,248874,1.2014559999999999,0.334768,-2.986072,253.2425,-103.7925,77.9625
849,248971,0.24351199999999998,0.378688,-2.103036,233.0825,-226.31,72.3975
850,249068,0.193248,0.450912,-1.4896200000000002,217.0,-261.0475,78.54
851,249165,0.178852,0.583648,-1.16022,205.065,-260.4525,104.79
852,249262,0.357216,0.7237041,-1.0675,193.725,-261.17,134.0675
853,249359,0.6897880999999999,0.9913719999999999,-1.167296,175.14,-278.145,153.23
854,249456,0.8801081000000001,1.44448,-1.2439120000000001,157.7625,-314.16,153.9475
855,249553,0.8962120000000001,1.876116,-1.2195120000000002,157.9025,-355.95,137.7075
856,249651,1.0018639999999999,2.168672,-1.1653440000000002,177.9925,-391.195,108.185
857,249748,1.1746159999999999,2.345084,-1.10532,208.67,-421.3825,71.4
858,249845,1.35542,2.300432,-0.9406200000000001,239.6625,-448.14,34.055
859,249942,1.512312,2.081076,-0.749568,257.5125,-469.21,3.36
860,250039,1.4330120000000002,1.914912,-0.515328,253.82,-487.8825,-16.31
861,250136,1.416664,1.844396,-0.354288,227.4125,-497.3325,-31.7625
862,250233,1.558184,1.931992,-0.39771999999999996,185.9725,-489.4225,-43.9075
863,250330,1.6616400000000002,2.18502,-0.5124001,144.9,-473.5675,-57.0675
864,250427,1.8870959999999999,2.408036,-0.68076,119.91,-458.3425,-75.3025
865,250524,2.2296720000000003,2.613728,-0.850584,110.985,-449.505,-98.21
866,250622,2.460008,2.802584,-0.8723001,113.0675,-449.4875,-126.455
867,250719,2.574688,2.85846,-0.781532,124.845,-451.115,-164.71
868,250816,2.773304,2.718892,-0.639768,138.1975,-446.6525,-215.67
869,250913,2.920436,2.5693200000000003,-0.49117200000000005,141.295,-436.45,-273.035
870,251010,3.0868439999999997,2.3077520000000002,-0.34428400000000003,135.1525,-418.81,-323.085
871,251107,3.232756,2.0417919999999996,-0.254736,126.07,-395.0275,-361.5325
872,251204,3.403312,1.92882,-0.25498000000000004,108.4475,-369.8975,-386.3825
873,251301,3.497496,1.80072,-0.159576,98.665,-343.2975,-391.2825
874,251398,3.4408879999999997,1.0309,0.200568,98.1925,-316.9075,-383.775
875,251495,3.085868,0.445788,0.5743761,76.2825,-291.9175,-397.6875
876,251592,2.9685040000000003,0.9562360999999999,0.7605481,23.065,-251.3525,-428.6975
877,251690,3.569232,1.4339879999999998,1.036024,51.5725,-185.15,-435.5925
878,251787,3.9698800000000003,0.8954801,1.583804,145.915,-140.21,-386.785
879,251884,3.53312,-0.416264,2.0801,184.7125,-125.8425,-293.7725
880,251981,2.750612,-0.6956439999999999,2.260416,94.045,-93.5375,-225.8725
881,252078,2.340448,0.026108,1.700436,-35.315,-25.2175,-189.735
882,252175,2.505148,0.861808,1.243668,-74.865,57.47,-180.005
883,252272,1.0650600000000001,-0.09638,1.5706280000000001,-3.1675,170.275,-229.9675
884,252369,1.948584,-0.38503200000000004,-1.8531799999999998,-13.9125,209.3525,-270.2875
885,252466,0.850584,-1.1655879999999998,-1.4539959999999998,-32.235,178.885,-274.68
886,252563,0.502152,-1.868796,-0.47384799999999994,-25.5675,192.9375,-204.015
887,252660,1.7565560000000002,-1.881484,-1.159244,-54.075,245.0525,-120.3825
888,252758,2.994856,-1.19804,-1.850252,-95.2875,239.4175,-56.4025
889,252855,1.836832,0.380152,-1.361032,-128.9575,154.6825,-27.475
890,252952,2.109624,2.273592,-2.119628,-121.9225,103.495,-22.33
891,253049,0.557052,0.43041599999999997,-0.714676,-56.9625,52.15,-48.5625
892,253146,1.1507040000000002,0.17812,-1.320284,-33.495,38.57,-44.9225
893,253243,0.5214281,0.7417600000000001,-0.772748,-43.6625,21.7175,-34.6325
894,253340,0.687104,0.36112,-0.844972,-18.34,22.7675,-25.27
895,253437,0.634156,0.381128,-0.873764,-5.3375,11.4975,-12.5825
896,253534,0.6470880999999999,0.330864,-0.846924,-0.28,13.0725,-4.0425
897,253631,0.601704,0.158844,-0.8676640999999999,6.4925,11.725,1.61
898,253729,0.5736441,0.190076,-0.8754719999999999,8.12,12.8625,4.025
899,253826,0.584136,0.2562,-0.8430200999999999,7.9625,17.22,4.9525
900,253923,0.58072,0.188368,-0.850096,11.8475,19.985,7.945
901,254020,0.6019479999999999,0.111508,-0.8378960999999999,14.8925,21.2975,9.345
902,254117,0.5958479999999999,0.147376,-0.8291120999999999,13.8775,22.1025,8.435
903,254214,0.592432,0.12444000000000001,-0.8342360000000001,14.84,22.8025,8.5575
904,254311,0.586576,0.089304,-0.815204,15.295,23.4325,8.33
905,254408,0.5648601,0.119072,-0.8376520000000001,14.56,25.1475,7.4375
906,254505,0.5875520000000001,0.14274,-0.8195960999999999,14.7875,27.7025,6.16
907,254603,0.6039,0.08906,-0.8091041,18.6025,29.785,5.8975
908,254700,0.606584,0.03294,-0.7929999999999999,16.345,31.3075,4.9875
909,254797,0.586088,0.00488,-0.799588,10.7975,33.3025,5.285
910,254894,0.59536,0.048068,-0.81618,4.725,36.3125,4.62
911,254991,0.6109760000000001,0.087352,-0.8066641,3.15,40.005,3.8675
912,255088,0.606096,0.07198,-0.807396,3.6225,42.42,3.605
913,255185,0.621224,0.080276,-0.79666,2.8875,44.5375,3.01
914,255282,0.621224,0.116388,-0.782508,3.7975,46.13,2.625
915,255379,0.6558721,0.115168,-0.75884,5.1625,47.6525,3.9025
916,255476,0.6600201,0.132736,-0.7476161,5.25,48.09,6.2125
917,255573,0.6724640000000001,0.133956,-0.735904,6.0725,48.51,8.7675
918,255671,0.6878361,0.137372,-0.724924,5.145,48.3,11.6375
919,255768,0.6695361,0.11467999999999999,-0.712236,4.865,47.6875,14.35
920,255865,0.666852,0.091012,-0.724924,2.87,47.88,16.5375
921,255962,0.6688041,0.0793,-0.732244,1.6975,49.07,17.5525
922,256059,0.667828,0.061732,-0.729072,0.9625,50.7675,17.22
923,256156,0.619028,0.05002,-0.7639640999999999,1.155,53.165,16.3625
924,256253,0.632448,0.06661201,-0.784704,2.555,57.6625,14.9975
925,256350,0.65514,0.065148,-0.7808001,3.5875,63.7175,14.84
926,256447,0.6749041,0.047580000000000004,-0.79422,5.11,70.98001,15.4175
927,256544,0.6663640000000001,0.040016,-0.791292,7.0525,80.115,15.505
928,256642,0.638304,0.053436000000000004,-0.7822640000000001,8.785,92.015,15.68
929,256739,0.657824,0.07198,-0.76982,9.3975,106.8375,16.52
930,256836,0.6736840000000001,0.09028,-0.754448,8.7325,123.375,18.9175
931,256933,0.6878361,0.125172,-0.7522521,9.3625,142.3975,23.345
932,257030,0.6329359999999999,0.15006,-0.7517640999999999,11.4275,163.17,30.45
933,257127,0.659044,0.16128399999999998,-0.7317560000000001,14.875,189.0525,40.0575
934,257224,0.68198,0.280844,-0.7771399999999999,21.28,218.19,52.78
935,257321,0.665632,0.403088,-0.8615640999999999,33.18,250.985,70.7175
936,257418,1.210972,0.45725600000000005,-1.1977959999999999,50.5225,274.5575,97.2475
937,257515,0.9098761000000001,0.56242,-1.217804,71.505,267.54,136.0625
938,257613,1.134356,0.411628,-1.080676,104.9825,304.255,170.975
939,257710,1.334924,0.248392,-1.22854,142.625,358.225,206.185
940,257807,1.6867720000000002,0.3904,-1.4269120000000002,184.835,400.0675,233.1
941,257904,2.012512,0.24034,-1.020408,223.3875,434.6475,225.9075
942,258001,2.120116,0.612928,-1.416908,252.385,478.8175,219.7125
943,258098,2.624952,0.877912,-1.7741240000000003,279.0375,442.575,244.615
944,258195,2.154032,1.093852,-1.737036,296.5025,359.415,252.9975
945,258292,1.5220719999999999,1.353712,-1.807552,315.0525,329.8575,251.475
946,258389,0.477996,1.223416,-1.293688,377.5975,291.48,260.33
947,258486,1.476688,0.31158800000000003,-1.8234119999999998,449.61,220.01,231.8575
948,258584,4.280736,0.388936,-4.255116,385.7525,103.95,116.3225
949,258681,1.24074,0.512644,-2.403644,251.3875,-146.265,25.0425
950,258778,0.287188,0.730292,-1.666764,161.77,-237.44,-30.555
951,258875,0.45896400000000004,0.7407841,-1.423984,132.4925,-255.185,-56.315
952,258972,0.5594920999999999,0.7473721,-1.308816,132.0725,-250.5125,-56.315
953,259069,0.785924,0.6258600000000001,-1.2456200000000002,137.375,-262.5525,-49.3325
954,259166,0.9901521000000001,0.5553441,-1.236348,135.1175,-292.74,-45.5525
955,259263,1.054324,0.628788,-1.1653440000000002,123.3575,-333.655,-50.085
956,259360,0.921588,0.8095920999999999,-1.0126,112.665,-373.1175,-58.94
957,259457,0.8554641,0.9284200999999999,-0.8652241,110.0575,-401.1525,-71.9425
958,259555,0.874252,1.00406,-0.776408,113.225,-414.3125,-88.32251
959,259652,0.93696,0.9906401,-0.7522521,117.46,-421.925,-107.5725
960,259749,1.08336,0.9206120000000001,-0.7088201,118.1425,-426.2475,-128.4325
961,259846,1.01626,0.885964,-0.650748,109.62,-434.21,-146.7375
962,259943,1.05408,0.8671761,-0.61122,97.755,-436.6075,-160.8075
963,260040,1.037976,0.9191481,-0.5516840000000001,85.75,-427.91,-164.815
964,260137,1.00406,0.9616040000000001,-0.49849209999999994,75.565,-413.42,-161.5425
965,260234,1.098732,0.925736,-0.614392,65.8175,-387.135,-151.655
966,260331,1.48108,0.8525360000000001,-0.7991,49.28,-360.5875,-141.4
967,260429,1.664568,0.855708,-0.9167081,21.4375,-348.845,-131.705
968,260526,1.685552,0.9191481,-0.9572120999999999,-10.185,-347.06,-124.25
969,260623,1.738256,1.0145520000000001,-0.9945440000000001,-35.42,-342.1775,-118.9125
970,260720,1.797304,1.092632,-1.075064,-47.215,-334.4775,-116.0425
971,260817,1.979572,1.0016200000000002,-1.2078,-46.2175,-324.7475,-114.485
972,260914,2.103036,0.7666480999999999,-1.197064,-47.7925,-318.9375,-115.255
973,261011,2.04838,0.558272,-1.0077200000000002,-64.8375,-316.3125,-119.07
974,261108,1.8512279999999999,0.49263599999999996,-0.6856399999999999,-96.075,-305.515,-124.11
975,261205,1.633824,0.34281999999999996,-0.369904,-131.5825,-274.645,-126.7875
976,261303,2.018612,0.326716,-0.346236,-171.22,-219.87,-131.355
977,261400,2.6071400000000002,-0.289628,-0.37112399999999995,-212.94,-174.02,-148.4525
978,261497,2.8721240000000003,0.14005599999999999,-0.29987600000000003,-276.0975,-164.57,-193.6375
979,261594,3.006324,0.7129681,-0.135908,-285.95,-161.63,-230.895
980,261691,3.676104,1.104588,0.256688,-202.2825,-153.5625,-238.5775
981,261788,3.5614239999999997,0.5060560000000001,1.301496,-57.12,-164.3075,-200.0075
982,261885,3.3379199999999996,-0.5675439999999999,2.256268,57.9075,-156.87,-134.4175
983,261982,3.088552,-1.061156,2.593476,66.9025,-111.51,-73.325
984,262080,2.94996,-0.73444,2.221376,1.1725,-47.005,-38.6225
985,262177,2.9341,0.047824,1.460828,-56.0875,10.325,-35.7875
986,262274,2.683024,0.571448,0.9435479999999999,-46.7075,45.9025,-48.7725
987,262371,2.24114,0.434076,0.7612800999999999,15.7675,72.345,-58.765
988,262468,0.5172800999999999,1.08336,-0.227408,66.22,104.4225,-60.13
989,262565,0.36112,0.564372,-1.571604,147.875,155.715,-60.3575
990,262662,-0.079056,-0.02684,-2.132072,195.0025,171.5875,-71.7325
991,262759,-0.728096,-2.160864,-0.125904,192.8675,200.7075,-91.8925
992,262856,0.564616,-2.826496,-0.39771999999999996,133.9975,290.2725,-86.9225
993,262954,2.795264,-2.254804,-1.707756,22.085,346.675,-61.6
994,263051,3.1036799999999998,-0.371612,-1.903444,-38.29,299.81,-19.18
995,263148,3.0392639999999997,2.701324,-1.820484,-45.6225,209.8775,7.28
996,263245,1.245376,0.935008,-1.214632,60.3575,116.55,10.6575
997,263342,1.204872,-0.532408,-1.27734,95.41,91.35,31.1675
998,263439,0.770308,-0.055144000000000006,-0.77836,50.9425,54.1975,33.74
999,263536,0.922076,0.17934,-0.9869800999999999,24.9375,39.655,14.805
1000,263633,0.765428,0.28157600000000005,-0.9108521,25.13,23.45,8.0325
1001,263730,0.608536,0.29572800000000005,-0.8713241,18.0075,12.1275,8.4175
1002,263827,0.635376,0.13078399999999998,-0.885476,20.3525,11.1475,7.9625
1003,263925,0.628788,0.22448,-0.869128,14.3675,8.7675,5.3725
1004,264022,0.576328,0.217404,-0.8615640999999999,11.3225,8.3125,3.5875
1005,264119,0.5702281,0.166652,-0.8666879999999999,10.3425,9.695,2.9575
1006,264216,0.596336,0.248392,-0.8410681000000001,7.0525,11.7075,1.75
1007,264313,0.541924,0.225944,-0.8479,7.42,12.4775,2.3275
1008,264410,0.571936,0.16592,-0.8430200999999999,9.695,14.665,2.8875
1009,264507,0.562664,0.180316,-0.8164239999999999,7.77,15.995,2.2925
1010,264604,0.552904,0.176656,-0.822768,6.7025,17.29,1.8375
1011,264701,0.541924,0.18788,-0.815936,6.405,18.795,2.1875
1012,264799,0.537532,0.22643200000000002,-0.81984,8.085,21.035,3.64
1013,264896,0.5294800000000001,0.268156,-0.807396,14.1225,23.1525,7.525
1014,264993,0.556076,0.305976,-0.8113001,23.065,24.99,13.51
1015,265090,0.564372,0.313784,-0.818376,31.7275,26.0575,21.3675
1016,265187,0.592432,0.228384,-0.786412,37.2225,27.2475,28.2625
1017,265284,0.5663239999999999,0.179584,-0.7700640999999999,37.0125,27.51,31.85
1018,265381,0.557052,0.158112,-0.7771399999999999,33.7225,28.0525,33.495
1019,265478,0.553148,0.14786400000000002,-0.79056,28.455,31.045,35.9275
1020,265575,0.5799880000000001,0.14152,-0.7861680999999999,21.875,36.5575,40.8625
1021,265673,0.6124400999999999,0.192272,-0.818376,13.65,42.6825,45.4825
1022,265770,0.623908,0.07246799999999999,-0.768844,10.99,48.3525,47.9325
1023,265867,0.642696,0.112728,-0.791292,4.095,53.41,49.9625
1024,265964,0.6441600000000001,0.053924,-0.778116,1.3475,55.685,50.925
1025,266061,0.633668,-0.019764,-0.74664,-0.21,57.82,49.8575
1026,266158,0.654652,0.008296000999999999,-0.753472,-3.955,60.9175,46.0425
1027,266255,0.592432,0.037088,-0.7849480999999999,-6.3875,63.4725,42.6125
1028,266352,0.571936,0.07612801,-0.814472,-8.0675,69.1775,39.935
1029,266449,0.59536,0.072956,-0.820816,-7.77,78.5925,37.2575
1030,266546,0.5690081,0.045627999999999995,-0.879864,-7.6475,91.875,34.86
1031,266644,0.586576,0.02074,-0.8862081,-5.4425,109.7775,30.73
1032,266741,0.614636,-0.00244,-0.83936,-1.2775,129.3775,25.48
1033,266838,0.6034121,-0.0017079999999999999,-0.8464360000000001,3.0275,148.6975,21.245
1034,266935,0.574864,-0.00366,-0.8215481,8.89,169.365,18.13
1035,267032,0.580232,-0.021228,-0.8195960999999999,14.84,192.115,15.19
1036,267129,0.5429,-0.08906,-0.7734800000000001,22.6625,218.4875,11.48
1037,267226,0.55998,-0.071492,-0.7951961,28.21,252.2625,5.8275
1038,267323,0.598532,0.034892,-0.8310639999999999,31.99,289.5725,1.505
1039,267420,0.619028,0.22716399999999998,-0.820572,27.685,288.4875,1.365
1040,267517,1.0565200000000001,0.200568,-0.614636,20.09,289.5375,12.3725
1041,267615,0.38356799999999996,0.16811600000000002,-1.0187,11.655,350.175,26.5125
1042,267712,0.8698601,0.32866799999999996,-1.1733959999999999,-11.41,406.56,31.6575
1043,267809,1.789984,0.182756,-1.038952,-21.735,479.01,38.5175
1044,267906,1.7514319999999999,0.262788,-0.9267120000000001,-36.1725,525.6825,41.335
1045,268003,2.0474040000000002,0.009516001,-0.887184,-30.4675,549.8325,34.0375
1046,268100,2.012268,-0.22716399999999998,-1.1331360000000001,-62.0375,568.575,13.09
1047,268197,2.514176,0.6832,-2.0342279999999997,-107.73,573.405,21.21
1048,268294,2.92922,0.304512,-2.757444,-62.3875,570.99,35.77
1049,268391,2.218692,0.30134,-2.006168,-56.4375,490.21,63.5425
1050,268488,1.217804,0.04392,-2.088884,-73.4825,421.2425,60.9525
1051,268586,3.38794,0.490684,-3.093188,-19.3725,279.615,94.5525
1052,268683,3.820064,0.741272,-4.267804,-16.835,101.7625,49.28
1053,268780,1.047492,0.670512,-2.8252759999999997,0.21,-170.835,40.8625
1054,268877,0.294752,0.484584,-1.946632,30.1175,-243.53,11.6025
1055,268974,0.21520799999999998,0.243756,-1.544764,47.81,-253.4,-10.0275
1056,269071,0.23838800000000002,0.015128,-1.282708,46.935,-252.105,-20.335
1057,269168,0.518744,-0.118584,-1.2456200000000002,26.2675,-263.9175,-25.34
1058,269265,0.7854361,-0.169336,-1.2439120000000001,-6.5275,-295.015,-27.405
1059,269362,0.894748,-0.148352,-1.17486,-41.02,-338.94,-27.86
1060,269459,0.819108,-0.09882,-1.03578,-68.5125,-383.2675,-26.985
1061,269557,0.760792,-0.054167999999999994,-0.8937719999999999,-86.94,-415.8525,-26.425
1062,269654,0.7517640999999999,-0.005612,-0.7856801,-96.84501,-432.4425,-25.97
1063,269751,0.7759199999999999,0.037576,-0.7183361,-100.415,-438.4625,-26.845
1064,269848,0.8317960999999999,0.119072,-0.685396,-98.77,-439.74,-30.275
1065,269945,0.8605879999999999,0.237168,-0.6956439999999999,-90.1075,-440.16,-35.21
1066,270042,0.873276,0.332084,-0.7141881,-71.155,-436.835,-37.7475
1067,270139,0.889136,0.339648,-0.734196,-44.625,-428.8375,-37.695
1068,270236,0.9398880999999999,0.257176,-0.7722600000000001,-20.1775,-416.3425,-37.9225
1069,270333,1.050664,0.161772,-0.8818159999999999,-7.98,-402.5875,-42.3325
1070,270431,1.23098,0.07564,-1.046516,-8.89,-390.81,-52.395
1071,270528,1.387384,-0.017324000000000003,-1.1855959999999999,-18.7775,-384.3,-66.1675
1072,270625,1.494256,-0.09906401,-1.264652,-34.79,-380.6775,-78.75
1073,270722,1.690432,-0.096868,-1.3651799999999998,-54.1975,-373.7125,-84.49
1074,270819,1.979816,-0.030012,-1.475468,-72.24,-364.2975,-81.60251
1075,270916,2.413404,-0.11467999999999999,-1.518168,-84.14001,-355.5125,-74.095
1076,271013,2.863828,-0.400648,-1.502796,-96.5825,-353.7275,-77.6475
1077,271110,3.350364,-0.538996,-1.3419999999999999,-126.5775,-362.9675,-96.5825
1078,271207,3.699528,-0.5948720000000001,-1.062864,-160.0375,-379.4175,-115.6575
1079,271304,3.8166480000000003,-0.268888,-0.6351319999999999,-185.045,-393.5925,-132.02
1080,271402,3.5492239999999997,0.321836,-0.040016,-170.03,-392.7875,-131.74
1081,271499,3.5650839999999997,0.565836,0.8486319999999999,-78.96,-354.76,-118.16
1082,271596,4.47618,0.360632,2.28628,48.0375,-301.7,-74.7075
1083,271693,4.484476,-0.6182960999999999,3.5589839999999997,113.645,-268.695,4.585
1084,271790,3.599244,-1.101416,4.023804,75.8625,-200.0075,56.595
1085,271887,2.757932,-0.335256,3.5201879999999997,-36.2425,-81.4975,44.66
1086,271984,2.562488,0.43773599999999996,2.309704,-91.56,52.815,-0.21
1087,272081,2.668384,1.130452,0.9564799999999999,-66.8325,155.3125,-47.8275
1088,272178,1.7672919999999999,1.191452,-0.35136,43.1725,213.9725,-84.28
1089,272276,0.22082,0.6836880999999999,-1.6030799999999998,141.2775,250.1275,-80.325
1090,272373,0.06466001,0.517524,-1.758752,139.3,234.815,-111.58
1091,272470,0.341356,-2.295064,-0.05587601,170.5725,256.69,-109.9
1092,272567,1.46766,-2.0474040000000002,-0.98088,88.55,340.9525,-116.7425
1093,272664,3.079524,-2.2723720000000003,-1.729716,14.9275,360.395,-72.135
1094,272761,2.528084,-1.220488,-1.541836,-35.6825,286.4225,-10.92
1095,272858,2.452932,1.756068,-1.991772,-77.0525,216.7025,25.865
1096,272955,1.4152,2.220644,-1.1895,9.485,148.8375,13.125
1097,273052,1.415932,-0.517524,-1.285148,114.1175,121.5375,21.175
1098,273149,1.240984,-0.35160399999999997,-1.021384,88.1475,85.75,49.98
1099,273247,0.8210601000000001,0.31402800000000003,-0.89792,55.475,38.605,41.405
1100,273344,0.9289081,0.11541199999999999,-0.83936,55.4575,23.0125,29.75
1101,273441,0.68076,0.358192,-0.8810841,43.645,7.385,26.3725
1102,273538,0.656116,0.291824,-0.863516,36.715,2.6075,26.5475
1103,273635,0.62952,0.011224,-0.8410681000000001,40.775,3.465,26.32
1104,273732,0.64172,0.11224,-0.832528,30.1525,3.675,20.5975
1105,273829,0.568764,0.174948,-0.885964,23.345,4.27,16.135
1106,273926,0.5873079999999999,0.09930800000000001,-0.8559521000000001,23.9925,7.0175,16.2575
1107,274023,0.6109760000000001,0.121512,-0.8254520000000001,20.0725,10.745,14.6475
1108,274121,0.57706,0.079056,-0.8322841000000001,18.2,11.2175,14.0525
1109,274218,0.57462,-0.006344,-0.826672,16.205,13.86,11.55
1110,274315,0.582916,-0.005856,-0.81618,11.2875,16.975,7.4375
1111,274412,0.558028,0.0793,-0.8317960999999999,5.8975,19.7575,3.85
1112,274509,0.555588,0.133468,-0.8283799999999999,4.7775,23.2225,2.7475
1113,274606,0.562908,0.171044,-0.826672,5.9675,27.755,3.955
1114,274703,0.554124,0.162504,-0.821792,8.295,31.9725,6.8075
1115,274800,0.56852,0.190808,-0.840824,8.645,35.77,11.7425
1116,274897,0.5795,0.14005599999999999,-0.80642,7.175,39.76,17.605
1117,274995,0.592188,0.17616800000000002,-0.8052,2.6075,44.345,24.78
1118,275092,0.595116,0.17641199999999999,-0.8147161,0.6125,50.3825,30.625
1119,275189,0.630252,0.146156,-0.796172,0.3675,56.1925,35.315
1120,275286,0.649284,0.129076,-0.772748,-2.6075,59.2375,41.37
1121,275383,0.647332,0.007808001,-0.729072,-0.385,60.8125,43.75
1122,275480,0.6373281,0.014396,-0.7390760000000001,-3.885,61.5125,44.1175
1123,275577,0.642452,-0.013908000000000002,-0.73444,-4.3925,62.4575,42.945
1124,275674,0.6224441,0.000244,-0.740296,-5.775,63.7175,40.88
1125,275771,0.6224441,0.037332,-0.768356,-6.51,65.9575,38.2375
1126,275868,0.638304,0.020252000000000003,-0.7732359999999999,-4.9175,70.49,36.82
1127,275966,0.606584,0.015372,-0.814472,-3.7975,78.27750999999999,35.1575
1128,276063,0.6231760999999999,0.023912,-0.8091041,-2.5725,88.6725,33.4425
1129,276160,0.6451359999999999,0.022692,-0.797636,-1.3125,100.1,31.745
1130,276257,0.621468,-0.003904,-0.8308200000000001,1.2075,112.8225,29.0675
1131,276354,0.609268,-0.017568,-0.826672,4.8475,128.6775,24.85
1132,276451,0.604876,-0.068076,-0.8105680000000001,10.0975,147.2625,19.95
1133,276548,0.582916,-0.053191999999999996,-0.8015399999999999,12.985,168.0875,15.645
1134,276645,0.5724239999999999,-0.063684,-0.7600600000000001,18.4975,194.0575,12.775
1135,276742,0.545096,-0.122244,-0.76372,24.5,224.665,9.6425
1136,276839,0.530456,-0.06880801,-0.8127641,31.2375,261.38,6.2125
1137,276937,1.434476,0.0427,-1.456192,37.8875,300.2475,4.55
1138,277034,0.354044,0.054655999999999996,-1.517436,35.525,284.585,10.745
1139,277131,0.75274,0.19739600000000002,-1.544764,29.085,324.765,23.87
1140,277228,0.9110959999999999,0.227408,-1.1209360000000002,25.7775,397.285,39.305
1141,277325,1.585024,0.221308,-1.139968,4.27,474.7925,48.7025
1142,277422,1.978596,0.23692399999999997,-1.260016,-8.4175,536.34,57.8375
1143,277519,1.784128,0.219844,-1.1204479999999999,0.4725,566.335,63.6125
1144,277616,2.210884,-0.42431599999999997,-1.21146,-14.525,573.3,43.1025
1145,277713,2.4888,0.48702399999999996,-2.037888,-77.54251,573.405,34.8075
1146,277810,2.83406,0.611952,-3.186152,-55.545,572.635,43.1375
1147,277908,2.611532,0.346968,-2.1718439999999997,-65.52,509.705,67.795
1148,278005,1.3268719999999998,0.248392,-2.12036,-98.035,430.1675,67.165
1149,278102,3.338164,0.4514,-2.609824,-36.5925,269.6225,110.4425
1150,278199,4.2809800000000005,0.9947881,-4.4878919999999995,-45.3775,98.84000999999999,56.0
1151,278296,1.051884,0.9128040000000001,-2.647888,-29.6975,-189.0175,44.8175
1152,278393,0.24668400000000001,0.790804,-1.828048,11.13,-254.625,15.12
1153,278490,0.21228000000000002,0.500688,-1.425936,46.1475,-263.1125,-10.2025
1154,278587,0.266936,0.25058800000000003,-1.149972,59.9025,-259.875,-28.4375
1155,278684,0.444324,0.014152000000000001,-1.048956,48.5625,-272.335,-43.7325
1156,278782,0.617564,-0.069052,-1.039684,15.3475,-301.5775,-58.1175
1157,278879,0.710284,-0.066856,-1.003084,-21.14,-337.82,-69.825
1158,278976,0.6897880999999999,-0.026351999999999997,-0.9325680000000001,-47.9325,-371.875,-76.3525
1159,279073,0.636596,0.010736,-0.835456,-63.4725,-397.915,-78.26
1160,279170,0.6097560000000001,0.03904,-0.738588,-68.74,-413.14,-77.385
1161,279267,0.6075600999999999,0.056608000000000006,-0.68076,-67.6025,-417.235,-76.02
1162,279364,0.6722199999999999,0.092964,-0.6675840000000001,-62.895,-414.5575,-76.30001
1163,279461,0.762744,0.14274,-0.701256,-54.775,-410.305,-75.8975
1164,279558,0.85156,0.15616,-0.756888,-43.19,-406.84,-73.09751
1165,279656,0.976,0.126392,-0.8256960999999999,-32.06,-403.375,-68.81
1166,279753,1.070916,0.09540401,-0.895236,-26.2675,-402.0625,-65.38
1167,279850,1.1716879999999998,0.07515201,-0.9867360999999999,-26.3375,-401.7475,-63.7525
1168,279947,1.299544,0.047580000000000004,-1.093852,-30.555,-400.785,-63.805
1169,280044,1.438868,-0.017568,-1.200968,-37.87,-399.595,-64.9075
1170,280141,1.568676,-0.115656,-1.271484,-51.38,-398.3,-66.7625
1171,280238,1.775832,-0.146156,-1.327848,-72.59,-395.6575,-67.2875
1172,280335,2.094984,-0.052216,-1.40056,-97.23001,-391.475,-63.805
1173,280432,2.419748,-0.011224,-1.430328,-115.255,-386.855,-56.98
1174,280529,2.692296,-0.311344,-1.28588,-126.77,-384.0725,-58.31
1175,280627,3.049268,-0.47823999999999994,-1.149484,-149.1875,-380.5725,-81.445
1176,280724,3.3874519999999997,-0.5975560000000001,-0.9272,-183.3125,-379.9075,-111.79
1177,280821,3.566792,-0.332084,-0.593164,-211.4875,-375.1475,-143.71
1178,280918,3.581432,0.339404,-0.18446400000000002,-202.685,-359.8,-163.345
1179,281015,3.4957879999999997,0.753228,0.50264,-117.6175,-323.2075,-162.6275
1180,281112,4.56524,0.8413120000000001,1.7638759999999998,24.675,-271.5475,-139.5975
1181,281209,5.028596,-0.05612,3.201524,135.66,-255.5175,-69.86
1182,281306,4.010628,-1.07726,3.907172,150.4825,-219.3975,-7.6825
1183,281403,2.832352,-0.788852,3.6612199999999997,50.575,-120.785,-3.9375
1184,281500,2.480748,-0.082472,2.580788,-41.7375,18.9525,-43.7325
1185,281598,2.5053919999999996,0.817156,1.047248,-58.0825,136.3075,-90.63251
1186,281695,1.818532,1.0086959999999998,-0.50508,35.6475,208.53,-118.9125
1187,281792,0.423096,0.42895200000000006,-1.755336,127.68,239.1025,-106.785
1188,281889,-0.35160399999999997,0.533384,-1.512068,125.615,218.505,-123.3925
1189,281986,0.111996,-2.509784,0.04148,179.375,254.415,-90.755
1190,282083,1.465708,-1.9068599999999998,-1.129476,83.755,350.56,-89.775
1191,282180,2.83772,-1.824876,-1.57502,0.0175,370.16,-60.69
1192,282277,2.125972,-1.007476,-1.33712,-39.8475,300.0725,-16.8175
1193,282374,2.4443919999999997,1.482056,-2.175504,-84.245,253.12,5.215
1194,282471,1.932236,2.5315,-1.331508,1.12,182.5075,4.6375
1195,282569,1.7992560000000002,-0.423828,-1.313696,116.725,133.7875,19.81
1196,282666,1.15656,-0.542168,-1.042124,91.7525,87.43,43.925
1197,282763,0.8547319999999999,0.258396,-0.858392,35.8925,44.5025,30.94
1198,282860,0.9037761000000001,0.245952,-0.9767321,25.725,30.5725,14.455
1199,282957,0.667096,0.36722,-0.8296,24.5525,11.7075,13.3
1200,283054,0.618784,0.391864,-0.8554641,23.38,8.715,16.2925
1201,283151,0.619516,0.14152,-0.860344,32.025,7.105,20.02
1202,283248,0.665144,0.128344,-0.85644,29.1025,9.03,19.3025
1203,283345,0.598532,0.182756,-0.856196,23.3975,6.3875,15.5925
1204,283442,0.52704,0.17616800000000002,-0.8725440999999999,21.7875,7.665,13.895
1205,283540,0.60146,0.183976,-0.8271601000000001,21.9625,11.6725,13.8775
1206,283637,0.575596,0.213256,-0.8405800999999999,20.265,12.7225,13.9125
1207,283734,0.5636399999999999,0.12468399999999999,-0.832528,21.07,13.405,14.1225
1208,283831,0.599264,0.07076001,-0.812032,18.9175,15.1375,12.5125
1209,283928,0.58316,0.08296,-0.815936,13.16,15.8025,8.7325
1210,284025,0.5594920999999999,0.13151600000000002,-0.820572,8.3825,17.36,5.5825
1211,284122,0.5612,0.1647,-0.81252,7.945,20.3,4.8825
1212,284219,0.5458281,0.203008,-0.805932,12.005,22.7675,7.385
1213,284316,0.5675439999999999,0.21520799999999998,-0.8195960999999999,20.02,24.815,12.425
1214,284414,0.5777920999999999,0.213256,-0.807884,24.535,27.3175,17.955
1215,284511,0.59658,0.23058,-0.780312,25.0425,28.56,24.5525
1216,284608,0.5797441,0.23472800000000002,-0.776896,22.89,30.38,31.745
1217,284705,0.6307401,0.192272,-0.7483479999999999,20.0725,30.59,39.9
1218,284802,0.538996,0.158356,-0.7869,13.965,31.6225,45.7625
1219,284899,0.593164,0.13176,-0.8044680999999999,11.8125,33.8975,49.07
1220,284996,0.6675840000000001,0.101504,-0.743224,11.305,35.3675,50.085
1221,285093,0.6497721,0.048068,-0.739564,6.3875,37.52,51.905
1222,285190,0.620004,0.008296000999999999,-0.778604,4.0425,38.395,52.4475
1223,285288,0.5785241,-0.012688,-0.79666,1.19,41.965,50.47
1224,285385,0.580476,0.016104,-0.821792,-2.135,48.4575,47.5825
1225,285482,0.559004,-0.002928,-0.85034,-3.4825,58.135,44.7825
1226,285579,0.5516840000000001,-0.022448,-0.83814,-4.445,71.1025,40.9325
1227,285676,0.56242,-0.049044,-0.8713241,-4.9175,86.9225,35.245
1228,285773,0.57096,-0.030987999999999998,-0.8847440999999999,-4.9875,105.4725,28.4725
1229,285870,0.5958479999999999,-0.049532,-0.89426,-1.8725,125.4225,20.65
1230,285967,0.599508,-0.10052799999999999,-0.897432,3.0625,145.915,12.81
1231,286064,0.544608,-0.072712,-0.853024,7.0875,167.5625,5.0925
1232,286161,0.5636399999999999,-0.08808401,-0.8383841000000001,10.3775,190.0325,-0.3325
1233,286259,0.5185,-0.135176,-0.8115439999999999,16.6425,215.005,-4.3925
1234,286356,0.50142,-0.055388,-0.8203280000000001,23.2925,248.3775,-9.73
1235,286453,0.44237200000000004,0.032695999999999996,-0.823744,27.86,289.03,-12.8275
1236,286550,1.299544,0.148108,-1.412272,28.525,335.0375,-10.99
1237,286647,0.07173600000000001,0.14566800000000002,-1.3912879999999999,19.88,319.8125,-1.2075
1238,286744,0.431148,0.155428,-1.493524,5.9325,351.785,14.455
1239,286841,0.942084,0.321592,-1.210972,-12.7925,423.85,22.47
1240,286938,1.7097080000000002,0.282552,-1.0919,-34.2475,499.8,26.8975
1241,287035,1.7284959999999998,0.37942,-0.8823040000000001,-42.9625,551.215,33.5475
1242,287133,2.075952,0.0061,-1.4842520000000001,-43.4525,571.83,28.4375
1243,287230,2.262124,-0.303048,-1.038952,-81.77750999999999,573.405,7.91
1244,287327,2.551996,0.35258,-1.84952,-154.28,573.405,5.3025
1245,287424,2.813564,0.370392,-2.856264,-137.6375,571.445,16.45
1246,287521,2.623732,0.6600201,-2.167452,-158.5675,495.39,44.0825
1247,287618,0.936716,0.38918,-2.008852,-152.075,410.445,76.37001
1248,287715,3.905464,0.5726680000000001,-3.74906,-68.74,247.8,121.4675
1249,287812,3.5658160000000003,1.036512,-4.22486,-63.56,42.245,69.755
1250,287909,0.6512359999999999,0.8483879999999999,-2.551752,-29.155,-221.9,67.3925
1251,288007,0.07222401,0.69418,-1.7348400000000002,6.8425,-263.1475,38.0625
1252,288104,0.11028800000000001,0.43676000000000004,-1.366156,25.3925,-259.0175,12.6525
1253,288201,0.31402800000000003,0.223504,-1.212924,26.8625,-250.4075,-5.145
1254,288298,0.6944241,0.09125599999999999,-1.21268,7.735,-264.6525,-22.05
1255,288395,0.9018241,0.063196,-1.212924,-22.54,-305.41,-37.5025
1256,288492,0.850584,0.07564,-1.1163,-49.945,-355.8275,-49.735
1257,288589,0.7451760000000001,0.096868,-0.9828321,-68.1975,-395.4825,-58.8175
1258,288686,0.6954,0.142496,-0.8664440000000001,-76.755,-417.27,-66.815
1259,288783,0.6958880000000001,0.17055599999999999,-0.769332,-75.915,-425.5475,-73.8675
1260,288880,0.7105279999999999,0.186904,-0.7017439999999999,-68.565,-427.385,-80.5
1261,288978,0.750544,0.197884,-0.680028,-56.665,-424.0075,-85.78501
1262,289075,0.815204,0.211792,-0.7007680000000001,-41.3,-417.165,-88.0775
1263,289172,0.8949921000000001,0.205936,-0.748104,-24.64,-409.3425,-86.4325
1264,289269,0.9867360999999999,0.16714,-0.8105680000000001,-10.2375,-402.325,-82.7575
1265,289366,1.096536,0.119804,-0.8964561,-1.575,-396.41,-79.24
1266,289463,1.233908,0.07710399999999999,-1.011136,-0.4375,-391.615,-77.735
1267,289560,1.397632,0.015128,-1.145092,-5.1275,-389.025,-78.8025
1268,289657,1.535004,-0.07222401,-1.244156,-14.735,-388.7275,-81.235
1269,289754,1.730692,-0.1464,-1.301496,-30.8525,-388.78,-82.565
1270,289851,2.01422,-0.081496,-1.380552,-51.94,-388.1675,-79.31
1271,289949,2.352648,-0.010248,-1.395924,-67.7775,-388.255,-70.7525
1272,290046,2.513932,-0.271328,-1.249524,-72.3625,-389.3225,-66.99
1273,290143,2.7054720000000003,-0.44676400000000005,-1.0492,-85.62751,-384.3175,-78.925
1274,290240,2.95118,-0.685884,-0.860344,-113.3125,-371.63,-96.53
1275,290337,3.4433279999999997,-0.6566041,-0.687592,-152.425,-352.135,-123.9525
1276,290434,3.8369,0.10052799999999999,-0.519964,-180.635,-340.1125,-148.5225
1277,290531,3.7246599999999996,1.013576,-0.030987999999999998,-143.2725,-333.8475,-149.5375
1278,290628,3.908148,1.2014559999999999,1.006256,-10.2025,-309.8375,-131.5475
1279,290725,4.694072,0.521184,2.5498,142.8,-282.5025,-85.575
1280,290823,4.546696,-0.869128,3.682204,191.03,-264.74,-20.7025
1281,290920,3.19274,-1.2458639999999999,4.011116,97.475,-200.13,1.6975
1282,291017,2.305312,-0.383324,3.42942,-54.95,-70.875,-32.4975
1283,291114,2.44488,0.48848800000000003,2.085956,-114.73,78.6975,-75.915
1284,291211,2.6871720000000003,1.178764,0.5697399999999999,-73.1325,180.915,-100.73
1285,291308,1.8512279999999999,0.9943001,-1.375916,38.3775,219.8525,-101.185
1286,291405,0.331108,0.7854361,-1.9412639999999999,103.145,217.5775,-87.88501
1287,291502,-0.515084,0.345992,-1.282464,125.965,196.2625,-85.90751
1288,291599,0.003904,-2.324344,0.056852,175.7,239.7325,-52.5175
1289,291696,1.413736,-1.65798,-1.0887280000000001,76.965,329.7,-67.9
1290,291794,2.5622439999999997,-1.39934,-1.525488,-0.5425,346.885,-55.685
1291,291891,2.008364,-0.934276,-1.146312,-28.945,289.485,-19.67
1292,291988,2.431216,1.198284,-2.1774560000000003,-74.865,246.9075,-3.99
1293,292085,2.233088,2.124996,-1.479128,-3.92,180.11,0.56
1294,292182,1.62992,-0.31964000000000004,-1.274656,94.08,117.4425,18.34
1295,292279,1.078724,-0.5160600000000001,-0.9328120000000001,73.465,78.4,39.3575
1296,292376,0.9391560999999999,0.24278000000000002,-0.9494040000000001,28.91,37.8525,28.7175
1297,292473,0.7449321,0.193248,-0.780556,19.3025,18.34,12.565
1298,292570,0.718824,0.208132,-0.877912,19.145,10.3775,9.485
1299,292667,0.642696,0.345748,-0.869128,15.2425,1.365,7.385
1300,292764,0.57828,0.307196,-0.8552200000000001,16.7125,2.3975,10.0275
1301,292862,0.5692520000000001,0.219112,-0.8666879999999999,21.91,5.005,13.965
1302,292959,0.598288,0.211792,-0.849608,22.05,7.595,15.1025
1303,293056,0.5948720000000001,0.11394800000000001,-0.8549761,21.945,8.8375,14.9275
1304,293153,0.539484,0.185684,-0.8615640999999999,18.3575,9.73,13.7025
1305,293250,0.6036560999999999,0.18470799999999998,-0.8296,17.71,13.0725,13.265
1306,293347,0.5799880000000001,0.137128,-0.8410681000000001,17.71,14.42,12.67
1307,293444,0.603168,0.07027201,-0.824232,16.1175,14.98,10.815
1308,293541,0.59658,0.051484,-0.807884,11.2525,16.2225,6.86
1309,293638,0.567056,0.137128,-0.8188641,5.32,17.78,3.045
1310,293735,0.544608,0.15054800000000002,-0.813984,4.305,21.245,2.275
1311,293832,0.540948,0.186416,-0.81374,7.5775,25.095,4.1475
1312,293930,0.556808,0.21301199999999998,-0.822524,14.4725,27.685,7.77
1313,294027,0.566812,0.192272,-0.8115439999999999,18.6725,30.6425,12.0925
1314,294124,0.5838920999999999,0.195688,-0.794708,18.935,32.8125,17.3775
1315,294221,0.6070720000000001,0.203984,-0.763232,18.655,34.23,23.87
1316,294318,0.5885281,0.264984,-0.7829961,19.2325,36.155,31.29
1317,294415,0.604876,0.271084,-0.792756,18.2175,38.01,38.535
1318,294512,0.6566041,0.090768,-0.749324,20.2475,39.9175,43.435
1319,294609,0.633668,0.09979600000000001,-0.76372,14.84,41.44,45.3425
1320,294706,0.6893,0.07027201,-0.7315119999999999,8.26,41.5275,45.5175
1321,294803,0.6314721,0.045384,-0.781532,4.9525,41.37,45.885
1322,294901,0.60634,-0.012688,-0.7522521,4.2175,42.77,44.3975
1323,294998,0.6141479999999999,-0.000732,-0.7854361,-0.49,46.8125,41.965
1324,295095,0.566812,-0.002928,-0.835456,-2.6775,53.27,38.535
1325,295192,0.571692,-0.003904,-0.8276481,-3.01,63.5425,34.2825
1326,295289,0.574132,-0.009272001,-0.8632719999999999,-3.8325,78.27750999999999,30.0825
1327,295386,0.576572,-0.026108,-0.879376,-3.8675,96.1275,25.0075
1328,295483,0.593896,-0.015616,-0.885476,-2.7825,116.305,18.9
1329,295580,0.5734,-0.03782,-0.856684,2.0825,136.5,12.81
1330,295677,0.567056,-0.042456,-0.8508280999999999,6.0025,157.6925,6.3875
1331,295774,0.577548,-0.09125599999999999,-0.797636,8.8375,178.9725,1.5575
1332,295872,0.555832,-0.164944,-0.8220360000000001,13.195,202.9825,-3.57
1333,295969,0.5084960000000001,-0.081984,-0.813984,19.495,233.2225,-10.5525
1334,296066,0.46116,0.080276,-0.85034,23.17,272.7025,-15.3125
1335,296163,0.605364,0.13176,-1.0126,27.405,318.6925,-13.86
1336,296260,0.132004,0.07490801,-1.441552,17.8325,317.8525,-6.37
1337,296357,0.645868,0.238632,-1.6875040000000001,3.465,332.255,9.1175
1338,296454,0.9764879999999999,0.28938400000000003,-1.126792,-4.655,410.0775,23.24
1339,296551,1.444968,0.3172,-1.1387479999999999,-29.435,492.8,28.8925
1340,296648,1.942484,0.366732,-1.232932,-38.3075,549.78,36.7325
1341,296745,1.7275200000000002,0.1342,-1.458388,-41.72,571.76,36.4525
1342,296843,2.3780240000000004,-0.499712,-1.004792,-62.4225,573.405,16.2925
1343,296940,2.3321520000000002,0.4819,-1.7992560000000002,-130.3575,573.3875,14.7175
1344,297037,2.805512,0.3965,-2.602504,-108.255,573.3175,24.9025
1345,297134,2.7130360000000002,0.6319600000000001,-2.26554,-106.5575,522.2525,57.155
1346,297231,1.483276,0.38795999999999997,-2.021784,-117.7225,439.8275,76.4925
1347,297328,2.876028,0.272548,-2.520276,-34.23,287.0875,131.81
1348,297425,4.330756,0.796172,-4.67748,-29.3125,102.795,89.0225
1349,297522,0.9806360000000001,0.619272,-2.742316,-21.9275,-195.8075,80.955
1350,297619,0.20008,0.553636,-1.8409799999999998,-1.2775,-266.7525,50.925
1351,297716,0.14078800000000002,0.417972,-1.397144,11.4625,-277.165,21.3675
1352,297814,0.1952,0.25986,-1.1204479999999999,16.8175,-271.95,2.9575
1353,297911,0.50142,0.14566800000000002,-1.072868,10.185,-278.915,-10.3425
1354,298008,0.749568,0.07637200000000001,-1.057984,-7.5075,-306.985,-21.42
1355,298105,0.7812880999999999,0.053924,-0.987712,-28.8925,-346.6225,-31.4475
1356,298202,0.701012,0.058316,-0.8796200000000001,-46.795,-381.955,-40.5125
1357,298299,0.661484,0.098576,-0.797148,-59.1675,-403.3225,-48.7025
1358,298396,0.689056,0.145424,-0.7510321,-62.9475,-413.035,-55.055
1359,298493,0.74908,0.167872,-0.721508,-59.745,-416.7975,-59.4125
1360,298590,0.84424,0.193492,-0.7317560000000001,-53.305,-418.9325,-63.8225
1361,298688,0.9049959999999999,0.214964,-0.7320001,-44.065,-420.8225,-67.55001
1362,298785,0.9701440999999998,0.215452,-0.753472,-33.845,-421.3475,-69.3175
1363,298882,1.076284,0.211304,-0.800808,-24.8325,-419.615,-68.25
1364,298979,1.15534,0.20252,-0.8522921,-18.935,-417.935,-65.835
1365,299076,1.2517200000000002,0.164456,-0.9345201,-16.9225,-414.9075,-64.47
1366,299173,1.39202,0.101748,-1.047736,-19.2675,-410.305,-66.29
1367,299270,1.574288,0.015128,-1.1660760000000001,-28.0525,-406.3325,-70.385
1368,299367,1.7397200000000002,-0.050508,-1.24684,-45.6575,-404.425,-74.0775
1369,299464,1.9890880000000002,-0.053436000000000004,-1.289052,-71.1025,-402.6575,-74.04251
1370,299562,2.3014080000000003,0.027816000000000004,-1.339804,-98.3325,-399.14,-70.4375
1371,299659,2.6827799999999997,0.039528,-1.328336,-119.4725,-394.485,-66.71
1372,299756,2.887252,-0.26474000000000003,-1.2104840000000001,-131.0225,-392.0525,-76.265
1373,299853,3.130032,-0.3965,-1.028704,-151.0075,-388.6575,-102.6025
1374,299950,3.2896080000000003,-0.37551599999999996,-0.767868,-168.6825,-381.9025,-128.59
1375,300047,3.305712,0.07222401,-0.384788,-167.44,-366.205,-153.5275
1376,300144,3.2766759999999997,0.619272,0.160308,-113.75,-333.06,-164.57
1377,300241,4.162640000000001,0.955992,1.252208,5.46,-285.46,-150.0975
1378,300338,4.773372,0.24863600000000002,2.798192,126.6125,-267.2075,-83.58001
1379,300435,4.09554,-1.077504,3.743204,168.77,-239.75,-3.7275
1380,300532,3.000468,-1.049688,3.6246199999999997,76.125,-155.1375,21.4725
1381,300630,2.4512240000000003,-0.238144,2.800632,-42.91,-26.8275,-5.985
1382,300727,2.536624,0.5104479999999999,1.518168,-75.35501,93.4675,-45.8675
1383,300824,2.47782,1.046028,0.342088,-29.995,167.1075,-80.7975
1384,300921,1.8512279999999999,0.759572,-0.733952,73.6225,206.57,-95.41
1385,301018,0.07417601,0.438712,-1.470344,137.095,224.245,-82.3725
1386,301115,-0.148108,0.10614000000000001,-1.567456,139.4925,213.8675,-93.1175
1387,301212,0.19276,-2.2387,-0.202764,153.79,245.4725,-83.405
1388,301310,1.35176,-1.783396,-0.9394,64.6975,320.1625,-102.095
1389,301406,2.6779,-1.669936,-1.544032,-7.6125,341.145,-76.3525
1390,301504,2.1240200000000002,-1.098976,-1.2373239999999999,-42.5075,280.595,-28.49
1391,301601,2.34728,1.3176,-2.102548,-91.5775,231.8575,-3.6575
1392,301698,2.057896,2.603236,-1.444968,-22.05,163.52,-2.555
1393,301795,1.625528,-0.509716,-1.2756319999999999,96.6875,108.5875,7.945
1394,301892,1.000644,-0.591212,-1.0438319999999999,66.01,72.4675,33.495
1395,301989,0.757376,0.260592,-0.8852321,20.405,36.4525,21.77
1396,302086,0.9315921,0.158844,-0.9484280999999999,17.9375,29.3475,4.7075
1397,302183,0.628544,0.353312,-0.7986121,8.4175,6.5975,2.1
1398,302280,0.643184,0.428464,-0.858392,9.3275,4.34,5.7925
1399,302378,0.619028,0.17738800000000002,-0.830332,19.8625,3.7975,11.1125
1400,302475,0.59658,0.219112,-0.8405800999999999,17.4475,3.255,11.725
1401,302572,0.589016,0.245952,-0.8693719999999999,18.2525,4.375,12.705
1402,302669,0.5636399999999999,0.09150001,-0.8620521000000001,21.175,6.8075,13.58
1403,302766,0.596336,0.170312,-0.8383841000000001,17.2725,8.435,12.3725
1404,302863,0.58804,0.185928,-0.836676,14.98,9.905,11.235
1405,302960,0.571692,0.0854,-0.8352120000000001,15.9425,10.7275,10.78
1406,303057,0.5887720000000001,0.038064,-0.8149601,12.985,12.355,7.7
1407,303154,0.579012,0.068564,-0.81252,6.8425,13.9475,2.7475
1408,303251,0.555832,0.13785999999999998,-0.8222799999999999,1.9425,16.345,-0.77
1409,303349,0.533384,0.18544000000000002,-0.8296,3.5,19.6875,-0.77
1410,303446,0.549488,0.23668000000000003,-0.8169121,9.38,23.0825,2.415
1411,303543,0.547048,0.245952,-0.813496,17.08,26.1625,7.5775
1412,303640,0.551928,0.26474000000000003,-0.79422,22.2775,29.8375,13.825
1413,303737,0.581208,0.23228800000000002,-0.791048,26.46,32.7775,21.0
1414,303834,0.610244,0.217404,-0.763476,25.6025,35.3675,27.16
1415,303931,0.6229319999999999,0.188856,-0.7700640999999999,20.9825,37.415,32.34
1416,304028,0.6222,0.209108,-0.7793359999999999,15.1025,37.3625,38.4825
1417,304125,0.539484,0.105896,-0.803492,13.1775,39.445,43.2425
1418,304222,0.648796,0.07515201,-0.780312,10.2025,40.39,44.6775
1419,304320,0.671244,0.067832,-0.7266321,2.8525,41.1775,45.9725
1420,304417,0.636596,0.014396,-0.7361481,0.7875,42.1225,46.0775
1421,304514,0.60878,-0.01586,-0.764696,-0.7525,43.61,43.4
1422,304611,0.5978,0.027572000000000003,-0.78446,-3.3775,47.775,40.25
1423,304708,0.579012,0.020252000000000003,-0.808372,-5.0225,53.7425,38.57
1424,304805,0.552172,0.049532,-0.83204,-4.795,62.2125,35.9275
1425,304902,0.579012,0.037332,-0.8276481,-4.4625,75.11,33.075
1426,304999,0.583404,0.052703999999999994,-0.8518040000000001,-4.585,91.2275,30.4675
1427,305096,0.595116,-0.018544,-0.865468,-2.3275,108.2375,26.2675
1428,305194,0.61732,-0.050996,-0.8652241,1.435,126.07,20.6675
1429,305291,0.580964,-0.039772,-0.8400921,5.0925,145.3375,13.1775
1430,305388,0.5726680000000001,-0.108824,-0.8015399999999999,7.98,165.4625,6.685
1431,305485,0.5846241,-0.14152,-0.8547319999999999,11.2525,187.0925,-0.3675
1432,305582,0.533872,-0.11224,-0.8230120999999999,17.6225,214.06,-7.3675
1433,305679,0.49288000000000004,-0.002684,-0.83936,23.24,249.0075,-12.39
1434,305776,0.5023960999999999,0.101504,-0.8071520000000001,26.5475,290.605,-14.525
1435,305873,1.5967360000000002,0.172996,-1.46278,22.96,326.13,-10.675
1436,305970,0.8437520000000001,0.2196,-0.547292,8.7675,300.1075,-0.7525
1437,306067,0.438712,0.2501,-1.037,-7.0875,364.6825,10.29
1438,306165,1.013332,0.406748,-1.284416,-24.99,435.26,18.6725
1439,306262,1.911984,0.299144,-1.196576,-38.08,510.6325,25.34
1440,306359,1.849032,0.36941599999999997,-0.8174001000000001,-47.6175,557.585,31.4825
1441,306456,2.80112,-0.1037,-0.508008,-48.405,572.355,21.4375
1442,306553,2.038132,-0.044407999999999996,-1.254648,-99.715,573.2475,5.81
1443,306650,2.694004,0.282796,-1.741184,-141.4175,573.405,5.18
1444,306747,2.85724,0.5121560000000001,-2.610312,-117.74,560.875,21.9625
1445,306844,2.251632,0.541192,-2.2540720000000003,-136.605,471.7825,47.2675
1446,306941,0.562908,0.28304,-2.560536,-125.0025,397.3375,79.7475
1447,307038,4.776056,0.608536,-4.570608,-56.84,255.885,119.3325
1448,307135,2.776964,0.7439560000000001,-3.4799279999999997,-54.2675,42.9275,86.7475
1449,307233,0.9830760000000001,0.7417600000000001,-2.599332,-29.96,-175.805,82.0925
1450,307330,0.406992,0.6202479999999999,-1.779004,-2.065,-246.3475,53.0425
1451,307427,0.295484,0.48263199999999995,-1.410808,19.4775,-261.59,31.325
1452,307524,0.354532,0.303292,-1.176812,29.26,-268.6775,14.9625
1453,307621,0.6080479999999999,0.146644,-1.1163,22.9425,-286.1775,0.805
1454,307718,0.735416,0.06588,-1.042368,0.595,-322.385,-13.9125
1455,307815,0.696376,0.043432,-0.93696,-27.23,-362.075,-28.595
1456,307912,0.664168,0.064416,-0.8274040000000001,-50.26,-392.2275,-41.7725
1457,308009,0.664168,0.111996,-0.754448,-64.8025,-409.885,-51.8525
1458,308106,0.708332,0.150304,-0.71614,-69.615,-418.075,-58.3975
1459,308204,0.7600600000000001,0.17202,-0.695156,-66.4125,-422.2225,-62.3175
1460,308301,0.8376520000000001,0.203008,-0.7076001000000001,-59.4825,-424.48,-65.8
1461,308398,0.9232961,0.232044,-0.733464,-49.1225,-425.32,-67.9875
1462,308495,0.968924,0.2318,-0.747128,-36.015,-425.8975,-67.83
1463,308592,1.0079639999999999,0.19959200000000002,-0.7788480999999999,-23.2575,-424.0775,-65.50251
1464,308689,1.110444,0.134688,-0.8491200000000001,-14.5425,-418.18,-62.3
1465,308786,1.24318,0.06832001,-0.944768,-13.1775,-411.5825,-60.8475
1466,308883,1.3969,0.012931999999999999,-1.071648,-19.6525,-406.875,-62.23
1467,308980,1.567944,-0.0488,-1.18828,-32.3225,-404.4075,-65.94
1468,309078,1.6635919999999997,-0.11028800000000001,-1.245132,-50.8025,-403.1125,-70.1575
1469,309175,1.8773360000000001,-0.128832,-1.301252,-74.9525,-397.32,-72.3275
1470,309272,2.27164,-0.041968,-1.424716,-99.5575,-386.9425,-72.135
1471,309369,2.6632599999999997,-0.162992,-1.372256,-116.6725,-380.1,-71.85501
1472,309466,2.91092,-0.274012,-1.282708,-131.7225,-378.945,-85.96
1473,309563,3.1766360000000002,-0.417728,-1.086288,-152.32,-379.26,-109.9175
1474,309660,3.3542680000000002,-0.29646,-0.829356,-169.6975,-375.025,-137.9875
1475,309757,3.415268,0.289628,-0.472384,-163.625,-363.5275,-162.2075
1476,309854,3.390136,0.7666480999999999,0.198128,-93.8175,-337.12,-168.6125
1477,309951,4.162640000000001,1.110932,1.4339879999999998,34.7725,-297.255,-146.02
1478,310049,4.646491999999999,0.245952,3.000712,151.3225,-280.6125,-70.5425
1479,310146,3.8005440000000004,-0.999668,3.874476,175.42,-243.3025,0.4725
1480,310243,2.731336,-0.8447280999999999,3.721,60.3925,-149.87,1.575
1481,310340,2.3894919999999997,-0.06832001,2.667896,-63.9275,-11.4275,-47.425
1482,310437,2.674484,0.587796,1.244644,-102.1125,108.1325,-98.105
1483,310534,2.855044,1.083848,0.166652,-61.04,165.235,-136.3775
1484,310631,1.499624,1.2526959999999998,-0.780068,30.03,171.9725,-152.8625
1485,310728,-0.09223200000000001,0.632204,-1.029192,123.9,217.735,-126.07
1486,310825,0.687592,0.525088,-2.029836,131.46,206.71,-122.045
1487,310922,0.186904,-1.9461439999999999,-0.384056,162.1375,230.16,-110.845
1488,311020,0.5607121,-2.1459799999999998,-0.262544,88.97,300.6325,-130.62
1489,311117,2.412916,-1.671644,-1.532564,-13.6325,361.4275,-113.2775
1490,311214,2.5317439999999998,-1.758752,-1.274168,-33.8625,331.6775,-47.005
1491,311311,2.173796,0.736392,-1.9183279999999998,-101.36,267.575,-16.135
1492,311408,2.43024,3.258132,-1.541836,-42.735,203.49,-5.355
1493,311505,1.720688,0.160308,-1.13582,116.06,133.28,18.585
1494,311602,1.2622120000000001,-0.5846241,-1.282952,114.555,90.335,63.105
1495,311699,0.8935280999999999,0.24278000000000002,-0.66368,63.105,28.4725,56.665
1496,311796,0.9616040000000001,0.17836400000000002,-0.9969841,59.36,13.16,42.49
1497,311893,0.7754321,0.176656,-0.8720559999999999,58.835,-3.92,35.2975
1498,311991,0.6456241,0.238144,-0.8332601000000001,44.975,-3.64,27.825
1499,312088,0.597068,0.246928,-0.8337481,42.035,-5.1275,25.97
1500,312185,0.5843801,0.171044,-0.868396,39.8825,0.0875,25.8825
1501,312282,0.60268,0.051972000000000004,-0.834968,37.5725,1.05,24.6225
1502,312379,0.575596,0.0854,-0.831308,27.755,2.3625,18.9525
1503,312476,0.604388,0.129076,-0.8335040000000001,24.78,4.4625,17.0975
1504,312573,0.566812,0.115656,-0.869128,20.9125,6.5625,14.945
1505,312670,0.6095119999999999,0.0793,-0.8010520000000001,20.02,7.63,14.7
1506,312767,0.590968,0.095648,-0.803492,15.8725,9.1875,12.5825
1507,312864,0.5604680000000001,0.101992,-0.8254520000000001,13.7375,9.45,11.55
1508,312962,0.5631520000000001,0.015128,-0.806176,12.845,10.4125,10.3075
1509,313059,0.559004,0.040748,-0.8176439999999999,8.26,12.215,7.28
1510,313156,0.54778,0.115168,-0.830332,5.4425,14.35,5.0575
1511,313253,0.5414359999999999,0.148352,-0.8376520000000001,6.5975,16.765,5.32
1512,313350,0.574864,0.169824,-0.820084,9.485,19.9675,7.7875
1513,313447,0.549732,0.15420799999999998,-0.801296,11.7075,21.7525,10.4475
1514,313544,0.576816,0.14274,-0.812276,12.215,23.7825,13.1075
1515,313641,0.6007279999999999,0.15738,-0.751276,9.6075,23.975,16.8875
1516,313738,0.598288,0.166164,-0.7929999999999999,4.34,25.9875,20.545
1517,313835,0.49824799999999997,0.11394800000000001,-0.792512,1.2775,25.55,28.4025
1518,313933,0.619028,0.111752,-0.793488,-6.0375,27.51,36.54
1519,314030,0.613904,0.085156,-0.762744,-7.8925,30.03,42.7525
1520,314127,0.6292760000000001,0.061488,-0.800564,-11.97,31.325,45.115
1521,314224,0.57584,0.006832001,-0.7686,-11.515,33.1975,45.115
1522,314321,0.559736,0.00366,-0.797392,-12.2675,37.0475,43.155
1523,314418,0.570472,0.01098,-0.8274040000000001,-11.6025,43.0675,40.6175
1524,314515,0.540948,0.008296000999999999,-0.844484,-10.255,52.3775,38.045
1525,314612,0.5665680000000001,-0.019275999999999998,-0.8493641,-9.66,64.12,34.02
1526,314709,0.554124,-0.050996,-0.89792,-9.03,78.12,28.56
1527,314806,0.543144,-0.043676,-0.9025559999999999,-6.93,95.3925,21.56
1528,314904,0.56608,-0.022203999999999998,-0.8735200000000001,-5.075,115.7625,13.93
1529,315001,0.579256,-0.012931999999999999,-0.9315921,-2.2575,137.1125,7.8925
1530,315098,0.534116,-0.082228,-0.8620521000000001,2.59,158.06,3.045
1531,315195,0.525576,-0.11248399999999999,-0.832528,4.7075,180.985,-2.6425
1532,315292,0.522648,-0.06880801,-0.8866961,7.6825,206.57,-8.4875
1533,315389,0.458232,0.020496,-0.86498,13.2825,239.3125,-10.535
1534,315486,0.398208,0.06124401,-0.9301280000000001,21.2275,284.13,-9.24
1535,315583,0.393084,0.102724,-0.9032879999999999,27.055,338.5375,-4.7775
1536,315680,0.9952761,0.21886799999999998,-1.413248,20.825,373.2925,2.5725
1537,315778,1.097512,0.382348,-1.326384,3.255,360.3425,20.7375
1538,315875,0.9311040999999999,0.340136,-1.0431,-5.6875,443.765,37.2925
1539,315972,1.834148,0.21594000000000002,-1.309304,-23.87,521.395,44.8175
1540,316069,1.86538,0.369904,-0.927932,-31.2725,567.7525,46.8475
1541,316166,2.557608,-0.266692,-0.730536,-28.4025,573.37,33.985
1542,316263,2.055456,0.09345201,-1.5128,-71.26,573.405,12.9325
1543,316360,2.940688,0.409188,-1.9781080000000002,-92.96,573.405,21.5075
1544,316457,2.577128,0.484828,-2.274568,-63.2275,549.1675,42.21
1545,316554,2.472452,0.579256,-2.107672,-93.7125,468.895,58.4325
1546,316651,-0.12078,0.26352,-2.215032,-39.585,358.015,100.52
1547,316749,6.360592,0.9250040999999999,-6.3130120000000005,8.785,210.4725,88.70749
1548,316846,1.6433400000000002,0.769576,-3.2574,10.71,-76.965,62.1075
1549,316943,0.12322000000000001,0.605608,-2.267736,38.465,-230.9125,55.6325
1550,317040,0.05856,0.42895200000000006,-1.6406560000000001,51.2575,-261.0825,26.985
1551,317137,0.162748,0.288164,-1.3237,44.345,-264.985,6.685
1552,317234,0.39967199999999997,0.22106399999999998,-1.196576,26.845,-278.46,-8.505
1553,317331,0.698328,0.236436,-1.17364,-0.105,-311.7975,-22.33
1554,317428,0.765428,0.31354,-1.124596,-23.24,-359.275,-34.685
1555,317525,0.714432,0.372344,-1.005036,-33.1975,-401.8525,-43.295
1556,317623,0.621712,0.438712,-0.8786440999999999,-31.4825,-430.57,-49.28
1557,317720,0.564372,0.513864,-0.765184,-17.64,-442.505,-50.9775
1558,317817,0.567788,0.5453399999999999,-0.7141881,6.965,-441.455,-49.0875
1559,317914,0.6602640000000001,0.465552,-0.69784,37.205,-433.1425,-46.025
1560,318011,0.776896,0.36282800000000004,-0.726388,57.015,-425.845,-45.36
1561,318108,0.9150001,0.274988,-0.803248,61.915,-422.205,-48.6675
1562,318205,1.067256,0.24131599999999997,-0.9032879999999999,54.9325,-420.7525,-53.1475
1563,318302,1.219268,0.290604,-1.015284,42.0525,-421.1725,-56.3675
1564,318399,1.4374040000000001,0.390156,-1.145092,31.01,-422.3625,-55.37
1565,318497,1.614792,0.499224,-1.250988,26.495,-425.215,-51.52
1566,318594,1.8343919999999998,0.607316,-1.289052,26.6875,-428.155,-50.1375
1567,318691,2.0642400000000003,0.725168,-1.257576,28.4725,-430.4825,-51.0825
1568,318788,2.297504,0.8427761,-1.1951120000000002,29.925,-430.3425,-54.005
1569,318885,2.539308,0.8625401,-1.023824,31.5,-426.93,-66.675
1570,318982,2.737436,0.7320001,-0.8637601,30.6075,-418.88,-95.585
1571,319079,2.97192,0.695156,-0.7056479999999999,24.99,-403.6725,-130.76
1572,319176,3.189568,0.71858,-0.517524,14.2275,-384.0725,-162.925
1573,319273,3.386476,0.850096,-0.188856,11.795,-358.015,-192.045
1574,319371,3.5197,1.117764,0.308904,25.165,-327.845,-217.2275
1575,319468,3.355732,1.21268,0.9969841,67.935,-287.4725,-239.26
1576,319565,3.4611400000000003,0.9067040000000001,1.81414,135.0825,-231.21,-260.4875
1577,319662,4.124332,0.223504,2.60226,185.0975,-172.4625,-262.5525
1578,319759,3.716364,-0.6673399999999999,3.0624439999999997,168.595,-127.0325,-223.8775
1579,319856,3.04878,-0.672708,2.77184,88.4975,-58.7125,-193.13
1580,319953,2.93776,-0.21447600000000003,1.862452,24.185,26.6525,-182.9275
1581,320050,2.43756,-0.380152,0.785924,35.2625,90.09000999999999,-163.59
1582,320147,2.054724,-2.1228,0.820572,-0.2625,153.6675,-146.4925
1583,320244,-0.304268,0.37332,-0.671488,-209.125,177.4325,-142.8175
1584,320342,0.6795401,-0.271328,-1.478884,-106.015,299.6525,-30.1175
1585,320439,1.062864,0.43944399999999995,-0.46018400000000004,-83.755,308.9975,26.74
1586,320536,2.4870919999999996,1.1192280000000001,-1.2343959999999998,-107.0125,370.65,-5.39
1587,320633,2.17282,0.393084,-1.489376,-79.695,343.21,-35.4725
1588,320730,2.4451240000000003,0.164944,-1.991772,-50.785,297.0625,-27.545
1589,320827,4.614284,2.102792,-2.551752,-12.0225,229.6875,-6.195
1590,320924,1.125816,-0.325252,-0.779092,50.365,74.3575,-12.8975
1591,321021,0.552904,0.41406800000000005,-0.9567241,-8.5925,24.675,10.3075
1592,321118,0.828624,0.006344,-0.805932,-4.34,29.5925,2.4325
1593,321216,0.5980439999999999,0.242048,-0.774212,-10.255,23.3625,-3.99
1594,321313,0.705404,0.469944,-0.9128040000000001,-8.8025,17.0625,-6.1425
1595,321410,0.6612401,0.22423600000000002,-0.8142281,5.9675,16.415,0.6475
1596,321507,0.748592,0.307684,-0.7500560000000001,5.95,12.5125,4.2525
1597,321604,0.540704,0.0671,-0.8827921000000001,12.5825,8.155,8.785
1598,321701,0.6219561,0.20252,-0.853512,13.965,9.5725,8.8725
1599,321798,0.511668,0.154452,-0.9345201,13.6325,12.565,9.1
1600,321895,0.618784,0.18251199999999998,-0.8510719999999999,19.2325,11.5325,11.69
1601,321992,0.635864,0.216916,-0.812032,19.285,12.565,13.7375
1602,322090,0.587064,0.05929201,-0.809348,22.0675,12.1975,15.855
1603,322187,0.5607121,0.050508,-0.8344801,20.16,13.5975,14.805
1604,322284,0.634156,0.08344800000000001,-0.797392,17.64,14.28,12.075
1605,322381,0.592432,0.05246,-0.800808,15.365,17.85,10.2025
1606,322478,0.580232,0.077348,-0.8317960999999999,14.28,20.7375,10.255
1607,322575,0.6161,0.074664,-0.812032,12.985,22.3125,9.7825
1608,322672,0.620004,0.082716,-0.8039801,10.9375,24.045,10.5525
1609,322769,0.6007279999999999,0.068564,-0.80886,9.1875,25.865,12.25
1610,322866,0.6141479999999999,0.077836,-0.815448,5.705,26.95,13.755
1611,322963,0.58316,0.08808401,-0.7883640000000001,2.52,29.435,15.2775
1612,323061,0.652212,0.08906,-0.797636,3.5175,30.1175,15.925
1613,323158,0.616588,0.015616,-0.7517640999999999,4.9875,30.2925,16.87
1614,323255,0.580232,0.031476,-0.77836,3.01,29.6625,15.68
1615,323352,0.648552,0.008296000999999999,-0.7671359999999999,3.22,28.91,13.4575
1616,323449,0.618052,-0.00122,-0.759328,2.38,28.63,11.4275
1617,323546,0.5926760999999999,0.011956,-0.7451760000000001,2.7125,28.245,8.7325
1618,323643,0.6502600000000001,0.0017079999999999999,-0.7483479999999999,2.17,27.3,6.1075
1619,323740,0.61732,-0.008540001,-0.7854361,1.19,27.475,4.2525
1620,323837,0.604876,-0.004636001,-0.796172,1.5225,29.2425,1.5575
1621,323934,0.60146,0.012931999999999999,-0.807396,1.12,34.195,-0.6475
1622,324032,0.590236,0.022448,-0.8298440999999999,0.385,41.58,-2.3625
1623,324129,0.5648601,0.05246,-0.8901120000000001,-0.665,52.2725,-2.485
1624,324226,0.5751081,0.030744,-0.8571719999999999,0.1575,67.27,-1.2425
1625,324323,0.5814520000000001,0.025863999999999998,-0.8935280999999999,0.4025,83.80751,0.8925
1626,324420,0.55388,0.02074,-0.899384,2.66,103.1975,2.6075
1627,324517,0.525332,0.095648,-0.9718521000000001,2.135,126.525,4.0425
1628,324614,0.499468,0.274744,-1.023336,3.2375,155.3825,10.815
1629,324711,0.472872,0.363804,-1.06018,9.45,189.98,25.2875
1630,324808,0.486048,0.386984,-1.087264,19.6,232.0325,46.4975
1631,324906,0.4392,0.49141599999999996,-1.261724,34.3525,280.77,69.66751
1632,325003,0.529724,0.668316,-1.4713200000000002,61.46,341.4075,101.0975
1633,325100,1.0323639999999998,0.7200439999999999,-1.6982400000000002,111.5275,405.93,143.64
1634,325197,1.754116,0.7998321,-1.956636,179.515,453.425,191.7125
1635,325294,2.1447599999999998,0.8047121,-2.034472,246.0325,462.4725,220.92
1636,325391,2.07766,0.385764,-1.4661959999999998,296.9575,438.0775,217.105
1637,325488,2.027152,0.6470880999999999,-1.461316,320.9325,413.6825,208.285
1638,325585,1.50914,0.9415959999999999,-1.411784,359.5375,380.0125,201.81
1639,325682,0.6170760000000001,1.2517200000000002,-1.355908,406.07,349.1425,200.235
1640,325779,0.096868,1.3642040000000002,-1.225368,472.675,328.02,190.26
1641,325877,1.8458599999999998,0.7227279999999999,-0.694912,550.8475,308.175,165.795
1642,325974,3.5807,0.630984,-2.73158,573.3875,270.095,101.92
1643,326071,2.193804,0.158844,-1.874652,563.57,83.0725,24.01
1644,326168,1.393728,0.11541199999999999,-1.496208,491.89,-64.085,-24.4825
1645,326265,0.8235001000000001,0.28181999999999996,-1.07726,413.6475,-146.93,-39.0425
1646,326362,0.454816,0.48068,-0.8249639999999999,372.715,-168.805,-18.655
1647,326459,0.43651599999999996,0.6158561,-0.715164,359.52,-165.27,20.51
1648,326556,0.601216,0.6588,-0.7549359999999999,353.08,-166.3025,64.715
1649,326653,0.7659161,0.709064,-0.8276481,339.465,-179.4625,102.655
1650,326751,0.8988959999999999,0.809348,-0.91012,313.0225,-203.63,126.42
1651,326848,1.06018,1.146312,-1.018456,276.29,-238.21,133.9625
1652,326945,1.153632,1.568188,-1.034804,246.3825,-280.3675,130.5675
1653,327042,1.172176,1.90808,-0.9418401,236.565,-321.545,118.4225
1654,327139,1.235616,2.079856,-0.7388319999999999,241.2375,-353.22,95.4275
1655,327236,1.224392,2.1596439999999997,-0.554856,247.73,-377.79,65.8525
1656,327333,1.222928,2.225768,-0.394548,248.6225,-393.4525,32.2175
1657,327430,1.1392360000000001,2.226988,-0.22862800000000003,246.4525,-400.925,-0.4725
1658,327527,0.9940559999999999,2.171112,-0.072712,238.105,-399.0525,-32.13
1659,327624,0.869616,2.131096,-0.035868000000000004,217.5075,-382.9875,-64.9075
1660,327722,1.004304,2.1423200000000002,-0.155184,185.36,-355.53,-98.385
1661,327819,1.271728,2.179896,-0.337452,151.0075,-333.8825,-132.4225
1662,327916,1.315892,2.328736,-0.3721,121.0475,-329.5775,-166.95
1663,328013,1.2517200000000002,2.350452,-0.326716,108.2375,-326.3225,-195.9825
1664,328110,1.244156,2.118408,-0.30109600000000003,111.3525,-313.0225,-217.2975
1665,328207,1.303692,1.853668,-0.351848,105.735,-296.5025,-234.85
1666,328304,1.384944,1.7155639999999999,-0.489464,84.875,-284.0075,-250.95
1667,328401,1.550376,1.7082439999999999,-0.7027201,63.945,-276.2375,-262.3425
1668,328498,1.6872599999999998,1.727032,-0.89792,59.2725,-276.605,-267.2775
1669,328596,1.693848,1.645536,-1.0121120000000001,74.11251,-284.41,-266.1575
1670,328693,1.6616400000000002,1.443016,-1.082384,96.98501,-292.285,-260.4875
1671,328790,1.659932,1.187792,-1.139968,111.7725,-297.465,-253.225
1672,328887,1.71898,0.9423280999999999,-1.186328,108.745,-300.5625,-245.8925
1673,328984,1.713124,0.749812,-1.153632,88.585,-302.225,-237.615
1674,329081,1.6494400000000002,0.648552,-1.039684,55.5975,-297.7975,-224.42
1675,329178,1.393728,0.6292760000000001,-0.7986121,17.8675,-282.2225,-205.135
1676,329275,1.39812,0.7890961,-0.735904,-20.79,-243.9325,-180.6875
1677,329372,1.678964,1.0121120000000001,-0.7190681,-57.82,-196.945,-158.7075
1678,329470,2.05326,1.309304,-0.791048,-83.86001,-160.475,-151.8475
1679,329567,2.6693599999999997,0.8930401,-0.72468,-101.15,-143.7975,-166.8975
1680,329664,3.201768,0.68686,-0.42895200000000006,-123.165,-153.0375,-213.7275
1681,329761,3.486272,1.1131280000000001,0.22667600000000002,-147.245,-193.9,-247.66
1682,329858,3.3271839999999995,0.8357,1.220488,-90.16001,-227.185,-223.125
1683,329955,2.9248279999999998,0.036844,2.0413040000000002,5.3725,-223.4225,-175.875
1684,330052,2.287988,-0.45506,2.240164,59.01,-162.61,-131.0225
1685,330149,2.046916,-0.44090799999999997,1.890268,66.6225,-60.97,-96.5475
1686,330246,2.212592,-0.157868,1.173884,53.585,31.2375,-83.65001
1687,330343,2.379244,0.14469200000000002,0.500688,38.605,80.0275,-88.97
1688,330441,2.335568,0.349164,0.06563601,30.3625,88.55,-98.84000999999999
1689,330538,1.9947,1.696532,-0.369904,33.8975,80.0625,-104.5625
1690,330635,0.6756361,0.125416,0.8405800999999999,167.37,131.39,-89.6
1691,330732,0.6029241,-0.649528,-1.489376,222.2675,173.215,-82.005
1692,330829,0.879376,-0.9635560999999999,-1.868064,129.0625,176.785,-141.8375
1693,330926,0.6514800000000001,-2.023248,-0.7793359999999999,99.925,177.625,-177.135
1694,331023,1.006988,-2.070584,-0.585112,39.8825,201.3025,-159.6875
1695,331120,1.659444,-2.249924,-1.429108,2.7125,214.375,-80.08
1696,331217,1.5286600000000001,-1.34566,-1.324432,-43.19,175.945,-9.8525
1697,331315,1.227076,0.712724,-1.036512,-93.8175,139.0025,6.6675
1698,331412,1.596492,2.5681,-1.249036,-77.5775,121.2575,-19.005
1699,331509,1.12972,0.8039801,-0.9989360999999999,18.6375,88.9,-44.73
1700,331606,1.4064159999999999,0.011712,-1.462048,62.6325,65.50251,3.4825
