,T,ax,ay,az,gx,gy,gz
0,165086,0.450912,-0.11321600000000001,-0.726876,15.8375,-16.275,-17.325
1,165237,0.47555600000000003,-0.11126400000000002,-0.800808,17.5,-64.68,-97.19501
2,165333,0.4941,-0.12712400000000001,-0.8532681000000001,41.9825,-170.87,-169.3825
3,165430,0.4933681,-0.128588,-0.8540000000000001,47.9325,-136.71,-60.27
4,165526,0.49288000000000004,-0.13078399999999998,-0.8525360000000001,3.9375,-10.22,-5.9675
5,165622,0.49166000000000004,-0.128344,-0.854244,1.68,-3.745,-3.29
6,165718,0.49141599999999996,-0.13054000000000002,-0.853512,1.645,-3.71,-3.1675
7,165815,0.49288000000000004,-0.1281,-0.8554641,1.6275,-3.745,-3.3075
8,165911,0.492392,-0.12712400000000001,-0.856196,1.6625,-3.6925,-3.325
9,166007,0.493612,-0.1281,-0.8547319999999999,1.6275,-3.64,-3.3075
10,166103,0.49288000000000004,-0.12980799999999998,-0.8532681000000001,1.6275,-3.6925,-3.29
11,166200,0.49141599999999996,-0.13176,-0.8522921,1.715,-3.64,-3.3425
12,166296,0.492392,-0.1281,-0.8574161,1.75,-3.64,-3.4125
13,166392,0.49263599999999996,-0.131028,-0.8540000000000001,1.645,-3.6225,-3.36
14,166489,0.493612,-0.1281,-0.856196,1.6625,-3.6925,-3.3775
15,166585,0.49288000000000004,-0.129564,-0.8559521000000001,1.68,-3.745,-3.3775
16,166681,0.49288000000000004,-0.128344,-0.8547319999999999,1.715,-3.7275,-3.255
17,166777,0.491904,-0.12980799999999998,-0.8544879999999999,1.715,-3.745,-3.3075
18,166874,0.49312399999999995,-0.127368,-0.856684,1.6625,-3.605,-3.325
19,166970,0.494588,-0.128832,-0.8544879999999999,1.6275,-3.5175,-3.36
20,167066,0.493612,-0.127856,-0.8559521000000001,1.6625,-3.4125,-3.36
21,167162,0.493612,-0.127368,-0.8552200000000001,1.715,-3.5525,-3.4125
22,167259,0.493856,-0.128588,-0.854244,1.5925,-3.465,-3.3075
23,167355,0.4933681,-0.130052,-0.855708,1.6275,-3.6225,-3.4125
24,167451,0.494588,-0.128588,-0.856196,1.61,-3.57,-3.3425
25,167547,0.493856,-0.127856,-0.8544879999999999,1.6625,-3.6925,-3.255
26,167644,0.49434399999999995,-0.127368,-0.8559521000000001,1.645,-3.7275,-3.2725
27,167740,0.49312399999999995,-0.13054000000000002,-0.854244,1.6975,-3.815,-3.2725
28,167836,0.49434399999999995,-0.129076,-0.856684,1.7325,-3.7975,-3.22
29,167933,0.49263599999999996,-0.12932000000000002,-0.8544879999999999,1.645,-3.85,-3.2375
30,168029,0.49263599999999996,-0.129564,-0.8547319999999999,1.61,-3.8325,-3.3075
31,168125,0.49312399999999995,-0.129076,-0.8547319999999999,1.645,-3.8325,-3.29
32,168221,0.4933681,-0.12932000000000002,-0.855708,1.645,-3.815,-3.29
33,168318,0.49312399999999995,-0.1281,-0.8559521000000001,1.5575,-3.7975,-3.325
34,168414,0.49312399999999995,-0.12980799999999998,-0.854244,1.61,-3.8325,-3.2725
35,168510,0.49288000000000004,-0.12932000000000002,-0.856196,1.6975,-3.885,-3.29
36,168607,0.49824799999999997,-0.12444000000000001,-0.868396,1.855,-3.78,-3.2025
37,168703,0.49776000000000004,-0.136884,-0.8813280000000001,3.15,-3.0975,-3.01
38,168799,0.513864,-0.12444000000000001,-0.8908440999999999,5.2325,-1.855,-2.6775
39,168895,0.5214281,-0.11712,-0.8805960999999999,10.15,-1.7675,-1.9775
40,168992,0.528016,-0.09735601,-0.835456,14.5075,-4.3575,-1.8725
41,169088,0.5292359999999999,-0.152256,-0.8520479999999999,13.93,-7.0,-1.19
42,169184,0.516792,-0.13785999999999998,-0.854244,12.8975,-10.7625,-1.33
43,169281,0.5158159999999999,-0.151524,-0.8608319999999999,11.2,-13.6325,-1.925
44,169377,0.5206960999999999,-0.127856,-0.88328,10.5175,-16.1,-2.17
45,169473,0.50264,-0.11248399999999999,-0.8652241,11.655,-17.6575,-1.645
46,169570,0.500444,-0.133224,-0.8549761,12.4075,-18.8475,-1.1375
47,169666,0.49263599999999996,-0.129076,-0.8574161,11.41,-19.5125,-0.9625
48,169762,0.47994799999999993,-0.149572,-0.8532681000000001,9.275,-19.81,-1.5225
49,169858,0.46945600000000004,-0.16592,-0.84546,7.4725,-19.355,-2.275
50,169955,0.44676400000000005,-0.165676,-0.850584,5.3375,-18.41,-2.9925
51,170051,0.44090799999999997,-0.166408,-0.8439959999999999,2.8875,-16.275,-4.0425
52,170147,0.437492,-0.180072,-0.8283799999999999,0.665,-14.105,-5.1275
53,170244,0.448716,-0.169336,-0.85644,-0.4375,-12.39,-5.5825
54,170340,0.456768,-0.134444,-0.877912,-1.26,-11.1475,-6.02
55,170436,0.478972,-0.133712,-0.8744960999999999,-0.5075,-10.8325,-6.4925
56,170532,0.504836,-0.153476,-0.8991401,0.665,-11.655,-6.545
57,170629,0.48214399999999996,-0.14786400000000002,-0.8910879999999999,1.295,-13.5975,-6.545
58,170725,0.48848800000000003,-0.15762400000000001,-0.8847440999999999,1.645,-14.665,-6.7025
59,170821,0.48995200000000005,-0.153232,-0.883768,1.4875,-15.5925,-6.0375
60,170918,0.4933681,-0.168848,-0.885964,0.735,-16.59,-5.67
61,171014,0.468236,-0.159332,-0.8605879999999999,0.3325,-17.8675,-5.0575
62,171110,0.44725200000000004,-0.149328,-0.859856,0.56,-18.4975,-4.3225
63,171206,0.458232,-0.141276,-0.8725440999999999,0.9975,-17.9375,-3.255
64,171303,0.465308,-0.134932,-0.8801081000000001,1.96,-17.8675,-2.24
65,171399,0.457744,-0.133712,-0.8744960999999999,3.185,-18.5675,-1.1725
66,171495,0.47506800000000005,-0.13761600000000002,-0.887916,4.13,-19.04,-0.2625
67,171592,0.458232,-0.138104,-0.8796200000000001,4.725,-19.985,0.665
68,171688,0.4514,-0.133712,-0.8757159999999999,5.145,-20.5275,1.0325
69,171784,0.43627200000000005,-0.130052,-0.86498,5.075,-20.7375,0.8925
70,171881,0.424804,-0.133224,-0.8625401,5.2675,-20.4225,0.805
71,171977,0.406016,-0.134932,-0.855708,5.635,-19.88,0.7175
72,172073,0.41016400000000003,-0.137128,-0.85888,6.265,-18.48,0.525
73,172169,0.401624,-0.14884,-0.850584,7.0525,-17.6575,0.2625
74,172266,0.396256,-0.16226,-0.8420440999999999,7.14,-16.66,0.1225
75,172362,0.392596,-0.169336,-0.843508,6.965,-15.47,0.28
76,172458,0.388204,-0.16128399999999998,-0.833016,6.5975,-14.2275,0.49
77,172555,0.374784,-0.14518,-0.8178880999999999,6.3,-13.16,0.5775
78,172651,0.369172,-0.128344,-0.817156,6.825,-11.62,0.735
79,172747,0.400892,-0.11467999999999999,-0.8413120000000001,8.47,-10.115,1.61
80,172844,0.40211199999999997,-0.10248,-0.8376520000000001,10.255,-10.0275,2.1
81,172940,0.419436,-0.11712,-0.8544879999999999,12.18,-10.605,2.415
82,173036,0.506544,-0.175924,-0.9198799999999999,11.9875,-11.8125,2.52
83,173132,0.43358800000000003,-0.14884,-0.860344,9.0475,-15.9075,2.765
84,173229,0.432856,-0.121024,-0.9181720999999999,9.2225,-17.3425,4.48
85,173325,0.432612,-0.158356,-0.9230520000000001,10.2375,-17.71,4.655
86,173421,0.413092,-0.18422,-0.9274440999999999,10.29,-17.64,4.69
87,173518,0.384788,-0.18251199999999998,-0.9250040999999999,9.5025,-16.6775,4.5325
88,173614,0.367952,-0.19885999999999998,-0.9059721,8.925,-14.35,3.7625
89,173710,0.26474000000000003,-0.21276799999999998,-0.8337481,7.35,-11.305,2.275
90,173807,0.280356,-0.22423600000000002,-0.846924,4.8125,-4.7425,0.245
91,173903,0.291824,-0.217648,-0.826428,1.12,1.82,-2.3275
92,173999,0.25302800000000003,-0.190564,-0.7991,-2.66,7.945,-4.515
93,174095,0.27328,-0.187148,-0.806908,-7.1575,15.1025,-7.2975
94,174192,0.406748,-0.311832,-0.8876719999999999,-12.6,21.9275,-9.73
95,174288,0.2684,-0.269864,-0.763476,-20.195,26.075,-9.2225
96,174384,0.40748,-0.17934,-0.8827921000000001,-27.44,33.0575,-9.3275
97,174480,0.42724399999999996,-0.09272000000000001,-0.9174399999999999,-27.2475,35.7875,-9.3625
98,174577,0.487512,-0.126148,-0.9394,-19.95,37.8525,-7.49
99,174673,0.49141599999999996,-0.09882,-0.9125601000000001,-11.62,39.4275,-5.39
100,174769,0.5246,-0.08906,-0.9396440999999999,-2.66,40.39,-5.495
101,174866,0.502152,-0.163968,-0.9103641,7.0875,41.44,-4.8475
102,174962,0.525332,-0.132004,-0.9140241,6.72,40.6525,-5.74
103,175058,0.49580799999999997,-0.171776,-0.887184,3.4125,35.595,-7.6475
104,175155,0.47823999999999994,-0.162504,-0.8769360999999999,1.89,31.1325,-7.77
105,175251,0.49849209999999994,-0.185684,-0.860344,-1.9075,29.4,-8.47
106,175347,0.514108,-0.134932,-0.8727879999999999,-3.745,27.1075,-9.135
107,175443,0.493612,-0.14396,-0.85888,-3.605,24.185,-9.695
108,175540,0.487756,-0.169824,-0.8510719999999999,-4.515,22.8725,-10.78
109,175636,0.48312,-0.167628,-0.8540000000000001,-6.1775,22.295,-12.705
110,175732,0.53314,-0.1525,-0.8552200000000001,-7.7175,22.75,-14.63
111,175829,0.49141599999999996,-0.14347200000000002,-0.8547319999999999,-8.2425,22.085,-15.4875
112,175925,0.483364,-0.150304,-0.861808,-8.12,22.995,-16.345
113,176021,0.457988,-0.134444,-0.8769360999999999,-7.2275,25.7075,-17.8325
114,176117,0.424072,-0.158844,-0.880352,-4.1475,29.435,-21.1575
115,176214,0.477996,-0.176656,-0.8662001,-1.785,35.77,-25.62
116,176310,0.49141599999999996,-0.09150001,-0.8808401,-3.2025,43.5225,-26.915
117,176406,0.47994799999999993,-0.139568,-0.8632719999999999,-1.2075,49.8225,-26.775
118,176503,0.49434399999999995,-0.122244,-0.868396,-1.4175,56.8925,-27.1425
119,176599,0.502152,-0.09540401,-0.8788879999999999,-1.5225,63.5425,-27.23
120,176695,0.5043479999999999,-0.101016,-0.861808,-1.3825,69.9475,-27.1425
121,176791,0.522404,-0.114924,-0.8652241,-1.75,76.16001,-27.195
122,176888,0.519476,-0.116388,-0.8769360999999999,-3.6575,80.90250999999999,-26.635
123,176984,0.540216,-0.08857201,-0.87108,-6.6675,85.435,-25.6725
124,177080,0.537044,-0.10052799999999999,-0.889868,-7.9975,89.39,-25.5325
125,177177,0.531676,-0.081252,-0.8998719999999999,-10.4475,93.5725,-24.465
126,177273,0.543632,-0.1037,-0.868884,-11.34,100.1,-23.7475
127,177369,0.622688,-0.096868,-0.7922680000000001,-13.1775,108.22,-23.975
128,177465,0.697596,-0.08759601,-0.955992,-23.975,117.8275,-28.6125
129,177562,0.06344,-0.012688,-1.2402520000000001,-23.555,129.43,-28.1225
130,177658,0.754448,-0.12980799999999998,-0.7478600000000001,-6.02,134.05,-29.4525
131,177754,0.676124,-0.12468399999999999,-0.885476,-21.07,187.3375,-34.44
132,177851,0.487512,-0.016104,-0.5607121,-22.12,197.3475,-35.245
133,177947,0.564616,-0.09028,-0.791292,-7.5775,227.22,-42.9275
134,178043,0.6566041,-0.066856,-1.00528,-17.64,263.795,-45.3425
135,178139,0.8759601,-0.131028,-1.017968,-11.76,301.805,-46.935
136,178236,1.0826280000000001,-0.064416,-1.090436,-1.8375,342.2825,-48.9125
137,178332,1.378112,0.053924,-1.2078,7.595,376.8275,-52.0975
138,178428,1.3668879999999999,0.03904,-1.40056,25.41,404.705,-50.645
139,178525,1.559892,-0.360632,-1.260748,47.9325,418.3375,-48.0375
140,178621,1.856596,-0.377224,-1.547448,30.3625,441.4375,-52.3425
141,178717,1.671888,-0.370148,-1.9163759999999999,23.94,464.8875,-55.405
142,178814,2.120116,-0.428464,-1.535004,19.0225,464.0475,-65.22251
143,178910,1.204628,-0.343308,-1.4823,4.27,475.2825,-62.0025
144,179006,0.853756,0.28694400000000003,-3.036824,-0.8575,476.1225,-49.07
145,179102,0.8805960999999999,-1.2397639999999999,-1.9602959999999998,1.575,324.835,-49.2975
146,179199,3.7207559999999997,-1.7624119999999999,-5.60224,-13.755,196.245,2.205
147,179295,0.959408,-1.450336,-3.0378,-40.7925,3.395,54.39
148,179391,0.180316,-0.740052,-2.1301200000000002,-111.6675,-112.805,86.45
149,179488,-0.143228,-0.01952,-1.581608,-154.315,-152.635,99.40001
150,179584,-0.0305,0.49654,-1.557208,-158.9,-159.18,88.585
151,179680,0.23009200000000002,0.6724640000000001,-1.6801840000000001,-123.34,-177.6775,65.7125
152,179776,0.335256,0.601216,-1.6513919999999997,-72.7825,-212.6775,37.3275
153,179873,0.42187600000000003,0.41992399999999996,-1.580876,-37.345,-254.065,4.1125
154,179969,0.471408,0.255712,-1.482544,-26.9325,-295.4875,-30.52
155,180065,0.5294800000000001,0.16226,-1.37372,-29.4175,-332.8675,-60.515
156,180162,0.557296,0.096624,-1.216584,-30.5025,-364.0,-81.5675
157,180258,0.529968,0.024644,-1.0138200000000002,-25.1125,-387.205,-93.8875
158,180354,0.450912,-0.05636401,-0.793488,-14.6825,-398.4925,-98.525
159,180450,0.4026,-0.178608,-0.638792,-3.955,-394.87,-97.21251
160,180547,0.40894400000000003,-0.307684,-0.597312,2.5025,-380.5025,-91.21
161,180643,0.487756,-0.42187600000000003,-0.6756361,3.8675,-361.795,-80.43
162,180739,0.6405,-0.47994799999999993,-0.871568,2.3975,-344.925,-65.1175
163,180836,0.8256960999999999,-0.523624,-1.089216,4.9525,-336.4375,-46.0425
164,180932,0.9479401,-0.5846241,-1.227076,13.125,-337.68,-23.205
165,181028,0.97478,-0.601216,-1.267336,20.9125,-343.5425,1.61
166,181125,0.9459880999999999,-0.5314321,-1.262456,27.37,-346.6575,25.025
167,181221,0.9076799999999999,-0.392596,-1.25294,36.7675,-342.7375,44.6425
168,181317,0.892552,-0.252784,-1.272704,51.1175,-330.5575,58.2225
169,181414,0.984784,-0.183488,-1.3207719999999998,72.135,-310.835,64.295
170,181510,1.1204479999999999,-0.16909200000000002,-1.366644,93.4675,-286.8425,64.1025
171,181606,1.395192,-0.18251199999999998,-1.359324,109.655,-260.5225,58.135
172,181702,1.726056,0.27816,-1.374208,120.995,-236.915,50.295
173,181799,2.329468,0.399916,-1.518412,159.1975,-217.1925,57.715
174,181895,3.3628080000000002,0.233996,-1.8226799999999999,206.045,-208.1275,70.0
175,181991,4.062844,-0.146644,-1.7585080000000002,231.4725,-233.0125,82.8625
176,182088,4.0338080000000005,-0.538752,-1.0979999999999999,211.2075,-284.97,97.3
177,182184,3.446012,-0.5958479999999999,0.056608000000000006,138.985,-323.5225,111.2125
178,182280,2.747928,-0.20447200000000001,1.091412,37.065,-308.5075,119.63
179,182376,3.0453639999999997,0.15128,1.489376,-43.715,-239.89,110.4425
180,182473,3.6885480000000004,0.29377600000000004,1.602592,-64.8725,-175.4375,67.935
181,182569,4.047228,0.49044,1.637972,-37.7825,-141.4175,14.315
182,182665,3.7822440000000004,0.19032000000000002,1.987868,33.04,-121.17,-15.19
183,182762,3.3867199999999995,-0.533384,2.191608,89.4775,-76.8075,-14.735
184,182858,3.1390599999999997,-1.134112,1.8988080000000003,73.78,-6.8075,8.68
185,182954,2.145736,-1.701412,1.04554,-1.3125,59.7975,45.36
186,183050,0.091744,-0.80886,-1.2153639999999999,-128.7825,131.5125,74.095
187,183147,-0.347456,-0.134444,-2.73158,-198.765,168.805,105.0175
188,183243,-0.547292,2.081808,0.011712,-144.305,188.4575,157.99
189,183339,0.5002,2.738656,-0.329888,-92.085,286.405,158.34
190,183436,2.112552,2.8909119999999997,-2.218204,-8.05,328.2125,93.8175
191,183532,2.317512,1.61162,-2.373144,54.95,287.28,16.87
192,183628,1.8756279999999999,-0.599996,-1.807552,92.47001,221.83,-46.9875
193,183724,1.967616,-2.6474,-1.6918959999999998,85.71500999999999,181.895,-45.465
194,183821,1.467172,-0.43773599999999996,-1.270508,-17.9025,142.8875,-4.585
195,183917,0.747128,0.8571719999999999,-1.4720520000000001,-53.5675,94.71,-3.0625
196,184013,0.811056,-0.6224441,-0.9315921,-16.66,69.86,-17.3775
197,184109,0.556808,-0.72956,-0.8100801,-18.8475,51.52,-8.1375
198,184206,0.5726680000000001,-0.03782,-1.135576,-44.7825,42.84,-5.635
199,184302,0.47336000000000006,-0.339404,-0.9250040999999999,-31.3075,33.215,-12.005
200,184398,0.438956,-0.341844,-0.8847440999999999,-27.0725,30.1875,-17.255
201,184495,0.457988,-0.23424,-0.921588,-32.0425,29.365,-21.1575
202,184591,0.49824799999999997,-0.192272,-0.8988959999999999,-31.29,28.525,-24.185
203,184687,0.487756,-0.06661201,-0.9440360999999999,-30.275,26.32,-24.43
204,184784,0.489708,-0.115168,-0.9079241,-24.8325,25.2175,-23.3975
205,184880,0.48214399999999996,-0.126636,-0.8842561,-20.6675,25.095,-22.995
206,184976,0.47677600000000003,-0.055144000000000006,-0.8901120000000001,-19.8275,23.275,-23.5725
207,185072,0.5060560000000001,-0.057828,-0.8815719999999999,-17.4125,23.7825,-22.7675
208,185169,0.49605200000000005,-0.10004,-0.8613200000000001,-13.79,23.94,-20.7725
209,185265,0.47482399999999997,-0.10638399999999999,-0.8906,-9.8875,24.6225,-19.285
210,185361,0.505324,-0.107116,-0.8805960999999999,-7.49,26.2675,-18.97
211,185458,0.5011760000000001,-0.153232,-0.873276,-4.725,26.74,-19.0575
212,185554,0.48848800000000003,-0.1586,-0.8762040000000001,-3.395,26.1275,-21.0525
213,185650,0.500688,-0.13078399999999998,-0.8808401,-2.8175,26.1975,-23.5375
214,185747,0.528992,-0.090768,-0.8759601,-1.05,26.46,-25.1825
215,185843,0.5058121,-0.112728,-0.865956,3.2725,26.74,-28.6125
216,185939,0.423096,-0.162748,-0.8413120000000001,7.2975,29.645,-33.39
217,186035,0.5172800999999999,-0.045627999999999995,-0.8786440999999999,4.6725,39.0075,-33.9325
218,186132,0.533628,-0.098332,-0.8249639999999999,7.0175,43.085,-32.48
219,186228,0.537044,-0.071248,-0.8308200000000001,4.9875,45.955,-33.7575
220,186324,0.548756,-0.040016,-0.8215481,5.3375,48.1425,-33.075
221,186421,0.545096,-0.04514,-0.8193521,5.67,51.5025,-30.7125
222,186517,0.561688,-0.04514,-0.7991,6.51,54.1625,-28.07
223,186613,0.5489999999999999,-0.039772,-0.798856,6.23,56.0525,-26.075
224,186709,0.546804,-0.059536,-0.8044680999999999,5.075,57.47,-23.765
225,186806,0.5219159999999999,-0.086864,-0.8176439999999999,3.4475,60.235,-22.05
226,186902,0.54656,-0.077348,-0.8359440999999999,1.4875,64.4875,-21.4375
227,186998,0.564372,-0.063684,-0.839116,0.5075,68.8275,-21.245
228,187095,0.560956,-0.008052001,-0.8693719999999999,-0.8925,74.235,-19.1275
229,187191,0.57096,-0.022936,-0.870592,-2.1175,79.6425,-16.4675
230,187287,0.5673,-0.062220000000000004,-0.8744960999999999,-2.73,87.3775,-13.895
231,187383,0.5353359999999999,-0.02196,-0.8808401,-3.7975,96.53,-12.635
232,187480,0.610244,0.009028000999999999,-0.87108,-6.79,107.485,-11.3575
233,187576,0.6502600000000001,-0.016347999999999998,-0.782752,-14.9275,123.8125,-12.145
234,187672,-0.17738800000000002,0.17763199999999998,-0.49434399999999995,-10.5525,134.0675,-5.8625
235,187769,0.7759199999999999,-0.021716,-0.7415161,0.805,165.795,-4.41
236,187865,-0.245952,0.11126400000000002,-1.016016,-17.045,206.2375,-1.96
237,187961,0.48556000000000005,-0.126392,-1.0321200000000001,5.1975,231.2625,-11.9525
238,188058,0.429928,-0.150792,-1.0309,-15.3825,283.605,-22.5925
239,188154,0.794952,-0.244,-1.1838879999999998,3.22,345.765,-29.47
240,188250,1.51768,-0.134688,-1.336388,19.81,403.2,-32.69
241,188347,1.255868,-0.15054800000000002,-1.4635120000000001,35.665,462.175,-38.5875
242,188443,1.4752239999999999,-0.197152,-1.39934,50.7325,504.5775,-48.3525
243,188539,1.233908,0.0305,-1.458632,77.7875,517.3875,-50.295
244,188635,2.406328,-0.544608,-1.671644,109.9,528.2725,-55.65
245,188732,1.820972,-0.35038400000000003,-2.093276,87.7975,559.615,-54.9675
246,188828,1.6731080000000003,-0.317932,-2.0291040000000002,73.2725,562.3625,-57.2075
247,188924,1.6469999999999998,-0.499468,-2.701812,93.9575,542.0975,-59.465
248,189021,0.526552,0.494832,-2.3963240000000003,143.7975,481.2675,-26.075
249,189117,2.707912,-1.785348,-2.462936,138.8275,326.5675,-56.945
250,189213,3.7119720000000003,-2.286524,-5.934812,128.415,93.3275,-15.6625
251,189310,0.619272,-1.7502119999999999,-3.046828,37.1525,-172.9175,17.0975
252,189406,0.24522,-0.8964561,-2.0769279999999997,-79.6075,-261.3625,52.5175
253,189502,0.062464,-0.154452,-1.5982,-131.88,-291.55,71.12
254,189598,0.07978801,0.447984,-1.473028,-118.3,-305.2875,77.8925
255,189695,0.38552,0.553148,-1.486692,-50.645,-332.29,77.175
256,189791,0.46457600000000004,0.372832,-1.318332,24.99,-368.1125,73.16751
257,189887,0.446276,0.096624,-1.086288,67.13,-401.1175,65.03
258,189984,0.423828,-0.10248,-0.9067040000000001,64.5575,-423.535,52.2025
259,190080,0.384544,-0.14347200000000002,-0.7356600000000001,31.92,-433.4225,36.54
260,190176,0.363072,-0.095648,-0.655628,-9.73,-432.46,17.885
261,190273,0.392596,0.06075601,-0.640012,-46.1475,-424.305,-1.575
262,190369,0.37746799999999997,0.226188,-0.658312,-61.4775,-414.715,-17.9375
263,190465,0.432612,0.332328,-0.741272,-52.185,-401.905,-29.6625
264,190562,0.529724,0.354532,-0.8818159999999999,-29.1025,-387.2575,-38.5175
265,190658,0.6756361,0.29792399999999997,-1.055788,-1.3825,-375.06,-46.025
266,190754,0.8388721,0.190808,-1.247816,22.8375,-368.0075,-52.2375
267,190850,0.951844,0.069784,-1.36884,38.7275,-366.0825,-55.4575
268,190947,0.987224,0.062952,-1.43472,45.395,-364.3325,-55.2125
269,191043,1.084092,0.13639600000000002,-1.482544,52.4825,-356.0375,-52.4825
270,191139,1.256844,0.137372,-1.505724,68.67,-341.53,-49.91
271,191236,1.480348,0.101748,-1.550864,92.55751,-322.49,-46.4275
272,191332,1.87148,0.264252,-1.594052,120.4,-302.085,-36.9775
273,191428,2.347768,0.467016,-1.759728,157.78,-286.02,-11.7075
274,191525,2.966064,0.47702,-1.8134080000000001,205.835,-283.2725,20.58
275,191621,3.485296,0.309636,-1.7021439999999999,239.5925,-295.295,49.21
276,191717,3.7485720000000002,0.083204,-1.362496,236.67,-314.51,73.78
277,191813,3.8320199999999995,-0.327448,-0.711016,198.3975,-326.83,98.735
278,191910,3.56362,-0.8371639999999999,0.16348,112.805,-318.3775,121.8175
279,192006,3.1707799999999997,-0.8759601,0.9772200999999999,-22.365,-280.0,138.005
280,192102,3.6417,-0.3721,1.5020639999999998,-156.9925,-223.6675,142.5375
281,192199,4.399076,0.44115200000000004,1.88368,-211.995,-187.18,111.545
282,192295,4.20656,1.1934040000000001,2.098888,-153.8075,-160.0725,66.22
283,192391,3.5160400000000003,0.71858,2.4104759999999996,5.53,-110.3025,47.635
284,192488,2.996564,-0.394548,2.364848,126.6125,-26.8275,65.0125
285,192584,2.128168,-2.692296,2.390956,114.135,75.21500999999999,93.135
286,192680,-0.095648,0.232044,0.155184,-109.62,226.1175,102.62
287,192776,0.8222799999999999,-0.29133600000000004,-3.2705759999999997,-150.36,248.8325,98.68251
288,192873,0.395524,0.8256960999999999,-1.226344,-104.16,226.24,126.77
289,192969,0.246928,1.8461040000000002,0.08174001,-89.0575,268.1525,124.775
290,193065,1.4879120000000001,2.103768,-1.498404,-28.4375,309.0325,88.39251
291,193162,2.110112,1.9351639999999999,-2.253828,21.9275,298.9,43.9425
292,193258,1.542812,0.93696,-1.6021040000000002,71.8375,245.5775,-9.03
293,193354,1.8892919999999997,-1.3388280000000001,-1.9539520000000001,98.1225,214.0425,-47.425
294,193451,2.246264,-2.00568,-1.552084,30.3625,173.1625,-31.1325
295,193547,0.9821,0.284992,-1.524268,-54.32,113.365,-5.3375
296,193643,0.747128,0.42773199999999995,-1.2634319999999999,-60.725,84.56,-17.43
297,193740,0.708088,-0.5738880000000001,-0.900848,-28.2975,62.02,-18.1475
298,193836,0.5858439999999999,-0.288896,-0.918416,-39.725,46.0425,-13.405
299,193932,0.640744,-0.042456,-1.107516,-45.78,34.0725,-14.9625
300,194028,0.51362,-0.33818400000000004,-0.90402,-31.57,22.085,-17.815
301,194125,0.48824399999999996,-0.17324,-0.9398880999999999,-31.745,16.7825,-19.7575
302,194221,0.480192,-0.155428,-0.9142680000000001,-30.0475,14.56,-21.175
303,194317,0.484828,-0.107848,-0.9154880999999999,-24.815,13.23,-21.805
304,194414,0.438468,-0.069784,-0.908168,-21.3675,11.865,-22.0325
305,194510,0.40211199999999997,-0.111996,-0.9006040999999999,-16.7825,12.11,-22.6275
306,194606,0.512888,-0.11102000000000001,-0.8954801,-14.4725,14.9275,-24.5175
307,194703,0.505324,-0.11541199999999999,-0.855708,-12.215,14.7875,-25.515
308,194799,0.5104479999999999,-0.079544,-0.8540000000000001,-10.22,13.8775,-25.3225
309,194895,0.460672,-0.011956,-0.8976761000000001,-9.0125,14.315,-23.24
310,194991,0.502884,-0.08100801,-0.8810841,-4.8475,14.28,-20.3175
311,195088,0.46506400000000003,-0.119072,-0.8701040000000001,-1.9425,14.42,-17.7975
312,195184,0.494588,-0.150304,-0.87718,-0.8925,16.415,-18.41
313,195280,0.468724,-0.155916,-0.863028,-0.0875,19.25,-18.97
314,195377,0.4819,-0.140544,-0.8754719999999999,-0.385,20.5625,-20.7375
315,195473,0.49702799999999997,-0.12712400000000001,-0.8591241,0.0,21.4375,-24.57
316,195569,0.500688,-0.13298,-0.8674200000000001,1.4175,22.155,-30.1
317,195665,0.4933681,-0.127368,-0.8586360000000001,3.0625,23.0475,-37.975
318,195762,0.48824399999999996,-0.13298,-0.8439959999999999,4.5675,25.515,-45.605
319,195858,0.494588,-0.06880801,-0.8466800999999999,6.195,30.59,-49.4725
320,195954,0.548756,0.01586,-0.846924,6.0375,37.695,-46.445
321,196051,0.5321640000000001,-0.022936,-0.8337481,7.0,41.475,-43.575
322,196147,0.5267960999999999,0.002684,-0.832528,6.3525,44.0825,-41.37
323,196243,0.5231359999999999,-0.008784,-0.821792,5.0575,47.5825,-39.2875
324,196339,0.5192319999999999,0.018056,-0.843508,3.325,51.695,-34.9825
325,196436,0.515084,-0.0051240009999999996,-0.850096,2.555,57.47,-29.3125
326,196532,0.5099600000000001,-0.008784,-0.8520479999999999,2.24,64.4,-25.69
327,196628,0.5292359999999999,0.013663999999999999,-0.868152,2.2225,72.94,-23.0825
328,196725,0.541924,0.022692,-0.8723001,2.94,80.4475,-19.0575
329,196821,0.549488,0.033428,-0.868152,1.89,87.5,-14.875
330,196917,0.528016,-0.004148001,-0.91012,1.0325,95.04251,-9.835
331,197014,0.542412,0.032695999999999996,-0.8930401,-1.47,102.865,-6.2475
332,197110,0.512888,0.05124001,-0.8998719999999999,-2.87,112.1925,-3.1675
333,197206,0.661728,0.081252,-0.8703481,-4.48,123.7425,0.525
334,197302,0.7388319999999999,0.045627999999999995,-0.8015399999999999,-16.975,141.12,1.085
335,197399,-0.225456,0.14347200000000002,-0.122732,-11.3225,154.9625,11.27
336,197495,0.6912520000000001,-0.132004,-0.969412,-6.8425,201.7225,9.59
337,197591,0.374052,-0.194224,-0.45725600000000005,-16.4325,229.6875,2.2225
338,197688,0.13151600000000002,-0.21594000000000002,-0.855708,-10.4825,278.075,-19.285
339,197784,0.541924,-0.272548,-1.0882399999999999,-14.21,334.53,-32.48
340,197880,0.8298440999999999,-0.31524800000000003,-1.1514360000000001,13.58,402.325,-42.98
341,197977,2.0620439999999998,-0.121024,-1.532076,21.63,469.0175,-56.315
342,198073,1.425936,-0.129564,-1.665544,32.1125,525.9975,-67.7775
343,198169,1.17974,-0.11736400000000001,-1.5311,67.0075,536.1125,-75.32
344,198266,2.519788,-0.38966799999999996,-1.684088,117.8975,536.2175,-81.025
345,198362,2.250168,-0.554856,-2.274324,101.1325,563.29,-81.865
346,198458,2.007144,-0.43041599999999997,-2.203564,61.565,570.2375,-84.4375
347,198554,1.569408,-0.662704,-2.4268240000000003,51.555,550.4625,-92.89001
348,198651,0.8642481,0.296704,-1.159732,86.8525,476.035,-58.835
349,198747,3.530436,-1.889048,-2.822104,74.6025,352.1875,-71.4
350,198843,3.319376,-2.332884,-5.376784,97.3875,93.485,-10.185
351,198939,0.68686,-1.7219080000000002,-3.1451599999999997,14.0525,-154.245,18.3225
352,199036,0.12468399999999999,-0.9547720999999999,-2.025444,-82.1625,-240.45,56.91
353,199132,-0.068076,-0.17568,-1.574776,-123.2,-262.045,74.2875
354,199228,-0.057339999999999995,0.35087199999999996,-1.458388,-102.62,-270.55,80.535
355,199325,0.229848,0.46164799999999995,-1.444724,-33.6175,-291.9525,81.445
356,199421,0.3172,0.31158800000000003,-1.3029600000000001,36.9775,-322.3675,78.47
357,199517,0.332084,0.07002799999999999,-1.13216,74.9525,-353.15,69.79
358,199614,0.345748,-0.065148,-0.9869800999999999,69.8425,-377.4575,55.6675
359,199710,0.35672800000000005,-0.05977999999999999,-0.8857200999999999,39.3925,-392.875,39.8475
360,199806,0.408456,0.0488,-0.8481440999999998,8.435,-400.3125,25.2875
361,199903,0.5185,0.15396400000000002,-0.883524,-6.5625,-403.0775,14.6825
362,199999,0.555588,0.1769,-0.8547319999999999,-4.025,-407.12,8.9425
363,200095,0.549244,0.165188,-0.821792,6.335,-409.2025,6.23
364,200191,0.5636399999999999,0.11467999999999999,-0.828624,14.5775,-404.1275,3.85
365,200288,0.6588,0.08784,-0.9572120999999999,17.675,-393.3475,0.49
366,200384,0.8100801,0.10418800000000002,-1.181692,18.375,-382.9875,-2.31
367,200480,1.004304,0.13859200000000002,-1.43472,22.645,-378.3675,-2.6075
368,200577,1.137284,0.187636,-1.570384,32.2875,-379.6975,-1.2425
369,200673,1.260504,0.230336,-1.626016,46.6025,-381.9375,-1.47
370,200769,1.455216,0.21716,-1.689944,63.875,-379.4,-6.1775
371,200866,1.727032,0.12688,-1.741184,84.2625,-372.6275,-13.2125
372,200962,2.195024,0.247416,-1.743868,101.675,-365.1725,-16.415
373,201058,2.518812,0.47213999999999995,-1.735816,119.665,-360.185,-4.7775
374,201154,3.022672,0.5458281,-1.6562720000000002,151.235,-356.2825,15.505
375,201251,3.597536,0.513864,-1.564284,175.9275,-353.78,36.715
376,201347,3.9347440000000002,0.31598000000000004,-1.27978,184.59,-356.475,59.4825
377,201443,3.987936,-0.34892,-0.5814520000000001,167.7375,-356.79,82.635
378,201540,3.4433279999999997,-1.125328,0.629764,89.95,-334.8275,105.1575
379,201636,3.3201080000000003,-0.9254921,1.472784,-59.4825,-272.65,121.45
380,201732,4.282932,-0.18104800000000001,1.7916919999999998,-181.265,-205.17,112.175
381,201829,4.74092,0.8052,1.979572,-177.2925,-168.875,72.45
382,201925,4.301476,0.8461921,2.39242,-41.895,-137.3575,48.72
383,202021,3.557032,-0.201544,2.705228,117.5825,-74.4625,63.0525
384,202117,3.125884,-1.146312,2.204296,150.01,23.4325,97.405
385,202214,1.808528,-2.3489880000000003,2.092788,31.0975,136.0275,131.075
386,202310,-0.008784,0.052948,-1.8236560000000002,-197.82,252.91,126.6825
387,202406,0.07588400000000001,-0.069784,-2.09596,-154.07,226.7825,138.495
388,202503,0.285236,2.285792,-0.667096,-123.83,251.58,150.99
389,202599,0.72102,2.393152,-0.312564,-61.88,306.985,126.98
390,202695,2.4319479999999998,2.4612279999999997,-2.487336,5.2675,328.9825,83.9825
391,202792,1.7338639999999998,1.7936439999999998,-1.865868,68.46,277.0775,25.2
392,202888,1.6204040000000002,-0.06539201,-1.742648,116.5675,231.5075,-32.6375
393,202984,2.440732,-3.065372,-1.991772,120.015,203.6125,-39.5325
394,203080,1.528904,-1.1716879999999998,-0.9740479999999999,8.4875,160.0375,-1.435
395,203177,0.9825879999999999,0.76982,-1.6836,-57.68,106.5925,2.3275
396,203273,0.571204,-0.217404,-0.9435479999999999,-21.21,71.1725,-14.0525
397,203369,0.7195560000000001,-0.736392,-0.874252,-15.61,57.68,-13.65
398,203466,0.61732,-0.027327999999999998,-1.042368,-44.205,41.6325,-11.585
399,203562,0.58194,-0.239852,-0.9969841,-37.45,24.4475,-16.6775
400,203658,0.494832,-0.3294,-0.8910879999999999,-30.205,16.6075,-19.3375
401,203755,0.46433199999999997,-0.17616800000000002,-0.921832,-34.58,13.2475,-20.9475
402,203851,0.44164,-0.22716399999999998,-0.8908440999999999,-33.2675,11.6025,-23.625
403,203947,0.44334799999999996,-0.183732,-0.8813280000000001,-32.6375,12.3025,-26.25
404,204044,0.472872,-0.077348,-0.889136,-30.975,13.895,-27.6325
405,204140,0.41992399999999996,-0.07612801,-0.8852321,-25.69,13.895,-27.37
406,204236,0.44725200000000004,-0.102724,-0.9032879999999999,-22.54,15.155,-26.985
407,204332,0.49312399999999995,-0.09247601,-0.8664440000000001,-19.3725,16.03,-26.7925
408,204429,0.5185,-0.089304,-0.8579041,-17.8675,15.33,-26.32
409,204525,0.499712,-0.02684,-0.892064,-14.84,13.86,-24.885
410,204621,0.48995200000000005,-0.046604,-0.8971879999999999,-9.625,13.58,-21.1575
411,204718,0.467992,-0.10833599999999999,-0.8862081,-5.3725,14.07,-17.8675
412,204814,0.482388,-0.148596,-0.889136,-2.5725,15.82,-17.01
413,204910,0.462868,-0.14713199999999999,-0.868884,-2.3975,18.6375,-17.36
414,205007,0.447984,-0.142984,-0.868884,-1.0675,20.8775,-19.075
415,205103,0.487756,-0.16104000000000002,-0.861808,-0.805,22.33,-22.12
416,205199,0.49288000000000004,-0.118584,-0.8552200000000001,-0.805,22.925,-26.0225
417,205296,0.48922,-0.12029200000000001,-0.856196,1.855,23.8175,-32.2175
418,205392,0.49312399999999995,-0.10321199999999998,-0.849608,4.76,25.9175,-40.25
419,205488,0.513864,-0.085888,-0.8359440999999999,9.87,29.155,-47.565
420,205584,0.50508,-0.054655999999999996,-0.8327720999999999,12.7225,32.8825,-50.0675
421,205681,0.533628,0.033184,-0.840824,11.69,38.7625,-45.3425
422,205777,0.511424,-0.048556,-0.826916,10.43,43.3825,-38.2725
423,205873,0.49605200000000005,-0.028304000000000003,-0.845216,8.3125,46.725,-35.035
424,205970,0.5058121,-0.012931999999999999,-0.8522921,5.25,52.4125,-31.9375
425,206066,0.5072760000000001,0.022203999999999998,-0.8632719999999999,4.4625,59.3425,-27.5975
426,206162,0.5070319999999999,0.038308,-0.8759601,5.1975,67.5325,-21.8925
427,206259,0.530456,0.028792,-0.8801081000000001,6.125,77.47251,-15.89
428,206355,0.526308,0.005856,-0.919636,7.0875,87.22,-10.3775
429,206451,0.5343600000000001,-0.01098,-0.9091440000000001,5.7575,97.14251,-6.02
430,206548,0.5233800000000001,-0.003904,-0.931348,3.6925,108.1325,-2.765
431,206644,0.527284,0.031476,-0.921588,0.7875,118.6675,-0.245
432,206740,0.5072760000000001,0.104432,-0.8954801,0.595,128.345,4.0075
433,206836,0.7473721,0.039772,-1.036024,-5.6525,142.38,7.105
434,206933,-0.274988,0.07393200000000001,-1.382992,-10.36,164.92,10.0275
435,207029,0.844972,-0.250344,-0.8335040000000001,4.095,183.925,9.975
436,207125,-0.549244,0.082472,-1.019676,-13.0025,248.57,2.065
437,207222,0.356484,-0.264252,-1.152168,8.1375,278.495,-17.5875
438,207318,0.48116800000000004,-0.308904,-1.1346,-10.7975,340.725,-33.1625
439,207414,0.800076,-0.26303200000000004,-1.026752,22.05,414.8025,-44.73
440,207511,2.04716,-0.2135,-1.60064,42.9275,476.245,-56.6825
441,207607,1.5347600000000001,-0.317444,-1.64822,68.1275,523.8625,-72.6425
442,207703,1.397632,-0.22691999999999998,-1.562332,90.2475,546.315,-85.1725
443,207799,2.555168,-0.36234,-1.736304,134.2075,549.7975,-94.5
444,207896,1.796084,-0.667828,-2.2465080000000004,122.2375,569.0475,-91.91001
445,207992,1.55306,-0.52582,-2.2118599999999997,83.8425,567.315,-99.61
446,208088,1.1836440000000001,-0.503128,-2.8857880000000002,69.72,549.5349,-107.8175
447,208185,0.20984,0.346236,-2.36314,96.84501,479.1325,-78.1725
448,208281,3.953532,-1.7409400000000002,-3.6168120000000004,80.255,336.8925,-90.21251
449,208377,3.00608,-2.084004,-4.987604,96.28501,77.6475,-33.4075
450,208474,0.5546121,-1.59332,-3.093188,23.03,-167.7725,-9.975
451,208570,-0.003904,-0.975512,-1.943704,-68.845,-250.32,25.5325
452,208666,-0.23253200000000002,-0.30548800000000004,-1.446188,-118.37,-266.1225,39.8125
453,208763,-0.186416,0.244732,-1.347124,-113.1025,-266.7,45.2375
454,208859,0.208864,0.39528,-1.454728,-52.815,-281.4175,49.14
455,208955,0.411628,0.262788,-1.4330120000000002,22.015,-312.865,53.13
456,209051,0.48263199999999995,0.019764,-1.308084,72.7475,-352.3275,55.125
457,209148,0.496784,-0.16689600000000002,-1.1333799999999998,84.6125,-388.4125,54.7225
458,209244,0.4697,-0.23058,-0.9494040000000001,65.975,-413.455,52.745
459,209340,0.460672,-0.186172,-0.8383841000000001,34.51,-425.215,48.9125
460,209437,0.5077640999999999,-0.07002799999999999,-0.813008,4.7775,-426.1075,44.5375
461,209533,0.5170359999999999,0.048556,-0.764208,-11.69,-424.5675,41.685
462,209629,0.512644,0.136884,-0.7549359999999999,-13.09,-419.3,40.46
463,209726,0.5499761,0.16592,-0.814472,-7.28,-407.68,37.695
464,209822,0.666608,0.193004,-0.9903959999999999,-1.505,-392.28,31.605
465,209918,0.8540000000000001,0.244732,-1.2688,4.62,-379.7325,24.57
466,210014,1.026508,0.297192,-1.493036,15.295,-374.57,19.425
467,210111,1.125816,0.361608,-1.575508,30.4325,-374.885,14.4025
468,210207,1.25294,0.379176,-1.630896,48.125,-372.26,7.9625
469,210303,1.45668,0.326472,-1.696288,67.585,-363.5625,-0.175
470,210400,1.7875439999999998,0.2989,-1.7568,86.32751,-351.1025,-7.3675
471,210496,2.210396,0.528016,-1.7641200000000001,105.9275,-339.01,-6.37
472,210592,2.599332,0.6307401,-1.645536,138.7575,-330.6975,9.8175
473,210689,3.097092,0.6605081,-1.516948,179.2,-324.17,31.15
474,210785,3.63438,0.48702399999999996,-1.464488,207.97,-319.6375,57.435
475,210881,4.022828,-0.168848,-1.21146,212.2925,-322.7525,83.5625
476,210977,4.104568,-1.042124,-0.48653599999999997,157.01,-327.565,103.0575
477,211074,3.659268,-1.5140200000000001,0.58316,15.995,-319.7425,113.8375
478,211170,3.4555279999999997,-0.85888,1.3290680000000001,-159.18,-281.925,123.3225
479,211266,4.486672,0.048556,1.802916,-255.08,-238.945,113.995
480,211363,4.607208,1.041148,2.18624,-216.7725,-212.0475,75.04
481,211459,3.9379160000000004,0.830576,2.775256,-57.015,-166.25,50.12
482,211555,3.233732,-0.266448,3.032432,103.0225,-75.775,62.72
483,211652,2.3550880000000003,-2.520764,3.191276,129.815,51.6075,90.3175
484,211748,-0.124196,0.195932,0.9691681000000001,-61.145,245.77,97.895
485,211844,1.44204,-0.337452,-3.6097360000000003,-94.30751,273.4725,97.8075
486,211940,0.616344,0.406504,-1.746552,-55.1075,244.475,118.23
487,212037,0.12029200000000001,1.6082040000000002,0.329156,-51.1525,280.805,106.4
488,212133,1.8356119999999998,1.6967759999999998,-1.55672,-8.0675,330.715,66.9725
489,212229,2.299456,1.6204040000000002,-2.45952,36.33,311.5,37.2925
490,212326,1.580144,0.8708360999999999,-1.6333360000000001,92.0325,250.7575,1.33
491,212422,2.073512,-1.459608,-2.165988,118.44,216.7375,-32.97
492,212518,1.94468,-2.113284,-1.248548,48.5975,169.6625,-18.305
493,212615,0.9864921,0.19959200000000002,-1.5257319999999999,-37.6075,114.905,5.565
494,212711,0.768112,0.4023561,-1.241716,-44.59,85.0675,-9.065
495,212807,0.6156119999999999,-0.670024,-0.7795801,-13.3,60.0075,-15.155
496,212903,0.610488,-0.373808,-0.904508,-26.25,46.0775,-12.39
497,213000,0.598532,-0.079056,-1.0528600000000001,-41.4925,31.3425,-14.77
498,213096,0.539484,-0.378688,-0.913048,-30.3975,20.2825,-17.745
499,213192,0.420412,-0.28328400000000004,-0.863028,-31.4125,14.8575,-20.2825
500,213289,0.46238,-0.168604,-0.917684,-35.2625,15.6975,-23.275
501,213385,0.48214399999999996,-0.197884,-0.8796200000000001,-34.79,15.7675,-26.6875
502,213481,0.514352,-0.11614400000000001,-0.9054840000000001,-34.2125,14.98,-27.685
503,213578,0.46457600000000004,-0.123708,-0.877424,-29.68,13.23,-27.51
504,213674,0.462136,-0.155672,-0.868152,-25.2175,14.455,-27.2125
505,213770,0.450668,-0.11736400000000001,-0.8652241,-22.2425,16.5725,-27.6325
506,213866,0.454816,-0.10321199999999998,-0.8930401,-19.67,16.835,-27.6325
507,213963,0.561688,-0.06124401,-0.9296399999999999,-17.57,16.9925,-26.67
508,214059,0.503372,-0.020008,-0.8903561,-11.06,16.5725,-22.2775
509,214155,0.47677600000000003,-0.06929600000000001,-0.8842561,-5.1975,17.1675,-17.535
510,214252,0.4636,-0.09882,-0.8874280999999999,-0.8400001,19.6875,-14.91
511,214348,0.49263599999999996,-0.098576,-0.8869401,1.6625,23.0825,-14.1225
512,214444,0.493856,-0.13542,-0.8666879999999999,4.165,25.0075,-14.2975
513,214541,0.4819,-0.144448,-0.864492,5.32,25.935,-16.17
514,214637,0.49288000000000004,-0.134932,-0.8625401,6.685,26.95,-20.0375
515,214733,0.5172800999999999,-0.159332,-0.8464360000000001,9.2225,27.51,-26.0575
516,214829,0.494588,-0.19032000000000002,-0.8276481,11.9525,28.455,-33.0925
517,214926,0.467992,-0.061488,-0.8476561,11.7075,32.06,-36.1025
518,215022,0.517768,-0.1037,-0.821304,11.1125,38.8675,-33.3025
519,215118,0.521672,-0.11102000000000001,-0.815204,10.8325,41.5275,-33.915
520,215215,0.527284,-0.10687200000000001,-0.80642,8.19,43.5925,-35.385
521,215311,0.534604,-0.07246799999999999,-0.8091041,6.1775,45.99,-35.245
522,215407,0.504836,-0.05124001,-0.8371639999999999,4.2175,49.4725,-32.7425
523,215503,0.5282600000000001,-0.054655999999999996,-0.840824,3.78,54.9325,-29.9775
524,215600,0.5185,-0.040016,-0.8508280999999999,3.22,60.76,-27.8775
525,215696,0.531676,-0.008296000999999999,-0.869128,1.995,68.2675,-24.8325
526,215792,0.5397281,-0.002684,-0.888648,1.3475,76.8075,-20.72
527,215889,0.552416,0.001464,-0.898652,1.1375,84.6825,-16.0125
528,215985,0.5551,-0.026351999999999997,-0.8918200000000001,1.4175,94.4125,-11.3575
529,216081,0.519476,0.005612,-0.9125601000000001,-0.105,103.9675,-7.7
530,216177,0.524356,0.0122,-0.8788879999999999,-0.21,114.1525,-4.41
531,216274,0.66368,0.061488,-0.86864,-3.0275,125.9125,-2.1875
532,216370,0.593164,-0.011224,-0.898652,-11.55,146.9125,-2.2925
533,216466,0.12712400000000001,-0.002684,-0.115168,-1.75,158.7075,5.5475
534,216563,0.49727200000000005,-0.10687200000000001,-1.127768,-2.17,215.6525,3.3775
535,216659,0.534116,-0.244732,-0.671244,-0.525,241.9725,-2.2575
536,216755,0.0671,-0.185196,-0.9391560999999999,-6.3175,296.8525,-19.495
537,216851,0.74664,-0.312808,-1.250988,8.4525,365.75,-26.9325
538,216948,1.2099959999999998,-0.200568,-1.25538,36.33,432.88,-32.3225
539,217044,1.424716,-0.177876,-1.564284,60.0425,493.675,-39.9
540,217140,1.640168,-0.340624,-1.554768,70.945,533.96,-53.095
541,217237,1.6857959999999999,0.004148001,-1.849276,96.11,542.2375,-52.885
542,217333,2.43146,-0.392352,-2.074976,124.005,551.25,-59.2375
543,217429,1.792668,-0.5382640000000001,-2.1642799999999998,98.9275,571.6375,-49.7525
544,217526,1.491328,-0.500444,-2.221132,82.14499,566.3525,-58.2925
545,217622,1.231468,0.05002,-2.856752,108.99,543.2,-49.2625
546,217718,-0.271084,0.038064,-3.7327120000000003,138.845,456.96,-35.91
547,217814,4.827296,-2.175016,-7.068436,99.5575,269.2725,-49.98
548,217911,1.84342,-1.874408,-4.049668,62.755,-23.0125,-8.54
549,218007,0.196908,-1.113616,-2.78892,-39.0425,-221.69,2.0825
550,218103,-0.07222401,-0.498004,-1.880264,-116.6025,-281.2425,21.9975
551,218199,-0.119072,-0.058316,-1.457168,-145.635,-287.7525,24.2025
552,218296,0.042212,0.30548800000000004,-1.4015360000000001,-129.2375,-296.205,24.29
553,218392,0.41675200000000007,0.360632,-1.460584,-73.3425,-321.1775,23.7825
554,218488,0.5380199999999999,0.194224,-1.3412680000000001,-5.775,-357.7525,24.08
555,218585,0.571204,-0.038308,-1.132892,38.395,-395.5,22.4175
556,218681,0.5546121,-0.219356,-0.936472,49.385,-424.0425,18.3575
557,218777,0.5363121,-0.32086,-0.792512,35.9975,-438.41,12.5825
558,218874,0.59292,-0.349408,-0.7610359999999999,10.1675,-441.07,5.39
559,218970,0.659288,-0.31232,-0.769576,-15.4875,-439.285,-1.855
560,219066,0.6851520999999999,-0.219112,-0.793488,-30.7825,-436.9225,-6.23
561,219162,0.707356,-0.151036,-0.8332601000000001,-30.66,-431.8475,-6.125
562,219259,0.758352,-0.163236,-0.9018241,-18.4625,-422.6775,-3.7625
563,219355,0.8547319999999999,-0.22716399999999998,-1.042124,-3.36,-410.76,-0.525
564,219451,1.035048,-0.271816,-1.2749,6.8775,-399.0525,4.0775
565,219548,1.243424,-0.256444,-1.4959639999999998,12.6525,-391.79,9.03
566,219644,1.356884,-0.189588,-1.576972,19.915,-390.53,12.6875
567,219740,1.444236,-0.113704,-1.585756,32.2,-387.8875,14.56
568,219836,1.550864,-0.133224,-1.5799,49.49,-378.0875,14.8225
569,219933,1.8478119999999998,0.17397200000000002,-1.475956,66.045,-361.27,14.1925
570,220029,2.107916,0.4026,-1.39812,94.71,-339.465,24.5175
571,220125,2.722064,0.45457200000000003,-1.436428,139.2125,-312.8475,38.5525
572,220222,3.420148,0.37698000000000004,-1.512068,170.3625,-292.4075,48.3525
573,220318,3.8739879999999998,0.08442401,-1.396656,180.4775,-290.815,57.5925
574,220414,3.9920839999999997,-0.6170760000000001,-0.889136,155.0675,-300.825,67.7425
575,220510,3.5258,-1.218048,0.083936,61.495,-301.9975,75.635
576,220607,3.4550400000000003,-0.9415959999999999,0.83936,-96.25,-275.2575,80.71
577,220703,4.153368,-0.10492,1.458632,-215.075,-247.3625,58.3625
578,220799,4.408348,1.023824,1.849276,-213.08,-227.78,8.2075
579,220896,4.04674,1.14314,2.406328,-64.7325,-189.735,-23.345
580,220992,3.27082,0.024888,2.867,125.93,-113.365,-5.6875
581,221088,2.950936,-1.1653440000000002,2.3912,185.7275,-2.1875,35.105
582,221184,2.225768,-2.4949,1.307596,92.925,103.04,78.4
583,221281,0.5504641,0.10394400000000001,-1.16998,-123.62,202.825,103.6175
584,221377,0.5429,-0.071004,-3.0331639999999997,-163.975,217.7525,115.01
585,221473,0.145912,1.03578,-0.697596,-107.7475,209.5975,147.4025
586,221570,0.4575,1.9180840000000001,-0.151524,-76.3175,269.7625,148.2425
587,221666,1.4898639999999999,2.152812,-1.505236,-6.72,306.1625,128.9225
588,221762,1.9293080000000002,2.1423200000000002,-2.114992,41.09,292.1625,88.2875
589,221858,1.22854,1.455948,-1.458876,91.8925,245.35,23.66
590,221955,1.446676,-0.332816,-1.624552,124.495,218.2075,-31.7275
591,222051,1.8463479999999999,-2.809904,-1.567944,130.76,196.98,-27.965
592,222147,1.7924240000000002,-1.265628,-1.269776,14.0525,165.4625,1.6625
593,222244,1.038708,0.5002,-1.6804279999999998,-55.02,105.2275,2.0475
594,222340,0.49995600000000007,-0.25742,-0.8762040000000001,-31.22,68.9675,-17.5525
595,222436,0.7500560000000001,-0.61732,-0.9330560999999999,-27.4225,55.965,-18.8125
596,222533,0.5694961,-0.017812,-1.0889719999999998,-47.81,40.8975,-15.61
597,222629,0.5697399999999999,-0.294508,-0.9869800999999999,-38.115,26.6,-19.1275
598,222725,0.47043199999999996,-0.321104,-0.8884040000000001,-35.1225,18.7775,-23.03
599,222821,0.503128,-0.08784,-0.9852719999999999,-39.235,15.54,-25.1125
600,222918,0.48263199999999995,-0.15201199999999998,-0.9340321,-34.58,11.8475,-26.8625
601,223014,0.471164,-0.133712,-0.9103641,-30.9575,9.625,-27.5625
602,223110,0.46018400000000004,-0.034648000000000005,-0.8988959999999999,-28.035,9.45,-28.455
603,223207,0.478484,-0.030012,-0.9379360000000001,-21.9975,8.995,-27.1425
604,223303,0.438956,-0.056852,-0.9171961,-15.715,9.135,-23.9925
605,223399,0.410408,-0.072712,-0.8991401,-12.53,9.7825,-22.1025
606,223495,0.484828,-0.10345599999999999,-0.8847440999999999,-11.0425,10.64,-21.245
607,223592,0.490196,-0.06880801,-0.8554641,-9.94,10.675,-19.53
608,223688,0.453108,-0.07198,-0.87474,-6.72,11.62,-17.15
609,223784,0.461404,-0.115168,-0.8796200000000001,-4.165,13.895,-14.9625
610,223881,0.47092,-0.18251199999999998,-0.853512,-2.5375,15.26,-15.4
611,223977,0.458232,-0.1281,-0.8735200000000001,-3.57,17.57,-16.5725
612,224073,0.503128,-0.18470799999999998,-0.8388721,-1.7325,18.515,-18.3575
613,224169,0.48068,-0.105652,-0.8459479999999999,-1.5575,19.5825,-19.39
614,224266,0.5282600000000001,-0.114924,-0.841556,-0.035,19.32,-21.3675
615,224362,0.47336000000000006,-0.072712,-0.8439959999999999,1.2425,19.425,-22.925
616,224458,0.46603999999999995,-0.047580000000000004,-0.85644,3.4475,20.7375,-25.06
617,224555,0.490928,-0.07344400000000001,-0.8493641,6.0375,23.8175,-28.77
618,224651,0.48678,-0.093696,-0.8571719999999999,9.87,26.3375,-33.67
619,224747,0.499468,-0.11224,-0.845216,12.6175,30.065,-37.73
620,224844,0.481412,-0.090768,-0.8471681000000001,13.0725,35.07,-39.27
621,224940,0.478972,-0.006344,-0.87108,10.955,41.93,-36.96
622,225036,0.49434399999999995,-0.058072000000000006,-0.849608,9.6075,49.91,-31.605
623,225132,0.48092399999999996,-0.01952,-0.8752280000000001,8.4525,55.7025,-29.8025
624,225229,0.48726800000000003,0.00122,-0.8903561,7.6475,64.1375,-27.615
625,225325,0.504104,0.040992,-0.8969440000000001,7.665,74.6025,-22.89
626,225421,0.520208,0.021472,-0.9001161,8.575,84.6125,-17.3075
627,225518,0.49434399999999995,-0.007076001,-0.9467200000000001,8.5225,95.8475,-11.62
628,225614,0.5355800999999999,0.00488,-0.9511120000000001,6.265,106.12,-8.1375
629,225710,0.557296,0.014152000000000001,-0.921588,3.7975,116.6725,-4.935
630,225806,0.559736,0.083936,-0.919636,1.1025,125.8075,0.35
631,225903,0.55266,0.07002799999999999,-0.8693719999999999,1.3475,135.835,6.58
632,225999,0.684664,-0.156892,-0.9506241,-10.1675,156.205,3.7625
633,226095,-0.6954,0.07002799999999999,-0.323544,-7.2275,176.8025,3.1325
634,226192,0.5785241,-0.194468,-1.111664,-2.695,229.8275,-9.485
635,226288,0.5631520000000001,-0.357704,-0.8086161000000001,-9.1,267.3475,-22.2075
636,226384,0.10906800000000001,-0.343796,-0.9206120000000001,-12.0925,328.2475,-48.3175
637,226480,1.012844,-0.274744,-1.310524,-7.9975,397.215,-66.5
638,226577,1.5433,-0.388448,-1.61406,23.52,457.31,-82.215
639,226673,1.718004,-0.29768,-1.772172,42.8575,502.81,-101.7275
640,226769,1.541104,-0.281332,-1.585756,59.9025,527.1175,-115.15
641,226866,2.5268639999999998,-0.29133600000000004,-1.6753040000000001,93.94,534.205,-118.23
642,226962,1.584048,-0.684664,-2.066192,79.6075,558.6525,-108.4825
643,227058,1.471076,-0.5511961,-2.079612,50.05,559.195,-115.9025
644,227155,1.0528600000000001,-0.43212399999999995,-2.7669599999999996,35.1925,552.335,-121.59
645,227251,0.20008,0.508008,-2.492948,72.8175,511.035,-87.115
646,227347,2.749148,-1.480104,-2.520764,91.7525,373.73,-87.2375
647,227443,3.857396,-2.309948,-6.067304,97.615,145.495,-23.66
648,227540,0.90402,-1.937604,-3.35866,46.9525,-126.07,21.385
649,227636,0.114192,-1.3139399999999999,-2.177212,-65.8875,-241.815,66.325
650,227732,-0.09052401,-0.6824680000000001,-1.4776639999999999,-142.4325,-279.37,92.12001
651,227828,-0.174948,0.020496,-1.1953559999999999,-177.135,-285.1625,99.45251
652,227925,0.047092,0.472628,-1.257088,-148.75,-298.095,98.61251
653,228021,0.262056,0.521184,-1.2517200000000002,-70.6825,-321.475,94.7625
654,228117,0.338916,0.31402800000000003,-1.13582,7.28,-348.46,88.30501
655,228214,0.442616,0.042944,-1.0492,50.6975,-373.135,77.6825
656,228310,0.48873199999999994,-0.16128399999999998,-0.958432,55.4575,-394.2575,63.5775
657,228406,0.48165600000000003,-0.260348,-0.8591241,34.1775,-409.0625,48.1075
658,228502,0.4697,-0.23058,-0.77836,1.6625,-415.3975,32.9875
659,228599,0.43358800000000003,-0.112728,-0.712724,-24.0625,-414.68,20.8775
660,228695,0.441396,0.007564001,-0.7237041,-32.5675,-407.0325,12.9325
661,228791,0.50142,0.073688,-0.8169121,-24.605,-393.855,8.4525
662,228888,0.621712,0.081496,-0.99918,-7.2975,-379.6975,5.985
663,228984,0.7993439999999999,0.06563601,-1.250744,12.285,-369.11,5.5475
664,229080,0.9489161,0.043676,-1.424716,30.205,-364.84,6.7025
665,229176,1.0187,0.063196,-1.493524,43.89,-364.1575,8.295
666,229273,1.137284,0.148352,-1.532564,53.2875,-359.555,7.0
667,229369,1.225856,0.22691999999999998,-1.563552,64.855,-349.4925,1.75
668,229465,1.380308,0.223748,-1.563796,83.265,-333.305,-7.105
669,229562,1.7570439999999998,0.474092,-1.530368,103.6875,-310.87,-16.5725
670,229658,2.162084,0.636108,-1.5645280000000001,135.7475,-287.91,-12.285
671,229754,2.811124,0.7378560000000001,-1.627968,183.155,-268.3975,-0.63
672,229850,3.5624,0.7734800000000001,-1.730692,227.535,-262.0975,12.5825
673,229947,4.0667480000000005,0.48824399999999996,-1.616012,260.61,-277.7775,31.465
674,230043,4.193384,-0.395036,-1.045784,257.985,-304.71,50.4875
675,230139,3.752476,-1.3771360000000001,-0.0427,164.36,-315.455,67.76
676,230236,3.441864,-1.27978,0.8481440999999998,-34.5975,-297.745,77.945
677,230332,4.146780000000001,-0.435296,1.5669680000000001,-220.9025,-273.0525,62.16
678,230428,4.4896,0.758108,2.0435,-285.1975,-259.2625,15.9425
679,230524,3.97842,1.354444,2.4878240000000003,-193.1125,-228.7075,-30.1175
680,230621,3.007788,0.7376119999999999,3.018036,4.4625,-150.815,-23.17
681,230717,2.5634639999999997,-0.298412,2.6776560000000003,135.52,-30.6425,25.5325
682,230813,2.46074,-1.354688,1.4039760000000001,129.7625,92.40001,80.115
683,230910,1.2322,-0.902068,-0.324276,-30.0475,189.91,122.43
684,231006,0.266936,-0.483364,-2.520276,-184.905,228.7425,117.075
685,231102,-0.394304,0.254492,-0.86498,-140.6125,193.305,127.75
686,231198,-0.044896,2.282132,-0.302316,-126.3325,242.69,118.4925
687,231295,0.6292760000000001,2.315804,-0.7198,-62.685,302.9075,81.935
688,231391,2.191364,2.157692,-2.145248,2.275,322.98,39.5675
689,231487,1.61772,1.090924,-1.576972,69.0025,279.3,-0.77
690,231584,1.943704,-0.8252079999999999,-1.921256,101.325,247.5725,-36.225
691,231680,3.212504,-2.351428,-2.345084,50.1025,209.93,-26.3725
692,231776,1.015772,0.07246799999999999,-1.381772,-46.6025,137.0075,-1.0325
693,231872,0.753472,0.6919841,-1.378844,-60.7075,99.155,-12.3025
694,231969,0.83814,-0.30378,-0.9335440999999999,-19.3375,71.3825,-15.2425
695,232065,0.617564,-0.282552,-0.8988959999999999,-14.105,50.26,-6.23
696,232161,0.654408,-0.029036000000000003,-1.06018,-22.1725,31.815,-6.5975
697,232257,0.5926760999999999,-0.266448,-0.945256,-10.6575,18.27,-6.72
698,232354,0.48702399999999996,-0.24082800000000001,-0.883524,-8.82,9.94,-8.4525
699,232450,0.46945600000000004,-0.180316,-0.892552,-11.1125,7.735,-9.9925
700,232546,0.490196,-0.183,-0.8788879999999999,-10.08,8.7675,-11.27
701,232643,0.505568,-0.131028,-0.8927959999999999,-9.8525,8.0675,-11.8825
702,232739,0.484584,-0.08369201,-0.9001161,-7.4725,7.0,-11.34
703,232835,0.447984,-0.1342,-0.8727879999999999,-3.675,7.315,-10.43
704,232932,0.46311199999999997,-0.15982000000000002,-0.8425321,-4.5325,9.45,-11.165
705,233028,0.45603599999999994,-0.158356,-0.834968,-7.4375,10.745,-12.4775
706,233124,0.47653199999999996,-0.145424,-0.868884,-9.765,11.83,-13.37
707,233220,0.510204,-0.12761199999999998,-0.8718120999999999,-10.255,12.6175,-13.615
708,233317,0.5368,-0.09394001,-0.8901120000000001,-9.135,11.6025,-12.8275
709,233413,0.4941,-0.128832,-0.8666879999999999,-5.8625,9.6075,-11.41
710,233509,0.467504,-0.160308,-0.8571719999999999,-3.7975,9.905,-11.095
711,233606,0.46481999999999996,-0.17836400000000002,-0.8439959999999999,-3.4475,11.7775,-12.3725
712,233702,0.462136,-0.185196,-0.8405800999999999,-4.375,13.16,-14.875
713,233798,0.456524,-0.20447200000000001,-0.831308,-5.39,13.7725,-18.4275
714,233894,0.510692,-0.17324,-0.8437520000000001,-6.65,14.3675,-22.855
715,233991,0.508008,-0.172508,-0.8310639999999999,-5.11,14.07,-26.1625
716,234087,0.503128,-0.15372,-0.8342360000000001,-3.7625,13.3,-28.1225
717,234183,0.47994799999999993,-0.125416,-0.8291120999999999,-2.31,13.3175,-30.3625
718,234280,0.49824799999999997,-0.1281,-0.8383841000000001,-1.2425,14.875,-33.53
719,234376,0.49044,-0.159088,-0.8210601000000001,-0.8225,16.6075,-37.9575
720,234472,0.48312,-0.154452,-0.8276481,-1.4,18.41,-41.5975
721,234568,0.46921199999999996,-0.15616,-0.8222799999999999,-2.8175,22.4175,-44.485
722,234665,0.49702799999999997,-0.08442401,-0.854244,-3.4475,28.3325,-45.5875
723,234761,0.50752,-0.023180000000000003,-0.8757159999999999,-3.2375,35.8575,-42.8925
724,234857,0.499712,-0.026108,-0.8788879999999999,-2.3625,43.2425,-38.6925
725,234954,0.50264,0.007564001,-0.8949921000000001,-3.2725,51.5025,-34.65
726,235050,0.490196,0.004148001,-0.9140241,-2.695,61.39,-30.0125
727,235146,0.511668,0.006344,-0.919392,-2.1,72.9925,-24.71
728,235242,0.5307,0.017324000000000003,-0.907192,-1.2775,84.5775,-20.1075
729,235339,0.54656,0.05563200000000001,-0.9049959999999999,-0.7175,95.62,-16.065
730,235435,0.527772,0.0732,-0.9625799999999999,-1.0325,105.525,-11.06
731,235531,0.417484,0.037576,-1.012844,-2.5375,116.9175,-4.9175
732,235628,0.369172,-0.044407999999999996,-1.02236,-3.6925,132.2825,-3.36
733,235724,0.6314721,-0.154452,-1.0979999999999999,-8.1725,156.4325,-11.6725
734,235820,-0.540948,-0.004148001,-1.565504,-16.1,192.1325,-27.965
735,235916,0.9669721,-0.271328,-1.03334,-0.21,229.215,-38.78
736,236013,-0.266448,0.06661201,-0.530456,-15.33,304.115,-51.9225
737,236109,0.238144,-0.238144,-1.1655879999999998,-0.07,359.765,-76.4575
738,236205,0.81252,-0.27718400000000004,-1.354444,-0.525,433.055,-93.7125
739,236302,1.500356,-0.342088,-1.627724,48.615,501.305,-105.49
740,236398,1.8182880000000001,-0.257176,-1.85684,83.055,543.83,-115.885
741,236494,1.607228,-0.310368,-1.471808,101.045,548.065,-124.285
742,236590,2.795264,-0.46311199999999997,-2.197952,107.4325,547.1375,-129.9725
743,236687,1.8407360000000001,-0.462624,-2.535892,111.1425,550.7075,-117.075
744,236783,1.05164,-0.570716,-2.085224,126.98,537.88,-122.9025
745,236879,0.546072,-0.07027201,-1.298812,152.5475,523.39,-108.2025
746,236976,-0.516304,0.052703999999999994,-2.523692,192.1675,429.485,-102.7775
747,237072,4.436408,-1.8282919999999998,-7.1248,204.54,209.4925,-98.0175
748,237168,1.549644,-2.3075080000000003,-3.9008279999999997,214.375,-52.5,-41.4225
749,237265,-0.306708,-2.01178,-2.275788,120.2775,-222.775,-0.455
750,237361,-0.546804,-1.4152,-1.446432,-3.64,-264.2325,43.295
751,237457,-0.359412,-0.6795401,-1.244156,-86.9925,-261.5725,76.265
752,237553,-0.12566,0.058072000000000006,-1.361764,-99.6975,-263.9875,108.08
753,237650,0.244732,0.45457200000000003,-1.4896200000000002,-40.775,-285.8975,138.5475
754,237746,0.422364,0.49898000000000003,-1.469856,42.7875,-320.4775,164.6925
755,237842,0.5124001,0.33379200000000003,-1.359568,98.455,-355.95,179.935
756,237939,0.55998,0.233508,-1.249768,99.5225,-386.1375,178.4125
757,238035,0.589504,0.389424,-1.158268,59.01,-406.245,161.56
758,238131,0.592188,0.672708,-1.080676,16.9925,-418.985,138.005
759,238227,0.593896,0.912316,-1.0182120000000001,0.91,-424.9,114.6425
760,238324,0.621468,1.037976,-1.029436,9.73,-422.5725,92.0675
761,238420,0.708332,1.04798,-1.111664,30.0125,-414.61,68.705
762,238516,0.8805960999999999,1.02846,-1.299056,46.5325,-405.825,42.21
763,238613,1.075064,1.042856,-1.503528,55.2825,-401.52,12.145
764,238709,1.228784,1.092388,-1.624308,61.8275,-402.885,-19.915
765,238805,1.3237,1.172176,-1.6616400000000002,72.94,-405.125,-52.185
766,238901,1.423984,1.22,-1.6448040000000002,92.7325,-402.7625,-83.685
767,238998,1.641144,1.282708,-1.689212,116.9,-393.5925,-114.555
768,239094,2.022516,1.4152,-1.866844,143.78,-381.045,-144.34
769,239190,2.51808,1.544032,-1.9366279999999998,177.6075,-375.305,-173.11
770,239287,2.891156,1.624064,-1.6738400000000002,221.375,-377.8425,-193.4975
771,239383,2.99388,1.6089360000000001,-1.280268,263.76,-376.005,-197.68
772,239479,3.212748,1.311988,-0.813496,287.0875,-358.575,-190.7325
773,239576,3.3020519999999998,1.099952,-0.38674000000000003,268.2225,-322.0525,-181.23
774,239672,3.36964,0.19739600000000002,-0.086132,220.9725,-280.91,-160.4225
775,239768,3.2583759999999997,-0.5551,0.44725200000000004,120.1025,-236.3025,-132.51
776,239864,3.8064,0.13151600000000002,0.7829961,-18.445,-191.415,-98.595
777,239961,4.409324,0.998692,1.5852680000000001,-63.665,-175.105,-72.2575
778,240057,3.83446,1.2397639999999999,2.571516,-11.1475,-151.095,-63.595
779,240153,3.010716,0.6724640000000001,2.992416,62.0725,-77.035,-50.8375
780,240250,2.5922560000000003,-0.16835999999999998,2.175748,66.5875,30.975,-32.06
781,240346,1.9175959999999999,-0.9708760000000001,1.8988080000000003,-61.5125,154.175,-27.0375
782,240442,0.582428,0.166164,-1.9947,-267.6275,242.025,-48.02
783,240539,-0.129564,-1.15534,-2.252364,-214.655,198.9225,-38.7625
784,240635,-0.07490801,0.8820601,-0.74298,-232.015,218.3825,-51.8875
785,240731,0.830332,1.247328,-0.317932,-182.7175,285.1275,-39.4625
786,240827,2.57176,1.029192,-1.996164,-95.235,315.6125,-14.315
787,240924,2.980948,1.173884,-2.446832,-83.7025,268.6075,-36.2775
788,241020,2.293112,-0.527772,-1.9868919999999999,-61.0575,183.5575,-64.12
789,241116,0.360632,-0.123464,-1.191452,-91.5775,120.8725,-28.14
790,241213,0.753472,1.979572,-1.361276,-84.21,111.44,4.5675
791,241309,0.9467200000000001,0.047092,-1.194868,-3.2725,63.8575,-3.5175
792,241405,0.559004,-0.14005599999999999,-0.9476959999999999,18.97,52.2025,3.08
793,241501,0.604144,-0.17397200000000002,-0.8852321,9.0825,45.99,7.84
794,241598,0.625616,-0.31646799999999997,-0.833992,11.8825,36.6975,1.1025
795,241694,0.6068279999999999,-0.071248,-0.887184,-1.68,27.615,-1.575
796,241790,0.57096,-0.11955999999999999,-0.8969440000000001,-0.21,21.4375,-2.485
797,241887,0.5665680000000001,-0.08564401,-0.8788879999999999,-0.6825,20.23,-2.73
798,241983,0.5734,-0.074664,-0.8657120999999999,0.07,18.235,-2.52
799,242079,0.54778,-0.063928,-0.849852,0.4725,15.6275,-1.9075
800,242176,0.520208,-0.118828,-0.8459479999999999,0.0,14.6125,-2.555
801,242272,0.5397281,-0.105896,-0.8466800999999999,-2.3625,16.1,-4.27
802,242368,0.5602239999999999,-0.08784,-0.846924,-3.3425,16.45,-5.46
803,242464,0.5631520000000001,-0.057096,-0.85034,-2.9575,14.9975,-5.6175
804,242561,0.5363121,-0.063928,-0.8520479999999999,-1.785,13.405,-5.285
805,242657,0.5172800999999999,-0.084912,-0.85644,-0.07,13.6675,-5.075
806,242753,0.46921199999999996,-0.11541199999999999,-0.8698601,2.065,15.47,-6.8075
807,242850,0.447008,-0.172508,-0.8730319999999999,5.145,18.76,-11.7425
808,242946,0.46457600000000004,-0.189344,-0.8637601,9.0825,23.66,-19.6875
809,243042,0.46726,-0.21008400000000002,-0.8532681000000001,13.475,27.51,-29.715
810,243138,0.452132,-0.28377199999999997,-0.822768,19.4775,31.9025,-42.3675
811,243235,0.480192,-0.130296,-0.8815719999999999,22.7675,37.905,-57.4875
812,243331,0.49532,-0.12322000000000001,-0.850584,33.88,42.385,-72.1525
813,243427,0.518988,-0.07344400000000001,-0.853756,48.09,44.87,-88.41001
814,243524,0.516304,-0.100284,-0.8532681000000001,70.3675,43.645,-108.08
815,243620,0.5368,-0.1586,-0.8095920999999999,92.365,41.5975,-130.865
816,243716,0.584868,-0.18324400000000002,-0.7671359999999999,111.2125,38.745,-153.965
817,243812,0.6029241,-0.211792,-0.750788,127.12,37.1875,-173.2325
818,243909,0.657092,-0.173484,-0.7288279999999999,134.75,34.0025,-186.1475
819,244005,0.6707561,-0.14493599999999998,-0.7259001,135.975,32.34,-191.59
820,244101,0.7044279999999999,-0.07393200000000001,-0.692716,129.2375,30.1175,-189.385
821,244198,0.70638,-0.034404000000000004,-0.7056479999999999,117.6875,28.735,-180.3725
822,244294,0.693448,0.044407999999999996,-0.7329760000000001,104.2125,27.615,-166.2325
823,244390,0.660996,0.07490801,-0.745908,93.5375,27.965,-149.1875
824,244487,0.7056479999999999,0.12029200000000001,-0.7278521,81.585,29.05,-129.5525
825,244583,0.7625,0.138836,-0.726388,64.575,29.9075,-107.1525
826,244679,0.667096,0.144448,-0.745908,43.155,29.9075,-81.55001
827,244775,0.758596,0.13859200000000002,-0.7417600000000001,23.1175,28.7,-56.3675
828,244872,0.7041841,0.11614400000000001,-0.763476,9.38,33.215,-35.21
829,244968,0.60878,0.04514,-0.8437520000000001,1.2425,41.5975,-19.0925
830,245064,0.49702799999999997,-0.013663999999999999,-0.919636,-3.6575,52.3775,-10.7275
831,245161,0.331596,-0.046604,-1.116788,-7.4725,68.7575,-10.7625
832,245257,0.299388,-0.139568,-0.752496,8.3125,83.405,-17.255
833,245353,0.614636,-0.193492,-0.945744,11.3225,140.98,-35.525
834,245449,0.477264,-0.020008,-1.255136,3.4125,196.98,-55.755
835,245546,0.426756,0.10345599999999999,-0.763232,46.3575,221.655,-70.3675
836,245642,0.5743761,-0.047336,-1.275144,95.585,287.84,-96.145
837,245738,0.9850280999999999,-0.121512,-1.515728,138.0925,341.46,-115.5175
838,245835,1.619672,-0.393572,-1.92882,211.365,394.87,-126.875
839,245931,1.393728,-0.083204,-2.0815639999999997,267.96,407.785,-135.8875
840,246027,2.744512,-0.346236,-2.0398400000000003,315.7175,388.5175,-153.685
841,246124,2.216496,-0.38966799999999996,-1.87148,332.7975,377.8775,-158.9175
842,246220,1.2993,0.5392399999999999,-2.2482159999999998,366.835,350.49,-148.26
843,246316,-0.046116000000000004,0.15738,-0.192272,401.73,281.0325,-169.68
844,246412,0.74054,-1.109956,-3.107828,375.62,239.47,-200.725
845,246509,0.9413520000000001,-2.71084,-3.1573599999999997,360.36,52.255,-152.005
846,246605,-0.7476161,-2.1413439999999997,-1.741672,235.97,-23.5375,-71.8375
847,246701,-0.205204,-0.79178,-2.1957560000000003,137.1125,-33.6175,35.3675
848,246798,-0.19397999999999999,0.12712400000000001,-2.338496,160.93,-62.1425,136.6575
849,246894,-0.190564,0.646112,-2.220888,219.275,-108.99,194.495
850,246990,-0.186172,1.17486,-2.051308,239.4,-153.7375,203.4025
851,247087,-0.071004,1.7921799999999999,-1.992748,225.61,-190.33,173.0925
852,247183,0.050508,2.2850599999999996,-1.88002,213.0275,-224.8925,119.7875
853,247279,0.148596,2.508808,-1.7040959999999998,217.63,-257.74,57.82
854,247375,0.241804,2.490264,-1.529636,233.8175,-284.235,-0.8925
855,247472,0.340136,2.2957959999999997,-1.3832360000000001,249.6025,-301.77,-45.1675
856,247568,0.43602799999999997,2.047648,-1.282464,254.03,-313.04,-70.7175
857,247664,0.540216,1.87148,-1.254892,244.1075,-319.585,-78.8725
858,247761,0.6512359999999999,1.760216,-1.267336,227.3425,-324.765,-73.4825
859,247857,0.74664,1.7502119999999999,-1.283196,207.6025,-330.05,-62.265
860,247953,0.8559521000000001,1.828048,-1.311744,187.705,-334.705,-53.2175
861,248050,0.9628241,1.8644040000000002,-1.3237,174.7375,-339.2375,-49.9625
862,248146,1.0147959999999998,1.815848,-1.277828,167.9475,-343.56,-53.41
863,248242,1.023336,1.720932,-1.19316,163.765,-344.295,-62.545
864,248338,1.071404,1.6567599999999998,-1.1529,151.83,-338.065,-80.78
865,248435,1.1394799999999998,1.6796959999999999,-1.083848,128.205,-325.92,-113.0325
866,248531,1.241716,1.7870560000000002,-1.0784799999999999,104.755,-308.28,-158.2
867,248627,1.545252,1.82512,-1.1599760000000001,101.395,-286.755,-206.815
868,248724,1.873676,1.6499279999999998,-1.09922,125.9125,-270.865,-244.8425
869,248820,2.117188,1.334924,-0.8857200999999999,160.8075,-258.5975,-262.255
870,248916,2.3807080000000003,0.9679481,-0.6470880999999999,183.3475,-240.4325,-259.3325
871,249013,2.802584,0.6756361,-0.564128,181.79,-217.14,-242.375
872,249109,3.14882,0.342332,-0.43602799999999997,154.875,-201.075,-217.6475
873,249205,3.160288,0.11394800000000001,-0.296948,101.4825,-196.7,-191.38
874,249301,3.2059159999999998,0.077836,0.036112,34.895,-194.145,-173.39
875,249398,2.9951,0.125172,0.446032,-18.48,-181.125,-161.595
876,249494,2.812344,0.1159,0.78446,-41.3175,-154.4025,-152.88
877,249590,2.728652,0.129076,0.888648,-41.16,-116.2875,-146.79
878,249687,2.772816,0.09247601,0.753228,-21.6125,-74.83,-138.3375
879,249783,2.7406080000000004,-0.323056,0.733464,6.1075,-42.455,-124.5475
880,249879,2.580788,-0.422608,1.226344,-16.0475,-1.0325,-117.95
881,249976,2.1167,0.45261999999999997,0.859856,-85.78501,52.7625,-119.6125
882,250072,0.767624,0.043676,-1.3725,-89.4425,70.595,-107.975
883,250168,0.5060560000000001,-0.406016,-1.785836,-60.725,42.7875,-84.03501
884,250264,-0.10638399999999999,-0.62708,-0.686616,-26.6,40.2675,-57.435
885,250361,0.8247200000000001,-0.284992,-1.037244,1.0325,82.6,-29.4875
886,250457,1.477176,0.20374,-1.762168,5.845,92.9775,-15.085
887,250553,0.8344801,0.10760399999999999,-1.148752,17.325,62.195,-17.71
888,250650,0.551928,-0.256444,-0.9564799999999999,13.58,46.9,-22.015
889,250746,0.5690081,-0.131028,-0.965752,-2.2225,46.06,-20.615
890,250842,0.643184,0.12761199999999998,-1.0079639999999999,-4.795,41.72,-15.33
891,250939,0.899384,-0.120048,-1.140944,3.1675,30.905,-12.845
892,251035,0.5363121,-0.06929600000000001,-0.9591639999999999,7.3675,9.3275,-6.7375
893,251131,0.53192,0.128588,-0.9940559999999999,6.335,4.27,-2.135
894,251227,0.554856,-0.050508,-0.9469641,14.7875,-0.77,1.96
895,251324,0.45579200000000003,-0.09272000000000001,-0.9128040000000001,18.375,-4.62,6.02
896,251420,0.44847200000000004,-0.038308,-0.9198799999999999,18.7775,-4.55,8.575
897,251516,0.447008,-0.077348,-0.9147559999999999,20.895,-3.885,9.415
898,251613,0.395036,-0.09345201,-0.8693719999999999,23.415,-2.8875,10.78
899,251709,0.394304,-0.125904,-0.8625401,26.2675,0.7,12.425
900,251805,0.36478,-0.172264,-0.8044680999999999,27.16,4.97,13.37
901,251901,0.33794,-0.227652,-0.7734800000000001,23.8875,10.36,12.6525
902,251998,0.407724,-0.209108,-0.8335040000000001,17.4475,18.2175,10.605
903,252094,0.417728,-0.16592,-0.840824,13.6675,23.4675,9.065
904,252190,0.41016400000000003,-0.236436,-0.8174001000000001,10.605,25.9525,5.88
905,252287,0.42114399999999996,-0.266936,-0.809348,6.2125,28.84,2.065
906,252383,0.46726,-0.243756,-0.8459479999999999,0.595,31.885,-2.2575
907,252479,0.49117200000000005,-0.188124,-0.8791321,-1.89,32.0775,-5.88
908,252575,0.5267960999999999,-0.15420799999999998,-0.889868,-1.26,31.57,-8.47
909,252672,0.50752,-0.1891,-0.8552200000000001,0.8225,28.0525,-10.9025
910,252768,0.47702,-0.188368,-0.8252079999999999,-1.05,25.445,-13.195
911,252864,0.487756,-0.16909200000000002,-0.863516,-4.76,25.165,-15.75
912,252961,0.44676400000000005,-0.19861600000000001,-0.8637601,-6.3525,25.025,-19.9325
913,253057,0.447008,-0.163968,-0.8937719999999999,-6.335,26.635,-26.2325
914,253153,0.486292,-0.284748,-0.8457040000000001,-1.6975,27.475,-35.6125
915,253249,0.49141599999999996,-0.16592,-0.8571719999999999,-0.6475,29.3475,-47.4075
916,253346,0.461892,-0.21106,-0.8522921,1.855,31.0975,-56.2625
917,253442,0.49434399999999995,-0.15616,-0.828868,6.7025,35.105,-64.6625
918,253538,0.560956,-0.033428,-0.859368,5.005,42.9275,-66.53501
919,253635,0.571692,-0.026595999999999998,-0.821304,7.875,45.815,-64.505
920,253731,0.5724239999999999,-0.0183,-0.8105680000000001,8.61,47.705,-60.8475
921,253827,0.58194,0.007320001,-0.8174001000000001,8.68,50.0675,-54.7225
922,253923,0.559004,-0.007320001,-0.8215481,6.0725,53.305,-46.13
923,254020,0.545096,-0.008540001,-0.845216,2.2925,58.59,-36.295
924,254116,0.55388,-0.025863999999999998,-0.8420440999999999,-0.4025,64.0675,-27.4225
925,254212,0.530212,-0.0671,-0.8493641,-2.9925,70.665,-20.475
926,254309,0.54656,-0.06661201,-0.8464360000000001,-6.475,76.475,-15.8025
927,254405,0.551928,-0.060024,-0.86498,-8.1025,83.2475,-13.0725
928,254501,0.576816,-0.042944,-0.863028,-10.7275,87.81501,-10.7975
929,254597,0.5355800999999999,-0.027572000000000003,-0.870592,-13.125,94.43,-7.175
930,254694,0.5946279999999999,-0.006832001,-0.850584,-16.9225,101.605,-5.3025
931,254790,0.5565640000000001,-0.024888,-0.865956,-24.185,111.685,-5.075
932,254886,-0.266204,0.166164,-0.9950319999999999,-19.0925,117.81,1.435
933,254983,0.6893,-0.068564,-0.791292,-4.235,137.3925,0.8575
934,255079,0.167384,0.003904,-1.2136559999999998,-28.3675,189.5075,3.1325
935,255175,0.6304960000000001,-0.193736,-0.693448,-4.9875,192.22,-0.035
936,255271,0.34794400000000003,-0.096868,-0.9330560999999999,-13.6675,235.0075,-9.9575
937,255368,0.5170359999999999,-0.071492,-0.9889319999999999,-3.92,273.455,-13.5275
938,255464,0.7659161,-0.089304,-1.19804,24.3425,327.2675,-11.025
939,255560,2.014952,-0.22106399999999998,-1.41886,47.0575,386.6975,-11.655
940,255657,0.8042239999999999,-0.13908,-1.3583479999999999,66.5525,471.4675,-15.9075
941,255753,1.287588,0.183976,-1.321992,75.6525,511.7175,-16.9225
942,255849,1.232444,-0.131272,-1.5140200000000001,84.14001,520.1525,-3.2375
943,255946,1.6875040000000001,-0.10394400000000001,-1.753628,107.3275,519.9425,2.17
944,256042,3.151748,-0.36892800000000003,-2.255048,96.35501,535.71,-21.2275
945,256138,2.4795279999999997,-0.333548,-2.4502479999999998,72.555,552.58,-14.105
946,256234,1.741916,-0.5185,-2.023736,83.72001,537.075,-4.9525
947,256331,1.636508,0.173484,-1.76168,114.73,456.855,6.8425
948,256427,3.6102239999999997,-1.720932,-3.4128279999999998,60.5325,332.0625,-23.9925
949,256523,2.8740759999999996,-1.746552,-5.2777199999999995,51.31,84.455,18.655
950,256620,0.503128,-0.965996,-3.011936,-29.9775,-150.325,25.2525
951,256716,-0.062464,-0.22789600000000002,-1.9951880000000002,-100.415,-220.185,38.885
952,256812,-0.200324,0.31451599999999996,-1.60796,-108.3425,-231.2275,38.7975
953,256909,0.031232,0.5380199999999999,-1.581364,-71.9075,-238.3325,29.19
954,257005,0.34257600000000005,0.437492,-1.628212,-13.8075,-265.23,15.2775
955,257101,0.407968,0.21276799999999998,-1.4945,30.4675,-307.1075,-0.5075
956,257197,0.44993599999999995,0.043432,-1.330044,45.255,-348.3725,-15.6625
957,257294,0.444568,-0.05368,-1.137528,38.85,-382.9525,-27.86
958,257390,0.42578,-0.091988,-0.9540401,25.06,-407.5575,-35.9625
959,257486,0.44286000000000003,-0.08637601,-0.824232,10.7275,-420.28,-40.3025
960,257583,0.49776000000000004,-0.077348,-0.7473721,1.365,-423.465,-40.95
961,257679,0.49898000000000003,-0.107848,-0.6688041,-2.0125,-422.135,-37.695
962,257775,0.502152,-0.132004,-0.624884,-5.0575,-416.0975,-32.3225
963,257872,0.515328,-0.135176,-0.653676,-10.3775,-404.495,-26.2675
964,257968,0.5978,-0.113704,-0.788852,-15.435,-389.165,-20.965
965,258064,0.744688,-0.080764,-1.019676,-16.415,-375.55,-16.1875
966,258160,0.9042641,-0.059536,-1.252208,-10.4475,-368.3575,-10.4825
967,258257,0.9730721,0.006832001,-1.38592,-1.05,-367.08,-3.045
968,258353,1.101904,0.08881599,-1.499136,11.375,-365.225,2.0475
969,258449,1.359568,0.069784,-1.6206479999999999,28.5075,-361.0425,0.4025
970,258545,1.597224,0.009028000999999999,-1.648464,47.215,-357.2975,-5.67
971,258642,1.9478520000000001,0.159576,-1.619428,65.1,-350.91,-10.4475
972,258738,2.41926,0.36478,-1.711904,92.71500999999999,-341.215,-3.325
973,258834,2.935808,0.377224,-1.591612,137.5675,-334.32,11.5675
974,258931,3.293024,0.39405999999999997,-1.28588,177.345,-328.1775,26.18
975,259027,3.6407239999999996,0.270352,-1.068476,199.78,-316.785,41.3875
976,259123,4.156052,-0.22789600000000002,-0.8071520000000001,192.71,-303.3625,55.65
977,259219,4.267316,-0.777628,-0.181292,130.7075,-293.475,66.43
978,259316,3.8083519999999997,-0.9633120999999999,0.680028,12.8975,-278.3725,80.6925
979,259412,3.6131519999999995,-0.552172,1.462048,-126.63,-245.525,91.455
980,259508,3.550932,0.17324,2.130608,-201.95,-202.7375,65.52
981,259605,3.5941199999999998,0.9415959999999999,2.3321520000000002,-165.3925,-146.055,14.21
982,259701,3.859836,0.549732,2.2911599999999996,-23.38,-82.075,-22.225
983,259797,3.7271,-0.544852,2.140368,109.9525,-23.9225,-20.5275
984,259894,3.352804,-1.2702639999999998,1.725812,118.8775,33.5825,7.3325
985,259990,2.5988439999999997,-1.375916,0.9394,26.11,87.0625,45.15
986,260086,0.431148,-0.831308,-1.8107240000000002,-96.35501,142.0125,68.845
987,260182,-0.335256,-0.6348881,-3.154188,-137.5325,176.9425,92.4525
988,260279,-0.13078399999999998,0.959408,-0.077836,-90.265,179.2875,141.295
989,260375,0.48922,1.720688,-0.265716,-54.635,239.05,161.175
990,260471,1.200968,2.253828,-1.37616,5.4075,272.5625,132.0375
991,260568,1.488644,2.239676,-1.942484,41.195,269.99,67.0075
992,260664,1.9014919999999997,0.8820601,-2.007144,84.14001,242.4275,-15.015
993,260760,1.62382,-1.6028360000000001,-1.424228,123.48,197.8725,-46.3925
994,260856,2.2174720000000003,-2.318732,-1.6506599999999998,59.5175,164.99,-18.165
995,260953,0.844972,0.5914560000000001,-1.39202,-42.56,112.21,7.8575
996,261049,0.955016,0.183488,-1.2585520000000001,-36.2075,82.88,-9.73
997,261145,0.5023960999999999,-0.7978801,-0.5948720000000001,1.05,50.5575,-10.29
998,261242,0.740296,-0.161528,-1.120204,-23.695,43.4,-5.7575
999,261338,0.599508,-0.028304000000000003,-1.040416,-30.0125,25.0075,-7.21
1000,261434,0.526308,-0.36648800000000004,-0.8815719999999999,-16.2225,12.1275,-10.01
1001,261530,0.434808,-0.208132,-0.8930401,-22.4175,7.665,-11.2525
1002,261627,0.44773999999999997,-0.20447200000000001,-0.895236,-25.2175,7.1925,-14.3675
1003,261723,0.39284,-0.255712,-0.8396040000000001,-24.2375,7.6475,-17.185
1004,261819,0.432856,-0.15762400000000001,-0.8903561,-25.7425,10.675,-19.1625
1005,261916,0.447008,-0.114436,-0.8439959999999999,-24.7975,13.7375,-20.1075
1006,262012,0.42163199999999995,-0.16835999999999998,-0.8466800999999999,-25.8125,15.645,-20.545
1007,262108,0.47165200000000007,-0.17202,-0.8298440999999999,-30.1,19.2675,-22.3475
1008,262204,0.47677600000000003,-0.084912,-0.8967,-30.3275,21.5075,-22.9425
1009,262301,0.478484,-0.093696,-0.9145120999999999,-26.7575,20.615,-22.5575
1010,262397,0.492148,-0.114192,-0.8903561,-21.245,20.5625,-21.2975
1011,262493,0.537532,-0.096868,-0.8930401,-15.9775,20.72,-20.7725
1012,262590,0.44237200000000004,-0.148596,-0.8666879999999999,-11.5325,20.475,-20.72
1013,262686,0.44944799999999996,-0.169824,-0.886452,-9.3625,20.545,-22.575
1014,262782,0.496296,-0.170068,-0.8720559999999999,-8.155,23.205,-24.675
1015,262878,0.508252,-0.12468399999999999,-0.8640040000000001,-6.16,24.5175,-25.8825
1016,262975,0.54656,-0.149084,-0.8422879999999999,-3.5875,23.6075,-27.3
1017,263071,0.498004,-0.149572,-0.8481440999999998,-1.5575,22.82,-30.8175
1018,263167,0.50752,-0.142252,-0.8403360000000001,-1.33,22.68,-38.0975
1019,263264,0.4941,-0.12688,-0.8310639999999999,0.2625,23.6425,-44.7825
1020,263360,0.48653599999999997,-0.09150001,-0.8332601000000001,2.52,27.0375,-48.405
1021,263456,0.505324,-0.030256,-0.833016,3.6925,32.69,-46.6025
1022,263553,0.5104479999999999,-0.069784,-0.8244761,3.9725,37.905,-44.4325
1023,263649,0.533384,-0.030744,-0.8244761,2.59,42.315,-43.225
1024,263745,0.503616,-0.015372,-0.839116,1.12,46.375,-39.9875
1025,263841,0.503372,-0.004636001,-0.8544879999999999,0.805,53.2,-36.61
1026,263938,0.49263599999999996,0.036356,-0.8813280000000001,1.9075,61.95,-32.095
1027,264034,0.508008,0.02928,-0.887916,4.27,72.8875,-27.2475
1028,264130,0.526308,0.019032,-0.9015799999999999,5.5125,84.2625,-21.7525
1029,264227,0.5516840000000001,0.038551999999999996,-0.898164,5.0575,95.3925,-16.625
1030,264323,0.526308,0.040260000000000004,-0.921832,4.0075,105.875,-11.725
1031,264419,0.532652,0.083936,-0.921344,1.365,116.0075,-6.545
1032,264516,0.517768,0.138348,-0.9301280000000001,1.435,126.1225,-0.1925
1033,264612,0.7451760000000001,0.08442401,-0.9286639999999999,-3.2725,138.4425,4.97
1034,264708,0.2806,0.0549,-1.19438,-13.02,161.42,9.6075
1035,264804,0.7068681,-0.262788,-0.64782,0.98,174.3875,13.65
1036,264901,-0.388936,0.07002799999999999,-1.40178,-15.7325,243.8275,6.615
1037,264997,0.7005239999999999,-0.275964,-1.255624,2.205,264.0575,-6.93
1038,265093,0.41553199999999996,-0.25302800000000003,-1.126792,-18.3225,325.5525,-23.5025
1039,265190,0.777872,-0.35477600000000004,-1.44082,12.495,400.33,-31.2025
1040,265286,2.567124,-0.34794400000000003,-1.8046240000000002,29.47,472.7275,-40.915
1041,265382,1.30418,-0.21472,-1.522316,40.0225,546.28,-54.075
1042,265478,1.7092200000000002,-0.095648,-1.7394759999999998,51.31,569.7825,-61.145
1043,265575,1.819996,-0.171044,-1.821216,94.5,567.91,-54.8975
1044,265671,2.779648,-0.490684,-2.3250759999999997,102.4975,571.445,-64.8375
1045,265767,2.052284,-0.539972,-2.2967720000000003,75.4425,573.405,-58.1175
1046,265864,1.8758720000000002,-0.6375721,-2.157692,69.895,568.2425,-59.6575
1047,265960,1.581364,0.42626800000000004,-2.39364,115.15,502.425,-31.0975
1048,266056,2.874564,-2.092056,-3.8220160000000005,87.1325,377.6675,-51.38
1049,266152,3.815428,-2.568832,-6.557988000000001,31.36,118.475,-7.2975
1050,266249,0.444568,-1.6509040000000001,-3.102216,-51.17,-157.0625,33.005
1051,266345,-0.102724,-0.6265921,-2.0120240000000003,-162.9425,-238.3675,55.965
1052,266441,-0.172752,0.25522399999999995,-1.687748,-196.1575,-248.5,56.0525
1053,266538,0.08100801,0.7468840999999999,-1.6982400000000002,-146.7725,-257.0925,46.0075
1054,266634,0.4087,0.652944,-1.688236,-43.2775,-293.405,34.6325
1055,266730,0.460672,0.300852,-1.479372,46.2525,-340.6725,22.61
1056,266826,0.509716,-0.019275999999999998,-1.279536,84.5425,-382.62,9.7125
1057,266923,0.482876,-0.19764,-1.0565200000000001,79.8175,-415.975,-1.645
1058,267019,0.44408000000000003,-0.23253200000000002,-0.8518040000000001,54.8625,-436.555,-10.4825
1059,267115,0.444324,-0.161528,-0.7232161,27.37,-442.61,-16.6425
1060,267212,0.47677600000000003,-0.100772,-0.652212,11.06,-438.2175,-18.1125
1061,267308,0.45993999999999996,-0.07002799999999999,-0.579012,6.825,-430.7975,-14.6125
1062,267404,0.44725200000000004,-0.06490399999999999,-0.564616,8.5575,-419.2825,-8.96
1063,267500,0.47482399999999997,-0.09711201,-0.6319600000000001,10.92,-402.1675,-3.85
1064,267597,0.5826720000000001,-0.11224,-0.823744,9.1175,-381.9725,-1.75
1065,267693,0.7600600000000001,-0.07612801,-1.109712,6.5275,-365.75,-0.56
1066,267789,0.877912,-0.027083999999999997,-1.325408,10.885,-358.575,3.57
1067,267886,0.9552601000000001,0.082228,-1.480104,23.03,-355.565,10.8675
1068,267982,1.1285,0.167628,-1.632116,43.2075,-351.4,17.535
1069,268078,1.33712,0.15738,-1.758264,68.985,-347.165,20.2475
1070,268174,1.618696,0.03172,-1.839272,93.7475,-342.5275,18.4625
1071,268271,2.067168,0.08466801,-1.8121880000000001,109.76,-337.6275,15.8725
1072,268367,2.4085240000000003,0.36282800000000004,-1.7577759999999998,122.9025,-334.2675,25.4275
1073,268463,2.9502040000000003,0.5119121,-1.607472,151.5325,-329.875,42.9975
1074,268560,3.519944,0.47043199999999996,-1.575508,177.8175,-327.4425,58.2225
1075,268656,4.022828,0.155184,-1.4593639999999999,182.175,-334.53,71.82
1076,268752,4.226324,-0.45432799999999995,-0.91622,148.47,-346.885,85.575
1077,268849,3.8905800000000004,-1.103856,0.07832401,54.0225,-345.415,99.5225
1078,268945,3.4443040000000003,-1.016748,1.063596,-96.1275,-310.87,112.945
1079,269041,4.1118879999999995,-0.50508,1.736792,-224.7875,-256.4975,109.3225
1080,269137,4.68602,0.54168,2.0937639999999997,-253.995,-221.9,66.045
1081,269234,4.509608,1.061888,2.425116,-140.56,-187.0575,23.59
1082,269330,3.7424720000000002,0.086864,2.951668,68.4775,-124.18,26.8975
1083,269426,2.591524,-2.826984,3.55996,179.3925,-14.2975,72.5725
1084,269523,0.886452,-0.306952,2.483188,-22.12,215.9325,120.9775
1085,269619,2.0754639999999998,0.6834439999999999,-3.137352,-124.915,296.7125,132.7375
1086,269715,0.772748,0.246928,-2.2997,-18.9875,282.975,172.2875
1087,269811,0.24790399999999999,1.950292,0.12712400000000001,-23.38,314.8075,150.36
1088,269908,2.154276,1.8878279999999998,-1.478884,15.295,362.9675,97.615
1089,270004,2.436096,1.9373599999999997,-2.586888,56.28,337.3125,45.745
1090,270100,1.7158080000000002,1.014308,-1.860988,106.0675,268.0125,-11.795
1091,270197,2.823324,-2.6644799999999997,-2.40828,133.1925,226.17,-49.63
1092,270293,1.671888,-2.2484599999999997,-0.739564,35.385,166.425,-14.385
1093,270389,0.9520881,0.5702281,-1.557696,-64.27750999999999,111.86,2.3975
1094,270486,0.6753920999999999,0.133224,-1.086532,-32.6375,73.64,-13.125
1095,270582,0.4933681,-0.8244761,-0.6980841,-3.5525,54.2675,-14.21
1096,270678,0.5887720000000001,-0.184952,-1.0199200000000002,-30.8,48.895,-10.4825
1097,270775,0.63562,-0.256444,-1.053104,-32.8475,37.9575,-13.0025
1098,270871,0.37502800000000003,-0.565104,-0.7822640000000001,-23.45,24.3425,-20.615
1099,270967,0.49434399999999995,-0.21276799999999998,-0.942816,-39.0425,24.885,-28.2625
1100,271063,0.5936520000000001,-0.00488,-0.9635560999999999,-40.1275,25.0775,-31.6225
1101,271160,0.522648,-0.111996,-0.9315921,-30.45,16.8,-27.93
1102,271256,0.462868,-0.09930800000000001,-0.924516,-24.6575,13.7725,-24.6575
1103,271352,0.46238,-0.07686,-0.9145120999999999,-19.95,17.465,-23.205
1104,271449,0.504836,-0.139324,-0.8679081,-15.7325,18.2525,-22.2775
1105,271545,0.47677600000000003,-0.121268,-0.8708360999999999,-17.7625,16.485,-22.505
1106,271641,0.49776000000000004,-0.095648,-0.868884,-19.4075,18.3575,-22.995
1107,271738,0.49288000000000004,-0.083204,-0.8823040000000001,-18.0075,18.5675,-21.595
1108,271834,0.469944,-0.114924,-0.892552,-14.07,19.39,-20.3175
1109,271930,0.49166000000000004,-0.12980799999999998,-0.901336,-11.235,20.51,-20.44
1110,272027,0.492392,-0.14152,-0.879864,-7.9975,22.365,-20.1775
1111,272123,0.472384,-0.19032000000000002,-0.865468,-4.8475,22.645,-21.4025
1112,272219,0.5063,-0.17128800000000002,-0.8576601,-3.64,23.2575,-24.9025
1113,272315,0.527772,-0.162748,-0.853512,-1.3125,23.0125,-30.2225
1114,272412,0.490196,-0.229848,-0.822524,2.7825,22.75,-38.1675
1115,272508,0.45993999999999996,-0.12761199999999998,-0.85034,3.9725,24.7625,-44.695
1116,272604,0.527528,-0.046360000000000005,-0.86498,3.22,30.8875,-43.4
1117,272700,0.5321640000000001,-0.089792,-0.81618,6.16,35.91,-42.42
1118,272797,0.55266,-0.053436000000000004,-0.8166680000000001,6.055,38.4125,-42.0
1119,272893,0.52704,-0.049532,-0.809348,5.6175,40.39,-41.125
1120,272989,0.532408,-0.05246,-0.8042239999999999,3.115,43.5925,-38.955
1121,273086,0.544608,-0.023668,-0.8115439999999999,1.3825,46.2875,-36.8375
1122,273182,0.52094,-0.018544,-0.8256960999999999,0.455,49.6825,-33.635
1123,273278,0.542168,-0.012688,-0.828624,0.3675,55.055,-28.7875
1124,273375,0.522404,-0.007808001,-0.8522921,1.61,61.3725,-24.885
1125,273471,0.537288,0.016104,-0.853756,2.5725,69.545,-20.0025
1126,273567,0.518012,-0.00488,-0.9091440000000001,2.835,79.555,-15.295
1127,273663,0.4941,-0.01708,-0.9459880999999999,2.485,90.30001,-10.9025
1128,273760,0.520208,-0.021228,-0.9557479999999999,-0.07,101.675,-8.6625
1129,273856,0.5751081,0.006344,-0.904508,-1.68,113.1025,-6.44
1130,273952,0.67466,0.138348,-0.834724,-2.5725,123.7075,-2.73
1131,274049,0.743468,0.057828,-0.9511120000000001,-12.04,141.19,-0.3675
1132,274145,-0.8052,0.221308,-0.9262239999999999,-10.01,161.07,8.4
1133,274241,0.8613200000000001,-0.15054800000000002,-0.9894200000000001,1.8375,198.52,7.525
1134,274338,-0.201544,0.02684,-0.353312,-12.355,245.4025,2.17
1135,274434,-0.05587601,-0.21228000000000002,-0.9208561,-0.9975,290.71,-17.115
1136,274530,0.48433999999999994,-0.222284,-1.045052,-8.19,356.895,-27.2125
1137,274626,0.8801081000000001,-0.25254,-1.078968,28.455,430.71,-31.0275
1138,274723,1.789496,-0.21081599999999998,-1.6211360000000001,48.3875,499.59,-37.9925
1139,274819,1.653832,-0.266692,-1.6082040000000002,65.065,553.3675,-51.3275
1140,274915,1.3588360000000002,0.010248,-1.649684,87.0625,564.3225,-52.3425
1141,275011,2.717428,-0.375272,-2.085712,129.4475,561.435,-59.8675
1142,275108,1.998116,-0.5724239999999999,-2.42536,118.3525,573.09,-52.2025
1143,275204,1.4393559999999999,-0.522892,-2.387052,92.9775,572.425,-55.72
1144,275300,1.277828,-0.35038400000000003,-3.075864,96.11,559.44,-56.525
1145,275397,0.296948,0.17836400000000002,-3.875696,122.255,479.64,-35.1225
1146,275493,4.678944,-2.351672,-5.672756,81.2175,289.8875,-58.3975
1147,275589,2.150128,-2.0169040000000003,-4.335636,40.6525,25.41,-11.3925
1148,275686,0.48653599999999997,-1.290516,-3.067324,-58.9575,-199.71,8.82
1149,275782,-0.023424,-0.572912,-1.966884,-132.4575,-270.235,34.895
1150,275878,-0.19178399999999998,0.04148,-1.510848,-157.01,-279.755,38.64
1151,275974,0.007076001,0.44944799999999996,-1.4715639999999999,-127.8725,-288.26,32.935
1152,276071,0.34111199999999997,0.479216,-1.499624,-58.9925,-314.615,21.77
1153,276167,0.411872,0.25302800000000003,-1.352248,12.7575,-352.2925,10.4475
1154,276263,0.48068,-0.022203999999999998,-1.191452,54.565,-388.605,-0.665
1155,276360,0.5099600000000001,-0.22057600000000002,-1.027728,60.2,-418.1625,-10.5
1156,276456,0.5170359999999999,-0.331596,-0.8827921000000001,42.5425,-436.94,-18.2525
1157,276552,0.52582,-0.31646799999999997,-0.7869,15.8725,-444.675,-24.4475
1158,276648,0.5875520000000001,-0.255956,-0.7661600000000001,-5.46,-442.9075,-27.965
1159,276745,0.612928,-0.207156,-0.740296,-13.5275,-438.3575,-26.635
1160,276841,0.62952,-0.161528,-0.7707961,-9.7825,-430.6925,-20.5625
1161,276937,0.681248,-0.16689600000000002,-0.8425321,1.4,-419.3175,-12.11
1162,277034,0.780068,-0.202032,-0.9982040000000001,13.51,-405.2825,-3.675
1163,277130,0.9474520000000001,-0.239364,-1.230492,22.0675,-392.315,4.5675
1164,277226,1.074332,-0.183732,-1.4276440000000001,26.4425,-383.81,13.6325
1165,277322,1.164856,-0.061975999999999996,-1.562576,33.6175,-377.8075,23.275
1166,277419,1.398364,0.046360000000000005,-1.6853080000000003,47.985,-368.97,28.7175
1167,277515,1.633092,0.050263999999999996,-1.794864,70.5075,-358.2425,29.89
1168,277611,2.045452,0.142008,-1.7924240000000002,98.455,-346.0275,30.065
1169,277708,2.48026,0.43627200000000005,-1.80682,131.1275,-334.6,41.0725
1170,277804,3.048292,0.5011760000000001,-1.685064,182.6125,-327.215,66.255
1171,277900,3.66244,0.38966799999999996,-1.575264,231.7175,-327.0225,92.2075
1172,277997,4.225348,-0.026351999999999997,-1.4152,252.525,-334.95,117.74
1173,278093,4.413959999999999,-0.7288279999999999,-0.8422879999999999,223.02,-346.1675,141.225
1174,278189,4.056255999999999,-1.21756,0.14566800000000002,112.7,-344.47,156.1175
1175,278285,3.479196,-1.067988,1.20292,-57.925,-310.3625,163.205
1176,278382,4.006724,-0.5131319999999999,1.833172,-217.14,-252.9975,150.325
1177,278478,4.540108,0.493856,2.187216,-278.8275,-217.21,92.0325
1178,278574,4.36638,1.310768,2.304336,-203.035,-183.575,29.75
1179,278671,3.7632120000000002,0.5934081,2.676192,-0.8400001,-124.075,14.105
1180,278767,3.206404,-0.558272,2.577372,143.115,-30.2925,43.4
1181,278863,2.999736,-1.4396,1.6565159999999999,132.2825,77.7875,82.5825
1182,278959,0.688812,-1.30784,-0.6273241,-14.6825,169.26,110.74
1183,279056,0.14713199999999999,-0.6653880999999999,-2.7755,-149.38,217.9975,107.6075
1184,279152,-0.54778,0.6292760000000001,-0.591212,-113.0675,188.685,129.4125
1185,279248,0.326472,2.064972,-0.37551599999999996,-78.48751,245.5425,136.815
1186,279345,0.9779521000000001,1.968104,-1.026752,-14.91,294.8225,107.73
1187,279441,1.7575319999999999,1.8888040000000001,-1.9890880000000002,36.155,297.2025,67.62001
1188,279537,1.520364,1.314184,-1.737524,85.8025,263.83,19.3725
1189,279633,1.440576,-0.07832401,-1.53964,121.2225,228.5325,-22.1725
1190,279730,1.325164,-1.524024,-1.280756,130.97,203.4375,-28.7
1191,279826,2.367044,-2.0398400000000003,-1.8778240000000002,62.5625,180.075,-8.715
1192,279922,1.153632,-0.004392,-1.494988,-41.02,124.985,5.67
1193,280019,0.72468,0.031476,-1.168028,-46.8825,82.32,-15.225
1194,280115,0.594384,-0.598288,-0.815692,-18.8475,60.2175,-22.365
1195,280211,0.686128,-0.242048,-1.059936,-31.4125,48.86,-18.5675
1196,280307,0.57218,-0.19154000000000002,-1.000888,-34.5625,32.7075,-18.375
1197,280404,0.4453,-0.409188,-0.8666879999999999,-27.9125,21.6475,-20.7375
1198,280500,0.43798000000000004,-0.25254,-0.9015799999999999,-33.7225,19.845,-23.24
1199,280596,0.46433199999999997,-0.195688,-0.9152440000000001,-34.825,19.25,-25.795
1200,280693,0.441884,-0.215696,-0.889868,-33.565,17.325,-28.2975
1201,280789,0.456768,-0.11321600000000001,-0.8935280999999999,-33.3725,17.045,-29.6975
1202,280885,0.46848,-0.084912,-0.90036,-31.7975,16.3975,-29.54
1203,280982,0.45993999999999996,-0.07881200000000001,-0.8788879999999999,-28.875,16.3275,-28.1925
1204,281078,0.438468,-0.081496,-0.8820601,-26.5475,18.1825,-26.0925
1205,281174,0.471896,-0.109556,-0.8784,-25.8825,19.565,-24.43
1206,281270,0.528016,-0.060267999999999995,-0.9167081,-24.43,21.175,-22.5575
1207,281367,0.446276,-0.076616,-0.888648,-18.935,21.5075,-19.9675
1208,281463,0.462136,-0.096624,-0.912316,-14.5075,24.0975,-17.57
1209,281559,0.528016,-0.132004,-0.8988959999999999,-10.08,25.6725,-17.01
1210,281656,0.468724,-0.162992,-0.8744960999999999,-8.155,24.6575,-17.4125
1211,281752,0.461404,-0.18324400000000002,-0.86498,-8.7325,24.255,-20.02
1212,281848,0.5170359999999999,-0.149816,-0.868396,-8.4,26.075,-22.89
1213,281945,0.5353359999999999,-0.18666,-0.850096,-6.1775,24.8675,-24.15
1214,282041,0.48433999999999994,-0.117852,-0.8601,-4.83,22.6975,-25.9525
1215,282137,0.493856,-0.16958,-0.8569280999999999,-2.8175,21.07,-32.69
1216,282233,0.494832,-0.137372,-0.8425321,-2.17,22.1725,-41.1775
1217,282330,0.481412,-0.14347200000000002,-0.834724,0.5775,24.5525,-48.1075
1218,282426,0.480192,-0.09320801,-0.8420440999999999,3.4825,29.75,-53.235
1219,282522,0.49556400000000006,-0.053924,-0.83814,4.9,36.995,-53.76
1220,282619,0.5219159999999999,-0.012688,-0.849852,4.0425,44.1,-48.37
1221,282715,0.490684,-0.008052001,-0.864492,3.4475,49.56,-44.1175
1222,282811,0.49995600000000007,0.011468,-0.8727879999999999,2.45,56.8575,-40.81
1223,282908,0.511424,0.06588,-0.887916,2.4675,65.7825,-35.5075
1224,283004,0.518744,0.07710399999999999,-0.901336,3.2725,75.915,-27.0025
1225,283100,0.515084,0.053924,-0.904508,4.7075,86.7475,-18.0425
1226,283196,0.515328,0.05246,-0.9352520000000001,5.11,99.31251,-10.3425
1227,283293,0.508252,0.033672,-0.9720960999999999,4.13,111.1425,-4.3225
1228,283389,0.542656,0.106628,-0.9489161,1.925,122.15,1.26
1229,283485,0.51972,0.118828,-0.9528200000000001,0.56,132.1425,8.015
1230,283582,0.592188,0.018056,-0.9335440999999999,-0.665,145.95,14.315
1231,283678,0.417484,-0.088328,-1.13216,-10.465,171.0975,11.1475
1232,283774,0.626104,-0.26303200000000004,-0.547048,3.325,189.07,8.5575
1233,283871,-0.658556,0.09394001,-1.394216,-9.9925,260.96,1.015
1234,283967,0.494832,-0.279868,-1.347612,9.065,291.515,-13.23
1235,284063,0.4514,-0.27694,-1.15168,-9.3975,359.3975,-27.9825
1236,284159,0.916464,-0.187392,-1.11142,29.505,435.96,-34.9475
1237,284256,2.044476,-0.236436,-1.741184,63.14,498.715,-43.2775
1238,284352,1.6348,-0.29158,-1.661152,81.06,547.4174,-58.0125
1239,284448,1.4400879999999998,-0.099552,-1.699948,100.345,564.8475,-62.2475
1240,284545,2.52662,-0.302804,-1.9903080000000002,143.2725,562.1875,-71.0675
1241,284641,1.783884,-0.597312,-2.29848,136.7275,573.0725,-63.4375
1242,284737,1.412272,-0.450912,-2.478796,108.4825,571.9,-68.635
1243,284833,1.2900280000000002,-0.41675200000000007,-3.160044,110.11,557.3925,-74.2875
1244,284930,0.166164,0.11834000000000001,-2.6962,144.515,472.08,-54.53
1245,285026,4.663328,-2.345328,-5.367268,77.2275,307.965,-76.8075
1246,285122,2.333128,-2.174528,-4.505216000000001,51.5725,11.1125,-19.11
1247,285219,0.236436,-1.4435040000000001,-2.9097,-42.0875,-214.8475,6.8075
1248,285315,-0.127368,-0.7005239999999999,-1.818776,-125.8425,-274.2425,39.69
1249,285411,-0.14005599999999999,0.096624,-1.524756,-152.4075,-277.9175,48.6325
1250,285508,0.1464,0.5043479999999999,-1.5342719999999999,-108.36,-290.99,50.4
1251,285604,0.41260399999999997,0.47555600000000003,-1.47864,-22.1725,-324.5725,48.1775
1252,285700,0.404308,0.193248,-1.2341520000000001,52.0625,-363.3525,43.2775
1253,285796,0.41577600000000003,-0.098332,-1.050908,80.185,-393.4175,35.105
1254,285893,0.45261999999999997,-0.264008,-0.9464761,64.19,-412.0375,25.06
1255,285989,0.489464,-0.268644,-0.8852321,25.83,-422.5025,14.665
1256,286085,0.5453399999999999,-0.146644,-0.873276,-11.1125,-427.2275,5.985
1257,286182,0.5787680000000001,-0.023180000000000003,-0.8364321,-31.2025,-428.995,1.575
1258,286278,0.5694961,0.049044,-0.79422,-30.94,-428.54,1.6625
1259,286374,0.5785241,0.050508,-0.793976,-18.725,-422.87,3.7275
1260,286471,0.618052,-0.011468,-0.8540000000000001,-4.55,-411.3025,4.9875
1261,286567,0.7183361,-0.0732,-1.010648,4.06,-397.1625,4.305
1262,286663,0.8876719999999999,-0.09320801,-1.2587959999999998,7.6825,-385.2625,2.8875
1263,286760,0.993812,-0.045384,-1.4234959999999999,11.2875,-379.2075,3.0975
1264,286856,1.088484,0.027572000000000003,-1.522316,20.755,-374.7975,4.7425
1265,286952,1.292956,0.07222401,-1.6326040000000002,37.5725,-366.275,3.85
1266,287048,1.559404,0.07515201,-1.7824200000000001,60.795,-356.3875,1.015
1267,287145,2.0864439999999997,0.10638399999999999,-1.9356520000000002,88.935,-347.3925,-0.35
1268,287241,2.646668,0.390888,-2.066192,119.1225,-347.62,9.345
1269,287337,3.1390599999999997,0.404552,-1.891244,166.005,-358.2075,37.485
1270,287434,3.482856,0.268644,-1.518412,204.47,-370.16,65.9575
1271,287530,3.650728,0.08808401,-1.0645719999999999,208.145,-371.6825,90.09000999999999
1272,287626,3.774924,-0.33671999999999996,-0.49776000000000004,177.3275,-356.3175,108.71
1273,287723,3.7441800000000005,-0.9433041,0.251076,100.5025,-320.3025,118.6325
1274,287819,3.4711440000000002,-1.029436,1.010892,-34.3525,-265.1075,118.6675
1275,287915,4.134824,-0.510936,1.4173959999999999,-176.6625,-210.0875,106.6625
1276,288011,4.820951999999999,0.488976,1.836588,-229.1975,-188.5975,56.455
1277,288108,4.603791999999999,1.338096,2.159888,-149.38,-171.0975,-2.03
1278,288204,3.734176,0.5172800999999999,2.74988,41.65,-123.8125,-20.2825
1279,288300,3.1351560000000003,-0.721996,2.744024,163.1525,-29.1725,6.895
1280,288397,2.577372,-1.8944159999999999,1.589172,128.03,84.8925,48.9475
1281,288493,0.611952,-1.0626200000000001,-1.129232,-60.515,187.425,93.17
1282,288589,0.156404,-0.5799880000000001,-3.04756,-204.925,223.4575,105.5775
1283,288685,-0.36575599999999997,0.755424,-0.193248,-134.015,206.5875,151.935
1284,288782,0.373076,2.0996200000000003,-0.10321199999999998,-93.975,275.695,165.8125
1285,288878,1.408124,2.252852,-1.41154,-29.505,323.435,135.5725
1286,288974,2.1472,2.333128,-2.198684,25.165,312.7425,93.5725
1287,289071,1.297592,1.7341080000000002,-1.501088,82.11,264.1625,27.1775
1288,289167,1.749236,-0.180316,-1.897588,115.255,237.7375,-41.0025
1289,289263,2.78404,-3.418684,-1.9185720000000002,123.8125,208.18,-40.4775
1290,289360,1.51768,-1.1897440000000001,-1.0065,3.815,159.285,-0.7875
1291,289456,0.9152440000000001,0.776408,-1.580632,-57.225,104.8425,-0.63
1292,289552,0.52094,-0.316712,-0.82594,-9.31,68.3375,-16.73
1293,289648,0.753472,-0.6378159999999999,-0.9118280000000001,-5.25,55.1425,-14.5775
1294,289745,0.5843801,0.03904,-1.073112,-28.77,38.6925,-11.48
1295,289841,0.5653481,-0.377712,-0.9352520000000001,-19.3375,22.4525,-14.8575
1296,289937,0.45457200000000003,-0.391864,-0.8422879999999999,-20.825,15.33,-17.535
1297,290034,0.484828,-0.17324,-0.9311040999999999,-32.2,12.6525,-22.19
1298,290130,0.434564,-0.23253200000000002,-0.8847440999999999,-29.7675,10.4825,-24.7275
1299,290226,0.46774799999999994,-0.16128399999999998,-0.883524,-29.3825,10.9375,-26.32
1300,290323,0.462868,-0.017568,-0.942572,-28.735,12.32,-26.145
1301,290419,0.46433199999999997,-0.07588400000000001,-0.9067040000000001,-21.56,12.635,-23.205
1302,290515,0.470188,-0.067344,-0.8988959999999999,-17.0975,14.28,-19.6525
1303,290611,0.47067600000000004,-0.040504000000000005,-0.913536,-13.265,16.17,-17.2375
1304,290708,0.4819,-0.077348,-0.8818159999999999,-8.8725,16.7825,-14.63
1305,290804,0.462136,-0.064172,-0.8769360999999999,-6.965,17.255,-11.8825
1306,290900,0.4697,-0.07710399999999999,-0.886452,-4.8475,19.04,-9.6075
1307,290997,0.503128,-0.1464,-0.876692,-2.975,20.72,-8.2425
1308,291093,0.458476,-0.19154000000000002,-0.854244,-2.835,21.0525,-9.1875
1309,291189,0.444568,-0.2074,-0.849608,-4.83,22.12,-12.495
1310,291286,0.438712,-0.22496799999999997,-0.8425321,-5.8625,23.31,-17.675
1311,291382,0.45896400000000004,-0.191052,-0.8769360999999999,-7.35,23.3975,-24.395
1312,291478,0.48873199999999994,-0.216428,-0.858392,-5.5475,23.6075,-29.4525
1313,291575,0.48848800000000003,-0.189832,-0.8708360999999999,-3.7625,22.155,-34.4575
1314,291671,0.490928,-0.202764,-0.8447280999999999,0.3325,21.56,-43.6625
1315,291767,0.49263599999999996,-0.148596,-0.8239880999999999,3.8325,23.5025,-52.4825
1316,291863,0.5099600000000001,-0.109556,-0.8176439999999999,4.375,27.0375,-56.7
1317,291960,0.508984,-0.053924,-0.835456,5.3725,32.06,-58.2575
1318,292056,0.570472,-0.031232,-0.8103239999999999,4.7775,36.505,-55.5975
1319,292152,0.532408,-0.021716,-0.8317960999999999,3.5875,37.87,-52.6575
1320,292249,0.5233800000000001,-0.016104,-0.8420440999999999,2.5375,40.6525,-48.3
1321,292345,0.511424,0.016836,-0.8674200000000001,0.8575,46.4275,-43.3475
1322,292441,0.514596,0.030256,-0.8762040000000001,0.9625,54.1625,-35.5425
1323,292537,0.49702799999999997,-0.004636001,-0.8969440000000001,0.9975,64.015,-28.35
1324,292634,0.5221600000000001,0.014884,-0.8945040000000001,0.49,75.4075,-22.8375
1325,292730,0.5104479999999999,0.00366,-0.9289081,1.2775,87.6575,-17.71
1326,292826,0.55388,0.048312,-0.9086559999999999,0.63,98.89251,-13.405
1327,292923,0.59536,0.11712,-0.9110959999999999,-1.5225,109.34,-7.91
1328,293019,0.5392399999999999,0.14152,-0.957944,-3.185,119.42,1.995
1329,293115,0.475312,0.043188,-0.916464,-1.96,132.8775,10.675
1330,293212,0.6497721,-0.118096,-1.121424,-11.76,155.715,6.86
1331,293308,-1.112152,0.16689600000000002,-0.8971879999999999,-11.2175,180.74,0.7525
1332,293404,0.780312,-0.128344,-1.2622120000000001,-1.3475,231.49,-5.81
1333,293500,0.417484,-0.149328,-0.5738880000000001,-7.0525,277.4975,-11.0075
1334,293597,0.089304,-0.196176,-1.02846,-6.475,339.325,-31.22
1335,293693,0.9059721,-0.24888000000000002,-1.492792,16.2575,416.92,-41.6675
1336,293789,1.785104,-0.260348,-1.616744,56.07,485.73,-49.91
1337,293886,1.6743279999999998,-0.33184,-1.72508,87.0275,535.185,-62.0025
1338,293982,1.55306,-0.35282399999999997,-1.702388,92.0325,560.5425,-75.5825
1339,294078,2.526132,-0.183976,-1.731668,127.7675,558.1625,-85.9425
1340,294175,1.730204,-0.583648,-2.298236,131.18,571.34,-78.27750999999999
1341,294271,1.3383399999999999,-0.49605200000000005,-2.33996,102.3925,571.4975,-78.7325
1342,294367,0.9506241,-0.501908,-2.9384919999999997,84.15751,556.815,-92.69751
1343,294463,0.44212799999999997,0.123464,-1.584048,118.965,489.3875,-69.58
1344,294560,3.95646,-1.7226400000000002,-3.742716,63.8225,366.24,-86.45
1345,294656,3.018036,-1.986404,-5.310172000000001,59.8675,86.66,-29.4
1346,294753,0.49751599999999996,-1.5584280000000001,-3.173464,-5.9325,-168.07,0.8225
1347,294849,-0.009516001,-0.958432,-2.042768,-97.1075,-253.8725,42.56
1348,294945,-0.188368,-0.320372,-1.505968,-146.9825,-270.7775,60.6725
1349,295041,-0.10321199999999998,0.242536,-1.390068,-145.4075,-277.865,65.1
1350,295138,0.279624,0.424072,-1.468392,-90.2475,-300.1075,61.705
1351,295234,0.429196,0.304512,-1.367864,-14.3675,-334.4775,56.6125
1352,295330,0.462136,0.045384,-1.179008,40.32,-371.9975,50.54
1353,295426,0.488,-0.177876,-1.003572,56.1925,-401.6075,42.7
1354,295523,0.458476,-0.294752,-0.8439959999999999,41.2825,-419.7375,32.76
1355,295619,0.478728,-0.30622,-0.773724,11.935,-426.1075,21.2625
1356,295715,0.523624,-0.24522,-0.737124,-17.3775,-425.5475,10.5
1357,295812,0.558272,-0.13639600000000002,-0.7556681,-34.475,-422.415,3.395
1358,295908,0.6007279999999999,-0.07393200000000001,-0.7937320999999999,-33.6525,-416.885,1.4875
1359,296004,0.647332,-0.07832401,-0.870592,-20.685,-408.0825,3.2725
1360,296100,0.742004,-0.135176,-1.0086959999999998,-4.8825,-396.9175,6.615
1361,296197,0.9052401,-0.20447200000000001,-1.2251239999999999,7.1575,-386.89,10.885
1362,296293,1.0340719999999999,-0.219112,-1.4010479999999998,14.1575,-381.3075,16.66
1363,296389,1.11264,-0.13664,-1.516704,19.6525,-377.475,24.3775
1364,296486,1.276608,-0.02928,-1.6391919999999998,29.8725,-370.5275,30.6075
1365,296582,1.491816,0.024644,-1.741672,48.3,-361.445,32.0075
1366,296678,1.778272,-0.010004,-1.7694880000000002,73.4475,-351.5925,30.8875
1367,296774,2.22284,0.255468,-1.770952,96.81,-340.48,33.11
1368,296871,2.702544,0.36892800000000003,-1.71288,131.7925,-329.1925,48.545
1369,296967,3.251788,0.400404,-1.646756,177.0125,-319.375,67.8825
1370,297063,3.8896040000000003,0.346236,-1.573556,210.8225,-315.5775,86.9225
1371,297160,4.196312,-0.267424,-1.190476,225.7325,-324.17,107.03
1372,297256,4.041616,-1.1468,-0.326716,178.8675,-326.3925,122.2375
1373,297352,3.8281160000000005,-1.446432,0.599508,26.5825,-305.83,127.7325
1374,297449,4.4012720000000005,-0.8657120999999999,1.755824,-160.265,-283.0625,101.4125
1375,297545,4.636,0.5738880000000001,2.376316,-273.595,-270.8825,28.1925
1376,297641,4.302208,1.601128,2.7459759999999998,-213.3775,-234.535,-51.8
1377,297737,3.392576,0.8493641,3.27204,-1.68,-152.4075,-73.64
1378,297834,2.8538240000000004,-0.498004,2.9426400000000004,155.085,-26.81,-34.0025
1379,297930,2.982168,-1.573556,1.691652,152.3725,103.915,19.915
1380,298026,0.6326921,-3.1400360000000003,0.22935999999999998,27.2475,179.9525,75.74
1381,298123,0.039284,-0.8247200000000001,-2.85114,-193.7775,216.8775,101.7275
1382,298219,-0.452132,-0.125904,-1.640168,-176.1375,182.49,129.3425
1383,298315,0.06588,2.084492,-0.011468,-122.92,231.0875,162.12
1384,298411,0.7883640000000001,2.1777,-0.534604,-65.7825,309.7325,155.0675
1385,298508,2.142076,2.639104,-2.186484,9.2925,325.57,121.38
1386,298604,1.6443159999999999,2.259928,-1.84464,64.225,285.6175,54.11
1387,298700,1.545008,0.429928,-1.71898,109.6725,242.6025,-30.205
1388,298797,2.0935200000000003,-2.743048,-1.8646479999999999,124.1975,216.51,-64.0325
1389,298893,1.934432,-2.088152,-1.11752,23.135,182.665,-22.54
1390,298989,1.1690040000000002,0.879376,-1.8880720000000002,-74.55,126.6125,-3.3775
1391,299085,0.643428,0.208132,-1.0906799999999999,-38.395,80.5875,-22.715
1392,299182,0.641232,-0.819108,-0.8164239999999999,-8.5575,60.55,-18.13
1393,299278,0.662704,-0.07076001,-1.02358,-36.26,49.7875,-12.7225
1394,299374,0.5653481,-0.15494000000000002,-1.006988,-35.035,32.0775,-15.435
1395,299471,0.494832,-0.45579200000000003,-0.8518040000000001,-24.3075,22.2425,-18.7425
1396,299567,0.48873199999999994,-0.137372,-0.9464761,-33.6175,20.055,-21.14
1397,299663,0.525088,-0.142008,-0.921832,-31.045,18.0075,-23.1525
1398,299760,0.532652,-0.110044,-0.9201241,-26.46,14.4725,-22.6625
1399,299856,0.5038600000000001,-0.029036000000000003,-0.935984,-22.19,11.1125,-20.615
1400,299952,0.47653199999999996,-0.055144000000000006,-0.9298841,-14.385,10.045,-17.71
1401,300049,0.48678,-0.096624,-0.8818159999999999,-8.2775,12.145,-15.7325
1402,300145,0.48726800000000003,-0.081496,-0.8703481,-7.245,12.39,-14.8925
1403,300241,0.465552,-0.063196,-0.8586360000000001,-6.965,11.655,-13.7375
1404,300338,0.494588,-0.098088,-0.8657120999999999,-7.4725,13.2475,-12.5125
1405,300434,0.46335600000000005,-0.13859200000000002,-0.8447280999999999,-8.365,15.12,-12.1275
1406,300530,0.45261999999999997,-0.19397999999999999,-0.855708,-9.7475,16.87,-13.4575
1407,300627,0.44554399999999994,-0.196176,-0.8718120999999999,-11.305,19.215,-16.2575
1408,300723,0.42895200000000006,-0.185684,-0.8810841,-11.27,20.72,-20.2825
1409,300819,0.47702,-0.20008,-0.8708360999999999,-11.235,20.4925,-25.655
1410,300915,0.518744,-0.193736,-0.853756,-8.3125,20.3525,-29.365
1411,301012,0.486292,-0.158844,-0.844484,-5.32,20.2475,-32.55
1412,301108,0.493612,-0.168604,-0.8581479999999999,-2.275,19.8275,-38.4125
1413,301204,0.47336000000000006,-0.20984,-0.8300879999999999,1.295,21.49,-48.0375
1414,301301,0.49288000000000004,-0.12395199999999999,-0.8613200000000001,0.91,25.5675,-54.25
1415,301397,0.511424,-0.045872,-0.8418,3.0625,31.64,-56.315
1416,301493,0.563884,-0.074664,-0.8132520999999999,3.605,36.68,-55.9125
1417,301589,0.552416,-0.001952,-0.8103239999999999,3.185,38.01,-54.6525
1418,301686,0.5314321,-0.005368,-0.820572,3.535,39.55,-52.2725
1419,301782,0.541192,0.013908000000000002,-0.8193521,3.01,42.2625,-48.23
1420,301878,0.528016,0.020008,-0.8337481,1.8025,45.71,-42.2275
1421,301975,0.5282600000000001,0.051484,-0.8586360000000001,1.4,50.68,-34.51
1422,302071,0.514596,0.032451999999999995,-0.8762040000000001,1.7325,58.03,-26.6
1423,302167,0.518012,0.011224,-0.8847440999999999,1.4,67.41001,-20.4925
1424,302264,0.527528,0.028304000000000003,-0.8957241,1.4525,78.365,-15.2425
1425,302360,0.5309441,0.033672,-0.9125601000000001,1.5225,89.635,-10.64
1426,302456,0.5514399999999999,0.06954,-0.8823040000000001,0.49,100.9925,-6.1775
1427,302553,0.551928,0.16348,-0.9093880999999999,-1.6275,110.1275,0.3325
1428,302649,0.48653599999999997,0.158112,-0.9525761,-1.0325,120.2775,10.3775
1429,302745,0.70394,-0.036356,-0.9608721,-3.7625,136.605,15.0325
1430,302841,0.16226,-0.046604,-1.2505,-10.6575,163.8175,10.64
1431,302938,0.8003201,-0.242048,-0.72712,3.0625,183.5575,6.615
1432,303034,-0.687104,0.188856,-1.269776,-11.0425,255.5525,-0.5075
1433,303130,0.329156,-0.266936,-1.2139,11.1825,287.2625,-15.75
1434,303227,0.5565640000000001,-0.270596,-1.164368,-11.9875,355.985,-32.5675
1435,303323,0.892308,-0.11467999999999999,-1.147532,32.2875,431.0425,-37.7475
1436,303419,1.9461439999999999,-0.305976,-1.673352,71.54,495.6525,-45.3075
1437,303516,1.592588,-0.24717199999999998,-1.6836,98.0,548.9575,-58.8525
1438,303612,1.308816,-0.175924,-1.55306,116.2525,559.685,-69.5625
1439,303708,2.530524,-0.33013200000000004,-1.771684,146.0725,554.925,-82.1975
1440,303805,1.9822560000000002,-0.664168,-2.135732,144.0075,568.925,-78.0325
1441,303901,1.444724,-0.42578,-2.4429279999999998,119.875,570.7625,-78.505
1442,303997,1.2197559999999998,-0.45261999999999997,-3.032676,124.635,554.61,-81.655
1443,304093,-0.223992,0.453596,-2.7713520000000003,163.345,500.15,-52.3075
1444,304190,3.752232,-2.750368,-3.25252,140.21,330.96,-65.59
1445,304286,3.2696,-2.911896,-5.2435599999999996,75.81,89.705,10.0975
1446,304382,0.711016,-2.0276400000000003,-3.0683,-49.0175,-165.095,53.795
1447,304479,0.09028,-1.0614,-1.891732,-180.0575,-265.6325,96.49501
1448,304575,-0.135908,-0.048556,-1.272216,-245.28,-286.2825,104.4925
1449,304671,-0.160064,0.782752,-1.250988,-225.4,-286.825,93.905
1450,304768,0.285724,0.9023121,-1.3847,-117.1975,-303.03,79.765
1451,304864,0.46042799999999995,0.5753520000000001,-1.3534680000000001,4.305,-331.5025,67.165
1452,304960,0.5233800000000001,0.124196,-1.2261,75.1975,-367.9025,51.5025
1453,305057,0.526552,-0.188612,-1.0643280000000002,80.7275,-402.0975,32.235
1454,305153,0.537044,-0.23009200000000002,-0.9474520000000001,45.36,-425.5475,12.8625
1455,305249,0.568764,-0.114436,-0.8876719999999999,5.9675,-438.095,-3.29
1456,305346,0.6329359999999999,0.018544,-0.861808,-13.65,-442.5575,-13.125
1457,305442,0.649284,0.081984,-0.7956840999999999,-9.9925,-444.0275,-15.1725
1458,305538,0.637084,0.087108,-0.76982,6.9125,-440.4925,-11.8825
1459,305635,0.655628,0.029768,-0.7829961,24.605,-430.0975,-7.8225
1460,305731,0.7229720000000001,-0.025131999999999998,-0.8937719999999999,35.245,-414.6275,-5.3725
1461,305827,0.8752280000000001,-0.026351999999999997,-1.12972,37.66,-398.5975,-4.06
1462,305924,1.050908,0.020008,-1.367132,39.5675,-387.9575,-1.8725
1463,306020,1.161928,0.088328,-1.497428,47.425,-383.285,1.435
1464,306116,1.3603,0.162504,-1.622844,60.8825,-377.685,3.29
1465,306212,1.563552,0.185196,-1.737768,80.535,-370.44,3.9725
1466,306309,1.914668,0.235948,-1.772416,102.515,-362.4775,2.7125
1467,306405,2.3241,0.566812,-1.800964,124.32,-354.865,6.615
1468,306501,2.84016,0.696132,-1.670912,158.935,-348.81,20.1775
1469,306598,3.17322,0.7722600000000001,-1.4417959999999999,189.0525,-345.2225,30.485
1470,306694,3.55386,0.7700640999999999,-1.261236,198.835,-338.5375,37.9225
1471,306790,3.88936,0.47702,-1.0023520000000001,183.75,-331.0125,41.65
1472,306887,3.842512,-0.319884,-0.3111,135.555,-317.135,44.3625
1473,306983,3.3552440000000003,-0.9484280999999999,0.541924,16.66,-286.265,43.4175
1474,307079,3.6336480000000004,-0.6917399999999999,1.1777879999999998,-149.8525,-240.135,31.325
1475,307176,4.237792,0.38795999999999997,1.6409,-250.6525,-215.005,-15.435
1476,307272,4.328316,1.496208,1.909056,-199.5525,-194.95,-73.6225
1477,307368,3.6966,1.090192,2.473916,-2.2225,-152.4075,-97.7375
1478,307464,2.916288,-0.238632,2.790384,176.68,-71.4,-67.0075
1479,307561,1.603324,-3.3884279999999998,3.018036,188.02,49.945,-17.71
1480,307657,0.646844,0.06588,-0.095648,-128.345,239.715,31.5175
1481,307753,1.303204,-0.518744,-3.480172,-223.1075,252.9625,46.235
1482,307850,0.365268,-0.142984,-1.2280520000000001,-122.15,213.2025,118.7375
1483,307946,0.25376,1.861476,-0.332328,-128.905,253.7675,122.395
1484,308042,0.951356,1.926868,-0.744688,-73.01,298.4975,88.76
1485,308139,2.205028,2.269932,-2.216008,-31.5175,306.1975,50.82
1486,308235,1.605276,1.569896,-1.7697319999999999,26.5475,258.23,8.995
1487,308331,1.457168,-0.160552,-1.5525719999999998,63.7,222.04,-38.5875
1488,308427,2.8782240000000003,-2.3916880000000003,-2.14964,55.685,199.64,-41.405
1489,308524,0.758108,-0.627568,-0.7288279999999999,-30.2925,148.26,-11.8475
1490,308620,1.01138,0.480436,-1.4905959999999998,-78.47,108.815,-17.6925
1491,308716,0.6885680999999999,-0.204228,-0.8615640999999999,-46.06,80.43,-21.4375
1492,308813,0.766892,-0.3294,-1.035048,-40.39,59.1325,-21.9975
1493,308909,0.6082920999999999,0.002684,-1.028948,-48.475,39.27,-22.015
1494,309005,0.621224,-0.321836,-0.964044,-36.82,27.93,-23.66
1495,309102,0.46921199999999996,-0.17763199999999998,-0.906216,-31.0975,22.225,-23.6425
1496,309198,0.6231760999999999,-0.029524,-0.9459880999999999,-27.7375,21.8225,-23.275
1497,309294,0.5838920999999999,-0.07173600000000001,-0.9076799999999999,-19.285,16.0825,-20.2475
1498,309391,0.490196,-0.051484,-0.9108521,-15.9075,9.6075,-17.99
1499,309487,0.49288000000000004,-0.07856801,-0.90036,-13.3875,10.395,-17.115
1500,309583,0.5192319999999999,-0.1037,-0.874252,-12.1975,10.745,-17.3775
1501,309680,0.5119121,-0.05368,-0.8820601,-13.3875,9.17,-18.1125
1502,309776,0.5353359999999999,-0.10516400000000001,-0.8518040000000001,-11.515,8.47,-17.5
1503,309872,0.520452,-0.08344800000000001,-0.8615640999999999,-9.835,7.665,-16.73
1504,309968,0.511424,-0.09784401,-0.8586360000000001,-8.5575,6.51,-16.24
1505,310065,0.5043479999999999,-0.07686,-0.8713241,-7.5775,6.475,-15.6975
1506,310161,0.5023960999999999,-0.093696,-0.8720559999999999,-6.16,7.14,-14.63
1507,310257,0.501908,-0.127368,-0.855708,-4.1475,7.5425,-14.1225
1508,310354,0.48556000000000005,-0.14884,-0.8418,-3.5,8.3125,-14.9275
1509,310450,0.478728,-0.15494000000000002,-0.8388721,-3.4825,9.66,-16.9225
1510,310546,0.4697,-0.155184,-0.8371639999999999,-3.535,11.3225,-19.7225
1511,310643,0.485804,-0.141276,-0.8413120000000001,-4.3575,13.2125,-23.1
1512,310739,0.5016641,-0.12761199999999998,-0.8396040000000001,-4.585,14.7525,-26.6
1513,310835,0.49824799999999997,-0.11224,-0.846924,-5.8275,15.6625,-29.5225
1514,310932,0.518988,-0.08100801,-0.834724,-6.5625,16.8525,-31.7625
1515,311028,0.522648,-0.023912,-0.829356,-6.8425,18.6025,-33.4075
1516,311124,0.506788,-0.025376,-0.828624,-6.44,20.1425,-33.25
1517,311220,0.493856,-0.049532,-0.8461921,-4.62,22.4,-33.04
1518,311317,0.49312399999999995,-0.07393200000000001,-0.8525360000000001,-4.1125,26.4075,-33.8275
1519,311413,0.503616,-0.049532,-0.861808,-4.2175,31.8675,-34.65
1520,311509,0.5023960999999999,-0.049776,-0.8605879999999999,-3.5875,37.9925,-35.8575
1521,311606,0.506544,-0.027327999999999998,-0.8662001,-3.255,44.8175,-37.8525
1522,311702,0.499712,-0.039528,-0.8708360999999999,-1.785,52.57,-39.445
1523,311798,0.517524,-0.011712,-0.887184,-1.435,61.8275,-41.6675
1524,311894,0.514108,0.013175999999999998,-0.9142680000000001,-0.7175,71.8725,-43.0325
1525,311991,0.498004,0.032695999999999996,-0.9186601000000001,-0.63,83.0375,-45.4825
1526,312087,0.451888,-0.020008,-0.952332,-0.9275,95.6025,-49.14
1527,312183,0.45725600000000005,-0.063196,-0.987224,-2.905,109.3575,-54.215
1528,312280,0.462136,-0.024156,-0.957944,-8.0325,123.9175,-63.7875
1529,312376,0.42700000000000005,-0.038796,-0.9889319999999999,-8.1725,141.785,-76.72
1530,312472,0.66856,-0.03538,-0.9476959999999999,-9.7475,165.165,-92.435
1531,312569,0.9630681000000001,-0.108824,-0.9516,-20.3,204.54,-112.84
1532,312665,-0.796904,0.090036,-0.198372,-19.1975,247.5725,-125.09
1533,312761,0.9833200000000001,-0.084912,-1.410564,-11.8825,303.6075,-139.685
1534,312858,0.18104800000000001,-0.07222401,-0.5753520000000001,-4.375,343.175,-151.2
1535,312954,1.11386,-0.161528,-1.505236,16.9225,399.9275,-164.6925
1536,313050,1.581608,-0.14274,-1.707024,48.7725,448.6825,-163.9575
1537,313146,1.5311,-0.207156,-1.636996,82.6,465.22,-166.25
1538,313243,1.732156,-0.227408,-1.879288,100.4325,454.125,-179.3575
1539,313339,3.184444,-0.422364,-1.526464,135.8175,432.5125,-187.53
1540,313435,1.468392,-0.02074,-2.23504,181.685,421.855,-171.255
1541,313532,-0.209108,0.478484,-1.981524,251.09,364.49,-166.7575
1542,313628,0.214964,-1.6745720000000002,-4.202656,259.805,286.545,-191.6425
1543,313724,2.051308,-3.6041239999999997,-4.5976919999999994,259.14,63.385,-115.29
1544,313821,-1.068476,-3.301076,-1.574288,197.54,-76.5625,16.205
1545,313917,-0.696376,-1.5845360000000002,-1.543788,66.5175,-88.11251,137.7075
1546,314013,-0.17812,-0.082472,-2.006412,67.69001,-82.6,244.9475
1547,314110,0.077836,0.607804,-2.3128759999999997,165.6725,-114.555,319.025
1548,314206,0.11736400000000001,0.8230120999999999,-2.222108,251.9475,-171.465,343.595
1549,314302,0.17324,1.17242,-2.0874200000000003,258.825,-223.09,319.0775
1550,314398,0.28621199999999997,1.7929119999999998,-2.001776,218.435,-265.965,262.465
1551,314495,0.38552,2.3441080000000003,-1.8971,193.2,-299.39,190.5575
1552,314591,0.554124,2.455616,-1.780468,213.71,-329.8225,123.865
1553,314687,0.649528,2.138904,-1.606008,257.2325,-355.3725,72.625
1554,314784,0.682712,1.684088,-1.4454559999999999,284.865,-373.135,40.25
1555,314880,0.6885680999999999,1.37494,-1.350784,279.79,-380.9925,23.0825
1556,314976,0.714676,1.301984,-1.3449280000000001,251.2825,-380.9575,11.8825
1557,315073,0.7944641,1.458144,-1.407148,218.33,-378.2975,-3.115
1558,315169,0.9015799999999999,1.641876,-1.51768,201.635,-377.265,-24.43
1559,315265,1.028704,1.8182880000000001,-1.6165,198.66,-379.61,-54.355
1560,315361,1.1507040000000002,1.950536,-1.6030799999999998,202.2125,-386.19,-93.3275
1561,315458,1.2261,2.050088,-1.484008,208.25,-390.6175,-140.245
1562,315554,1.359324,2.133048,-1.380552,213.7975,-387.66,-193.8825
1563,315650,1.56282,2.268468,-1.2763639999999998,220.0275,-377.125,-251.895
1564,315747,1.79462,2.417064,-1.167052,233.275,-361.97,-310.5375
1565,315843,2.088152,2.506856,-1.033828,257.81,-343.8575,-366.0125
1566,315939,2.31312,2.5161279999999997,-0.778604,289.2575,-324.24,-414.4
1567,316036,2.4390240000000003,2.469036,-0.4404201,316.715,-300.2125,-452.6375
1568,316132,2.50222,2.279448,-0.202276,330.4175,-265.65,-473.725
1569,316228,2.42048,1.8048680000000001,0.08784,321.02,-224.1925,-468.1075
1570,316325,2.305068,1.274168,-0.126148,273.9275,-181.1425,-427.21
1571,316421,2.4090119999999997,0.687348,-0.373076,197.75,-143.5175,-352.24
1572,316517,2.3363,-0.08052000000000001,-0.257664,110.2675,-117.7225,-252.385
1573,316614,2.6839999999999997,-2.6181200000000002,0.601704,-42.98,-88.6025,-169.8375
1574,316710,2.4307279999999998,-0.9142680000000001,2.6352,-286.2825,-24.71,-187.39
1575,316806,4.133848,-0.3172,1.8168240000000002,-387.7475,97.4925,-167.9825
1576,316902,4.134336,3.181516,-1.962004,-442.7675,131.0575,-149.2925
1577,316999,1.061156,1.897344,-1.3888479999999999,-245.6475,3.4475,-138.6875
1578,317095,0.197152,1.245376,-2.339716,-110.6,-29.2075,-53.6725
1579,317191,0.568276,0.8086161000000001,-0.9806360000000001,-72.415,31.4825,-46.7775
1580,317288,0.5192319999999999,0.793244,-1.112152,-41.3175,31.5175,-32.69
1581,317384,0.494832,0.36282800000000004,-0.989908,-16.3625,24.1675,-7.7175
1582,317480,0.504836,-0.086864,-0.8344801,5.9675,30.24,2.415
1583,317577,0.641964,-0.058803999999999995,-0.843508,1.5225,29.4525,2.9575
1584,317673,0.5489999999999999,0.014884,-0.8730319999999999,1.1725,21.7525,0.3325
1585,317769,0.5321640000000001,0.037088,-0.9103641,3.5,16.1525,0.49
1586,317865,0.583648,-0.09052401,-0.8823040000000001,8.54,15.1375,2.275
1587,317962,0.542168,-0.146644,-0.865956,9.3275,10.2725,2.3625
1588,318058,0.509228,-0.2196,-0.841556,5.67,5.3725,0.0875
1589,318154,0.524356,-0.162504,-0.8586360000000001,0.9975,6.2125,-3.045
1590,318251,0.5246,-0.10345599999999999,-0.8640040000000001,-2.3275,5.355,-5.845
1591,318347,0.523868,-0.061488,-0.854244,-2.87,6.02,-6.125
1592,318443,0.514596,-0.055388,-0.8652241,-3.0625,5.4425,-5.425
1593,318539,0.525576,-0.055388,-0.8676640999999999,-2.94,6.4575,-4.76
1594,318636,0.533384,-0.045627999999999995,-0.8676640999999999,-1.5575,7.0525,-3.5875
1595,318732,0.5160600000000001,-0.049288,-0.853512,0.3325,5.88,-2.135
1596,318828,0.511424,-0.060512,-0.8547319999999999,2.0825,5.81,-0.8925
1597,318925,0.502884,-0.086864,-0.8464360000000001,3.0625,6.65,-0.385
1598,319021,0.49263599999999996,-0.101992,-0.84424,2.2925,7.9625,-1.2775
1599,319117,0.496296,-0.125416,-0.8283799999999999,-0.0875,9.6075,-3.5525
1600,319213,0.5084960000000001,-0.123708,-0.830576,-3.885,10.78,-6.7375
1601,319310,0.514352,-0.12712400000000001,-0.834724,-6.44,11.515,-9.6775
1602,319406,0.5072760000000001,-0.131272,-0.836676,-7.385,12.11,-12.5125
1603,319502,0.49776000000000004,-0.124928,-0.8400921,-6.965,13.265,-15.995
1604,319599,0.482388,-0.10052799999999999,-0.8640040000000001,-4.3925,14.7,-21.2275
1605,319695,0.48214399999999996,-0.128344,-0.8581479999999999,2.3625,16.8175,-28.4025
1606,319791,0.511668,-0.116632,-0.8464360000000001,9.3975,19.1975,-37.1
1607,319888,0.5131319999999999,-0.15420799999999998,-0.8149601,15.9775,21.9625,-46.025
1608,319984,0.49873599999999996,-0.13785999999999998,-0.807396,20.58,25.515,-54.705
1609,320080,0.52094,-0.124928,-0.8371639999999999,24.395,30.2925,-61.565
1610,320176,0.542168,-0.083204,-0.826916,31.9725,33.11,-69.965
1611,320273,0.556076,-0.08100801,-0.8281360999999999,40.6,35.0875,-81.095
1612,320369,0.5697399999999999,-0.066856,-0.8271601000000001,52.9725,35.91,-93.0475
1613,320465,0.5843801,-0.061488,-0.8222799999999999,66.1325,36.575,-104.825
1614,320562,0.583404,-0.06344,-0.8081281,78.62751,37.7475,-115.675
1615,320658,0.5946279999999999,-0.09882,-0.799588,88.6375,37.38,-124.915
1616,320754,0.625372,-0.07442,-0.779092,93.6075,36.5575,-131.2675
1617,320851,0.632448,-0.051484,-0.756888,95.4625,35.7175,-134.3825
1618,320947,0.638792,-0.09784401,-0.754448,96.4775,34.4925,-134.5925
1619,321043,0.650992,-0.033916,-0.741028,93.8175,31.36,-133.49
1620,321139,0.643428,-0.032208,-0.7407841,90.79,30.3275,-129.3075
1621,321236,0.643672,-0.018544,-0.759328,83.4575,28.455,-121.5025
1622,321332,0.631228,-0.01586,-0.758108,74.725,27.4925,-111.755
1623,321428,0.6514800000000001,-0.007076001,-0.75884,65.7475,27.405,-100.8875
1624,321525,0.652456,0.017812,-0.77104,55.4575,29.12,-88.39251
1625,321621,0.6082920999999999,0.03782,-0.765184,44.4675,30.345,-75.2325
1626,321717,0.754692,0.018056,-0.785924,34.58,33.88,-62.0025
1627,321814,0.6109760000000001,0.014396,-0.8086161000000001,27.9475,42.0,-46.6375
1628,321910,0.638548,0.01586,-0.7788480999999999,20.405,43.155,-33.355
1629,322006,0.49995600000000007,0.07490801,-0.9152440000000001,9.8175,48.1775,-18.06
1630,322102,0.53314,0.11712,-0.720776,11.795,42.9275,-2.555
1631,322199,0.69662,0.09516001,-0.752496,10.4475,55.7025,11.5675
1632,322295,0.721996,0.0488,-0.798856,-2.485,80.4475,24.5
1633,322391,0.6182960999999999,0.002684,-0.9018241,-12.7575,96.1275,34.3875
1634,322488,0.24570799999999998,0.04514,-0.948184,-12.145,102.62,38.3775
1635,322584,0.6068279999999999,-0.120048,-0.7571321,8.575,115.4125,32.4625
1636,322680,0.330864,-0.07246799999999999,-0.891576,-3.5175,146.825,27.0025
1637,322777,0.46896800000000005,-0.020496,-0.8176439999999999,-6.4925,165.7775,23.7475
1638,322873,0.687348,-0.107848,-0.8918200000000001,14.3675,205.1525,23.03
1639,322969,0.483364,-0.00244,-0.889868,31.1675,242.41,25.41
1640,323065,1.83,-0.11126400000000002,-1.335412,50.3475,291.27,29.75
1641,323162,1.130208,-0.009516001,-1.248304,81.76001,377.0375,29.8375
1642,323258,0.778604,-0.13151600000000002,-1.071892,109.9875,468.0375,29.9775
1643,323354,0.945256,0.008296000999999999,-1.203408,123.8475,495.8625,30.2575
1644,323451,1.38714,-0.057339999999999995,-1.363472,159.3025,484.9775,42.42
1645,323547,1.306376,0.11126400000000002,-1.504016,193.2875,472.71,55.405
1646,323643,1.8839240000000002,-0.02074,-1.6875040000000001,215.39,446.5825,57.4175
1647,323740,3.3920879999999998,-0.215696,-1.9825,241.955,436.205,45.71
1648,323836,2.225768,0.046848,-2.138416,243.6175,466.8825,40.6
1649,323932,1.590148,-0.31232,-2.130364,244.16,447.0375,38.78
1650,324028,1.501088,-0.512644,-2.69864,254.5375,349.93,27.6325
1651,324125,4.01502,-2.640568,-4.040883999999999,121.66,243.9325,-4.515
