,T,ax,ay,az,gx,gy,gz
0,9253771,1.0467600000000001,-0.271694,-0.16128399999999998,18.41,-16.345,-15.75
1,9253923,0.9103641,-0.067222,-0.36661,-53.8825,45.7975,-135.9225
2,9254021,0.9465981,-0.063318,-0.388936,-80.5175,34.9825,-273.945
3,9254119,0.930616,-0.07710399999999999,-0.381006,16.975,-91.91001,-89.355
4,9254217,0.9259799999999999,-0.09162200000000001,-0.382348,-2.7125,-14.21,-11.41
5,9254315,0.9322021,-0.094916,-0.392962,-9.765,-9.9225,-7.105
6,9254413,0.9463540000000001,-0.09479401,-0.40967600000000004,-15.0325,-12.3375,-7.7875
7,9254511,0.963434,-0.093696,-0.441396,-21.8225,-17.7625,-7.7
8,9254609,0.972706,-0.09650201,-0.488122,-32.725,-28.7175,-6.3
9,9254707,0.9646541,-0.10394400000000001,-0.48653599999999997,-50.645,-49.07,-2.275
10,9254804,0.9375700000000001,-0.06124401,-0.5934081,-71.96,-74.795,2.7475
11,9254902,0.8785219999999999,-0.07600599999999999,-0.607438,-81.9875,-95.865,9.9225
12,9255000,0.8287459999999999,-0.058803999999999995,-0.6049981,-90.825,-108.99,15.8725
13,9255098,0.755302,-0.020618,-0.532652,-91.7875,-113.225,22.8375
14,9255196,0.72895,0.007320001,-0.42321800000000004,-84.665,-102.7425,25.165
15,9255294,0.782752,0.0034159999999999998,-0.225944,-69.93,-80.115,21.49
16,9255392,1.1224,0.05063,-0.028914,-43.4175,-48.1425,13.3875
17,9255490,0.752862,-0.046116000000000004,-0.38613000000000003,-1.5575,-35.525,0.21
18,9255588,0.7640859999999999,-0.014884,-0.530456,-2.3275,-29.855,-2.905
19,9255686,0.823134,-0.05795,-0.47994799999999993,6.86,-7.525,-6.3525
20,9255784,0.809348,-0.045506,-0.5261859999999999,5.0225,-2.695,-5.6875
21,9255881,0.8174001000000001,-0.040504000000000005,-0.551928,-0.175,-6.1775,-3.92
22,9255979,0.8344801,-0.03538,-0.5352140000000001,-2.6425,-7.8925,-2.975
23,9256077,0.84241,-0.035013999999999997,-0.51972,-2.275,-7.98,-3.0625
24,9256175,0.84851,-0.036966000000000006,-0.515938,-1.61,-6.44,-3.64
25,9256273,0.8497299999999999,-0.037942000000000004,-0.514596,-1.3125,-6.37,-3.675
26,9256371,0.8475341000000001,-0.039284,-0.51179,-1.19,-7.6475,-3.815
27,9256469,0.8608319999999999,-0.045384,-0.5139859999999999,-1.75,-9.205,-3.675
28,9256567,0.8425321,-0.042334,-0.5130100000000001,-2.345,-10.535,-2.9225
29,9256665,0.8471681000000001,-0.04148,-0.5130100000000001,-2.975,-11.7775,-3.185
30,9256763,0.8431420000000001,-0.040382,-0.510692,-2.7825,-10.9375,-3.4475
31,9256861,0.8388721,-0.042456,-0.509716,-2.3275,-9.6425,-3.605
32,9256958,0.832894,-0.040748,-0.5072760000000001,-1.8725,-8.61,-3.7275
33,9257056,0.8276481,-0.040992,-0.505446,-1.645,-7.9275,-3.71
34,9257154,0.82411,-0.039894,-0.50264,-1.6275,-7.35,-3.5175
35,9257252,0.8230120999999999,-0.039284,-0.503372,-1.5925,-6.9475,-3.395
36,9257350,0.82411,-0.03965,-0.5070319999999999,-1.4875,-6.685,-3.3425
37,9257448,0.8289901,-0.038796,-0.5073979999999999,-1.505,-6.545,-3.2375
38,9257546,0.8341139999999999,-0.040504000000000005,-0.509716,-1.61,-6.615,-3.2375
39,9257644,0.838994,-0.041358,-0.5130100000000001,-1.8375,-7.07,-3.15
40,9257742,0.8418,-0.04087,-0.511302,-1.925,-7.5075,-3.15
41,9257840,0.845216,-0.040016,-0.5115460000000001,-1.995,-7.875,-3.29
42,9257937,0.8475341000000001,-0.044896,-0.509472,-1.8725,-8.0325,-3.43
43,9258035,0.8464360000000001,-0.04331,-0.507154,-1.75,-7.8225,-3.4475
44,9258133,0.846924,-0.043066,-0.507154,-1.505,-7.455,-3.5525
45,9258231,0.84546,-0.040382,-0.508618,-1.2075,-6.965,-3.6925
46,9258329,0.8458261,-0.040992,-0.508374,-0.9625,-6.6675,-3.5875
47,9258427,0.8453381,-0.040138,-0.5098381,-0.8400001,-6.58,-3.5875
48,9258525,0.8443620999999999,-0.041114,-0.5098381,-0.8925,-6.4575,-3.5525
49,9258623,0.841556,-0.041236,-0.510814,-0.875,-6.4925,-3.605
50,9258721,0.840824,-0.042212,-0.510204,-1.015,-6.545,-3.5525
51,9258819,0.839116,-0.043554,-0.508618,-1.1725,-6.685,-3.5175
52,9258917,0.834968,-0.04148,-0.5069100000000001,-1.155,-6.79,-3.5175
53,9259015,0.83265,-0.041724000000000004,-0.50447,-0.98,-6.79,-3.5525
54,9259112,0.829966,-0.0427,-0.506666,-1.05,-6.72,-3.675
55,9259210,0.830332,-0.045262000000000004,-0.5058121,-1.155,-6.4225,-3.7975
56,9259308,0.8306979999999999,-0.045506,-0.50813,-1.435,-6.0025,-3.815
57,9259406,0.832406,-0.044774,-0.5077640999999999,-1.54,-5.39,-3.85
58,9259504,0.8344801,-0.046482,-0.5091061,-1.3475,-4.9525,-3.9375
59,9259602,0.837408,-0.04514,-0.50752,-1.3475,-4.9,-3.85
60,9259700,0.838018,-0.043676,-0.508374,-1.3825,-4.83,-3.745
61,9259798,0.8375299999999999,-0.044286,-0.50935,-1.33,-4.62,-3.6925
62,9259896,0.8392381,-0.04404201,-0.5084960000000001,-1.1025,-4.585,-3.8675
63,9259994,0.8410681000000001,-0.042944,-0.5104479999999999,-1.0675,-4.515,-3.85
64,9260092,0.8422879999999999,-0.043066,-0.5115460000000001,-0.9275,-4.585,-3.99
65,9260190,0.8426540000000001,-0.04087,-0.513376,-0.8400001,-4.9,-4.095
66,9260288,0.8433860999999999,-0.042334,-0.5098381,-0.8225,-5.25,-4.165
67,9260385,0.843508,-0.039528,-0.5091061,-0.63,-5.3025,-4.2875
68,9260483,0.8420440999999999,-0.037698,-0.506178,-0.6125,-5.8625,-4.3225
69,9260581,0.841556,-0.037332,-0.506422,-0.4025,-6.16,-4.3225
70,9260679,0.8402139999999999,-0.03782,-0.504592,-0.385,-6.405,-4.445
71,9260777,0.84424,-0.0366,-0.5049581,-0.4025,-6.3525,-4.585
72,9260875,0.8463139999999999,-0.038186000000000005,-0.504592,-0.385,-6.475,-4.725
73,9260973,0.8489979999999999,-0.038551999999999996,-0.50508,-0.28,-6.6325,-4.7075
74,9261071,0.84851,-0.039772,-0.5069100000000001,-0.2625,-6.7025,-4.8125
75,9261169,0.8510719999999999,-0.042822000000000006,-0.506422,-0.1225,-6.86,-4.9175
76,9261267,0.8508280999999999,-0.04331,-0.50752,0.035,-7.1925,-5.0925
77,9261365,0.8509501,-0.043188,-0.5063,0.1225,-7.315,-5.0925
78,9261463,0.8488761,-0.042334,-0.505324,0.1925,-7.35,-5.3025
79,9261560,0.8466800999999999,-0.040626,-0.502762,0.28,-7.3325,-5.4425
80,9261658,0.8458261,-0.039406000000000004,-0.501542,0.2975,-7.5075,-5.5125
81,9261756,0.845582,-0.039284,-0.49849209999999994,0.175,-7.7175,-5.495
82,9261854,0.8411900999999999,-0.040626,-0.49715,-0.0175,-7.455,-5.5475
83,9261952,0.839116,-0.042944,-0.496418,-0.1575,-7.105,-5.425
84,9262050,0.835456,-0.045262000000000004,-0.49471000000000004,-0.175,-6.7025,-5.355
85,9262148,0.8360661,-0.04514,-0.496418,-0.21,-6.44,-5.425
86,9262246,0.835822,-0.045994,-0.49654,-0.2275,-6.09,-5.565
87,9262344,0.835456,-0.045506,-0.496784,-0.3675,-5.81,-5.6
88,9262442,0.8365541,-0.044164,-0.49715,-0.35,-5.4425,-5.6
89,9262540,0.837408,-0.042944,-0.49776000000000004,-0.385,-5.2325,-5.4775
90,9262638,0.8372860999999999,-0.042578,-0.49739399999999995,-0.525,-5.11,-5.425
91,9262736,0.83875,-0.043066,-0.498004,-0.7,-4.865,-5.32
92,9262833,0.839482,-0.042456,-0.497638,-0.9975,-4.7425,-5.285
93,9262931,0.8407021000000001,-0.041968,-0.49727200000000005,-1.3125,-4.4975,-5.0925
94,9263029,0.8431420000000001,-0.041846,-0.49861400000000006,-1.6275,-4.41,-5.0225
95,9263127,0.8447280999999999,-0.042334,-0.500566,-1.6625,-4.375,-4.8475
96,9263225,0.8471681000000001,-0.04148,-0.5003221,-1.68,-4.2875,-4.9
97,9263323,0.8466800999999999,-0.03965,-0.50142,-1.5925,-4.1475,-4.9525
98,9263421,0.846558,-0.039284,-0.501786,-1.5925,-4.0775,-5.0575
99,9263519,0.8458261,-0.03965,-0.502518,-1.715,-4.06,-5.0225
100,9263617,0.8443620999999999,-0.039528,-0.503494,-1.82,-4.06,-5.0225
101,9263715,0.844118,-0.03904,-0.501908,-1.89,-3.9375,-5.005
102,9263813,0.8425321,-0.03904,-0.50325,-1.925,-3.815,-5.0225
103,9263911,0.8411900999999999,-0.039406000000000004,-0.5049581,-1.9775,-3.78,-5.0925
104,9264009,0.8400921,-0.040016,-0.506544,-2.065,-3.6925,-5.0575
105,9264107,0.8405800999999999,-0.040626,-0.506422,-2.17,-3.7625,-5.0925
106,9264204,0.8397261,-0.040992,-0.5099600000000001,-2.1175,-3.955,-5.075
107,9264302,0.841556,-0.040382,-0.507154,-2.135,-4.165,-5.0225
108,9264400,0.8413120000000001,-0.040260000000000004,-0.5073979999999999,-2.1875,-4.62,-4.935
109,9264498,0.8414341000000001,-0.040016,-0.509594,-2.1875,-5.1975,-4.83
110,9264596,0.8422879999999999,-0.039162,-0.508984,-2.2225,-5.565,-4.8125
111,9264694,0.845094,-0.038186000000000005,-0.508008,-2.345,-5.6175,-4.795
112,9264792,0.848266,-0.03782,-0.506666,-2.45,-5.95,-4.6725
113,9264890,0.8514379999999999,-0.0366,-0.506422,-2.6425,-6.2475,-4.5675
114,9264988,0.855708,-0.036966000000000006,-0.5070319999999999,-2.7125,-6.755,-4.585
115,9265086,0.856562,-0.037332,-0.508618,-2.8175,-7.21,-4.48
116,9265184,0.8543661,-0.03599,-0.507154,-2.87,-7.49,-4.3925
117,9265282,0.8544879999999999,-0.03538,-0.506422,-2.94,-7.525,-4.375
118,9265380,0.849852,-0.034404000000000004,-0.508862,-2.9925,-7.5775,-4.13
119,9265478,0.8471681000000001,-0.036356,-0.5073979999999999,-2.7475,-7.49,-4.06
120,9265575,0.8428979999999999,-0.036722000000000005,-0.508618,-2.555,-7.595,-4.165
121,9265673,0.8392381,-0.0366,-0.509594,-2.555,-7.7525,-4.2525
122,9265771,0.8357,-0.036112,-0.509228,-2.5725,-7.84,-4.2175
123,9265869,0.8322841000000001,-0.034648000000000005,-0.506544,-2.5025,-7.7525,-4.2875
124,9265967,0.8296,-0.033916,-0.505202,-2.3625,-7.665,-4.3575
125,9266065,0.830576,-0.03294,-0.5042260000000001,-2.205,-7.7,-4.3575
126,9266163,0.838506,-0.033794,-0.5056901,-2.1175,-7.6825,-4.34
127,9266261,0.826672,-0.032695999999999996,-0.5072760000000001,-1.925,-7.595,-3.85
128,9266359,0.8260620000000001,-0.030866,-0.5073979999999999,-1.9425,-7.84,-4.1125
129,9266457,0.8308200000000001,-0.033428,-0.5073979999999999,-2.03,-7.49,-4.375
130,9266555,0.8327720999999999,-0.034526,-0.50813,-1.96,-6.9475,-4.4975
131,9266653,0.8352120000000001,-0.03477,-0.5077640999999999,-1.925,-6.6325,-4.585
132,9266751,0.8365541,-0.035013999999999997,-0.5070319999999999,-1.9775,-6.335,-4.5325
133,9266848,0.8364321,-0.033306,-0.5058121,-1.7325,-6.055,-4.4625
134,9266946,0.8383841000000001,-0.034526,-0.505568,-1.505,-5.74,-4.2875
135,9267044,0.8402139999999999,-0.033672,-0.503372,-1.4,-5.7925,-4.2
136,9267142,0.8436299999999999,-0.032451999999999995,-0.502762,-1.2425,-5.95,-4.0775
137,9267240,0.8437520000000001,-0.034892,-0.50203,-1.1025,-5.8975,-3.92
138,9267338,0.8425321,-0.036966000000000006,-0.500688,-1.05,-5.705,-3.7975
139,9267436,0.841556,-0.037454,-0.49739399999999995,-0.805,-5.1975,-3.955
140,9267534,0.8414341000000001,-0.03538,-0.499712,-0.5075,-4.7075,-4.1825
141,9267632,0.843508,-0.037454,-0.501908,-0.5075,-4.4275,-4.4625
142,9267730,0.8443620999999999,-0.038186000000000005,-0.5049581,-0.6125,-4.2,-4.6025
143,9267828,0.8414341000000001,-0.035746,-0.503128,-0.7175,-3.99,-4.7425
144,9267926,0.839482,-0.036722000000000005,-0.503128,-0.56,-3.745,-4.9525
145,9268024,0.8383841000000001,-0.036966000000000006,-0.5038600000000001,-0.525,-3.57,-5.11
146,9268121,0.8369200000000001,-0.034526,-0.503128,-0.525,-3.6575,-5.1275
147,9268219,0.837408,-0.034526,-0.502274,-0.3675,-3.7625,-5.0575
148,9268317,0.8369200000000001,-0.03538,-0.50508,-0.4375,-4.0075,-5.0225
149,9268415,0.8361879999999999,-0.036478,-0.50325,-0.525,-4.305,-4.9875
150,9268513,0.83631,-0.038674,-0.50325,-0.6475,-4.3925,-5.04
151,9268611,0.8376520000000001,-0.03477,-0.504104,-0.9275,-4.4625,-5.04
152,9268709,0.840458,-0.036112,-0.504592,-0.945,-4.5325,-5.11
153,9268807,0.841922,-0.034526,-0.504836,-0.77,-4.4975,-5.075
154,9268905,0.84241,-0.032574,-0.503494,-0.77,-4.6025,-4.97
155,9269003,0.8438741,-0.033794,-0.502884,-0.6125,-4.5325,-4.865
156,9269101,0.8459479999999999,-0.034038,-0.504104,-0.49,-4.6375,-4.655
157,9269199,0.846802,-0.034526,-0.504714,-0.4375,-4.69,-4.725
158,9269297,0.8471681000000001,-0.03721,-0.5058121,-0.5075,-4.6375,-4.76
159,9269394,0.847412,-0.040016,-0.506788,-0.875,-4.725,-4.69
160,9269492,0.8475341000000001,-0.039162,-0.5058121,-1.0675,-4.76,-4.7075
161,9269590,0.8447280999999999,-0.039528,-0.509228,-1.3125,-5.11,-4.76
162,9269688,0.8422879999999999,-0.037942000000000004,-0.5072760000000001,-1.3825,-5.4075,-4.9
163,9269786,0.8399700000000001,-0.037088,-0.505202,-1.47,-5.5125,-4.8825
164,9269884,0.8367979999999999,-0.036112,-0.5038600000000001,-1.4875,-5.6175,-4.9
165,9269982,0.8388721,-0.036112,-0.503738,-1.54,-5.635,-4.83
166,9270080,0.8398479999999999,-0.03477,-0.502762,-1.68,-5.635,-4.8125
167,9270178,0.8396040000000001,-0.035258,-0.504104,-1.715,-5.6875,-4.8475
168,9270276,0.8431420000000001,-0.036478,-0.50264,-1.855,-5.8625,-4.8125
169,9270374,0.8430200999999999,-0.036844,-0.50325,-1.9075,-6.02,-4.7425
170,9270472,0.844118,-0.036478,-0.505568,-2.03,-5.985,-4.795
171,9270570,0.8461921,-0.035258,-0.504836,-2.065,-5.95,-4.8125
172,9270667,0.845094,-0.035868000000000004,-0.502762,-2.24,-5.95,-4.7775
173,9270765,0.8447280999999999,-0.036478,-0.50325,-2.38,-5.74,-4.7425
174,9270863,0.8432639999999999,-0.03782,-0.503128,-2.45,-5.7225,-4.6025
175,9270961,0.8418,-0.038064,-0.50264,-2.52,-5.7575,-4.4625
176,9271059,0.8426540000000001,-0.036233999999999995,-0.503616,-2.59,-5.81,-4.3925
177,9271157,0.8420440999999999,-0.032208,-0.5042260000000001,-2.59,-5.705,-4.5675
178,9271255,0.841678,-0.031110000000000002,-0.503128,-2.5725,-5.635,-4.375
179,9271353,0.8397261,-0.031354,-0.503738,-2.695,-5.7225,-4.3925
180,9271451,0.838994,-0.031964,-0.506544,-2.66,-5.6175,-4.2
181,9271549,0.8375299999999999,-0.032208,-0.503738,-2.6775,-5.67,-4.235
182,9271647,0.8372860999999999,-0.03172,-0.5039819999999999,-2.5725,-5.6525,-4.235
183,9271745,0.8361879999999999,-0.032086,-0.50264,-2.66,-5.6875,-4.305
184,9271843,0.83631,-0.031354,-0.504592,-2.66,-5.635,-4.3925
185,9271941,0.838018,-0.031110000000000002,-0.5039819999999999,-2.5375,-5.6525,-4.4975
186,9272038,0.838628,-0.03294,-0.5043479999999999,-2.66,-5.3725,-4.5325
187,9272136,0.8382620000000001,-0.034648000000000005,-0.5073979999999999,-2.8,-5.3025,-4.4625
188,9272234,0.8403360000000001,-0.033672,-0.505202,-2.8175,-5.2325,-4.4275
189,9272332,0.840824,-0.033794,-0.5049581,-2.625,-5.2325,-4.4625
190,9272430,0.8433860999999999,-0.031476,-0.504592,-2.45,-5.04,-4.4975
191,9272528,0.8425321,-0.0305,-0.5073979999999999,-2.3275,-4.7425,-4.4625
192,9272626,0.8437520000000001,-0.029646,-0.506422,-2.24,-4.8125,-4.41
193,9272724,0.8443620999999999,-0.029158,-0.504836,-2.1875,-4.83,-4.27
194,9272822,0.845094,-0.030378,-0.5039819999999999,-2.135,-5.0575,-4.2175
195,9272920,0.844606,-0.029646,-0.503372,-2.2575,-5.11,-4.235
196,9273018,0.8443620999999999,-0.031598,-0.505446,-2.2925,-5.075,-4.1125
197,9273116,0.84241,-0.031110000000000002,-0.504104,-2.345,-5.0925,-4.1125
198,9273214,0.8403360000000001,-0.03294,-0.505202,-2.3275,-4.9875,-4.1825
199,9273312,0.8398479999999999,-0.03294,-0.503616,-2.0475,-4.8825,-4.2
200,9273409,0.838994,-0.032086,-0.503494,-1.75,-4.935,-4.27
201,9273507,0.8392381,-0.031110000000000002,-0.5030060000000001,-1.505,-4.7425,-4.305
202,9273605,0.8375299999999999,-0.030866,-0.504592,-1.4,-4.7075,-4.34
203,9273703,0.8413120000000001,-0.029401999999999998,-0.503372,-1.365,-4.6025,-4.375
204,9273801,0.8410681000000001,-0.029889999999999996,-0.501542,-1.33,-4.69,-4.3575
205,9273899,0.841556,-0.028914,-0.5038600000000001,-1.4175,-4.7075,-4.3925
206,9273997,0.8431420000000001,-0.030744,-0.505568,-1.61,-4.865,-4.4975
207,9274095,0.8425321,-0.028182,-0.503738,-1.575,-5.1275,-4.55
208,9274193,0.8443620999999999,-0.028426,-0.503494,-1.4875,-5.32,-4.6025
209,9274291,0.8448501,-0.026718000000000002,-0.502762,-1.365,-5.53,-4.6025
210,9274389,0.8447280999999999,-0.025376,-0.502884,-1.12,-5.5825,-4.725
211,9274487,0.8447280999999999,-0.026351999999999997,-0.501908,-1.0325,-5.5825,-4.795
212,9274585,0.845582,-0.02684,-0.501786,-0.98,-5.53,-4.76
213,9274683,0.84424,-0.028182,-0.49910200000000005,-0.91,-5.635,-4.9875
214,9274781,0.8443620999999999,-0.029524,-0.499834,-0.875,-5.775,-5.075
215,9274878,0.843508,-0.029036000000000003,-0.5009319999999999,-1.0325,-5.8625,-5.2675
216,9274976,0.8432639999999999,-0.028669999999999998,-0.500566,-1.0675,-5.7575,-5.25
217,9275074,0.8428979999999999,-0.030378,-0.49824799999999997,-0.98,-5.705,-5.3025
218,9275172,0.84241,-0.029401999999999998,-0.499224,-0.9975,-5.7225,-5.3025
219,9275270,0.843508,-0.030133999999999998,-0.500444,-0.9275,-5.915,-5.2325
220,9275368,0.8433860999999999,-0.029889999999999996,-0.497882,-0.8925,-6.125,-5.2675
221,9275466,0.843508,-0.030378,-0.49861400000000006,-0.7175,-6.09,-5.18
222,9275564,0.8426540000000001,-0.032695999999999996,-0.499712,-0.7875,-5.8975,-5.0925
223,9275662,0.8414341000000001,-0.033672,-0.49776000000000004,-0.7525,-5.7925,-5.075
224,9275760,0.8397261,-0.032818,-0.49873599999999996,-0.805,-5.7225,-5.0225
225,9275858,0.839116,-0.033672,-0.49824799999999997,-0.945,-5.6525,-4.9
226,9275956,0.838994,-0.03416,-0.49861400000000006,-0.945,-5.4425,-4.9
227,9276053,0.839116,-0.035502,-0.499224,-0.9975,-5.565,-4.97
228,9276151,0.8402139999999999,-0.033794,-0.49739399999999995,-1.0675,-5.6,-4.7775
229,9276249,0.84241,-0.033672,-0.497882,-1.155,-5.5475,-4.7075
230,9276347,0.84546,-0.03477,-0.49873599999999996,-1.365,-5.425,-4.5675
231,9276445,0.8471681000000001,-0.035258,-0.49959,-1.4,-5.3375,-4.4275
232,9276543,0.8480221,-0.037576,-0.49898000000000003,-1.4175,-5.005,-4.2
233,9276641,0.8460700999999999,-0.035258,-0.496418,-1.2775,-4.935,-4.06
234,9276739,0.8453381,-0.03355,-0.49580799999999997,-1.015,-4.935,-4.06
235,9276837,0.844484,-0.033306,-0.496784,-1.05,-4.8825,-3.92
236,9276935,0.8430200999999999,-0.033062,-0.496174,-1.3125,-5.0575,-3.815
237,9277032,0.8432639999999999,-0.034526,-0.495076,-1.5925,-4.935,-3.745
238,9277130,0.8447280999999999,-0.034526,-0.49654,-1.7675,-4.8825,-3.7275
239,9277228,0.8459479999999999,-0.03416,-0.496662,-1.9075,-4.8125,-3.675
240,9277326,0.847412,-0.032574,-0.49702799999999997,-2.0475,-4.725,-3.7275
241,9277424,0.8466800999999999,-0.034038,-0.495076,-1.75,-4.7775,-3.6575
242,9277522,0.8471681000000001,-0.033672,-0.49654,-1.365,-4.83,-3.675
243,9277620,0.8426540000000001,-0.030378,-0.497638,-1.3125,-4.9175,-3.4475
244,9277718,0.8432639999999999,-0.028792,-0.49605200000000005,-1.365,-5.005,-3.5
245,9277816,0.84424,-0.029889999999999996,-0.49532,-1.3125,-4.8825,-3.535
246,9277914,0.8430200999999999,-0.03355,-0.49898000000000003,-1.54,-4.7075,-3.4825
247,9278012,0.8430200999999999,-0.033428,-0.5003221,-1.89,-4.6725,-3.64
248,9278109,0.8461921,-0.033916,-0.49995600000000007,-2.24,-4.8125,-3.815
249,9278207,0.84729,-0.033672,-0.5023960999999999,-2.485,-4.9,-3.9025
250,9278305,0.8508280999999999,-0.033428,-0.501908,-2.5725,-5.075,-3.955
251,9278403,0.8519260000000001,-0.03416,-0.5012979999999999,-2.8,-5.3375,-4.0075
252,9278501,0.8526581,-0.033794,-0.49910200000000005,-2.8875,-5.6875,-3.815
253,9278599,0.851194,-0.031964,-0.49751599999999996,-2.8875,-6.02,-3.7625
254,9278697,0.849608,-0.03172,-0.496906,-2.765,-6.195,-3.6925
255,9278795,0.8463139999999999,-0.031354,-0.496418,-2.73,-6.16,-3.605
256,9278893,0.845094,-0.033306,-0.496784,-2.8175,-6.0725,-3.5
257,9278991,0.8448501,-0.033794,-0.496784,-3.0625,-6.0025,-3.3775
258,9279089,0.84424,-0.032818,-0.5002,-3.3075,-6.0025,-3.325
259,9279187,0.8448501,-0.032574,-0.501542,-3.4125,-5.8975,-3.3775
260,9279285,0.8437520000000001,-0.033672,-0.504714,-3.5,-5.8975,-3.325
261,9279382,0.8438741,-0.031354,-0.5030060000000001,-3.5,-5.9675,-3.2025
262,9279480,0.844606,-0.031354,-0.507642,-3.5,-5.7225,-3.08
263,9279578,0.8471681000000001,-0.029401999999999998,-0.50874,-3.2725,-5.6,-3.15
264,9279676,0.850218,-0.02745,-0.510204,-3.2725,-5.74,-3.2025
265,9279774,0.8518040000000001,-0.029401999999999998,-0.51423,-3.3425,-5.985,-3.1325
266,9279872,0.850584,-0.030256,-0.516304,-3.5875,-6.615,-3.185
267,9279970,0.8461921,-0.031598,-0.515084,-3.9025,-7.245,-3.115
268,9280068,0.8427761,-0.029768,-0.5161819999999999,-3.9725,-7.5425,-3.01
269,9280166,0.8403360000000001,-0.030378,-0.514596,-4.025,-7.77,-2.8
270,9280264,0.837042,-0.028304000000000003,-0.51484,-4.0075,-8.015,-2.835
271,9280362,0.83204,-0.029158,-0.511424,-3.92,-8.05,-2.765
272,9280460,0.828624,-0.027938,-0.510814,-3.99,-8.0675,-2.7825
273,9280558,0.8261841000000001,-0.027694,-0.5121560000000001,-4.025,-7.945,-2.7125
274,9280656,0.8256960999999999,-0.026595999999999998,-0.510692,-4.0075,-7.875,-2.8175
275,9280754,0.826916,-0.027816000000000004,-0.5131319999999999,-4.13,-7.7175,-2.8
276,9280852,0.8276481,-0.025498,-0.512644,-4.2525,-7.805,-2.9575
277,9280949,0.827526,-0.023302,-0.510204,-4.1475,-7.77,-2.94
278,9281047,0.8267940999999999,-0.023912,-0.510692,-3.99,-7.6125,-2.9575
279,9281145,0.828868,-0.023058000000000002,-0.51057,-3.815,-7.3675,-3.0625
280,9281243,0.83204,-0.021838,-0.511302,-3.64,-7.175,-3.15
281,9281341,0.834358,-0.021594,-0.510814,-3.6225,-6.965,-3.22
282,9281439,0.835456,-0.022813999999999997,-0.512644,-3.5175,-6.65,-3.3775
283,9281537,0.8361879999999999,-0.024034,-0.515328,-3.4475,-6.335,-3.4475
284,9281635,0.8367979999999999,-0.023668,-0.5158159999999999,-3.29,-6.195,-3.675
285,9281733,0.835822,-0.02501,-0.514962,-3.1325,-6.1775,-3.8325
286,9281831,0.8352120000000001,-0.023546,-0.51545,-3.045,-6.335,-3.8325
287,9281929,0.8365541,-0.024034,-0.5158159999999999,-2.8175,-6.58,-3.92
288,9282027,0.838628,-0.024522,-0.513742,-2.2925,-6.65,-4.025
289,9282125,0.8382620000000001,-0.024522,-0.513376,-1.96,-6.895,-4.1125
290,9282223,0.8352120000000001,-0.022936,-0.51362,-1.715,-7.105,-4.0775
291,9282321,0.833016,-0.023424,-0.510936,-1.54,-7.28,-4.27
292,9282419,0.831674,-0.024644,-0.5100819999999999,-1.575,-7.245,-4.3575
293,9282517,0.8315520000000001,-0.025254,-0.510692,-1.54,-6.9475,-4.375
294,9282615,0.832406,-0.025254,-0.5115460000000001,-1.5225,-6.755,-4.5325
295,9282713,0.834358,-0.027206,-0.514108,-1.505,-6.5275,-4.5675
296,9282810,0.8355780999999999,-0.026595999999999998,-0.5132541,-1.3475,-6.3175,-4.4975
297,9282908,0.8332601000000001,-0.026474,-0.5131319999999999,-0.9625,-6.0725,-4.585
298,9283006,0.8342360000000001,-0.024766,-0.5127659999999999,-0.7,-5.9675,-4.62
299,9283104,0.8335040000000001,-0.023180000000000003,-0.5119121,-0.385,-5.8625,-4.6375
300,9283202,0.8331381,-0.023546,-0.511302,-0.14,-5.7925,-4.795
301,9283300,0.833382,-0.023546,-0.509716,0.0,-5.81,-4.8825
302,9283398,0.8357,-0.02684,-0.5098381,0.0525,-5.8625,-5.0575
303,9283496,0.83631,-0.025986000000000002,-0.5103260000000001,0.1225,-6.0025,-5.11
304,9283594,0.8409459999999999,-0.028182,-0.513864,0.1575,-5.8975,-5.2325
305,9283692,0.8413120000000001,-0.03172,-0.514474,0.1225,-5.705,-5.355
306,9283790,0.8396040000000001,-0.031964,-0.5124001,0.3675,-5.3725,-5.565
307,9283888,0.8361879999999999,-0.030256,-0.5077640999999999,0.8400001,-5.4425,-5.565
308,9283986,0.835456,-0.030744,-0.510692,1.19,-5.39,-5.74
309,9284084,0.832406,-0.029524,-0.510936,0.9975,-5.4425,-5.705
310,9284181,0.8298440999999999,-0.030987999999999998,-0.5119121,0.945,-5.4075,-5.8275
311,9284279,0.83021,-0.029646,-0.510814,0.7525,-5.32,-5.8975
312,9284377,0.8317960999999999,-0.030012,-0.5103260000000001,0.525,-5.4075,-6.055
313,9284475,0.834358,-0.030987999999999998,-0.510936,0.35,-5.495,-6.16
314,9284573,0.838018,-0.033916,-0.51118,0.245,-5.495,-6.16
315,9284671,0.8418,-0.035136,-0.509228,0.175,-5.7925,-6.0375
316,9284769,0.8438741,-0.036112,-0.5104479999999999,0.1225,-6.58,-6.0725
317,9284867,0.8457040000000001,-0.0366,-0.5115460000000001,0.1225,-6.93,-5.95
318,9284965,0.8479,-0.039528,-0.512888,0.245,-7.14,-5.8975
319,9285063,0.8461921,-0.03782,-0.512888,0.28,-7.1225,-5.6875
320,9285161,0.8471681000000001,-0.036233999999999995,-0.5132541,0.1575,-7.175,-5.6875
321,9285259,0.8438741,-0.034648000000000005,-0.51484,-0.07,-7.2625,-5.6
322,9285357,0.8426540000000001,-0.03477,-0.5139859999999999,-0.28,-7.3325,-5.46
323,9285455,0.8430200999999999,-0.035624,-0.512034,-0.6125,-7.315,-5.39
324,9285553,0.8413120000000001,-0.034526,-0.515084,-0.7175,-7.8925,-5.285
325,9285650,0.841556,-0.035746,-0.515572,-0.875,-8.4175,-5.215
326,9285748,0.8399700000000001,-0.03416,-0.51423,-0.9975,-8.3475,-4.375
327,9285846,0.8291120999999999,-0.030256,-0.5127659999999999,-1.085,-9.3275,-4.235
328,9285944,0.8338700000000001,-0.031232,-0.51484,-1.5925,-9.7125,-4.6375
329,9286042,0.836676,-0.032086,-0.514352,-1.47,-8.995,-4.6375
330,9286140,0.8378960999999999,-0.030987999999999998,-0.5130100000000001,-1.6625,-9.065,-4.655
331,9286238,0.8359440999999999,-0.0305,-0.5127659999999999,-1.715,-9.345,-4.62
332,9286336,0.83265,-0.030622000000000003,-0.5121560000000001,-1.68,-9.485,-4.5325
333,9286434,0.8321620000000001,-0.029768,-0.510204,-1.715,-9.3625,-4.55
334,9286532,0.829356,-0.029768,-0.510936,-1.7325,-9.135,-4.55
335,9286630,0.8300879999999999,-0.029036000000000003,-0.511424,-1.645,-8.6975,-4.48
336,9286728,0.8304541,-0.029036000000000003,-0.5124001,-1.7325,-8.2425,-4.48
337,9286826,0.829722,-0.027694,-0.5132541,-1.785,-7.945,-4.4275
338,9286924,0.829966,-0.027206,-0.514474,-1.6975,-8.0325,-4.27
339,9287022,0.8287459999999999,-0.028669999999999998,-0.5152061,-1.715,-7.9275,-4.2525
340,9287120,0.829234,-0.028792,-0.51484,-1.645,-7.9275,-4.3225
341,9287217,0.8287459999999999,-0.027816000000000004,-0.515328,-1.54,-7.875,-4.41
342,9287315,0.8315520000000001,-0.029768,-0.51423,-1.505,-7.7,-4.34
343,9287413,0.8296,-0.029889999999999996,-0.5131319999999999,-1.5225,-7.5425,-4.3575
344,9287511,0.8314301,-0.029889999999999996,-0.516914,-1.5925,-7.2625,-4.3925
345,9287609,0.83265,-0.030378,-0.5165481,-1.6975,-7.0875,-4.4975
346,9287707,0.833626,-0.031232,-0.5214281,-1.6975,-7.0,-4.585
347,9287805,0.833382,-0.030744,-0.520818,-1.7325,-6.9475,-4.76
348,9287903,0.833992,-0.030987999999999998,-0.521184,-1.7675,-7.035,-4.7425
349,9288001,0.8317960999999999,-0.030622000000000003,-0.521062,-1.9075,-7.1925,-4.655
350,9288099,0.829234,-0.030744,-0.5192319999999999,-1.925,-7.1925,-4.69
351,9288197,0.8261841000000001,-0.031964,-0.5214281,-1.96,-7.0875,-4.62
352,9288295,0.8256960999999999,-0.030744,-0.519476,-2.0125,-6.93,-4.4625
353,9288393,0.8245979999999999,-0.030133999999999998,-0.521184,-2.0475,-6.7725,-4.3225
354,9288490,0.8250860000000001,-0.029036000000000003,-0.521062,-1.9775,-6.5625,-4.1825
355,9288588,0.823134,-0.029401999999999998,-0.522038,-1.9775,-6.37,-4.1125
356,9288686,0.8252079999999999,-0.029768,-0.523014,-1.89,-6.195,-4.095
357,9288784,0.8253299999999999,-0.029158,-0.523014,-1.995,-6.2125,-4.0775
358,9288882,0.825574,-0.028182,-0.523624,-1.995,-6.3175,-4.1475
359,9288980,0.8235001000000001,-0.028669999999999998,-0.5231359999999999,-2.0125,-6.335,-4.165
360,9289078,0.8254520000000001,-0.02806,-0.5246,-2.1175,-6.3175,-4.27
361,9289176,0.8271601000000001,-0.027083999999999997,-0.52277,-2.1175,-6.2825,-4.235
362,9289274,0.8287459999999999,-0.02623,-0.522038,-2.0475,-6.265,-4.2875
363,9289372,0.828624,-0.027938,-0.521794,-2.1,-6.2825,-4.2875
364,9289470,0.8296,-0.027327999999999998,-0.5231359999999999,-2.1525,-6.265,-4.375
365,9289568,0.830576,-0.02623,-0.5221600000000001,-2.17,-6.195,-4.34
366,9289666,0.8282579999999999,-0.025863999999999998,-0.522282,-2.1525,-6.055,-4.34
367,9289764,0.827526,-0.027327999999999998,-0.522526,-2.1875,-5.985,-4.2875
368,9289861,0.827526,-0.029158,-0.5233800000000001,-2.31,-5.985,-4.27
369,9289959,0.8282579999999999,-0.030012,-0.522892,-2.38,-5.74,-4.34
370,9290057,0.8283799999999999,-0.030133999999999998,-0.521794,-2.3275,-5.67,-4.3225
371,9290155,0.827282,-0.027572000000000003,-0.523746,-2.3275,-5.425,-4.375
372,9290253,0.8277700000000001,-0.028182,-0.522648,-2.5025,-5.46,-4.305
373,9290351,0.829356,-0.027694,-0.521184,-2.66,-5.5125,-4.1825
374,9290449,0.830332,-0.028914,-0.52094,-2.905,-5.6525,-4.1125
375,9290547,0.8321620000000001,-0.027816000000000004,-0.521306,-2.975,-5.6,-4.0775
376,9290645,0.8332601000000001,-0.027816000000000004,-0.5246,-2.9925,-5.6175,-3.99
377,9290743,0.8315520000000001,-0.026474,-0.5247221,-3.0625,-5.6525,-3.7975
378,9290841,0.831918,-0.02562,-0.524356,-3.045,-5.74,-3.7275
379,9290939,0.8321620000000001,-0.025986000000000002,-0.525698,-3.01,-5.6525,-3.6925
380,9291037,0.8300879999999999,-0.026474,-0.525942,-3.01,-5.46,-3.6225
381,9291134,0.8289901,-0.025254,-0.526674,-3.1675,-5.4775,-3.605
382,9291232,0.828624,-0.0244,-0.528748,-3.2375,-5.5825,-3.57
383,9291330,0.8258181,-0.024644,-0.527528,-3.2725,-5.6,-3.395
384,9291428,0.8250860000000001,-0.025498,-0.525698,-3.3425,-5.67,-3.395
385,9291526,0.8243541,-0.0244,-0.5264300000000001,-3.29,-5.775,-3.4125
386,9291624,0.8244761,-0.023546,-0.527528,-3.2725,-5.7925,-3.465
387,9291722,0.82411,-0.022326,-0.5264300000000001,-3.2375,-5.845,-3.5175
388,9291820,0.8244761,-0.022692,-0.5264300000000001,-3.3075,-5.74,-3.465
389,9291918,0.82655,-0.019398,-0.52704,-3.2375,-5.7925,-3.4475
390,9292016,0.8277700000000001,-0.01891,-0.5282600000000001,-3.1675,-5.8625,-3.535
391,9292114,0.828624,-0.018666,-0.5288701,-3.045,-5.915,-3.4475
392,9292212,0.828624,-0.018666,-0.529724,-2.94,-5.8975,-3.43
393,9292309,0.8277700000000001,-0.018178,-0.529846,-2.87,-5.845,-3.5
394,9292407,0.826672,-0.01769,-0.5291140000000001,-2.73,-5.7925,-3.6225
395,9292505,0.8258181,-0.017812,-0.527284,-2.6075,-5.74,-3.71
396,9292603,0.823134,-0.0183,-0.527894,-2.485,-5.6525,-3.78
397,9292701,0.8222799999999999,-0.020130000000000002,-0.528626,-2.59,-5.74,-3.78
398,9292799,0.821426,-0.020862000000000002,-0.527406,-2.6775,-5.5825,-3.885
399,9292897,0.8211821,-0.020618,-0.5267960999999999,-2.66,-5.5825,-3.85
400,9292995,0.8220360000000001,-0.020130000000000002,-0.5267960999999999,-2.52,-5.74,-3.9025
401,9293093,0.821426,-0.020496,-0.525332,-2.31,-5.775,-3.8675
402,9293191,0.824232,-0.021106,-0.5260640000000001,-2.1875,-5.775,-3.99
403,9293288,0.8250860000000001,-0.018178,-0.525576,-2.1525,-5.7225,-3.9725
404,9293386,0.8270379999999999,-0.019154,-0.5260640000000001,-1.9425,-5.6,-3.99
405,9293484,0.8277700000000001,-0.018788,-0.52704,-1.6975,-5.5825,-3.99
406,9293582,0.828868,-0.018056,-0.525942,-1.54,-5.6525,-4.06
407,9293680,0.8296,-0.017568,-0.5260640000000001,-1.4875,-5.565,-4.1125
408,9293778,0.829356,-0.018544,-0.5260640000000001,-1.3125,-5.6175,-4.1125
409,9293876,0.8270379999999999,-0.020374,-0.5261859999999999,-1.33,-5.5475,-4.095
410,9293974,0.8267940999999999,-0.020618,-0.5247221,-1.26,-5.5125,-4.1475
411,9294072,0.826672,-0.02074,-0.525088,-1.12,-5.425,-4.1475
412,9294170,0.82655,-0.019764,-0.525576,-1.0325,-5.25,-4.27
413,9294267,0.8261841000000001,-0.019642,-0.5264300000000001,-0.9625,-5.25,-4.375
414,9294365,0.827526,-0.019642,-0.52582,-0.98,-5.3025,-4.41
415,9294463,0.8271601000000001,-0.022326,-0.526674,-1.1025,-5.46,-4.3925
416,9294561,0.827892,-0.020984,-0.525698,-0.945,-5.635,-4.515
417,9294659,0.8283799999999999,-0.022692,-0.525576,-0.8925,-5.705,-4.4975
418,9294757,0.827526,-0.021594,-0.525576,-0.8225,-5.6,-4.4975
419,9294855,0.8294780999999999,-0.021716,-0.524234,-0.875,-5.5825,-4.4975
420,9294953,0.828624,-0.022813999999999997,-0.524112,-0.8400001,-5.53,-4.4625
421,9295051,0.827892,-0.022936,-0.525454,-0.805,-5.5125,-4.3925
422,9295149,0.8277700000000001,-0.021228,-0.5267960999999999,-0.6125,-5.25,-4.3925
423,9295247,0.828624,-0.020984,-0.527162,-0.4725,-5.1975,-4.48
424,9295345,0.828868,-0.020496,-0.526308,-0.3675,-5.32,-4.41
425,9295442,0.8285021,-0.021472,-0.527162,-0.42,-5.53,-4.4625
426,9295540,0.828868,-0.021106,-0.526308,-0.42,-5.7575,-4.3925
427,9295638,0.829966,-0.021472,-0.527528,-0.385,-5.9325,-4.4275
428,9295736,0.829356,-0.023546,-0.5281380999999999,-0.315,-5.8275,-4.4275
429,9295834,0.8289901,-0.024034,-0.5264300000000001,-0.21,-5.7225,-4.515
430,9295932,0.8298440999999999,-0.024522,-0.52704,-0.07,-5.5125,-4.69
431,9296030,0.8310639999999999,-0.02684,-0.528992,0.035,-5.495,-4.69
432,9296128,0.8308200000000001,-0.027938,-0.531554,0.0175,-5.6,-4.76
433,9296226,0.8294780999999999,-0.028304000000000003,-0.5309441,-0.035,-5.6175,-4.865
434,9296324,0.827282,-0.02745,-0.527162,-0.14,-5.67,-4.9875
435,9296422,0.8263060999999999,-0.02806,-0.5260640000000001,-0.21,-5.7225,-4.865
436,9296520,0.823256,-0.028914,-0.525576,-0.3325,-5.8275,-4.76
437,9296617,0.823866,-0.028182,-0.524478,-0.42,-5.81,-4.6025
438,9296715,0.8215481,-0.028426,-0.523502,-0.385,-5.565,-4.445
439,9296813,0.823866,-0.02806,-0.524478,-0.6125,-5.565,-4.4275
440,9296911,0.823744,-0.028548,-0.5246,-0.665,-5.6,-4.3225
441,9297009,0.8245979999999999,-0.02928,-0.5252100000000001,-0.665,-5.53,-4.2525
442,9297107,0.8258181,-0.029158,-0.523746,-0.6125,-5.4425,-4.2
443,9297205,0.824232,-0.027572000000000003,-0.5264300000000001,-0.6125,-5.3375,-4.1825
444,9297303,0.8250860000000001,-0.026962,-0.525942,-0.4025,-5.25,-4.27
445,9297401,0.8267940999999999,-0.027694,-0.526308,-0.315,-5.145,-4.2525
446,9297499,0.829356,-0.02806,-0.528504,-0.385,-4.935,-4.27
447,9297597,0.8296,-0.028426,-0.5281380999999999,-0.5425,-4.9875,-4.41
448,9297695,0.8282579999999999,-0.028669999999999998,-0.5247221,-0.735,-5.2325,-4.41
449,9297793,0.8276481,-0.030012,-0.525454,-0.8400001,-5.3725,-4.3575
450,9297891,0.8276481,-0.030622000000000003,-0.5246,-1.0325,-5.46,-4.4625
451,9297988,0.8261841000000001,-0.032330000000000005,-0.52094,-0.9975,-5.4775,-4.4275
452,9298086,0.8261841000000001,-0.030744,-0.523502,-0.91,-5.46,-4.375
453,9298184,0.8270379999999999,-0.030866,-0.524478,-0.7525,-5.2675,-4.3925
454,9298282,0.8281360999999999,-0.028182,-0.5249659999999999,-0.5075,-5.075,-4.3575
455,9298380,0.8287459999999999,-0.028548,-0.5247221,-0.5425,-4.97,-4.3575
456,9298478,0.8291120999999999,-0.027083999999999997,-0.5252100000000001,-0.42,-4.97,-4.375
457,9298576,0.829234,-0.027694,-0.5252100000000001,-0.4375,-5.18,-4.3925
458,9298674,0.827526,-0.026595999999999998,-0.524112,-0.4725,-5.3025,-4.41
459,9298772,0.828868,-0.028792,-0.523868,-0.56,-5.3725,-4.3575
460,9298870,0.827892,-0.0305,-0.522526,-0.735,-5.3725,-4.305
461,9298968,0.826916,-0.0305,-0.5233800000000001,-0.6475,-5.2325,-4.305
462,9299066,0.8281360999999999,-0.031232,-0.522526,-0.665,-5.18,-4.48
463,9299164,0.829356,-0.029646,-0.523258,-0.665,-5.04,-4.41
464,9299262,0.827892,-0.032208,-0.5248441,-0.4725,-5.005,-4.445
465,9299359,0.829722,-0.032208,-0.525454,-0.42,-5.145,-4.6375
466,9299457,0.828868,-0.031354,-0.5231359999999999,-0.5425,-5.1275,-4.5675
467,9299555,0.828868,-0.032330000000000005,-0.524234,-0.6825,-5.1275,-4.585
468,9299653,0.8283799999999999,-0.031964,-0.523502,-0.8575,-5.18,-4.5325
469,9299751,0.8276481,-0.033062,-0.522526,-1.015,-5.3375,-4.4625
470,9299849,0.8276481,-0.032208,-0.52277,-1.1025,-5.3375,-4.4275
471,9299947,0.8291120999999999,-0.032330000000000005,-0.522526,-1.2075,-5.1975,-4.3925
472,9300045,0.828868,-0.031476,-0.5231359999999999,-1.19,-5.1975,-4.34
473,9300143,0.8285021,-0.032086,-0.523258,-1.155,-5.2325,-4.305
474,9300241,0.8294780999999999,-0.032330000000000005,-0.520818,-1.155,-5.32,-4.305
475,9300339,0.8291120999999999,-0.031598,-0.522892,-1.225,-5.32,-4.2175
476,9300437,0.8276481,-0.031354,-0.522892,-1.19,-5.04,-4.0425
477,9300535,0.8280139999999999,-0.033428,-0.523746,-1.1025,-4.935,-4.025
478,9300632,0.829234,-0.030866,-0.5221600000000001,-1.19,-5.04,-4.0775
479,9300730,0.8282579999999999,-0.032208,-0.523502,-1.2775,-5.075,-4.0425
480,9300828,0.8298440999999999,-0.032451999999999995,-0.5219159999999999,-1.295,-5.075,-4.0775
481,9300926,0.832406,-0.032451999999999995,-0.524234,-1.3125,-5.04,-4.0775
482,9301024,0.831918,-0.032086,-0.5233800000000001,-1.295,-5.3025,-4.1475
483,9301122,0.8306979999999999,-0.030256,-0.524112,-1.365,-5.3725,-4.165
484,9301220,0.8289901,-0.028426,-0.522038,-1.4525,-5.39,-4.235
485,9301318,0.8291120999999999,-0.029768,-0.520818,-1.4525,-5.4775,-4.2
486,9301416,0.8287459999999999,-0.02928,-0.520818,-1.4175,-5.635,-4.2
487,9301514,0.8287459999999999,-0.029889999999999996,-0.52155,-1.435,-5.495,-4.2875
488,9301612,0.827282,-0.029036000000000003,-0.522648,-1.2775,-5.4775,-4.3225
489,9301710,0.828868,-0.029646,-0.522648,-1.225,-5.495,-4.305
490,9301807,0.829356,-0.029036000000000003,-0.522282,-1.2075,-5.39,-4.2875
491,9301905,0.8309421,-0.030987999999999998,-0.5219159999999999,-1.155,-5.46,-4.3225
492,9302003,0.8296,-0.032208,-0.523624,-1.26,-5.4775,-4.3225
493,9302101,0.8298440999999999,-0.032818,-0.5246,-1.3475,-5.5475,-4.305
494,9302199,0.829966,-0.032574,-0.524234,-1.3125,-5.74,-4.27
495,9302297,0.8300879999999999,-0.032086,-0.5233800000000001,-1.365,-5.88,-4.4275
496,9302395,0.830576,-0.031598,-0.524356,-1.225,-5.7225,-4.5325
497,9302493,0.8306979999999999,-0.031476,-0.525088,-1.085,-5.5475,-4.4275
498,9302591,0.829966,-0.030744,-0.5219159999999999,-1.05,-5.74,-4.4625
499,9302689,0.8308200000000001,-0.031476,-0.520574,-1.225,-5.95,-4.5325
500,9302787,0.8309421,-0.031598,-0.51972,-1.2775,-5.9675,-4.3575
501,9302885,0.8291120999999999,-0.031110000000000002,-0.5203300000000001,-1.3125,-5.915,-4.34
502,9302983,0.8289901,-0.032574,-0.520452,-1.4,-5.7925,-4.34
503,9303081,0.8280139999999999,-0.031110000000000002,-0.5206960999999999,-1.4175,-5.7225,-4.34
504,9303179,0.8283799999999999,-0.030987999999999998,-0.520574,-1.3825,-5.8275,-4.41
505,9303276,0.8280139999999999,-0.029889999999999996,-0.522038,-1.1725,-5.775,-4.3925
506,9303374,0.827282,-0.029646,-0.5214281,-1.155,-5.7225,-4.3225
507,9303472,0.826916,-0.030133999999999998,-0.52155,-1.1025,-5.7575,-4.2875
508,9303570,0.826916,-0.030378,-0.521672,-1.015,-5.67,-4.2525
509,9303668,0.826428,-0.028792,-0.521306,-1.0675,-5.6175,-4.3575
510,9303766,0.8280139999999999,-0.029646,-0.5214281,-1.2775,-5.5125,-4.27
511,9303864,0.830332,-0.030744,-0.523868,-1.2425,-5.6175,-4.3575
512,9303962,0.833016,-0.029889999999999996,-0.523258,-1.3125,-5.6525,-4.48
513,9304060,0.834358,-0.02928,-0.522404,-1.26,-5.6,-4.515
514,9304158,0.8342360000000001,-0.028548,-0.5252100000000001,-1.225,-5.635,-4.55
515,9304256,0.8337481,-0.027938,-0.5247221,-1.1725,-5.6,-4.5675
516,9304354,0.8311860999999999,-0.025863999999999998,-0.524478,-1.085,-5.81,-4.6725
517,9304452,0.8281360999999999,-0.028182,-0.5231359999999999,-0.9275,-5.9325,-4.69
518,9304550,0.8248421,-0.028182,-0.5219159999999999,-0.7875,-5.88,-4.69
519,9304647,0.8210601000000001,-0.029158,-0.5231359999999999,-0.8400001,-5.7575,-4.7425
520,9304745,0.823134,-0.028304000000000003,-0.521062,-0.8225,-5.775,-4.7425
521,9304843,0.8220360000000001,-0.028304000000000003,-0.5221600000000001,-0.875,-5.705,-4.8825
522,9304941,0.8250860000000001,-0.028669999999999998,-0.5233800000000001,-0.8575,-5.635,-4.8125
523,9305039,0.826672,-0.028182,-0.523502,-0.8925,-5.635,-4.7775
524,9305137,0.8276481,-0.029768,-0.523868,-0.8400001,-5.635,-4.725
525,9305235,0.829234,-0.030133999999999998,-0.5247221,-0.8575,-5.7225,-4.795
526,9305333,0.8304541,-0.030744,-0.525698,-0.805,-5.81,-4.7775
527,9305431,0.830576,-0.030866,-0.524112,-0.8575,-5.7575,-4.725
528,9305529,0.8306979999999999,-0.031964,-0.522526,-0.805,-5.7225,-4.6725
529,9305627,0.8291120999999999,-0.03172,-0.52277,-0.8925,-5.7225,-4.62
530,9305725,0.829722,-0.03294,-0.52155,-0.805,-5.67,-4.7425
531,9305823,0.8283799999999999,-0.031598,-0.5231359999999999,-0.8225,-5.635,-4.725
532,9305920,0.8270379999999999,-0.031232,-0.5233800000000001,-0.9625,-5.5825,-4.76
533,9306018,0.8256960999999999,-0.030744,-0.523746,-0.9975,-5.775,-4.7075
534,9306116,0.8263060999999999,-0.029158,-0.522038,-1.1025,-5.565,-4.76
535,9306214,0.8252079999999999,-0.029524,-0.522282,-1.085,-5.67,-4.6375
536,9306312,0.827526,-0.030987999999999998,-0.523258,-1.1375,-5.74,-4.62
537,9306410,0.8291120999999999,-0.031598,-0.523868,-1.19,-5.7575,-4.4975
538,9306508,0.829234,-0.030866,-0.523624,-1.085,-5.705,-4.5675
539,9306606,0.8291120999999999,-0.029646,-0.5246,-1.015,-5.6,-4.6025
540,9306704,0.8300879999999999,-0.030622000000000003,-0.5247221,-1.085,-5.565,-4.6375
541,9306802,0.83021,-0.0305,-0.522648,-1.05,-5.5825,-4.655
542,9306900,0.829966,-0.030378,-0.524112,-1.0325,-5.6175,-4.55
543,9306998,0.8309421,-0.031232,-0.525942,-1.085,-5.7225,-4.48
544,9307096,0.8314301,-0.030378,-0.522892,-1.19,-5.8275,-4.375
545,9307193,0.829966,-0.030256,-0.522648,-1.1725,-5.915,-4.515
546,9307291,0.8306979999999999,-0.029646,-0.523624,-1.2425,-5.8975,-4.515
547,9307389,0.8287459999999999,-0.02928,-0.522892,-1.295,-5.985,-4.4975
548,9307487,0.8282579999999999,-0.030133999999999998,-0.523502,-1.2425,-5.8625,-4.69
549,9307585,0.8276481,-0.029524,-0.5248441,-1.1025,-5.7225,-4.69
550,9307683,0.8283799999999999,-0.028426,-0.524356,-1.0325,-5.6875,-4.69
551,9307781,0.8254520000000001,-0.028792,-0.5247221,-1.1025,-5.7925,-4.6725
552,9307879,0.8258181,-0.027938,-0.524478,-1.1025,-5.74,-4.7425
553,9307977,0.8263060999999999,-0.028669999999999998,-0.523868,-1.1025,-5.775,-4.5325
554,9308075,0.8247200000000001,-0.028914,-0.524234,-1.1025,-5.6875,-4.515
555,9308173,0.825574,-0.030378,-0.525454,-1.085,-5.565,-4.6375
556,9308271,0.8285021,-0.030866,-0.5248441,-1.05,-5.635,-4.6025
557,9308369,0.829234,-0.031842,-0.5264300000000001,-1.12,-5.775,-4.6025
558,9308466,0.83021,-0.032086,-0.528748,-1.12,-5.81,-4.76
559,9308564,0.8306979999999999,-0.030256,-0.527528,-1.0675,-5.6175,-4.9525
560,9308662,0.829356,-0.031476,-0.5264300000000001,-1.1025,-5.7225,-4.9
561,9308760,0.8298440999999999,-0.032330000000000005,-0.525698,-1.05,-6.0025,-4.7425
562,9308858,0.829356,-0.033184,-0.524356,-1.33,-6.16,-4.69
563,9308956,0.826916,-0.033184,-0.522892,-1.3825,-6.0025,-4.5325
564,9309054,0.826428,-0.032208,-0.522648,-1.505,-5.7575,-4.515
565,9309152,0.8258181,-0.032086,-0.523624,-1.505,-5.7225,-4.5325
566,9309250,0.8253299999999999,-0.031110000000000002,-0.525698,-1.575,-5.5475,-4.3925
567,9309348,0.8253299999999999,-0.031354,-0.525454,-1.4875,-5.53,-4.305
568,9309446,0.8254520000000001,-0.030866,-0.52582,-1.4525,-5.565,-4.2175
569,9309544,0.8253299999999999,-0.029768,-0.525454,-1.4525,-5.6175,-4.2525
570,9309642,0.826916,-0.029646,-0.526918,-1.435,-5.6,-4.34
571,9309740,0.8282579999999999,-0.028304000000000003,-0.526552,-1.435,-5.7575,-4.34
572,9309837,0.827892,-0.026718000000000002,-0.5267960999999999,-1.505,-5.845,-4.27
573,9309935,0.829234,-0.027694,-0.5260640000000001,-1.5575,-5.7925,-4.2875
574,9310033,0.8308200000000001,-0.028669999999999998,-0.525332,-1.575,-5.88,-4.27
575,9310131,0.829234,-0.028304000000000003,-0.527406,-1.61,-6.0025,-4.3225
576,9310229,0.8296,-0.028914,-0.5247221,-1.575,-6.0725,-4.41
577,9310327,0.8285021,-0.027694,-0.5247221,-1.4525,-6.1075,-4.4275
578,9310425,0.827892,-0.027816000000000004,-0.5249659999999999,-1.4525,-5.985,-4.375
579,9310523,0.8276481,-0.026962,-0.525088,-1.4,-5.915,-4.445
580,9310621,0.82655,-0.026718000000000002,-0.525942,-1.365,-6.0725,-4.4625
581,9310719,0.8247200000000001,-0.027327999999999998,-0.525088,-1.26,-6.0025,-4.4975
582,9310817,0.824232,-0.025742,-0.525576,-1.12,-5.8275,-4.5325
583,9310914,0.8230120999999999,-0.027083999999999997,-0.523624,-1.1375,-5.8975,-4.6375
584,9311012,0.8248421,-0.027572000000000003,-0.5246,-1.085,-5.7575,-4.69
585,9311110,0.826672,-0.029036000000000003,-0.525088,-1.0675,-5.6,-4.69
586,9311208,0.8263060999999999,-0.02928,-0.525088,-1.2425,-5.6525,-4.725
587,9311306,0.8276481,-0.028792,-0.527894,-1.33,-5.74,-4.6725
588,9311404,0.8296,-0.026962,-0.525698,-1.2775,-5.8275,-4.6375
589,9311502,0.829234,-0.030012,-0.524356,-1.225,-5.9325,-4.6725
590,9311600,0.829966,-0.028792,-0.525942,-1.1375,-5.8625,-4.6375
591,9311698,0.8280139999999999,-0.029889999999999996,-0.526552,-1.26,-5.915,-4.6025
592,9311796,0.827526,-0.029524,-0.52582,-1.3475,-5.95,-4.515
593,9311893,0.827526,-0.030012,-0.5246,-1.33,-5.8975,-4.55
594,9311991,0.8270379999999999,-0.030866,-0.52582,-1.4,-6.02,-4.48
595,9312089,0.82594,-0.0305,-0.5264300000000001,-1.4525,-5.915,-4.5325
596,9312187,0.8249639999999999,-0.02928,-0.5261859999999999,-1.5575,-5.9325,-4.515
597,9312285,0.824232,-0.029036000000000003,-0.5264300000000001,-1.61,-5.9325,-4.445
598,9312383,0.823134,-0.030987999999999998,-0.525454,-1.645,-5.9675,-4.27
599,9312481,0.8239880999999999,-0.028426,-0.525332,-1.7675,-5.915,-4.3925
600,9312579,0.8253299999999999,-0.027572000000000003,-0.525942,-1.6975,-5.74,-4.165
601,9312677,0.8276481,-0.027572000000000003,-0.525942,-1.6625,-5.565,-4.235
602,9312775,0.8304541,-0.028304000000000003,-0.528382,-1.505,-5.5475,-4.235
603,9312873,0.832528,-0.02745,-0.528992,-1.575,-5.5825,-4.2875
604,9312970,0.8309421,-0.027694,-0.5296021,-1.5225,-5.6175,-4.3225
605,9313068,0.8300879999999999,-0.027816000000000004,-0.528626,-1.505,-5.7925,-4.27
606,9313166,0.827892,-0.026718000000000002,-0.5267960999999999,-1.3825,-5.9325,-4.3575
607,9313264,0.825574,-0.027327999999999998,-0.526918,-1.4175,-6.0025,-4.4275
608,9313362,0.8253299999999999,-0.027938,-0.524478,-1.3825,-5.95,-4.4625
609,9313460,0.823744,-0.028182,-0.5249659999999999,-1.4175,-5.8275,-4.5325
610,9313558,0.822524,-0.02745,-0.527528,-1.435,-5.915,-4.515
611,9313656,0.823866,-0.026962,-0.527406,-1.435,-5.7925,-4.5675
612,9313754,0.8248421,-0.024888,-0.5281380999999999,-1.3825,-5.7575,-4.585
613,9313852,0.8243541,-0.02562,-0.527772,-1.3475,-5.7925,-4.725
614,9313949,0.8263060999999999,-0.024766,-0.527528,-1.19,-5.7925,-4.6025
615,9314047,0.8254520000000001,-0.025376,-0.5281380999999999,-1.12,-5.915,-4.585
616,9314145,0.8274040000000001,-0.026962,-0.526674,-0.98,-5.95,-4.585
617,9314243,0.826672,-0.027327999999999998,-0.526918,-0.91,-5.7225,-4.6025
618,9314341,0.82594,-0.029646,-0.525332,-0.9975,-5.6875,-4.6025
619,9314439,0.8271601000000001,-0.031354,-0.528626,-1.015,-5.6175,-4.5675
620,9314537,0.829234,-0.0305,-0.527772,-0.9975,-5.635,-4.725
621,9314635,0.8283799999999999,-0.029158,-0.5296021,-0.945,-5.53,-4.795
622,9314733,0.8298440999999999,-0.0305,-0.531066,-0.8400001,-5.5125,-4.8475
623,9314831,0.8277700000000001,-0.030987999999999998,-0.528016,-1.015,-5.635,-4.7425
624,9314928,0.827526,-0.0305,-0.5260640000000001,-1.225,-5.9325,-4.655
625,9315026,0.826428,-0.030987999999999998,-0.5260640000000001,-1.2775,-6.2475,-4.655
626,9315124,0.8271601000000001,-0.030744,-0.5246,-1.4875,-6.1775,-4.515
627,9315222,0.827282,-0.030012,-0.524356,-1.5225,-5.985,-4.515
628,9315320,0.82655,-0.030012,-0.523624,-1.645,-5.915,-4.3225
629,9315418,0.8260620000000001,-0.030256,-0.5246,-1.5925,-5.95,-4.34
630,9315516,0.8252079999999999,-0.030256,-0.523746,-1.6275,-5.845,-4.3925
631,9315614,0.8244761,-0.029646,-0.52582,-1.5575,-5.74,-4.305
632,9315712,0.823744,-0.029768,-0.52704,-1.575,-5.67,-4.2875
633,9315810,0.8228901,-0.029524,-0.5267960999999999,-1.4875,-5.53,-4.165
634,9315907,0.825574,-0.028182,-0.526674,-1.5575,-5.3025,-4.13
635,9316005,0.82655,-0.027816000000000004,-0.528382,-1.5575,-5.215,-4.095
636,9316103,0.827892,-0.026962,-0.5282600000000001,-1.645,-5.285,-4.13
637,9316201,0.8289901,-0.026351999999999997,-0.527162,-1.61,-5.565,-4.1475
638,9316299,0.829966,-0.025863999999999998,-0.526552,-1.68,-5.81,-4.2525
639,9316397,0.8274040000000001,-0.026108,-0.525454,-1.6975,-5.845,-4.3575
640,9316495,0.8248421,-0.028548,-0.520452,-1.855,-5.9675,-4.3225
641,9316593,0.8215481,-0.030744,-0.50813,-1.89,-5.67,-4.2525
642,9316691,0.8195960999999999,-0.020984,-0.50874,-1.75,-5.075,-4.27
643,9316789,0.8193521,-0.01891,-0.500566,-1.68,-4.585,-4.025
644,9316886,0.823622,-0.030866,-0.496906,-1.085,-2.94,-3.7625
645,9316984,0.8308200000000001,-0.039284,-0.493978,-0.6825,-1.1375,-3.3075
646,9317082,0.83814,-0.046238,-0.492148,-0.2975,-0.0875,-3.01
647,9317180,0.8443620999999999,-0.039284,-0.47689799999999993,0.0,-0.0175,-2.8525
648,9317278,0.853146,-0.029158,-0.463844,0.9975,-0.735,-2.8875
649,9317376,0.8633940000000001,-0.041602,-0.46298999999999996,2.345,-1.2425,-2.485
650,9317474,0.8629061,-0.05929201,-0.47555600000000003,2.38,-1.2425,-1.4
651,9317572,0.85705,-0.050386,-0.474946,1.4,-1.12,-0.455
652,9317670,0.8544879999999999,-0.037698,-0.453108,1.015,-0.3325,0.28
653,9317768,0.859002,-0.038551999999999996,-0.43468599999999996,1.3825,1.61,0.98
654,9317865,0.865468,-0.044407999999999996,-0.427122,1.4525,2.17,1.0325
655,9317963,0.8674200000000001,-0.06563601,-0.42199799999999993,1.2775,1.19,0.98
656,9318061,0.8759601,-0.08064199,-0.42163199999999995,0.63,0.28,0.8575
657,9318159,0.870226,-0.091744,-0.419192,-0.175,-0.56,0.4375
658,9318257,0.882182,-0.089426,-0.41589799999999993,-1.33,-1.715,-0.2625
659,9318355,0.8908440999999999,-0.08442401,-0.418216,-1.3825,-2.45,-0.77
660,9318453,0.9052401,-0.074786,-0.42639,-1.575,-3.8325,-1.1025
661,9318551,0.92232,-0.06795401,-0.43639399999999995,-1.4875,-4.865,-1.295
662,9318649,0.93879,-0.054046000000000004,-0.442616,-1.575,-5.88,-1.4
663,9318747,0.9534301,-0.044652,-0.449204,-1.6625,-7.0875,-1.6625
664,9318844,0.958432,-0.041724000000000004,-0.456768,-1.2075,-8.75,-2.065
665,9318942,0.9541620000000001,-0.043798000000000004,-0.465796,-1.015,-10.99,-2.66
666,9319040,0.94611,-0.041114,-0.462746,-0.525,-13.16,-3.4825
667,9319138,0.933422,-0.040626,-0.46164799999999995,0.56,-15.1375,-4.375
668,9319236,0.915732,-0.036112,-0.459818,2.0125,-16.9225,-5.355
669,9319334,0.89792,-0.026351999999999997,-0.459208,3.0975,-18.025,-6.4225
670,9319432,0.877912,-0.019642,-0.45811,4.3925,-18.655,-7.2975
671,9319530,0.8569280999999999,-0.017812,-0.4594521,5.915,-19.04,-7.9975
672,9319628,0.831918,-0.019398,-0.46006199999999997,7.42,-19.67,-8.715
673,9319726,0.8100801,-0.022813999999999997,-0.46762600000000004,9.1,-20.23,-9.3975
674,9319824,0.7903161,-0.028669999999999998,-0.476654,11.0425,-21.28,-10.2725
675,9319922,0.769942,-0.028548,-0.486658,12.88,-22.54,-11.2525
676,9320020,0.7565221,-0.027327999999999998,-0.48421800000000004,14.3675,-23.625,-11.97
677,9320118,0.74603,-0.02928,-0.47348199999999996,14.9625,-23.38,-12.3025
678,9320215,0.734928,-0.035624,-0.47653199999999996,15.6975,-21.7,-12.4425
679,9320313,0.726388,-0.027572000000000003,-0.47275,16.7125,-20.475,-12.6875
680,9320411,0.7165060000000001,-0.017202000000000002,-0.46921199999999996,16.7825,-19.7575,-12.39
681,9320509,0.7077220000000001,-0.005856,-0.46506400000000003,16.9925,-19.5125,-11.4975
682,9320607,0.7086979999999999,-0.00427,-0.46323400000000003,17.78,-20.58,-9.485
683,9320705,0.6977180000000001,0.011712,-0.44591000000000003,18.83,-22.8025,-6.0025
684,9320803,0.702232,0.019154,-0.441518,18.62,-24.7625,-2.17
685,9320901,0.708454,0.037698,-0.45286400000000004,18.655,-24.99,2.485
686,9320999,0.737002,0.038186000000000005,-0.46726,19.95,-23.66,6.4575
687,9321097,0.78385,0.029158,-0.46896800000000005,21.49,-18.3575,10.4475
688,9321195,0.86864,0.000732,-0.47165200000000007,22.61,-11.9525,12.565
689,9321292,0.9700219999999999,-0.04514,-0.486414,22.225,-8.2775,13.895
690,9321390,1.102514,-0.12212200000000001,-0.5038600000000001,19.3725,-7.735,12.775
691,9321488,1.220366,-0.184952,-0.520208,14.63,-8.855,8.68
692,9321586,1.27063,-0.20008,-0.52277,7.9975,-11.725,2.7475
693,9321684,1.2524520000000001,-0.16958,-0.5072760000000001,1.4525,-15.75,-3.99
694,9321782,1.214022,-0.13859200000000002,-0.490928,-3.5175,-20.7025,-11.5675
695,9321880,1.118008,-0.08869401,-0.47360399999999997,-6.965,-26.0925,-18.13
696,9321978,1.044076,-0.063318,-0.458476,-9.1525,-30.205,-24.2025
697,9322076,0.9858819999999999,-0.031598,-0.45445,-11.3575,-32.2175,-27.7375
698,9322174,0.9323239999999999,0.000976,-0.45261999999999997,-13.16,-32.7425,-29.5925
699,9322272,0.8815719999999999,0.042334,-0.462136,-14.84,-32.48,-30.6775
700,9322370,0.8220360000000001,0.06661201,-0.459696,-15.75,-30.1525,-31.92
701,9322467,0.7692101,0.08845001,-0.455182,-16.205,-26.355,-32.55
702,9322565,0.7548140999999999,0.08503401,-0.4478621,-16.9925,-23.9925,-32.2
703,9322663,0.670146,0.048312,-0.42626800000000004,-18.025,-21.4375,-30.94
704,9322761,0.637694,0.0793,-0.44408000000000003,-15.5925,-19.705,-29.3125
705,9322859,0.6292760000000001,0.07246799999999999,-0.410774,-14.56,-23.0125,-26.7575
706,9322957,0.6563601,0.059658,-0.410896,-17.4475,-21.3325,-25.025
707,9323055,0.6973520000000001,0.036478,-0.41785,-14.07,-13.6675,-24.2725
708,9323153,0.709674,0.030987999999999998,-0.424072,-10.78,-8.3125,-20.2825
709,9323251,0.7510321,0.029768,-0.43651599999999996,-9.625,-7.665,-17.955
710,9323349,0.776408,0.027083999999999997,-0.43505200000000005,-7.8575,-7.2975,-16.415
711,9323447,0.799222,0.015738,-0.42883009999999994,-7.4725,-8.47,-13.1425
712,9323545,0.8047121,0.038796,-0.41968,-7.385,-10.5875,-9.1175
713,9323642,0.8072741,0.061,-0.40662600000000004,-8.9075,-13.125,-6.825
714,9323740,0.8310639999999999,0.068564,-0.39418200000000003,-9.485,-15.3475,-4.725
715,9323838,0.8407021000000001,0.087352,-0.385642,-9.03,-17.395,-2.8
716,9323936,0.8685181000000001,0.074054,-0.388448,-8.3825,-19.4425,-1.8725
717,9324034,0.8890140999999999,0.081496,-0.385764,-7.28,-18.3575,-1.4175
718,9324132,0.965996,0.057339999999999995,-0.384056,-8.1725,-15.645,-2.415
719,9324230,1.008818,0.050263999999999996,-0.377346,-7.5425,-11.1125,-1.0675
720,9324328,1.042246,0.06356201,-0.374296,-10.01,-10.36,-0.105
721,9324426,1.069452,0.039284,-0.37685799999999997,-11.9,-9.5375,0.735
722,9324524,1.063352,0.05185,-0.382592,-11.865,-6.8775,3.1675
723,9324622,1.054568,0.047580000000000004,-0.385276,-13.37,-6.615,3.5175
724,9324719,1.042856,0.03721,-0.3904,-11.8825,-6.7725,3.185
725,9324817,1.033706,0.081618,-0.40967600000000004,-11.4975,-7.9625,3.1675
726,9324915,1.027362,0.081496,-0.42931800000000003,-11.0425,-7.8225,0.4725
727,9325013,1.030778,0.11211800000000001,-0.433954,-10.255,-5.5825,-2.3275
728,9325111,1.024678,0.116022,-0.40882199999999996,-9.38,-2.275,-5.565
729,9325209,1.048224,0.115168,-0.384788,-8.89,-0.0875,-8.925
730,9325307,1.0765280000000002,0.12688,-0.36502399999999996,-7.8575,1.435,-11.8125
731,9325405,1.084092,0.096014,-0.390644,-6.3,1.715,-13.2825
732,9325503,1.092266,0.077836,-0.41663,-4.865,2.8,-14.0525
733,9325601,1.110322,0.076738,-0.44956999999999997,-1.015,7.7525,-14.98
734,9325698,1.0765280000000002,0.08759601,-0.60939,-1.2775,11.655,-14.735
735,9325796,1.056398,0.094672,-0.8106899999999999,-8.7675,17.8675,-15.6625
736,9325894,1.038708,0.016347999999999998,-0.7722600000000001,-12.11,34.195,-18.4625
737,9325992,0.9784401,-0.128344,-0.704306,-9.905,42.805,-14.4025
738,9326090,0.921344,-0.21655,-0.74054,-16.5725,30.87,-6.93
739,9326188,0.8552200000000001,-0.250222,-0.7417600000000001,-24.465,13.475,-1.4
740,9326286,0.829966,-0.22667600000000002,-0.7019880000000001,-27.9125,-2.7825,4.095
741,9326384,0.8076399999999999,-0.17763199999999998,-0.640256,-35.4025,-23.52,10.7975
742,9326482,0.715896,-0.152988,-0.677832,-40.2675,-41.4575,17.3775
743,9326580,0.652944,-0.15506199999999998,-0.74115,-38.465,-50.015,20.125
744,9326678,0.6469659999999999,-0.16201600000000002,-0.7612800999999999,-33.6,-51.45,17.5175
745,9326775,0.674294,-0.128344,-0.770308,-31.0275,-49.98,13.3175
746,9326873,0.723582,-0.0549,-0.763232,-28.2975,-46.9175,9.24
747,9326971,0.7975140000000001,0.02501,-0.752008,-26.9325,-42.3675,6.2125
748,9327069,0.8704700000000001,0.10943399999999999,-0.764696,-27.825,-36.82,3.6225
749,9327167,0.9010921000000001,0.161772,-0.796416,-27.9825,-31.01,3.395
750,9327265,0.8958459999999999,0.185928,-0.7954399999999999,-25.095,-23.5725,6.195
751,9327363,0.8976761000000001,0.21679400000000001,-0.7643300000000001,-19.7925,-15.925,10.01
752,9327461,0.883524,0.20264200000000002,-0.731024,-13.37,-10.3775,14.0
753,9327559,0.8574161,0.187636,-0.684176,-6.965,-7.3675,18.375
754,9327656,0.823744,0.143228,-0.6442821,-1.225,-5.635,19.67
755,9327754,0.771894,0.08893801,-0.60329,3.745,-5.9325,19.9675
756,9327852,0.7176041,0.0064659999999999995,-0.5797441,6.79,-6.4225,17.6575
757,9327950,0.666608,-0.05636401,-0.544974,8.3475,-6.65,14.0525
758,9328048,0.6280560000000001,-0.098332,-0.5160600000000001,6.65,-6.9125,12.355
759,9328146,0.5893821,-0.133712,-0.491904,4.48,-6.5275,10.29
760,9328244,0.560346,-0.135054,-0.47250600000000004,3.2025,-6.3,10.115
761,9328342,0.53985,-0.124074,-0.44249399999999994,2.1525,-5.81,11.1825
762,9328440,0.517402,-0.09418401,-0.425292,2.0825,-5.2325,12.705
763,9328538,0.51545,-0.069784,-0.41272600000000004,-0.245,-4.34,13.8775
764,9328636,0.52155,-0.07698201,-0.404918,-2.1875,-3.8325,14.8575
765,9328734,0.5353359999999999,-0.079422,-0.402478,-2.66,-2.8875,17.3775
766,9328831,0.5602239999999999,-0.081496,-0.393206,-3.465,-2.275,19.775
767,9328929,0.590236,-0.087962,-0.380396,-4.2175,-0.9975,22.4175
768,9329027,0.605608,-0.101382,-0.36648800000000004,-4.76,0.8400001,24.255
769,9329125,0.623054,-0.08649801,-0.34281999999999996,-6.2475,2.52,24.675
770,9329223,0.643428,-0.07356601,-0.31890799999999997,-7.105,3.57,24.4475
771,9329321,0.670268,-0.093696,-0.28621199999999997,-6.86,4.9175,23.835
772,9329419,0.684786,-0.042334,-0.25376,-5.88,8.9075,23.94
773,9329517,0.6836880999999999,-0.015493999999999999,-0.254858,-6.72,12.3725,19.3725
774,9329615,0.64904,0.010736,-0.25656599999999996,-5.635,17.395,14.49
775,9329713,0.663192,0.010492,-0.277062,-4.9875,23.765,9.7125
776,9329811,0.665144,0.012444,-0.303292,-3.22,29.995,5.95
777,9329909,0.692228,0.005734,-0.333548,-1.435,35.8575,0.945
778,9330006,0.7257781,-0.02501,-0.394914,-2.94,39.2175,-3.5
779,9330104,0.777262,-0.069662,-0.5091061,-5.7225,39.7775,-5.1975
780,9330202,0.8306979999999999,-0.09028,-0.624274,-8.68,43.54,-4.725
781,9330300,0.88633,-0.061854,-0.59292,-13.7725,54.7575,-3.85
782,9330398,0.9412299999999999,0.04392,-0.537166,-18.3225,64.8025,-1.5575
783,9330496,1.0285819999999999,0.161772,-0.530334,-17.2375,58.6425,3.9025
784,9330594,1.19255,0.20105599999999998,-0.49849209999999994,-12.985,47.5825,5.285
785,9330692,1.323456,0.16165,-0.434442,-5.3025,37.625,6.2125
786,9330790,1.341756,0.162748,-0.363072,3.08,18.0425,6.615
787,9330888,1.295884,0.15579400000000002,-0.254736,9.905,-10.8675,3.395
788,9330986,1.2075559999999999,0.08881599,-0.30548800000000004,9.7475,-34.125,-3.2375
789,9331084,1.1320379999999999,-0.061366,-0.482022,11.095,-40.18,-8.3125
790,9331181,0.992348,-0.203984,-0.748714,13.51,-21.0175,-7.735
791,9331279,0.9128040000000001,-0.2074,-0.8489979999999999,19.635,13.3875,-3.0625
792,9331377,0.8193521,-0.101138,-0.9229299999999999,20.6675,51.0125,4.2875
793,9331475,0.7162621,0.045384,-1.0887280000000001,29.4875,67.8475,12.915
794,9331573,0.7195560000000001,0.132492,-1.149484,37.555,64.5575,22.155
795,9331671,0.91927,0.262422,-1.081896,34.7025,57.085,33.6
796,9331769,1.048346,0.23826599999999998,-0.968924,35.315,25.4625,41.0025
797,9331867,0.9208561,0.034404000000000004,-0.7687221,42.595,-21.035,41.8775
798,9331965,0.75335,-0.102846,-0.71065,42.1225,-49.385,35.1225
799,9332063,0.6973520000000001,-0.189344,-0.7782380999999999,38.325,-62.0725,28.21
800,9332161,0.783972,-0.265838,-0.7861680999999999,25.62,-62.9825,26.3375
801,9332259,0.9856379999999999,-0.39405999999999997,-0.7639640999999999,12.8625,-50.365,25.1475
802,9332356,1.016382,-0.43432,-0.735538,7.6475,-34.16,22.2075
803,9332454,1.015772,-0.394548,-0.71126,0.875,-22.295,12.74
804,9332552,0.98393,-0.338672,-0.688446,-5.3725,-14.735,1.82
805,9332650,0.9707541,-0.268156,-0.679784,-12.18,-11.0075,-9.4675
806,9332748,0.957334,-0.206058,-0.6563601,-17.8325,-10.71,-18.655
807,9332846,0.9097540000000001,-0.152866,-0.6125619999999999,-24.01,-13.335,-25.8125
808,9332944,0.8428979999999999,-0.067222,-0.5675439999999999,-27.7725,-16.975,-30.765
809,9333042,0.7895840999999999,0.007442,-0.534116,-29.68,-20.5975,-35.84
810,9333140,0.7178479999999999,0.10504200000000001,-0.509472,-27.6325,-24.325,-38.395
811,9333238,0.63989,0.186416,-0.482754,-25.76,-27.1775,-40.6875
812,9333336,0.5697399999999999,0.22472399999999998,-0.453596,-20.5625,-28.455,-42.98
813,9333433,0.52277,0.24156,-0.42517,-14.455,-29.1375,-44.17
814,9333531,0.48165600000000003,0.28157600000000005,-0.403698,-8.9775,-29.54,-43.33
815,9333629,0.4453,0.242048,-0.38198200000000004,-5.25,-29.5575,-45.3075
816,9333727,0.43127,0.202276,-0.37271,-1.855,-27.2475,-47.6525
817,9333825,0.465552,0.135542,-0.354166,2.7825,-23.3275,-45.8325
818,9333923,0.454694,0.12993,-0.334646,6.1425,-19.1275,-38.92
819,9334021,0.484462,0.09638,-0.326106,7.2975,-13.195,-39.445
820,9334119,0.589504,-0.006344,-0.30256,11.5325,-1.7325,-38.1675
821,9334217,0.6157341,-0.024522,-0.27999,14.0175,8.1025,-33.11
822,9334315,0.640744,-0.0061,-0.28121,13.4575,11.83,-31.2725
823,9334413,0.628422,-0.033794,-0.28243,14.805,15.4875,-27.5625
824,9334510,0.630252,-0.057096,-0.309148,18.3225,17.08,-20.23
825,9334608,0.6572140999999999,-0.027938,-0.309514,23.17,15.715,-12.005
826,9334706,0.717238,-0.036356,-0.338306,24.7625,12.74,-6.405
827,9334804,0.763598,-0.030866,-0.37417399999999995,22.7675,11.5675,-3.7975
828,9334902,0.811666,-0.041602,-0.385642,21.455,13.86,-2.1875
829,9335000,0.8165460999999999,-0.036356,-0.39161999999999997,21.07,15.33,1.7675
830,9335098,0.8377741,0.022326,-0.42626800000000004,22.1375,14.07,4.76
831,9335196,0.86559,0.032086,-0.43798000000000004,29.155,16.8875,5.39
832,9335294,0.898652,0.021472,-0.573156,30.6075,16.3975,6.23
833,9335392,0.9612379999999999,-0.097478,-0.533994,27.475,18.1825,3.5
834,9335489,1.009306,-0.21386599999999997,-0.44212799999999997,26.215,29.3125,-0.1575
835,9335587,1.080798,-0.271206,-0.39771999999999996,19.495,31.465,-5.32
836,9335685,1.16022,-0.25058800000000003,-0.34648,4.4975,22.54,-9.2575
837,9335783,1.251476,-0.273402,-0.299144,-9.31,12.95,-11.865
838,9335881,1.306376,-0.229604,-0.283406,-19.0575,-2.2225,-13.4925
839,9335979,1.2343959999999998,-0.12980799999999998,-0.439566,-29.5575,-23.065,-14.5425
840,9336077,1.130818,-0.074664,-0.5799880000000001,-36.1025,-29.6625,-12.39
841,9336175,0.9964959999999999,0.040382,-0.73688,-34.79,-15.8025,-8.0325
842,9336273,0.9633120999999999,0.120902,-0.784216,-25.62,7.4375,-9.6075
843,9336371,0.9067040000000001,0.116632,-0.804346,-9.5375,30.2225,-15.8025
844,9336469,0.834358,0.01769,-0.8914540000000001,-5.775,38.185,-22.05
845,9336566,0.8080061,-0.07551801,-0.8913321,-22.645,32.27,-25.62
846,9336664,0.774822,-0.200202,-0.8174001000000001,-36.4,26.215,-28.91
847,9336762,0.715164,-0.336354,-0.7928781,-30.6775,34.755,-35.98
848,9336860,0.8708360999999999,-0.451766,-0.79666,-29.6625,33.5475,-45.2375
849,9336958,0.9921040999999999,-0.38125,-0.753472,-52.0275,0.3325,-49.77
850,9337056,0.9126820999999999,-0.267912,-0.7248020000000001,-62.3,-26.3025,-49.8925
851,9337154,0.806176,-0.135664,-0.774578,-60.1475,-38.92,-43.575
852,9337252,0.8249639999999999,0.06661201,-0.799588,-57.9425,-45.8325,-34.37
853,9337350,0.9577,0.20447200000000001,-0.7914140000000001,-40.6875,-38.71,-29.295
854,9337448,1.037,0.185074,-0.7821421,-24.535,-28.805,-23.0825
855,9337546,1.063718,0.164578,-0.7598161,-14.5775,-17.4825,-12.6875
856,9337643,1.1095899999999999,0.158722,-0.726266,-5.075,-8.4,-1.9775
857,9337741,1.0972680000000001,0.135298,-0.680638,1.4875,-7.595,8.365
858,9337839,1.0117459999999998,0.09942999999999999,-0.637694,5.425,-12.74,15.015
859,9337937,0.930616,0.030012,-0.593042,9.0125,-16.87,18.655
860,9338035,0.8400921,-0.038918,-0.540826,12.6525,-20.1075,19.6525
861,9338133,0.755912,-0.102602,-0.48592609999999997,14.9625,-22.54,17.465
862,9338231,0.6810039999999999,-0.15201199999999998,-0.449082,13.9825,-23.1175,14.4375
863,9338329,0.612074,-0.15762400000000001,-0.41785,10.57,-23.065,13.2825
864,9338427,0.5757180000000001,-0.13969,-0.390278,4.8825,-24.2375,12.705
865,9338525,0.532408,-0.15018199999999998,-0.373198,-0.42,-25.1125,13.86
866,9338623,0.48739,-0.122976,-0.35172600000000004,-3.675,-25.0425,15.4
867,9338720,0.478484,-0.138226,-0.327448,-7.7525,-25.7775,16.3625
868,9338818,0.478484,-0.129686,-0.30353600000000003,-8.9425,-24.8675,18.725
869,9338916,0.522892,-0.133712,-0.301462,-10.5875,-24.115,20.685
870,9339014,0.573766,-0.124806,-0.299144,-11.025,-22.155,23.0475
871,9339112,0.619272,-0.08296,-0.286578,-11.1825,-17.815,23.9225
872,9339210,0.664168,-0.028182,-0.278648,-11.9175,-11.41,24.0625
873,9339308,0.6790520999999999,-0.009882,-0.266204,-10.465,-6.0025,22.5575
874,9339406,0.669048,0.020984,-0.269376,-9.52,-3.6225,19.7925
875,9339504,0.6763680000000001,0.01708,-0.27938,-10.4825,-1.47,14.4375
876,9339602,0.668072,0.017812,-0.287432,-10.43,2.765,10.92
877,9339699,0.688446,-0.027572000000000003,-0.299266,-9.7125,7.0525,6.51
878,9339797,0.674782,-0.054778,-0.33733,-9.9225,10.57,4.865
879,9339895,0.6733180000000001,-0.10187,-0.36282800000000004,-11.2,16.345,1.96
880,9339993,0.698328,-0.166652,-0.39528,-14.5075,22.785,-2.905
881,9340091,0.7055260999999999,-0.16433399999999998,-0.43212399999999995,-18.795,27.0725,-5.915
882,9340189,0.719434,-0.07625,-0.521794,-25.2,30.6775,-9.205
883,9340287,0.7659161,0.057828,-0.497882,-31.71,37.6775,-9.345
884,9340385,0.8958459999999999,0.181536,-0.503372,-34.65,47.2325,-10.3425
885,9340483,1.083604,0.24644000000000002,-0.49885799999999997,-26.985,44.66,-9.3975
886,9340581,1.293566,0.224358,-0.442616,-13.405,34.335,-5.565
887,9340679,1.443992,0.20776599999999998,-0.367464,1.54,21.21,2.0825
888,9340777,1.393484,0.22057600000000002,-0.31585799999999997,17.08,-2.66,8.155
889,9340874,1.265994,0.11943800000000002,-0.404796,31.64,-28.7175,6.545
890,9340972,1.236958,0.031598,-0.47958199999999995,38.8325,-31.29,3.255
891,9341070,1.217316,-0.079544,-0.58316,37.7475,-8.2775,4.025
892,9341168,1.161074,-0.137372,-0.683932,37.485,23.4675,8.6975
893,9341266,1.078114,-0.13542,-0.733708,34.4575,48.475,12.4425
894,9341364,0.966728,-0.055510000000000004,-0.8796200000000001,38.99,57.9425,12.705
895,9341462,0.8692501,0.009150001,-0.969412,51.7825,48.65,12.81
896,9341560,0.8115439999999999,0.043676,-0.8697379999999999,58.7825,36.925,18.8125
897,9341658,0.745786,0.10418800000000002,-0.9090219999999999,54.2325,34.9125,26.9325
898,9341756,0.8026380999999999,0.105652,-0.817522,57.015,20.51,32.9
899,9341853,0.8410681000000001,0.13078399999999998,-0.671854,55.4575,-10.85,38.2375
900,9341951,0.813008,0.066978,-0.643428,56.28,-45.675,35.7175
901,9342049,0.790194,-0.047580000000000004,-0.7229720000000001,51.205,-66.2025,30.7125
902,9342147,0.859856,-0.18629400000000002,-0.7548140999999999,39.865,-66.4475,26.25
903,9342245,1.053714,-0.332328,-0.72956,29.2075,-56.035,19.7925
904,9342343,1.081164,-0.366732,-0.690154,22.1025,-45.745,13.545
905,9342441,1.061156,-0.320982,-0.674538,15.47,-36.295,2.03
906,9342539,0.9983261,-0.262544,-0.6512359999999999,10.535,-26.8975,-11.725
907,9342637,0.9678261,-0.226798,-0.6301300999999999,5.2675,-23.6775,-23.345
908,9342735,0.954406,-0.16689600000000002,-0.60817,-1.0325,-25.48,-30.7825
909,9342832,0.91012,-0.13115,-0.57462,-7.9275,-29.9775,-35.7175
910,9342930,0.8432639999999999,-0.047092,-0.526552,-12.775,-35.1575,-38.0975
911,9343028,0.740418,0.031964,-0.476288,-16.345,-39.41,-40.7575
912,9343126,0.650992,0.09698999999999999,-0.43785799999999997,-14.805,-41.5275,-40.985
913,9343224,0.596946,0.10833599999999999,-0.40504,-12.775,-42.665,-41.0025
914,9343322,0.543876,0.14090999999999998,-0.37881,-7.5425,-42.1225,-39.3225
915,9343420,0.49824799999999997,0.13944600000000001,-0.347578,-5.1975,-39.5325,-40.5825
916,9343518,0.45335200000000003,0.096014,-0.330742,-2.6775,-34.6675,-41.1775
917,9343616,0.407236,0.106018,-0.31317399999999995,-1.0675,-29.4875,-42.175
918,9343714,0.43737,0.06405001,-0.308172,-0.9275,-24.71,-44.205
919,9343811,0.451888,0.08906,-0.305,0.245,-18.795,-41.72
920,9343909,0.48421800000000004,0.07686,-0.28853,0.5425,-12.74,-37.5025
921,9344007,0.548024,0.008418,-0.289506,1.435,-3.92,-39.2175
922,9344105,0.587796,-0.029646,-0.29097,3.815,3.605,-38.15
923,9344203,0.628178,-0.033428,-0.309392,5.005,6.125,-35.875
924,9344301,0.651968,-0.026351999999999997,-0.319396,6.7725,6.7375,-30.975
925,9344399,0.70394,-0.022692,-0.330986,8.19,3.78,-23.4675
926,9344497,0.7661600000000001,0.006222,-0.34562600000000004,10.325,-1.96,-14.805
927,9344595,0.81252,0.00427,-0.34794400000000003,10.9725,-6.685,-8.1025
928,9344693,0.8777901,0.05856,-0.335012,11.585,-8.26,-1.89
929,9344790,0.907436,0.07137001,-0.298656,12.1275,-9.31,4.585
930,9344888,0.8985301,0.063928,-0.309758,15.715,-8.9075,8.6975
931,9344986,0.889502,0.061366,-0.31537,23.6075,-3.0275,8.3825
932,9345084,0.827282,0.05368,-0.42065600000000003,31.4125,0.175,9.52
933,9345182,0.8252079999999999,0.042212,-0.63135,30.835,-0.595,8.6625
934,9345280,0.9090219999999999,-0.023424,-0.5915779999999999,25.76,12.6,9.3625
935,9345378,0.9869800999999999,-0.20447200000000001,-0.5579061,30.065,40.25,7.0525
936,9345476,1.019798,-0.329644,-0.433832,22.505,50.0325,1.8375
937,9345574,1.076894,-0.274988,-0.351848,-0.105,38.955,-3.78
938,9345672,1.2550139999999999,-0.326228,-0.23119,-18.69,23.7475,-10.92
939,9345770,1.2627,-0.34123400000000004,-0.14188599999999998,-28.91,5.4775,-14.9975
940,9345867,1.148264,-0.222894,-0.316102,-46.165,-32.655,-17.7275
941,9345965,1.052616,-0.09930800000000001,-0.5502199999999999,-54.7225,-54.495,-14.49
942,9346063,0.9983261,0.04331,-0.692106,-51.975,-42.63,-9.8875
943,9346161,0.9753901,0.239486,-0.757498,-36.855,-12.355,-13.3175
944,9346259,0.930982,0.29158,-0.759328,-16.1875,20.7725,-23.695
945,9346357,0.8526581,0.181536,-0.86315,-4.445,43.8725,-29.365
946,9346455,0.813984,0.05587601,-0.894626,-19.11,42.875,-27.055
947,9346553,0.669902,-0.077714,-0.9056061,-33.005,37.695,-24.6575
948,9346651,0.6430621,-0.27084,-0.9206120000000001,-23.345,52.2375,-35.595
949,9346749,0.9620920000000001,-0.5058121,-0.8677860000000001,-13.5975,61.5125,-51.66
950,9346847,1.2469620000000001,-0.5042260000000001,-0.770308,-37.5725,21.8225,-59.99
951,9346945,1.0377319999999999,-0.308172,-0.724924,-68.46,-28.1575,-59.5175
952,9347042,0.74237,-0.148108,-0.771894,-73.99,-47.6,-46.1825
953,9347140,0.762378,0.068564,-0.814472,-64.155,-47.635,-34.8075
954,9347238,0.9568459999999999,0.233386,-0.835456,-43.2775,-39.62,-32.1475
955,9347336,1.1425299999999998,0.249612,-0.8382620000000001,-23.7475,-29.5925,-25.3925
956,9347434,1.194014,0.20447200000000001,-0.7977581,-14.4375,-20.7025,-13.055
957,9347532,1.150094,0.15555,-0.729072,-6.8425,-14.8225,0.8575
958,9347630,1.059448,0.09650201,-0.671488,0.98,-13.405,15.2075
959,9347728,0.9686799999999999,0.040382,-0.623786,6.6325,-15.1025,26.25
960,9347826,0.880352,-0.023058000000000002,-0.5612,11.13,-18.1475,31.8675
961,9347924,0.792756,-0.127856,-0.49227,14.3325,-21.945,31.71
962,9348022,0.72285,-0.201666,-0.446276,14.35,-25.2525,29.5225
963,9348119,0.65209,-0.21093800000000001,-0.41358,10.745,-27.51,27.1425
964,9348217,0.594262,-0.19959200000000002,-0.391986,6.265,-29.05,26.81
965,9348315,0.552904,-0.215452,-0.365146,1.5575,-29.8725,27.3525
966,9348413,0.49910200000000005,-0.20496,-0.35624,-6.02,-30.1525,29.6275
967,9348511,0.47641000000000006,-0.19885999999999998,-0.32818,-10.6575,-28.7875,31.0625
968,9348609,0.47336000000000006,-0.22057600000000002,-0.315736,-15.61,-27.6675,32.375
969,9348707,0.49654,-0.19154000000000002,-0.291702,-18.235,-25.76,33.565
970,9348805,0.5198421,-0.14713199999999999,-0.2806,-22.3825,-21.6125,34.5975
971,9348903,0.5754739999999999,-0.12334200000000001,-0.269864,-22.4875,-14.945,34.86
972,9349001,0.621712,-0.102724,-0.270474,-22.6625,-9.2225,33.285
973,9349099,0.64599,-0.07015,-0.265106,-23.73,-5.04,32.585
974,9349196,0.651968,0.001952,-0.255834,-24.5525,-1.925,29.82
975,9349294,0.652334,-0.005856,-0.23911999999999997,-25.7075,-0.9625,23.4675
976,9349392,0.641598,0.003172,-0.247538,-26.075,1.085,18.9175
977,9349490,0.665998,-0.031110000000000002,-0.26718000000000003,-24.2375,5.4425,13.1425
978,9349588,0.681614,-0.031598,-0.291702,-23.0125,10.71,8.26
979,9349686,0.692716,-0.040992,-0.317322,-22.645,17.0275,4.655
980,9349784,0.694546,-0.045627999999999995,-0.343918,-24.78,25.935,0.1925
981,9349882,0.68747,-0.049288,-0.38125,-28.875,32.0075,-4.235
982,9349980,0.686738,-0.03904,-0.46006199999999997,-32.6725,35.4025,-8.4175
983,9350078,0.731146,0.080154,-0.47823999999999994,-36.295,40.215,-11.41
984,9350176,0.798246,0.268278,-0.49105,-43.225,46.0075,-12.6875
985,9350274,0.9882001,0.348432,-0.497638,-40.635,45.78,-13.6325
986,9350371,1.199626,0.363194,-0.44591000000000003,-31.1675,37.8525,-11.13
987,9350469,1.41703,0.265106,-0.384544,-13.16,23.38,-7.0175
988,9350567,1.466684,0.270474,-0.327814,6.685,-3.045,-0.9275
989,9350665,1.299544,0.206668,-0.361608,25.83,-34.5625,0.0525
990,9350763,1.1666860000000001,0.053191999999999996,-0.48165600000000003,40.81,-46.6025,-3.7625
991,9350861,1.167784,-0.020618,-0.5842579999999999,41.44,-27.8075,-5.6
992,9350959,1.1453360000000001,-0.106262,-0.7093081,41.58,9.6775,-0.07
993,9351057,1.084214,-0.120048,-0.773968,36.61,48.1075,8.0325
994,9351155,1.003084,-0.032818,-0.918416,38.0275,70.5075,13.5275
995,9351253,0.924638,0.032695999999999996,-1.023824,47.9325,63.1925,15.75
996,9351351,0.8692501,0.05587601,-0.8838901,59.99,43.19,22.715
997,9351449,0.798978,0.133346,-0.8704700000000001,57.0325,37.975,32.55
998,9351546,0.8254520000000001,0.1098,-0.9113399999999999,57.47,25.3225,38.115
999,9351644,0.870592,0.029036000000000003,-0.770674,62.8425,-6.1425,45.0275
1000,9351742,0.8647360000000001,-0.008296000999999999,-0.696132,58.17,-39.2175,48.895
1001,9351840,0.8693719999999999,-0.076738,-0.73444,52.0275,-63.9625,45.64
1002,9351938,0.9435479999999999,-0.22362600000000002,-0.756888,39.27,-67.375,38.92
1003,9352036,1.12057,-0.39223,-0.72163,28.8225,-52.3425,31.6925
1004,9352134,1.092266,-0.41406800000000005,-0.67832,20.1775,-38.99,24.2025
1005,9352232,1.0498100000000001,-0.364902,-0.654774,11.76,-31.955,11.3225
1006,9352330,1.017358,-0.315614,-0.635864,3.7975,-25.83,-2.4325
1007,9352428,0.9745360000000001,-0.25986,-0.609634,-3.2375,-23.3975,-15.33
1008,9352526,0.9368380999999999,-0.180804,-0.57828,-9.24,-25.725,-25.305
1009,9352624,0.8873059999999999,-0.07747001,-0.543632,-14.3675,-30.6425,-32.585
1010,9352721,0.8141060999999999,0.022692,-0.49837,-18.6375,-36.19,-39.7075
1011,9352819,0.7256560000000001,0.07564,-0.4575,-19.145,-41.0025,-45.92
1012,9352917,0.645258,0.15677,-0.40894400000000003,-15.96,-44.59,-48.055
1013,9353015,0.5795,0.20630199999999999,-0.37881,-12.2325,-47.075,-48.2825
1014,9353113,0.5343600000000001,0.257786,-0.35465399999999997,-5.915,-46.76,-48.8075
1015,9353211,0.47641000000000006,0.25803000000000004,-0.329034,-0.49,-43.9075,-51.03
1016,9353309,0.453474,0.21008400000000002,-0.306708,3.29,-39.515,-55.055
1017,9353407,0.42578,0.174094,-0.29902199999999995,5.8275,-34.4925,-55.7725
1018,9353505,0.441396,0.11870599999999999,-0.300852,7.665,-29.225,-55.265
1019,9353603,0.446276,0.12212200000000001,-0.29133600000000004,9.7825,-24.9725,-50.785
1020,9353701,0.49031800000000003,0.101748,-0.275598,11.8825,-18.235,-50.2425
1021,9353798,0.530456,0.07600599999999999,-0.269742,14.2625,-8.2425,-48.9125
1022,9353896,0.5653481,0.033672,-0.283894,16.905,-0.35,-47.6
1023,9353994,0.615124,0.0008540001,-0.306708,19.7575,2.5375,-45.4125
1024,9354092,0.6381821,-0.013541999999999998,-0.318054,22.47,1.7675,-39.725
1025,9354190,0.6661201,-0.036844,-0.30622,26.6,-0.2625,-31.325
1026,9354288,0.730902,0.023790000000000002,-0.316102,29.575,-1.4175,-22.015
1027,9354386,0.773724,0.047214,-0.332816,30.5725,-1.47,-15.5575
1028,9354484,0.8337481,0.030744,-0.34526,30.765,-1.295,-9.24
1029,9354582,0.8587581,0.065026,-0.311832,34.3525,1.2425,-5.355
1030,9354680,0.8757159999999999,0.067344,-0.27999,38.2025,4.76,-2.0475
1031,9354778,0.8580260000000001,0.032818,-0.30805,48.0025,10.29,1.05
1032,9354876,0.8418,-0.033306,-0.5888939999999999,51.135,14.21,3.36
1033,9354973,0.894626,-0.131394,-0.597434,45.675,24.4825,8.0675
1034,9355071,1.018334,-0.322812,-0.5504641,43.2425,46.235,8.8725
1035,9355169,1.117398,-0.5060560000000001,-0.5070319999999999,39.3225,55.8775,3.22
1036,9355267,1.19682,-0.414312,-0.395768,12.635,40.1275,-1.7325
1037,9355365,1.29015,-0.30744,-0.242048,-14.7,19.0225,-6.965
1038,9355463,1.3194299999999999,-0.365268,-0.112972,-28.805,0.2625,-8.2775
1039,9355561,1.217682,-0.24570799999999998,-0.20752199999999998,-49.035,-31.045,-9.24
1040,9355659,1.087996,-0.137128,-0.49739399999999995,-61.67,-52.115,-6.755
1041,9355757,1.033218,-0.046482,-0.6878361,-61.6175,-43.19,-2.24
1042,9355855,1.002718,0.130174,-0.7714061,-49.455,-19.4075,-2.135
1043,9355953,0.9964959999999999,0.279868,-0.759572,-29.015,7.0,-13.5625
1044,9356051,0.9053620000000001,0.26169000000000003,-0.8149601,-8.19,31.9725,-24.4475
1045,9356148,0.8250860000000001,0.153354,-0.9097540000000001,-8.7325,40.985,-27.7375
1046,9356246,0.7135779999999999,0.03782,-0.8431420000000001,-26.7225,35.035,-24.605
1047,9356344,0.56425,-0.11846199999999998,-0.85034,-26.915,38.99,-26.4425
1048,9356442,0.669658,-0.328912,-0.8851100000000001,-17.2375,53.2525,-38.9025
1049,9356540,1.0384639999999998,-0.536556,-0.8372860999999999,-22.225,45.08,-52.3775
1050,9356638,1.160464,-0.434808,-0.743224,-50.3475,2.45,-61.9675
1051,9356736,0.9275661000000001,-0.311222,-0.743102,-66.3775,-31.78,-65.15250999999999
1052,9356834,0.761402,-0.134078,-0.792512,-67.69001,-46.1125,-52.6225
1053,9356932,0.8823040000000001,0.123464,-0.81984,-56.6125,-45.71,-44.135
1054,9357030,1.082018,0.240096,-0.846802,-34.16,-36.7675,-39.76
1055,9357128,1.217682,0.234972,-0.8224021,-19.985,-27.055,-30.555
1056,9357226,1.20719,0.181902,-0.749812,-11.4275,-17.5875,-16.2225
1057,9357323,1.1346,0.124074,-0.668072,-4.235,-13.3875,0.0
1058,9357421,1.035902,0.07173600000000001,-0.611342,0.945,-15.015,15.0675
1059,9357519,0.916464,0.017934000000000002,-0.5614439999999999,5.9675,-17.2375,25.5325
1060,9357617,0.809836,-0.05612,-0.51484,9.03,-19.985,28.175
1061,9357715,0.732244,-0.155672,-0.45640200000000003,9.905,-23.7125,26.6525
1062,9357813,0.6602640000000001,-0.18995399999999998,-0.41675200000000007,7.3325,-26.4775,26.075
1063,9357911,0.590236,-0.201544,-0.377834,3.325,-29.4525,26.74
1064,9358009,0.550586,-0.197762,-0.36173,-0.77,-30.8,29.05
1065,9358107,0.5161819999999999,-0.23155599999999998,-0.332816,-6.1775,-30.24,32.6025
1066,9358205,0.47079799999999994,-0.202154,-0.336476,-12.075,-28.595,35.56
1067,9358303,0.439932,-0.16128399999999998,-0.309514,-15.5575,-26.845,37.66
1068,9358401,0.434808,-0.171532,-0.288408,-18.55,-25.165,38.0625
1069,9358499,0.47946000000000005,-0.17946199999999998,-0.279136,-17.535,-21.8925,39.6025
1070,9358596,0.537776,-0.11163,-0.278648,-20.475,-17.57,40.7575
1071,9358694,0.61488,-0.07393200000000001,-0.268766,-20.7025,-11.9875,39.62
1072,9358792,0.6558721,-0.04697001,-0.27694,-20.615,-6.335,37.6425
1073,9358890,0.688446,-0.033428,-0.269376,-21.84,-2.8525,34.8425
1074,9358988,0.7046720999999999,0.012444,-0.271206,-23.5025,-0.21,30.8175
1075,9359086,0.702476,0.050508,-0.26766799999999996,-25.41,3.3425,25.165
1076,9359184,0.70943,0.005246,-0.271816,-24.5525,8.295,19.915
1077,9359282,0.701012,-0.029401999999999998,-0.29951,-22.75,14.56,14.2625
1078,9359380,0.7016220000000001,-0.062341999999999995,-0.32391,-20.0725,20.965,7.875
1079,9359478,0.7168720000000001,-0.062586,-0.325252,-19.9325,28.1575,1.9775
1080,9359576,0.690154,-0.028426,-0.32269000000000003,-23.625,33.915,-2.1875
1081,9359674,0.711992,-0.05124001,-0.31415,-29.19,33.8975,-7.805
1082,9359772,0.72529,-0.018056,-0.43676000000000004,-33.8975,30.66,-9.5025
1083,9359870,0.7579859999999999,0.08649801,-0.477386,-38.9725,30.0125,-11.41
1084,9359967,0.9214661,0.21655,-0.5084960000000001,-43.155,33.8275,-15.05
1085,9360065,1.0920219999999998,0.279014,-0.49031800000000003,-37.1,35.2625,-13.2475
1086,9360163,1.295518,0.257054,-0.418338,-20.7725,29.505,-10.115
1087,9360261,1.4452120000000002,0.235948,-0.33684200000000003,-0.5775,16.975,-4.235
1088,9360359,1.400682,0.251198,-0.343918,21.735,-6.615,-0.0875
1089,9360457,1.260748,0.12334200000000001,-0.46006199999999997,43.0675,-29.085,0.1225
1090,9360555,1.206336,0.053070000000000006,-0.5404601,51.45,-25.06,-1.7325
1091,9360653,1.1934040000000001,-0.01525,-0.647942,52.4125,4.48,-0.1575
1092,9360751,1.148508,-0.057828,-0.7352941,48.7025,40.0575,5.635
1093,9360849,1.082018,-0.020008,-0.830332,45.1675,62.9475,11.2175
1094,9360947,1.008818,0.030987999999999998,-0.9775860000000001,50.5925,63.3325,13.5625
1095,9361045,0.9408639999999999,0.041724000000000004,-0.930982,64.2425,44.7125,17.2375
1096,9361143,0.8250860000000001,0.050996,-0.832528,71.2075,28.9625,24.78
1097,9361240,0.743224,0.06575800000000001,-0.800198,68.075,24.43,30.73
1098,9361338,0.7890961,0.074786,-0.702232,66.99,9.1,34.65
1099,9361436,0.805932,0.038796,-0.6145141,65.52,-21.525,38.0625
1100,9361534,0.81313,-0.034038,-0.640256,61.3725,-51.2925,35.9275
1101,9361632,0.8840120000000001,-0.151036,-0.718946,47.985,-66.3075,32.9
1102,9361730,1.043954,-0.29438600000000004,-0.734318,34.895,-60.3225,27.8775
1103,9361828,1.136552,-0.384056,-0.687958,27.615,-45.9025,21.21
1104,9361926,1.1211799999999998,-0.367708,-0.6728301,20.3875,-35.5775,11.585
1105,9362024,1.07726,-0.306586,-0.669048,12.6875,-27.9125,-1.6275
1106,9362122,1.0178459999999998,-0.243756,-0.6405,6.9825,-24.115,-15.82
1107,9362220,0.9753901,-0.198372,-0.61,1.9075,-24.885,-27.9475
1108,9362318,0.9340321,-0.12175599999999999,-0.570716,-2.905,-29.2775,-35.1925
1109,9362416,0.8792540999999999,-0.0244,-0.533018,-8.085,-35.2275,-41.405
1110,9362514,0.809714,0.036233999999999995,-0.490684,-10.3425,-40.7225,-46.3225
1111,9362612,0.720532,0.111142,-0.442616,-10.535,-45.4125,-47.3025
1112,9362710,0.626958,0.17507,-0.401258,-8.715,-48.79,-47.3025
1113,9362807,0.563762,0.188978,-0.37112399999999995,-3.185,-49.6825,-47.4775
1114,9362905,0.5191100000000001,0.232654,-0.347456,2.1875,-47.915,-47.81
1115,9363003,0.48592609999999997,0.203984,-0.328424,5.7225,-46.025,-48.93
1116,9363101,0.44286000000000003,0.142008,-0.307562,8.295,-42.7175,-50.3475
1117,9363199,0.43859,0.105652,-0.303902,8.61,-39.0425,-49.7525
1118,9363297,0.461404,0.09284201,-0.30073,10.745,-34.7375,-49.0
1119,9363395,0.508862,0.07991000000000001,-0.295606,13.4925,-30.1,-46.165
1120,9363493,0.5161819999999999,0.07869,-0.28072199999999997,16.345,-23.1525,-40.845
1121,9363591,0.544242,0.087108,-0.282186,17.29,-14.7875,-38.115
1122,9363689,0.59475,0.024766,-0.287554,21.2275,-7.0,-37.73
1123,9363787,0.615124,0.0,-0.29438600000000004,24.71,-3.2025,-33.3375
1124,9363885,0.650382,0.0305,-0.305854,26.005,-2.9925,-26.88
1125,9363983,0.680028,-0.003904,-0.3111,27.72,-2.6425,-20.09
1126,9364081,0.7320001,0.023058000000000002,-0.32866799999999996,29.5925,-0.7525,-14.0525
1127,9364179,0.779702,0.027327999999999998,-0.326838,28.525,0.3675,-9.52
1128,9364277,0.8102020000000001,0.023302,-0.327936,30.345,4.3225,-3.8675
1129,9364374,0.817156,0.02745,-0.319884,34.4925,9.3975,-0.4725
1130,9364472,0.8263060999999999,0.00427,-0.345504,38.605,11.8475,0.8400001
1131,9364570,0.8006861,-0.048312,-0.4668941,43.68,12.355,3.4125
1132,9364668,0.80703,-0.114924,-0.55632,43.8375,12.3375,6.51
1133,9364766,0.8842561,-0.222894,-0.490196,40.8975,19.8975,9.835
1134,9364864,0.99308,-0.396012,-0.459208,42.6475,31.4475,8.7325
1135,9364962,1.11996,-0.486658,-0.41992399999999996,31.9025,30.6425,6.1775
1136,9365060,1.219878,-0.374784,-0.333548,8.12,23.9575,-0.4725
1137,9365158,1.314306,-0.331352,-0.214232,-10.22,16.8175,-7.315
1138,9365256,1.263066,-0.30683,-0.193492,-27.685,-2.5025,-10.36
1139,9365354,1.15473,-0.196054,-0.433954,-49.035,-32.1125,-9.1875
1140,9365452,1.087874,-0.129076,-0.61427,-57.4875,-40.39,-4.3575
1141,9365550,1.038342,0.051118000000000004,-0.750544,-52.1675,-25.4275,-1.6275
1142,9365648,1.042002,0.22667600000000002,-0.8023939999999999,-37.87,0.07,-10.3425
1143,9365746,0.9892981,0.23546,-0.8289901,-16.9925,28.9275,-21.105
1144,9365844,0.909632,0.114558,-0.9437921,-9.87,43.8375,-26.1975
1145,9365942,0.8436299999999999,0.01891,-0.9673379999999999,-29.61,37.0825,-26.3025
1146,9366039,0.736514,-0.10126,-0.9203680000000001,-42.3675,36.3825,-30.52
1147,9366137,0.8427761,-0.35831399999999997,-0.8787661,-26.5825,51.17,-44.135
1148,9366235,1.055666,-0.540216,-0.8081281,-26.6525,41.7025,-54.6875
1149,9366333,1.07055,-0.442616,-0.761158,-60.865,-10.2375,-56.315
1150,9366431,0.800442,-0.222406,-0.7479819999999999,-84.01751,-49.735,-49.91
1151,9366529,0.679296,-0.016347999999999998,-0.7821421,-73.3075,-53.97,-40.9675
1152,9366627,0.789828,0.147498,-0.7903161,-56.0,-49.1575,-34.825
1153,9366725,0.948184,0.273036,-0.8042239999999999,-38.1325,-42.7875,-29.225
1154,9366823,1.076162,0.243756,-0.799466,-22.19,-31.6575,-20.09
1155,9366921,1.11935,0.170922,-0.748104,-13.1425,-17.5175,-6.09
1156,9367019,1.070062,0.102114,-0.6767340000000001,-9.66,-11.6725,9.1525
1157,9367117,1.01016,0.045627999999999995,-0.6161,-4.3925,-10.7275,23.835
1158,9367215,0.942084,-0.0008540001,-0.5738880000000001,-1.785,-12.5125,34.195
1159,9367313,0.8413120000000001,-0.103578,-0.534726,-0.105,-14.3325,39.3575
1160,9367410,0.756156,-0.187026,-0.47555600000000003,0.4725,-16.52,40.355
1161,9367508,0.687958,-0.254492,-0.427854,-1.1025,-18.445,38.5
1162,9367606,0.625738,-0.263764,-0.400282,-5.1275,-20.2825,38.4475
1163,9367704,0.594262,-0.26303200000000004,-0.373686,-10.815,-24.115,40.075
1164,9367802,0.542656,-0.263642,-0.35831399999999997,-17.605,-27.055,42.315
1165,9367900,0.5073979999999999,-0.22948200000000002,-0.350018,-24.2375,-28.28,42.7175
1166,9367998,0.46774799999999994,-0.224846,-0.332572,-29.2075,-28.28,43.8725
1167,9368096,0.473238,-0.182756,-0.307562,-33.4425,-28.2625,43.26
1168,9368194,0.493246,-0.177754,-0.29877800000000004,-36.225,-26.6175,45.2025
1169,9368292,0.534116,-0.16714,-0.29377600000000004,-34.79,-22.4,45.1675
1170,9368390,0.5726680000000001,-0.121512,-0.27510999999999997,-34.895,-15.5575,43.2075
1171,9368488,0.6140260000000001,-0.048556,-0.256932,-34.3525,-5.32,40.7925
1172,9368586,0.6362300000000001,-0.001586,-0.24717199999999998,-32.305,2.905,37.695
1173,9368684,0.65087,0.055144000000000006,-0.243756,-31.325,6.6325,33.4425
1174,9368781,0.655384,0.089792,-0.249612,-32.34,9.765,27.475
1175,9368879,0.664046,0.08503401,-0.259006,-30.345,15.6625,21.49
1176,9368977,0.6722199999999999,0.07393200000000001,-0.276452,-28.665,22.4525,13.335
1177,9369075,0.691496,0.042944,-0.30439,-27.1425,28.0525,8.2075
1178,9369173,0.7287060000000001,0.008174001,-0.330376,-27.2825,31.36,2.9575
1179,9369271,0.72346,-0.01464,-0.341356,-29.995,34.51,-1.1725
1180,9369369,0.727242,0.002562,-0.400892,-34.4925,36.4525,-9.3625
1181,9369467,0.743224,0.054778,-0.462746,-39.3575,36.05,-14.2275
1182,9369565,0.827526,0.175314,-0.46152600000000005,-44.1525,36.4,-19.845
1183,9369663,0.952332,0.284504,-0.5193541,-43.4875,33.5475,-21.5775
1184,9369761,1.1034899999999999,0.296582,-0.496174,-35.6125,23.1175,-18.97
1185,9369859,1.328214,0.243756,-0.41297,-18.3925,13.9125,-17.5175
1186,9369957,1.427522,0.19483399999999998,-0.356484,1.3125,2.205,-13.545
1187,9370055,1.375062,0.189222,-0.29438600000000004,19.81,-18.235,-9.345
1188,9370153,1.238666,0.124928,-0.32086,33.6,-37.835,-9.205
1189,9370250,1.18157,0.001098,-0.47372600000000004,41.7375,-37.8,-11.6375
1190,9370348,1.2042620000000002,-0.08967,-0.603046,40.845,-16.0475,-10.64
1191,9370446,1.214266,-0.165798,-0.668316,35.9625,16.8,-3.64
1192,9370544,1.169492,-0.183732,-0.717238,27.615,48.7025,6.72
1193,9370642,1.06079,-0.117974,-0.825574,28.035,69.3525,14.455
1194,9370740,0.9345201,-0.0051240009999999996,-0.945866,40.4425,66.2375,16.17
1195,9370838,0.8249639999999999,0.070882,-0.8520479999999999,55.9475,44.1175,18.4975
1196,9370936,0.7226060000000001,0.125416,-0.749324,57.925,32.2525,26.5125
1197,9371034,0.6795401,0.163602,-0.8206940999999999,54.9325,27.44,33.8975
1198,9371132,0.7147979999999999,0.071614,-0.8164239999999999,61.9325,12.215,41.195
1199,9371230,0.768356,0.061610000000000005,-0.7068681,60.76,-11.6725,52.4475
1200,9371328,0.8431420000000001,0.08723001,-0.69296,53.865,-38.5,53.935
1201,9371426,0.9140241,-0.046360000000000005,-0.731024,48.755,-60.795,45.4125
1202,9371524,1.023458,-0.23838800000000002,-0.73627,37.59,-61.355,35.6125
1203,9371622,1.13155,-0.34428400000000003,-0.6925941,28.3675,-46.9,26.4425
1204,9371720,1.106296,-0.325496,-0.6645340000000001,22.155,-37.94,16.065
1205,9371817,1.058594,-0.266448,-0.635742,13.8775,-33.04,0.3675
1206,9371915,1.01931,-0.230702,-0.604876,5.1975,-26.95,-15.925
1207,9372013,0.9761219999999999,-0.171044,-0.5785241,-2.9925,-25.585,-28.1225
1208,9372111,0.928542,-0.09089001,-0.548146,-9.73,-29.7675,-35.4725
1209,9372209,0.874252,-0.024888,-0.505446,-14.6825,-35.175,-40.6525
1210,9372307,0.8066641,0.036233999999999995,-0.46543,-17.6575,-39.2875,-44.625
1211,9372405,0.718824,0.08857201,-0.407358,-16.1525,-42.6825,-47.8275
1212,9372503,0.642574,0.14078800000000002,-0.379176,-11.865,-46.375,-48.545
1213,9372601,0.5627861,0.188246,-0.343674,-4.585,-49.14,-47.5125
1214,9372699,0.533994,0.211304,-0.327326,2.94,-48.7375,-48.5275
1215,9372797,0.48690200000000006,0.209352,-0.304146,9.345,-46.62,-49.0525
1216,9372895,0.46006199999999997,0.157502,-0.274256,11.9175,-42.7,-51.17
1217,9372993,0.44688599999999995,0.124074,-0.276452,12.8975,-36.3825,-49.7
1218,9373090,0.48690200000000006,0.083814,-0.26535,14.4025,-30.5725,-48.23
1219,9373188,0.509716,0.10906800000000001,-0.25193000000000004,14.735,-24.395,-44.625
1220,9373286,0.5422899999999999,0.078202,-0.255712,14.9625,-15.8725,-43.3475
1221,9373384,0.575962,0.031964,-0.274012,17.395,-5.9675,-43.1725
1222,9373482,0.612318,-0.003172,-0.28316199999999997,21.035,0.5425,-43.295
1223,9373580,0.6423300999999999,-0.026595999999999998,-0.29572800000000005,23.065,1.82,-39.445
1224,9373678,0.674538,-0.028914,-0.30841599999999997,23.45,-0.1925,-32.165
1225,9373776,0.723582,-0.016714,-0.324398,24.85,-0.8400001,-23.17
1226,9373874,0.759572,0.013054,-0.325374,27.475,1.225,-15.2075
1227,9373972,0.829356,0.024278,-0.32208000000000003,27.7375,2.275,-9.0125
1228,9374069,0.8616860000000001,0.039406000000000004,-0.31232,29.6625,3.6225,-3.4475
1229,9374167,0.8740081000000001,0.04819,-0.307684,33.4775,6.9825,2.485
1230,9374265,0.8759601,0.038308,-0.31354,38.9375,11.1825,5.5475
1231,9374363,0.859856,-0.00427,-0.45811,44.415,14.7525,7.665
1232,9374461,0.8555860999999999,-0.103822,-0.5826720000000001,44.1175,16.73,9.6075
1233,9374559,0.9456220999999999,-0.23314200000000002,-0.59353,40.46,24.885,12.9675
1234,9374657,1.0323639999999998,-0.391864,-0.5511961,40.1275,35.665,10.7275
1235,9374755,1.099342,-0.3538,-0.45249799999999996,24.9025,31.08,7.14
1236,9374853,1.128744,-0.229116,-0.35233600000000004,-1.5225,17.745,0.98
1237,9374951,1.21512,-0.290848,-0.26461799999999996,-19.5475,6.195,-7.245
1238,9375049,1.1805940000000001,-0.284992,-0.29731399999999997,-37.135,-10.045,-11.8825
1239,9375146,1.103124,-0.21142600000000003,-0.458476,-56.28,-27.895,-14.77
1240,9375244,1.019066,-0.13859200000000002,-0.7340741,-62.895,-25.655,-13.44
1241,9375342,1.016138,-0.03416,-0.8962120000000001,-59.4825,-5.2325,-12.6
1242,9375440,1.029802,0.054167999999999994,-0.8352120000000001,-40.5825,26.2325,-18.41
1243,9375538,1.04249,0.079666,-0.8471681000000001,-17.6225,50.4175,-31.045
1244,9375636,1.055788,-0.005368,-0.879376,-21.84,46.305,-39.5325
1245,9375734,1.003694,-0.105896,-0.874862,-51.52,26.495,-34.615
1246,9375832,0.92171,-0.145302,-0.7183361,-60.4975,21.035,-32.8475
1247,9375930,0.9023121,-0.30683,-0.6646561,-34.3175,34.93,-43.2775
1248,9376028,0.8962120000000001,-0.368684,-0.738466,-43.995,1.47,-44.73
1249,9376126,0.8003201,-0.182268,-0.751642,-78.085,-47.88,-40.5125
1250,9376223,0.709674,-0.08332601,-0.7712840999999999,-63.6825,-49.3325,-42.8925
1251,9376321,0.751154,-0.022326,-0.7836061,-48.2825,-41.7375,-46.7775
1252,9376419,0.9203680000000001,0.14005599999999999,-0.802272,-45.4125,-41.545,-45.92
1253,9376517,1.109834,0.183488,-0.8165460999999999,-33.7575,-35.56,-40.3375
1254,9376615,1.153266,0.144326,-0.834358,-23.45,-26.0925,-29.505
1255,9376713,1.148264,0.13456600000000002,-0.795074,-20.4225,-20.1425,-17.2725
1256,9376811,1.08885,0.101626,-0.704916,-16.4675,-16.415,-2.345
1257,9376909,0.99308,0.01952,-0.638304,-13.72,-16.45,11.9875
1258,9377007,0.913292,-0.037088,-0.5903579999999999,-12.32,-19.7575,21.805
1259,9377105,0.8270379999999999,-0.11650999999999999,-0.5392399999999999,-10.9375,-22.9425,26.9675
1260,9377203,0.748592,-0.177754,-0.483242,-9.4675,-26.0575,29.8025
1261,9377301,0.6769781,-0.23460599999999998,-0.43932200000000005,-11.69,-29.26,31.78
1262,9377399,0.621102,-0.25656599999999996,-0.404064,-15.47,-31.99,34.825
1263,9377496,0.56913,-0.254004,-0.36807399999999996,-19.0575,-34.125,38.255
1264,9377594,0.525942,-0.254126,-0.332694,-22.6275,-34.8775,42.2975
1265,9377692,0.493856,-0.221308,-0.329888,-26.285,-33.565,46.27
1266,9377790,0.462746,-0.185806,-0.31964000000000004,-28.8925,-31.22,48.1775
1267,9377888,0.448838,-0.152134,-0.30256,-30.59,-27.8775,48.4575
1268,9377986,0.45420600000000005,-0.143228,-0.296216,-30.7125,-23.0825,49.4375
1269,9378084,0.492514,-0.12029200000000001,-0.299388,-30.625,-16.9575,51.6775
1270,9378182,0.5443640000000001,-0.06039,-0.290116,-30.1,-10.3075,51.3625
1271,9378280,0.5988979999999999,0.003782,-0.28914,-29.1375,-3.5,48.4575
1272,9378378,0.6314721,0.030133999999999998,-0.28328400000000004,-26.8275,2.835,44.415
1273,9378476,0.665632,0.07747001,-0.2684,-25.4275,7.2275,39.5675
1274,9378574,0.696498,0.11224,-0.263642,-27.02,8.26,33.7575
1275,9378671,0.7266321,0.11126400000000002,-0.264374,-28.5775,10.71,26.0575
1276,9378769,0.7473721,0.04087,-0.271206,-28.1575,14.525,18.41
1277,9378867,0.743712,-0.017446,-0.280478,-25.9525,19.1625,10.01
1278,9378965,0.7356600000000001,-0.07259,-0.298168,-23.4325,24.5,-0.35
1279,9379063,0.723826,-0.081618,-0.313052,-24.3775,28.98,-8.4175
1280,9379161,0.743102,-0.035136,-0.346114,-28.7525,31.2025,-15.5225
1281,9379259,0.722118,-0.008540001,-0.43163599999999996,-33.6175,32.9525,-19.075
1282,9379357,0.7610359999999999,0.059658,-0.472872,-37.3975,33.2675,-24.2025
1283,9379455,0.8931620000000001,0.23521599999999998,-0.461892,-43.7325,31.255,-27.755
1284,9379553,1.0656700000000001,0.353678,-0.493856,-40.2325,27.8425,-29.2425
1285,9379651,1.250134,0.390156,-0.472872,-28.7,20.055,-28.21
1286,9379749,1.395192,0.31890799999999997,-0.39894,-9.8175,16.03,-23.6775
1287,9379847,1.38226,0.262666,-0.31402800000000003,12.075,7.0,-15.75
1288,9379945,1.2428139999999999,0.22777399999999998,-0.230336,33.4425,-14.42,-12.845
1289,9380042,1.136918,0.1281,-0.27389,46.97,-33.6875,-16.31
1290,9380140,1.1300860000000001,-0.032574,-0.441518,50.4875,-34.51,-19.425
1291,9380238,1.134356,-0.185684,-0.5958479999999999,46.2525,-18.4275,-16.9925
1292,9380336,1.06689,-0.337208,-0.70638,39.235,8.96,-9.7475
1293,9380434,0.9797819999999999,-0.33818400000000004,-0.747738,29.155,40.53,-2.17
1294,9380532,0.8327720999999999,-0.231922,-0.838506,25.4975,68.46,5.1275
1295,9380630,0.6734399999999999,-0.07259,-0.9451341000000001,34.8075,77.9275,6.7375
1296,9380728,0.6240300999999999,0.012688,-0.916098,51.6425,63.175,7.7175
1297,9380826,0.609268,0.11248399999999999,-0.9479401,55.02,52.92,17.255
1298,9380924,0.746518,0.20556999999999997,-0.9652639999999999,54.0575,51.485,31.99
1299,9381022,0.9501360999999999,0.283894,-0.818132,60.795,27.5625,50.295
1300,9381120,0.9911281,0.302804,-0.6912520000000001,59.955,-17.675,63.245
1301,9381218,0.9209780000000001,0.158112,-0.684664,58.3275,-56.4025,60.7775
1302,9381315,0.9263459999999999,-0.161772,-0.721264,48.58,-66.8325,47.145
1303,9381413,1.1744940000000001,-0.407602,-0.709064,33.6875,-54.495,38.605
1304,9381511,1.176568,-0.450058,-0.6673399999999999,27.16,-39.7425,28.9625
1305,9381609,1.155584,-0.374662,-0.660874,21.6825,-28.2975,14.1225
1306,9381707,1.1364299999999998,-0.304146,-0.637938,14.8925,-19.985,-3.1325
1307,9381805,1.0493219999999999,-0.22496799999999997,-0.612318,9.7475,-16.8875,-21.1575
1308,9381903,1.00711,-0.128466,-0.58255,6.51,-18.4625,-34.2475
1309,9382001,0.95831,-0.01281,-0.543632,4.0075,-22.4175,-43.7675
1310,9382099,0.88023,0.08564401,-0.49776000000000004,4.3925,-27.2475,-50.89
1311,9382197,0.78263,0.15237799999999999,-0.451888,8.4525,-31.4825,-57.155
1312,9382295,0.732122,0.20264200000000002,-0.422608,15.4175,-36.1725,-62.1425
1313,9382393,0.7015,0.270962,-0.392108,23.0475,-39.515,-64.4
1314,9382491,0.661606,0.315004,-0.36282800000000004,29.9775,-40.6,-66.6925
1315,9382588,0.6378159999999999,0.331352,-0.344894,35.175,-40.88,-70.4725
1316,9382686,0.565104,0.309514,-0.32513000000000003,38.7975,-41.3525,-72.3625
1317,9382784,0.545218,0.21228000000000002,-0.316224,40.67,-41.3875,-76.965
1318,9382882,0.51484,0.19459,-0.311222,42.805,-40.6875,-76.6675
1319,9382980,0.5260640000000001,0.165798,-0.290848,44.31,-39.13,-77.5775
1320,9383078,0.5486340000000001,0.12895399999999999,-0.28731,46.2875,-33.7575,-76.405
1321,9383176,0.571814,0.054167999999999994,-0.27279200000000003,50.225,-24.64,-76.405
1322,9383274,0.5675439999999999,0.031110000000000002,-0.261934,52.1325,-16.4325,-73.255
1323,9383372,0.5579061,0.016104,-0.251076,53.3925,-13.93,-70.14
1324,9383470,0.5694961,0.011468,-0.237656,53.7775,-12.635,-65.6775
1325,9383568,0.5919439999999999,-0.008906,-0.226798,53.795,-9.4675,-59.0275
1326,9383666,0.623542,-0.048312,-0.227042,53.7425,-4.69,-51.17
1327,9383763,0.6470880999999999,-0.072956,-0.22252800000000003,54.4775,1.1375,-43.6275
1328,9383861,0.6603859999999999,-0.05856,-0.225212,54.6,8.0675,-34.9475
1329,9383959,0.6872261,-0.038551999999999996,-0.23680199999999998,55.615,17.185,-26.6525
1330,9384057,0.71797,-0.04514,-0.251198,57.435,28.77,-20.1075
1331,9384155,0.702354,-0.091378,-0.28072199999999997,61.6175,40.67,-11.935
1332,9384253,0.70394,-0.144082,-0.43358800000000003,63.07,50.75,-5.0575
1333,9384351,0.8105680000000001,-0.310612,-0.45383999999999997,57.96,56.9975,2.1175
1334,9384449,0.9453780999999999,-0.50142,-0.5380199999999999,53.4275,59.0625,7.63
1335,9384547,1.0828719999999998,-0.567788,-0.49532,35.595,40.5825,8.1725
1336,9384645,1.184376,-0.480192,-0.353678,13.8775,15.2075,6.1775
1337,9384743,1.248792,-0.364292,-0.281942,-4.1475,-4.6025,-0.8400001
1338,9384841,1.2688,-0.235704,-0.245098,-26.005,-26.74,-8.19
1339,9384939,1.181448,-0.13908,-0.30256,-47.74,-40.81,-11.8125
1340,9385036,1.0687200000000001,-0.11248399999999999,-0.47031000000000006,-56.7525,-32.165,-10.2725
1341,9385134,0.992348,-0.07893401,-0.6326921,-55.93,-13.9825,-4.725
1342,9385232,0.9744141,0.015006,-0.74725,-44.905,4.8125,-6.23
1343,9385330,0.983564,0.143716,-0.803126,-27.1425,27.9475,-19.18
1344,9385428,1.0200420000000001,0.132126,-0.788852,-15.8725,43.645,-31.535
1345,9385526,1.043344,0.017202000000000002,-0.768112,-17.0625,43.295,-36.855
1346,9385624,1.003694,-0.100406,-0.740296,-16.485,35.6125,-37.555
1347,9385722,0.917074,-0.180072,-0.823622,-17.1325,32.9525,-44.765
1348,9385820,0.9214661,-0.24888000000000002,-0.942694,-24.0275,29.365,-57.225
1349,9385918,0.9686799999999999,-0.30866,-0.9018241,-28.42,17.4125,-67.2525
1350,9386016,0.9921040999999999,-0.3782,-0.8591241,-28.9625,2.6425,-75.6175
1351,9386114,0.9850280999999999,-0.215574,-0.8729100000000001,-42.2625,-20.2825,-76.44001
1352,9386211,1.021872,0.036966000000000006,-0.8633940000000001,-43.365,-29.82,-76.475
1353,9386309,1.139114,0.202032,-0.8524139999999999,-28.4375,-27.37,-73.9375
1354,9386407,1.2530620000000001,0.25559,-0.8274040000000001,-17.0275,-27.615,-65.59
1355,9386505,1.2761200000000001,0.21045,-0.77775,-2.66,-21.5425,-51.4325
1356,9386603,1.180472,0.151158,-0.7320001,7.945,-18.76,-32.0425
1357,9386701,1.066768,0.11211800000000001,-0.6542859999999999,17.36,-19.4775,-14.6825
1358,9386799,0.964776,0.07686,-0.5827939999999999,24.0975,-19.0575,-2.6425
1359,9386897,0.8904780000000001,0.002684,-0.5352140000000001,26.3375,-19.18,0.6475
1360,9386995,0.8222799999999999,-0.08527801,-0.49471000000000004,27.72,-20.1425,-1.3125
1361,9387093,0.735172,-0.154818,-0.44078599999999996,27.615,-23.485,-3.465
1362,9387191,0.6420859999999999,-0.16958,-0.38125,25.55,-26.425,-5.25
1363,9387288,0.5941401,-0.18605,-0.360632,22.2425,-26.7575,-6.09
1364,9387386,0.5723020999999999,-0.230336,-0.339526,19.4425,-26.705,-5.39
1365,9387484,0.517646,-0.183,-0.326472,15.0325,-28.0525,-3.045
1366,9387582,0.49288000000000004,-0.13847,-0.28914,11.4625,-27.4575,-3.4825
1367,9387680,0.476288,-0.127368,-0.25424800000000003,7.84,-24.4475,-0.8225
1368,9387778,0.489464,-0.12175599999999999,-0.23424,5.95,-20.545,1.9775
1369,9387876,0.532896,-0.09638,-0.22033200000000003,2.0125,-15.3825,3.36
1370,9387974,0.605608,-0.074786,-0.226066,-0.5075,-9.3625,3.9025
1371,9388072,0.6706340000000001,-0.069906,-0.230702,-1.12,-5.7225,6.58
1372,9388169,0.733952,-0.05929201,-0.25986,-0.9275,-7.0,8.1375
1373,9388267,0.7388319999999999,-0.014152000000000001,-0.275354,-2.17,-11.375,9.38
1374,9388365,0.726144,-0.049166,-0.2745,-3.08,-15.645,7.0
1375,9388463,0.715164,-0.053191999999999996,-0.272914,-3.2725,-17.5,5.67
1376,9388561,0.723826,-0.102602,-0.270962,-3.4475,-15.6975,2.52
1377,9388659,0.743224,-0.168726,-0.27999,-2.0125,-10.85,-1.505
1378,9388757,0.7468840999999999,-0.174094,-0.302316,-2.3625,-5.74,-5.8625
1379,9388855,0.707112,-0.16775,-0.321714,-7.42,-0.1925,-11.13
1380,9388953,0.682956,-0.164456,-0.338062,-12.81,6.93,-18.515
1381,9389051,0.6612401,-0.08906,-0.306098,-20.2125,17.5525,-25.1475
1382,9389149,0.6633141,-0.008540001,-0.402844,-26.6175,25.06,-30.4325
1383,9389247,0.7056479999999999,0.188612,-0.496784,-32.4275,21.2275,-32.8825
1384,9389345,0.7999539999999999,0.355752,-0.556686,-34.615,15.015,-37.03
1385,9389442,0.969534,0.39271799999999996,-0.5361899999999999,-28.6475,8.015,-39.655
1386,9389540,1.153144,0.362218,-0.4594521,-16.9575,2.5375,-39.83
1387,9389638,1.274778,0.310856,-0.392108,-0.63,-0.6475,-40.1275
1388,9389736,1.21268,0.25363800000000003,-0.391376,21.2275,-8.0325,-42.35
1389,9389834,1.0851899999999999,0.17763199999999998,-0.444934,44.345,-14.1575,-46.7075
1390,9389932,0.9897860999999999,0.099674,-0.5547340000000001,59.3425,-7.98,-52.8675
1391,9390030,0.904752,-0.031110000000000002,-0.7074779999999999,73.15,11.935,-54.4075
1392,9390128,0.8308200000000001,-0.10089400000000001,-0.81862,82.3025,38.605,-51.065
1393,9390226,0.760304,0.009028000999999999,-0.9734381,85.4525,68.215,-46.62
1394,9390324,0.734196,0.170068,-1.15717,89.9675,91.455,-42.6825
1395,9390422,0.85888,0.30988000000000004,-1.203042,99.9075,96.04,-34.2125
1396,9390520,1.04554,0.40894400000000003,-1.0795780000000001,104.37,87.6575,-16.0125
1397,9390618,1.086288,0.40223400000000004,-0.8869401,106.5575,54.9325,2.8525
1398,9390715,0.85583,0.308172,-0.712358,114.4675,0.56,5.53
1399,9390813,0.59658,0.170068,-0.711382,121.905,-30.2925,-3.5525
1400,9390911,0.6095119999999999,-0.06356201,-0.746152,122.57,-34.405,-9.205
1401,9391009,0.9046301,-0.17580199999999999,-0.74054,115.395,-33.2675,-13.9475
1402,9391107,1.11447,-0.141398,-0.7176041,108.9375,-30.1525,-24.955
1403,9391205,1.101782,-0.08405800000000001,-0.7622561,108.7975,-19.8275,-39.7775
1404,9391303,1.1094680000000001,-0.007076001,-0.758718,111.37,-7.7175,-57.785
1405,9391401,1.149972,0.06539201,-0.7449321,113.9075,-0.525,-75.075
1406,9391499,1.121546,0.17360599999999998,-0.7178479999999999,116.8475,1.3125,-91.0175
1407,9391597,1.079944,0.312686,-0.657092,125.7725,2.5025,-105.0875
1408,9391695,1.001376,0.442616,-0.58377,140.1925,2.835,-113.8025
1409,9391790,0.9125601000000001,0.528748,-0.513498,154.3675,-1.785,-119.5075
1410,9391888,0.8271601000000001,0.6409881,-0.46762600000000004,165.55,-9.345,-124.46
1411,9391986,0.820572,0.6691699999999999,-0.425414,175.595,-17.7975,-133.07
1412,9392084,0.8481440999999998,0.576206,-0.403088,185.4125,-25.2875,-141.8725
1413,9392182,0.8873059999999999,0.494588,-0.358558,195.5625,-31.08,-148.9425
1414,9392280,0.925736,0.427976,-0.27889200000000003,205.135,-34.475,-155.785
1415,9392378,0.9702661,0.33428,-0.23973000000000003,215.39,-35.245,-162.225
1416,9392476,1.008208,0.24583000000000002,-0.183122,222.3025,-34.2825,-167.65
1417,9392574,1.05103,0.138348,-0.15420799999999998,227.5875,-32.27,-170.275
1418,9392672,1.044564,0.00549,-0.149694,227.92,-32.06,-170.52
1419,9392770,0.9823440999999999,-0.087108,-0.11919400000000001,224.6125,-30.695,-167.37
1420,9392867,0.928176,-0.163114,-0.09223200000000001,218.8025,-28.0525,-161.945
1421,9392965,0.8935280999999999,-0.220088,-0.07808001,209.9825,-23.835,-155.54
1422,9393063,0.8611979999999999,-0.29951,-0.068076,200.0075,-19.0925,-147.1575
1423,9393161,0.8277700000000001,-0.360266,-0.06466001,188.0025,-15.0325,-137.795
1424,9393259,0.7865340000000001,-0.434198,-0.05002,176.715,-9.38,-128.2575
1425,9393357,0.757254,-0.484828,-0.023546,167.2825,-2.03,-118.37
1426,9393455,0.72651,-0.550952,-0.026718000000000002,159.285,2.31,-109.515
1427,9393553,0.650748,-0.574986,-0.067832,148.54,-1.8375,-101.0625
1428,9393651,0.617442,-0.554002,-0.122244,138.3025,-8.82,-94.30751
1429,9393749,0.5579061,-0.43346599999999996,-0.182268,131.215,-9.275,-88.53251
1430,9393847,0.558272,-0.288164,-0.31781,124.2325,-4.0075,-85.295
1431,9393944,0.585356,-0.225334,-0.44115200000000004,118.6325,3.5525,-80.465
1432,9394042,0.656116,-0.26169000000000003,-0.492514,114.3625,12.2325,-73.5875
1433,9394140,0.752496,-0.344894,-0.5734,107.45,12.285,-66.0625
1434,9394238,0.8226459999999999,-0.331474,-0.605364,89.11,0.07,-56.8225
1435,9394336,0.8690061,-0.195322,-0.516792,78.7325,-3.15,-51.4325
1436,9394434,0.941718,-0.08369201,-0.429806,81.81251,6.1775,-53.375
1437,9394532,1.004182,-0.014152000000000001,-0.43322200000000005,79.8525,14.315,-54.845
1438,9394630,0.995764,-0.002074,-0.5161819999999999,72.2925,12.81,-54.4425
1439,9394728,0.968192,-0.023302,-0.5692520000000001,69.37,5.46,-53.2875
1440,9394826,0.9625799999999999,-0.014396,-0.648796,74.76,3.115,-53.97
1441,9394924,0.9141459999999999,-0.004392,-0.7041841,77.6125,4.165,-56.4025
1442,9395021,0.8805960999999999,-0.036112,-0.77287,82.46,10.9375,-60.375
1443,9395119,0.885476,-0.086864,-0.8735200000000001,87.99,15.6275,-66.3075
1444,9395217,0.9389120000000001,-0.127368,-0.9320801,89.74,14.665,-75.985
1445,9395315,1.001376,-0.19580999999999998,-0.9801479999999999,89.74,12.46,-89.1975
1446,9395413,1.040294,-0.242902,-1.00894,86.27501,10.5875,-100.975
1447,9395511,1.047492,-0.259372,-0.9385460999999999,81.74251,9.5725,-110.145
1448,9395609,0.9874681000000001,-0.22386999999999999,-0.8428979999999999,77.49,7.56,-119.315
1449,9395707,0.926834,-0.072956,-0.8182541,77.0175,2.3275,-128.5375
1450,9395805,0.9675819999999999,0.20923000000000003,-0.782752,79.6425,-3.815,-130.6375
1451,9395903,1.1003180000000001,0.345016,-0.714066,90.7375,-4.97,-123.13
1452,9396001,1.11569,0.32452,-0.669658,105.0175,-9.0825,-112.595
1453,9396098,1.042124,0.2562,-0.6663640000000001,118.475,-15.155,-103.6875
1454,9396196,0.9934460999999999,0.183,-0.595238,129.64,-15.12,-97.965
1455,9396294,0.9494040000000001,0.109922,-0.5260640000000001,139.7375,-12.4075,-93.8175
1456,9396392,0.906948,0.077592,-0.464088,147.8225,-10.3775,-90.89499
1457,9396490,0.8697379999999999,0.030987999999999998,-0.432612,152.6175,-8.7325,-89.72251
1458,9396588,0.860344,-0.040382,-0.41370200000000007,154.4375,-7.875,-88.655
1459,9396686,0.8559521000000001,-0.077714,-0.409066,153.825,-7.42,-87.7275
1460,9396784,0.8388721,-0.07808001,-0.401014,151.1475,-8.2425,-87.95501
1461,9396882,0.8003201,-0.10321199999999998,-0.364536,148.1025,-8.575,-89.72251
1462,9396980,0.756888,-0.131272,-0.353678,146.2125,-8.3125,-91.1225
1463,9397078,0.734684,-0.13859200000000002,-0.328302,145.285,-9.0125,-91.8225
1464,9397176,0.7357821,-0.14713199999999999,-0.310856,142.205,-7.7875,-93.135
1465,9397273,0.724924,-0.164212,-0.285846,138.88,-6.7725,-91.7525
1466,9397371,0.7245581,-0.217282,-0.291092,133.3675,-6.825,-89.9675
1467,9397469,0.7357821,-0.25351599999999996,-0.287432,127.4175,-7.8575,-87.045
1468,9397567,0.7640859999999999,-0.27510999999999997,-0.28304,120.645,-9.1525,-82.705
1469,9397665,0.7849480999999999,-0.318786,-0.276696,114.0125,-9.8,-79.45
1470,9397763,0.799466,-0.353556,-0.28926199999999996,106.1375,-8.2425,-74.4975
1471,9397861,0.817766,-0.383812,-0.29219,99.03251,-5.495,-68.72251
1472,9397959,0.862296,-0.390278,-0.311832,93.765,-2.8175,-62.16
1473,9398057,0.8876719999999999,-0.371246,-0.338062,89.2675,-0.7,-56.0
1474,9398155,0.856074,-0.362462,-0.3538,84.49,0.2625,-53.3575
1475,9398253,0.842166,-0.362584,-0.365634,81.06,1.1025,-52.535
1476,9398350,0.826672,-0.342088,-0.38295799999999997,77.6475,2.73,-49.8925
1477,9398448,0.7890961,-0.30927,-0.399916,73.885,5.4775,-46.8825
1478,9398546,0.729316,-0.28181999999999996,-0.398086,68.11,8.4525,-44.6775
1479,9398644,0.70394,-0.259372,-0.40528400000000003,60.165,12.635,-43.61
1480,9398742,0.728218,-0.24131599999999997,-0.391376,52.0975,16.59,-43.12
1481,9398840,0.767868,-0.219234,-0.401258,43.5925,20.3525,-41.195
1482,9398938,0.8641260000000001,-0.22118600000000002,-0.40894400000000003,36.61,24.1325,-38.885
1483,9399036,0.9862479999999999,-0.23887600000000003,-0.4148,30.555,28.28,-33.845
1484,9399134,1.112152,-0.223016,-0.41175,27.58,32.375,-28.805
1485,9399232,1.220488,-0.17568,-0.404308,26.635,33.2675,-24.1325
1486,9399330,1.299544,-0.14493599999999998,-0.414312,30.6075,29.12,-18.76
1487,9399428,1.34261,-0.141398,-0.403942,35.5075,21.42,-14.5775
1488,9399525,1.304546,-0.17238599999999998,-0.375638,40.5825,13.825,-12.0225
1489,9399623,1.2444,-0.255956,-0.354166,45.0275,8.47,-10.9025
1490,9399721,1.194502,-0.340014,-0.429684,46.6725,5.67,-9.6425
1491,9399819,1.122766,-0.404064,-0.649284,50.225,14.385,-10.185
1492,9399917,1.0290700000000002,-0.37393000000000004,-0.823378,58.625,40.005,-13.3875
1493,9400015,0.8663219999999999,-0.240706,-0.8077621,66.7275,69.895,-16.1
1494,9400113,0.7792140000000001,-0.06539201,-0.7829961,70.8225,83.37001,-21.4725
1495,9400211,0.741028,0.07246799999999999,-0.7589621,70.6825,71.155,-26.7925
1496,9400309,0.7348060000000001,0.161162,-0.6954,68.355,40.6175,-27.7725
1497,9400407,0.68198,0.17763199999999998,-0.669658,70.455,10.71,-27.37
1498,9400505,0.606584,0.18056,-0.6928380000000001,76.0025,-10.465,-27.79
1499,9400603,0.561932,0.193248,-0.73932,78.225,-26.4425,-27.2125
1500,9400700,0.610488,0.165554,-0.763598,78.2075,-39.41,-25.5325
1501,9400798,0.707356,0.162382,-0.801906,76.9475,-50.54,-26.0925
1502,9400896,0.8115439999999999,0.164822,-0.812032,78.62751,-55.615,-27.4225
1503,9400994,0.9906401,0.09650201,-0.808372,80.255,-55.685,-33.88
1504,9401092,1.139114,-0.041724000000000004,-0.81252,85.435,-52.78,-43.8025
1505,9401190,1.208776,-0.109678,-0.775188,86.94,-45.85,-53.9
1506,9401288,1.189378,-0.19215,-0.712114,86.6775,-37.87,-65.8875
1507,9401386,1.081896,-0.245342,-0.658068,85.1025,-33.1625,-76.02
1508,9401484,0.9878341,-0.23058,-0.6067060000000001,81.53251,-31.4825,-87.2375
1509,9401582,0.956968,-0.278648,-0.557296,79.275,-31.0625,-96.84501
1510,9401680,0.8912100000000001,-0.18666,-0.510204,78.5225,-30.7475,-96.3725
1511,9401778,0.8547319999999999,-0.12651400000000002,-0.484096,74.62,-31.7625,-99.47001
1512,9401875,0.786778,-0.062220000000000004,-0.45603599999999994,74.305,-32.2175,-100.415
1513,9401973,0.7299260999999999,-0.01586,-0.43981000000000003,72.06501,-32.7075,-99.9425
1514,9402071,0.6993041,0.00305,-0.428342,71.33,-33.0575,-99.75
1515,9402169,0.6694140000000001,0.08906,-0.42858599999999997,71.54,-32.1825,-97.1075
1516,9402267,0.654408,0.11163,-0.42285200000000006,70.7175,-30.2225,-99.96
1517,9402365,0.619638,0.09272000000000001,-0.407968,72.9925,-26.6875,-97.26501
1518,9402463,0.651602,0.063196,-0.410774,74.25251,-23.4675,-96.8275
1519,9402561,0.66185,0.058803999999999995,-0.411872,74.27,-19.495,-94.395
1520,9402659,0.686372,0.020008,-0.396988,75.35501,-13.5625,-92.34751
1521,9402757,0.670268,0.030256,-0.377834,72.275,-8.33,-88.18251
1522,9402855,0.625738,-0.005734,-0.36844,67.6375,-4.9875,-84.805
1523,9402952,0.5945060000000001,-0.045994,-0.356606,64.33,-1.3475,-80.78
1524,9403050,0.5769380999999999,-0.07832401,-0.332206,59.8325,2.2575,-76.4575
1525,9403148,0.571448,-0.14457,-0.301218,55.44,6.5275,-70.7525
1526,9403246,0.586942,-0.160796,-0.25315,50.9775,13.055,-66.22
1527,9403344,0.61183,-0.139934,-0.217038,44.4675,19.635,-58.2925
1528,9403442,0.6250060000000001,-0.182268,-0.208986,37.065,25.4275,-49.8225
1529,9403540,0.64172,-0.233508,-0.21862399999999999,30.8175,30.765,-41.51
1530,9403638,0.65941,-0.25559,-0.23021399999999997,28.42,35.3675,-34.4225
1531,9403736,0.712114,-0.26718000000000003,-0.241194,24.9725,38.36,-28.5775
1532,9403834,0.75945,-0.21752600000000002,-0.271572,23.415,40.145,-22.015
1533,9403932,0.815082,-0.167018,-0.33061999999999997,15.925,33.6875,-13.545
1534,9404030,0.8632719999999999,-0.145302,-0.462136,8.3825,24.85,-4.165
1535,9404127,0.9394,-0.09320801,-0.5636399999999999,2.66,21.8225,2.9925
1536,9404225,1.03151,-0.06527000000000001,-0.6201260000000001,1.7325,25.4275,8.3475
1537,9404323,1.10776,-0.0854,-0.6117081,2.59,25.8125,10.5525
1538,9404421,1.165832,-0.11163,-0.5130100000000001,-2.1525,18.935,11.3575
1539,9404519,1.22793,-0.07515201,-0.410774,-6.51,10.675,9.6425
1540,9404617,1.2378120000000001,-0.034648000000000005,-0.344894,-6.685,3.675,6.3875
1541,9404715,1.223172,-0.032451999999999995,-0.30182800000000004,-7.4725,-3.5,3.36
1542,9404813,1.153266,-0.049532,-0.295484,-8.75,-13.125,2.2225
1543,9404911,1.178398,-0.012931999999999999,-0.330254,-8.1375,-25.7425,2.5375
1544,9405009,1.158024,0.050142,-0.422608,-2.4675,-34.615,3.5525
1545,9405107,1.106662,0.228262,-0.580842,3.8675,-35.1925,-0.245
1546,9405205,1.0206520000000001,0.3721,-0.6481859999999999,14.7875,-17.22,-8.0675
1547,9405303,0.8937719999999999,0.406016,-0.757742,20.895,12.705,-13.4225
1548,9405401,0.70577,0.276086,-0.800076,22.3125,40.075,-14.6475
1549,9405498,0.567056,0.07893401,-0.9141459999999999,23.205,58.275,-15.1025
1550,9405596,0.5203300000000001,-0.091988,-1.076162,21.8575,64.34751,-19.4075
1551,9405694,0.6378159999999999,-0.21667199999999998,-1.1964540000000001,23.3275,74.025,-33.6
1552,9405792,1.098854,-0.383446,-1.013454,33.6,94.30751,-62.58
1553,9405890,1.47376,-0.629764,-0.677466,25.55,70.945,-74.9175
1554,9405988,1.192672,-0.574498,-0.677344,-31.815,-3.2375,-59.6225
1555,9406086,0.658312,-0.396622,-0.796782,-61.705,-46.375,-37.485
1556,9406184,0.530212,-0.32513000000000003,-0.8248421,-48.1425,-52.0975,-24.4825
1557,9406282,0.747494,-0.14188599999999998,-0.8327720999999999,-31.3425,-54.8625,-25.3225
1558,9406380,0.9749021000000001,-0.011590000000000001,-0.8311860999999999,-18.3225,-52.605,-23.6775
1559,9406478,1.0285819999999999,0.05843801,-0.787632,-10.0625,-41.65,-12.635
1560,9406576,1.037976,0.085522,-0.7406621,-9.695,-31.1675,-2.9575
1561,9406674,0.9903959999999999,0.11138599999999999,-0.6794180000000001,-5.25,-20.1075,8.96
1562,9406772,0.9142680000000001,0.10553,-0.628422,-4.375,-14.2275,18.97
1563,9406870,0.8499741,0.035868000000000004,-0.576206,-1.3125,-12.8975,27.8425
1564,9406967,0.787876,-0.002806,-0.5214281,-0.5425,-14.9625,36.2775
1565,9407065,0.7107720000000001,-0.07381001,-0.47677600000000003,-0.4025,-16.87,38.8675
1566,9407163,0.6569699999999999,-0.160796,-0.440054,-0.3325,-18.655,40.53
1567,9407261,0.6098779999999999,-0.211792,-0.425292,-3.15,-19.8975,42.8925
1568,9407359,0.58133,-0.253882,-0.386008,-5.9325,-19.0925,46.095
1569,9407457,0.540216,-0.27523200000000003,-0.36648800000000004,-12.145,-18.1475,48.055
1570,9407555,0.51118,-0.249856,-0.34099,-17.955,-16.9925,49.14
1571,9407653,0.527162,-0.206668,-0.315004,-24.7975,-15.7675,49.77
1572,9407751,0.521184,-0.191418,-0.324154,-31.5875,-16.1525,54.1975
1573,9407849,0.550708,-0.172996,-0.322202,-33.95,-14.4725,55.475
1574,9407947,0.5854779999999999,-0.141276,-0.30341399999999996,-37.66,-11.445,55.72
1575,9408045,0.60512,-0.08100801,-0.301218,-36.5925,-5.81,54.32
1576,9408143,0.632326,-0.023058000000000002,-0.28304,-33.9325,0.385,51.9225
1577,9408241,0.6634359999999999,0.057339999999999995,-0.2684,-32.6025,6.7375,49.9275
1578,9408338,0.663192,0.076494,-0.25351599999999996,-30.6425,13.2125,47.6525
1579,9408436,0.633302,0.090768,-0.26596,-28.8925,19.74,43.9075
1580,9408534,0.618784,0.04392,-0.277672,-27.895,26.0925,34.475
1581,9408632,0.67405,-0.004148001,-0.30109600000000003,-26.88,31.815,26.4775
1582,9408730,0.6755140000000001,-0.014152000000000001,-0.344528,-26.985,37.2925,22.015
1583,9408828,0.690642,-0.050508,-0.398574,-31.815,38.6925,17.4825
1584,9408926,0.756034,-0.08906,-0.426512,-35.84,38.7625,12.215
1585,9409024,0.787388,-0.080154,-0.441884,-42.3675,40.005,4.2875
1586,9409122,0.8244761,-0.05160601,-0.46603999999999995,-43.7325,42.07,-3.9025
1587,9409220,0.8904780000000001,0.011956,-0.47336000000000006,-41.9825,42.1575,-7.2275
1588,9409318,1.0140639999999999,0.16530999999999998,-0.45713400000000004,-43.1375,43.3125,-10.08
1589,9409416,1.191818,0.318176,-0.5042260000000001,-39.48,43.2075,-8.2775
1590,9409513,1.4015360000000001,0.391254,-0.499468,-24.6225,38.9725,-4.6375
1591,9409611,1.587342,0.362584,-0.440176,-6.02,30.2575,-0.105
1592,9409709,1.551962,0.298046,-0.36587800000000004,14.0,9.52,5.9325
1593,9409807,1.345294,0.224602,-0.30683,30.59,-21.665,7.0875
1594,9409905,1.18767,0.09784401,-0.311222,40.74,-46.2175,4.6725
1595,9410003,1.1211799999999998,-0.060024,-0.410774,41.3875,-49.4375,1.365
1596,9410101,1.075186,-0.20556999999999997,-0.526674,39.9,-26.5825,1.6975
1597,9410199,0.9702661,-0.2928,-0.647576,38.9025,8.4875,3.4475
1598,9410297,0.8945040000000001,-0.249002,-0.75213,34.79,42.035,3.745
1599,9410395,0.7483479999999999,-0.14798599999999998,-0.8752280000000001,34.755,63.8925,5.32
1600,9410493,0.5784020000000001,-0.061854,-0.9290299999999999,40.7225,61.88,8.505
1601,9410590,0.529846,0.09345201,-0.8930401,43.925,50.47,12.845
1602,9410688,0.643306,0.220088,-0.8773021000000001,43.7325,45.57,17.5875
1603,9410786,0.791536,0.178242,-0.869128,48.7725,34.37,29.4
1604,9410884,0.8592460999999999,0.177266,-0.77104,51.345,7.315,46.095
1605,9410982,0.8592460999999999,0.173362,-0.721874,51.9925,-29.1025,55.8425
1606,9411080,0.823744,0.058316,-0.7671359999999999,52.9025,-57.82,56.5775
1607,9411178,0.91012,-0.136274,-0.8072741,41.4925,-63.7,52.3425
1608,9411276,1.244766,-0.36966,-0.763476,28.1225,-51.065,43.68
1609,9411374,1.280024,-0.42138809999999993,-0.699792,18.9,-36.2775,35.245
1610,9411472,1.212192,-0.386862,-0.671976,11.2175,-25.4975,18.8825
1611,9411570,1.137284,-0.360632,-0.638304,4.06,-20.4225,0.63
1612,9411668,1.006988,-0.310856,-0.597068,-3.2725,-22.68,-16.3275
1613,9411766,0.930982,-0.21862399999999999,-0.567178,-6.79,-26.4075,-26.705
1614,9411863,0.8781559999999999,-0.102602,-0.534482,-10.5875,-31.64,-32.9525
1615,9411961,0.8314301,0.04819,-0.488976,-13.545,-36.9425,-37.17
1616,9412059,0.7479819999999999,0.12017,-0.449692,-13.58,-40.635,-42.9275
1617,9412157,0.661728,0.13761600000000002,-0.41260399999999997,-8.155,-43.5225,-47.075
1618,9412255,0.58133,0.21374400000000002,-0.381494,-5.1275,-45.605,-48.6325
1619,9412353,0.52704,0.316102,-0.362218,-1.575,-45.2025,-54.1975
1620,9412451,0.479338,0.29743600000000003,-0.337086,3.465,-43.715,-63.56
1621,9412549,0.42858599999999997,0.22362600000000002,-0.327936,8.1375,-40.8625,-65.66
1622,9412647,0.42395,0.171776,-0.32452,11.6725,-37.3975,-65.415
1623,9412745,0.44200600000000007,0.14871800000000002,-0.316346,13.6325,-34.3175,-66.2375
1624,9412843,0.472628,0.16165,-0.304268,13.545,-32.2175,-65.205
1625,9412941,0.49910200000000005,0.09125599999999999,-0.293898,15.995,-26.4425,-62.1425
1626,9413038,0.5410699999999999,0.049532,-0.282674,21.1575,-14.28,-61.5475
1627,9413136,0.551562,0.019032,-0.26095799999999997,24.045,-4.3575,-56.8925
1628,9413234,0.571326,-0.052582000000000004,-0.261446,25.83,-0.8400001,-53.13
1629,9413332,0.588406,-0.06356201,-0.270596,28.0525,-2.2575,-45.815
1630,9413430,0.625738,-0.060024,-0.259494,30.7825,-4.7075,-37.485
1631,9413528,0.6767340000000001,-0.023058000000000002,-0.24631799999999998,33.2325,-4.235,-28.2975
1632,9413626,0.72224,0.01281,-0.240706,32.8825,-0.2975,-19.9325
1633,9413724,0.765306,-0.014274,-0.245464,32.34,2.905,-14.42
1634,9413822,0.791048,-0.02074,-0.26900999999999997,32.865,4.76,-11.0775
1635,9413920,0.790804,-0.016836,-0.308172,35.175,8.1025,-7.5775
1636,9414018,0.7704300000000001,-0.024522,-0.44249399999999994,41.6325,14.5425,-4.9525
1637,9414116,0.8250860000000001,-0.064538,-0.596336,44.9925,21.5775,0.0525
1638,9414213,0.928176,-0.14945,-0.578158,42.665,36.225,4.9875
1639,9414311,1.086776,-0.363682,-0.579378,44.17,53.76,4.1825
1640,9414409,1.239276,-0.502518,-0.506422,30.7475,48.8075,2.4675
1641,9414507,1.3285799999999999,-0.316346,-0.349164,0.7,24.535,0.4025
1642,9414605,1.33041,-0.19580999999999998,-0.220088,-20.79,2.2925,-6.2475
1643,9414703,1.269166,-0.268644,-0.156038,-27.475,-12.9325,-9.7825
1644,9414801,1.201578,-0.205692,-0.311222,-45.3425,-39.4275,-8.4175
1645,9414899,1.176202,-0.107116,-0.56547,-57.82,-52.78,-3.815
1646,9414997,1.1659540000000002,0.021106,-0.7482261,-55.125,-37.9575,-1.3125
1647,9415095,1.1242299999999998,0.175924,-0.8855980999999999,-42.665,-9.2225,-7.8225
1648,9415193,1.104466,0.23472800000000002,-0.845216,-24.1675,26.6175,-19.1275
1649,9415291,0.972218,0.11895,-0.8777901,-8.75,55.755,-25.725
1650,9415388,0.8521700999999999,0.010004,-1.0201639999999998,-25.4975,48.37,-27.1425
1651,9415486,0.822524,-0.050874,-0.9528200000000001,-49.875,31.01,-29.0325
1652,9415584,0.762988,-0.16592,-0.8555860999999999,-33.355,43.9775,-37.31
1653,9415682,0.9076799999999999,-0.360144,-0.777872,-21.8575,40.215,-46.2525
1654,9415780,0.9744141,-0.36295,-0.739808,-50.995,-3.325,-43.8725
1655,9415878,0.845582,-0.23887600000000003,-0.7406621,-68.845,-39.515,-38.36
1656,9415976,0.708576,-0.139202,-0.796294,-66.5175,-53.8125,-33.565
1657,9416074,0.759572,-0.019886,-0.8300879999999999,-58.7125,-56.7175,-30.17
