,T,ax,ay,az,gx,gy,gz
0,184449,0.471896,0.09320801,-0.7044279999999999,17.71,-18.4625,-17.6225
1,184600,0.49263599999999996,0.100284,-0.798856,116.97,-133.28,-87.8325
2,184697,0.523868,0.10614000000000001,-0.8532681000000001,124.005,-146.7375,-48.8775
3,184794,0.52582,0.109556,-0.8493641,59.5,-103.46,-33.005
4,184891,0.5246,0.1098,-0.846924,3.185,-4.515,-3.6925
5,184988,0.5260640000000001,0.107848,-0.849608,1.96,-2.3975,-3.01
6,185085,0.526552,0.10858,-0.8513161,1.96,-2.3625,-3.0275
7,185183,0.52704,0.10760399999999999,-0.8513161,1.96,-2.275,-3.08
8,185280,0.5260640000000001,0.107848,-0.850584,2.0475,-2.345,-3.0275
9,185377,0.526552,0.108824,-0.8520479999999999,2.03,-2.3625,-3.0275
10,185474,0.527528,0.10906800000000001,-0.8513161,1.995,-2.38,-3.045
11,185571,0.525332,0.10760399999999999,-0.85156,2.03,-2.3975,-3.0975
12,185668,0.526308,0.108824,-0.8525360000000001,1.995,-2.275,-2.9925
13,185765,0.5267960999999999,0.109556,-0.8525360000000001,2.03,-2.3975,-2.975
14,185862,0.525576,0.107848,-0.8510719999999999,2.03,-2.5025,-2.975
15,185959,0.52582,0.10858,-0.850096,2.1,-2.3975,-3.01
16,186056,0.5246,0.10760399999999999,-0.8508280999999999,2.17,-2.38,-2.94
17,186153,0.5267960999999999,0.10760399999999999,-0.8525360000000001,2.065,-2.4325,-2.975
18,186250,0.527772,0.107848,-0.849608,2.0475,-2.4325,-2.9925
19,186347,0.52704,0.10809200000000001,-0.8518040000000001,2.0825,-2.31,-3.08
20,186444,0.527772,0.10809200000000001,-0.8510719999999999,1.96,-2.345,-3.08
21,186542,0.52582,0.10833599999999999,-0.8525360000000001,1.9775,-2.2225,-3.01
22,186639,0.524112,0.107848,-0.8513161,1.9425,-2.3275,-3.08
23,186736,0.526552,0.107848,-0.850584,1.925,-2.3625,-3.0975
24,186833,0.527528,0.10687200000000001,-0.8540000000000001,1.9075,-2.345,-3.045
25,186930,0.527284,0.107848,-0.849852,1.96,-2.3625,-2.975
26,187027,0.52704,0.10809200000000001,-0.8518040000000001,1.9425,-2.2925,-3.01
27,187124,0.52704,0.10736,-0.8513161,2.0475,-2.3625,-3.01
28,187221,0.526308,0.107116,-0.8513161,1.9075,-2.24,-3.08
29,187318,0.52582,0.10809200000000001,-0.8518040000000001,1.995,-2.2575,-3.0625
30,187415,0.52582,0.109556,-0.85156,1.96,-2.31,-3.0625
31,187512,0.527528,0.10833599999999999,-0.8510719999999999,1.89,-2.345,-3.0625
32,187609,0.525088,0.107848,-0.8518040000000001,1.9425,-2.275,-3.2025
33,187706,0.5260640000000001,0.108824,-0.8508280999999999,1.9425,-2.345,-3.08
34,187803,0.527284,0.10858,-0.8508280999999999,1.89,-2.3975,-3.1325
35,187901,0.526308,0.10931199999999999,-0.849608,1.89,-2.3275,-3.15
36,187998,0.5267960999999999,0.110044,-0.849608,1.855,-2.3625,-3.1325
37,188095,0.5260640000000001,0.10906800000000001,-0.8488761,1.855,-2.2575,-3.08
38,188192,0.525332,0.10858,-0.85156,1.8375,-2.2225,-3.1325
39,188289,0.524356,0.10760399999999999,-0.8520479999999999,1.8375,-2.3975,-3.0975
40,188386,0.52704,0.10809200000000001,-0.8520479999999999,1.96,-2.3975,-3.15
41,188483,0.526552,0.10858,-0.8518040000000001,1.925,-2.3275,-3.1675
42,188580,0.5260640000000001,0.10931199999999999,-0.850096,1.925,-2.345,-3.1325
43,188677,0.527284,0.10809200000000001,-0.8508280999999999,1.9075,-2.3275,-3.08
44,188774,0.52704,0.10906800000000001,-0.8520479999999999,1.96,-2.3275,-3.15
45,188871,0.5260640000000001,0.10736,-0.8510719999999999,1.9425,-2.2925,-3.1675
46,188968,0.5248441,0.10760399999999999,-0.850096,1.89,-2.2925,-3.185
47,189065,0.524356,0.107116,-0.849608,2.0475,-2.3625,-3.115
48,189162,0.525332,0.10809200000000001,-0.8518040000000001,2.0475,-2.345,-3.0975
49,189260,0.525088,0.106628,-0.8481440999999998,1.96,-2.275,-3.15
50,189357,0.5260640000000001,0.10760399999999999,-0.849608,1.89,-2.3625,-3.2375
51,189454,0.5260640000000001,0.107848,-0.850096,1.8375,-2.3275,-3.2025
52,189551,0.52582,0.10833599999999999,-0.8518040000000001,1.925,-2.3975,-3.185
53,189648,0.524356,0.10858,-0.850584,1.8725,-2.3625,-3.15
54,189745,0.526308,0.10858,-0.8486319999999999,1.96,-2.3625,-3.0975
55,189842,0.525332,0.10906800000000001,-0.85034,1.89,-2.345,-3.1325
56,189939,0.527284,0.10736,-0.8479,1.96,-2.4675,-3.115
57,190036,0.525576,0.105896,-0.8466800999999999,1.9775,-2.3975,-3.115
58,190133,0.526308,0.110776,-0.850096,1.9775,-2.3975,-3.1325
59,190230,0.5260640000000001,0.10931199999999999,-0.85156,2.03,-2.3625,-3.1675
60,190327,0.524112,0.10760399999999999,-0.8508280999999999,1.9425,-2.3625,-3.22
61,190425,0.525332,0.110776,-0.8493641,1.8725,-2.3625,-3.045
62,190522,0.5260640000000001,0.10906800000000001,-0.8491200000000001,1.9075,-2.38,-3.0625
63,190619,0.5248441,0.107848,-0.85156,1.9775,-2.38,-3.115
64,190716,0.52582,0.107848,-0.8488761,1.9425,-2.3275,-3.115
65,190813,0.526552,0.10809200000000001,-0.849608,1.9775,-2.415,-3.0625
66,190910,0.5267960999999999,0.109556,-0.8520479999999999,1.995,-2.4675,-3.0275
67,191007,0.52582,0.107848,-0.8513161,1.96,-2.4325,-3.08
68,191104,0.5246,0.107116,-0.8510719999999999,1.995,-2.4325,-3.0275
69,191201,0.526308,0.10833599999999999,-0.85034,1.995,-2.45,-3.0625
70,191298,0.525088,0.10906800000000001,-0.849608,1.995,-2.3625,-3.0275
71,191395,0.52582,0.10833599999999999,-0.8508280999999999,1.995,-2.45,-3.045
72,191493,0.526552,0.10809200000000001,-0.8518040000000001,1.995,-2.485,-3.115
73,191590,0.526552,0.10906800000000001,-0.849608,2.065,-2.4325,-3.08
74,191687,0.526308,0.10833599999999999,-0.8513161,2.065,-2.5025,-3.0975
75,191784,0.525332,0.10931199999999999,-0.8493641,2.03,-2.555,-3.115
76,191881,0.524356,0.10833599999999999,-0.8491200000000001,2.0475,-2.59,-3.185
77,191978,0.52582,0.10760399999999999,-0.850096,2.0825,-2.5375,-3.1325
78,192075,0.526308,0.10931199999999999,-0.850096,2.0125,-2.485,-3.045
79,192172,0.525088,0.10931199999999999,-0.850584,2.0125,-2.45,-3.0275
80,192269,0.525576,0.108824,-0.8518040000000001,2.065,-2.45,-3.0625
81,192366,0.523868,0.10809200000000001,-0.8483879999999999,2.065,-2.415,-2.9225
82,192463,0.52582,0.110044,-0.8486319999999999,2.0475,-2.3625,-2.9925
83,192561,0.5248441,0.105896,-0.8481440999999998,2.0475,-2.345,-3.01
84,192658,0.525576,0.107848,-0.8508280999999999,2.0825,-2.4325,-3.0275
85,192755,0.52582,0.107848,-0.8508280999999999,2.0475,-2.415,-3.08
86,192852,0.526308,0.107116,-0.8493641,1.9775,-2.31,-3.0275
87,192949,0.5248441,0.10809200000000001,-0.85034,1.9425,-2.205,-3.08
88,193046,0.525576,0.10931199999999999,-0.8483879999999999,1.96,-2.2925,-3.115
89,193143,0.524356,0.107848,-0.85034,1.9075,-2.31,-3.1325
90,193240,0.5248441,0.107848,-0.8491200000000001,1.995,-2.38,-3.0625
91,193337,0.526552,0.10906800000000001,-0.847412,1.925,-2.31,-3.0625
92,193434,0.525576,0.10858,-0.8491200000000001,1.89,-2.275,-3.08
93,193531,0.5248441,0.10906800000000001,-0.8491200000000001,1.9075,-2.2575,-2.975
94,193629,0.525088,0.10906800000000001,-0.8479,1.96,-2.2225,-3.01
95,193726,0.5267960999999999,0.10809200000000001,-0.8488761,1.925,-2.1875,-3.0625
96,193823,0.52704,0.10760399999999999,-0.8479,1.995,-2.2575,-3.08
97,193920,0.526552,0.10736,-0.8476561,1.9775,-2.415,-3.0975
98,194017,0.5248441,0.107848,-0.850096,1.9425,-2.3975,-3.045
99,194114,0.525088,0.10736,-0.8481440999999998,2.03,-2.415,-3.08
100,194211,0.5246,0.106628,-0.849852,1.9775,-2.3975,-3.1325
101,194308,0.5260640000000001,0.109556,-0.8486319999999999,1.995,-2.4325,-3.0975
102,194405,0.526552,0.108824,-0.8493641,1.9775,-2.485,-3.08
103,194502,0.5246,0.1098,-0.849608,1.9775,-2.3275,-3.0625
104,194599,0.526552,0.1098,-0.8493641,1.995,-2.3625,-3.115
105,194696,0.524356,0.107848,-0.8508280999999999,1.9775,-2.38,-3.08
106,194793,0.525332,0.11028800000000001,-0.8493641,2.03,-2.415,-3.01
107,194890,0.525576,0.10760399999999999,-0.8513161,2.03,-2.2925,-2.975
108,194988,0.525576,0.10687200000000001,-0.8479,2.03,-2.3625,-2.975
109,195085,0.52582,0.109556,-0.8488761,1.995,-2.4325,-2.9925
110,195182,0.525576,0.10858,-0.850096,1.96,-2.3975,-3.0275
111,195279,0.526308,0.10931199999999999,-0.8488761,2.0125,-2.31,-2.9925
112,195376,0.52582,0.10638399999999999,-0.847412,1.9425,-2.4325,-2.975
113,195473,0.5267960999999999,0.10614000000000001,-0.8471681000000001,2.0125,-2.45,-3.08
114,195570,0.525576,0.10833599999999999,-0.8491200000000001,1.9425,-2.4675,-3.045
115,195667,0.527772,0.107848,-0.8459479999999999,1.96,-2.5375,-3.08
116,195764,0.525576,0.108824,-0.8493641,1.9425,-2.415,-3.0625
117,195861,0.525576,0.109556,-0.849852,2.0125,-2.415,-3.185
118,195958,0.5248441,0.108824,-0.8491200000000001,2.03,-2.345,-3.0275
119,196055,0.528748,0.108824,-0.8471681000000001,2.03,-2.4675,-3.08
120,196152,0.52704,0.10687200000000001,-0.8461921,2.065,-2.52,-3.08
121,196249,0.524356,0.10736,-0.85034,1.995,-2.555,-3.0625
122,196346,0.525088,0.10809200000000001,-0.8491200000000001,2.0125,-2.485,-3.0975
123,196443,0.528748,0.10858,-0.8459479999999999,1.995,-2.4675,-3.115
124,196540,0.5267960999999999,0.10614000000000001,-0.8459479999999999,2.03,-2.52,-3.08
125,196637,0.524356,0.10906800000000001,-0.8483879999999999,2.0475,-2.5025,-3.0275
126,196735,0.527284,0.1098,-0.847412,2.0125,-2.38,-3.045
127,196832,0.525576,0.108824,-0.85034,2.0475,-2.3625,-3.0275
128,196929,0.5246,0.10809200000000001,-0.8513161,2.0475,-2.345,-3.045
129,197026,0.524356,0.10736,-0.850096,2.065,-2.2925,-3.045
130,197123,0.524356,0.10906800000000001,-0.8483879999999999,2.0825,-2.4675,-3.08
131,197220,0.5246,0.10809200000000001,-0.8481440999999998,2.135,-2.3275,-3.0975
132,197317,0.5246,0.107848,-0.8486319999999999,2.0825,-2.3275,-3.0975
133,197414,0.5246,0.10833599999999999,-0.8488761,2.0825,-2.3975,-3.115
134,197511,0.5260640000000001,0.11028800000000001,-0.8481440999999998,2.0825,-2.2925,-3.01
135,197608,0.52582,0.10760399999999999,-0.8508280999999999,2.1175,-2.24,-2.9575
136,197705,0.525088,0.107848,-0.8510719999999999,2.03,-2.2575,-2.975
137,197802,0.52582,0.108824,-0.8488761,2.0125,-2.3275,-3.0275
138,197899,0.524356,0.10858,-0.8476561,2.03,-2.3275,-3.0625
139,197997,0.523868,0.10736,-0.849852,1.9425,-2.24,-2.9925
140,198094,0.5248441,0.107848,-0.849608,1.8725,-2.0825,-2.94
141,198191,0.524356,0.1037,-0.845216,1.8375,-1.9775,-3.0275
142,198288,0.5233800000000001,0.10687200000000001,-0.85034,1.7325,-1.8375,-3.0975
143,198385,0.523624,0.10736,-0.8488761,1.6975,-1.82,-3.0625
144,198482,0.5221600000000001,0.10809200000000001,-0.8483879999999999,1.4525,-1.75,-3.0625
145,198579,0.52582,0.10760399999999999,-0.8488761,1.435,-1.61,-3.115
146,198676,0.528504,0.10614000000000001,-0.8471681000000001,1.435,-1.6275,-3.0625
147,198773,0.527772,0.10760399999999999,-0.847412,1.3475,-1.505,-3.0975
148,198870,0.526308,0.10833599999999999,-0.8486319999999999,1.295,-1.5225,-3.2025
149,198967,0.5267960999999999,0.10906800000000001,-0.847412,1.225,-1.5225,-3.045
150,199064,0.5282600000000001,0.10931199999999999,-0.8464360000000001,1.225,-1.4175,-3.115
151,199161,0.5246,0.10858,-0.8481440999999998,1.2425,-1.435,-3.0625
152,199259,0.5246,0.11394800000000001,-0.849852,1.2425,-1.4,-3.045
153,199356,0.528504,0.10809200000000001,-0.8466800999999999,1.3475,-1.2425,-3.0625
154,199453,0.5267960999999999,0.10858,-0.8464360000000001,1.295,-1.2075,-2.9925
155,199550,0.5282600000000001,0.1098,-0.847412,1.3825,-1.3125,-3.01
156,199647,0.528992,0.109556,-0.8464360000000001,1.435,-1.33,-3.01
157,199744,0.528748,0.10858,-0.8481440999999998,1.435,-1.3825,-3.045
158,199841,0.528016,0.10931199999999999,-0.8476561,1.5225,-1.4525,-2.9575
159,199938,0.529724,0.1098,-0.846924,1.5225,-1.4875,-2.94
160,200035,0.531676,0.10809200000000001,-0.84546,1.61,-1.4,-2.9225
161,200132,0.5314321,0.10736,-0.8466800999999999,1.6975,-1.575,-2.905
162,200229,0.53192,0.10760399999999999,-0.8471681000000001,1.8375,-1.61,-2.8875
163,200326,0.530212,0.10833599999999999,-0.8457040000000001,1.8375,-1.7675,-2.975
164,200423,0.5309441,0.109556,-0.84546,1.8375,-1.9075,-2.9225
165,200521,0.530456,0.10858,-0.84424,1.8725,-2.1,-2.975
166,200618,0.530212,0.10809200000000001,-0.844484,2.03,-2.275,-2.94
167,200715,0.530212,0.11102000000000001,-0.8457040000000001,2.0475,-2.415,-3.01
168,200812,0.53192,0.10809200000000001,-0.8464360000000001,2.1,-2.555,-3.01
169,200909,0.5309441,0.110044,-0.8464360000000001,2.1175,-2.5375,-2.94
170,201006,0.5294800000000001,0.11053199999999999,-0.846924,2.1525,-2.5725,-2.9925
171,201103,0.528748,0.10833599999999999,-0.844972,2.1875,-2.66,-3.0275
172,201200,0.530212,0.10858,-0.845216,2.135,-2.6425,-3.08
173,201297,0.532652,0.109556,-0.8457040000000001,2.1175,-2.73,-3.08
174,201394,0.5355800999999999,0.104676,-0.8471681000000001,1.9425,-2.485,-3.0625
175,201491,0.528504,0.10858,-0.8510719999999999,1.3475,-2.2925,-3.185
176,201588,0.529724,0.106628,-0.8508280999999999,0.8400001,-2.3275,-3.3425
177,201686,0.530212,0.104432,-0.849608,0.315,-2.2575,-3.43
178,201783,0.536068,0.10833599999999999,-0.8459479999999999,-0.245,-2.38,-3.6225
179,201880,0.537288,0.106628,-0.8464360000000001,-0.4025,-3.4125,-3.85
180,201977,0.53192,0.106628,-0.850584,-0.1225,-4.34,-4.0775
181,202074,0.5307,0.10736,-0.8476561,-0.1925,-4.8475,-4.55
182,202171,0.5260640000000001,0.10126,-0.8481440999999998,-0.2625,-5.0225,-4.935
183,202268,0.540948,0.0976,-0.8518040000000001,-0.7175,-4.9525,-5.285
184,202365,0.5499761,0.09540401,-0.8613200000000001,-1.3825,-6.09,-5.81
185,202462,0.5514399999999999,0.09247601,-0.858392,-2.8525,-9.03,-6.475
186,202559,0.540704,0.09052401,-0.8508280999999999,-4.305,-12.74,-6.895
187,202656,0.5231359999999999,0.10052799999999999,-0.8252079999999999,-4.5325,-15.0325,-7.07
188,202753,0.505324,0.124196,-0.837408,-4.445,-15.05,-6.335
189,202850,0.49727200000000005,0.15176800000000001,-0.83936,-1.9425,-14.385,-4.8125
190,202948,0.5009319999999999,0.15982000000000002,-0.8371639999999999,1.225,-13.2475,-3.5525
191,203045,0.492148,0.189832,-0.844484,4.6375,-12.5125,-2.3975
192,203142,0.515084,0.17836400000000002,-0.8464360000000001,7.4725,-12.495,-0.4375
193,203239,0.5206960999999999,0.141032,-0.849608,9.87,-14.2625,1.33
194,203336,0.5060560000000001,0.10418800000000002,-0.853756,10.15,-16.31,2.8525
195,203433,0.5058121,0.083936,-0.8620521000000001,9.59,-16.52,3.01
196,203530,0.494832,0.08003201,-0.8752280000000001,8.26,-15.8375,2.45
197,203627,0.5011760000000001,0.082716,-0.8730319999999999,6.79,-13.6325,1.3475
198,203724,0.512888,0.10394400000000001,-0.8698601,5.11,-11.0075,0.2975
199,203821,0.510692,0.08906,-0.8620521000000001,3.99,-9.485,-0.245
200,203918,0.513864,0.082228,-0.86864,2.905,-9.135,-0.6125
201,204015,0.508008,0.077836,-0.8703481,1.715,-8.96,-1.12
202,204112,0.5072760000000001,0.071248,-0.8718120999999999,-0.385,-8.3825,-1.9425
203,204209,0.49580799999999997,0.080764,-0.8671761,-2.5375,-8.0325,-2.31
204,204307,0.49873599999999996,0.11541199999999999,-0.858392,-3.6225,-7.56,-1.925
205,204404,0.492392,0.152256,-0.844484,-3.4825,-7.385,-1.82
206,204501,0.49044,0.159576,-0.8652241,-1.7675,-6.9475,-1.82
207,204598,0.47823999999999994,0.141764,-0.85034,0.7,-5.9325,-1.925
208,204695,0.477996,0.11614400000000001,-0.862784,2.66,-4.13,-1.82
209,204792,0.480192,0.09272000000000001,-0.8754719999999999,3.9025,-1.925,-2.2925
210,204889,0.467992,0.12761199999999998,-0.8840120000000001,4.34,0.4025,-2.3975
211,204986,0.471896,0.159088,-0.925736,5.6525,4.5675,-1.1725
212,205083,0.445788,0.214232,-0.9547720999999999,6.9475,10.8675,1.785
213,205180,0.406016,0.2928,-0.965752,10.3425,18.6725,9.1
214,205277,0.361852,0.337208,-0.919392,15.8725,28.4725,18.8825
215,205375,0.33013200000000004,0.35624,-0.9913719999999999,21.2625,39.34,26.285
216,205472,0.411384,0.5543680000000001,-1.388116,35.9275,50.0325,34.825
217,205569,0.37112399999999995,0.30622,-1.209752,61.4425,59.465,48.5275
218,205666,0.335256,0.179584,-1.204628,56.21,61.2675,65.3975
219,205763,0.174704,0.309636,-1.2587959999999998,41.8425,60.7075,81.9875
220,205860,0.398208,0.172264,-1.443748,31.2725,55.265,96.70501
221,205957,0.196664,0.37551599999999996,-1.417884,4.41,35.07,97.0375
222,206054,-0.066124,0.685884,-1.283684,-19.0925,12.2675,87.46500999999999
223,206151,-0.28304,0.769576,-1.1407,-18.8825,1.9425,74.1475
224,206248,-0.37551599999999996,0.70394,-1.077016,-11.025,1.68,56.9275
225,206345,-0.42065600000000003,0.6512359999999999,-1.090192,-11.165,2.8875,34.3
226,206442,-0.4023561,0.628544,-1.152168,-16.905,2.5375,9.38
227,206540,-0.32866799999999996,0.582916,-1.2465959999999998,-22.085,-0.6125,-14.2975
228,206637,-0.252296,0.510204,-1.328092,-24.9725,-8.2075,-35.6125
229,206734,-0.172996,0.438712,-1.3912879999999999,-27.0725,-19.7925,-54.67
230,206831,-0.104676,0.386252,-1.4374040000000001,-28.7525,-34.3,-71.7325
231,206928,-0.07612801,0.333304,-1.43106,-26.8275,-50.295,-86.8175
232,207025,-0.057828,0.24424400000000002,-1.381284,-20.8775,-64.6975,-98.61251
233,207122,-0.01464,0.142252,-1.3468799999999999,-14.525,-75.46,-106.6625
234,207219,0.05636401,0.07417601,-1.333216,-10.4125,-83.4575,-110.95
235,207316,0.137372,0.040992,-1.3224799999999999,-7.385,-90.4575,-111.0375
236,207413,0.22326,-0.000732,-1.31516,-3.6925,-97.0375,-106.855
237,207510,0.28694400000000003,-0.03294,-1.278804,-1.155,-103.5125,-99.365
238,207608,0.327448,-0.050263999999999996,-1.2214639999999999,-0.7525,-109.0775,-89.79251
239,207705,0.35746,-0.050263999999999996,-1.16632,-1.5925,-112.385,-78.8725
240,207802,0.406748,-0.044407999999999996,-1.125328,-3.9375,-113.435,-67.5675
241,207899,0.45018,-0.022448,-1.087264,-8.4875,-113.3475,-57.4875
242,207996,0.49117200000000005,0.024644,-1.0643280000000002,-14.8925,-113.12,-49.14
243,208093,0.550952,0.061975999999999996,-1.05164,-20.615,-113.05,-42.1925
244,208190,0.577304,0.08466801,-1.01016,-25.27,-114.24,-36.855
245,208287,0.5607121,0.085156,-0.9325680000000001,-28.84,-115.43,-32.025
246,208384,0.54168,0.061975999999999996,-0.85034,-31.815,-114.17,-26.6
247,208481,0.547048,0.05124001,-0.7937320999999999,-34.9475,-109.97,-20.65
248,208578,0.5653481,0.06490399999999999,-0.762744,-37.5025,-104.58,-14.945
249,208675,0.5751081,0.072712,-0.730292,-37.905,-99.54,-10.08
250,208772,0.5702281,0.07027201,-0.675148,-36.3125,-94.2725,-6.265
251,208870,0.570472,0.073688,-0.615368,-33.985,-87.74501,-3.5875
252,208967,0.5826720000000001,0.08808401,-0.558272,-31.29,-79.3275,-1.9775
253,209064,0.6080479999999999,0.107116,-0.5119121,-28.6125,-69.3525,-1.4875
254,209161,0.6646561,0.119316,-0.47604399999999997,-25.935,-58.3625,-2.9925
255,209258,0.709796,0.133468,-0.4392,-23.765,-48.0375,-6.4925
256,209355,0.763476,0.133712,-0.398452,-21.35,-37.7825,-11.445
257,209452,0.822768,0.12248800000000001,-0.355508,-17.885,-26.88,-16.4675
258,209549,0.8666879999999999,0.10833599999999999,-0.30182800000000004,-14.77,-15.4525,-21.0175
259,209646,0.9357401,0.13298,-0.266692,-12.74,-3.57,-25.0425
260,209743,1.006988,0.131028,-0.242536,-8.7325,8.9775,-27.4225
261,209840,1.090436,0.12566,-0.209108,-4.76,20.9825,-28.8925
262,209937,1.168272,0.128344,-0.18324400000000002,-1.82,32.3925,-29.05
263,210034,1.254648,0.117852,-0.13859200000000002,1.1025,43.225,-27.5625
264,210132,1.335656,0.095648,-0.07490801,3.43,53.8125,-24.2375
265,210229,1.39202,0.082716,0.00366,4.165,64.89,-19.005
266,210326,1.426424,0.095648,0.06124401,4.2525,77.9625,-12.39
267,210423,0.000732,1.4435040000000001,-0.583404,4.305,90.3875,-4.725
268,210520,-0.813984,0.742492,-1.6753040000000001,106.61,105.9275,2.87
269,210617,-1.089704,-0.39771999999999996,-1.6845759999999999,159.81,135.87,0.7175
270,210714,-0.17934,-0.850584,-0.102968,77.1225,167.6325,-57.26
271,210811,1.531588,-0.8640040000000001,-1.104588,36.26,231.0,-45.7625
272,210908,1.918816,-0.676124,-1.9715200000000002,39.5325,212.9925,-5.775
273,211005,1.042368,-0.681248,-1.2395200000000002,44.2925,146.2125,30.87
274,211103,0.552172,-0.142252,-1.061156,32.0425,122.9725,51.555
275,211200,0.488976,0.410896,-0.8488761,16.66,125.4225,45.9725
276,211297,0.478484,0.453596,-0.7617681,14.1225,131.425,26.39
277,211394,1.2444,1.311988,-1.5159719999999999,16.5375,139.8425,11.2
278,211491,3.4340559999999996,-0.43773599999999996,-1.813896,91.6125,130.305,24.605
279,211588,-0.038308,-1.137284,-0.072956,72.6425,3.57,27.58
280,211685,0.430172,0.7869,-1.131184,10.465,-2.66,24.43
281,211782,0.748836,-0.053436000000000004,-1.13826,26.1975,-6.2475,10.8325
282,211879,0.390156,0.072956,-0.818132,19.1975,-2.38,7.6125
283,211976,0.530456,0.15738,-0.8730319999999999,8.05,-1.505,3.4125
284,212073,0.528748,0.08442401,-0.869616,8.575,2.31,0.4375
285,212171,0.520452,0.088328,-0.86864,4.13,4.305,-1.0325
286,212268,0.510204,0.10809200000000001,-0.868152,0.315,5.88,-3.29
287,212365,0.499712,0.08954801,-0.8671761,-2.5725,7.8575,-4.76
288,212462,0.491904,0.116632,-0.8744960999999999,-5.1275,10.08,-5.74
289,212559,0.49824799999999997,0.12980799999999998,-0.86498,-6.37,12.4775,-5.3375
290,212656,0.508252,0.139568,-0.8666879999999999,-6.1425,14.21,-4.0075
291,212753,0.51972,0.1281,-0.8574161,-4.9175,15.47,-2.7125
292,212850,0.5248441,0.132492,-0.85156,-3.9725,16.38,-1.75
293,212947,0.5084960000000001,0.151524,-0.8581479999999999,-2.66,16.59,-0.56
294,213044,0.49898000000000003,0.14005599999999999,-0.8666879999999999,-0.56,17.675,0.7
295,213142,0.508984,0.156404,-0.86498,1.6975,19.2325,1.5925
296,213239,0.531188,0.1403,-0.8669319999999999,3.22,21.0,2.3975
297,213336,0.537776,0.1159,-0.8657120999999999,4.69,21.7525,2.975
298,213433,0.549732,0.13542,-0.8720559999999999,4.76,22.4,3.4475
299,213530,0.48848800000000003,0.098088,-0.865956,6.3,22.3125,3.78
300,213627,0.438224,0.16689600000000002,-0.90646,4.8125,25.865,6.3175
301,213724,0.5292359999999999,0.089304,-0.8369200000000001,6.0375,35.8225,9.8175
302,213821,0.5543680000000001,0.080276,-0.8261841000000001,4.3925,41.0375,10.815
303,213918,0.552416,0.098332,-0.8310639999999999,3.99,45.815,10.3075
304,214015,0.5777920999999999,0.08344800000000001,-0.8108121,3.15,49.14,9.5375
305,214112,0.5736441,0.094916,-0.8142281,2.1525,52.6225,9.5725
306,214210,0.576084,0.11248399999999999,-0.8142281,1.12,55.86,9.8175
307,214307,0.57828,0.106628,-0.8095920999999999,0.8400001,59.15,10.5875
308,214404,0.58804,0.08174001,-0.7854361,0.455,62.4575,11.27
309,214501,0.600484,0.07564,-0.7903161,-0.2625,65.835,11.1825
310,214598,0.5997520000000001,0.06929600000000001,-0.784216,-0.8400001,67.9525,10.3775
311,214695,0.6036560999999999,0.066124,-0.7771399999999999,-1.2775,70.3325,9.31
312,214792,0.6007279999999999,0.069052,-0.7793359999999999,-2.275,73.5525,8.1375
313,214889,0.601704,0.080276,-0.782508,-3.395,77.8225,7.1925
314,214986,0.610244,0.096868,-0.7937320999999999,-3.7625,83.335,7.245
315,215083,0.614392,0.1159,-0.7856801,-3.1675,90.405,8.96
316,215181,0.614636,0.139324,-0.792756,-3.465,98.0525,13.1425
317,215278,0.630252,0.098088,-0.776896,-1.8725,105.735,17.6575
318,215375,0.636596,0.044652,-0.7707961,0.91,113.7325,18.7075
319,215472,0.64294,0.007808001,-0.773968,3.85,122.01,15.3125
320,215569,0.6422081000000001,0.0732,-0.7732359999999999,6.9825,133.105,11.2
321,215666,0.665632,0.149328,-0.769088,9.31,148.0675,9.1525
322,215763,0.681492,0.162748,-0.740296,11.41,163.8875,12.9325
323,215860,0.702476,0.142008,-0.726388,13.3,180.8275,19.67
324,215957,0.711016,0.153232,-0.7183361,13.58,197.225,24.92
325,216054,0.734196,0.12248800000000001,-0.781532,13.93,218.6275,29.1375
326,216152,0.8400921,0.116876,-0.75762,13.37,247.3275,33.0575
327,216249,1.030656,0.277428,-0.9713639999999999,0.5775,278.565,45.0275
328,216346,0.9264680000000001,0.28157600000000005,-0.960628,1.575,310.59,59.0975
329,216443,1.2993,0.176656,-1.161928,16.5025,349.0725,74.9175
330,216540,1.825852,0.259372,-1.3856760000000001,26.7225,390.005,84.8225
331,216637,1.938092,0.462868,-1.7038520000000001,22.155,428.2425,92.82001
332,216734,1.974936,0.098576,-1.9154,25.7075,460.985,111.09
333,216831,2.1447599999999998,0.272304,-1.636996,15.645,476.5775,93.6075
334,216928,2.773548,0.559248,-2.140368,-40.81,472.64,51.24
335,217025,2.750856,1.101904,-2.8904240000000003,-25.48,438.06,102.8475
336,217123,1.474736,0.8608319999999999,-2.52906,-23.1175,375.585,112.665
337,217220,-0.656848,1.095316,-2.1591560000000003,6.5625,301.42,114.3975
338,217317,3.904732,0.899384,-4.587932,43.925,293.0375,93.59
339,217414,1.7763200000000001,1.052616,-3.094408,-14.385,149.415,19.495
340,217511,0.622688,0.985516,-2.731092,-17.6925,-54.565,-30.975
341,217608,-0.295484,0.550952,-1.7050720000000001,-10.22,-138.3725,-44.59
342,217705,-0.5826720000000001,0.229604,-1.3176,-14.84,-158.095,-35.91
343,217802,-0.38503200000000004,0.104676,-1.2719719999999999,-34.195,-164.64,-27.0725
344,217899,-0.161772,0.12053599999999999,-1.308084,-59.885,-177.8875,-21.665
345,217996,0.073688,0.20252,-1.3712799999999998,-77.28,-202.37,-17.7275
346,218093,0.24668400000000001,0.20984,-1.363472,-81.2,-233.94,-14.6125
347,218191,0.36502399999999996,0.141032,-1.2932,-78.8375,-267.1375,-15.1725
348,218288,0.43651599999999996,0.065148,-1.1812040000000001,-80.0275,-298.445,-21.77
349,218385,0.45383999999999997,0.005856,-1.0492,-86.9575,-325.4125,-34.3875
350,218482,0.445788,-0.010492,-0.936716,-96.5125,-344.26,-50.575
351,218579,0.46921199999999996,0.0,-0.8906,-103.005,-353.2725,-66.60501
352,218676,0.5502199999999999,0.013908000000000002,-0.9191481,-102.515,-354.865,-80.43
353,218774,0.689056,0.004636001,-1.005768,-94.71,-354.095,-90.66751
354,218870,0.8549761,-0.040260000000000004,-1.11386,-83.58001,-355.915,-96.7575
355,218967,1.026508,-0.089792,-1.226344,-75.0225,-362.2675,-100.2575
356,219064,1.18462,-0.11394800000000001,-1.325408,-71.3825,-372.715,-102.3925
357,219162,1.33712,-0.08466801,-1.425936,-71.8725,-385.2975,-103.6525
358,219259,1.502796,-0.020496,-1.5257319999999999,-73.045,-399.0525,-104.9125
359,219356,1.6743279999999998,0.10809200000000001,-1.64578,-72.135,-413.14,-106.4875
360,219453,1.879776,0.24936799999999998,-1.764364,-65.38,-425.635,-108.675
361,219550,2.0803439999999997,0.274012,-1.813164,-53.4275,-434.385,-113.54
362,219647,2.4051080000000002,-0.058072000000000006,-1.8126759999999997,-46.4275,-436.065,-125.86
363,219744,2.8591919999999997,-0.16909200000000002,-1.843908,-63.525,-434.6125,-149.905
364,219841,3.317912,-0.244732,-1.8297560000000002,-90.72001,-432.3375,-175.8575
365,219938,3.8264080000000003,-0.207644,-1.642608,-105.8225,-424.6375,-201.215
366,220036,4.152392,0.43066000000000004,-0.989664,-94.97251,-420.84,-207.8125
367,220133,4.3798,0.419192,0.18544000000000002,-25.62,-407.61,-169.3475
368,220230,3.8366559999999996,-0.36356,1.5372,46.1125,-370.5975,-89.2675
369,220327,3.4469879999999997,-1.785104,2.584936,19.6525,-303.1,-6.8425
370,220424,3.8249440000000003,-2.390468,2.91214,-143.185,-218.5575,30.73
371,220521,4.260484,-1.17852,2.552972,-336.665,-150.185,-0.98
372,220618,4.050644,0.376004,2.097912,-347.7425,-90.8075,-42.455
373,220715,3.3537800000000004,0.6832,2.0173919999999996,-137.5675,-21.105,-22.6975
374,220812,2.99632,-0.284992,1.9429720000000001,118.545,70.7175,44.2575
375,220909,2.911896,-0.6946681,1.319308,209.265,156.87,85.69751
376,221007,-0.695156,2.852604,-4.359304,184.975,178.465,75.7575
377,221104,-1.9110080000000003,2.337764,-3.33914,276.01,178.815,31.01
378,221201,-1.901248,-1.779736,0.9403761,252.7,229.32,-41.9825
379,221298,0.9918600000000001,-2.645692,1.287344,188.8775,342.3525,-105.245
380,221395,4.026732,-2.611776,-3.2059159999999998,37.24,431.34,-78.05
381,221492,2.550776,-3.029748,-2.651304,47.1625,306.5475,4.375
382,221589,1.19316,-1.285148,-1.064084,-7.735,217.77,86.04751
383,221686,1.5013319999999999,2.4295080000000002,-1.000888,-91.6125,205.3625,99.03251
384,221783,3.248616,4.560116000000001,-1.514996,-18.0425,185.43,60.025
385,221881,0.35014,-1.56526,-0.34648,197.61,106.155,42.6475
386,221978,2.288232,-1.9971400000000001,-1.8461040000000002,115.675,85.8025,53.62
387,222075,0.260592,1.99226,-1.239032,9.5375,-28.77,58.38
388,222172,0.7237041,-0.544852,-0.9684360999999999,57.6625,3.605,31.465
389,222269,0.734684,0.055388,-0.845216,46.9875,-13.7025,33.8275
390,222366,0.48726800000000003,0.10760399999999999,-0.876692,24.115,-17.605,21.1225
391,222463,0.5170359999999999,0.083204,-0.8786440999999999,23.3625,-7.63,12.775
392,222560,0.514108,0.08564401,-0.883036,14.42,-4.3925,8.6275
393,222657,0.509716,0.08906,-0.8788879999999999,10.255,-0.7525,4.305
394,222754,0.5121560000000001,0.08808401,-0.8657120999999999,5.005,2.625,0.8925
395,222852,0.499712,0.112728,-0.859856,1.5575,5.2675,-1.3825
396,222949,0.5058121,0.111508,-0.850584,-0.455,7.56,-2.275
397,223046,0.50142,0.122976,-0.8422879999999999,-1.855,9.0125,-2.9575
398,223143,0.50752,0.143228,-0.8418,-3.1675,9.87,-2.9575
399,223240,0.510692,0.14005599999999999,-0.835456,-3.5,10.2375,-2.0825
400,223337,0.514352,0.16909200000000002,-0.83936,-2.695,10.1325,-0.8400001
401,223434,0.5104479999999999,0.16201600000000002,-0.853512,1.4,8.995,1.4525
402,223531,0.5172800999999999,0.138836,-0.8581479999999999,6.72,7.2975,4.0425
403,223628,0.5282600000000001,0.12322000000000001,-0.8527800999999999,9.275,5.18,5.3725
404,223726,0.526308,0.11248399999999999,-0.8527800999999999,9.2925,4.235,5.4075
405,223823,0.518744,0.10418800000000002,-0.8459479999999999,8.5575,3.325,4.8125
406,223920,0.520452,0.09516001,-0.8464360000000001,7.875,3.045,4.3575
407,224017,0.522404,0.09418401,-0.8403360000000001,6.6325,3.92,3.9375
408,224114,0.5231359999999999,0.081984,-0.832528,4.9875,5.39,3.2725
409,224211,0.518744,0.07710399999999999,-0.8396040000000001,2.975,7.1225,2.8525
410,224308,0.525332,0.060024,-0.8464360000000001,1.26,8.9075,2.0825
411,224405,0.532652,0.077348,-0.830332,-0.0875,10.0275,1.33
412,224502,0.521184,0.10321199999999998,-0.839116,-0.9975,10.3075,1.05
413,224599,0.529968,0.11028800000000001,-0.8396040000000001,-0.91,11.7425,1.47
414,224697,0.522648,0.12468399999999999,-0.83814,-1.1725,13.79,2.52
415,224794,0.502884,0.16689600000000002,-0.8559521000000001,-2.4675,17.57,4.1475
416,224891,0.494832,0.126392,-0.85644,-0.3325,23.415,7.3325
417,224988,0.48702399999999996,0.107848,-0.8693719999999999,1.295,32.375,9.975
418,225085,0.492392,0.12566,-0.8703481,0.385,42.84,10.605
419,225182,0.479216,0.159088,-0.9006040999999999,-1.015,53.9525,12.0575
420,225279,0.472384,0.144448,-0.899384,-0.63,67.83,15.5575
421,225376,0.484584,0.116876,-0.8862081,0.2625,83.58001,18.83
422,225473,0.48995200000000005,0.009516001,-0.889624,-0.245,101.115,19.5475
423,225570,0.47482399999999997,0.023424,-0.9247601000000001,-2.905,119.6475,16.1
424,225668,0.49166000000000004,0.077348,-0.9262239999999999,-3.3075,141.3825,13.3875
425,225765,0.5099600000000001,0.140544,-0.9357401,-2.38,164.1675,16.6075
426,225862,0.514596,0.174948,-0.9242720999999999,-0.8575,185.675,25.1825
427,225959,0.5294800000000001,0.151036,-0.9203680000000001,4.62,207.655,35.0
428,226056,0.526552,0.141032,-0.8988959999999999,10.71,234.2025,40.005
429,226153,0.561688,0.199348,-0.9433041,18.4975,264.845,42.8225
430,226250,0.604632,0.21813600000000002,-0.9084121,28.28,297.7625,48.615
431,226347,0.7032079999999999,0.25058800000000003,-0.9494040000000001,34.86,332.7625,57.085
432,226444,1.115812,0.487756,-1.321748,36.225,372.61,67.9
433,226541,1.006744,0.49727200000000005,-1.3144280000000002,46.725,416.605,95.8475
434,226639,1.7263,0.2379,-1.482544,62.7375,464.2925,124.11
435,226736,2.129388,-0.169336,-1.677012,47.425,503.0375,127.96
436,226833,2.3668,0.28621199999999997,-1.984696,7.2975,517.3525,117.04
437,226930,3.0317,0.784704,-2.7957520000000002,-11.55,513.4325,103.1275
438,227027,1.9839639999999998,1.361032,-1.9949439999999998,13.615,471.1525,145.7925
439,227124,1.91662,1.161928,-2.7301159999999998,40.495,426.6325,183.19
440,227221,-0.063196,0.9589200999999999,-2.2326,36.75,356.545,168.4725
441,227318,1.216828,0.806176,-0.8398479999999999,65.22251,305.8475,150.2725
442,227415,3.522628,1.2117040000000001,-4.880976,1.2775,266.4025,81.32251
443,227512,1.026508,1.474492,-3.1873720000000003,-28.14,0.56,8.925
444,227609,-0.231312,1.172176,-1.996652,-21.175,-127.05,-30.6775
445,227707,-0.850584,0.639524,-1.313696,6.755,-166.7925,-28.875
446,227804,-0.749324,0.24522,-1.06384,2.87,-158.3925,-21.385
447,227901,-0.367464,0.142008,-1.171932,-34.9125,-155.855,-22.995
448,227998,-0.07027201,0.27523200000000003,-1.316624,-79.415,-174.37,-32.1475
449,228095,0.124196,0.410652,-1.37372,-102.0775,-206.5,-41.93
450,228192,0.209596,0.409432,-1.31272,-99.295,-240.9575,-50.82
451,228289,0.26156799999999997,0.297192,-1.194136,-85.2425,-269.535,-61.4775
452,228386,0.30841599999999997,0.14493599999999998,-1.0767719999999998,-74.27,-289.87,-75.3725
453,228483,0.372832,0.019764,-1.006256,-72.415,-303.94,-93.0475
454,228581,0.452132,-0.0427,-0.9862479999999999,-77.455,-314.3525,-112.4725
455,228678,0.537776,-0.063928,-1.015528,-82.425,-322.35,-129.955
456,228775,0.677588,-0.07417601,-1.096292,-81.445,-328.405,-142.345
457,228872,0.8327720999999999,-0.089304,-1.199748,-73.6575,-335.9825,-148.47
458,228969,0.9777081,-0.133956,-1.274412,-61.6175,-346.57,-148.2425
459,229066,1.108248,-0.180316,-1.348344,-51.17,-359.6075,-142.695
460,229163,1.2402520000000001,-0.18470799999999998,-1.4186159999999999,-46.13,-373.5725,-134.7325
461,229260,1.38592,-0.12248800000000001,-1.501088,-44.94,-387.7125,-125.755
462,229357,1.530368,-0.014396,-1.587708,-43.8375,-400.925,-117.3025
463,229454,1.7272759999999998,0.145912,-1.738256,-41.0725,-412.4575,-110.7925
464,229552,1.979084,0.346724,-1.896368,-35.84,-422.03,-107.135
465,229649,2.262856,0.36502399999999996,-1.957124,-26.2675,-429.5375,-109.9525
466,229746,2.684488,-0.023912,-1.9480959999999998,-24.92,-431.6025,-125.6675
467,229843,3.154676,-0.115168,-1.9114959999999999,-51.8875,-432.1625,-156.975
468,229940,3.663904,-0.071492,-1.705316,-83.16001,-429.7825,-190.8025
469,230037,4.065528,0.49263599999999996,-1.132892,-86.9925,-427.945,-211.9425
470,230134,4.342224,0.49556400000000006,0.005856,-30.6425,-413.3325,-195.615
471,230231,4.025268,-0.203496,1.4374040000000001,37.1525,-374.745,-134.4525
472,230328,3.4565040000000002,-1.724592,2.556632,27.335,-303.1525,-46.375
473,230426,3.813232,-2.494656,2.877736,-129.92,-216.1775,11.55
474,230523,4.5305919999999995,-1.259772,2.48758,-333.3575,-147.3325,0.6475
475,230620,4.37858,0.21838000000000002,2.1630599999999998,-353.99,-96.8275,-30.1525
476,230717,3.291316,0.7093081,2.168672,-160.8775,-35.6825,-12.425
477,230814,2.8250319999999998,-0.06490399999999999,2.12646,95.725,63.6125,48.09
478,230911,0.7732359999999999,1.0906799999999999,-0.975024,224.315,164.4125,110.845
479,231008,-1.017968,2.4199919999999997,-2.699616,296.4325,218.4875,134.7325
480,231105,-0.983564,-0.246928,-0.9862479999999999,288.365,285.9325,63.7525
481,231202,0.542412,-2.134268,1.34932,206.5525,339.0625,-83.0375
482,231299,3.08416,-2.199172,-1.9663959999999998,70.8575,420.805,-118.6325
483,231397,3.0158400000000003,-3.4042879999999998,-3.072936,67.7075,369.6175,-41.335
484,231494,1.8758720000000002,-2.401448,-1.474004,21.7875,275.0475,57.2425
485,231591,2.41438,2.27774,-1.7233720000000001,-86.31,231.3325,91.8225
486,231688,3.456748,4.722132,-0.9015799999999999,-11.0775,175.4025,74.6725
487,231785,-0.23058,-1.623332,-0.524356,189.9625,85.225,51.205
488,231882,1.8060880000000001,-2.052772,-0.7427361,102.025,72.8525,56.3675
489,231979,0.5011760000000001,2.11548,-1.2993,-2.03,-39.1475,56.875
490,232076,0.660996,-0.671976,-1.116056,66.53501,-4.3925,28.6475
491,232173,0.5636399999999999,0.35697199999999996,-0.8317960999999999,38.8675,-21.175,37.9225
492,232270,0.524112,-0.033672,-0.8703481,30.3975,-17.255,26.4075
493,232368,0.5504641,0.121512,-0.8693719999999999,28.9625,-10.15,18.9875
494,232465,0.5165481,0.018056,-0.885964,20.3525,-8.0325,12.6
495,232562,0.5060560000000001,0.08637601,-0.8823040000000001,14.0525,-3.71,7.8575
496,232659,0.49312399999999995,0.087352,-0.8725440999999999,8.9075,1.365,4.13
497,232756,0.50874,0.09784401,-0.8632719999999999,5.285,5.145,2.1175
498,232853,0.511424,0.10345599999999999,-0.8532681000000001,2.8875,7.525,0.4025
499,232950,0.504592,0.12761199999999998,-0.8525360000000001,1.155,8.785,-0.2275
500,233047,0.505568,0.121268,-0.8447280999999999,0.9975,9.555,0.1575
501,233144,0.5099600000000001,0.159088,-0.8486319999999999,1.1725,9.5375,0.77
502,233241,0.506788,0.17763199999999998,-0.8620521000000001,3.885,8.365,2.3625
503,233339,0.5170359999999999,0.143228,-0.861808,8.1025,6.8425,4.165
504,233436,0.5314321,0.098088,-0.85156,10.0625,5.53,5.005
505,233533,0.509472,0.08296,-0.8491200000000001,9.1875,4.4975,4.5325
506,233630,0.515328,0.08857201,-0.858392,7.4725,5.215,3.6925
507,233727,0.51972,0.098332,-0.849608,6.6325,6.0025,3.7625
508,233824,0.519964,0.10126,-0.8479,6.16,6.9125,4.2875
509,233921,0.522892,0.096868,-0.83936,6.0375,7.315,5.215
510,234018,0.522892,0.08003201,-0.8261841000000001,5.215,8.2775,5.705
511,234115,0.510204,0.118096,-0.8437520000000001,3.9725,9.6075,6.8075
512,234212,0.527528,0.08369201,-0.8422879999999999,4.9175,12.4075,8.4875
513,234310,0.509472,0.090036,-0.841556,3.9725,14.6825,9.5025
514,234407,0.523868,0.061975999999999996,-0.8513161,3.64,18.48,10.045
515,234504,0.465308,0.03172,-0.8759601,1.9075,23.555,11.2
516,234601,0.527284,0.011712,-0.843508,0.0175,33.2675,9.59
517,234698,0.515084,0.05124001,-0.8527800999999999,-3.3075,42.245,7.035
518,234795,0.5119121,0.07588400000000001,-0.8471681000000001,-6.09,52.0275,5.46
519,234892,0.522648,0.08417999999999999,-0.85156,-8.0675,62.09,4.4975
520,234989,0.536556,0.119072,-0.8422879999999999,-8.5575,71.1375,3.9375
521,235086,0.528504,0.205692,-0.8757159999999999,-7.7525,79.1875,6.1775
522,235183,0.52704,0.23546,-0.8857200999999999,-4.1825,87.64,13.475
523,235281,0.528504,0.154452,-0.8949921000000001,1.435,97.51,23.5725
524,235378,0.525576,0.044164,-0.9015799999999999,6.0025,108.7275,29.82
525,235475,0.5206960999999999,-0.029036000000000003,-0.936716,10.01,122.045,29.015
526,235572,0.493856,0.012931999999999999,-0.906948,13.1075,138.5825,23.8
527,235669,0.527528,0.162748,-0.915976,14.0875,160.0025,22.9075
528,235766,0.568764,0.211304,-0.9089001,16.94,183.0675,31.2725
529,235863,0.5887720000000001,0.188856,-0.9167081,24.5,207.69,43.05
530,235960,0.5958479999999999,0.21886799999999998,-0.8971879999999999,35.9625,235.62,53.5325
531,236057,0.6319600000000001,0.244,-0.944768,47.635,266.2625,63.805
532,236154,0.7019880000000001,0.256932,-0.9325680000000001,58.3625,299.9325,74.76
533,236252,0.9198799999999999,0.30792800000000004,-1.0704280000000002,68.4775,337.4875,86.17
534,236349,1.141676,0.48433999999999994,-1.400316,74.8825,376.25,98.5775
535,236446,1.51158,0.46628400000000003,-1.474492,90.7725,418.985,123.41
536,236543,2.037888,-0.11760799999999999,-1.752652,90.51001,460.74,145.0575
537,236640,2.328004,0.279136,-2.021296,54.3375,482.965,148.2075
538,236737,3.098312,0.7266321,-2.85724,23.2225,487.0425,142.2225
539,236834,2.4138919999999997,1.358104,-2.7215759999999998,49.21,434.6125,170.73
540,236931,1.992748,1.095804,-2.666432,78.19,386.96,196.7875
541,237028,-0.015128,1.087264,-2.2479720000000003,75.95,337.9775,174.4225
542,237126,2.053748,1.179252,-2.193804,92.55751,267.26,123.375
543,237223,1.9707880000000002,1.512312,-3.519456,16.905,195.7375,17.5
544,237320,0.148108,1.6662759999999999,-2.470988,6.195,-11.97,-56.455
545,237417,-0.43041599999999997,1.047736,-1.5408600000000001,33.46,-60.375,-88.70749
546,237514,-0.635864,0.513376,-1.219268,51.6425,-67.6725,-92.645
547,237611,-0.34648,0.16714,-1.2336639999999999,35.2625,-68.6,-93.5025
548,237708,-0.16201600000000002,0.09418401,-1.272704,-6.1075,-87.64,-96.6175
549,237805,-0.02806,0.185684,-1.292712,-43.54,-120.96,-97.7025
550,237902,0.05929201,0.254492,-1.2526959999999998,-59.745,-157.0975,-93.975
551,237999,0.143716,0.24326799999999998,-1.1660760000000001,-58.065,-190.085,-88.18251
552,238097,0.24863600000000002,0.172264,-1.083604,-49.42,-218.47,-84.00001
553,238194,0.329888,0.096868,-1.005036,-43.8375,-243.7925,-83.3875
554,238291,0.38966799999999996,0.039772,-0.9298841,-44.1,-265.72,-86.24
555,238388,0.431148,0.0122,-0.879864,-48.58,-283.7275,-91.175
556,238485,0.467504,0.020008,-0.849608,-53.5325,-297.15,-96.4075
557,238582,0.519964,0.03538,-0.865956,-56.2275,-305.9875,-100.52
558,238679,0.6229319999999999,0.047092,-0.913048,-56.175,-311.6225,-103.3025
559,238776,0.769088,0.07002799999999999,-0.9955200000000001,-54.81,-317.555,-104.8075
560,238873,0.9552601000000001,0.104432,-1.111664,-53.025,-325.9025,-105.56
561,238970,1.088484,0.14274,-1.186328,-49.7525,-338.5375,-106.365
562,239067,1.2439120000000001,0.09638,-1.285636,-45.9025,-352.6075,-107.555
563,239165,1.36884,0.163968,-1.348832,-53.2875,-367.5875,-110.6
564,239262,1.536956,0.329888,-1.4774200000000002,-59.57,-381.01,-114.695
565,239359,1.7575319999999999,0.5429,-1.62016,-56.28,-392.7,-120.54
566,239456,2.056188,0.818376,-1.7753439999999998,-41.895,-401.765,-129.395
567,239553,2.278228,0.6141479999999999,-1.676768,-14.875,-407.575,-143.08
568,239650,2.6776560000000003,-0.37088000000000004,-1.607716,-7.875,-400.435,-178.36
569,239747,3.341824,-0.3843,-1.506944,-74.585,-403.515,-223.7725
570,239844,3.896924,-0.010004,-1.402268,-131.8625,-404.4775,-253.82
571,239941,4.226812000000001,0.5119121,-0.9772200999999999,-128.87,-401.5375,-249.5675
572,240038,4.075776,0.064172,-0.068076,-60.6725,-386.8375,-198.3975
573,240135,3.86496,-0.687592,1.042368,-7.455,-355.3725,-121.3975
574,240232,3.439668,-1.509628,1.95688,-37.45,-310.17,-31.0975
575,240330,3.659756,-1.9642,2.4217,-148.925,-245.5775,45.605
576,240427,4.284152,-1.50304,2.4551279999999998,-286.7375,-185.36,66.7975
577,240524,4.056255999999999,-0.438712,2.3319080000000003,-331.87,-135.765,53.06
578,240621,3.167852,0.42748800000000003,2.163548,-221.095,-71.155,58.3275
579,240718,2.871148,0.235948,1.99836,-8.2425,27.1425,97.16001
580,240815,-0.484584,1.850008,-0.899384,162.1025,113.96,139.23
581,240912,-0.922076,3.3181559999999997,-2.990708,361.2875,155.3475,147.0175
582,241009,-1.181448,0.8620521000000001,-1.7692439999999998,429.8525,206.465,95.69
583,241106,-1.382016,-2.3306880000000003,1.9417520000000001,348.7575,238.1225,-33.355
584,241203,1.3825040000000002,-2.4151119999999997,-0.509716,183.8375,346.22,-135.3975
585,241300,3.4882239999999998,-3.4526,-2.696932,91.525,385.5075,-122.8325
586,241398,2.49002,-3.874964,-2.4622040000000003,81.585,294.315,2.52
587,241495,1.4422840000000001,-1.324676,-1.3527360000000002,2.3975,219.555,106.295
588,241592,2.791116,3.9637800000000003,-3.623156,-89.0225,194.915,106.575
589,241689,1.407148,2.858216,-0.377712,58.5375,138.845,62.0725
590,241786,1.0077200000000002,-2.608116,-1.806332,195.475,102.13,55.2825
591,241883,0.53192,-0.9296399999999999,0.26108000000000003,74.095,53.7075,49.7525
592,241980,0.930372,1.2587959999999998,-1.4274,13.2475,-25.6725,48.0725
593,242077,0.5248441,-0.513376,-0.9638,66.3775,-1.26,20.195
594,242174,0.653188,0.29402,-0.874984,27.44,-12.6,29.6625
595,242271,0.502884,-0.114924,-0.8849879999999999,24.5875,-4.97,16.765
596,242369,0.556076,0.104676,-0.8637601,12.2675,-1.9075,9.31
597,242466,0.527284,0.044164,-0.87108,8.05,3.395,2.4675
598,242563,0.525576,0.087108,-0.8605879999999999,2.3625,5.775,-1.26
599,242660,0.5219159999999999,0.098088,-0.853512,-1.1725,8.855,-3.535
600,242757,0.524356,0.13176,-0.8510719999999999,-3.7625,10.325,-4.5325
601,242854,0.526552,0.156648,-0.8422879999999999,-4.305,11.305,-4.3225
602,242951,0.5158159999999999,0.17202,-0.8418,-3.7275,11.7425,-2.8
603,243048,0.5192319999999999,0.200324,-0.8457040000000001,-2.415,11.935,-0.525
604,243145,0.514352,0.20788800000000002,-0.8461921,1.6275,11.305,3.01
605,243243,0.535092,0.14469200000000002,-0.8540000000000001,7.42,10.325,6.3
606,243340,0.540704,0.077348,-0.8459479999999999,9.415,9.415,6.7025
607,243437,0.536068,0.10858,-0.85034,6.7725,9.38,4.76
608,243534,0.5294800000000001,0.111996,-0.846924,4.97,10.885,3.78
609,243631,0.534604,0.1037,-0.8410681000000001,3.92,12.32,3.4125
610,243728,0.5314321,0.110044,-0.8396040000000001,2.3625,13.4925,3.0975
611,243825,0.5463161,0.100772,-0.830576,1.505,15.2425,2.835
612,243922,0.539972,0.096624,-0.821304,0.175,16.8,2.9925
613,244019,0.5353359999999999,0.11321600000000001,-0.8283799999999999,-0.4725,18.2525,3.955
614,244116,0.531676,0.080276,-0.813496,-0.14,20.545,4.5675
615,244213,0.515328,0.082472,-0.8525360000000001,-1.6625,22.505,5.3375
616,244311,0.5453399999999999,0.068564,-0.8300879999999999,-1.7675,26.3375,4.585
617,244408,0.5414359999999999,0.08564401,-0.8276481,-2.38,29.4,3.71
618,244505,0.54778,0.08442401,-0.8215481,-3.255,33.7225,2.8175
619,244602,0.555588,0.100284,-0.8176439999999999,-4.62,38.7275,1.96
620,244699,0.548512,0.10418800000000002,-0.8230120999999999,-6.125,44.345,1.855
621,244796,0.5607121,0.122,-0.809348,-7.42,52.0975,2.3625
622,244893,0.5392399999999999,0.129076,-0.835456,-8.68,59.43,4.445
623,244990,0.543144,0.13054000000000002,-0.8459479999999999,-8.1025,67.375,6.79
624,245087,0.545096,0.156648,-0.8576601,-7.9975,77.105,9.31
625,245184,0.529968,0.136152,-0.8725440999999999,-6.86,88.935,12.495
626,245282,0.549244,0.13078399999999998,-0.8967,-5.4775,102.515,14.945
627,245379,0.554124,0.044407999999999996,-0.85644,-1.925,115.92,16.9575
628,245476,0.548512,0.013175999999999998,-0.856196,-0.665,130.935,15.2425
629,245573,0.5514399999999999,0.096868,-0.85888,0.7,147.525,11.7425
630,245670,0.558272,0.198372,-0.8261841000000001,0.8400001,166.04,12.53
631,245767,0.576328,0.23838800000000002,-0.8108121,0.28,187.705,20.685
632,245864,0.59658,0.19642,-0.8164239999999999,3.5175,210.8225,30.4325
633,245961,0.656848,0.1708,-0.8547319999999999,6.7725,234.5175,35.3675
634,246058,0.6497721,0.142984,-0.853512,13.335,260.5925,37.2225
635,246156,0.743712,0.170312,-0.8510719999999999,16.0125,291.2175,39.2175
636,246253,1.067256,0.14688800000000002,-1.1514360000000001,12.32,330.295,48.8075
637,246350,1.011136,0.31012399999999996,-1.208532,4.0075,367.465,59.885
638,246447,1.519876,0.43798000000000004,-1.440576,22.6975,405.3,76.93
639,246544,1.912716,0.26156799999999997,-1.3583479999999999,45.4825,440.1775,87.99
640,246641,1.952488,0.5858439999999999,-2.039596,32.06,469.035,99.575
641,246738,2.011048,0.14762,-1.565504,53.725,481.4425,114.4325
642,246835,2.5283279999999997,0.7056479999999999,-2.2469959999999998,8.7325,485.0475,78.96
643,246932,2.040572,1.3827479999999999,-2.078148,8.435,459.41,120.12
644,247030,1.9117400000000002,1.092876,-2.678388,21.56,413.7175,151.305
645,247127,-0.172264,0.681492,-1.67628,14.0175,350.0175,135.5375
646,247224,1.833416,0.6009720000000001,-1.993236,10.57,282.38,114.38
647,247321,3.4038,1.4988920000000001,-4.86292,-93.4675,176.6625,35.4025
648,247418,0.374296,1.666032,-2.937272,-73.325,-90.52750999999999,-0.21
649,247515,-0.291824,1.046028,-1.8285360000000002,-21.3325,-176.015,-7.28
650,247612,-0.709064,0.45164399999999993,-1.250988,18.8825,-195.44,10.01
651,247709,-0.49702799999999997,0.12444000000000001,-1.09312,6.37,-187.6175,16.4325
652,247806,-0.142496,0.08906,-1.18706,-38.4475,-193.27,8.925
653,247903,0.082228,0.264496,-1.272704,-83.0375,-217.56,-5.3375
654,248001,0.24790399999999999,0.388692,-1.284416,-101.185,-249.13,-18.2525
655,248098,0.31012399999999996,0.359168,-1.197552,-95.8825,-279.4225,-29.715
656,248195,0.341356,0.245464,-1.079212,-84.01751,-303.065,-43.47
657,248292,0.368684,0.123464,-0.983808,-77.3325,-318.675,-60.6375
658,248389,0.40992,0.029768,-0.9345201,-77.14,-328.16,-79.9225
659,248486,0.484828,-0.01098,-0.9450120000000001,-79.625,-333.2,-98.49
660,248583,0.571204,-0.008052001,-1.000156,-79.8875,-336.4025,-113.995
661,248680,0.693692,-0.019032,-1.100196,-73.4125,-339.0975,-124.005
662,248777,0.8418,-0.06661201,-1.190232,-61.915,-342.79,-128.5375
663,248874,0.9616040000000001,-0.133956,-1.270752,-51.835,-349.3525,-128.4675
664,248972,1.11264,-0.17202,-1.374696,-47.3375,-357.28,-125.825
665,249069,1.2883200000000001,-0.133712,-1.4776639999999999,-47.7575,-367.3075,-121.7125
666,249166,1.4417959999999999,-0.049532,-1.5701399999999999,-48.4575,-379.4175,-117.425
667,249263,1.57502,0.042212,-1.6460240000000002,-46.4275,-390.46,-114.485
668,249360,1.7040959999999998,0.170068,-1.700192,-42.4375,-397.985,-112.91
669,249457,1.9300400000000002,0.168604,-1.7641200000000001,-36.9075,-399.2975,-113.4175
670,249554,2.35216,-0.052703999999999994,-1.818532,-38.045,-394.52,-122.395
671,249651,2.8243,-0.07588400000000001,-1.8839240000000002,-56.7875,-391.86,-142.38
672,249748,3.237636,-0.168604,-1.796328,-75.7225,-390.565,-165.3925
673,249845,3.5245800000000003,0.063928,-1.3712799999999998,-88.2875,-386.1375,-185.1675
674,249943,3.839828,0.361608,-0.6158561,-75.1975,-377.825,-180.8275
675,250040,4.0996879999999996,0.23546,0.431148,-26.6,-356.72,-137.655
676,250137,3.7710199999999996,-0.5267960999999999,1.537932,2.5725,-320.6875,-59.0975
677,250234,3.371104,-1.7890080000000002,2.3018959999999997,-57.61,-265.475,19.3725
678,250331,3.599732,-1.808284,2.5866439999999997,-228.76,-204.6975,35.5075
679,250428,3.8891160000000005,-0.5363121,2.38144,-373.59,-147.875,-11.305
680,250525,3.6397480000000004,0.821792,2.071804,-329.805,-86.7825,-43.61
681,250622,3.048536,0.8625401,1.979816,-101.43,-8.3125,-14.7875
682,250719,2.7999,-0.00366,1.8275599999999999,131.4775,83.7725,41.2125
683,250816,0.677832,0.522648,0.345992,207.235,158.585,63.2625
684,250914,-0.5294800000000001,2.214544,-2.016172,252.4375,196.49,44.0475
685,251011,-0.966728,1.0767719999999998,-2.0581400000000003,308.105,228.6025,9.1525
686,251108,-0.9006040999999999,-2.278716,0.61488,260.0675,273.91,-71.1375
687,251205,1.284904,-2.59738,-0.15274400000000002,160.23,355.215,-125.545
688,251302,3.229584,-2.892132,-2.460496,55.93,399.0525,-71.9775
689,251399,2.47538,-2.897256,-2.257732,48.475,314.02,32.2175
690,251496,1.830732,0.44822799999999996,-0.965996,-22.9775,240.8875,101.15
691,251593,4.7492160000000005,5.327496,-1.9305279999999998,-37.73,208.6175,98.35
692,251690,-0.291824,-0.8908440999999999,0.615368,173.5475,83.96500999999999,49.175
693,251787,2.639592,-1.971032,-2.8079520000000002,125.65,88.04251,71.085
694,251885,0.09320801,1.872944,-0.8908440999999999,21.035,-37.94,60.5675
695,251982,0.6480640000000001,-0.44090799999999997,-0.71126,45.1325,2.52,30.205
696,252079,0.66368,0.158112,-0.7320001,44.31,-12.6,31.675
697,252176,0.602436,0.03294,-0.879376,23.835,-15.505,27.23
698,252273,0.5119121,0.08564401,-0.8786440999999999,24.78,-4.4275,17.29
699,252370,0.5441199999999999,0.05612,-0.8818159999999999,14.6475,-0.77,10.64
700,252467,0.5170359999999999,0.10931199999999999,-0.889624,11.6725,2.1,6.3875
701,252564,0.5292359999999999,0.08369201,-0.861808,6.9825,5.5825,3.9025
702,252661,0.515328,0.12395199999999999,-0.856684,3.57,7.805,2.2925
703,252758,0.5070319999999999,0.130052,-0.8520479999999999,1.7675,9.31,1.4875
704,252856,0.511424,0.141276,-0.8479,1.0325,11.2525,1.575
705,252953,0.51118,0.178852,-0.8457040000000001,1.0675,12.74,2.345
706,253050,0.528504,0.15738,-0.856684,4.1125,13.265,4.1825
707,253147,0.548756,0.10492,-0.854244,7.8225,12.6,5.46
708,253244,0.54778,0.119316,-0.863028,7.7525,11.3225,5.145
709,253341,0.542168,0.105652,-0.8527800999999999,7.35,11.235,4.6725
710,253438,0.5392399999999999,0.110044,-0.85034,5.985,11.2175,3.7975
711,253535,0.53314,0.129564,-0.8439959999999999,5.32,11.725,3.8675
712,253632,0.522648,0.12468399999999999,-0.854244,5.67,13.1775,4.6375
713,253730,0.530456,0.162992,-0.865468,7.8575,15.855,7.2275
714,253827,0.47677600000000003,0.07246799999999999,-0.835456,10.4825,20.8775,10.8675
715,253924,0.546072,0.06880801,-0.823256,8.6625,27.055,12.67
716,254021,0.551928,0.04392,-0.824232,6.895,30.03,11.1475
717,254118,0.543632,0.05172801,-0.8222799999999999,5.005,33.0575,9.8
718,254215,0.546072,0.068564,-0.820084,3.57,36.33,7.6475
719,254312,0.549244,0.084912,-0.830332,3.36,39.6725,6.3875
720,254409,0.5655920999999999,0.094916,-0.8222799999999999,3.5175,43.12,6.265
721,254506,0.5736441,0.098332,-0.8176439999999999,4.0075,46.8825,6.9475
722,254603,0.580964,0.10614000000000001,-0.813496,4.41,51.135,7.91
723,254701,0.574864,0.09784401,-0.812276,4.2175,56.4725,9.1175
724,254798,0.57096,0.08417999999999999,-0.812032,3.115,63.63,10.605
725,254895,0.5692520000000001,0.077348,-0.815448,1.68,72.0125,11.795
726,254992,0.574864,0.091988,-0.820816,0.525,81.13,12.3725
727,255089,0.5814520000000001,0.09735601,-0.8383841000000001,0.9625,89.425,13.5275
728,255186,0.571204,0.138104,-0.861808,2.31,97.6675,15.645
729,255283,0.561688,0.14786400000000002,-0.8642481,5.1975,106.925,20.335
730,255380,0.5734,0.060267999999999995,-0.846924,9.5725,118.23,25.06
731,255477,0.5724239999999999,-0.00122,-0.8425321,13.0025,130.585,25.4975
732,255574,0.59658,-0.0122,-0.8335040000000001,17.43,144.34,21.84
733,255672,0.574864,0.053924,-0.8039801,21.035,162.365,17.6575
734,255769,0.636108,0.163968,-0.793488,23.45,183.855,18.34
735,255866,0.642452,0.16714,-0.763476,25.585,206.0275,24.3075
736,255963,0.696132,0.142496,-0.7705521,26.6175,228.2525,32.13
737,256060,0.711016,0.12395199999999999,-0.81862,29.12,253.6975,36.4
738,256157,0.743468,0.163968,-0.90646,32.41,280.28,39.2
739,256254,0.995764,0.149328,-1.0521280000000002,30.6775,311.1675,46.0075
740,256351,1.048468,0.186416,-1.0260200000000002,27.8425,344.5575,60.0775
741,256448,1.556232,0.172996,-1.312232,41.4925,383.3375,74.1475
742,256546,2.101572,0.359168,-1.7694880000000002,49.9975,421.82,89.39
743,256643,1.8961240000000001,0.3965,-1.8534240000000002,52.01,451.815,102.2525
744,256740,1.834148,-0.286456,-1.5445200000000001,65.03,475.405,102.55
745,256837,2.440976,0.37112399999999995,-2.155984,-4.5675,484.855,62.9825
746,256934,2.413404,1.272704,-2.417064,0.9625,462.2625,100.485
747,257031,2.200392,1.2214639999999999,-2.763056,33.4075,413.14,132.5625
748,257128,0.194224,0.5799880000000001,-2.0112919999999996,51.52,345.765,127.785
749,257225,1.63968,0.63562,-1.3786,73.3425,278.88,110.425
750,257322,3.3611,1.291004,-4.687972,-27.09,199.5175,31.7275
751,257419,0.580476,1.52134,-2.968748,-23.1,-56.4025,-11.2875
752,257517,-0.175924,0.9110959999999999,-1.862208,15.6625,-139.3,-23.5725
753,257614,-0.5294800000000001,0.373808,-1.364692,40.285,-163.0475,-14.3325
754,257711,-0.3233,0.095648,-1.230492,16.3625,-167.2475,-14.42
755,257808,-0.08954801,0.11102000000000001,-1.261236,-31.7275,-183.715,-22.47
756,257905,0.075396,0.263764,-1.282464,-69.475,-213.535,-28.49
757,258002,0.156648,0.304268,-1.2038959999999999,-80.4125,-245.875,-28.735
758,258099,0.167628,0.237656,-1.05408,-76.4225,-273.4025,-28.105
759,258196,0.226188,0.14005599999999999,-0.9398880999999999,-73.09751,-291.69,-32.3925
760,258294,0.310368,0.07881200000000001,-0.8701040000000001,-76.5975,-303.905,-43.26
761,258391,0.38503200000000004,0.067832,-0.8605879999999999,-83.65001,-313.5825,-58.7125
762,258488,0.456524,0.089304,-0.8781559999999999,-87.0275,-320.95,-74.655
763,258585,0.543388,0.085888,-0.9298841,-83.1075,-325.7625,-87.7975
764,258682,0.666608,0.033428,-1.0077200000000002,-75.1275,-329.735,-97.65
765,258779,0.82594,-0.026595999999999998,-1.098244,-68.79251,-335.545,-105.0175
766,258876,0.9677040000000001,-0.068076,-1.181692,-67.235,-344.6975,-109.83
767,258973,1.1070280000000001,-0.069052,-1.266604,-69.4225,-355.9675,-112.14
768,259070,1.275144,-0.031964,-1.369328,-72.87,-367.675,-112.28
769,259168,1.458388,0.036844,-1.4722959999999998,-74.725,-380.0125,-111.5275
770,259265,1.6206479999999999,0.149572,-1.5706280000000001,-74.41,-393.3825,-110.88
771,259362,1.7934,0.28328400000000004,-1.671888,-70.8925,-405.0725,-112.42
772,259459,2.02276,0.4819,-1.7836400000000001,-63.9275,-413.2975,-118.055
773,259556,2.1713560000000003,0.2196,-1.7226400000000002,-51.345,-416.3775,-129.4825
774,259653,2.611532,-0.274744,-1.730448,-58.9925,-409.92,-158.445
775,259750,3.087332,-0.188612,-1.759728,-101.2375,-407.8725,-195.0375
776,259847,3.5633760000000003,-0.127368,-1.671156,-125.265,-401.135,-221.4975
777,259944,3.7451559999999997,0.203008,-1.112884,-116.9525,-393.645,-230.7375
778,260042,4.070652,0.271084,-0.18544000000000002,-64.0325,-379.435,-204.4
779,260139,3.907172,-0.27279200000000003,0.992348,1.6975,-352.0125,-135.38
780,260236,3.4208800000000004,-1.314184,1.9781080000000002,7.3325,-303.485,-42.0875
781,260333,3.582164,-2.203564,2.477576,-97.19501,-237.93,28.7525
782,260430,4.044544,-1.543544,2.425848,-274.6625,-180.5825,36.2775
783,260527,3.981836,-0.17616800000000002,2.153788,-346.955,-133.0525,7.5425
784,260624,3.1583360000000003,0.780068,1.9549279999999998,-222.6875,-73.4475,10.99
785,260721,2.797704,0.255468,1.87148,17.4125,17.4825,57.925
786,260818,1.2021879999999998,0.821304,0.7156520000000001,173.3375,107.2225,106.5575
787,260915,-0.9211,1.5018200000000002,-0.913536,278.7575,190.9075,135.03
788,261013,-0.655384,1.059936,-2.5053919999999996,310.87,231.28,106.54
789,261110,-0.638548,-1.713368,0.30109600000000003,247.38,248.8325,-15.3475
790,261207,1.129232,-2.240652,-0.05124001,136.745,325.01,-115.78
791,261304,3.127836,-2.960696,-2.6779,53.515,387.3975,-69.66751
792,261401,2.485384,-2.7223080000000004,-2.454152,32.9525,307.9125,29.82
793,261498,1.327116,-0.38356799999999996,-1.055056,-33.46,228.48,95.8125
794,261595,3.180784,5.083496,-3.6987959999999998,-85.92501,212.3975,96.84501
795,261692,0.945256,1.167784,0.24668400000000001,118.055,136.4125,47.88
796,261789,1.4515559999999998,-2.3067759999999997,-2.229428,192.6225,116.6725,62.9475
797,261886,1.028216,-0.156892,-0.41382399999999997,69.685,41.1075,56.14
798,261984,0.543876,0.80886,-1.04554,29.3825,-17.29,52.325
799,262081,0.729804,-0.458476,-1.0565200000000001,67.6375,2.73,31.115
800,262178,0.5612,0.223504,-0.8852321,31.15,-14.1575,33.4075
801,262275,0.5489999999999999,-0.024156,-0.8903561,23.8175,-7.1225,19.2675
802,262372,0.557296,0.09247601,-0.8601,15.015,-1.925,12.4075
803,262469,0.5219159999999999,0.08564401,-0.8786440999999999,8.82,2.0125,5.8275
804,262566,0.517524,0.118096,-0.8657120999999999,3.5875,5.355,2.24
805,262663,0.524356,0.116632,-0.8491200000000001,0.805,7.6475,0.5775
806,262760,0.5185,0.14884,-0.8447280999999999,-1.2425,9.2225,-0.1225
807,262857,0.5165481,0.149328,-0.8405800999999999,-1.925,10.325,0.28
808,262955,0.517524,0.14884,-0.844972,-1.6625,11.3925,1.3475
809,263052,0.5185,0.17446,-0.8559521000000001,0.175,11.7075,3.045
810,263149,0.522648,0.200324,-0.856684,4.3225,11.095,5.5825
811,263246,0.543632,0.170312,-0.8479,8.68,9.9925,8.82
812,263343,0.5458281,0.12980799999999998,-0.8413120000000001,11.0075,8.2425,10.1675
813,263440,0.543144,0.111752,-0.8398479999999999,11.165,7.0,9.31
814,263537,0.5499761,0.10833599999999999,-0.8418,10.185,6.65,7.805
815,263634,0.551928,0.11053199999999999,-0.835456,8.995,6.5625,7.4025
816,263731,0.539484,0.121268,-0.8398479999999999,7.3325,6.685,7.35
817,263828,0.536556,0.111996,-0.8300879999999999,6.6325,7.5775,7.63
818,263926,0.518988,0.14274,-0.8357,5.6875,8.54,8.82
819,264023,0.5404601,0.111752,-0.828868,6.6675,10.5175,11.1475
820,264120,0.5458281,0.08100801,-0.81618,6.6325,12.145,12.705
821,264217,0.5160600000000001,0.074664,-0.8437520000000001,5.4775,13.7725,12.2675
822,264314,0.5267960999999999,0.074664,-0.84546,5.7575,16.7825,10.9025
823,264411,0.516792,0.052948,-0.8420440999999999,5.005,20.16,9.3275
824,264508,0.542656,0.035624,-0.8413120000000001,3.36,25.6725,6.7025
825,264605,0.533628,0.03294,-0.8361879999999999,0.63,31.36,3.1325
826,264702,0.5267960999999999,0.055388,-0.824232,-3.2725,39.3225,-0.7175
827,264800,0.5246,0.091012,-0.8400921,-6.615,48.8425,-3.045
828,264897,0.536068,0.09247601,-0.8249639999999999,-8.7675,58.6425,-4.2
829,264994,0.534116,0.089304,-0.8378960999999999,-9.9925,68.67,-4.9875
830,265091,0.540948,0.139324,-0.8579041,-10.7625,77.735,-4.585
831,265188,0.53192,0.17836400000000002,-0.8610761,-10.2725,87.0975,-0.56
832,265285,0.53192,0.172508,-0.8991401,-8.19,98.875,5.5125
833,265382,0.535092,0.088328,-0.8725440999999999,-4.0425,112.21,10.3775
834,265479,0.559736,0.001464,-0.8679081,-1.1375,125.825,11.025
835,265576,0.5797441,0.03904,-0.9150001,0.56,140.4025,7.735
836,265674,0.5458281,0.162992,-0.8637601,2.1875,156.9575,6.825
837,265771,0.583404,0.257664,-0.826672,1.75,176.75,12.075
838,265868,0.6080479999999999,0.22789600000000002,-0.78446,5.0575,196.8225,22.8725
839,265965,0.655628,0.192272,-0.79422,8.995,216.3175,31.5
840,266062,0.65514,0.160308,-0.843508,13.3,236.6175,37.1175
841,266159,0.696376,0.197884,-0.8954801,20.1775,259.5775,42.0525
842,266256,0.7473721,0.2623,-0.9059721,25.655,289.24,51.1525
843,266353,1.10166,0.27279200000000003,-1.084824,26.3025,327.425,65.1
844,266450,1.077992,0.454816,-1.337608,31.7975,360.675,85.12
845,266547,1.67262,0.42773199999999995,-1.344196,64.155,399.14,108.885
846,266645,2.059604,0.365268,-1.68238,72.1,434.0875,120.4525
847,266742,1.8751400000000003,0.307196,-1.8336599999999998,64.19,450.555,131.215
848,266839,2.192584,0.07978801,-1.609668,61.0575,461.615,112.315
849,266936,2.3441080000000003,0.8601,-2.1228,0.665,454.9475,104.2825
850,267033,2.168428,1.279536,-2.4687919999999997,28.7,412.72,145.74
851,267130,1.40544,0.800076,-2.1167,37.8875,364.4375,154.595
852,267227,-0.6231760999999999,0.431392,-2.0642400000000003,49.8225,302.33,141.8725
853,267324,4.034296,0.7483479999999999,-4.368087999999999,26.845,257.565,111.65
854,267421,1.480348,1.223416,-2.933368,-46.9175,104.9125,46.8125
855,267519,0.35502,1.311988,-2.4565919999999997,-33.6175,-68.8275,12.67
856,267616,-0.342088,0.778116,-1.5067,3.185,-131.075,8.5925
857,267713,-0.620736,0.40381999999999996,-1.108248,13.7375,-141.2425,15.505
858,267810,-0.423828,0.226188,-1.0499319999999999,-6.8775,-141.26,14.0
859,267907,-0.233264,0.254736,-1.0711600000000001,-44.0825,-149.8,3.8675
860,268004,-0.040504000000000005,0.388936,-1.1272799999999998,-74.025,-169.82,-9.205
861,268101,0.09784401,0.46433199999999997,-1.136796,-83.9825,-195.0025,-21.525
862,268198,0.18178,0.43944399999999995,-1.092388,-77.56,-220.115,-33.74
863,268295,0.24790399999999999,0.333548,-1.01626,-65.9575,-241.7975,-48.02
864,268393,0.286456,0.21228000000000002,-0.9440360999999999,-59.2725,-258.9825,-65.8525
865,268490,0.34257600000000005,0.121268,-0.9089001,-59.7975,-271.9325,-86.17
866,268587,0.406504,0.07832401,-0.9001161,-63.525,-282.0825,-106.54
867,268684,0.49532,0.055144000000000006,-0.942816,-64.9075,-289.7125,-123.6025
868,268781,0.6182960999999999,0.036356,-1.019676,-61.425,-296.5025,-135.4675
869,268878,0.759328,0.001464,-1.103124,-54.075,-304.255,-141.96
870,268975,0.9228081,-0.036844,-1.185352,-46.2,-314.825,-143.7975
871,269072,1.07726,-0.065148,-1.271484,-40.9325,-329.1225,-141.855
872,269169,1.238056,-0.054655999999999996,-1.347124,-39.0425,-345.6425,-137.13
873,269266,1.3969,-0.02074,-1.4208120000000002,-39.7775,-363.0375,-131.495
874,269364,1.5408600000000001,0.051484,-1.487668,-41.16,-380.275,-126.1925
875,269461,1.671644,0.173728,-1.5786799999999999,-41.195,-395.6925,-121.87
876,269558,1.8343919999999998,0.29792399999999997,-1.682868,-38.0275,-406.7,-120.5925
877,269655,2.03618,0.391864,-1.7565560000000002,-33.145,-412.93,-123.585
878,269752,2.308484,0.099552,-1.742404,-28.8925,-412.475,-133.9975
879,269849,2.7835520000000002,-0.029768,-1.800964,-45.2375,-407.0325,-158.2875
880,269946,3.315472,-0.09735601,-1.789984,-73.4825,-402.2025,-185.7975
881,270043,3.743204,-0.08906,-1.4330120000000002,-91.77,-394.415,-211.2075
882,270140,3.8686199999999995,0.38674000000000003,-0.692472,-88.6375,-390.81,-217.5775
883,270238,4.077728,0.302316,0.360144,-33.04,-373.2225,-181.055
884,270335,3.689036,-0.520208,1.494988,20.475,-336.525,-98.9275
885,270432,3.3669559999999996,-2.027396,2.3650919999999998,-18.13,-279.1425,-6.2825
886,270529,3.9332800000000003,-2.368752,2.701324,-198.1175,-216.44,35.4025
887,270626,4.146292,-0.969412,2.5437,-381.5,-168.63,10.4825
888,270723,3.57948,0.691008,2.2179599999999997,-363.23,-116.2175,-15.6275
889,270820,2.672532,0.983808,2.0937639999999997,-126.5425,-33.285,18.0425
890,270917,1.860012,0.348188,1.78486,143.8675,78.785,79.7125
891,271014,0.273036,1.0911680000000001,-0.898164,262.1325,175.5425,130.3575
892,271111,-0.125416,2.51076,-2.483188,293.405,213.57,120.9075
893,271209,-0.8378960999999999,-0.49751599999999996,-0.79422,296.1525,269.6575,51.695
894,271306,0.07344400000000001,-2.284328,0.9886881,215.215,308.315,-82.005
895,271403,2.2831080000000004,-2.4209680000000002,-1.606252,68.1975,386.9075,-113.19
896,271500,2.978752,-3.3593919999999997,-2.975336,59.4475,366.9575,-30.31
897,271597,1.9049080000000003,-2.268224,-1.4635120000000001,8.33,278.1275,74.27
898,271694,4.000868,4.5220519999999995,-4.781668,-89.1975,234.6575,111.02
899,271791,1.351516,1.754604,0.091744,74.62,129.71,55.7375
900,271888,0.57096,-1.6548080000000003,-2.304824,179.76,90.86,62.23
901,271985,0.9296399999999999,-0.696376,-0.352092,72.2925,62.055,50.295
902,272083,0.8364321,0.8820601,-1.199748,20.86,-20.8425,49.0525
903,272180,0.5429,-0.196908,-1.05164,55.02,0.6475,26.355
904,272277,0.6824680000000001,0.213988,-0.818376,28.2975,-5.7575,35.5425
905,272374,0.562908,-0.003172,-0.906216,25.83,-6.72,25.97
906,272471,0.537532,0.091744,-0.8744960999999999,16.52,-4.095,19.355
907,272568,0.536068,0.025131999999999998,-0.87108,13.44,3.0275,12.32
908,272665,0.5577840000000001,0.12444000000000001,-0.8632719999999999,6.475,5.565,7.3325
909,272762,0.5233800000000001,0.12078,-0.8642481,3.675,8.4,5.145
910,272859,0.5343600000000001,0.109556,-0.8601,2.24,11.48,4.305
911,272957,0.5343600000000001,0.122244,-0.8586360000000001,0.525,14.0875,2.8525
912,273054,0.5380199999999999,0.164944,-0.8610761,-0.42,15.68,2.52
913,273151,0.5648601,0.17616800000000002,-0.8554641,1.5925,16.835,3.675
914,273248,0.564616,0.14396,-0.84424,3.815,16.345,5.005
915,273345,0.5655920999999999,0.130296,-0.835456,4.3925,15.75,5.11
916,273442,0.5602239999999999,0.118096,-0.833992,3.6575,15.645,5.0575
917,273539,0.5551,0.132004,-0.8332601000000001,2.4325,15.785,5.11
918,273636,0.461404,0.12468399999999999,-0.856196,2.7825,17.8325,7.4725
919,273733,0.544852,0.09052401,-0.853512,4.935,25.3225,9.45
920,273830,0.549732,0.100772,-0.837408,3.605,29.715,8.295
921,273928,0.5511961,0.085888,-0.8254520000000001,3.3075,33.32,7.9275
922,274025,0.571204,0.08100801,-0.8132520999999999,2.4325,37.1525,6.72
923,274122,0.579256,0.08808401,-0.80276,0.98,40.1275,5.3725
924,274219,0.585356,0.089792,-0.79178,-0.4725,42.0525,3.675
925,274316,0.590724,0.087352,-0.7829961,-1.54,43.4,1.9075
926,274413,0.5934081,0.08906,-0.788852,-2.8175,44.1875,0.4375
927,274510,0.5873079999999999,0.09882,-0.790072,-3.6575,44.6775,-0.6825
928,274607,0.6034121,0.091012,-0.784216,-3.6225,45.5,-1.3475
929,274704,0.609268,0.089792,-0.7666480999999999,-3.43,45.71,-2.0125
930,274802,0.61366,0.08759601,-0.76982,-3.955,46.3925,-2.555
931,274899,0.62708,0.100772,-0.7473721,-4.69,47.5125,-3.0975
932,274996,0.6263479999999999,0.11736400000000001,-0.753228,-6.23,48.0025,-3.22
933,275093,0.626104,0.144448,-0.754692,-7.035,48.195,-2.555
934,275190,0.618784,0.148596,-0.769088,-6.475,48.4575,-1.0325
935,275287,0.61732,0.154696,-0.805932,-5.2325,50.6275,1.365
936,275384,0.6039,0.18251199999999998,-0.813008,-3.605,55.755,5.2675
937,275481,0.589992,0.16592,-0.833992,-0.875,64.0675,10.6225
938,275578,0.5875520000000001,0.082472,-0.847412,2.2225,74.4625,14.63
939,275676,0.58316,0.020008,-0.860344,4.4625,87.5875,14.8575
940,275773,0.56242,0.026595999999999998,-0.832528,4.97,104.0725,10.185
941,275870,0.5692520000000001,0.127368,-0.822768,3.3075,125.125,6.055
942,275967,0.5941401,0.18666,-0.79666,2.7125,147.7525,8.785
943,276064,0.60268,0.16909200000000002,-0.7605481,3.1675,170.17,14.42
944,276161,0.590968,0.11053199999999999,-0.779824,1.855,193.6375,16.17
945,276258,0.615368,0.102968,-0.8425321,-2.0475,219.5725,12.6875
946,276355,0.6392800000000001,0.175924,-0.85034,-7.91,250.3725,8.3125
947,276453,0.8308200000000001,0.199348,-0.966728,-14.7175,291.9,9.0125
948,276550,1.09922,0.345504,-1.107516,-21.735,340.55,24.4475
949,276647,1.131672,0.599264,-1.583072,-10.045,389.4275,55.9825
950,276744,2.0352040000000002,0.5124001,-1.8178,31.7275,434.1925,86.1
951,276841,1.857816,0.20788800000000002,-1.430084,58.4675,464.0825,99.64499
952,276938,2.562732,0.579256,-2.375096,55.825,485.2225,112.2975
953,277035,2.004216,0.773724,-1.849032,72.695,467.9325,110.67
954,277132,2.310192,1.0279719999999999,-2.06058,83.895,443.835,129.1325
955,277229,1.843908,1.4154440000000001,-2.4278,91.84000999999999,402.7625,167.7725
956,277327,0.626836,0.9315921,-1.885144,86.0125,360.045,149.87
957,277424,-0.251564,0.4636,-1.503528,115.29,287.98,129.99
958,277521,4.520588,1.044808,-5.222087999999999,73.395,241.4125,78.085
959,277618,0.5892601,1.1509479999999999,-2.566636,39.3575,27.965,25.4275
960,277715,0.020252000000000003,0.9084121,-1.979572,62.3,-90.86,11.515
961,277812,-0.42212,0.48922,-1.228784,96.4425,-130.7075,37.0125
962,277909,-0.40577199999999997,0.2318,-1.015528,100.2575,-133.3675,68.425
963,278006,-0.044896,0.23228800000000002,-1.103124,74.6375,-142.7475,81.235
964,278103,0.1281,0.45335200000000003,-1.1407,35.3325,-170.03,76.755
965,278200,0.262788,0.71004,-1.143384,10.15,-206.815,65.695
966,278298,0.338672,0.84424,-1.063108,9.5725,-243.6525,55.2475
967,278395,0.41846000000000005,0.849608,-0.961116,21.7175,-274.96,45.2375
968,278492,0.478484,0.81984,-0.8466800999999999,32.8825,-301.035,32.3575
969,278589,0.5355800999999999,0.809348,-0.752984,37.38,-322.175,16.45
970,278686,0.611952,0.84546,-0.69296,37.135,-338.0825,-1.26
971,278783,0.6810039999999999,0.9140241,-0.654896,37.1,-349.1075,-19.8275
972,278880,0.772992,0.9796600000000001,-0.6527,39.27,-355.1275,-38.3775
973,278977,0.90646,1.042856,-0.7017439999999999,41.9475,-357.91,-57.89
974,279074,1.054324,1.084092,-0.765428,44.4675,-360.6575,-80.3425
975,279171,1.2280520000000001,1.112396,-0.821792,45.3425,-364.945,-105.4725
976,279269,1.402024,1.154364,-0.873276,43.33,-371.3675,-131.8275
977,279366,1.547204,1.1594879999999999,-0.9084121,41.58,-376.635,-158.3225
978,279463,1.630164,1.092388,-0.9240280000000001,39.2875,-377.335,-182.8925
979,279560,1.6887240000000001,1.01748,-0.9706319999999999,30.555,-373.0125,-204.1725
980,279657,1.830732,1.021384,-1.073844,13.755,-364.0175,-223.7725
981,279754,2.075952,1.181692,-1.238788,-4.235,-351.435,-242.655
982,279851,2.490752,1.4635120000000001,-1.381284,-12.7225,-338.5375,-263.9525
983,279948,3.069032,1.6692040000000001,-1.436428,-6.02,-328.335,-293.755
984,280045,3.314496,0.648796,-0.996008,12.1975,-321.37,-335.685
985,280142,3.520432,0.077592,-0.677344,-19.39,-311.4125,-388.57
986,280240,3.689768,0.5655920999999999,-0.290848,-93.9925,-304.465,-408.1175
987,280337,3.6900120000000003,0.533384,0.24107199999999998,-104.7725,-276.8325,-369.9675
988,280434,3.6519480000000004,0.08881599,0.8003201,-80.4825,-251.615,-299.985
989,280531,3.493104,-0.351116,1.2944200000000001,-81.9875,-236.1975,-230.4575
990,280628,3.474072,-0.42333999999999994,1.802916,-113.9775,-215.7925,-183.1375
991,280725,3.370128,-0.274256,2.2484599999999997,-137.375,-180.9675,-156.345
992,280822,2.8906680000000002,0.07564,2.48026,-119.2975,-124.005,-138.04
993,280919,2.333616,0.38064000000000003,2.379244,-47.0575,-39.4625,-118.2125
994,281016,2.2911599999999996,0.444568,1.9476080000000002,50.68,61.25,-102.34
995,281113,2.488556,0.25254,1.298568,117.565,142.9225,-104.79
996,281210,1.322724,0.460672,0.7417600000000001,120.9075,184.4675,-128.695
997,281308,-0.772016,0.7388319999999999,-0.788852,99.995,229.285,-126.6475
998,281405,-0.537044,-0.060512,-2.065216,117.4075,275.24,-103.8275
999,281502,0.652212,-2.952888,-0.546804,133.28,328.4925,-86.5025
1000,281599,2.6217799999999998,-2.7772080000000003,-1.9822560000000002,56.49,368.7425,-31.9725
1001,281696,3.769312,-0.423828,-2.2372360000000002,-39.165,344.295,61.565
1002,281793,5.309684,3.082208,-2.21674,-18.5675,232.68,97.5625
1003,281890,0.22033200000000003,0.6527,0.028304000000000003,117.705,62.195,46.9525
1004,281987,0.67588,-0.5382640000000001,-1.399828,91.1575,85.1725,57.855
1005,282084,1.008208,-0.10687200000000001,-0.8918200000000001,71.68,63.9625,51.2925
1006,282181,0.6068279999999999,0.561932,-0.8486319999999999,27.0725,42.875,35.735
1007,282279,0.699792,0.448716,-0.8420440999999999,36.365,20.9475,37.5025
1008,282376,0.788852,0.08369201,-1.133868,50.4,18.305,42.3675
1009,282473,0.550708,0.46726,-0.9484280999999999,41.965,-5.565,50.3125
1010,282570,0.6505041,0.032695999999999996,-1.01016,49.595,-5.6175,53.48
1011,282667,0.61488,0.059048,-0.8945040000000001,45.2025,-5.705,43.9425
1012,282764,0.547048,0.133956,-0.918416,30.415,-8.715,32.8125
1013,282861,0.5355800999999999,0.10126,-0.9237841,28.1225,-2.5375,27.2825
1014,282958,0.538508,0.14566800000000002,-0.8998719999999999,24.6575,4.3925,21.77
1015,283055,0.563884,0.08808401,-0.8703481,24.0625,9.52,16.345
1016,283152,0.531676,0.081496,-0.8581479999999999,21.4725,12.74,11.4975
1017,283249,0.579012,0.06563601,-0.8510719999999999,17.0975,17.7975,7.7
1018,283347,0.439932,0.040260000000000004,-0.824232,12.1625,21.525,4.585
1019,283444,0.5165481,0.125416,-0.9001161,4.4275,32.83,4.865
1020,283541,0.500444,0.12175599999999999,-0.8701040000000001,2.24,45.64,6.9475
1021,283638,0.541924,0.095648,-0.8335040000000001,-0.105,54.6175,7.945
1022,283735,0.558028,0.07881200000000001,-0.820572,-1.365,60.025,7.525
1023,283832,0.5814520000000001,0.09784401,-0.787632,-2.52,62.335,5.845
1024,283929,0.597312,0.09638,-0.7795801,-3.325,62.86,4.585
1025,284026,0.613904,0.10394400000000001,-0.770308,-3.3075,61.635,3.5
1026,284123,0.633912,0.131028,-0.764696,-2.765,58.8175,2.275
1027,284220,0.642696,0.150792,-0.753472,-1.54,54.1625,2.2925
1028,284318,0.6453800000000001,0.146156,-0.749812,0.63,48.1075,4.235
1029,284415,0.6634359999999999,0.126392,-0.739564,2.7125,42.35,5.5125
1030,284512,0.662704,0.140544,-0.73932,3.85,36.925,6.055
1031,284609,0.662704,0.138104,-0.7415161,4.7075,32.095,6.895
1032,284706,0.6566041,0.116876,-0.7439560000000001,5.5825,28.035,8.1025
1033,284803,0.657092,0.101992,-0.741028,6.44,25.62,8.155
1034,284900,0.653676,0.08784,-0.7320001,6.545,24.0275,7.1925
1035,284997,0.6541640000000001,0.077836,-0.730292,5.5475,23.4675,5.46
1036,285094,0.64904,0.069784,-0.7422481,4.375,23.7475,3.4125
1037,285192,0.6541640000000001,0.074664,-0.741272,3.99,24.4475,1.2075
1038,285289,0.653432,0.0854,-0.741272,4.095,24.99,-0.2975
1039,285386,0.6439159999999999,0.08808401,-0.754692,5.0575,25.7775,-1.1375
1040,285483,0.636108,0.120048,-0.777384,6.3875,27.7725,-1.435
1041,285580,0.6229319999999999,0.12688,-0.7812880999999999,8.68,30.975,-0.1575
1042,285677,0.6141479999999999,0.128344,-0.796904,10.2725,37.1525,1.6275
1043,285774,0.61122,0.116876,-0.795928,11.2875,45.395,4.0075
1044,285871,0.605608,0.101504,-0.8054439999999999,12.075,54.915,6.055
1045,285968,0.597068,0.071004,-0.813008,13.4925,66.2025,6.79
1046,286065,0.580232,0.07442,-0.813008,14.8225,80.15,6.895
1047,286163,0.563884,0.101748,-0.8254520000000001,16.205,98.525,7.6475
1048,286260,0.5636399999999999,0.14469200000000002,-0.8552200000000001,17.3775,121.5025,10.5525
1049,286357,0.5489999999999999,0.17738800000000002,-0.909632,19.6,149.5375,16.1
1050,286454,0.55388,0.259372,-0.9616040000000001,21.735,184.3975,23.765
1051,286551,0.593164,0.37698000000000004,-1.062864,25.305,226.6775,36.3475
1052,286648,0.6902761,0.532652,-1.2641639999999998,37.0825,273.805,57.6625
1053,286745,1.037244,0.5502199999999999,-1.450092,62.755,322.2975,83.96500999999999
1054,286842,1.2282959999999998,0.6646561,-1.6213799999999998,108.4125,370.93,116.3925
1055,286939,1.7714400000000001,0.09125599999999999,-1.7226400000000002,172.55,412.2825,149.7825
1056,287036,2.449272,0.5734,-2.11426,182.6125,427.7525,158.7425
1057,287134,2.085468,0.8945040000000001,-2.124752,201.6,414.435,166.425
1058,287231,2.1945360000000003,1.259772,-2.318,242.935,388.885,186.865
1059,287328,1.360544,1.279292,-1.51768,289.31,348.39,218.75
1060,287425,1.032852,1.443016,-1.669448,327.565,336.3325,224.875
1061,287522,-0.189588,1.3620079999999999,-1.77876,368.6725,307.0725,183.085
1062,287619,3.352804,0.676612,-2.71938,396.8825,251.4225,100.7475
1063,287716,1.855864,1.022116,-2.656672,314.755,123.2525,-11.165
1064,287813,0.7869,1.059692,-2.00812,269.9025,-57.925,-80.325
1065,287910,0.196908,0.692716,-1.22122,277.935,-124.3025,-80.0975
1066,288007,-0.056608000000000006,0.45383999999999997,-0.8784,289.66,-141.61,-41.2475
1067,288105,0.034404000000000004,0.39918400000000004,-0.8147161,284.9875,-144.48,-2.205
1068,288202,0.132004,0.537288,-0.8252079999999999,262.36,-151.1125,24.0625
1069,288299,0.266936,0.8532681000000001,-0.8874280999999999,235.5325,-164.3775,37.94
1070,288396,0.401136,1.215852,-0.9198799999999999,220.01,-183.365,42.0175
1071,288493,0.534604,1.575264,-0.9147559999999999,221.935,-206.5875,38.115
1072,288590,0.676612,1.8400040000000002,-0.8337481,239.26,-231.91,26.74
1073,288687,0.71126,1.991528,-0.658312,262.2725,-257.9325,8.6625
1074,288784,0.7139439999999999,1.9998240000000003,-0.47043199999999996,278.1625,-278.2675,-15.6275
1075,288881,0.7600600000000001,2.00812,-0.31402800000000003,276.36,-291.5675,-45.57
1076,288978,0.85888,2.0252,-0.22716399999999998,260.1375,-298.0775,-73.29
1077,289076,0.9903959999999999,2.0754639999999998,-0.20496,237.125,-301.6125,-94.045
1078,289173,1.1455799999999998,2.1652560000000003,-0.22667600000000002,214.27,-305.5675,-107.975
1079,289270,1.259772,2.316292,-0.244732,196.6825,-311.5525,-118.37
1080,289367,1.350052,2.477332,-0.22691999999999998,189.0875,-318.045,-129.01
1081,289464,1.40666,2.585424,-0.189344,189.3325,-322.7525,-142.24
1082,289561,1.4757120000000001,2.627392,-0.17812,189.4025,-323.715,-160.825
1083,289658,1.547936,2.610068,-0.196176,182.4375,-321.545,-185.5525
1084,289755,1.586732,2.52052,-0.21618400000000002,166.7575,-317.38,-212.87
1085,289852,1.60064,2.356796,-0.28181999999999996,142.3625,-310.9925,-238.9275
1086,289950,1.6406560000000001,2.207712,-0.398696,109.62,-302.225,-259.8925
1087,290047,1.759728,2.08376,-0.576572,74.34,-292.425,-273.35
1088,290144,1.929552,1.979328,-0.794952,41.4925,-284.8475,-280.7
1089,290241,2.130608,1.8707479999999999,-1.016016,13.3175,-282.835,-286.02
1090,290338,2.339228,1.795352,-1.169248,-10.1325,-287.385,-293.1075
1091,290435,2.5498,1.7809560000000002,-1.226832,-26.0225,-296.3975,-300.895
1092,290532,2.721332,1.74216,-1.147044,-29.89,-305.55,-307.0375
1093,290629,2.775256,1.323212,-0.9823440999999999,-24.5875,-308.805,-311.5175
1094,290726,2.973872,-0.45579200000000003,-0.562664,-44.7825,-298.2525,-332.1675
1095,290824,3.354024,-0.039284,-0.479704,-163.3275,-298.025,-349.8775
1096,290921,3.246664,0.500688,-0.064416,-214.34,-287.735,-316.435
1097,291018,3.2898519999999998,0.220088,0.344528,-168.0525,-262.43,-248.71
1098,291115,3.221532,0.139812,0.826428,-104.895,-231.805,-200.6025
1099,291212,3.166876,0.22204000000000002,1.371768,-37.835,-187.635,-169.295
1100,291309,3.256912,-0.18422,1.883436,35.385,-129.6225,-141.995
1101,291406,3.37086,-0.680516,2.230892,64.085,-67.4975,-129.6575
1102,291503,3.196644,-0.7171161,2.245532,33.3725,-3.885,-137.0075
1103,291600,3.136376,-0.36087600000000003,1.9175959999999999,-2.1,65.52,-154.035
1104,291698,3.102704,-0.142984,1.398852,11.4625,134.19,-166.6875
1105,291795,0.874252,1.4903520000000001,-0.4553041,65.9225,184.5375,-169.995
1106,291892,-0.242292,0.072712,-1.753872,221.515,227.08,-155.155
1107,291989,-0.6802720999999999,-0.272548,-1.9837200000000001,225.7325,238.4025,-146.8425
1108,292086,-0.067344,-3.5746,0.067344,220.0975,266.7,-111.1075
1109,292183,1.5128,-3.4330800000000004,-1.529148,148.05,333.3575,-35.385
1110,292280,3.268136,-2.4878240000000003,-2.78404,36.2775,318.85,53.095
1111,292377,2.793068,0.665632,-2.21674,-9.94,216.86,111.7025
1112,292475,3.286436,3.355488,-1.55916,21.455,148.26,98.6475
1113,292572,0.09540401,-0.434808,-0.01464,126.875,63.4025,38.64
1114,292669,1.384212,-0.9806360000000001,-1.7550919999999999,99.715,79.24,41.65
1115,292766,0.5946279999999999,0.461892,-0.8344801,44.0475,27.6325,37.9925
1116,292863,0.61854,0.46603999999999995,-0.8720559999999999,26.075,23.38,27.9475
1117,292960,0.772992,-0.057828,-0.9398880999999999,29.0325,10.8325,21.315
1118,293057,0.568276,0.199348,-0.8876719999999999,16.52,-2.0475,23.345
1119,293154,0.536556,0.1159,-1.057252,21.035,0.2275,20.8425
1120,293251,0.6290319999999999,0.068564,-0.981124,20.1425,1.365,20.3175
1121,293349,0.509716,0.09150001,-0.9181720999999999,11.06,3.7275,13.755
1122,293446,0.533384,0.067832,-0.8964561,4.8825,8.715,6.72
1123,293543,0.5219159999999999,0.126392,-0.8823040000000001,0.1575,15.2075,0.945
1124,293640,0.549732,0.168848,-0.8671761,-3.3075,20.2125,-1.47
1125,293737,0.542168,0.15494000000000002,-0.862296,-2.1175,22.7675,-1.4175
1126,293834,0.5429,0.13298,-0.86864,-0.9975,24.7625,-1.5225
1127,293931,0.519476,0.10126,-0.863028,-0.0175,27.3875,-2.905
1128,294028,0.515084,0.128344,-0.8457040000000001,-1.085,31.9725,-5.9675
1129,294125,0.5429,0.131028,-0.8615640999999999,-2.0825,38.22,-8.1375
1130,294223,0.49532,0.13151600000000002,-0.8332601000000001,-1.225,43.015,-10.115
1131,294320,0.41236000000000006,0.199104,-0.8544879999999999,-2.765,50.2775,-9.66
1132,294417,0.549732,0.223504,-0.8720559999999999,-2.9575,60.445,-4.41
1133,294514,0.5897479999999999,0.183,-0.797148,-0.4025,63.525,0.1575
1134,294611,0.6168319999999999,0.159088,-0.777872,1.505,64.0325,3.15
1135,294708,0.6170760000000001,0.17738800000000002,-0.782752,3.6225,61.845,4.76
1136,294805,0.615124,0.204716,-0.7517640999999999,5.6175,58.9225,7.0
1137,294902,0.6380600000000001,0.171044,-0.748104,6.6325,55.895,9.3625
1138,295000,0.668072,0.14566800000000002,-0.7317560000000001,6.125,53.06,10.78
1139,295097,0.664168,0.160064,-0.7327321,5.67,49.9275,12.355
1140,295194,0.6497721,0.17836400000000002,-0.7422481,6.9825,46.7425,14.1575
1141,295291,0.64782,0.16958,-0.764696,8.645,44.8,16.2575
1142,295388,0.634644,0.13176,-0.7610359999999999,10.4125,44.4675,18.0775
1143,295485,0.6456241,0.096624,-0.7439560000000001,11.165,45.6925,17.78
1144,295582,0.6539201,0.04392,-0.7332201,10.6225,48.02,15.47
1145,295679,0.646844,0.052216,-0.724436,8.925,50.7675,12.0575
1146,295777,0.6441600000000001,0.07978801,-0.7241920000000001,7.665,54.0925,9.135
1147,295874,0.645868,0.141032,-0.763232,7.035,57.82,8.1725
1148,295971,0.6317159999999999,0.17812,-0.780556,8.0325,62.825,9.975
1149,296068,0.6527,0.201544,-0.783728,10.395,69.755,14.6825
1150,296165,0.639524,0.172996,-0.7771399999999999,12.495,77.735,20.685
1151,296262,0.634156,0.093696,-0.793244,15.365,88.32251,25.4625
1152,296359,0.623908,0.04148,-0.785192,17.745,101.2375,26.5125
1153,296456,0.6224441,0.029768,-0.792756,20.16,116.1125,23.1
1154,296553,0.643184,0.09540401,-0.778604,24.08,134.3125,19.6875
1155,296651,0.677588,0.203496,-0.759328,27.7025,154.3325,20.825
1156,296748,0.724436,0.24790399999999999,-0.744444,31.6575,172.795,28.875
1157,296845,0.7700640999999999,0.264008,-0.73932,34.72,189.7,40.95
1158,296942,0.782752,0.26352,-0.7754321,39.13,206.78,54.775
1159,297039,0.845216,0.285236,-0.807884,49.42,227.3425,70.7525
1160,297136,1.079212,0.36844,-0.8781559999999999,62.9475,251.72,90.00251
1161,297233,1.036268,0.4331,-0.906216,75.74,272.3875,117.0575
1162,297330,1.209508,0.443592,-1.011624,100.94,292.565,142.4325
1163,297427,1.520364,0.386496,-1.272216,130.1125,319.9525,169.1725
1164,297524,1.859768,0.368196,-1.537932,151.06,340.9,178.325
1165,297622,1.9673720000000001,0.0244,-1.345904,163.59,354.5675,162.61
1166,297719,1.8768479999999998,-0.2013,-1.8241439999999998,142.1875,378.2975,160.9825
1167,297816,1.8751400000000003,0.490928,-1.5647719999999998,95.5325,389.1825,148.89
1168,297913,2.34118,0.88328,-1.9551720000000001,87.90250999999999,390.04,154.0175
1169,298010,2.187216,1.350052,-2.6898560000000002,95.02501,353.71,161.455
1170,298107,0.4743361,1.066036,-1.9537080000000002,132.2475,291.2525,152.25
1171,298204,1.6653,1.15168,-0.735416,201.18,235.0775,129.5525
1172,298301,3.051952,1.31272,-3.8632519999999997,152.2675,223.5275,36.3125
1173,298399,1.172664,1.447652,-2.847236,117.005,-3.6225,-45.6225
1174,298496,0.16714,0.9262239999999999,-1.897832,127.4175,-95.83,-82.25
1175,298593,-0.337452,0.5011760000000001,-1.45546,134.26,-129.2025,-78.05
1176,298690,-0.279136,0.187148,-1.313452,116.9875,-134.3125,-65.15250999999999
1177,298787,-0.11541199999999999,0.139568,-1.300276,76.335,-144.3925,-54.81
1178,298884,0.07710399999999999,0.266204,-1.342488,31.7975,-166.8975,-45.8675
1179,298981,0.246928,0.42578,-1.344684,2.6775,-198.59,-36.6275
1180,299078,0.36966,0.505568,-1.2756319999999999,-8.645,-234.255,-28.175
1181,299176,0.44408000000000003,0.51118,-1.140456,-11.62,-269.2025,-24.85
1182,299273,0.48995200000000005,0.49605200000000005,-0.9864921,-15.19,-299.04,-28.0175
1183,299370,0.5185,0.492392,-0.847412,-21.84,-321.335,-36.0325
1184,299467,0.557052,0.51972,-0.7515201,-29.155,-336.2625,-46.865
1185,299564,0.596092,0.551928,-0.703696,-33.2325,-343.6825,-58.7125
1186,299661,0.693692,0.582428,-0.736392,-33.4425,-345.5375,-70.7875
1187,299758,0.860344,0.58072,-0.836676,-32.27,-345.9225,-83.4575
1188,299855,1.033828,0.5799880000000001,-0.9311040999999999,-32.2175,-350.7175,-97.37
1189,299953,1.1899879999999998,0.571692,-1.0201639999999998,-33.4775,-359.17,-110.4775
1190,300050,1.329312,0.56852,-1.087508,-36.4,-368.1475,-121.275
1191,300147,1.458144,0.5665680000000001,-1.1570479999999999,-41.0375,-377.265,-130.375
1192,300244,1.56892,0.536068,-1.2195120000000002,-47.4775,-385.0525,-139.5625
1193,300341,1.6857959999999999,0.485072,-1.280512,-56.8575,-389.41,-148.9075
1194,300438,1.8361,0.5063,-1.407392,-69.80751,-390.0575,-157.0975
1195,300535,2.08986,0.679784,-1.597468,-80.535,-387.5025,-162.4
1196,300632,2.48636,0.8701040000000001,-1.8226799999999999,-79.3625,-383.81,-167.9125
1197,300730,2.8748080000000003,0.592188,-1.86538,-66.43,-382.34,-180.005
1198,300827,3.081232,-0.709796,-1.555012,-77.105,-375.8475,-216.72
1199,300924,3.733688,-0.41723999999999994,-1.387384,-166.915,-383.215,-264.985
1200,301021,3.736128,-0.053436000000000004,-1.001376,-217.3325,-384.9125,-279.37
1201,301118,3.945724,-0.410652,-0.332572,-191.31,-367.8325,-251.055
1202,301215,3.9440160000000004,-0.767624,0.534604,-151.9875,-344.8725,-196.8925
1203,301312,3.4948120000000005,-1.109712,1.361276,-132.0375,-313.53,-117.3725
1204,301409,3.6429199999999997,-1.5408600000000001,1.950292,-133.77,-259.735,-31.955
1205,301507,4.147024,-1.705804,2.336056,-166.9325,-199.4825,29.68
1206,301604,3.761992,-1.200236,2.430484,-203.9625,-145.6,55.9475
1207,301701,3.147112,-0.34794400000000003,2.2191799999999997,-176.8725,-77.2275,65.765
1208,301798,2.866268,0.121512,1.790228,-61.5475,12.46,85.505
1209,301895,2.9321479999999998,-0.094916,1.190232,74.27,103.6,110.7225
1210,301992,0.008296000999999999,1.218536,-1.441308,139.965,159.005,109.2875
1211,302089,-0.6263479999999999,2.53028,-3.426248,287.1575,155.9425,75.32
1212,302186,-1.365912,0.25498000000000004,-1.707268,370.72,188.2475,38.885
1213,302283,-1.281488,-2.8091720000000002,1.557208,280.4375,205.7825,-36.435
1214,302381,1.033828,-2.70108,-0.382348,148.995,313.6525,-83.335
1215,302478,3.286436,-3.110268,-2.780624,60.2,364.1575,-42.98
1216,302575,2.3302,-2.365336,-2.345084,33.5825,270.6025,53.62
1217,302672,1.175592,-0.091988,-1.060912,-23.9575,204.8375,107.66
1218,302769,2.16794,3.7907839999999995,-2.579568,-76.8075,198.66,81.77750999999999
1219,302866,2.4512240000000003,2.220888,-0.720532,75.0575,166.1275,42.8575
1220,302963,0.549488,-2.28018,-1.4208120000000002,188.93,106.085,43.82
1221,303060,1.063596,-1.014308,-0.562664,67.0425,59.745,42.0525
1222,303158,0.736392,1.071892,-1.265384,7.8925,-5.0575,38.92
1223,303255,0.554856,-0.382836,-1.088484,42.91,18.165,13.79
1224,303352,0.698328,0.219844,-1.029192,22.855,2.1175,16.1875
1225,303449,0.5307,0.029524,-0.9516,10.5175,-0.49,6.545
1226,303546,0.554124,0.129076,-0.865956,5.18,5.8975,-0.385
1227,303643,0.53314,0.082472,-0.8693719999999999,-0.28,10.815,-4.9175
1228,303740,0.5443640000000001,0.128588,-0.849608,-4.7075,14.2975,-7.245
1229,303837,0.532896,0.13078399999999998,-0.8491200000000001,-8.295,16.4325,-8.365
1230,303935,0.525576,0.17324,-0.844972,-10.4825,18.2175,-8.8375
1231,304032,0.515084,0.196664,-0.834968,-10.85,19.7225,-8.1375
1232,304129,0.5355800999999999,0.222284,-0.8439959999999999,-10.2375,21.315,-6.195
1233,304226,0.564372,0.233752,-0.8235001000000001,-7.1925,21.245,-3.29
1234,304323,0.553636,0.18251199999999998,-0.8271601000000001,-3.01,19.3375,-0.7525
1235,304420,0.548512,0.15420799999999998,-0.8359440999999999,-0.7175,18.1125,0.35
1236,304517,0.5455840000000001,0.164456,-0.833016,-0.1575,18.585,0.63
1237,304614,0.54778,0.155428,-0.8300879999999999,0.07,19.4425,0.7525
1238,304712,0.563884,0.14688800000000002,-0.8220360000000001,0.3675,20.51,0.7175
1239,304809,0.558272,0.128344,-0.8169121,-0.735,20.8775,0.1575
1240,304906,0.5612,0.138836,-0.807884,-3.115,21.8575,-0.805
1241,305003,0.567056,0.133224,-0.809836,-5.5825,22.925,-1.4175
1242,305100,0.561932,0.151524,-0.7895840999999999,-8.6625,24.115,-1.54
1243,305197,0.543388,0.216428,-0.8418,-10.08,25.2525,-0.42
1244,305294,0.580964,0.177144,-0.8115439999999999,-5.9325,25.865,1.3125
1245,305391,0.5736441,0.173728,-0.79666,-5.67,25.48,2.835
1246,305488,0.5546121,0.18251199999999998,-0.798856,-3.885,25.725,4.375
1247,305586,0.577304,0.16811600000000002,-0.787144,-2.345,27.265,5.565
1248,305683,0.58682,0.12395199999999999,-0.778604,-1.75,29.7325,5.67
1249,305780,0.586332,0.111996,-0.79056,-2.6075,32.8825,4.48
1250,305877,0.573156,0.13761600000000002,-0.793488,-4.4275,36.575,3.325
1251,305974,0.57218,0.155672,-0.796904,-6.3525,42.6825,3.29
1252,306071,0.576816,0.15396400000000002,-0.776896,-7.3675,52.15,3.92
1253,306168,0.5655920999999999,0.1708,-0.8164239999999999,-8.96,62.51,5.25
1254,306265,0.566812,0.172752,-0.809836,-9.3975,71.7325,6.1425
1255,306363,0.553636,0.193248,-0.840824,-9.205,81.53251,6.825
1256,306460,0.54778,0.180316,-0.843508,-8.3825,94.045,9.1875
1257,306557,0.5873079999999999,0.171776,-0.833992,-8.0675,109.4975,13.895
1258,306654,0.610488,0.11345999999999999,-0.826916,-6.8075,122.9375,17.7275
1259,306751,0.612684,0.125416,-0.84424,-5.705,135.66,19.3025
1260,306848,0.6019479999999999,0.20788800000000002,-0.8410681000000001,-3.2725,149.73,20.1425
1261,306945,0.616344,0.23887600000000003,-0.788608,1.0675,166.7575,23.38
1262,307042,0.6292760000000001,0.233264,-0.762988,2.8875,184.6425,29.33
1263,307140,0.6605081,0.186172,-0.735904,4.62,203.665,33.8625
1264,307237,0.6795401,0.21301199999999998,-0.7993439999999999,0.42,222.32,34.3175
1265,307334,0.8337481,0.174216,-0.6946681,2.695,245.98,36.365
1266,307431,0.8427761,0.262056,-0.8662001,-1.61,279.1075,47.8975
1267,307528,1.176568,0.340868,-0.9174399999999999,-5.8275,315.0175,66.675
1268,307625,0.9450120000000001,0.475312,-1.14924,-8.7325,353.1325,90.14251
1269,307722,1.5220719999999999,0.5160600000000001,-1.38104,20.335,390.5475,107.5025
1270,307819,1.798036,0.302072,-1.059204,45.92,419.5975,114.87
1271,307917,2.194048,0.632204,-2.135732,31.5,450.52,130.095
1272,308014,1.9400439999999999,0.291824,-1.38836,53.3225,458.0275,145.8625
1273,308111,2.457812,0.198372,-2.195512,17.6225,460.845,91.1575
1274,308208,2.050576,0.877424,-1.80072,-40.0925,448.5075,90.7375
1275,308305,2.166232,1.23586,-2.677412,-40.3025,407.6975,131.0575
1276,308402,0.343064,0.69784,-1.9673720000000001,-29.82,337.8375,126.1925
1277,308499,1.4701,0.705404,-1.054324,-17.745,276.815,116.9
1278,308596,3.586068,1.613084,-4.947832,-75.3725,225.155,63.9275
1279,308694,0.885476,1.5462280000000002,-3.03048,-48.195,-15.4875,17.43
1280,308791,-0.039284,1.0565200000000001,-2.029836,-7.6825,-122.4125,-6.895
1281,308888,-0.5843801,0.5392399999999999,-1.43472,22.8375,-162.435,-4.0775
1282,308985,-0.559736,0.248148,-1.197064,12.9675,-164.745,-1.2425
1283,309082,-0.24058400000000002,0.19983599999999999,-1.2524520000000001,-21.5075,-170.1875,-5.635
1284,309179,0.007076001,0.343796,-1.348344,-56.7875,-191.45,-13.79
1285,309276,0.211548,0.450424,-1.38226,-70.525,-223.3175,-19.9675
1286,309373,0.325252,0.42602399999999996,-1.321748,-65.065,-259.1925,-24.605
1287,309471,0.36648800000000004,0.31402800000000003,-1.168272,-54.775,-292.4075,-31.0625
1288,309568,0.36087600000000003,0.195444,-0.996008,-51.415,-318.2375,-40.9675
1289,309665,0.37112399999999995,0.131272,-0.8796200000000001,-56.56,-333.9,-53.305
1290,309762,0.417728,0.118828,-0.8315520000000001,-64.1375,-341.005,-65.7825
1291,309859,0.509472,0.12712400000000001,-0.849608,-68.285,-343.0525,-76.79
1292,309956,0.606096,0.125172,-0.9079241,-67.41001,-343.8575,-85.4525
1293,310053,0.729072,0.08052000000000001,-0.9964959999999999,-63.6825,-345.38,-91.91001
1294,310150,0.8791321,0.032208,-1.10166,-61.6875,-349.1075,-96.49501
1295,310248,1.03578,0.010492,-1.21756,-63.1575,-356.475,-98.945
1296,310345,1.2078,0.004392,-1.335412,-67.0775,-366.6425,-99.085
1297,310442,1.355176,0.045384,-1.42984,-73.255,-378.77,-97.9825
1298,310539,1.49328,0.11467999999999999,-1.537444,-78.5925,-391.3875,-96.7575
1299,310636,1.6860400000000002,0.25498000000000004,-1.6653,-81.18251,-402.43,-96.42501
1300,310733,1.91418,0.48092399999999996,-1.833904,-76.93,-410.41,-97.8775
1301,310830,2.215032,0.640744,-1.955904,-61.985,-414.68,-101.7975
1302,310927,2.592012,-0.18446400000000002,-1.8870959999999999,-46.69,-410.1825,-120.8025
1303,311025,3.2122599999999997,-0.41406800000000005,-1.874652,-85.76751,-410.62,-167.51
1304,311122,3.7654080000000003,-0.333548,-1.712148,-143.6575,-417.2525,-209.825
1305,311219,4.02112,0.185196,-1.2341520000000001,-157.7975,-419.265,-235.3225
1306,311316,4.250968,0.34404,-0.282552,-97.825,-408.4675,-223.3525
1307,311413,3.920348,-0.233264,1.0126,-5.53,-376.145,-167.4925
1308,311510,3.343532,-1.303936,2.0947400000000003,28.0525,-313.4425,-88.02501
1309,311607,3.6800080000000004,-2.3199520000000002,2.634468,-52.325,-229.81,-16.905
1310,311704,4.44934,-1.96908,2.534672,-221.025,-159.11,7.9975
1311,311802,4.348812000000001,-0.760792,2.290428,-318.465,-112.5425,-6.1075
1312,311899,3.447476,0.277428,2.118896,-234.5875,-60.725,-7.7525
1313,311996,2.94386,0.16128399999999998,1.9888439999999998,-17.8675,24.955,33.4775
1314,312093,0.94916,0.5553441,0.053924,181.055,127.05,99.9775
1315,312190,-0.649528,2.309948,-2.143784,300.6325,197.4875,154.07
1316,312287,-0.9591639999999999,0.514352,-1.9868919999999999,322.105,249.34,122.8675
1317,312384,-0.23253200000000002,-2.5183240000000002,1.3664,278.915,270.06,-20.86
1318,312481,1.6714,-2.429752,-1.232444,110.075,368.725,-79.8525
1319,312579,3.550444,-3.372324,-3.215432,69.79,391.44,-10.1675
1320,312676,2.190876,-2.085712,-1.8073080000000001,17.6225,285.4075,83.4925
1321,312773,2.791848,3.171512,-3.3515839999999995,-67.935,228.4275,113.12
1322,312870,2.443416,3.269844,-0.680028,37.5025,172.7075,61.0925
1323,312967,-0.238144,-1.693604,-0.8432639999999999,206.395,102.6375,48.2125
1324,313064,2.208444,-1.375428,-1.302716,98.89251,95.8125,55.8075
1325,313161,0.562176,1.490108,-1.382992,25.3575,-22.855,55.6325
1326,313259,0.51484,-0.351848,-0.9850280999999999,53.1825,3.29,23.7825
1327,313356,0.711992,0.14713199999999999,-0.8132520999999999,35.56,-8.2775,27.5625
1328,313453,0.50264,-0.020252000000000003,-0.8913321,20.02,-11.445,19.67
1329,313550,0.540948,0.101992,-0.8640040000000001,13.8075,-1.9425,10.7275
1330,313647,0.540948,0.07198,-0.885476,6.405,4.165,4.4275
1331,313744,0.534116,0.131028,-0.8662001,2.17,7.8575,0.9275
1332,313841,0.525088,0.10906800000000001,-0.8632719999999999,-0.7,10.115,-0.665
1333,313938,0.543632,0.141032,-0.8403360000000001,-2.9575,12.4075,-1.645
1334,314035,0.5248441,0.16714,-0.844484,-4.095,12.915,-1.645
1335,314133,0.52582,0.159088,-0.841556,-3.8325,13.65,-0.5775
1336,314230,0.526308,0.177144,-0.847412,-3.1675,14.3675,0.4025
1337,314327,0.533384,0.194712,-0.844484,-0.6125,14.3675,2.5725
1338,314424,0.54778,0.190076,-0.8422879999999999,2.975,13.4925,5.635
1339,314521,0.553148,0.152256,-0.84424,5.1625,11.9175,7.91
1340,314618,0.5463161,0.135664,-0.8439959999999999,6.37,10.2725,8.5225
1341,314715,0.5453399999999999,0.142008,-0.8396040000000001,6.6325,9.31,8.47
1342,314812,0.547292,0.117852,-0.8222799999999999,6.5975,8.8025,7.9975
1343,314909,0.565836,0.116388,-0.81984,5.81,8.9425,7.9275
1344,315007,0.552904,0.119072,-0.813496,3.99,8.7325,7.875
1345,315104,0.548268,0.115168,-0.8174001000000001,2.135,9.065,8.5575
1346,315201,0.5023960999999999,0.123708,-0.834968,2.5025,10.08,10.64
1347,315298,0.5260640000000001,0.085888,-0.8281360999999999,5.285,14.4025,12.355
1348,315395,0.539484,0.098576,-0.830576,4.375,17.4475,10.7275
1349,315492,0.52704,0.09540401,-0.8376520000000001,4.2875,20.2125,9.6425
1350,315589,0.547048,0.096624,-0.8291120999999999,4.83,23.5725,9.03
1351,315687,0.561688,0.06075601,-0.8127641,4.935,27.475,8.1025
1352,315784,0.562664,0.057584,-0.813008,3.0625,31.8675,5.18
1353,315881,0.543876,0.08759601,-0.8271601000000001,0.2625,37.8,1.82
1354,315978,0.550708,0.134932,-0.8132520999999999,-1.435,46.27,0.3325
1355,316075,0.546804,0.124196,-0.823744,-3.2025,55.6675,0.9275
1356,316172,0.5455840000000001,0.112728,-0.837408,-4.025,64.8025,1.3125
1357,316269,0.5489999999999999,0.128588,-0.85034,-4.8475,74.2175,1.68
1358,316366,0.552172,0.182024,-0.8483879999999999,-4.27,84.8225,5.95
1359,316464,0.5292359999999999,0.196664,-0.899384,-2.5725,97.2475,11.9525
1360,316561,0.543144,0.132004,-0.8740081000000001,1.435,111.2125,17.29
1361,316658,0.5734,0.038796,-0.865956,6.125,125.5975,21.35
1362,316755,0.568032,0.041724000000000004,-0.9067040000000001,8.715,140.2275,21.035
1363,316852,0.564372,0.132492,-0.8486319999999999,11.235,156.9225,20.825
1364,316949,0.5655920999999999,0.232044,-0.8210601000000001,11.4975,178.1675,24.7625
1365,317046,0.604632,0.2135,-0.7951961,14.21,200.6025,33.32
1366,317143,0.6470880999999999,0.182756,-0.8276481,16.8525,222.6875,41.23
1367,317240,0.6736840000000001,0.192028,-0.8471681000000001,21.3675,245.7525,47.5125
1368,317338,0.661972,0.222284,-0.898652,28.4375,274.575,54.95
1369,317435,0.8757159999999999,0.225944,-0.8701040000000001,36.0675,309.5925,66.4475
1370,317532,1.079944,0.320616,-1.182668,33.6,349.93,80.22
1371,317629,1.243424,0.633424,-1.414712,45.6575,386.505,104.5275
1372,317726,1.9949439999999998,0.309636,-1.464,79.555,434.2625,132.65
1373,317823,2.1059639999999997,0.35233600000000004,-1.7043400000000002,67.0075,466.83,143.7625
1374,317920,2.011536,-0.167628,-1.517192,54.32,480.1475,134.9075
1375,318017,2.798436,0.459208,-2.590548,-2.52,487.41,106.4525
1376,318115,2.079124,1.303204,-2.1347560000000003,3.08,456.715,142.3975
1377,318212,1.98006,1.314184,-2.647888,33.0575,418.9675,177.4675
1378,318309,0.438956,0.820572,-2.23504,38.2025,357.0175,170.0125
1379,318406,1.000888,0.54656,-0.7327321,58.5725,284.48,151.515
1380,318503,3.807864,1.291736,-5.054948,-26.425,242.3925,83.755
1381,318600,0.91622,1.600396,-3.0158400000000003,-49.035,-10.3075,19.2325
1382,318697,-0.062464,1.31272,-2.050576,-23.0125,-124.2325,-13.1425
1383,318794,-0.61488,0.773724,-1.38104,20.195,-162.75,-11.1825
1384,318892,-0.570716,0.38064000000000003,-1.11752,26.0925,-159.7575,-7.665
1385,318989,-0.266936,0.22252800000000003,-1.1653440000000002,-4.725,-163.87,-14.175
1386,319086,-0.053436000000000004,0.311344,-1.226344,-49.35,-184.625,-28.56
1387,319183,0.133224,0.429928,-1.2402520000000001,-79.0475,-214.76,-42.525
1388,319280,0.198372,0.47702,-1.17364,-85.7325,-246.5575,-53.025
1389,319377,0.250344,0.404308,-1.05774,-77.84,-271.95,-61.985
1390,319474,0.307196,0.28548,-0.9494040000000001,-69.265,-289.555,-73.045
1391,319571,0.378688,0.191052,-0.886452,-67.3575,-301.2625,-86.8
1392,319669,0.467504,0.130296,-0.8852321,-70.4025,-309.4,-101.815
1393,319766,0.5785241,0.098332,-0.9284200999999999,-74.04251,-315.91,-115.5
1394,319863,0.70516,0.08466801,-1.005036,-74.5675,-322.525,-126.2975
1395,319960,0.850584,0.060024,-1.109224,-70.9625,-331.1525,-132.65
1396,320057,0.9901521000000001,0.0,-1.203652,-65.975,-342.0025,-135.31
1397,320154,1.13704,-0.054412,-1.27978,-63.665,-355.04,-134.96
1398,320251,1.238544,-0.07002799999999999,-1.34322,-66.0975,-369.7925,-131.495
1399,320348,1.3583479999999999,-0.044652,-1.399096,-71.47,-382.83,-126.2975
1400,320446,1.4844959999999998,0.023180000000000003,-1.489376,-76.72,-392.9625,-121.03
1401,320543,1.689944,0.23472800000000002,-1.6394360000000001,-79.765,-400.96,-116.515
1402,320640,1.9305279999999998,0.45286400000000004,-1.770464,-73.16751,-406.56,-113.5925
1403,320737,2.1228,0.441884,-1.800232,-56.8575,-407.6975,-115.71
1404,320834,2.53882,-0.247416,-1.7646080000000002,-51.66,-398.475,-134.47
1405,320931,3.111,-0.2928,-1.8226799999999999,-93.345,-394.9575,-175.1925
1406,321028,3.7231959999999997,-0.258884,-1.731912,-137.515,-397.145,-214.935
1407,321125,4.047716,0.211792,-1.247328,-146.685,-400.085,-242.515
1408,321222,4.231204,0.32574000000000003,-0.306464,-93.3975,-393.295,-235.7425
1409,321320,4.068944,-0.18324400000000002,0.9450120000000001,-7.6825,-364.8925,-186.515
1410,321417,3.499448,-1.206824,2.0342279999999997,28.6475,-310.6775,-104.6325
1411,321514,3.6448720000000003,-2.212348,2.587376,-43.8725,-235.0775,-28.84
1412,321611,4.413716,-1.93858,2.585912,-206.4475,-165.5325,-2.9225
1413,321708,4.398344,-0.8030041,2.366556,-311.1675,-117.0925,-15.3825
1414,321805,3.46846,0.25961599999999996,2.1508599999999998,-244.545,-62.44,-15.4875
1415,321902,2.931172,0.303292,1.9734720000000001,-41.44,25.3225,23.3975
1416,321999,0.322812,1.0187,0.055388,151.2,120.715,78.48751
1417,322097,-0.9479401,1.8980759999999999,-1.979816,301.2275,183.2425,110.8975
1418,322194,-0.9511120000000001,0.9437921,-2.0769279999999997,331.8,222.705,86.94
1419,322291,-0.738344,-2.267004,1.1192280000000001,272.0375,256.13,-16.345
1420,322388,1.025776,-2.339228,-0.308172,143.8325,339.6925,-99.34751
1421,322485,3.2056720000000003,-3.030968,-2.661064,52.64,388.0275,-66.6575
1422,322582,2.45708,-2.7896520000000002,-2.420236,31.2375,305.6025,32.655
1423,322679,1.411052,-0.505324,-1.1263040000000002,-36.1375,231.5425,95.09501
1424,322776,3.6209599999999997,5.294556,-3.6275480000000004,-90.37001,213.7275,86.59
1425,322874,0.685884,1.023336,0.394548,112.77,132.93,32.4625
1426,322971,1.447164,-1.99958,-2.333616,181.8075,117.6175,59.0275
1427,323068,0.992348,-0.422364,-0.41406800000000005,66.36,54.9325,44.835
1428,323165,0.655384,0.8788879999999999,-1.197064,20.405,-9.8,42.9625
1429,323262,0.594384,-0.23911999999999997,-0.9864921,55.125,4.5325,22.7325
1430,323359,0.692228,0.15494000000000002,-0.8518040000000001,29.5575,-6.65,27.4225
1431,323456,0.53192,-0.008540001,-0.9118280000000001,20.0375,-7.035,17.99
1432,323553,0.5543680000000001,0.11712,-0.8788879999999999,10.71,-1.05,9.485
1433,323651,0.5368,0.095648,-0.8723001,5.5475,4.6375,3.5175
1434,323748,0.5397281,0.12468399999999999,-0.862296,1.4175,7.1925,0.7
1435,323845,0.537776,0.124196,-0.853756,-0.98,8.9775,-0.6825
1436,323942,0.537044,0.156892,-0.847412,-2.8525,10.2375,-1.295
1437,324039,0.533384,0.156404,-0.841556,-2.9575,10.6225,-0.8575
1438,324136,0.526308,0.152256,-0.843508,-2.8525,11.1825,-0.07
1439,324233,0.540216,0.16835999999999998,-0.8405800999999999,-2.59,11.6025,0.6475
1440,324330,0.543876,0.185684,-0.8437520000000001,-1.1375,11.0775,2.0825
1441,324428,0.54778,0.18666,-0.8398479999999999,1.2425,9.87,4.4275
1442,324525,0.55266,0.15494000000000002,-0.8371639999999999,3.465,8.8025,7.035
1443,324622,0.536068,0.149816,-0.8437520000000001,4.69,7.42,7.735
1444,324719,0.535824,0.152988,-0.8400921,6.0725,6.23,7.9625
1445,324816,0.543388,0.144448,-0.8291120999999999,7.7525,5.5475,8.4525
1446,324913,0.5594920999999999,0.133956,-0.820816,8.855,5.2675,9.17
1447,325010,0.559004,0.12248800000000001,-0.81374,9.345,4.8475,10.0975
1448,325107,0.5577840000000001,0.123708,-0.8230120999999999,8.575,4.445,11.3225
1449,325205,0.536556,0.129076,-0.8203280000000001,7.0875,5.04,12.915
1450,325302,0.5070319999999999,0.121024,-0.829356,7.1575,6.895,15.47
1451,325399,0.527528,0.099552,-0.8317960999999999,8.4,11.3575,16.345
1452,325496,0.5292359999999999,0.09613601,-0.826916,6.6325,14.3675,15.19
1453,325593,0.530212,0.08564401,-0.8493641,6.0025,17.7275,14.0875
1454,325690,0.535824,0.06954,-0.832528,5.7575,22.7675,12.565
1455,325787,0.527284,0.07246799999999999,-0.8361879999999999,4.34,28.8925,9.66
1456,325885,0.537044,0.092964,-0.8283799999999999,2.45,36.2075,6.72
1457,325982,0.535824,0.09540401,-0.830576,0.35,44.9225,4.97
1458,326079,0.538996,0.111996,-0.827892,-1.645,54.18,4.0775
1459,326176,0.532652,0.128588,-0.844484,-3.185,63.5775,2.975
1460,326273,0.5441199999999999,0.157136,-0.8522921,-3.3425,74.13,3.9725
1461,326370,0.539972,0.187636,-0.8613200000000001,-3.0275,85.645,8.7325
1462,326467,0.537288,0.17543599999999998,-0.9108521,-0.7525,97.9475,14.875
1463,326564,0.529968,0.044652,-0.87108,4.55,111.545,19.6525
1464,326662,0.546072,-0.012931999999999999,-0.8796200000000001,5.845,127.365,19.67
1465,326759,0.5392399999999999,0.028548,-0.8813280000000001,7.42,143.9375,16.2575
1466,326856,0.5546121,0.188368,-0.862784,8.33,162.8725,16.2925
1467,326953,0.571448,0.2379,-0.831308,8.7325,184.6425,22.82
1468,327050,0.6117081,0.209108,-0.8427761,12.7225,207.69,33.32
1469,327147,0.606096,0.18470799999999998,-0.815692,19.5125,231.14,41.055
1470,327244,0.620736,0.23838800000000002,-0.8845,23.135,257.81,47.18
1471,327341,0.6771,0.22789600000000002,-0.9267120000000001,28.4375,289.7125,56.21
1472,327439,0.9894200000000001,0.27889200000000003,-1.037244,34.755,328.93,66.43
1473,327536,0.975024,0.5158159999999999,-1.277584,37.3625,369.985,82.2675
1474,327633,1.543788,0.579256,-1.517924,65.7825,411.3725,116.2175
1475,327730,2.290184,0.249856,-1.892952,86.9925,455.9975,136.2375
1476,327827,2.079856,0.062220000000000004,-1.711416,66.2025,474.6875,139.4575
1477,327924,2.686196,0.46042799999999995,-2.230892,36.4875,487.3575,123.34
1478,328021,2.114504,0.97356,-2.068876,17.7275,468.44,131.7225
1479,328118,1.927356,1.357616,-2.391932,57.1025,432.8975,180.3725
1480,328216,1.202432,1.0079639999999999,-2.369484,72.17,390.18,195.79
1481,328313,-0.47775200000000007,0.525576,-2.179652,78.085,324.9925,168.5425
1482,328410,3.8264080000000003,0.68686,-4.157516,52.2725,277.2875,129.185
1483,328507,1.9110080000000003,1.3024719999999999,-3.3506080000000003,-44.3275,124.355,47.565
1484,328604,0.38308000000000003,1.530368,-2.625196,-41.65,-84.2975,-3.01
1485,328701,-0.518744,1.039928,-1.5494,2.17,-155.715,-11.3225
1486,328798,-0.732244,0.5231359999999999,-1.1263040000000002,32.13,-160.58,1.505
1487,328895,-0.43773599999999996,0.23887600000000003,-1.071648,20.5275,-154.2625,5.3375
1488,328993,-0.142496,0.21228000000000002,-1.151192,-23.8,-163.9225,-4.1825
1489,329090,0.077592,0.387716,-1.228784,-68.8625,-191.52,-20.755
1490,329187,0.200568,0.509228,-1.21878,-89.0575,-225.1725,-34.545
1491,329284,0.268156,0.509472,-1.136308,-85.68,-255.885,-44.8175
1492,329381,0.35136,0.401624,-1.033096,-74.445,-279.615,-55.895
1493,329478,0.396744,0.296704,-0.935008,-68.8625,-298.3225,-70.7525
1494,329575,0.444812,0.20788800000000002,-0.8657120999999999,-70.525,-311.71,-87.7275
1495,329672,0.49117200000000005,0.157868,-0.8459479999999999,-75.7225,-320.4075,-104.58
1496,329770,0.5553441,0.127856,-0.877668,-79.5025,-324.8175,-118.1425
1497,329867,0.6563601,0.099552,-0.9476959999999999,-79.7125,-327.04,-127.0675
1498,329964,0.789828,0.054412,-1.047004,-77.3325,-329.7875,-131.74
1499,330061,0.9540401,0.007564001,-1.181692,-75.39,-334.39,-132.86
1500,330158,1.136308,-0.018056,-1.3029600000000001,-76.6325,-342.9825,-131.53
1501,330255,1.297836,-0.013908000000000002,-1.407148,-81.04251,-355.425,-128.87
1502,330352,1.444236,0.035136,-1.498648,-86.695,-368.8475,-125.825
1503,330449,1.5982,0.169824,-1.6108879999999999,-90.545,-381.4125,-123.3575
1504,330547,1.783884,0.313052,-1.7328880000000002,-88.7775,-391.02,-123.1125
1505,330644,2.045208,0.549488,-1.878312,-82.6875,-397.32,-127.1025
1506,330741,2.283352,0.487512,-1.889048,-67.4275,-399.35,-136.395
1507,330838,2.7837959999999997,-0.31476,-1.848788,-64.61,-391.02,-167.125
1508,330935,3.380864,-0.274744,-1.790716,-112.945,-393.8025,-215.705
1509,331032,3.835436,-0.021716,-1.561112,-149.1875,-397.3725,-253.1725
1510,331129,3.9308400000000003,0.31012399999999996,-0.888648,-131.355,-395.22,-266.6125
1511,331226,4.1179879999999995,0.086864,0.136884,-57.645,-373.6775,-243.32
1512,331324,3.7893199999999996,-0.744688,1.355176,10.325,-334.0225,-177.59
1513,331421,3.485296,-1.921256,2.29848,-3.78,-271.8275,-87.5875
1514,331518,4.084072,-2.472696,2.633492,-134.68,-200.9175,-22.3125
1515,331615,4.492528,-1.5555,2.505636,-297.08,-146.79,-8.9425
1516,331712,4.007212,-0.329888,2.31068,-319.375,-98.3325,-14.28
1517,331809,3.041948,0.468236,2.079856,-167.58,-28.9625,12.67
1518,331906,2.574688,0.13078399999999998,1.78486,64.5925,72.38,71.85501
1519,332003,0.37551599999999996,1.474248,-1.671156,234.465,153.755,125.1425
1520,332101,-0.75762,2.376072,-2.5161279999999997,347.3575,199.815,128.275
1521,332198,-1.215852,-0.66368,-0.859856,327.4425,251.1425,63.4725
1522,332295,-0.34892,-2.7227959999999998,1.635532,251.37,294.6125,-60.7425
1523,332392,2.3851,-2.615192,-1.780468,75.18,395.465,-95.6725
1524,332489,3.324988,-3.349388,-3.049268,56.42,374.08,-19.3725
1525,332586,2.0047040000000003,-2.03618,-1.59332,6.895,274.75,82.25
1526,332683,3.27814,3.9440160000000004,-4.210708,-86.04751,230.475,109.0775
1527,332780,2.006168,2.510516,-0.4392,54.7225,156.3275,55.2125
1528,332877,-0.133224,-1.6460240000000002,-1.4034879999999998,192.5525,93.9925,55.5625
1529,332975,1.8073080000000001,-1.264652,-0.9952761,89.65250999999999,85.97751,52.08
1530,333072,0.6390359999999999,1.17974,-1.248304,24.325,-18.235,52.2725
1531,333169,0.522892,-0.253272,-1.000156,55.755,3.71,22.75
1532,333266,0.713212,0.22643200000000002,-0.8315520000000001,33.8625,-10.43,28.0875
1533,333363,0.558272,-0.042212,-0.897432,23.695,-12.1275,21.8925
1534,333460,0.5546121,0.081496,-0.8740081000000001,15.54,-5.9325,12.1975
1535,333557,0.533628,0.08442401,-0.8823040000000001,7.28,-0.805,4.865
1536,333654,0.5397281,0.12444000000000001,-0.8574161,3.605,3.0625,1.155
1537,333751,0.534604,0.102724,-0.8615640999999999,0.49,4.795,-0.77
1538,333849,0.5260640000000001,0.136884,-0.849608,-2.4675,6.58,-1.96
1539,333946,0.524356,0.139324,-0.8481440999999998,-3.64,8.0675,-2.275
1540,334043,0.5233800000000001,0.15176800000000001,-0.8457040000000001,-4.305,9.1525,-2.415
1541,334140,0.514596,0.159332,-0.84546,-4.095,9.8,-1.995
1542,334237,0.54168,0.19251600000000002,-0.8432639999999999,-2.8175,9.73,-0.49
1543,334334,0.5458281,0.173728,-0.8361879999999999,-0.4025,8.0675,2.4675
1544,334431,0.53314,0.15762400000000001,-0.8405800999999999,2.59,5.67,4.7075
1545,334528,0.527772,0.160552,-0.8476561,4.41,3.7275,6.37
1546,334626,0.528016,0.15006,-0.83936,6.615,2.7475,7.4375
1547,334723,0.535824,0.148108,-0.830576,8.5925,1.9075,7.875
1548,334820,0.550708,0.13859200000000002,-0.821792,9.94,0.875,7.7875
1549,334917,0.5504641,0.12980799999999998,-0.821304,10.8675,0.2625,8.2075
1550,335014,0.543388,0.128832,-0.831308,11.2175,-0.63,8.8375
1551,335111,0.5514399999999999,0.121268,-0.823744,11.5325,-1.33,10.0625
1552,335208,0.537044,0.124928,-0.826672,11.6725,-1.715,10.6925
1553,335305,0.527528,0.122732,-0.823256,11.83,-1.1025,11.1825
1554,335402,0.5246,0.13176,-0.8398479999999999,12.1625,0.4375,11.9175
1555,335499,0.5267960999999999,0.09418401,-0.834724,13.09,2.7125,13.1075
1556,335597,0.5455840000000001,0.07246799999999999,-0.8388721,12.04,6.0025,12.075
1557,335694,0.50264,0.07344400000000001,-0.859856,10.1675,9.3275,9.205
1558,335791,0.504592,0.08637601,-0.86864,9.5725,14.9275,8.365
1559,335888,0.51484,0.111752,-0.8647360000000001,8.4875,21.665,7.98
1560,335985,0.520208,0.10858,-0.859368,7.77,30.17,8.5575
1561,336082,0.5099600000000001,0.0976,-0.868152,6.72,40.6175,9.9225
1562,336179,0.510204,0.118584,-0.861808,4.69,52.99,10.6225
1563,336276,0.510936,0.149084,-0.869616,2.975,66.60501,11.9
1564,336374,0.489708,0.161528,-0.8862081,3.185,80.57,15.225
1565,336471,0.4941,0.12444000000000001,-0.8969440000000001,5.635,95.3925,19.32
1566,336568,0.515084,0.048556,-0.885964,8.4525,109.515,22.12
1567,336665,0.511424,-0.021716,-0.8976761000000001,11.0425,123.2525,21.0175
1568,336762,0.5160600000000001,0.010248,-0.9191481,12.74,138.46,17.01
1569,336859,0.5124001,0.142496,-0.899384,12.8625,157.29,15.82
1570,336956,0.5314321,0.20861999999999997,-0.8781559999999999,13.6675,178.92,23.31
1571,337053,0.5697399999999999,0.194468,-0.904752,18.1825,201.145,34.4225
1572,337150,0.593896,0.16909200000000002,-0.885476,26.6,226.59,44.2575
1573,337248,0.5914560000000001,0.194712,-0.8893800999999999,34.335,256.305,51.555
1574,337345,0.674416,0.25986,-0.945256,40.3725,289.17,59.4825
1575,337442,0.7027201,0.259372,-1.011136,49.175,323.2075,69.1425
1576,337539,1.119716,0.23253200000000002,-1.278316,57.05,361.585,76.4925
1577,337636,1.208288,0.43163599999999996,-1.369572,62.2475,400.645,90.8075
1578,337733,1.9788400000000002,0.23448400000000003,-1.628212,73.01,439.11,115.955
1579,337830,1.9766439999999998,-0.18544000000000002,-1.5311,61.145,461.23,125.44
1580,337927,2.207712,0.23253200000000002,-1.9541959999999998,14.2975,478.6075,113.3475
1581,338024,2.565172,0.685884,-2.4683040000000003,-14.8225,477.435,107.9575
1582,338122,1.9473639999999999,1.313452,-2.1884360000000003,23.485,436.0475,151.8475
1583,338219,1.604056,1.190232,-2.527596,57.1375,395.8675,184.4325
1584,338316,0.240096,0.7991,-2.107672,75.46,350.875,179.025
1585,338413,1.904664,0.49873599999999996,-1.76168,90.2475,291.795,158.165
1586,338510,2.9140919999999997,0.9686799999999999,-4.2058279999999995,-10.8325,204.6625,84.7525
1587,338607,0.586088,1.4422840000000001,-2.747928,-55.09,-40.3375,20.2825
1588,338704,-0.389912,1.181448,-1.6989720000000001,-42.315,-131.8275,-5.215
1589,338801,-0.7922680000000001,0.752984,-1.155096,-6.5275,-146.965,-0.3675
1590,338899,-0.5594920999999999,0.401624,-1.054812,1.82,-132.5275,1.6975
1591,338996,-0.216428,0.255468,-1.17974,-24.0625,-132.755,-8.33
1592,339093,-0.000976,0.323544,-1.271728,-63.0175,-155.3825,-25.9525
1593,339190,0.122976,0.39967199999999997,-1.283196,-88.37501,-188.1075,-42.35
1594,339287,0.191052,0.41260399999999997,-1.2275639999999999,-94.325,-220.3075,-54.7575
1595,339384,0.260104,0.310856,-1.1394799999999998,-88.30501,-246.68,-65.6775
1596,339481,0.31890799999999997,0.19276,-1.048224,-83.0375,-267.9425,-78.68
1597,339578,0.36892800000000003,0.08784,-0.9796600000000001,-83.7725,-284.165,-93.905
1598,339675,0.41553199999999996,0.01464,-0.942084,-88.4275,-296.065,-109.8125
1599,339773,0.483608,-0.014884,-0.9581881,-92.89001,-304.43,-123.7075
1600,339870,0.5736441,-0.038796,-1.0079639999999999,-93.4675,-310.03,-133.2975
1601,339967,0.700036,-0.087352,-1.110688,-89.81,-314.965,-138.0225
1602,340064,0.8671761,-0.1281,-1.232688,-85.76751,-322.0525,-139.3
1603,340161,1.037976,-0.172264,-1.340048,-83.335,-332.99,-137.8125
1604,340258,1.186816,-0.186172,-1.425448,-84.08751,-347.865,-134.4875
1605,340355,1.318576,-0.15274400000000002,-1.493036,-86.7125,-363.7375,-130.305
1606,340452,1.441552,-0.081984,-1.569652,-87.5175,-378.28,-126.2275
1607,340550,1.5786799999999999,0.007076001,-1.677256,-84.805,-388.7975,-123.0075
1608,340647,1.7511880000000002,0.115656,-1.7836400000000001,-78.61,-395.115,-121.7475
1609,340744,1.979816,0.07198,-1.851716,-70.315,-396.06,-123.8825
1610,340841,2.4390240000000003,-0.18056,-1.927844,-70.84000999999999,-390.8975,-134.96
1611,340938,3.0195,-0.273768,-2.0559439999999998,-91.385,-388.85,-158.0775
1612,341035,3.5965599999999998,-0.444812,-1.980304,-115.4825,-391.055,-187.4075
1613,341132,3.8647160000000005,-0.45432799999999995,-1.538664,-131.565,-395.4475,-218.435
1614,341229,4.307087999999999,0.169336,-0.5926760999999999,-119.5775,-395.7975,-234.5175
1615,341326,4.22242,0.24570799999999998,0.834968,-48.685,-390.2325,-190.1375
1616,341424,3.5160400000000003,-1.092144,2.127924,40.3725,-331.0825,-85.68
1617,341521,3.490908,-2.769156,3.0270639999999998,-17.5525,-243.285,11.48
1618,341618,4.0789480000000005,-2.42902,2.842356,-237.7375,-164.9375,33.635
1619,341715,4.294156,-0.6993041,2.26554,-385.3675,-110.46,-12.1975
1620,341812,3.511404,0.7324881,1.83244,-288.1725,-54.8625,-24.64
1621,341909,2.96826,0.279136,1.806332,-16.45,28.385,23.345
1622,342006,0.9974719999999999,-0.320128,0.9530641,189.2275,120.4175,83.58001
1623,342103,-0.396988,1.9241840000000001,-2.73524,232.54,161.735,119.035
1624,342200,-0.765672,2.44,-2.206004,250.67,184.38,104.8425
1625,342297,-0.983564,-1.8980759999999999,0.8003201,272.5275,236.355,50.7675
1626,342395,0.21447600000000003,-2.108404,0.388204,172.655,305.725,-43.4
1627,342492,2.819664,-2.539308,-2.569808,38.08,385.28,-44.8875
1628,342589,2.6654560000000003,-2.356064,-2.4260919999999997,40.565,322.7525,45.0625
1629,342686,1.436672,-0.044407999999999996,-0.9025559999999999,-16.7125,240.7125,90.1775
1630,342783,4.011604,5.154256,-2.989976,-52.5175,224.665,79.6775
1631,342880,0.449692,-0.293044,0.384544,166.425,130.9525,37.45
1632,342977,1.922964,-1.791448,-2.3380080000000003,160.9475,117.3725,66.1675
1633,343074,0.7549359999999999,0.22277199999999997,-0.46116,53.69,38.15,45.29
1634,343171,0.6558721,0.371368,-0.9618481,28.8575,5.5125,34.895
1635,343268,0.620492,-0.023668,-0.8740081000000001,44.6775,6.0025,21.805
1636,343365,0.678076,0.102724,-0.8796200000000001,24.8675,-4.305,23.0475
1637,343463,0.554856,0.040992,-0.8906,16.52,-4.48,14.4025
1638,343560,0.552904,0.128588,-0.876692,6.8075,-0.105,7.21
1639,343657,0.549488,0.109556,-0.8701040000000001,3.3425,3.64,2.6075
1640,343754,0.5502199999999999,0.10931199999999999,-0.8559521000000001,-0.875,6.825,-0.35
1641,343851,0.5231359999999999,0.152988,-0.849852,-4.1475,9.6775,-2.345
1642,343948,0.537044,0.160796,-0.83936,-5.4775,11.795,-2.6775
1643,344045,0.5248441,0.170312,-0.8383841000000001,-5.74,12.9675,-2.52
1644,344142,0.5294800000000001,0.180072,-0.8398479999999999,-5.81,13.9475,-2.0125
1645,344239,0.5404601,0.189832,-0.8376520000000001,-4.655,14.665,-1.1375
1646,344337,0.542656,0.196664,-0.8308200000000001,-2.485,14.245,0.77
1647,344434,0.547292,0.177144,-0.8317960999999999,0.28,13.7725,3.0275
1648,344531,0.556808,0.160064,-0.8298440999999999,1.5925,13.3525,4.13
1649,344628,0.547048,0.158112,-0.8378960999999999,1.995,12.5475,4.2875
1650,344725,0.549488,0.160552,-0.8308200000000001,2.1,11.41,4.9525
1651,344822,0.566812,0.155428,-0.820572,2.6425,10.2025,5.9325
1652,344919,0.566812,0.152988,-0.8091041,2.5025,8.75,6.5975
1653,345016,0.5516840000000001,0.143716,-0.8010520000000001,2.065,8.19,7.56
1654,345113,0.558272,0.133956,-0.797148,0.5425,8.435,8.5225
1655,345211,0.553636,0.16226,-0.8076399999999999,-2.4325,9.555,9.3625
1656,345308,0.515084,0.142984,-0.8215481,-0.0875,11.27,10.9025
1657,345405,0.543632,0.141764,-0.812032,2.66,14.7175,11.6375
1658,345502,0.5575399999999999,0.088328,-0.815448,2.3625,16.765,10.1325
1659,345599,0.552416,0.089792,-0.8169121,0.525,19.705,6.755
1660,345696,0.560956,0.071492,-0.81618,-2.03,24.64,2.0125
1661,345793,0.5443640000000001,0.09247601,-0.819108,-5.3725,29.8025,-2.45
1662,345890,0.537776,0.106628,-0.8398479999999999,-8.3825,36.12,-5.425
1663,345987,0.553148,0.11248399999999999,-0.782752,-10.5875,45.115,-7.28
1664,346084,0.528016,0.13151600000000002,-0.81374,-13.5275,55.86,-7.91
1665,346182,0.5551,0.158112,-0.8169121,-15.26,66.7975,-8.4875
1666,346279,0.529724,0.19154000000000002,-0.8488761,-16.03,77.77,-8.1375
1667,346376,0.5294800000000001,0.211304,-0.862296,-14.035,88.83,-4.7075
1668,346473,0.520452,0.223748,-0.87474,-12.0925,102.3575,0.8925
1669,346570,0.55632,0.176656,-0.8481440999999998,-9.1,117.18,7.035
1670,346667,0.593896,0.05368,-0.8178880999999999,-6.3525,130.1475,11.445
1671,346764,0.601216,0.06588,-0.8308200000000001,-4.935,142.8175,9.4675
1672,346861,0.568032,0.265228,-0.8220360000000001,-5.5125,157.2025,8.295
1673,346958,0.593896,0.348188,-0.820572,-4.5325,173.5825,16.5025
1674,347056,0.6178081,0.26718000000000003,-0.780068,0.245,190.995,28.945
1675,347153,0.627812,0.205936,-0.7734800000000001,2.66,211.085,37.3975
1676,347250,0.6456241,0.290848,-0.812032,1.505,233.7475,40.6175
1677,347347,0.8030041,0.324276,-0.87474,2.485,259.5075,47.355
1678,347444,0.8483879999999999,0.27328,-0.873764,10.36,292.39,68.495
1679,347541,1.188524,0.413092,-1.0911680000000001,5.775,331.905,92.0675
1680,347638,1.097024,0.667828,-1.581364,17.6575,371.5425,121.0825
1681,347735,1.936384,0.5353359999999999,-1.605276,68.915,412.72,141.47
1682,347832,1.7938880000000001,0.321592,-1.545252,75.9325,446.53,144.0075
1683,347929,2.266516,0.43798000000000004,-2.195512,59.115,468.93,153.9475
1684,348027,2.1752599999999997,0.512888,-1.6601759999999999,65.415,464.24,129.535
1685,348124,2.318488,1.129964,-2.11548,44.24,448.9275,138.1275
1686,348221,1.946388,1.447164,-2.700592,65.22251,410.865,185.5175
1687,348318,0.797392,0.8039801,-2.105232,51.52,368.7075,173.355
1688,348415,-0.25351599999999996,0.5131319999999999,-1.503284,65.415,302.5225,152.18
1689,348512,4.665524,1.1041,-5.520012,7.105,259.49,95.6025
