,T,ax,ay,az,gx,gy,gz
0,9483402,0.79056,0.016836,-0.363682,18.2875,-16.1525,-15.645
1,9483556,0.8260620000000001,0.013297999999999999,-0.46774799999999994,47.5825,-55.1425,-135.03
2,9483654,0.87474,-0.013663999999999999,-0.444324,-69.6325,26.915,-272.6325
3,9483752,0.862784,0.011834,-0.46811400000000003,30.03,-95.5675,-89.2675
4,9483850,0.8671761,0.010614,-0.507886,17.6575,-17.3775,-11.6725
5,9483948,0.8791321,0.00671,-0.5121560000000001,16.485,-13.9825,-6.615
6,9484045,0.886818,0.005246,-0.508618,17.29,-17.675,-6.895
7,9484143,0.874374,0.00183,-0.5103260000000001,16.3625,-21.805,-6.8775
8,9484241,0.8726661,-0.003782,-0.5702281,14.56,-24.99,-6.8775
9,9484339,0.8554641,-0.027694,-0.577914,15.2425,-29.12,-7.0525
10,9484437,0.7853140000000001,-0.129076,-0.35221399999999997,5.775,-26.635,-7.3675
11,9484535,0.760792,0.05160601,-0.379786,-35.6475,-2.1875,-9.485
12,9484633,0.8714459999999999,0.08637601,-0.35087199999999996,-26.88,23.0475,-9.7825
13,9484731,0.8105680000000001,0.036233999999999995,-0.542168,5.1625,-8.33,-5.005
14,9484829,0.8289901,0.026595999999999998,-0.496662,-2.1,-5.6,-4.5325
15,9484927,0.85705,0.024156,-0.496418,-3.2025,1.2075,-4.235
16,9485024,0.8605879999999999,0.02135,-0.494954,-2.5025,-2.5375,-4.095
17,9485122,0.8549761,0.012688,-0.5049581,-0.9275,-8.505,-3.9025
18,9485220,0.8601,0.005856,-0.49959,-0.56,-9.03,-4.0425
19,9485318,0.8509501,0.005002,-0.49727200000000005,-0.875,-9.1875,-4.3925
20,9485416,0.851194,0.007320001,-0.49519799999999997,-1.19,-7.105,-4.27
21,9485514,0.8513161,0.008540001,-0.494954,-0.9975,-7.07,-4.095
22,9485612,0.8476561,0.011224,-0.493856,-0.6475,-8.645,-4.165
23,9485710,0.847778,0.013663999999999999,-0.493856,-1.0325,-7.385,-4.165
24,9485808,0.8525360000000001,0.013297999999999999,-0.49129399999999995,-0.8400001,-6.8425,-4.13
25,9485906,0.8509501,0.01098,-0.490928,-0.42,-7.8575,-4.0425
26,9486003,0.850218,0.010248,-0.48995200000000005,-0.5425,-7.455,-4.13
27,9486101,0.8527800999999999,0.008662000999999999,-0.487756,-0.665,-6.6675,-4.165
28,9486199,0.8504620999999999,0.007320001,-0.48592609999999997,-0.525,-7.105,-4.0775
29,9486297,0.8499741,0.008540001,-0.48397399999999996,-0.4725,-7.0525,-4.06
30,9486395,0.852902,0.011101999999999999,-0.482022,-0.525,-6.51,-4.025
31,9486493,0.8550979999999999,0.011834,-0.48080200000000006,-0.3325,-6.7375,-4.0075
32,9486591,0.856562,0.011468,-0.48104600000000003,-0.21,-6.8075,-4.13
33,9486689,0.8586360000000001,0.012444,-0.480558,-0.105,-6.3,-4.13
34,9486787,0.8607100000000001,0.011712,-0.480436,-0.0875,-6.0725,-4.2175
35,9486885,0.86315,0.008418,-0.47702,-0.35,-6.16,-4.34
36,9486983,0.8641260000000001,0.0064659999999999995,-0.477142,-0.5775,-6.2475,-4.3575
37,9487080,0.864614,0.006954000000000001,-0.473238,-0.6475,-6.4575,-4.55
38,9487178,0.8638819999999999,0.007686,-0.47153,-0.7525,-6.58,-4.62
39,9487276,0.8608319999999999,0.007686,-0.472628,-0.91,-6.4225,-4.5325
40,9487374,0.85888,0.008052001,-0.47067600000000004,-1.0675,-6.0725,-4.48
41,9487472,0.8581479999999999,0.009028000999999999,-0.47397,-1.0675,-5.81,-4.4625
42,9487570,0.859002,0.009028000999999999,-0.475922,-1.0325,-5.67,-4.3575
43,9487668,0.8609540999999999,0.00976,-0.476288,-1.0325,-5.635,-4.3225
44,9487766,0.860344,0.00976,-0.47689799999999993,-1.05,-5.4775,-4.2
45,9487864,0.8601,0.00976,-0.47823999999999994,-1.0325,-5.32,-4.1825
46,9487962,0.85949,0.010004,-0.48007,-1.0675,-5.0925,-4.1825
47,9488059,0.85705,0.011956,-0.48153409999999996,-1.1025,-5.005,-4.2
48,9488157,0.85644,0.012322,-0.481412,-1.085,-4.8475,-4.13
49,9488255,0.8555860999999999,0.01281,-0.481778,-1.1025,-4.8475,-4.0775
50,9488353,0.8541221,0.013297999999999999,-0.482022,-1.085,-4.7425,-4.165
51,9488451,0.8554641,0.012444,-0.48128999999999994,-1.1725,-4.6725,-4.2525
52,9488549,0.85705,0.013663999999999999,-0.48007,-1.2775,-4.7075,-4.165
53,9488647,0.858392,0.013786000000000001,-0.47982600000000003,-1.3825,-4.7425,-4.2175
54,9488745,0.85949,0.013175999999999998,-0.47994799999999993,-1.4875,-4.6725,-4.2525
55,9488843,0.8575379999999999,0.015493999999999999,-0.48068,-1.5225,-4.655,-4.3575
56,9488941,0.8576601,0.015982,-0.47909399999999996,-1.435,-4.4975,-4.445
57,9489038,0.8563181000000001,0.014762,-0.480558,-1.2775,-4.375,-4.3225
58,9489136,0.856562,0.014274,-0.48165600000000003,-1.3125,-4.27,-4.34
59,9489234,0.859002,0.013541999999999998,-0.48080200000000006,-1.33,-4.2175,-4.34
60,9489332,0.859856,0.011834,-0.48068,-1.295,-4.445,-4.3575
61,9489430,0.8638819999999999,0.011590000000000001,-0.48007,-1.3475,-4.5325,-4.3925
62,9489528,0.863516,0.010126000000000001,-0.479338,-1.5225,-4.6725,-4.4275
63,9489626,0.8625401,0.010736,-0.47958199999999995,-1.575,-4.69,-4.5325
64,9489724,0.8615640999999999,0.0122,-0.47885,-1.54,-4.62,-4.4625
65,9489822,0.8605879999999999,0.012444,-0.479216,-1.5925,-4.48,-4.4625
66,9489920,0.85949,0.012565999999999999,-0.480558,-1.6275,-4.4275,-4.3225
67,9490018,0.859002,0.013175999999999998,-0.47994799999999993,-1.6625,-4.4275,-4.2875
68,9490116,0.8597341000000001,0.012322,-0.48068,-1.6975,-4.4275,-4.2525
69,9490213,0.8601,0.013297999999999999,-0.479704,-1.785,-4.375,-4.1475
70,9490311,0.8597341000000001,0.012688,-0.480436,-1.61,-4.305,-4.2175
71,9490409,0.8586360000000001,0.0122,-0.48007,-1.5225,-4.305,-4.235
72,9490507,0.8613200000000001,0.011834,-0.480314,-1.5225,-4.445,-4.2
73,9490605,0.8615640999999999,0.011224,-0.480192,-1.61,-4.585,-4.1825
74,9490703,0.8642481,0.01281,-0.479216,-1.61,-4.7425,-4.1475
75,9490801,0.8629061,0.011224,-0.479216,-1.6275,-4.865,-4.2
76,9490899,0.864492,0.011346,-0.479216,-1.715,-5.0925,-4.27
77,9490997,0.8638819999999999,0.011590000000000001,-0.47763,-1.6975,-5.32,-4.27
78,9491095,0.862784,0.013175999999999998,-0.47860600000000003,-1.7325,-5.53,-4.2
79,9491193,0.8629061,0.014274,-0.478484,-1.82,-5.6,-4.2525
80,9491290,0.8616860000000001,0.014884,-0.476166,-1.82,-5.81,-4.2
81,9491388,0.8602221,0.014274,-0.47653199999999996,-1.785,-5.8275,-4.375
82,9491486,0.859856,0.013663999999999999,-0.47653199999999996,-1.7325,-5.985,-4.305
83,9491584,0.8597341000000001,0.013054,-0.47763,-1.7325,-5.8275,-4.235
84,9491682,0.8576601,0.013541999999999998,-0.477142,-1.7675,-5.705,-4.165
85,9491780,0.85888,0.01281,-0.477142,-1.75,-5.6175,-4.1475
86,9491878,0.85949,0.010858,-0.478362,-1.6975,-5.5125,-4.2
87,9491976,0.8605879999999999,0.012688,-0.477264,-1.75,-5.425,-4.13
88,9492074,0.8591241,0.01464,-0.476166,-1.6625,-5.495,-4.095
89,9492172,0.861808,0.014396,-0.47555600000000003,-1.785,-5.425,-4.165
90,9492270,0.861808,0.014762,-0.47482399999999997,-1.8375,-5.4425,-4.1125
91,9492367,0.862174,0.014396,-0.4758,-1.785,-5.495,-4.025
92,9492465,0.8625401,0.013908000000000002,-0.477142,-1.8725,-5.46,-4.095
93,9492563,0.8624181000000001,0.015493999999999999,-0.477264,-1.8375,-5.495,-4.165
94,9492661,0.862174,0.015616,-0.475678,-1.785,-5.46,-4.235
95,9492759,0.859856,0.01647,-0.47641000000000006,-1.75,-5.5125,-4.2175
96,9492857,0.8587581,0.01525,-0.47787399999999997,-1.715,-5.53,-4.235
97,9492955,0.8577819999999999,0.01342,-0.478728,-1.7675,-5.5825,-4.27
98,9493053,0.8602221,0.013175999999999998,-0.480314,-1.855,-5.6525,-4.2175
99,9493151,0.8602221,0.013908000000000002,-0.48068,-1.82,-5.8275,-4.2525
100,9493249,0.861442,0.013663999999999999,-0.48104600000000003,-1.7325,-5.985,-4.1825
101,9493347,0.8611979999999999,0.014518000000000001,-0.48128999999999994,-1.8375,-6.02,-4.1125
102,9493444,0.859002,0.015006,-0.48153409999999996,-1.96,-6.02,-4.13
103,9493542,0.856562,0.015372,-0.48153409999999996,-1.9775,-6.0725,-4.06
104,9493640,0.856196,0.015982,-0.481778,-2.0125,-6.09,-4.0425
105,9493738,0.8552200000000001,0.01586,-0.482022,-2.065,-6.0725,-4.0425
106,9493836,0.853878,0.016592,-0.480436,-1.96,-6.16,-4.0075
107,9493934,0.854244,0.015616,-0.4819,-1.925,-6.055,-4.025
108,9494032,0.8555860999999999,0.015006,-0.480436,-1.9425,-6.0025,-3.99
109,9494130,0.855342,0.015616,-0.480436,-1.96,-5.9325,-4.0425
110,9494228,0.8581479999999999,0.014884,-0.47946000000000005,-1.995,-5.9325,-4.0075
111,9494326,0.8577819999999999,0.014762,-0.479704,-1.9775,-5.9325,-4.0075
112,9494424,0.856562,0.014518000000000001,-0.478484,-1.925,-5.7575,-3.955
113,9494522,0.859002,0.016592,-0.47909399999999996,-1.9425,-5.6175,-3.955
114,9494619,0.859368,0.018056,-0.47811800000000004,-1.8725,-5.6,-4.0075
115,9494717,0.8592460999999999,0.019154,-0.47787399999999997,-1.855,-5.5825,-4.025
116,9494815,0.859368,0.018056,-0.47702,-1.7325,-5.5475,-4.1475
117,9494913,0.8601,0.016714,-0.477508,-1.6625,-5.5825,-4.2175
118,9495011,0.85888,0.017446,-0.47860600000000003,-1.6625,-5.635,-4.165
119,9495109,0.8586360000000001,0.01586,-0.47885,-1.4875,-5.495,-4.2
120,9495207,0.8575379999999999,0.017812,-0.477508,-1.3125,-5.46,-4.3225
121,9495305,0.8555860999999999,0.017934000000000002,-0.47909399999999996,-1.2775,-5.425,-4.305
122,9495403,0.856684,0.017324000000000003,-0.478484,-1.19,-5.4425,-4.3225
123,9495501,0.8587581,0.015738,-0.47823999999999994,-1.0675,-5.495,-4.4275
124,9495599,0.8596120999999999,0.01647,-0.477142,-0.98,-5.46,-4.4625
125,9495696,0.85949,0.016347999999999998,-0.47787399999999997,-0.875,-5.495,-4.4625
126,9495794,0.859856,0.015006,-0.47958199999999995,-0.9625,-5.53,-4.445
127,9495892,0.859368,0.014396,-0.47811800000000004,-0.875,-5.4775,-4.5325
128,9495990,0.8601,0.01647,-0.47775200000000007,-0.8925,-5.46,-4.655
129,9496088,0.8607100000000001,0.014518000000000001,-0.476166,-0.77,-5.53,-4.69
130,9496186,0.8609540999999999,0.015006,-0.4758,-0.8400001,-5.425,-4.62
131,9496284,0.8607100000000001,0.015372,-0.477142,-0.735,-5.4425,-4.6375
132,9496382,0.8610761,0.014396,-0.477386,-0.6825,-5.4425,-4.6025
133,9496480,0.8596120999999999,0.014518000000000001,-0.475678,-0.63,-5.425,-4.55
134,9496578,0.860344,0.013175999999999998,-0.47641000000000006,-0.6475,-5.5475,-4.5675
135,9496676,0.8601,0.01342,-0.479704,-0.6475,-5.565,-4.6725
136,9496773,0.859368,0.013054,-0.478362,-0.7175,-5.39,-4.6725
137,9496871,0.860344,0.01342,-0.47994799999999993,-0.7875,-5.4425,-4.5675
138,9496969,0.8580260000000001,0.014762,-0.47860600000000003,-0.735,-5.495,-4.585
139,9497067,0.8574161,0.017446,-0.47702,-0.7175,-5.495,-4.55
140,9497165,0.8581479999999999,0.01647,-0.478728,-0.595,-5.67,-4.4625
141,9497263,0.8592460999999999,0.015982,-0.477996,-0.6475,-5.9325,-4.375
142,9497361,0.8608319999999999,0.015372,-0.477508,-0.6125,-5.88,-4.5325
143,9497459,0.8608319999999999,0.012931999999999999,-0.47763,-0.56,-5.74,-4.69
144,9497557,0.8637601,0.01098,-0.47823999999999994,-0.63,-5.6875,-4.655
145,9497655,0.8642481,0.010736,-0.476166,-0.77,-5.915,-4.76
146,9497753,0.864614,0.012322,-0.47555600000000003,-0.8225,-6.23,-4.7775
147,9497851,0.8636379999999999,0.012444,-0.475922,-0.98,-6.405,-4.76
148,9497949,0.8611979999999999,0.013786000000000001,-0.47702,-1.0325,-6.37,-4.69
149,9498046,0.85888,0.014274,-0.47641000000000006,-0.9975,-6.265,-4.55
150,9498144,0.8579041,0.015128,-0.476288,-0.98,-6.1775,-4.4625
151,9498242,0.8574161,0.014762,-0.477142,-0.9275,-6.37,-4.3575
152,9498340,0.8574161,0.014762,-0.47689799999999993,-0.8400001,-6.3,-4.2525
153,9498438,0.859368,0.014152000000000001,-0.47604399999999997,-0.7525,-6.3175,-4.27
154,9498536,0.8581479999999999,0.014884,-0.475922,-0.7875,-6.335,-4.2875
155,9498634,0.856806,0.015616,-0.476288,-0.805,-6.1775,-4.3225
156,9498732,0.8576601,0.01647,-0.47958199999999995,-0.77,-6.055,-4.375
157,9498830,0.8580260000000001,0.019154,-0.477508,-0.665,-5.985,-4.41
158,9498928,0.859002,0.019032,-0.47775200000000007,-0.5775,-6.125,-4.4625
159,9499026,0.8582700999999999,0.018544,-0.47909399999999996,-0.5775,-6.02,-4.5325
160,9499123,0.8597341000000001,0.019764,-0.47885,-0.6475,-6.0725,-4.4975
161,9499221,0.8596120999999999,0.019642,-0.47885,-0.595,-6.0725,-4.69
162,9499319,0.8587581,0.018178,-0.479704,-0.56,-6.125,-4.7425
163,9499417,0.8587581,0.015372,-0.477386,-0.49,-6.3875,-4.7425
164,9499515,0.857294,0.015006,-0.477264,-0.49,-6.44,-4.725
165,9499613,0.855708,0.01586,-0.47702,-0.455,-6.2475,-4.7775
166,9499711,0.8574161,0.01525,-0.47787399999999997,-0.4025,-6.1425,-4.8125
167,9499809,0.85644,0.01464,-0.47775200000000007,-0.3675,-6.0725,-4.6725
168,9499907,0.8575379999999999,0.012322,-0.478362,-0.385,-6.125,-4.725
169,9500005,0.85949,0.01281,-0.477508,-0.455,-6.125,-4.6375
170,9500103,0.85888,0.012444,-0.47787399999999997,-0.56,-6.055,-4.725
171,9500200,0.859978,0.01281,-0.477264,-0.63,-6.0725,-4.62
172,9500298,0.859856,0.012444,-0.477996,-0.7175,-5.915,-4.6025
173,9500396,0.862296,0.0122,-0.47811800000000004,-0.8925,-5.915,-4.62
174,9500494,0.862662,0.0122,-0.47860600000000003,-0.98,-5.9675,-4.515
175,9500592,0.8611979999999999,0.013541999999999998,-0.476654,-0.8925,-6.0725,-4.4975
176,9500690,0.8613200000000001,0.015006,-0.47909399999999996,-0.8225,-6.23,-4.515
177,9500788,0.862174,0.015493999999999999,-0.47787399999999997,-0.665,-6.4225,-4.34
178,9500886,0.8608319999999999,0.016836,-0.478484,-0.875,-6.4925,-4.3925
179,9500984,0.860344,0.01525,-0.47885,-0.9275,-6.6325,-4.375
180,9501082,0.8596120999999999,0.016714,-0.47787399999999997,-0.875,-6.8075,-4.4625
181,9501180,0.8576601,0.014884,-0.47811800000000004,-0.8225,-6.965,-4.4275
182,9501278,0.8591241,0.014396,-0.47958199999999995,-0.98,-7.0175,-4.4975
183,9501376,0.8602221,0.01464,-0.47958199999999995,-0.98,-7.035,-4.6375
184,9501473,0.859002,0.013786000000000001,-0.47909399999999996,-0.98,-6.9825,-4.6025
185,9501571,0.8577819999999999,0.01525,-0.479216,-0.8925,-6.93,-4.655
186,9501669,0.8571719999999999,0.015372,-0.481412,-0.9975,-6.8075,-4.7425
187,9501767,0.856684,0.015738,-0.48165600000000003,-1.0675,-6.93,-4.655
188,9501865,0.853878,0.01647,-0.480558,-1.0325,-6.7375,-4.585
189,9501963,0.8536341000000001,0.015128,-0.48080200000000006,-0.91,-6.8075,-4.5675
190,9502061,0.853756,0.01464,-0.47982600000000003,-0.91,-6.72,-4.6725
191,9502159,0.8536341000000001,0.012931999999999999,-0.48128999999999994,-0.805,-6.5975,-4.6725
192,9502257,0.8544879999999999,0.012931999999999999,-0.480192,-0.7525,-6.405,-4.655
193,9502355,0.8521700999999999,0.014274,-0.47909399999999996,-0.665,-6.195,-4.655
194,9502453,0.8519260000000001,0.014762,-0.47958199999999995,-0.595,-6.125,-4.655
195,9502551,0.8541221,0.014518000000000001,-0.479338,-0.56,-5.95,-4.5675
196,9502649,0.857294,0.014518000000000001,-0.47909399999999996,-0.665,-5.88,-4.6025
197,9502746,0.8577819999999999,0.01342,-0.47860600000000003,-0.7,-5.845,-4.585
198,9502844,0.8582700999999999,0.013297999999999999,-0.478728,-0.7175,-5.8625,-4.6725
199,9502942,0.856196,0.013175999999999998,-0.47811800000000004,-0.7525,-5.7925,-4.62
200,9503040,0.855708,0.013054,-0.47909399999999996,-0.7175,-5.635,-4.585
201,9503138,0.856074,0.013786000000000001,-0.47787399999999997,-0.8575,-5.5125,-4.5675
202,9503236,0.8559521000000001,0.013663999999999999,-0.47823999999999994,-0.8925,-5.5475,-4.655
203,9503334,0.8559521000000001,0.013175999999999998,-0.47994799999999993,-0.8400001,-5.4425,-4.55
204,9503432,0.856562,0.01464,-0.479216,-0.8925,-5.495,-4.48
205,9503530,0.859856,0.011712,-0.47811800000000004,-1.05,-5.495,-4.4625
206,9503628,0.85888,0.011712,-0.477508,-1.155,-5.53,-4.48
207,9503726,0.859002,0.013541999999999998,-0.478484,-1.12,-5.6,-4.34
208,9503824,0.861442,0.012565999999999999,-0.477386,-1.19,-5.705,-4.4275
209,9503921,0.862174,0.011712,-0.47775200000000007,-1.2425,-5.6875,-4.41
210,9504019,0.859856,0.011956,-0.477142,-1.33,-5.6875,-4.3225
211,9504117,0.85888,0.010492,-0.4758,-1.295,-5.705,-4.375
212,9504215,0.8586360000000001,0.011346,-0.474214,-1.3825,-5.7225,-4.2525
213,9504313,0.8602221,0.011590000000000001,-0.476288,-1.4175,-5.74,-4.1825
214,9504411,0.8596120999999999,0.011101999999999999,-0.47763,-1.5575,-5.7575,-4.165
215,9504509,0.8591241,0.010126000000000001,-0.47641000000000006,-1.61,-5.74,-4.2
216,9504607,0.8585139999999999,0.012078,-0.477142,-1.6975,-5.6875,-4.2525
217,9504705,0.859368,0.011956,-0.47860600000000003,-1.8025,-5.67,-4.2
218,9504803,0.8587581,0.011834,-0.480192,-1.82,-5.6525,-4.13
219,9504901,0.8591241,0.011956,-0.47994799999999993,-1.8725,-5.67,-4.2
220,9504999,0.858392,0.013175999999999998,-0.48092399999999996,-1.9075,-5.6875,-4.1825
221,9505096,0.85644,0.013054,-0.48080200000000006,-1.9425,-5.6875,-4.1475
222,9505194,0.856562,0.013786000000000001,-0.480314,-1.9075,-5.7225,-4.13
223,9505292,0.855342,0.014274,-0.47994799999999993,-1.9075,-5.7575,-4.1125
224,9505390,0.8552200000000001,0.013054,-0.481778,-1.9775,-5.6875,-4.0075
225,9505488,0.8552200000000001,0.012322,-0.48007,-1.96,-5.565,-4.0425
226,9505586,0.8554641,0.012688,-0.48104600000000003,-1.855,-5.5475,-4.0425
227,9505684,0.8552200000000001,0.013786000000000001,-0.480436,-1.6975,-5.4775,-3.99
228,9505782,0.856806,0.014152000000000001,-0.48068,-1.715,-5.39,-3.99
229,9505880,0.85583,0.015006,-0.479338,-1.715,-5.4425,-3.955
230,9505978,0.8579041,0.015616,-0.47860600000000003,-1.6625,-5.4075,-4.0075
231,9506076,0.858392,0.01708,-0.47946000000000005,-1.6275,-5.3025,-4.025
232,9506173,0.8597341000000001,0.016592,-0.47811800000000004,-1.505,-5.3375,-4.06
233,9506271,0.8602221,0.015006,-0.47885,-1.4,-5.495,-4.13
234,9506369,0.859978,0.015738,-0.47860600000000003,-1.365,-5.425,-4.235
235,9506467,0.859856,0.015372,-0.47885,-1.33,-5.4075,-4.34
236,9506565,0.858392,0.01403,-0.47702,-1.19,-5.6,-4.3925
237,9506663,0.8579041,0.014152000000000001,-0.478362,-1.1725,-5.5825,-4.3925
238,9506761,0.8575379999999999,0.01464,-0.477508,-1.155,-5.5125,-4.445
239,9506859,0.857294,0.015128,-0.477996,-1.155,-5.6175,-4.48
240,9506957,0.856196,0.014884,-0.476654,-1.155,-5.5475,-4.41
241,9507055,0.858392,0.015128,-0.477508,-1.12,-5.6,-4.3575
242,9507153,0.8585139999999999,0.014884,-0.47653199999999996,-1.015,-5.53,-4.2525
243,9507251,0.8602221,0.01464,-0.475312,-1.0325,-5.46,-4.34
244,9507348,0.8609540999999999,0.01403,-0.477508,-0.98,-5.4775,-4.34
245,9507446,0.8586360000000001,0.014396,-0.475434,-0.8400001,-5.425,-4.375
246,9507544,0.8581479999999999,0.013908000000000002,-0.47641000000000006,-0.9275,-5.32,-4.4625
247,9507642,0.8569280999999999,0.013908000000000002,-0.475678,-0.98,-5.355,-4.4275
248,9507740,0.856196,0.015006,-0.47506800000000005,-0.9275,-5.1625,-4.5675
249,9507838,0.855708,0.016104,-0.474214,-0.875,-5.145,-4.41
250,9507936,0.8582700999999999,0.014518000000000001,-0.474214,-0.77,-5.075,-4.4275
251,9508034,0.861808,0.016347999999999998,-0.475434,-0.735,-5.1625,-4.3925
252,9508132,0.8620521000000001,0.014396,-0.47653199999999996,-0.735,-5.0925,-4.445
253,9508230,0.8648581,0.01342,-0.476166,-0.8400001,-5.0225,-4.4975
254,9508328,0.8638819999999999,0.011224,-0.47482399999999997,-0.8575,-5.0575,-4.585
255,9508425,0.8648581,0.011101999999999999,-0.472872,-0.9275,-5.145,-4.6025
256,9508523,0.8632719999999999,0.011224,-0.47250600000000004,-0.875,-5.32,-4.62
257,9508621,0.85949,0.011346,-0.47213999999999995,-1.0675,-5.285,-4.5675
258,9508719,0.8580260000000001,0.01037,-0.47177399999999997,-1.12,-5.3025,-4.445
259,9508817,0.859368,0.011590000000000001,-0.47348199999999996,-1.225,-5.285,-4.375
260,9508915,0.859002,0.011834,-0.472628,-1.12,-5.1625,-4.34
261,9509013,0.859368,0.01281,-0.475312,-1.1025,-5.0575,-4.2
262,9509111,0.85888,0.013663999999999999,-0.47702,-0.9975,-5.0225,-4.1825
263,9509209,0.8575379999999999,0.013908000000000002,-0.475312,-0.9975,-4.9875,-4.2
264,9509307,0.8577819999999999,0.013175999999999998,-0.47506800000000005,-0.98,-4.8825,-4.095
265,9509405,0.8582700999999999,0.014152000000000001,-0.475312,-0.9975,-4.8125,-4.13
266,9509503,0.85949,0.013908000000000002,-0.47677600000000003,-1.05,-4.8475,-4.165
267,9509600,0.859856,0.015128,-0.4758,-0.9975,-4.9,-4.235
268,9509698,0.8601,0.015493999999999999,-0.4758,-1.0325,-4.935,-4.27
269,9509796,0.8620521000000001,0.017324000000000003,-0.47677600000000003,-0.8925,-5.005,-4.375
270,9509894,0.8636379999999999,0.017934000000000002,-0.47763,-0.9625,-5.0925,-4.4625
271,9509992,0.863028,0.01586,-0.4758,-0.9625,-5.285,-4.4975
272,9510090,0.8607100000000001,0.014396,-0.47470200000000007,-0.91,-5.4075,-4.41
273,9510188,0.8592460999999999,0.011834,-0.475922,-0.875,-5.53,-4.4975
274,9510286,0.85583,0.014518000000000001,-0.479216,-0.805,-5.4075,-4.6025
275,9510384,0.853146,0.013175999999999998,-0.477996,-0.735,-5.285,-4.4975
276,9510482,0.8550979999999999,0.013054,-0.47994799999999993,-0.7,-5.25,-4.5675
277,9510580,0.85644,0.013541999999999998,-0.48116800000000004,-0.665,-5.32,-4.55
278,9510678,0.8587581,0.013908000000000002,-0.48104600000000003,-0.595,-5.3375,-4.4975
279,9510775,0.8608319999999999,0.01403,-0.479216,-0.7,-5.425,-4.585
280,9510873,0.8597341000000001,0.013541999999999998,-0.48092399999999996,-0.7175,-5.6,-4.6375
281,9510971,0.85888,0.013175999999999998,-0.48007,-0.8225,-5.6,-4.6375
282,9511069,0.85705,0.014152000000000001,-0.47958199999999995,-0.8225,-5.6175,-4.4975
283,9511167,0.8569280999999999,0.014518000000000001,-0.478972,-0.8575,-5.565,-4.48
284,9511265,0.8574161,0.015128,-0.48068,-0.8575,-5.565,-4.4625
285,9511363,0.8574161,0.015493999999999999,-0.48165600000000003,-0.7525,-5.67,-4.3925
286,9511461,0.8576601,0.015006,-0.48128999999999994,-0.77,-5.7575,-4.48
287,9511559,0.8571719999999999,0.01647,-0.48128999999999994,-0.8400001,-5.7575,-4.34
288,9511657,0.8546101,0.015738,-0.48068,-0.8400001,-5.7925,-4.375
289,9511755,0.855708,0.015616,-0.482266,-0.945,-5.845,-4.3575
290,9511853,0.856684,0.013908000000000002,-0.48128999999999994,-0.98,-5.8275,-4.34
291,9511950,0.8559521000000001,0.014152000000000001,-0.482388,-1.155,-5.845,-4.34
292,9512048,0.8575379999999999,0.015128,-0.48128999999999994,-1.12,-6.0025,-4.305
293,9512146,0.8575379999999999,0.016104,-0.48128999999999994,-1.0675,-5.9675,-4.27
294,9512244,0.8580260000000001,0.016836,-0.48153409999999996,-1.12,-6.0375,-4.2175
295,9512342,0.8597341000000001,0.015128,-0.480314,-1.1375,-6.2125,-4.27
296,9512440,0.8608319999999999,0.014762,-0.48068,-1.2425,-6.3,-4.27
297,9512538,0.859002,0.01403,-0.48007,-1.3475,-6.2825,-4.305
298,9512636,0.8574161,0.013786000000000001,-0.478728,-1.4,-6.335,-4.3575
299,9512734,0.857294,0.013786000000000001,-0.47909399999999996,-1.5225,-6.3175,-4.235
300,9512832,0.8597341000000001,0.014274,-0.47946000000000005,-1.435,-6.4575,-4.2175
301,9512930,0.8580260000000001,0.01464,-0.47775200000000007,-1.3825,-6.58,-4.2175
302,9513028,0.8577819999999999,0.01281,-0.47823999999999994,-1.3825,-6.4925,-4.235
303,9513126,0.859002,0.013541999999999998,-0.47775200000000007,-1.4525,-6.4225,-4.1475
304,9513223,0.858392,0.014396,-0.477508,-1.4,-6.44,-4.2175
305,9513321,0.858392,0.01342,-0.475678,-1.4,-6.37,-4.235
306,9513419,0.8580260000000001,0.012565999999999999,-0.47518999999999995,-1.4,-6.3175,-4.165
307,9513517,0.85888,0.012444,-0.475922,-1.4,-6.2825,-4.1125
308,9513615,0.8582700999999999,0.012444,-0.4758,-1.435,-6.2125,-4.06
309,9513713,0.8592460999999999,0.012444,-0.475434,-1.4875,-6.3,-4.0775
310,9513811,0.859002,0.013541999999999998,-0.474458,-1.6275,-6.2475,-4.1125
311,9513909,0.8587581,0.011101999999999999,-0.47299399999999997,-1.715,-6.1775,-4.095
312,9514007,0.859978,0.012565999999999999,-0.47360399999999997,-1.715,-6.16,-4.0425
313,9514105,0.8579041,0.012931999999999999,-0.473116,-1.7325,-5.9675,-4.06
314,9514203,0.8581479999999999,0.013175999999999998,-0.47458,-1.6625,-5.8975,-4.0075
315,9514300,0.8580260000000001,0.013541999999999998,-0.47336000000000006,-1.75,-5.845,-4.0425
316,9514398,0.8585139999999999,0.0122,-0.472262,-1.715,-5.705,-3.99
317,9514496,0.8591241,0.012444,-0.471286,-1.6275,-5.495,-4.0425
318,9514594,0.857294,0.012688,-0.471896,-1.645,-5.3375,-4.1125
319,9514692,0.8569280999999999,0.014152000000000001,-0.471042,-1.5575,-5.1275,-4.1125
320,9514790,0.8575379999999999,0.014518000000000001,-0.47153,-1.54,-5.04,-4.2
321,9514888,0.8577819999999999,0.015738,-0.47275,-1.505,-4.9,-4.2175
322,9514986,0.8591241,0.013541999999999998,-0.47336000000000006,-1.4525,-4.865,-4.305
323,9515084,0.859368,0.014152000000000001,-0.47506800000000005,-1.505,-4.8125,-4.3925
324,9515182,0.859368,0.013908000000000002,-0.472384,-1.4175,-4.725,-4.41
325,9515280,0.8613200000000001,0.014884,-0.472262,-1.435,-4.76,-4.4275
326,9515378,0.8620521000000001,0.014884,-0.47213999999999995,-1.365,-4.83,-4.445
327,9515475,0.8648581,0.01342,-0.47372600000000004,-1.3475,-4.9,-4.4275
328,9515573,0.8652241,0.014274,-0.474458,-1.26,-5.04,-4.5325
329,9515671,0.864492,0.016104,-0.47555600000000003,-1.2075,-5.0575,-4.55
330,9515769,0.8638819999999999,0.016104,-0.475312,-1.1725,-5.2325,-4.5675
331,9515867,0.8601,0.01525,-0.47604399999999997,-1.155,-5.4775,-4.5675
332,9515965,0.8586360000000001,0.013541999999999998,-0.476288,-1.05,-5.425,-4.6025
333,9516063,0.8591241,0.013908000000000002,-0.477508,-1.0325,-5.46,-4.7075
334,9516161,0.8585139999999999,0.014274,-0.47775200000000007,-0.98,-5.5825,-4.6375
335,9516259,0.8616860000000001,0.013786000000000001,-0.47775200000000007,-0.945,-5.74,-4.585
336,9516357,0.86315,0.013663999999999999,-0.479216,-0.945,-5.845,-4.69
337,9516455,0.8629061,0.014274,-0.477996,-0.7875,-5.8275,-4.7075
338,9516553,0.8637601,0.015616,-0.47811800000000004,-0.7525,-6.02,-4.585
339,9516651,0.863516,0.016347999999999998,-0.47811800000000004,-0.7175,-6.125,-4.515
340,9516748,0.8632719999999999,0.014274,-0.477264,-0.7,-6.2825,-4.48
341,9516846,0.8611979999999999,0.01281,-0.476654,-0.77,-6.405,-4.48
342,9516944,0.8608319999999999,0.012931999999999999,-0.47604399999999997,-0.8400001,-6.37,-4.4625
343,9517042,0.8581479999999999,0.013175999999999998,-0.475922,-0.8400001,-6.335,-4.48
344,9517140,0.856806,0.014152000000000001,-0.474946,-0.77,-6.335,-4.4625
345,9517238,0.8552200000000001,0.014152000000000001,-0.474214,-0.8400001,-6.3875,-4.3575
346,9517336,0.85583,0.01342,-0.474092,-0.91,-6.2475,-4.4625
347,9517434,0.8569280999999999,0.01342,-0.473238,-0.875,-6.1425,-4.375
348,9517532,0.859002,0.012565999999999999,-0.47458,-0.91,-6.195,-4.375
349,9517630,0.8607100000000001,0.013541999999999998,-0.47458,-0.9975,-6.1775,-4.4275
350,9517728,0.861442,0.014152000000000001,-0.47518999999999995,-1.1025,-6.2125,-4.41
351,9517826,0.862296,0.012565999999999999,-0.47787399999999997,-1.2075,-6.125,-4.5325
352,9517923,0.8629061,0.013541999999999998,-0.47787399999999997,-1.1725,-6.09,-4.4275
353,9518021,0.8613200000000001,0.016225999999999997,-0.4758,-1.1025,-6.02,-4.4625
354,9518119,0.8605879999999999,0.018056,-0.47348199999999996,-0.9275,-6.09,-4.4625
355,9518217,0.86193,0.019642,-0.47384799999999994,-0.77,-6.2475,-4.4975
356,9518315,0.8605879999999999,0.019154,-0.474092,-0.6475,-6.44,-4.5675
357,9518413,0.859856,0.019154,-0.475312,-0.5075,-6.3525,-4.6025
358,9518511,0.85888,0.016104,-0.475434,-0.525,-6.195,-4.7775
359,9518609,0.85949,0.013541999999999998,-0.475434,-0.56,-6.0025,-4.9175
360,9518707,0.85888,0.011956,-0.47299399999999997,-0.5775,-6.1425,-4.8825
361,9518805,0.8608319999999999,0.010736,-0.474946,-0.77,-6.2475,-4.8125
362,9518903,0.8605879999999999,0.011468,-0.47384799999999994,-0.9975,-6.3,-4.795
363,9519000,0.8607100000000001,0.011224,-0.47384799999999994,-1.015,-6.3525,-4.795
364,9519098,0.859002,0.013175999999999998,-0.47372600000000004,-0.9625,-6.195,-4.7775
365,9519196,0.8587581,0.015372,-0.473238,-0.8925,-6.09,-4.585
366,9519294,0.8581479999999999,0.013541999999999998,-0.47458,-0.8400001,-6.09,-4.445
367,9519392,0.85888,0.013541999999999998,-0.47348199999999996,-0.8925,-6.195,-4.3225
368,9519490,0.8609540999999999,0.012322,-0.474458,-0.9275,-6.125,-4.165
369,9519588,0.8611979999999999,0.012931999999999999,-0.474946,-0.945,-6.195,-4.2175
370,9519686,0.860344,0.013786000000000001,-0.47555600000000003,-0.8925,-6.09,-4.235
371,9519784,0.8601,0.013541999999999998,-0.4758,-0.945,-5.9325,-4.235
372,9519882,0.85949,0.014762,-0.474946,-0.9975,-5.7225,-4.2525
373,9519980,0.85705,0.013663999999999999,-0.47482399999999997,-0.945,-5.6875,-4.2525
374,9520078,0.857294,0.01708,-0.475678,-0.8925,-5.705,-4.27
375,9520176,0.856684,0.016104,-0.47555600000000003,-1.085,-5.67,-4.2
376,9520273,0.855708,0.015738,-0.476288,-1.12,-5.7925,-4.1125
377,9520371,0.856806,0.014274,-0.477264,-1.2075,-5.775,-4.13
378,9520469,0.8586360000000001,0.01281,-0.477508,-1.2775,-5.8975,-4.165
379,9520567,0.858392,0.013786000000000001,-0.47775200000000007,-1.2775,-5.8975,-4.2175
380,9520665,0.8587581,0.013908000000000002,-0.477386,-1.2775,-5.7925,-4.1475
381,9520763,0.85888,0.014518000000000001,-0.47763,-1.365,-5.7225,-4.1125
382,9520861,0.8597341000000001,0.014274,-0.477386,-1.2775,-5.6525,-4.1125
383,9520959,0.8605879999999999,0.01464,-0.477508,-1.19,-5.67,-4.06
384,9521057,0.8616860000000001,0.01586,-0.47604399999999997,-1.1725,-5.845,-4.06
385,9521155,0.8616860000000001,0.015493999999999999,-0.4758,-1.1025,-6.09,-4.095
386,9521253,0.8613200000000001,0.01403,-0.47555600000000003,-1.1725,-6.195,-4.1125
387,9521351,0.862174,0.013908000000000002,-0.475922,-1.26,-6.23,-4.1475
388,9521449,0.859856,0.014518000000000001,-0.475922,-1.3125,-6.265,-4.2175
389,9521546,0.860344,0.013786000000000001,-0.47653199999999996,-1.33,-6.3175,-4.2175
390,9521644,0.8601,0.015738,-0.475922,-1.4,-6.4925,-4.13
391,9521742,0.859368,0.015006,-0.475922,-1.4,-6.4575,-4.1125
392,9521840,0.8602221,0.01586,-0.47653199999999996,-1.3475,-6.5625,-4.13
393,9521938,0.8596120999999999,0.014884,-0.476166,-1.3475,-6.615,-4.1125
394,9522036,0.859002,0.01586,-0.47518999999999995,-1.4175,-6.5275,-4.025
395,9522134,0.85583,0.016714,-0.47555600000000003,-1.33,-6.335,-4.1125
396,9522232,0.856196,0.016958,-0.475312,-1.33,-6.3525,-4.0775
397,9522330,0.8563181000000001,0.015372,-0.47604399999999997,-1.225,-6.1425,-4.0775
398,9522428,0.8582700999999999,0.01464,-0.47506800000000005,-1.225,-6.16,-4.1825
399,9522526,0.8601,0.013297999999999999,-0.47397,-1.2075,-6.0725,-4.1825
400,9522624,0.8607100000000001,0.015738,-0.478728,-1.1725,-5.7925,-4.2525
401,9522721,0.860344,0.017446,-0.475678,-1.0325,-5.6,-4.48
402,9522819,0.85888,0.019642,-0.476288,-1.0325,-5.53,-4.4625
403,9522917,0.8574161,0.019398,-0.478972,-1.1025,-5.5125,-4.4975
404,9523015,0.8569280999999999,0.019886,-0.47787399999999997,-1.05,-5.5475,-4.4975
405,9523113,0.8554641,0.018544,-0.47946000000000005,-0.9975,-5.6175,-4.5675
406,9523211,0.8563181000000001,0.020008,-0.48068,-1.1025,-5.705,-4.515
407,9523309,0.856562,0.018178,-0.48007,-1.0325,-5.6875,-4.515
408,9523407,0.8550979999999999,0.015128,-0.47994799999999993,-1.015,-5.74,-4.48
409,9523505,0.8544879999999999,0.012688,-0.481778,-1.0325,-5.565,-4.55
410,9523603,0.8540000000000001,0.01281,-0.480436,-1.1375,-5.6,-4.3925
411,9523701,0.8547319999999999,0.012565999999999999,-0.481412,-1.1725,-5.635,-4.2525
412,9523799,0.8555860999999999,0.01342,-0.481778,-1.2775,-5.635,-4.1825
413,9523897,0.856684,0.014274,-0.480558,-1.295,-5.67,-4.27
414,9523994,0.856196,0.01525,-0.480436,-1.33,-5.7225,-4.165
415,9524092,0.85644,0.016592,-0.4819,-1.505,-5.7575,-4.1475
416,9524190,0.8580260000000001,0.017812,-0.48116800000000004,-1.54,-5.81,-4.165
417,9524288,0.857294,0.018178,-0.48116800000000004,-1.5225,-5.95,-4.27
418,9524386,0.8575379999999999,0.019764,-0.48373,-1.5575,-5.985,-4.2525
419,9524484,0.857294,0.021472,-0.484096,-1.61,-6.0725,-4.41
420,9524582,0.8552200000000001,0.021594,-0.48385200000000006,-1.5575,-6.0375,-4.6375
421,9524680,0.8552200000000001,0.019886,-0.4819,-1.3475,-5.9675,-4.6725
422,9524778,0.853512,0.017812,-0.48068,-1.225,-6.02,-4.5325
423,9524876,0.852902,0.017568,-0.482022,-1.015,-6.0725,-4.48
424,9524974,0.8552200000000001,0.015006,-0.482876,-1.1025,-6.09,-4.62
425,9525072,0.856074,0.015982,-0.482266,-1.015,-6.125,-4.585
426,9525169,0.85644,0.01403,-0.482266,-1.015,-6.055,-4.55
427,9525267,0.8586360000000001,0.013297999999999999,-0.483608,-0.9625,-6.0025,-4.4975
428,9525365,0.8571719999999999,0.01342,-0.482998,-1.0325,-6.0025,-4.48
429,9525463,0.8569280999999999,0.01464,-0.48068,-1.0675,-6.0025,-4.48
430,9525561,0.856074,0.014518000000000001,-0.480558,-1.1025,-5.9325,-4.4975
431,9525659,0.8552200000000001,0.01586,-0.48153409999999996,-1.0325,-6.0025,-4.34
432,9525757,0.8563181000000001,0.016225999999999997,-0.482266,-1.1025,-6.0025,-4.375
433,9525855,0.8552200000000001,0.01525,-0.48080200000000006,-1.1025,-6.0025,-4.4275
434,9525953,0.8548540000000001,0.014518000000000001,-0.480558,-1.225,-5.915,-4.305
435,9526051,0.8549761,0.015372,-0.480436,-1.19,-5.915,-4.3225
436,9526149,0.8544879999999999,0.016958,-0.48153409999999996,-1.225,-5.8275,-4.445
437,9526247,0.8555860999999999,0.015738,-0.48092399999999996,-1.1375,-5.845,-4.4275
438,9526345,0.8549761,0.017324000000000003,-0.48128999999999994,-0.98,-5.7925,-4.4625
439,9526442,0.8549761,0.016592,-0.482266,-0.7875,-5.845,-4.41
440,9526540,0.856196,0.018422,-0.48068,-0.7875,-5.845,-4.3925
441,9526638,0.8569280999999999,0.018544,-0.48104600000000003,-0.7525,-5.7925,-4.55
442,9526736,0.856806,0.017568,-0.48116800000000004,-0.63,-5.8275,-4.62
443,9526834,0.856684,0.018056,-0.4819,-0.5075,-5.845,-4.655
444,9526932,0.8559521000000001,0.018056,-0.480314,-0.4025,-5.88,-4.7075
445,9527030,0.8552200000000001,0.017934000000000002,-0.482754,-0.2975,-5.7225,-4.7775
446,9527128,0.8546101,0.016836,-0.4819,-0.315,-5.6875,-4.865
447,9527226,0.855708,0.016836,-0.480314,-0.2625,-5.74,-4.865
448,9527324,0.85583,0.015493999999999999,-0.480192,-0.175,-5.705,-4.9
449,9527422,0.8579041,0.015006,-0.48165600000000003,-0.175,-5.7575,-4.9175
450,9527520,0.857294,0.014396,-0.482876,-0.1225,-5.74,-4.935
451,9527617,0.857294,0.013297999999999999,-0.48092399999999996,-0.0875,-5.705,-5.04
452,9527715,0.856562,0.014274,-0.48348599999999997,-0.1225,-5.7575,-5.075
453,9527813,0.8575379999999999,0.014396,-0.48433999999999994,-0.0875,-5.845,-4.97
454,9527911,0.856562,0.013541999999999998,-0.484706,-0.175,-5.8975,-4.9
455,9528009,0.8563181000000001,0.015738,-0.48397399999999996,-0.2975,-5.95,-4.8125
456,9528107,0.855342,0.016347999999999998,-0.482876,-0.2625,-6.0025,-4.7075
457,9528205,0.8540000000000001,0.017568,-0.48116800000000004,-0.14,-6.1075,-4.5675
458,9528303,0.8552200000000001,0.017446,-0.48153409999999996,0.0,-6.16,-4.69
459,9528401,0.8559521000000001,0.01708,-0.483364,-0.0525,-6.055,-4.795
460,9528499,0.85583,0.013297999999999999,-0.485072,-0.1225,-5.9675,-4.9
461,9528597,0.857294,0.011834,-0.48543800000000004,-0.1925,-5.915,-4.935
462,9528695,0.856074,0.011101999999999999,-0.48348599999999997,-0.21,-5.8975,-5.005
463,9528792,0.8574161,0.00976,-0.48312,-0.28,-6.1075,-5.04
464,9528890,0.856562,0.011346,-0.482754,-0.4375,-6.265,-5.0225
465,9528988,0.8576601,0.011956,-0.483242,-0.49,-6.2825,-4.8825
466,9529086,0.855708,0.012565999999999999,-0.48092399999999996,-0.5425,-6.335,-4.725
467,9529184,0.853878,0.013297999999999999,-0.481778,-0.4375,-6.125,-4.655
468,9529282,0.8540000000000001,0.01342,-0.480192,-0.5075,-6.0375,-4.5675
469,9529380,0.8549761,0.013663999999999999,-0.48104600000000003,-0.4725,-5.9675,-4.48
470,9529478,0.8536341000000001,0.015006,-0.480314,-0.3325,-6.0025,-4.34
471,9529576,0.8549761,0.012931999999999999,-0.482876,-0.35,-6.0725,-4.4275
472,9529674,0.8550979999999999,0.012322,-0.4819,-0.4725,-5.845,-4.4625
473,9529772,0.8547319999999999,0.012565999999999999,-0.482754,-0.4375,-5.7225,-4.5325
474,9529870,0.853024,0.013663999999999999,-0.48263199999999995,-0.56,-5.6525,-4.6375
475,9529967,0.85156,0.011712,-0.484096,-0.6825,-5.53,-4.69
476,9530065,0.854244,0.012931999999999999,-0.484706,-0.735,-5.53,-4.5325
477,9530163,0.8543661,0.012444,-0.48678,-0.805,-5.6175,-4.4975
478,9530261,0.8544879999999999,0.011101999999999999,-0.484584,-0.945,-5.67,-4.4625
479,9530359,0.853878,0.011346,-0.48385200000000006,-0.9625,-5.7225,-4.375
480,9530457,0.8544879999999999,0.011590000000000001,-0.484584,-1.12,-5.74,-4.3925
481,9530555,0.8541221,0.0122,-0.485072,-1.2075,-5.7225,-4.3925
482,9530653,0.8546101,0.01281,-0.484828,-1.225,-5.5825,-4.3225
483,9530751,0.8532681000000001,0.01464,-0.48397399999999996,-1.155,-5.4425,-4.3575
484,9530849,0.8520479999999999,0.014884,-0.48385200000000006,-0.9975,-5.46,-4.34
485,9530947,0.8549761,0.015493999999999999,-0.4819,-0.945,-5.4425,-4.305
486,9531044,0.854244,0.014274,-0.482388,-1.05,-5.39,-4.3575
487,9531142,0.853878,0.013297999999999999,-0.48263199999999995,-1.1375,-5.495,-4.4275
488,9531240,0.8549761,0.011224,-0.48373,-1.1375,-5.46,-4.48
489,9531338,0.8546101,0.01098,-0.48312,-1.2425,-5.4775,-4.445
490,9531436,0.855342,0.010614,-0.483608,-1.1725,-5.53,-4.3925
491,9531534,0.853512,0.01098,-0.48531599999999997,-1.155,-5.5125,-4.3225
492,9531632,0.853756,0.011590000000000001,-0.484096,-1.19,-5.4075,-4.3575
493,9531730,0.8548540000000001,0.012078,-0.484096,-1.1725,-5.46,-4.2875
494,9531828,0.8543661,0.013908000000000002,-0.484584,-1.1375,-5.495,-4.305
495,9531926,0.8536341000000001,0.01342,-0.48348599999999997,-1.1025,-5.3725,-4.3225
496,9532024,0.85339,0.012688,-0.48495,-1.1025,-5.3725,-4.3225
497,9532121,0.853878,0.013663999999999999,-0.48312,-0.98,-5.46,-4.1825
498,9532219,0.855342,0.012688,-0.483364,-1.05,-5.53,-4.2875
499,9532317,0.856562,0.013297999999999999,-0.483242,-1.015,-5.635,-4.3575
500,9532415,0.8575379999999999,0.012688,-0.48263199999999995,-1.0675,-5.6525,-4.3575
501,9532513,0.857294,0.0122,-0.48373,-1.085,-5.6175,-4.2875
502,9532611,0.8574161,0.012444,-0.484706,-1.1025,-5.635,-4.34
503,9532709,0.856562,0.012565999999999999,-0.48214399999999996,-1.225,-5.6875,-4.445
504,9532807,0.8559521000000001,0.012444,-0.482022,-1.26,-5.5825,-4.48
505,9532905,0.8552200000000001,0.012688,-0.482876,-1.155,-5.705,-4.3925
506,9533003,0.8532681000000001,0.012322,-0.482754,-1.12,-5.6,-4.3925
507,9533101,0.8526581,0.012931999999999999,-0.482388,-1.085,-5.5825,-4.3575
508,9533198,0.853024,0.012688,-0.48312,-1.12,-5.4775,-4.41
509,9533296,0.8552200000000001,0.011712,-0.482388,-1.2075,-5.4425,-4.375
510,9533394,0.8563181000000001,0.013297999999999999,-0.482754,-1.085,-5.425,-4.34
511,9533492,0.8555860999999999,0.013908000000000002,-0.48214399999999996,-1.1025,-5.495,-4.375
512,9533590,0.855342,0.01281,-0.4819,-1.155,-5.4425,-4.34
513,9533688,0.856562,0.011712,-0.48080200000000006,-1.0325,-5.425,-4.34
514,9533786,0.857294,0.013908000000000002,-0.47982600000000003,-1.19,-5.565,-4.34
515,9533884,0.8581479999999999,0.01281,-0.48068,-1.155,-5.5125,-4.4275
516,9533982,0.8576601,0.011956,-0.479216,-1.1725,-5.6,-4.34
517,9534080,0.856684,0.012688,-0.47958199999999995,-1.1025,-5.53,-4.375
518,9534178,0.856074,0.012444,-0.480314,-1.225,-5.5475,-4.41
519,9534275,0.856806,0.013541999999999998,-0.48068,-1.33,-5.565,-4.3575
520,9534373,0.8582700999999999,0.010858,-0.479338,-1.33,-5.635,-4.4275
521,9534471,0.8586360000000001,0.011712,-0.478362,-1.2775,-5.74,-4.3575
522,9534569,0.8581479999999999,0.012565999999999999,-0.478728,-1.4525,-5.67,-4.27
523,9534667,0.858392,0.0122,-0.47811800000000004,-1.4525,-5.74,-4.1825
524,9534765,0.8592460999999999,0.012688,-0.477142,-1.5575,-5.81,-4.235
525,9534863,0.8608319999999999,0.012688,-0.47653199999999996,-1.5925,-5.74,-4.235
526,9534961,0.8592460999999999,0.0122,-0.475312,-1.575,-5.7925,-4.1825
527,9535059,0.8592460999999999,0.01281,-0.476654,-1.5925,-5.6175,-4.06
528,9535157,0.8604661,0.013054,-0.475312,-1.6625,-5.5475,-4.13
529,9535255,0.860344,0.012931999999999999,-0.47702,-1.6625,-5.425,-4.13
530,9535353,0.8604661,0.014884,-0.477386,-1.61,-5.5125,-4.1475
531,9535450,0.85949,0.014396,-0.47787399999999997,-1.54,-5.6,-4.1825
532,9535548,0.8615640999999999,0.015006,-0.477996,-1.4875,-5.6175,-4.165
533,9535646,0.8577819999999999,0.014884,-0.47677600000000003,-1.4525,-5.5825,-4.2
534,9535744,0.8580260000000001,0.015006,-0.47641000000000006,-1.575,-5.5475,-4.2
535,9535842,0.85644,0.012565999999999999,-0.47763,-1.5575,-5.565,-4.2875
536,9535940,0.8571719999999999,0.013297999999999999,-0.47860600000000003,-1.435,-5.6175,-4.1475
537,9536038,0.85644,0.01403,-0.480314,-1.26,-5.635,-4.1475
538,9536136,0.8569280999999999,0.015616,-0.47946000000000005,-1.4525,-5.5825,-4.2
539,9536234,0.856684,0.014762,-0.47946000000000005,-1.5225,-5.67,-4.1125
540,9536332,0.8569280999999999,0.015128,-0.48080200000000006,-1.61,-5.7225,-4.165
541,9536430,0.8569280999999999,0.014884,-0.480436,-1.5925,-5.8275,-4.2
542,9536527,0.857294,0.015372,-0.47946000000000005,-1.5925,-5.88,-4.165
543,9536625,0.858392,0.015738,-0.48092399999999996,-1.6275,-5.95,-4.1475
544,9536723,0.8579041,0.015006,-0.480558,-1.4525,-5.9675,-4.13
545,9536821,0.8580260000000001,0.013297999999999999,-0.48165600000000003,-1.4875,-6.02,-4.13
546,9536919,0.85888,0.014884,-0.481778,-1.4175,-5.9675,-4.1125
547,9537017,0.85888,0.015616,-0.47885,-1.4,-6.0025,-4.165
548,9537115,0.8569280999999999,0.018422,-0.47994799999999993,-1.4,-6.0025,-4.095
549,9537213,0.8585139999999999,0.017812,-0.48116800000000004,-1.33,-6.055,-4.2525
550,9537311,0.856806,0.01708,-0.479216,-1.19,-6.1075,-4.2525
551,9537409,0.8576601,0.015616,-0.479704,-1.12,-6.1425,-4.3225
552,9537507,0.858392,0.014762,-0.480436,-1.33,-6.2125,-4.34
553,9537604,0.8575379999999999,0.014762,-0.48068,-1.3475,-6.2125,-4.3225
554,9537702,0.856562,0.013541999999999998,-0.480558,-1.295,-6.2125,-4.3925
555,9537800,0.8550979999999999,0.014152000000000001,-0.480436,-1.2425,-6.3,-4.3575
556,9537898,0.8541221,0.015738,-0.480192,-1.155,-6.335,-4.3925
557,9537996,0.8555860999999999,0.016592,-0.48007,-1.1375,-6.3525,-4.3575
558,9538094,0.8563181000000001,0.017446,-0.47994799999999993,-1.1375,-6.335,-4.3925
559,9538192,0.857294,0.016225999999999997,-0.482388,-0.9975,-6.23,-4.3575
560,9538290,0.855708,0.01403,-0.48263199999999995,-1.015,-6.09,-4.4275
561,9538388,0.856806,0.013175999999999998,-0.482876,-1.1725,-5.985,-4.445
562,9538486,0.856562,0.012444,-0.48214399999999996,-1.2425,-6.0025,-4.6025
563,9538584,0.8571719999999999,0.011468,-0.48263199999999995,-1.3125,-6.195,-4.5675
564,9538682,0.85705,0.012565999999999999,-0.482266,-1.365,-6.265,-4.4625
565,9538779,0.8569280999999999,0.013786000000000001,-0.48068,-1.365,-6.405,-4.375
566,9538877,0.8548540000000001,0.013908000000000002,-0.48104600000000003,-1.3475,-6.44,-4.3225
567,9538975,0.8546101,0.01525,-0.48068,-1.3125,-6.23,-4.305
568,9539073,0.854244,0.014884,-0.480436,-1.3125,-6.0725,-4.1825
569,9539171,0.8554641,0.014152000000000001,-0.4819,-1.3825,-6.0025,-4.2
570,9539269,0.853756,0.013541999999999998,-0.4819,-1.3825,-6.0375,-4.13
571,9539367,0.853024,0.014152000000000001,-0.48068,-1.225,-6.0025,-4.1125
572,9539465,0.853878,0.013663999999999999,-0.48263199999999995,-1.1725,-5.7925,-4.1825
573,9539563,0.8546101,0.014396,-0.482266,-1.365,-5.705,-4.2175
574,9539661,0.8543661,0.013297999999999999,-0.48373,-1.4175,-5.845,-4.13
575,9539759,0.8554641,0.013297999999999999,-0.48495,-1.4175,-5.845,-4.0775
576,9539857,0.85644,0.01403,-0.484462,-1.4,-5.74,-4.13
577,9539954,0.8552200000000001,0.014884,-0.482998,-1.3825,-5.74,-4.2175
578,9540052,0.8532681000000001,0.015982,-0.484828,-1.33,-5.6525,-4.2
579,9540150,0.853878,0.016836,-0.484096,-1.365,-5.6875,-4.2175
580,9540248,0.8547319999999999,0.015982,-0.482876,-1.4175,-5.7925,-4.235
581,9540346,0.8519260000000001,0.015128,-0.48348599999999997,-1.295,-5.7925,-4.2
582,9540444,0.8522921,0.016225999999999997,-0.48385200000000006,-1.2075,-5.6525,-4.2175
583,9540542,0.85156,0.01525,-0.484096,-1.0325,-5.635,-4.2525
584,9540640,0.8513161,0.015738,-0.48373,-1.05,-5.53,-4.2875
585,9540738,0.8550979999999999,0.014152000000000001,-0.48495,-1.015,-5.6525,-4.3575
586,9540836,0.8576601,0.01403,-0.484706,-1.085,-5.705,-4.375
587,9540934,0.8554641,0.013541999999999998,-0.48556000000000005,-1.0675,-5.7925,-4.445
588,9541032,0.8563181000000001,0.013663999999999999,-0.484096,-1.0675,-5.775,-4.34
589,9541129,0.8559521000000001,0.013663999999999999,-0.48495,-1.155,-5.775,-4.3225
590,9541227,0.85583,0.013541999999999998,-0.48531599999999997,-1.2075,-5.81,-4.375
591,9541325,0.8550979999999999,0.012688,-0.48421800000000004,-1.085,-5.8975,-4.4275
592,9541423,0.8555860999999999,0.014152000000000001,-0.484828,-0.945,-5.8275,-4.3575
593,9541521,0.8536341000000001,0.016104,-0.484828,-0.98,-5.7575,-4.41
594,9541619,0.8524139999999999,0.015372,-0.48495,-0.8925,-5.6875,-4.4275
595,9541717,0.8513161,0.014884,-0.48421800000000004,-0.8925,-5.775,-4.4625
596,9541815,0.8526581,0.015006,-0.48568199999999995,-0.8400001,-5.7575,-4.41
597,9541913,0.853512,0.014762,-0.485072,-0.8225,-5.74,-4.3225
598,9542011,0.853878,0.014518000000000001,-0.484584,-0.7525,-5.7575,-4.3575
599,9542109,0.854244,0.014274,-0.48397399999999996,-0.7875,-5.845,-4.34
600,9542207,0.8548540000000001,0.012931999999999999,-0.483364,-0.8575,-5.775,-4.4275
601,9542304,0.8555860999999999,0.013541999999999998,-0.484584,-0.8575,-5.775,-4.4975
602,9542402,0.8546101,0.01403,-0.483242,-0.8225,-5.7925,-4.5675
603,9542500,0.853756,0.014518000000000001,-0.482754,-0.8925,-5.6,-4.6375
604,9542598,0.8543661,0.013297999999999999,-0.48263199999999995,-0.8925,-5.5825,-4.6025
605,9542696,0.853756,0.01403,-0.483242,-0.875,-5.6525,-4.515
606,9542794,0.853756,0.014762,-0.482998,-0.8925,-5.565,-4.48
607,9542892,0.855708,0.012444,-0.48116800000000004,-0.945,-5.565,-4.55
608,9542990,0.8582700999999999,0.012688,-0.482754,-0.875,-5.67,-4.515
609,9543088,0.8587581,0.013908000000000002,-0.48214399999999996,-0.805,-5.845,-4.5675
610,9543186,0.858392,0.013908000000000002,-0.481412,-0.7875,-5.81,-4.5675
611,9543283,0.8582700999999999,0.012322,-0.482266,-0.8925,-5.81,-4.515
612,9543381,0.8575379999999999,0.012565999999999999,-0.483364,-0.8925,-5.8275,-4.4975
613,9543479,0.855342,0.012565999999999999,-0.482754,-0.945,-5.7925,-4.4625
614,9543577,0.8555860999999999,0.012931999999999999,-0.483242,-0.875,-5.81,-4.3575
615,9543675,0.8552200000000001,0.012931999999999999,-0.48348599999999997,-0.91,-5.7575,-4.4625
616,9543773,0.8547319999999999,0.013175999999999998,-0.48421800000000004,-1.05,-5.74,-4.4275
617,9543871,0.8536341000000001,0.013908000000000002,-0.484706,-0.98,-5.775,-4.41
618,9543969,0.8540000000000001,0.013054,-0.483608,-1.0675,-5.6525,-4.4625
619,9544067,0.853878,0.011956,-0.482998,-1.155,-5.6525,-4.4975
620,9544165,0.8549761,0.011956,-0.482388,-1.015,-5.775,-4.4625
621,9544263,0.853512,0.012688,-0.48263199999999995,-0.9975,-5.6,-4.3575
622,9544360,0.8541221,0.013908000000000002,-0.4819,-0.9975,-5.5125,-4.375
623,9544458,0.8546101,0.014396,-0.48080200000000006,-1.0325,-5.495,-4.2875
624,9544556,0.856684,0.013175999999999998,-0.48068,-1.1025,-5.4425,-4.4275
625,9544654,0.855708,0.014274,-0.483364,-1.12,-5.46,-4.3575
626,9544752,0.8580260000000001,0.014152000000000001,-0.48080200000000006,-1.19,-5.495,-4.4275
627,9544850,0.8581479999999999,0.013663999999999999,-0.48214399999999996,-1.1375,-5.46,-4.41
628,9544948,0.8585139999999999,0.012444,-0.48312,-1.1025,-5.5125,-4.4625
629,9545046,0.8581479999999999,0.012322,-0.48263199999999995,-1.0675,-5.5825,-4.41
630,9545144,0.856684,0.014518000000000001,-0.482754,-1.0675,-5.5825,-4.445
631,9545241,0.8552200000000001,0.012931999999999999,-0.48373,-1.0325,-5.6175,-4.445
632,9545339,0.8552200000000001,0.013175999999999998,-0.482876,-0.98,-5.705,-4.4625
633,9545437,0.8552200000000001,0.014274,-0.48263199999999995,-0.98,-5.6525,-4.445
634,9545535,0.856196,0.012688,-0.483242,-0.98,-5.6875,-4.4625
635,9545633,0.8550979999999999,0.013054,-0.48433999999999994,-0.9275,-5.6875,-4.3925
636,9545731,0.855342,0.014396,-0.48373,-0.8925,-5.74,-4.4275
637,9545829,0.8550979999999999,0.01281,-0.483242,-1.085,-5.775,-4.4625
638,9545927,0.856684,0.013786000000000001,-0.48397399999999996,-0.9975,-5.81,-4.4625
639,9546024,0.8547319999999999,0.013541999999999998,-0.484462,-0.9625,-5.7575,-4.4975
640,9546122,0.8550979999999999,0.014518000000000001,-0.485072,-0.9625,-5.705,-4.445
641,9546220,0.8540000000000001,0.015006,-0.484584,-0.9975,-5.7925,-4.445
642,9546318,0.852902,0.013541999999999998,-0.48251000000000005,-1.05,-5.8625,-4.515
643,9546416,0.853878,0.013541999999999998,-0.48543800000000004,-0.9625,-5.81,-4.4275
644,9546514,0.8552200000000001,0.013054,-0.48617,-0.98,-5.74,-4.41
645,9546612,0.8550979999999999,0.013175999999999998,-0.484828,-1.0325,-5.9675,-4.3925
646,9546710,0.855342,0.013908000000000002,-0.484096,-1.05,-5.8975,-4.48
647,9546808,0.8549761,0.01403,-0.483608,-1.085,-5.9325,-4.48
648,9546906,0.85583,0.015006,-0.482266,-1.0325,-5.985,-4.41
649,9547004,0.855342,0.013908000000000002,-0.48348599999999997,-0.945,-6.0375,-4.41
650,9547101,0.855708,0.012688,-0.48214399999999996,-1.085,-5.9675,-4.3925
651,9547199,0.8552200000000001,0.01403,-0.483364,-1.155,-5.985,-4.4625
652,9547297,0.8552200000000001,0.01281,-0.484096,-1.2075,-5.8625,-4.375
653,9547395,0.8543661,0.01281,-0.484706,-1.12,-5.88,-4.41
654,9547493,0.855342,0.011956,-0.484462,-1.2075,-5.8275,-4.41
655,9547591,0.8549761,0.015006,-0.48214399999999996,-1.085,-6.0025,-4.2875
656,9547689,0.8548540000000001,0.014762,-0.480314,-0.945,-5.9675,-4.3925
657,9547787,0.855342,0.015616,-0.480558,-0.805,-6.055,-4.3925
658,9547885,0.8555860999999999,0.01464,-0.48092399999999996,-0.8400001,-6.125,-4.515
659,9547983,0.856196,0.01281,-0.48068,-0.8575,-6.0025,-4.4975
660,9548081,0.85644,0.011590000000000001,-0.48348599999999997,-0.91,-5.8275,-4.5325
661,9548179,0.85583,0.010126000000000001,-0.482388,-1.0325,-5.7575,-4.6375
662,9548277,0.856684,0.010004,-0.481778,-1.1725,-5.8275,-4.7775
663,9548374,0.8569280999999999,0.010248,-0.48080200000000006,-1.225,-5.985,-4.62
664,9548472,0.85705,0.01037,-0.48128999999999994,-1.365,-5.95,-4.62
665,9548570,0.855708,0.011346,-0.47994799999999993,-1.3125,-6.02,-4.55
666,9548668,0.8540000000000001,0.011590000000000001,-0.481412,-1.295,-5.8625,-4.445
667,9548766,0.8554641,0.012444,-0.481412,-1.3125,-5.74,-4.305
668,9548864,0.8547319999999999,0.012688,-0.48153409999999996,-1.3125,-5.775,-4.2175
669,9548962,0.8522921,0.013541999999999998,-0.482388,-1.225,-5.7225,-4.0775
670,9549060,0.8548540000000001,0.013297999999999999,-0.48348599999999997,-1.2425,-5.6175,-4.0075
671,9549158,0.8536341000000001,0.01342,-0.48263199999999995,-1.225,-5.5125,-3.9725
672,9549256,0.854244,0.014762,-0.484462,-1.2775,-5.425,-4.095
673,9549354,0.855708,0.014152000000000001,-0.48385200000000006,-1.295,-5.4425,-4.0425
674,9549452,0.8559521000000001,0.014762,-0.484828,-1.3475,-5.565,-4.165
675,9549550,0.85644,0.014762,-0.484706,-1.2425,-5.74,-4.2
676,9549647,0.8569280999999999,0.01647,-0.484096,-1.295,-5.74,-4.27
677,9549745,0.856196,0.015616,-0.48385200000000006,-1.2775,-5.845,-4.3225
678,9549843,0.8550979999999999,0.015982,-0.48397399999999996,-1.3125,-5.8275,-4.3575
679,9549941,0.85339,0.015372,-0.482876,-1.4175,-5.845,-4.4275
680,9550039,0.8527800999999999,0.015493999999999999,-0.482876,-1.365,-5.915,-4.41
681,9550137,0.8521700999999999,0.015128,-0.48397399999999996,-1.33,-5.7575,-4.41
682,9550235,0.8508280999999999,0.014762,-0.483364,-1.155,-5.6525,-4.41
683,9550333,0.85034,0.015982,-0.48385200000000006,-0.9975,-5.5475,-4.41
684,9550431,0.8525360000000001,0.014884,-0.48312,-0.875,-5.5475,-4.4275
685,9550529,0.8555860999999999,0.013786000000000001,-0.48495,-0.8925,-5.495,-4.4625
686,9550626,0.8559521000000001,0.015128,-0.48251000000000005,-0.91,-5.4075,-4.515
687,9550724,0.855708,0.01342,-0.482876,-0.9625,-5.4775,-4.5325
688,9550822,0.853878,0.013786000000000001,-0.484096,-1.05,-5.4775,-4.515
689,9550920,0.8527800999999999,0.012931999999999999,-0.4819,-1.05,-5.32,-4.5675
690,9551018,0.8527800999999999,0.014274,-0.484706,-1.1025,-5.0575,-4.4975
691,9551116,0.85156,0.01342,-0.484584,-1.0325,-4.97,-4.48
692,9551214,0.8504620999999999,0.014518000000000001,-0.48433999999999994,-0.9625,-4.8825,-4.4975
693,9551312,0.8510719999999999,0.015006,-0.48312,-0.91,-4.83,-4.445
694,9551410,0.8519260000000001,0.014518000000000001,-0.484584,-0.8575,-4.69,-4.41
695,9551507,0.8541221,0.014884,-0.484096,-0.8925,-4.69,-4.4975
696,9551605,0.854244,0.015006,-0.48397399999999996,-0.875,-4.6375,-4.4975
697,9551703,0.853512,0.014274,-0.486048,-0.8925,-4.445,-4.48
698,9551801,0.8525360000000001,0.015616,-0.48690200000000006,-0.8400001,-4.34,-4.5325
699,9551899,0.8497299999999999,0.01464,-0.488122,-0.98,-4.1475,-4.4275
700,9551997,0.8510719999999999,0.013786000000000001,-0.48836599999999997,-0.98,-4.1475,-4.4275
701,9552095,0.8509501,0.014396,-0.487878,-1.05,-4.305,-4.34
702,9552193,0.853024,0.014152000000000001,-0.48653599999999997,-1.1375,-4.4625,-4.305
703,9552291,0.856074,0.014274,-0.487878,-1.1725,-4.6375,-4.375
704,9552388,0.8577819999999999,0.014762,-0.486292,-1.225,-4.8125,-4.4625
705,9552486,0.8586360000000001,0.014884,-0.48519399999999996,-1.2425,-5.0925,-4.3575
706,9552584,0.860344,0.015493999999999999,-0.48653599999999997,-1.33,-5.2325,-4.305
707,9552682,0.859856,0.015006,-0.48678,-1.3825,-5.39,-4.2525
708,9552780,0.85705,0.01464,-0.486414,-1.3475,-5.4075,-4.27
709,9552878,0.852902,0.014518000000000001,-0.48531599999999997,-1.33,-5.32,-4.2175
710,9552976,0.850584,0.01403,-0.484584,-1.3475,-5.285,-4.1825
711,9553074,0.8493641,0.015616,-0.484096,-1.4,-5.285,-4.2175
712,9553172,0.8509501,0.016958,-0.483242,-1.4525,-5.3725,-4.1125
713,9553269,0.853146,0.01708,-0.484706,-1.4,-5.39,-4.2525
714,9553367,0.8543661,0.017202000000000002,-0.486414,-1.3475,-5.3025,-4.305
715,9553465,0.852902,0.016592,-0.48556000000000005,-1.2775,-5.1275,-4.34
716,9553563,0.852902,0.01708,-0.487756,-1.2425,-5.04,-4.305
717,9553661,0.8526581,0.015493999999999999,-0.485072,-1.26,-5.0925,-4.27
718,9553759,0.8536341000000001,0.017812,-0.484462,-1.085,-5.1625,-4.27
719,9553857,0.856684,0.019032,-0.484584,-1.1025,-5.2675,-4.375
720,9553955,0.858392,0.01769,-0.48421800000000004,-1.0675,-5.355,-4.4625
721,9554053,0.8604661,0.017934000000000002,-0.48531599999999997,-0.91,-5.495,-4.48
722,9554151,0.8604661,0.017812,-0.48312,-0.875,-5.495,-4.5675
723,9554249,0.8569280999999999,0.017324000000000003,-0.482266,-0.7525,-5.5825,-4.5675
724,9554347,0.856806,0.017202000000000002,-0.483608,-0.77,-5.7925,-4.62
725,9554444,0.8574161,0.015372,-0.48104600000000003,-0.805,-6.055,-4.7425
726,9554542,0.858392,0.015982,-0.479216,-0.6475,-6.2475,-4.83
727,9554640,0.8596120999999999,0.017202000000000002,-0.478362,-0.5075,-6.3875,-4.7775
728,9554738,0.862174,0.015493999999999999,-0.47787399999999997,-0.49,-6.44,-4.76
729,9554836,0.8632719999999999,0.014762,-0.477142,-0.5075,-6.615,-4.76
730,9554934,0.8624181000000001,0.014396,-0.477508,-0.525,-6.72,-4.76
731,9555032,0.8605879999999999,0.012931999999999999,-0.477996,-0.525,-6.65,-4.7425
732,9555130,0.85888,0.011834,-0.47689799999999993,-0.525,-6.65,-4.76
733,9555228,0.856196,0.012444,-0.47823999999999994,-0.525,-6.545,-4.7425
734,9555326,0.8569280999999999,0.011101999999999999,-0.475922,-0.7175,-6.615,-4.76
735,9555424,0.85705,0.010858,-0.47482399999999997,-0.7175,-6.86,-4.69
736,9555521,0.8569280999999999,0.011468,-0.47518999999999995,-0.7,-6.895,-4.69
737,9555619,0.856562,0.01098,-0.47689799999999993,-0.9275,-6.755,-4.62
738,9555717,0.856562,0.011712,-0.477142,-0.91,-6.5275,-4.655
739,9555815,0.8548540000000001,0.011712,-0.477386,-1.085,-6.23,-4.62
740,9555913,0.8541221,0.011834,-0.47653199999999996,-1.015,-6.2825,-4.4975
741,9556009,0.8548540000000001,0.012322,-0.47677600000000003,-1.0325,-6.09,-4.515
742,9556107,0.85583,0.01281,-0.476166,-1.0325,-5.985,-4.5325
743,9556205,0.8576601,0.014518000000000001,-0.476654,-1.1025,-5.95,-4.48
744,9556303,0.8585139999999999,0.01403,-0.475434,-1.1725,-6.1425,-4.6375
745,9556401,0.8629061,0.013297999999999999,-0.475922,-1.1725,-6.1775,-4.6725
746,9556499,0.8611979999999999,0.013908000000000002,-0.476166,-1.225,-6.055,-4.6375
747,9556597,0.8609540999999999,0.012322,-0.47689799999999993,-1.3475,-6.0725,-4.55
748,9556695,0.8591241,0.011834,-0.47653199999999996,-1.4,-6.23,-4.6375
749,9556793,0.8586360000000001,0.011712,-0.476288,-1.4,-6.16,-4.5675
750,9556890,0.856074,0.012444,-0.476288,-1.26,-6.09,-4.55
751,9556988,0.8552200000000001,0.014152000000000001,-0.476166,-1.1725,-6.09,-4.4975
752,9557086,0.855708,0.015128,-0.47641000000000006,-1.1375,-5.95,-4.515
753,9557184,0.8574161,0.017202000000000002,-0.476288,-1.1375,-5.8975,-4.5675
754,9557282,0.858392,0.016958,-0.47641000000000006,-1.1025,-5.88,-4.62
755,9557380,0.8579041,0.01647,-0.476166,-1.1375,-5.8275,-4.6025
756,9557478,0.8575379999999999,0.016347999999999998,-0.475922,-0.945,-5.7575,-4.62
757,9557576,0.8577819999999999,0.015616,-0.47702,-0.91,-5.635,-4.62
758,9557674,0.856562,0.014762,-0.47958199999999995,-0.9275,-5.53,-4.7425
759,9557772,0.85705,0.015006,-0.477996,-0.8575,-5.355,-4.76
760,9557870,0.8555860999999999,0.014274,-0.47823999999999994,-0.805,-5.39,-4.8125
761,9557968,0.8549761,0.015493999999999999,-0.47653199999999996,-0.7175,-5.3375,-4.8475
762,9558065,0.8574161,0.01708,-0.47555600000000003,-0.56,-5.2675,-4.8475
763,9558163,0.8582700999999999,0.015982,-0.477386,-0.455,-5.3725,-4.7775
764,9558261,0.861808,0.015128,-0.47823999999999994,-0.42,-5.5125,-4.7775
765,9558359,0.8611979999999999,0.01525,-0.480314,-0.4025,-5.46,-4.83
766,9558457,0.8601,0.014152000000000001,-0.47994799999999993,-0.42,-5.18,-4.8825
767,9558555,0.8596120999999999,0.01098,-0.47885,-0.63,-5.2675,-4.8475
768,9558653,0.8596120999999999,0.010492,-0.47982600000000003,-0.7175,-5.6,-4.76
769,9558751,0.85888,0.009028000999999999,-0.479216,-0.8225,-5.6525,-4.76
770,9558849,0.8580260000000001,0.009272001,-0.478728,-0.9625,-5.67,-4.76
771,9558947,0.857294,0.009637999999999999,-0.478484,-1.155,-5.6875,-4.585
772,9559045,0.855708,0.011712,-0.47885,-1.2775,-5.67,-4.445
773,9559142,0.8554641,0.01281,-0.477996,-1.33,-5.6875,-4.2525
774,9559240,0.85583,0.013297999999999999,-0.47958199999999995,-1.33,-5.6175,-4.095
775,9559338,0.855708,0.014274,-0.480314,-1.3125,-5.74,-3.9375
776,9559436,0.856074,0.015738,-0.47885,-1.33,-5.7575,-3.9025
777,9559534,0.856562,0.014518000000000001,-0.48080200000000006,-1.505,-5.74,-3.92
778,9559632,0.857294,0.015128,-0.48068,-1.5225,-5.5125,-4.0425
779,9559730,0.8580260000000001,0.01464,-0.48007,-1.5575,-5.6175,-4.13
780,9559828,0.8555860999999999,0.015982,-0.479704,-1.54,-5.5825,-4.13
781,9559926,0.8576601,0.016592,-0.482388,-1.575,-5.635,-4.13
782,9560023,0.8571719999999999,0.015982,-0.480436,-1.5925,-5.7575,-4.2
783,9560121,0.8574161,0.017812,-0.480558,-1.6975,-5.8975,-4.2525
784,9560219,0.85583,0.016225999999999997,-0.48116800000000004,-1.645,-5.845,-4.34
785,9560317,0.8547319999999999,0.015128,-0.47982600000000003,-1.6625,-5.8275,-4.41
786,9560415,0.8555860999999999,0.015006,-0.480558,-1.575,-5.88,-4.375
787,9560513,0.8546101,0.013663999999999999,-0.480314,-1.5575,-5.845,-4.2175
788,9560611,0.8552200000000001,0.015372,-0.48128999999999994,-1.47,-5.7225,-4.27
789,9560709,0.855342,0.015493999999999999,-0.48080200000000006,-1.295,-5.67,-4.3225
790,9560807,0.8577819999999999,0.015128,-0.48092399999999996,-1.2775,-5.81,-4.41
791,9560905,0.85949,0.012565999999999999,-0.480436,-1.3475,-5.81,-4.3925
792,9561003,0.8586360000000001,0.012444,-0.4819,-1.2075,-5.9675,-4.375
793,9561101,0.858392,0.011712,-0.481412,-1.435,-5.9325,-4.3925
794,9561198,0.859002,0.012322,-0.479216,-1.505,-6.09,-4.27
795,9561296,0.859002,0.012322,-0.47958199999999995,-1.505,-6.2475,-4.1825
796,9561394,0.8585139999999999,0.01464,-0.480314,-1.4175,-6.265,-4.1825
797,9561492,0.859856,0.015372,-0.478362,-1.365,-6.265,-4.2525
798,9561590,0.863028,0.017568,-0.47909399999999996,-1.26,-6.5275,-4.2875
799,9561688,0.8647360000000001,0.019642,-0.47982600000000003,-0.9625,-6.615,-4.2875
800,9561786,0.8662001,0.022326,-0.47811800000000004,-0.6475,-6.615,-4.4275
801,9561884,0.865834,0.023912,-0.47860600000000003,-0.2275,-6.545,-4.5675
802,9561982,0.861808,0.025498,-0.48385200000000006,0.07,-6.3875,-4.69
803,9562080,0.8582700999999999,0.024766,-0.48373,0.49,-5.95,-4.935
804,9562178,0.8554641,0.025863999999999998,-0.482266,0.98,-5.635,-5.18
805,9562276,0.8532681000000001,0.02501,-0.48251000000000005,1.365,-5.495,-5.635
806,9562374,0.854244,0.025742,-0.484096,1.785,-5.285,-6.02
807,9562471,0.85339,0.022448,-0.484462,1.8725,-5.11,-6.51
808,9562569,0.8491200000000001,0.01769,-0.483608,1.6275,-4.76,-6.7025
809,9562667,0.844484,0.010736,-0.48385200000000006,1.0675,-4.69,-6.79
810,9562765,0.8460700999999999,0.005002,-0.487512,0.455,-4.8825,-6.7725
811,9562863,0.8460700999999999,0.00122,-0.484828,-0.2275,-4.9875,-6.79
812,9562961,0.8466800999999999,0.000244,-0.48495,-0.5075,-5.3375,-6.3525
813,9563059,0.84729,0.00183,-0.48592609999999997,-0.6825,-5.53,-5.81
814,9563157,0.850218,0.0051240009999999996,-0.489098,-0.805,-5.6875,-5.25
815,9563255,0.8519260000000001,0.00793,-0.49105,-0.9625,-5.6875,-4.655
816,9563353,0.855708,0.006344,-0.493856,-1.26,-6.0025,-4.0425
817,9563450,0.8579041,0.00549,-0.49532,-1.6975,-6.51,-3.5875
818,9563548,0.8616860000000001,0.004148001,-0.49532,-2.1175,-7.105,-3.255
819,9563646,0.8642481,0.005734,-0.494832,-2.45,-7.945,-2.9225
820,9563744,0.8669319999999999,0.006954000000000001,-0.4933681,-2.7125,-8.8375,-2.7125
821,9563842,0.868762,0.005734,-0.48873199999999994,-3.1325,-9.59,-2.485
822,9563940,0.868396,0.008418,-0.48739,-3.465,-10.08,-2.4325
823,9564038,0.865956,0.009637999999999999,-0.485072,-3.7625,-10.64,-2.38
824,9564136,0.8609540999999999,0.011834,-0.484706,-4.0425,-11.1125,-2.3625
825,9564234,0.85705,0.01525,-0.48543800000000004,-4.0775,-11.3225,-2.31
826,9564332,0.8522921,0.017568,-0.484096,-4.0775,-11.3575,-2.24
827,9564430,0.849242,0.0183,-0.48531599999999997,-4.025,-11.305,-2.0825
828,9564527,0.8460700999999999,0.01891,-0.484706,-3.8325,-11.305,-2.205
829,9564625,0.8458261,0.019642,-0.48568199999999995,-3.64,-11.1475,-2.2925
830,9564723,0.846802,0.019764,-0.486048,-3.43,-10.9375,-2.38
831,9564821,0.8471681000000001,0.020008,-0.48495,-3.2375,-10.6575,-2.59
832,9564919,0.849852,0.018422,-0.48556000000000005,-3.0275,-10.1675,-2.7475
833,9565017,0.8504620999999999,0.017202000000000002,-0.48556000000000005,-2.87,-9.8525,-2.905
834,9565115,0.85034,0.017812,-0.48568199999999995,-2.625,-9.52,-3.29
835,9565213,0.8499741,0.019275999999999998,-0.486658,-2.3625,-9.1875,-3.43
836,9565311,0.8480221,0.020374,-0.48592609999999997,-2.0475,-8.9075,-3.64
837,9565409,0.84546,0.021472,-0.485804,-1.645,-8.715,-3.7975
838,9565507,0.8457040000000001,0.019032,-0.48568199999999995,-1.3475,-8.61,-3.92
839,9565604,0.8453381,0.017568,-0.48433999999999994,-1.225,-8.3125,-4.06
840,9565702,0.8461921,0.014274,-0.48617,-1.1025,-7.9975,-4.1825
841,9565800,0.847046,0.013175999999999998,-0.487634,-1.1025,-7.875,-4.3925
842,9565898,0.847412,0.014274,-0.489342,-0.9625,-7.6825,-4.585
843,9565996,0.8487540000000001,0.014884,-0.48995200000000005,-0.7525,-7.6825,-4.375
844,9566094,0.8504620999999999,0.015372,-0.492758,-0.6475,-7.7525,-4.2875
845,9566192,0.8516819999999999,0.013786000000000001,-0.493246,-0.595,-7.7175,-4.2175
846,9566290,0.8513161,0.011468,-0.49349,-0.63,-7.7525,-4.305
847,9566388,0.850096,0.010736,-0.49446599999999996,-0.6125,-7.77,-4.13
848,9566486,0.8488761,0.011346,-0.49446599999999996,-0.7175,-7.6125,-4.025
849,9566584,0.8476561,0.012444,-0.494832,-0.77,-7.56,-4.0075
850,9566682,0.847046,0.011224,-0.49446599999999996,-0.9275,-7.5425,-3.9375
851,9566779,0.8466800999999999,0.011224,-0.49580799999999997,-0.91,-7.3675,-3.8325
852,9566877,0.849242,0.010736,-0.497638,-0.9625,-7.0875,-3.9025
853,9566975,0.8524139999999999,0.009637999999999999,-0.49861400000000006,-0.98,-6.685,-3.9725
854,9567073,0.8597341000000001,0.007442,-0.500688,-0.805,-6.3175,-4.095
855,9567171,0.8642481,0.008174001,-0.5012979999999999,-0.525,-5.985,-4.2175
856,9567269,0.8698601,0.006587999999999999,-0.503738,-0.1225,-5.6525,-4.3225
857,9567367,0.8820601,0.000488,-0.51789,0.0175,-4.8825,-4.305
858,9567465,0.862784,-0.005246,-0.512278,0.805,-4.585,-4.1825
859,9567563,0.8461921,-0.0051240009999999996,-0.518012,1.9425,-4.1825,-3.3075
860,9567661,0.853024,-0.009882,-0.530212,2.625,-3.7975,-2.3275
861,9567758,0.8514379999999999,-0.022692,-0.5321640000000001,3.4125,-4.9,-1.3825
862,9567856,0.844606,-0.035013999999999997,-0.545462,5.495,-6.2125,-0.21
863,9567954,0.8402139999999999,-0.045384,-0.555954,8.19,-7.175,0.98
864,9568052,0.8263060999999999,-0.05453401,-0.5594920999999999,10.6225,-8.5225,2.415
865,9568150,0.8289901,-0.052216,-0.5769380999999999,11.6725,-9.1875,3.78
866,9568248,0.8314301,-0.034892,-0.571814,11.41,-9.835,4.4625
867,9568346,0.798734,-0.002562,-0.5514399999999999,10.2375,-12.11,4.41
868,9568444,0.7500560000000001,0.008784,-0.49898000000000003,8.96,-14.6125,3.57
869,9568542,0.71614,-0.008662000999999999,-0.42016800000000004,6.8425,-12.7225,2.3625
870,9568640,0.7021101,-0.046726,-0.339038,5.075,-7.8925,1.085
871,9568738,0.6980841,-0.094672,-0.276086,2.17,-4.515,-0.35
872,9568835,0.72163,-0.148352,-0.236314,-4.55,-3.6575,-2.0125
873,9568933,0.786778,-0.22496799999999997,-0.221796,-13.265,-4.2,-3.1675
874,9569031,0.8703481,-0.31049,-0.242902,-22.4175,-5.7575,-3.64
875,9569129,0.925126,-0.317932,-0.262544,-30.52,-3.5525,-5.495
876,9569227,0.9623360999999999,-0.258884,-0.247416,-34.475,1.12,-8.9075
877,9569325,1.007476,-0.192638,-0.24461,-36.05,4.4975,-10.675
878,9569423,1.043954,-0.13664,-0.230946,-37.905,6.195,-9.485
879,9569521,1.065792,-0.13237000000000002,-0.242536,-42.1575,7.665,-4.7425
880,9569619,1.045418,-0.167506,-0.27023,-48.16,8.5925,0.0
881,9569717,0.9790501,-0.195444,-0.29792399999999997,-51.555,6.545,0.875
882,9569815,0.9006040999999999,-0.16226,-0.33684200000000003,-50.5575,3.99,-2.5025
883,9569912,0.834968,-0.101992,-0.411872,-48.23,1.715,-7.4725
884,9570010,0.8026380999999999,-0.026474,-0.443958,-47.4075,-0.98,-13.265
885,9570108,0.774334,-0.003782,-0.523624,-48.125,-3.4825,-17.6925
886,9570206,0.746396,0.03843,-0.559004,-49.0875,-3.955,-19.7225
887,9570304,0.7610359999999999,0.08417999999999999,-0.641842,-51.5025,-5.215,-18.8825
888,9570402,0.82655,0.08625401,-0.75335,-54.2325,-8.9075,-16.345
889,9570500,0.941718,0.153598,-0.8300879999999999,-55.4575,-9.3975,-12.9325
890,9570598,0.9982040000000001,0.338672,-0.785192,-52.465,-5.2675,-4.5675
891,9570696,0.924516,0.40894400000000003,-0.5975560000000001,-47.3725,0.9275,13.4575
892,9570793,0.7951961,0.26047,-0.463722,-42.28,-1.295,37.345
893,9570891,0.6822239999999999,0.13383399999999998,-0.369904,-35.5775,-14.56,52.2025
894,9570989,0.678076,0.066124,-0.335256,-31.465,-23.7825,53.41
895,9571087,0.795806,0.002074,-0.34428400000000003,-29.925,-22.2425,45.955
896,9571185,0.935008,-0.019032,-0.34404,-26.9325,-15.1725,35.105
897,9571283,1.045296,0.017568,-0.373076,-25.34,-10.15,23.0125
898,9571381,1.107394,0.07002799999999999,-0.385642,-25.48,-6.51,10.0275
899,9571479,1.160952,0.15945399999999998,-0.412116,-27.0025,-2.975,-1.9775
900,9571577,1.1920620000000002,0.25607800000000003,-0.43005,-27.3875,-4.165,-9.5025
901,9571675,1.193282,0.297192,-0.42517,-25.2175,-9.135,-12.3375
902,9571772,1.11142,0.279502,-0.411384,-23.24,-12.3025,-13.5275
903,9571870,1.005036,0.252662,-0.412238,-22.3825,-14.7875,-15.925
904,9571968,0.9333,0.236314,-0.411384,-20.37,-15.295,-19.9325
905,9572066,0.8959681,0.215696,-0.41272600000000004,-17.2375,-14.0525,-24.955
906,9572164,0.868396,0.21166999999999997,-0.426634,-14.385,-13.4575,-30.38
907,9572262,0.8632719999999999,0.208986,-0.436638,-11.795,-13.685,-35.2275
908,9572360,0.8520479999999999,0.193492,-0.438224,-8.7325,-13.5275,-37.8175
909,9572458,0.8243541,0.185806,-0.443226,-6.09,-14.4725,-38.0625
910,9572556,0.798124,0.173484,-0.42944,-3.2025,-15.0675,-37.2925
911,9572654,0.769698,0.157136,-0.415288,-0.8925,-13.93,-35.77
912,9572752,0.744444,0.13602999999999998,-0.39894,0.805,-11.97,-34.0725
913,9572849,0.723582,0.11846199999999998,-0.378932,2.1525,-10.57,-32.2175
914,9572947,0.697108,0.09991799999999999,-0.368318,3.36,-9.3975,-29.7675
915,9573045,0.701134,0.086132,-0.34709,4.41,-7.28,-27.1075
916,9573143,0.7241920000000001,0.09625801,-0.348798,4.2,-4.865,-24.22
917,9573241,0.75762,0.11467999999999999,-0.345016,4.2175,-3.22,-21.77
918,9573339,0.791292,0.147498,-0.349286,3.9725,-2.065,-19.74
919,9573437,0.81435,0.163114,-0.34526,4.48,-1.785,-18.06
920,9573535,0.829722,0.15433,-0.329888,5.6875,-1.2075,-15.96
921,9573633,0.8409459999999999,0.126636,-0.310368,7.0525,-1.33,-13.3525
922,9573731,0.85156,0.10919000000000001,-0.298412,7.77,-0.8400001,-11.55
923,9573829,0.871568,0.089426,-0.277062,8.54,-1.8375,-10.0275
924,9573927,0.8869401,0.08357,-0.271938,8.26,-1.68,-8.365
925,9574024,0.8975540000000001,0.08296,-0.257664,8.19,-0.5775,-6.0725
926,9574122,0.9179280000000001,0.090646,-0.25498000000000004,7.77,0.595,-4.4625
927,9574220,0.932934,0.10723800000000001,-0.2501,7.9625,0.9975,-3.15
928,9574318,0.9470860000000001,0.13054000000000002,-0.255102,7.56,0.7875,-1.6275
929,9574416,0.94855,0.149816,-0.255468,8.0325,-0.4375,1.1375
930,9574514,0.957822,0.174948,-0.273768,8.47,-2.1525,3.78
931,9574612,0.97234,0.19983599999999999,-0.287798,10.1675,-3.8675,5.32
932,9574710,0.9784401,0.21411,-0.299754,12.705,-5.9325,6.5275
933,9574808,0.9724620999999999,0.236314,-0.306342,15.82,-9.1,6.72
934,9574906,0.9774639999999999,0.266448,-0.320738,18.2,-11.2,4.69
935,9575004,0.9764879999999999,0.279502,-0.320372,21.595,-12.67,2.6425
936,9575101,0.9745360000000001,0.279624,-0.31049,24.4125,-14.2625,-0.2975
937,9575199,0.9802700000000001,0.281942,-0.299998,25.76,-14.91,-3.15
938,9575297,0.998692,0.24131599999999997,-0.314394,27.265,-15.7325,-4.8825
939,9575395,1.0293139999999998,0.22033200000000003,-0.29377600000000004,31.01,-17.7625,-7.56
940,9575493,1.051762,0.20264200000000002,-0.27938,33.3375,-18.48,-9.0475
941,9575591,1.09312,0.20008,-0.26913200000000004,34.8075,-18.7425,-9.1875
942,9575689,1.138626,0.201422,-0.26156799999999997,35.385,-18.48,-9.3275
943,9575787,1.1746159999999999,0.2013,-0.25363800000000003,37.1175,-18.235,-10.3075
944,9575885,1.199016,0.22204000000000002,-0.21813600000000002,40.5475,-18.5675,-12.425
945,9575983,1.229882,0.253394,-0.25790799999999997,43.855,-17.7975,-14.4725
946,9576081,1.250866,0.34281999999999996,-0.578036,37.205,-21.1575,-17.745
947,9576178,1.25599,0.320494,-0.69357,26.6175,-25.725,-24.045
948,9576276,1.239032,0.14713199999999999,-0.574254,20.02,-20.09,-30.94
949,9576374,1.160464,-0.152988,-0.25046599999999997,22.4875,-9.135,-31.395
950,9576472,1.10166,-0.32391,-0.258274,15.085,-5.39,-25.48
951,9576570,1.0948280000000001,-0.164944,-0.379298,2.52,-16.1875,-27.965
952,9576668,0.9878341,-0.035136,-0.367098,11.445,-24.36,-29.75
953,9576766,0.9651421,0.030866,-0.39967199999999997,18.2875,-17.99,-23.9575
954,9576864,0.953674,0.058072000000000006,-0.457744,17.7975,-18.3925,-21.98
955,9576962,0.89426,0.016836,-0.49556400000000006,23.9925,-26.7575,-20.8425
956,9577060,0.8420440999999999,0.001586,-0.70943,21.07,-35.455,-21.0175
957,9577157,0.8015399999999999,0.04819,-0.799466,21.1925,-42.9975,-22.4
958,9577255,0.784216,-0.0305,-0.696864,29.085,-41.86,-22.2425
959,9577353,0.805932,-0.093086,-0.7077220000000001,29.4175,-42.0875,-25.9875
960,9577451,0.901702,-0.096014,-0.7329760000000001,28.385,-42.805,-36.4175
961,9577549,1.028704,-0.023058000000000002,-0.7211420999999999,27.93,-35.9625,-47.285
962,9577647,1.1004399999999999,0.125172,-0.73017,26.8625,-24.78,-53.1125
963,9577745,1.070306,0.232776,-0.693814,27.7025,-17.045,-47.9675
964,9577843,0.9830760000000001,0.23387399999999997,-0.64904,29.6625,-12.5475,-37.5375
965,9577941,0.86864,0.17397200000000002,-0.628422,28.805,-9.8875,-24.57
966,9578039,0.807396,0.11126400000000002,-0.6084141,28.07,-6.335,-14.35
967,9578137,0.762744,0.064782,-0.6006060000000001,27.7725,0.875,-7.0
968,9578235,0.715896,0.020008,-0.564372,30.31,4.8125,-2.7125
969,9578332,0.667706,-0.010492,-0.517646,33.3375,4.3925,-1.05
970,9578430,0.6201260000000001,-0.002196,-0.47348199999999996,35.6475,3.5875,-0.91
971,9578528,0.562664,0.01952,-0.45018,36.9075,4.585,0.0175
972,9578626,0.520818,0.018056,-0.422364,36.925,5.215,1.5575
973,9578724,0.49580799999999997,0.005002,-0.39711,36.0325,6.4925,1.1725
974,9578822,0.472262,-0.001464,-0.392962,34.1775,9.4325,0.1575
975,9578920,0.48397399999999996,-0.009637999999999999,-0.366244,32.13,11.935,0.28
976,9579018,0.489098,0.012444,-0.367098,29.995,14.84,1.8025
977,9579116,0.48653599999999997,0.016225999999999997,-0.357094,28.0525,15.3125,5.005
978,9579214,0.5130100000000001,0.034648000000000005,-0.35977800000000004,24.9725,14.0525,7.3675
979,9579312,0.576084,-0.006954000000000001,-0.375882,20.615,14.4375,8.4875
980,9579410,0.638304,-0.045506,-0.381372,16.7475,14.5075,9.0125
981,9579508,0.672708,-0.090646,-0.370514,13.895,15.2775,7.2975
982,9579605,0.6883239999999999,-0.11358199999999999,-0.35087199999999996,10.71,17.535,4.13
983,9579703,0.7141881,-0.12285399999999999,-0.35526399999999997,6.9475,21.4375,1.19
984,9579801,0.727364,-0.101992,-0.336964,3.9725,23.9225,0.1575
985,9579899,0.7259001,-0.09028,-0.311832,1.6625,23.3625,1.4175
986,9579997,0.7226060000000001,-0.09089001,-0.29707,-0.4725,24.43,3.885
987,9580095,0.7299260999999999,-0.08820599999999999,-0.265716,-3.8325,26.74,6.1425
988,9580193,0.72651,-0.06771001,-0.195932,-8.82,29.7675,7.3325
989,9580291,0.7171161,-0.05795,-0.183488,-14.0525,35.63,7.6825
990,9580389,0.735904,-0.05246,-0.20447200000000001,-20.23,43.085,6.65
991,9580487,0.749324,-0.07832401,-0.286456,-26.2675,50.12,4.48
992,9580585,0.7692101,0.000732,-0.297802,-32.4975,55.8775,0.735
993,9580682,0.775188,-0.00366,-0.325496,-43.575,62.9475,-6.37
994,9580780,0.833382,-0.03721,-0.48116800000000004,-45.92,64.715,-10.9375
995,9580878,0.8521700999999999,-0.080764,-0.460672,-41.9125,61.425,-13.6325
996,9580976,0.9262239999999999,-0.021106,-0.420778,-36.1725,56.805,-19.2675
997,9581074,1.114104,0.19178399999999998,-0.36197399999999996,-18.76,46.8125,-23.5025
998,9581172,1.303814,0.34562600000000004,-0.27828200000000003,-5.6175,29.7325,-16.765
999,9581270,1.362252,0.3233,-0.177022,-4.305,14.8225,-4.725
1000,9581368,1.314062,0.14688800000000002,-0.086132,-9.695,1.9075,5.5475
1001,9581466,1.350662,-0.10528599999999999,-0.014762,-16.2925,-6.0725,11.0425
1002,9581564,1.46827,-0.34416199999999997,-0.301706,-22.4,-4.8125,12.81
1003,9581662,1.537444,-0.450546,-0.499834,-22.9425,3.675,16.4675
1004,9581760,1.4543620000000002,-0.24997800000000003,-0.520818,-27.7725,18.9525,19.0575
1005,9581858,1.317112,0.152134,-0.615978,-20.965,28.595,24.6225
1006,9581955,1.0346819999999999,0.459818,-0.7107720000000001,-7.8925,24.535,35.07
1007,9582053,0.8283799999999999,0.488,-0.8657120999999999,3.7975,22.33,45.15
1008,9582151,0.66551,0.493978,-0.701012,10.535,18.3925,43.3475
1009,9582249,0.68381,0.359412,-0.7418819999999999,9.6775,17.08,34.86
1010,9582347,0.766892,0.19459,-0.60024,22.05,4.9,32.8825
1011,9582445,0.8510719999999999,0.09784401,-0.576816,14.805,-6.405,35.175
1012,9582543,0.9318360000000001,-0.11846199999999998,-0.639524,3.7975,-19.7575,43.12
1013,9582641,1.050664,-0.22728600000000002,-0.7721380999999999,-13.3,-34.685,52.255
1014,9582739,1.0979999999999999,-0.269986,-0.797392,-29.8725,-50.6625,61.53
1015,9582837,1.15473,-0.33794,-0.8210601000000001,-33.215,-57.0325,71.365
1016,9582935,1.230492,-0.41455600000000004,-0.775188,-29.7325,-49.035,74.7075
1017,9583033,1.3024719999999999,-0.36002199999999995,-0.758596,-24.4825,-26.985,65.5725
1018,9583131,1.335046,-0.2074,-0.69357,-17.22,-11.27,47.39
1019,9583228,1.2334200000000002,-0.024766,-0.6517241,-12.705,-8.015,27.265
1020,9583326,1.051396,0.07490801,-0.5697399999999999,-9.1525,-13.475,13.1775
1021,9583424,0.8884040000000001,0.119926,-0.50325,-8.89,-16.555,1.54
1022,9583522,0.7427361,0.13115,-0.45566999999999996,-10.3775,-15.82,-9.3975
1023,9583620,0.622322,0.130906,-0.395402,-11.4625,-16.485,-18.0775
1024,9583718,0.553392,0.122976,-0.365634,-14.035,-14.455,-24.535
1025,9583816,0.5422899999999999,0.10687200000000001,-0.346968,-17.255,-11.9175,-28.7525
1026,9583914,0.467138,0.099552,-0.338062,-19.39,-11.8825,-30.8875
1027,9584012,0.463844,0.111752,-0.303292,-21.0,-14.315,-31.325
1028,9584110,0.465308,0.07344400000000001,-0.30402399999999996,-22.3475,-12.74,-28.6825
1029,9584208,0.484706,0.021472,-0.282552,-21.21,-11.3225,-25.445
1030,9584306,0.5139859999999999,-0.01769,-0.27694,-19.74,-6.3875,-22.8375
1031,9584404,0.562542,-0.0244,-0.277672,-17.2375,-1.6975,-22.155
1032,9584501,0.6252501,-0.030744,-0.266692,-13.895,-0.945,-21.98
1033,9584599,0.6463561,-0.021106,-0.260226,-12.145,-1.7675,-21.945
1034,9584697,0.651846,-0.0032939999999999996,-0.24522,-11.585,-2.975,-21.91
1035,9584795,0.6481859999999999,0.01403,-0.232654,-12.7925,-2.205,-19.67
1036,9584893,0.659898,0.043554,-0.23680199999999998,-14.805,-1.575,-15.505
1037,9584991,0.662338,0.045994,-0.231068,-15.3825,-2.7825,-10.465
1038,9585089,0.6466,0.048922,-0.21838000000000002,-15.68,-1.9775,-4.5325
1039,9585187,0.636474,0.049044,-0.194102,-14.1925,0.245,1.4875
1040,9585285,0.6694140000000001,0.065148,-0.192638,-13.265,4.3925,6.1075
1041,9585383,0.708088,0.08576601,-0.164212,-11.3925,10.85,9.695
1042,9585481,0.7551800000000001,0.111874,-0.148596,-8.2775,22.2075,12.7575
1043,9585579,0.8215481,0.15701400000000001,-0.182268,-5.425,36.785,15.5225
1044,9585676,0.8973101000000001,0.188612,-0.281088,-1.4175,45.3075,17.815
1045,9585774,0.9873460999999999,0.13480999999999999,-0.33318200000000003,1.75,45.115,18.97
1046,9585872,1.070794,0.06795401,-0.378322,6.3875,45.08,18.48
1047,9585970,1.096048,0.036112,-0.41553199999999996,8.3825,48.7025,17.01
1048,9586068,1.0249219999999999,0.045994,-0.37746799999999997,5.075,52.2725,14.07
1049,9586166,0.8625401,0.091744,-0.263642,-5.705,50.2425,14.595
1050,9586264,0.9547720999999999,-0.078446,-0.163846,-21.6825,37.4675,15.2775
1051,9586362,1.271362,-0.24888000000000002,-0.22411399999999998,-43.7675,18.55,8.855
1052,9586460,1.4743700000000002,-0.20923000000000003,-0.211792,-51.135,-7.8225,-4.025
1053,9586558,1.4945,-0.046604,-0.066978,-34.2825,-27.755,-11.27
1054,9586656,1.5098719999999999,0.25790799999999997,0.007442,-15.0325,-18.2525,-8.925
1055,9586753,1.6165,0.5039819999999999,-0.50935,-15.8725,7.7525,-4.9525
1056,9586851,1.500356,0.39528,-0.660874,-15.75,7.3675,-12.9325
1057,9586949,1.248304,0.032086,-0.46933400000000003,-2.2225,1.7325,-27.5625
1058,9587047,0.8677860000000001,-0.191174,-0.34892,20.335,14.385,-33.3025
1059,9587145,0.7190681,-0.09577000000000001,-0.628788,13.2475,19.6525,-32.5675
1060,9587243,0.724436,0.07234600000000001,-0.758596,8.7675,5.6875,-41.3
1061,9587341,0.801296,-0.118584,-0.733708,8.015,-4.2175,-46.095
1062,9587439,0.665632,-0.313418,-0.4636,19.495,-16.485,-41.9475
1063,9587537,0.673196,-0.020008,-0.5653481,18.06,-28.1925,-43.2425
1064,9587635,0.9840521000000001,0.271206,-0.7836061,6.65,-39.935,-64.6625
1065,9587733,1.126914,0.19397999999999999,-0.767746,15.8025,-44.1175,-79.17
1066,9587830,1.235982,0.18361,-0.768844,15.715,-46.3225,-92.0325
1067,9587928,1.300032,0.273402,-0.8479,13.2475,-39.3225,-95.6375
1068,9588026,1.330776,0.32452,-0.83265,6.4925,-29.6625,-85.015
1069,9588124,1.4062940000000002,0.23741199999999998,-0.699914,9.45,-25.9175,-65.7475
1070,9588222,1.387262,0.06892999999999999,-0.6767340000000001,11.7075,-18.8475,-42.875
1071,9588320,1.247328,-0.08100801,-0.582428,15.4525,-17.64,-24.4475
1072,9588418,1.093852,-0.10687200000000001,-0.504714,16.59,-18.1125,-10.6925
1073,9588516,0.94855,-0.09040201,-0.44115200000000004,14.9625,-13.23,1.8375
1074,9588614,0.8322841000000001,-0.075396,-0.407114,12.5475,-10.7275,11.9875
1075,9588712,0.721874,-0.07710399999999999,-0.36539,10.255,-10.8325,19.495
1076,9588810,0.616344,-0.094062,-0.30927,7.1225,-9.45,23.905
1077,9588908,0.533018,-0.12566,-0.282674,2.5725,-4.515,25.06
1078,9589005,0.463966,-0.16165,-0.254004,0.6825,-1.435,24.5525
1079,9589103,0.49227,-0.12761199999999998,-0.23741199999999998,-0.0175,0.4375,23.7125
1080,9589201,0.5132541,-0.09455001,-0.25217399999999995,-0.875,6.895,24.3775
1081,9589299,0.5058121,-0.045872,-0.24522,0.245,9.135,23.975
1082,9589397,0.526918,0.014396,-0.215696,0.875,7.9625,22.2425
1083,9589495,0.566812,0.069906,-0.20788800000000002,0.6125,8.6275,20.37
1084,9589593,0.5997520000000001,0.08857201,-0.209718,-0.035,6.7025,18.8475
1085,9589691,0.608536,0.072102,-0.20630199999999999,0.1925,2.135,16.8525
1086,9589789,0.607194,0.071614,-0.17568,-0.14,-3.0625,12.04
1087,9589887,0.612684,0.05124001,-0.165798,-0.5775,-5.4425,5.18
1088,9589985,0.61793,0.030866,-0.154696,-0.3675,-7.945,-2.1525
1089,9590083,0.632814,0.019032,-0.132858,-0.42,-10.3425,-8.9775
1090,9590180,0.660874,-0.025376,-0.131394,-1.6625,-9.9225,-14.5425
1091,9590278,0.7076001000000001,-0.081496,-0.172874,-3.255,-9.8525,-18.3925
1092,9590376,0.7854361,-0.14213,-0.23521599999999998,-7.07,-9.485,-20.9475
1093,9590474,0.832406,-0.148474,-0.22496799999999997,-15.7675,-5.3375,-21.4025
1094,9590572,0.8508280999999999,-0.135542,-0.228994,-25.795,4.0075,-22.085
1095,9590670,0.868274,-0.093086,-0.27571999999999997,-35.2625,14.4725,-23.625
1096,9590768,0.891576,-0.064782,-0.281088,-44.625,23.6075,-26.46
1097,9590866,0.940254,-0.06795401,-0.33318200000000003,-49.245,28.28,-27.1775
1098,9590964,0.9774639999999999,-0.083204,-0.5444859999999999,-48.9475,29.3825,-24.325
1099,9591062,0.900848,-0.07112601,-0.480192,-48.23,32.0075,-20.9125
1100,9591160,0.802272,-0.01769,-0.375638,-45.115,36.225,-22.12
1101,9591258,0.87718,0.20105599999999998,-0.276208,-18.935,30.2575,-23.2925
1102,9591355,1.126792,0.411262,-0.197274,8.5225,19.32,-12.7925
1103,9591453,1.345416,0.41199399999999997,-0.090036,24.8675,2.7475,6.5975
1104,9591551,1.44448,0.21655,0.004514,20.93,-14.385,22.5575
1105,9591649,1.587952,-0.08174001,-0.16592,5.705,-26.005,26.215
1106,9591747,1.7676580000000002,-0.288042,-0.39771999999999996,-3.8675,-22.61,17.7625
1107,9591845,1.836344,-0.162504,-0.549122,-14.2975,0.4375,4.305
1108,9591943,1.7003139999999999,0.16348,-0.54595,-13.125,16.2575,2.24
1109,9592041,1.319552,0.350628,-0.49007399999999995,-4.6375,20.9475,15.085
1110,9592139,0.9408639999999999,0.2928,-0.611586,7.8575,21.56,33.0575
1111,9592237,0.7442,0.220942,-0.630984,21.4725,18.3575,45.675
1112,9592335,0.6703899999999999,0.24461,-0.393816,21.385,14.3325,51.765
1113,9592433,0.681126,0.188368,-0.27938,21.315,4.83,50.2425
1114,9592530,0.73017,0.0017079999999999999,-0.46811400000000003,25.655,-5.25,51.3275
1115,9592628,0.744566,-0.22935999999999998,-0.578158,16.3625,-19.9675,53.62
1116,9592726,0.780922,-0.295362,-0.715164,-1.435,-27.475,51.7125
1117,9592824,0.8857200999999999,-0.173728,-0.753594,-15.12,-35.28,50.89
1118,9592922,0.9201241,-0.066978,-0.688812,-22.3125,-52.2025,55.3
1119,9593020,0.9638,-0.03355,-0.723338,-21.2625,-57.2775,62.405
1120,9593118,1.1631479999999998,-0.0061,-0.68503,-17.29,-51.345,65.94
1121,9593216,1.37921,0.008662000999999999,-0.650748,-8.89,-38.465,62.7725
1122,9593314,1.464854,0.052582000000000004,-0.6319600000000001,-6.055,-25.7075,51.0825
1123,9593412,1.366278,0.020618,-0.5815739999999999,-2.5725,-26.495,34.86
1124,9593510,1.1509479999999999,0.008052001,-0.520574,2.135,-33.39,16.7125
1125,9593608,0.97783,0.015616,-0.47043199999999996,4.3225,-31.2725,-2.065
1126,9593706,0.850096,0.020618,-0.423706,3.885,-23.485,-18.8475
1127,9593803,0.7391979999999999,0.023912,-0.39771999999999996,1.26,-17.255,-31.0625
1128,9593901,0.627812,0.004636001,-0.363804,-1.19,-12.88,-37.4675
1129,9593999,0.579012,0.032695999999999996,-0.311344,-4.1825,-10.675,-39.6025
1130,9594097,0.500444,0.040504000000000005,-0.278404,-7.9275,-7.2275,-38.8675
1131,9594195,0.478362,0.062220000000000004,-0.24778200000000003,-11.6375,-8.19,-35.0875
1132,9594293,0.466528,0.042822000000000006,-0.240096,-15.7325,-9.2225,-31.7275
1133,9594391,0.47397,0.013054,-0.228872,-18.305,-10.3425,-29.6975
1134,9594489,0.5077640999999999,-0.006954000000000001,-0.22204000000000002,-18.095,-11.2,-28.595
1135,9594587,0.546804,-0.003782,-0.222406,-15.8725,-10.9375,-28.4725
1136,9594685,0.5946279999999999,0.0034159999999999998,-0.21752600000000002,-12.5475,-11.025,-28.245
1137,9594783,0.6390359999999999,0.016225999999999997,-0.200934,-9.835,-10.045,-27.9125
1138,9594880,0.6581899999999999,0.060267999999999995,-0.18873399999999999,-9.415,-8.9775,-27.44
1139,9594978,0.668072,0.09040201,-0.197762,-10.22,-8.435,-23.9925
1140,9595076,0.70821,0.11943800000000002,-0.19032000000000002,-10.535,-8.1725,-18.48
1141,9595174,0.7141881,0.11529,-0.21093800000000001,-10.99,-7.91,-11.305
1142,9595272,0.7138220000000001,0.10321199999999998,-0.196176,-9.485,-11.2,-4.2
1143,9595370,0.71187,0.06356201,-0.167994,-7.7875,-13.86,2.065
1144,9595468,0.7376119999999999,0.0305,-0.161894,-6.0375,-13.8075,7.6475
1145,9595566,0.792756,0.03538,-0.161772,-3.745,-11.27,9.765
1146,9595664,0.8403360000000001,0.07637200000000001,-0.157868,1.89,-3.185,9.9225
1147,9595762,0.8998719999999999,0.106994,-0.21594000000000002,6.685,11.2,9.0475
1148,9595860,0.93086,0.127978,-0.251564,11.3575,26.4775,8.9775
1149,9595958,0.9797819999999999,0.12139000000000001,-0.264984,16.8,34.3175,8.3825
1150,9596055,1.028338,0.08637601,-0.393084,16.2225,37.94,7.84
1151,9596153,1.054324,0.058803999999999995,-0.42748800000000003,14.8575,39.515,6.5625
1152,9596251,0.9616040000000001,0.09345201,-0.35746,14.0,39.375,5.7225
1153,9596349,0.8371639999999999,0.11943800000000002,-0.226798,4.095,37.8525,6.615
1154,9596447,0.9575780999999999,-0.09979600000000001,-0.11358199999999999,-12.74,26.985,7.49
1155,9596545,1.2069459999999999,-0.230458,-0.183976,-34.7025,5.7925,0.5775
1156,9596643,1.335412,-0.16909200000000002,-0.122,-39.4975,-20.2825,-13.1075
1157,9596741,1.359568,0.07978801,-0.10723800000000001,-25.76,-34.1425,-20.58
1158,9596839,1.5135319999999999,0.48080200000000006,-0.434564,-24.5525,-22.785,-19.9675
1159,9596937,1.5997860000000002,0.42443800000000004,-0.551562,-14.875,-3.8675,-18.5325
1160,9597035,1.483276,0.0244,-0.609268,-8.54,2.205,-22.295
1161,9597133,1.106296,-0.256688,-0.346358,12.635,4.5675,-24.6575
1162,9597231,0.916464,0.011712,-0.748592,4.5325,16.31,-28.175
1163,9597328,0.8912100000000001,0.079666,-0.7165060000000001,1.9775,4.0075,-39.445
1164,9597426,0.805566,-0.103334,-0.5198421,13.5275,-2.0825,-43.855
1165,9597524,0.8033701,-0.153476,-0.6679501,11.34,-2.5025,-44.38
1166,9597622,0.7999539999999999,0.162992,-0.660752,16.4675,-25.095,-55.4575
1167,9597720,0.9250040999999999,0.21228000000000002,-0.702476,30.31,-39.0075,-67.0425
1168,9597818,1.036634,0.155916,-0.761158,27.965,-38.3425,-75.7925
1169,9597916,1.139114,0.181658,-0.714676,30.1,-47.5475,-90.66751
1170,9598014,1.1920620000000002,0.25315,-0.8271601000000001,27.755,-50.5925,-96.1625
1171,9598112,1.285636,0.230336,-0.792512,20.615,-45.64,-90.07251
1172,9598210,1.401902,0.16201600000000002,-0.72163,16.17,-35.875,-75.6175
1173,9598308,1.3766479999999999,-0.036356,-0.6844201,18.5675,-27.44,-53.095
1174,9598406,1.21024,-0.162382,-0.6157341,20.965,-27.16,-34.1425
1175,9598504,1.026874,-0.14347200000000002,-0.525576,22.12,-25.13,-21.98
1176,9598601,0.888648,-0.083204,-0.475312,21.84,-17.57,-9.275
1177,9598699,0.78873,-0.041236,-0.423584,21.5425,-12.8975,4.13
1178,9598797,0.676856,-0.009150001,-0.379664,20.545,-9.66,14.8225
1179,9598895,0.572912,-0.003782,-0.325252,19.1275,-7.4025,19.74
1180,9598993,0.49959,-0.041236,-0.287798,16.94,-6.0025,20.16
1181,9599091,0.45457200000000003,-0.079056,-0.27889200000000003,14.21,-3.5,18.3925
1182,9599189,0.49593000000000004,-0.085156,-0.254858,14.0175,-3.255,15.8025
1183,9599287,0.545218,-0.069174,-0.25254,14.0525,-0.42,15.505
1184,9599385,0.551928,-0.058803999999999995,-0.268522,13.1075,3.465,16.59
1185,9599483,0.553636,-0.011468,-0.241194,11.7775,-0.245,15.365
1186,9599581,0.5826720000000001,0.046116000000000004,-0.221308,8.785,-2.3625,14.0
1187,9599679,0.5988979999999999,0.028182,-0.22630999999999998,5.8275,-2.8,15.9075
1188,9599777,0.593164,-0.037942000000000004,-0.219478,4.585,-4.62,16.31
1189,9599875,0.582184,-0.055754,-0.208254,2.2225,-6.475,13.1425
1190,9599972,0.594262,-0.079422,-0.183732,-0.28,-10.1325,7.77
1191,9600070,0.612074,-0.08723001,-0.158844,-1.8375,-12.81,0.6475
1192,9600168,0.6463561,-0.090158,-0.130174,-2.8875,-12.9675,-6.7025
1193,9600266,0.698328,-0.102846,-0.11870599999999999,-5.2325,-12.25,-13.09
1194,9600364,0.7747001,-0.129686,-0.14566800000000002,-7.28,-11.7075,-17.325
1195,9600462,0.8546101,-0.161772,-0.10809200000000001,-10.325,-8.4175,-18.6375
1196,9600560,0.9087780000000001,-0.17629,-0.11529,-19.1975,-3.815,-19.11
1197,9600658,0.9368380999999999,-0.15494000000000002,-0.177998,-26.6525,-3.15,-19.81
1198,9600756,0.9638,-0.102724,-0.28462600000000005,-34.09,-0.665,-20.7375
1199,9600854,0.9971059999999999,-0.024888,-0.26766799999999996,-43.8725,7.0,-24.2375
1200,9600952,1.002718,0.030987999999999998,-0.45506,-51.94,13.1075,-27.1075
1201,9601050,0.9830760000000001,-0.036478,-0.619272,-52.5,18.5675,-26.9325
1202,9601148,0.8294780999999999,-0.06075601,-0.7068681,-53.0775,30.4325,-25.8825
1203,9601245,0.677344,0.06270801,-0.546072,-39.34,35.8925,-31.5525
1204,9601343,0.7317560000000001,0.35831399999999997,-0.203862,-15.155,28.1225,-35.5075
1205,9601441,1.0232139999999998,0.601704,-0.08759601,13.265,9.5375,-25.0075
1206,9601539,1.2141440000000001,0.47482399999999997,0.049532,38.71,-18.3225,-1.7675
1207,9601637,1.329312,0.176534,0.026595999999999998,28.5075,-32.4275,15.4525
1208,9601735,1.507554,-0.223992,-0.28328400000000004,9.5375,-23.415,20.2475
1209,9601833,1.7028759999999998,-0.31402800000000003,-0.54778,-2.6425,5.4775,12.6
1210,9601931,1.8231680000000001,-0.100406,-0.6823461,0.2975,25.725,4.9875
1211,9602029,1.6570040000000001,0.318786,-0.7017439999999999,9.1875,26.8275,3.7275
1212,9602127,1.2846600000000001,0.429684,-0.7327321,16.6775,20.37,9.6075
1213,9602225,0.9080459999999999,0.33428,-0.7854361,28.63,12.845,18.6725
1214,9602323,0.7315119999999999,0.32208000000000003,-0.511424,30.9225,13.965,25.06
1215,9602421,0.669292,0.258396,-0.590724,31.29,15.8725,29.5575
1216,9602519,0.72956,0.00366,-0.66368,45.64,1.015,38.57
1217,9602617,0.7589621,-0.14005599999999999,-0.683932,30.6075,-12.39,42.7875
1218,9602714,0.8624181000000001,-0.15274400000000002,-0.765062,14.735,-19.4775,45.0275
1219,9602812,0.9181720999999999,-0.12175599999999999,-0.74664,2.2575,-39.1825,51.8875
1220,9602910,0.9259799999999999,-0.1342,-0.786656,-8.225,-55.475,60.7775
1221,9603008,1.016504,-0.163602,-0.79056,-9.065,-60.2175,70.2975
1222,9603106,1.126792,-0.142862,-0.7317560000000001,-7.42,-53.06,73.16751
1223,9603204,1.23769,-0.07808001,-0.696986,-3.3775,-40.2675,66.92
1224,9603302,1.268434,0.011224,-0.6517241,-0.63,-31.115,53.2525
1225,9603400,1.175592,0.02745,-0.5696180000000001,2.45,-31.0275,38.2025
1226,9603498,1.007476,0.024644,-0.5030060000000001,3.5,-32.34,22.6275
1227,9603596,0.8893800999999999,0.02501,-0.45811,4.0425,-30.695,7.4025
1228,9603694,0.7531061,0.022082,-0.42138809999999993,2.485,-26.4425,-5.2325
1229,9603792,0.623786,0.011468,-0.390888,-0.21,-21.7,-13.3875
1230,9603890,0.563396,0.015128,-0.35441,-2.6075,-15.68,-18.41
1231,9603988,0.502518,0.042456,-0.345138,-4.305,-10.22,-19.775
1232,9604086,0.42321800000000004,0.063196,-0.321592,-4.9525,-9.415,-20.8075
1233,9604184,0.429806,0.08601,-0.268278,-4.6025,-11.1475,-20.5975
1234,9604281,0.451034,0.10797000000000001,-0.275598,-6.7725,-8.61,-19.425
1235,9604379,0.49044,0.102114,-0.268644,-7.175,-6.0375,-19.53
1236,9604477,0.5103260000000001,0.074298,-0.271938,-6.79,-4.6025,-20.1425
1237,9604575,0.550586,0.07564,-0.265472,-4.41,-3.815,-22.4525
1238,9604673,0.59841,0.062586,-0.265594,-2.0125,-3.2375,-23.975
1239,9604771,0.6319600000000001,0.044774,-0.260348,0.035,-2.59,-24.5175
1240,9604869,0.6484300999999999,0.038918,-0.260836,1.015,-2.73,-24.1675
1241,9604967,0.674294,0.068564,-0.2562,2.3975,-4.9175,-21.56
1242,9605065,0.6985720999999999,0.08869401,-0.285846,3.15,-6.965,-17.15
1243,9605163,0.7105279999999999,0.10187,-0.276574,6.58,-10.3425,-11.3925
1244,9605261,0.7166279999999999,0.08601,-0.258884,9.695,-12.9675,-3.64
1245,9605359,0.720776,0.05209400000000001,-0.25656599999999996,11.55,-13.615,4.2875
1246,9605457,0.756888,0.012931999999999999,-0.25058800000000003,16.135,-15.015,9.9225
1247,9605555,0.840458,0.035868000000000004,-0.27510999999999997,19.495,-14.4375,12.2675
1248,9605653,0.8851100000000001,0.035258,-0.230336,23.7125,-5.9675,12.775
1249,9605751,0.8918200000000001,0.042578,-0.23253200000000002,24.6225,8.3825,13.1775
1250,9605849,0.8921860999999999,0.041236,-0.178608,26.88,21.035,12.6175
1251,9605947,0.889624,0.040748,-0.158722,28.0875,31.36,13.755
1252,9606045,0.9608721,0.033794,-0.27999,20.5975,32.62,13.9125
1253,9606142,1.014308,-0.033306,-0.32757,15.82,26.3375,12.11
1254,9606240,1.035292,-0.061610000000000005,-0.312686,15.47,25.06,10.22
1255,9606338,1.0382200000000001,-0.024156,-0.30487800000000004,9.625,32.3925,9.765
1256,9606436,1.07055,0.033306,-0.26766799999999996,-1.05,32.6725,8.68
1257,9606534,1.217316,-0.06039,-0.303048,-19.32,19.25,5.32
1258,9606632,1.4095879999999998,-0.15579400000000002,-0.26596,-30.1875,0.4025,-3.6575
1259,9606730,1.491084,-0.13115,-0.203374,-27.7375,-16.31,-12.1625
1260,9606828,1.461804,0.066856,-0.21667199999999998,-13.16,-24.9725,-13.1425
1261,9606926,1.47498,0.34111199999999997,-0.509228,-8.9425,-16.8525,-10.85
1262,9607024,1.3979979999999999,0.331352,-0.44713,-0.665,-5.005,-14.4725
1263,9607122,1.219878,0.160918,-0.5827939999999999,-4.41,0.1925,-26.18
1264,9607220,0.9526979999999999,-0.09028,-0.436638,7.42,2.6425,-36.1025
1265,9607318,0.7617681,-0.100406,-0.6688041,5.67,8.68,-36.12
1266,9607416,0.756278,-0.071492,-0.8664440000000001,-9.345,5.495,-39.655
1267,9607513,0.705282,-0.272914,-0.6292760000000001,-6.1775,-5.8975,-42.0
1268,9607611,0.668926,-0.48080200000000006,-0.531554,-8.9775,-9.6425,-38.0275
1269,9607709,0.657702,-0.250954,-0.501054,-13.7375,-18.27,-38.6225
1270,9607807,0.784094,0.001098,-0.478484,-3.43,-31.115,-46.165
1271,9607905,1.029802,0.158356,-0.759938,-1.2425,-32.2175,-59.29
1272,9608003,1.19682,0.22362600000000002,-0.7687221,2.38,-35.2275,-76.09000999999999
1273,9608101,1.23525,0.288896,-0.793488,8.05,-36.9425,-78.575
1274,9608199,1.2547700000000002,0.323056,-0.8616860000000001,-1.9075,-31.1325,-70.98001
1275,9608297,1.295274,0.20069,-0.7549359999999999,-6.685,-29.435,-55.4225
1276,9608395,1.303692,-0.017934000000000002,-0.689422,-8.015,-27.2475,-38.92
1277,9608493,1.18035,-0.207644,-0.634644,-6.4925,-20.0025,-25.0775
1278,9608591,1.03883,-0.19642,-0.580354,-6.7375,-17.5,-17.7625
1279,9608689,0.9311040999999999,-0.072102,-0.531188,-3.6575,-13.02,-10.1325
1280,9608787,0.826428,0.02257,-0.494954,-2.205,-7.595,1.365
1281,9608884,0.7226060000000001,0.09479401,-0.44066400000000006,-1.2075,-7.245,12.635
1282,9608982,0.63989,0.12468399999999999,-0.395768,-1.3475,-7.0875,19.6175
1283,9609080,0.568764,0.077592,-0.346968,-1.5925,-5.7925,23.38
1284,9609178,0.5193541,-0.011468,-0.324276,-2.24,-3.7625,24.9375
1285,9609276,0.50935,-0.068076,-0.302438,-3.0275,-2.4325,24.6925
1286,9609374,0.5058121,-0.08369201,-0.279014,-4.0775,-3.29,23.73
1287,9609472,0.5382640000000001,-0.087474,-0.267912,-4.725,-2.9225,23.835
1288,9609570,0.558638,-0.070882,-0.273524,-5.775,-0.665,23.9925
1289,9609668,0.6010939999999999,-0.038918,-0.262666,-6.3875,0.7875,23.555
1290,9609766,0.634156,-0.03416,-0.285968,-7.4025,4.3225,22.015
1291,9609864,0.621346,-0.02501,-0.256444,-7.8225,0.6825,19.2325
1292,9609962,0.582062,-0.019154,-0.239608,-8.995,-3.605,14.5075
1293,9610060,0.5697399999999999,-0.023424,-0.225456,-10.5875,-4.725,10.15
1294,9610158,0.579622,-0.005856,-0.205936,-12.04,-7.1925,5.2325
1295,9610256,0.6001181,0.006954000000000001,-0.191418,-14.525,-8.4525,0.5425
1296,9610354,0.654408,0.017934000000000002,-0.188246,-17.465,-7.91,-4.41
1297,9610452,0.696376,0.01281,-0.186538,-20.9825,-6.37,-7.595
1298,9610549,0.754448,0.005612,-0.18544000000000002,-25.305,-3.5525,-8.8725
1299,9610647,0.822524,-0.05209400000000001,-0.22496799999999997,-29.4525,0.8400001,-10.6575
1300,9610745,0.835456,-0.040260000000000004,-0.196298,-31.29,8.68,-11.3925
1301,9610843,0.8298440999999999,-0.06892999999999999,-0.197518,-34.6325,18.97,-13.3
1302,9610941,0.8546101,-0.076616,-0.266448,-36.8725,24.71,-14.8575
1303,9611039,0.9195141,-0.06600201,-0.366732,-38.115,27.3525,-19.11
1304,9611137,0.96014,-0.0034159999999999998,-0.46908999999999995,-36.365,28.2625,-23.52
1305,9611235,0.9325680000000001,0.055754,-0.47275,-37.1875,32.6025,-28.56
1306,9611333,0.8851100000000001,0.07600599999999999,-0.5172800999999999,-29.2425,37.52,-32.375
1307,9611431,0.8893800999999999,0.13151600000000002,-0.386374,-11.305,37.275,-33.11
1308,9611529,1.1295979999999999,0.374296,-0.197762,2.52,29.645,-29.54
1309,9611627,1.389702,0.41577600000000003,-0.12065799999999999,18.6375,9.695,-14.315
1310,9611725,1.48901,0.180316,-0.024156,23.8875,-20.79,6.3175
1311,9611823,1.508408,-0.057584,-0.05843801,3.01,-37.03,13.7725
1312,9611921,1.5603799999999999,-0.358558,-0.29487399999999997,-18.655,-34.9475,10.325
1313,9612019,1.555988,-0.380396,-0.48739,-30.24,-16.9925,3.465
1314,9612117,1.431792,-0.21886799999999998,-0.5734,-27.4925,5.4775,1.8025
1315,9612214,1.2425700000000002,0.129076,-0.49141599999999996,-14.665,18.515,9.5375
1316,9612312,0.9999121,0.315614,-0.5247221,-10.92,29.54,25.1125
1317,9612410,0.8438741,0.39284,-0.628544,1.12,31.185,39.5325
1318,9612508,0.6967420999999999,0.42199799999999993,-0.460916,9.5375,23.625,47.495
1319,9612606,0.7047939999999999,0.354288,-0.5127659999999999,7.42,15.0675,46.515
1320,9612704,0.79971,0.104432,-0.5948720000000001,10.5525,8.19,44.065
1321,9612802,0.8607100000000001,0.070638,-0.651358,2.5375,0.105,41.965
1322,9612900,0.930006,0.05612,-0.705404,-1.6975,-12.39,39.2875
1323,9612998,1.008086,0.060512,-0.7631101,-7.9625,-30.45,41.44
1324,9613096,1.108614,0.07039400000000001,-0.7951961,-18.34,-44.485,45.185
1325,9613194,1.150216,0.058682000000000005,-0.81679,-13.1425,-50.575,51.485
1326,9613292,1.21451,0.053191999999999996,-0.7622561,-3.6925,-48.5275,55.5975
1327,9613390,1.255868,0.06649,-0.7062579999999999,0.1575,-35.1575,52.22
1328,9613487,1.220122,0.08918200000000001,-0.676856,2.5725,-26.3725,41.2825
1329,9613585,1.099708,0.034038,-0.60268,2.6075,-29.96,27.1775
1330,9613683,0.9740479999999999,0.0017079999999999999,-0.5391180999999999,0.07,-33.5475,11.655
1331,9613781,0.8967,-0.012078,-0.480314,-1.365,-32.3925,-3.78
1332,9613879,0.813862,-0.026595999999999998,-0.43907799999999997,-2.5025,-30.6075,-17.6925
1333,9613977,0.726754,-0.039528,-0.398086,-3.78,-29.3475,-27.1425
1334,9614075,0.616588,-0.030256,-0.363194,-5.5125,-23.835,-31.465
1335,9614173,0.543876,-0.00671,-0.331108,-8.9075,-14.7175,-32.0775
1336,9614271,0.47763,0.04331,-0.312808,-11.13,-8.855,-28.665
1337,9614369,0.47811800000000004,0.059658,-0.29365399999999997,-12.775,-9.625,-25.235
1338,9614467,0.49105,0.06527000000000001,-0.291824,-14.175,-10.9025,-22.015
1339,9614565,0.492392,0.07893401,-0.274378,-14.2275,-11.8825,-20.09
1340,9614663,0.5058121,0.08564401,-0.264984,-12.6175,-13.7375,-18.6025
1341,9614761,0.530456,0.078446,-0.25058800000000003,-10.955,-14.8575,-17.9375
1342,9614858,0.545462,0.08466801,-0.247538,-10.2725,-13.3525,-18.4275
1343,9614956,0.5815739999999999,0.053801999999999996,-0.23240999999999998,-9.905,-11.62,-17.465
1344,9615054,0.613904,0.04087,-0.235094,-10.0975,-8.855,-15.8025
1345,9615152,0.6290319999999999,0.047336,-0.223992,-9.6425,-7.385,-13.5275
1346,9615250,0.651968,0.052338,-0.21142600000000003,-9.1,-6.9125,-9.975
1347,9615348,0.679784,0.042212,-0.199714,-9.7475,-7.0875,-4.0775
1348,9615446,0.68625,0.024156,-0.18788,-10.4825,-8.0675,2.5375
1349,9615544,0.707356,0.01098,-0.150792,-10.29,-6.72,8.645
1350,9615642,0.709064,0.005002,-0.14688800000000002,-10.1675,-1.75,14.42
1351,9615740,0.781898,0.0427,-0.124074,-8.47,4.2,17.92
1352,9615838,0.8624181000000001,0.11467999999999999,-0.152866,-7.14,11.8475,19.5475
1353,9615936,0.9331780000000001,0.183732,-0.24717199999999998,-4.48,15.2425,21.455
1354,9616034,1.0321200000000001,0.191662,-0.30353600000000003,-1.3475,14.945,24.465
1355,9616132,1.087142,0.149694,-0.351238,4.865,17.7625,27.895
1356,9616230,1.161074,0.077592,-0.45383999999999997,7.8925,24.115,28.3325
1357,9616328,1.17303,0.026595999999999998,-0.475434,10.99,32.445,25.7425
1358,9616426,1.0620100000000001,0.05160601,-0.41553199999999996,9.205,42.385,23.135
1359,9616524,0.8629061,0.046238,-0.223504,1.715,43.2425,23.205
1360,9616622,0.8866961,-0.15945399999999998,-0.071858,-14.665,30.59,20.195
1361,9616719,1.126792,-0.202032,-0.12456199999999999,-41.6675,14.14,3.535
1362,9616818,1.287344,-0.13237000000000002,-0.052948,-48.86,-11.0075,-13.9825
1363,9616915,1.390922,0.069906,-0.002074,-35.1925,-27.9475,-19.985
1364,9617013,1.509994,0.39345,-0.18727,-23.065,-25.2875,-17.745
1365,9617111,1.6734740000000001,0.552416,-0.48983000000000004,-18.2175,-9.6075,-13.9475
1366,9617209,1.621624,0.387106,-0.571692,-7.8575,0.5425,-16.415
1367,9617307,1.376892,-0.019398,-0.470188,-2.7475,-0.1575,-27.1075
1368,9617405,0.9944221,-0.254492,-0.303048,17.0625,-1.715,-34.44
1369,9617503,0.8480221,-0.081496,-0.6985720999999999,3.71,-1.05,-39.4275
1370,9617601,0.7828741,-0.135664,-0.68137,6.0375,-8.4875,-46.235
1371,9617699,0.727486,-0.268766,-0.652822,8.2425,-10.7275,-44.8525
1372,9617797,0.769088,-0.14871800000000002,-0.76372,-4.725,-17.9725,-46.41
1373,9617895,0.779702,-0.124196,-0.542168,4.5675,-36.8725,-52.675
1374,9617992,0.8664440000000001,-0.12688,-0.665876,8.0675,-41.1075,-54.11
1375,9618090,1.019188,-0.011590000000000001,-0.7187020000000001,7.5075,-49.0,-68.9325
1376,9618188,1.1102,0.123464,-0.784338,19.635,-57.3825,-82.7925
1377,9618286,1.177422,0.255102,-0.8887700000000001,15.26,-56.28,-88.9175
1378,9618384,1.244644,0.273524,-0.796416,14.7525,-45.8675,-82.215
1379,9618482,1.324432,0.235582,-0.7625,11.13,-28.35,-67.9525
1380,9618580,1.255868,0.082716,-0.7007680000000001,12.95,-17.3075,-46.5325
1381,9618678,1.121424,-0.014152000000000001,-0.618784,17.0625,-17.045,-30.4675
1382,9618776,0.9919821,-0.016714,-0.56547,20.4575,-15.365,-20.3175
1383,9618874,0.8662001,0.017446,-0.52704,22.47,-13.5975,-11.8125
1384,9618972,0.7442,0.027206,-0.468236,23.6425,-14.6125,-3.5175
1385,9619070,0.6347661,0.015493999999999999,-0.43639399999999995,22.6625,-11.795,3.29
1386,9619168,0.536678,0.01952,-0.41382399999999997,21.63,-8.19,7.0
1387,9619266,0.45420600000000005,-0.014274,-0.376614,21.14,-6.9125,7.98
1388,9619364,0.416996,-0.054655999999999996,-0.34831,20.79,-6.02,8.225
1389,9619461,0.404796,-0.08064199,-0.336476,20.9475,-5.075,8.9075
1390,9619559,0.414922,-0.07832401,-0.30744,20.9825,-6.475,9.03
1391,9619657,0.459574,-0.049898000000000005,-0.30841599999999997,18.34,-5.425,9.73
1392,9619755,0.523746,-0.03294,-0.320616,14.455,-2.1,10.955
1393,9619853,0.5635180000000001,-0.025131999999999998,-0.308172,12.0225,-1.75,12.985
1394,9619951,0.593286,-0.019275999999999998,-0.301706,9.765,-2.24,13.79
1395,9620049,0.6231760999999999,-0.022326,-0.300242,7.5425,-1.9075,12.53
1396,9620147,0.62647,-0.04867801,-0.28548,6.615,-1.9075,9.905
1397,9620245,0.624396,-0.043676,-0.279258,4.9875,-1.82,5.7225
1398,9620343,0.649894,-0.019398,-0.263154,3.115,-1.0325,-0.2625
1399,9620441,0.693692,0.005612,-0.245098,1.3125,-0.595,-6.195
1400,9620539,0.745664,0.005612,-0.229848,-0.2975,-0.07,-11.0775
1401,9620637,0.805566,-0.006954000000000001,-0.22057600000000002,-1.9075,-0.9975,-14.49
1402,9620735,0.887184,-0.0366,-0.22691999999999998,-4.2175,-4.48,-15.575
1403,9620833,0.961482,-0.062341999999999995,-0.185318,-6.72,-6.545,-15.0675
1404,9620931,0.9613601,-0.077714,-0.15677,-10.5875,-4.2875,-14.5075
1405,9621029,0.9378139999999999,-0.08503401,-0.191052,-15.05,1.96,-14.5425
1406,9621127,0.9261021,-0.07612801,-0.219356,-22.12,12.2325,-16.205
1407,9621224,0.9204901,-0.063074,-0.22814,-28.0525,20.2475,-19.8975
1408,9621322,0.9302501,-0.045384,-0.36478,-30.5375,22.12,-22.5575
1409,9621420,0.9247601000000001,-0.061975999999999996,-0.475312,-30.7475,23.2575,-23.1175
1410,9621518,0.8271601000000001,-0.07234600000000001,-0.526674,-31.885,28.7525,-25.1825
1411,9621616,0.752862,-0.025254,-0.45603599999999994,-19.775,31.3775,-29.5575
1412,9621714,0.8463139999999999,0.192882,-0.33623200000000003,-1.2775,28.4025,-31.22
1413,9621812,1.1161780000000001,0.414434,-0.21008400000000002,14.875,18.0775,-23.8875
1414,9621910,1.281244,0.393084,-0.071004,26.2675,-2.555,-5.88
1415,9622008,1.353102,0.19251600000000002,0.02501,20.685,-24.15,8.2425
1416,9622106,1.428986,-0.09638,-0.193858,6.44,-33.9325,12.11
1417,9622204,1.489376,-0.245098,-0.377102,-2.5725,-23.835,7.945
1418,9622302,1.5109700000000001,-0.177754,-0.535824,-6.5975,-0.0875,2.4675
1419,9622400,1.422642,0.051972000000000004,-0.607804,4.5675,10.2025,6.1075
1420,9622498,1.18523,0.260348,-0.6886899999999999,7.1575,17.43,16.2575
1421,9622596,0.940132,0.382348,-0.7895840999999999,15.05,20.1075,27.7375
1422,9622694,0.738344,0.3294,-0.696498,25.5325,14.9625,39.0775
1423,9622792,0.6517241,0.34221,-0.546072,22.4875,10.5525,43.925
1424,9622890,0.7027201,0.189466,-0.5913341,28.98,2.8525,45.0975
1425,9622988,0.767746,0.098332,-0.528382,27.44,-7.7,46.095
1426,9623086,0.860344,-0.104676,-0.654042,14.42,-18.6375,46.3575
1427,9623184,0.968192,-0.194468,-0.7926340000000001,0.3325,-34.72,48.0025
1428,9623282,1.030778,-0.174948,-0.848266,-16.59,-49.7,49.805
1429,9623380,1.073112,-0.15396400000000002,-0.852902,-20.3525,-55.8075,54.3725
1430,9623477,1.108614,-0.16811600000000002,-0.7895840999999999,-14.1225,-50.3125,58.5725
1431,9623575,1.2043840000000001,-0.14493599999999998,-0.744444,-7.6475,-33.4775,57.3825
1432,9623673,1.241838,-0.004392,-0.7143101,-5.565,-18.06,47.6175
1433,9623771,1.185718,0.093086,-0.640256,-3.045,-16.6775,34.125
1434,9623869,1.053348,0.09930800000000001,-0.553026,-1.5225,-20.65,19.5125
1435,9623967,0.9206120000000001,0.08344800000000001,-0.485804,-0.315,-22.3475,4.1125
1436,9624065,0.7954399999999999,0.07490801,-0.42883009999999994,1.2425,-23.275,-10.64
1437,9624163,0.693204,0.06575800000000001,-0.393694,0.28,-22.4875,-22.2425
1438,9624261,0.60695,0.043798000000000004,-0.365512,-1.225,-19.88,-28.945
1439,9624359,0.5221600000000001,0.041358,-0.343308,-2.7825,-16.8,-32.48
1440,9624457,0.47860600000000003,0.077348,-0.327448,-3.43,-13.51,-32.795
1441,9624555,0.434198,0.089792,-0.295484,-4.445,-10.4125,-30.7475
1442,9624653,0.443958,0.090158,-0.265594,-5.3725,-5.8625,-28.77
1443,9624751,0.4933681,0.090768,-0.28914,-6.1425,-1.4175,-27.2475
1444,9624849,0.539362,0.071614,-0.28914,-4.3225,-4.6725,-26.1975
1445,9624947,0.570106,0.035502,-0.267912,-1.75,-9.87,-25.795
1446,9625045,0.594384,-0.004514,-0.252662,-1.3125,-9.24,-25.515
1447,9625143,0.643428,-0.017324000000000003,-0.23240999999999998,-1.12,-7.735,-25.2175
1448,9625241,0.68747,-0.030256,-0.23363,-1.5575,-6.3175,-22.05
1449,9625338,0.715164,-0.027206,-0.219478,-2.38,-5.4075,-18.165
1450,9625436,0.7217521,-0.023302,-0.21581799999999998,-3.675,-3.7975,-11.9875
1451,9625534,0.7195560000000001,-0.03294,-0.196908,-4.0425,-2.5725,-3.7975
1452,9625632,0.70089,-0.028792,-0.164212,-4.7425,-1.645,5.075
1453,9625730,0.695034,-0.004148001,-0.156526,-6.65,0.0875,13.0375
1454,9625828,0.712114,0.035136,-0.182756,-8.68,2.5025,18.725
1455,9625926,0.7409060000000001,0.09394001,-0.191418,-8.5925,7.35,21.84
1456,9626024,0.806908,0.131638,-0.21313400000000002,-5.1975,14.595,23.2925
1457,9626122,0.8587581,0.186904,-0.25681,0.735,21.525,24.57
1458,9626220,0.9385460999999999,0.21374400000000002,-0.356606,4.725,26.565,26.04
1459,9626318,1.009306,0.163236,-0.398574,8.2425,28.9975,27.3175
1460,9626416,1.093974,0.07869,-0.453596,10.36,27.7025,26.4425
1461,9626514,1.13094,0.027083999999999997,-0.46042799999999995,9.9575,31.6225,23.66
1462,9626612,1.0279719999999999,0.03904,-0.42602399999999996,4.235,41.755,22.085
1463,9626710,0.850584,0.014152000000000001,-0.24351199999999998,-5.6525,39.7775,22.015
1464,9626807,0.90036,-0.191662,-0.09089001,-21.3325,22.3825,19.775
1465,9626905,1.133868,-0.255834,-0.144326,-43.4525,1.295,8.54
1466,9627003,1.330288,-0.18666,-0.098332,-48.405,-19.4775,-7.2275
1467,9627101,1.4360620000000002,0.040016,-0.038551999999999996,-34.965,-31.08,-16.59
1468,9627199,1.56221,0.443104,-0.37246599999999996,-25.6725,-15.155,-16.1875
1469,9627297,1.668106,0.46762600000000004,-0.48263199999999995,-20.51,-1.54,-15.3825
1470,9627395,1.588806,0.24717199999999998,-0.674416,-18.795,-6.9825,-21.42
1471,9627493,1.277828,-0.107848,-0.5221600000000001,-6.4575,-10.6225,-31.08
1472,9627591,0.944524,-0.23155599999999998,-0.534116,7.1575,0.3675,-34.2475
1473,9627689,0.8563181000000001,-0.15725799999999998,-0.7409060000000001,-1.5225,2.2225,-39.5675
1474,9627787,0.798734,-0.220088,-0.605486,2.31,-2.6775,-46.8125
1475,9627885,0.7361481,-0.254492,-0.544608,4.5325,-5.285,-47.2675
1476,9627983,0.743468,0.046482,-0.724436,1.8025,-13.7725,-50.785
1477,9628081,0.835334,0.14896199999999998,-0.7021101,7.98,-23.8875,-57.5575
1478,9628179,0.8824261,0.11358199999999999,-0.7442,14.5775,-30.7475,-59.605
1479,9628276,0.9646541,0.159576,-0.7801899999999999,13.3875,-40.4075,-68.1275
1480,9628374,1.037244,0.172508,-0.815814,16.66,-46.41,-74.1475
1481,9628472,1.172908,0.166408,-0.857294,7.945,-45.99,-74.1475
1482,9628570,1.312354,0.09882,-0.80886,4.235,-39.1475,-67.6725
1483,9628668,1.38897,0.047824,-0.769698,6.58,-29.68,-57.575
1484,9628766,1.29869,-0.027327999999999998,-0.7217521,8.5225,-22.82,-42.6825
1485,9628864,1.10776,-0.072102,-0.6201260000000001,12.3025,-20.615,-28.4725
1486,9628962,0.9567241,-0.050508,-0.54961,13.965,-19.2325,-16.6775
1487,9629060,0.8102020000000001,-0.03477,-0.5011760000000001,13.475,-15.2425,-2.9575
1488,9629158,0.70699,-0.029768,-0.44835,12.215,-13.3525,8.5575
1489,9629256,0.604876,-0.018178,-0.40882199999999996,10.815,-13.4225,15.1725
1490,9629354,0.5296021,-0.025376,-0.35782600000000003,8.96,-12.0575,17.6225
1491,9629452,0.41846000000000005,-0.07991000000000001,-0.33623200000000003,6.4225,-7.2275,18.34
1492,9629550,0.432978,-0.103578,-0.31012399999999996,4.305,-5.9325,17.535
1493,9629648,0.4697,-0.09869801,-0.305732,3.395,-1.295,18.2875
1494,9629745,0.503494,-0.11053199999999999,-0.317932,2.8525,3.99,17.1675
1495,9629843,0.517524,-0.06490399999999999,-0.30256,2.835,5.3025,16.66
1496,9629941,0.540582,-0.02806,-0.29707,1.5925,3.71,16.625
1497,9630039,0.531798,-0.00061,-0.274866,-0.28,1.9775,17.325
1498,9630137,0.549366,-0.004758,-0.270108,-2.0475,2.695,17.745
1499,9630235,0.5736441,-0.011956,-0.261324,-2.7825,3.115,17.08
1500,9630333,0.5927979999999999,-0.001586,-0.255468,-3.08,-0.77,13.86
1501,9630431,0.60573,0.00427,-0.229238,-3.71,-4.795,8.89
1502,9630529,0.632814,0.006954000000000001,-0.205326,-3.6925,-4.4975,2.7125
1503,9630627,0.6734399999999999,-0.01098,-0.199714,-3.2725,-1.6625,-3.9725
1504,9630725,0.7168720000000001,-0.041236,-0.197152,-3.4475,-0.56,-9.695
1505,9630823,0.7631101,-0.06344,-0.192394,-5.3375,-2.5725,-14.7
1506,9630921,0.8359440999999999,-0.132858,-0.209108,-10.5525,-2.1875,-18.0775
1507,9631018,0.898408,-0.128344,-0.208864,-16.345,2.1,-20.265
1508,9631116,0.9092661,-0.106628,-0.235582,-23.5375,8.26,-21.7525
1509,9631214,0.8985301,-0.06636801,-0.287432,-31.6225,16.135,-23.5375
1510,9631312,0.924882,-0.050142,-0.34111199999999997,-36.6975,24.675,-26.7575
1511,9631410,0.984296,-0.015982,-0.45152200000000003,-37.2225,28.3675,-30.0825
1512,9631508,1.00345,0.028669999999999998,-0.499712,-34.4225,29.5575,-32.235
1513,9631606,0.9126820999999999,0.097966,-0.487634,-35.385,34.3175,-35.91
1514,9631704,0.835456,0.156648,-0.44029799999999997,-25.165,35.735,-39.4975
1515,9631802,0.85644,0.24888000000000002,-0.29072600000000004,-0.07,28.56,-34.9475
1516,9631900,1.105198,0.403454,-0.19580999999999998,21.7525,20.125,-23.5375
1517,9631998,1.279658,0.372954,-0.08918200000000001,35.0,6.72,-6.09
1518,9632096,1.349442,0.15128,0.011224,31.1325,-12.74,7.63
1519,9632194,1.43777,-0.10418800000000002,0.015982,16.835,-27.7725,10.4125
1520,9632292,1.530856,-0.381616,-0.276208,0.63,-29.7675,4.7075
1521,9632390,1.6651779999999998,-0.387472,-0.518134,-5.8625,-13.02,-4.6375
1522,9632487,1.527318,-0.13908,-0.557296,-8.085,3.99,-5.4075
1523,9632585,1.21573,0.19032000000000002,-0.484584,-7.2975,11.41,5.46
1524,9632683,0.892918,0.287432,-0.48824399999999996,-7.595,15.1375,22.015
1525,9632781,0.7208981,0.220088,-0.6511140000000001,0.0,16.2225,37.87
1526,9632879,0.661728,0.314882,-0.645502,3.1675,16.7125,45.7975
1527,9632977,0.6974739999999999,0.420534,-0.6484300999999999,4.095,13.6675,45.255
1528,9633075,0.8103239999999999,0.214598,-0.65941,17.185,2.065,47.2675
1529,9633173,0.8524139999999999,0.13480999999999999,-0.599264,14.3325,-11.165,48.7725
1530,9633271,0.9237841,0.029646,-0.69662,6.3875,-16.66,48.79
1531,9633369,0.9724620999999999,-0.05246,-0.764696,-0.665,-32.515,53.2175
1532,9633467,1.0147959999999998,-0.099552,-0.8182541,-15.0325,-46.6725,57.47
1533,9633565,1.030656,-0.127368,-0.8516819999999999,-14.735,-52.7975,64.26
1534,9633663,1.08092,-0.119926,-0.747128,-7.9275,-49.77,66.045
1535,9633761,1.186816,-0.09259801,-0.717238,-1.3475,-34.615,60.9175
1536,9633859,1.261846,0.001586,-0.710284,1.47,-22.4875,47.775
1537,9633956,1.2106059999999998,0.018178,-0.6489180999999999,4.9875,-22.6975,31.8325
1538,9634054,1.087874,0.032086,-0.581696,8.015,-25.3925,14.0875
1539,9634152,0.9598959999999999,0.044652,-0.524112,9.5725,-24.43,-3.9025
1540,9634250,0.826672,0.06112201,-0.48433999999999994,10.4125,-23.6425,-19.5475
1541,9634348,0.69357,0.06941801,-0.448838,10.43,-24.2025,-30.275
1542,9634446,0.618784,0.08369201,-0.406748,10.08,-23.1175,-36.6975
1543,9634544,0.55205,0.074054,-0.377712,8.89,-17.9725,-37.8
1544,9634642,0.497882,0.08296,-0.36807399999999996,8.05,-13.4575,-34.93
1545,9634740,0.488976,0.091988,-0.34111199999999997,7.245,-14.0525,-32.2525
1546,9634838,0.478362,0.082472,-0.31585799999999997,5.985,-16.31,-31.0275
1547,9634936,0.5063,0.07076001,-0.295362,3.115,-15.6625,-30.45
1548,9635034,0.49898000000000003,0.050263999999999996,-0.29219,0.5075,-11.3925,-29.19
1549,9635132,0.511302,0.031354,-0.271572,-0.14,-9.8175,-28.0525
1550,9635230,0.545462,-0.000366,-0.269986,-0.5075,-9.2925,-27.335
1551,9635328,0.59048,-0.013175999999999998,-0.260714,-1.295,-9.87,-27.0025
1552,9635426,0.6289100000000001,-0.018544,-0.251442,-1.855,-9.205,-26.0225
1553,9635523,0.6579461,-0.014518000000000001,-0.242292,-1.6625,-8.155,-23.2225
1554,9635621,0.6709999999999999,-0.012931999999999999,-0.23680199999999998,-1.9775,-8.015,-18.3925
1555,9635719,0.6977180000000001,-0.016592,-0.22716399999999998,-3.29,-7.3325,-11.865
1556,9635817,0.707234,-0.025863999999999998,-0.235704,-5.425,-7.1575,-4.0425
1557,9635915,0.7391979999999999,-0.01281,-0.22362600000000002,-6.2825,-8.9075,2.9575
1558,9636013,0.775798,0.004636001,-0.234118,-6.1075,-8.9775,10.255
1559,9636111,0.822524,0.05795,-0.255956,-3.64,-9.8875,15.2075
1560,9636209,0.8714459999999999,0.095038,-0.23387399999999997,0.7525,-11.2,17.955
1561,9636307,0.9289081,0.111142,-0.195688,5.425,-6.5625,19.7925
1562,9636405,0.9415959999999999,0.127246,-0.21472,8.7325,3.9375,21.105
1563,9636503,0.957822,0.145302,-0.306342,8.5225,14.4725,20.545
1564,9636601,0.9761219999999999,0.09577000000000001,-0.27145,9.2225,23.765,19.7225
1565,9636699,0.9934460999999999,0.001098,-0.340136,8.5925,33.53,19.6525
1566,9636797,0.9967401,-0.060877999999999995,-0.417728,4.9525,40.0575,19.1975
1567,9636895,0.9612379999999999,0.015006,-0.388936,1.5225,42.0525,17.4825
1568,9636993,0.857294,0.10223600000000001,-0.267912,-9.3275,38.395,15.54
1569,9637090,0.9056061,-0.015738,-0.182024,-28.2625,24.8325,14.105
1570,9637188,1.154242,-0.182756,-0.21667199999999998,-47.2325,9.555,8.2775
1571,9637286,1.36396,-0.14005599999999999,-0.2074,-53.4275,-8.6275,-4.8825
1572,9637384,1.4295959999999999,0.005978,-0.133346,-38.115,-27.1425,-13.5975
1573,9637482,1.457778,0.299266,-0.30402399999999996,-28.875,-30.52,-12.74
1574,9637580,1.5401280000000002,0.38308000000000003,-0.454816,-27.4225,-11.725,-8.96
1575,9637678,1.511946,0.235582,-0.5343600000000001,-23.9225,-4.7075,-13.79
1576,9637776,1.248792,-0.160796,-0.433832,-13.4575,-9.8175,-25.2175
1577,9637874,0.9178061,-0.156526,-0.45554799999999995,5.985,-5.705,-29.5925
1578,9637972,0.8842561,0.012444,-0.8044680999999999,-2.03,1.47,-35.3325
1579,9638070,0.811056,-0.138348,-0.571692,4.3225,-7.805,-41.2475
1580,9638168,0.771528,-0.160186,-0.719312,-1.47,-7.805,-39.9875
1581,9638266,0.838018,-0.029401999999999998,-0.8113001,-14.5775,-17.92,-46.41
1582,9638364,0.7686,-0.186172,-0.46762600000000004,8.7325,-23.8175,-45.7975
1583,9638461,0.8250860000000001,-0.006222,-0.7357821,4.4975,-19.2675,-47.95
1584,9638559,0.978806,0.183488,-0.7032079999999999,13.7375,-25.83,-62.335
1585,9638657,1.036024,0.24863600000000002,-0.7993439999999999,25.375,-27.0025,-67.9525
1586,9638755,1.172786,0.28975,-0.8256960999999999,21.91,-28.0875,-71.71500999999999
1587,9638853,1.2397639999999999,0.268888,-0.813862,20.6325,-24.255,-65.94
1588,9638951,1.285636,0.17934,-0.75457,19.915,-24.3425,-57.085
1589,9639049,1.244766,0.002806,-0.7044279999999999,21.245,-26.53,-48.2125
1590,9639147,1.124962,-0.09882,-0.6613621000000001,21.8225,-23.1,-39.935
1591,9639245,1.008086,-0.09869801,-0.6145141,21.84,-17.57,-33.88
1592,9639343,0.895358,-0.054778,-0.559004,22.3125,-15.435,-26.2675
1593,9639441,0.765184,-0.021716,-0.5191100000000001,21.8575,-15.085,-16.6775
1594,9639539,0.655628,-0.01525,-0.463966,21.525,-16.3275,-8.05
1595,9639637,0.574986,-0.041358,-0.422486,20.0025,-14.6475,-3.4825
1596,9639735,0.519598,-0.07198,-0.389058,17.2725,-9.345,-1.4875
1597,9639832,0.484462,-0.09455001,-0.374662,15.6275,-5.1975,-1.61
1598,9639930,0.48251000000000005,-0.117486,-0.35563,15.54,-3.7275,-3.1325
1599,9640028,0.5309441,-0.11955999999999999,-0.338916,14.8925,-3.4825,-4.7075
1600,9640126,0.5838920999999999,-0.09125599999999999,-0.34733400000000003,13.545,-0.6125,-5.5475
1601,9640224,0.624396,-0.058682000000000005,-0.341844,11.69,1.4875,-4.7425
1602,9640322,0.63135,-0.05929201,-0.32708200000000004,10.78,2.7825,-4.0075
1603,9640420,0.618174,-0.038551999999999996,-0.295362,10.2725,2.24,-2.73
1604,9640518,0.6396460999999999,-0.018056,-0.273402,9.45,2.4675,-3.1675
1605,9640616,0.646722,-0.00976,-0.25681,7.455,4.8475,-4.76
1606,9640714,0.638792,0.009637999999999999,-0.227652,7.2625,2.24,-8.05
1607,9640812,0.625372,0.033794,-0.20178800000000002,7.525,1.6975,-12.3725
1608,9640910,0.627568,0.041602,-0.180804,8.5925,3.8325,-17.1675
1609,9641008,0.6405,0.029889999999999996,-0.16909200000000002,10.08,3.22,-20.8425
1610,9641105,0.667706,-0.008418,-0.158356,9.1875,2.135,-23.9925
1611,9641203,0.709674,-0.065148,-0.17128800000000002,5.6175,2.765,-26.0925
1612,9641301,0.760792,-0.11760799999999999,-0.179706,1.54,3.71,-27.4925
1613,9641399,0.783972,-0.139812,-0.200446,-5.7225,5.775,-28.735
1614,9641497,0.785802,-0.138958,-0.285602,-15.96,8.995,-30.135
1615,9641595,0.798978,-0.11736400000000001,-0.37685799999999997,-25.795,11.2525,-33.3725
1616,9641693,0.81313,-0.103578,-0.419314,-31.045,13.3175,-36.8025
1617,9641791,0.8341139999999999,-0.06661201,-0.46250209999999997,-33.285,18.41,-40.075
1618,9641889,0.812886,-0.010126000000000001,-0.450668,-34.195,25.9,-42.98
1619,9641987,0.7518859999999999,0.069662,-0.45261999999999997,-33.0575,32.5675,-45.2025
1620,9642085,0.7673800000000001,0.171166,-0.390888,-18.6725,32.375,-45.325
1621,9642183,0.9229299999999999,0.357338,-0.24326799999999998,0.35,22.4175,-39.55
1622,9642281,1.103246,0.460672,-0.129198,15.68,10.6225,-26.74
1623,9642378,1.222318,0.467504,-0.022203999999999998,19.3375,0.595,-13.58
1624,9642476,1.313818,0.26596,0.039406000000000004,10.92,-8.4175,-4.9
1625,9642574,1.488278,-0.071004,-0.193248,0.455,-12.3375,-3.8675
1626,9642672,1.646268,-0.25193000000000004,-0.398696,-1.3125,-6.335,-7.2975
1627,9642770,1.642364,-0.159332,-0.52582,-7.6825,5.9325,-11.1475
1628,9642868,1.479006,0.018178,-0.6497721,-4.9175,10.815,-8.5575
1629,9642966,1.282708,0.150426,-0.798978,1.9775,19.635,2.5025
1630,9643064,1.026386,0.225944,-0.916342,14.7,32.8475,18.9875
1631,9643162,0.8105680000000001,0.335988,-0.8193521,33.67,38.92,33.95
1632,9643260,0.660996,0.369172,-0.6694140000000001,45.395,30.45,42.7
1633,9643358,0.638304,0.199348,-0.593896,57.5575,10.01,44.9225
1634,9643456,0.693814,0.10321199999999998,-0.4743361,52.3075,-2.31,40.005
1635,9643554,0.8030041,-0.027206,-0.582306,38.7975,-8.05,37.1875
1636,9643652,0.92537,-0.170312,-0.733952,27.2125,-25.13,40.67
1637,9643749,0.995886,-0.22777399999999998,-0.7823859999999999,14.5425,-41.51,44.9925
1638,9643847,1.039684,-0.191174,-0.784094,11.2525,-44.205,47.1975
1639,9643945,1.08641,-0.136884,-0.7448100999999999,17.7625,-38.2025,44.765
1640,9644043,1.175958,-0.066734,-0.727974,27.09,-26.6525,35.6825
1641,9644141,1.220488,0.046848,-0.7056479999999999,35.2275,-15.82,23.275
1642,9644239,1.16632,0.15725799999999998,-0.640134,40.2325,-10.2725,9.5375
1643,9644337,1.0499319999999999,0.16530999999999998,-0.584746,43.9425,-8.785,-3.605
1644,9644435,0.9228081,0.12895399999999999,-0.527162,46.69,-10.4825,-17.0625
1645,9644533,0.8091041,0.0976,-0.49349,47.635,-11.83,-31.1675
1646,9644631,0.738222,0.07856801,-0.47482399999999997,47.075,-12.845,-43.155
1647,9644729,0.693204,0.066734,-0.457744,46.41,-13.44,-50.995
