,T,ax,ay,az,gx,gy,gz
0,197243,0.319152,-0.17397200000000002,-0.772016,16.1,-16.485,-16.1525
1,197394,0.347456,-0.16958,-0.84546,36.61,-98.665,-98.54251
2,197490,0.359412,-0.192028,-0.900848,42.49,-172.1125,-168.9975
3,197587,0.35892399999999997,-0.19032000000000002,-0.9015799999999999,48.9475,-140.1575,-62.2475
4,197683,0.35868,-0.19178399999999998,-0.9015799999999999,4.305,-11.585,-6.9475
5,197779,0.359412,-0.193492,-0.902068,1.54,-3.7625,-3.605
6,197875,0.35892399999999997,-0.191296,-0.9028,1.4875,-3.7625,-3.5875
7,197972,0.35868,-0.193248,-0.9018241,1.575,-3.7275,-3.5525
8,198068,0.36087600000000003,-0.192272,-0.9018241,1.5225,-3.7275,-3.57
9,198164,0.3599,-0.193736,-0.902068,1.54,-3.71,-3.4825
10,198260,0.360144,-0.19178399999999998,-0.901336,1.5925,-3.6925,-3.5175
11,198357,0.360632,-0.19178399999999998,-0.902068,1.645,-3.605,-3.4125
12,198453,0.36112,-0.194468,-0.9042641,1.6275,-3.675,-3.465
13,198549,0.360144,-0.193736,-0.9028,1.505,-3.71,-3.4825
14,198645,0.360388,-0.19276,-0.9052401,1.4525,-3.745,-3.5525
15,198742,0.359412,-0.19276,-0.9052401,1.54,-3.675,-3.5175
16,198838,0.360632,-0.191052,-0.9025559999999999,1.54,-3.7625,-3.4825
17,198934,0.360144,-0.191052,-0.90402,1.5575,-3.745,-3.395
18,199030,0.36234,-0.193004,-0.9032879999999999,1.68,-3.6925,-3.5175
19,199127,0.359656,-0.193736,-0.9015799999999999,1.68,-3.605,-3.5175
20,199223,0.360144,-0.19397999999999999,-0.9023121,1.645,-3.6575,-3.5
21,199319,0.3599,-0.191052,-0.903532,1.61,-3.675,-3.5175
22,199416,0.3599,-0.19154000000000002,-0.9037761000000001,1.6625,-3.605,-3.395
23,199512,0.36112,-0.193736,-0.9030440000000001,1.6975,-3.57,-3.4475
24,199608,0.359412,-0.19251600000000002,-0.9059721,1.6975,-3.57,-3.5175
25,199704,0.3599,-0.19154000000000002,-0.903532,1.715,-3.605,-3.4125
26,199801,0.359656,-0.193492,-0.9018241,1.715,-3.5875,-3.4125
27,199897,0.361852,-0.191296,-0.903532,1.7675,-3.57,-3.395
28,199993,0.361608,-0.193736,-0.9028,1.7675,-3.6925,-3.43
29,200089,0.36136399999999996,-0.195444,-0.903532,1.6625,-3.605,-3.4475
30,200186,0.360144,-0.19154000000000002,-0.9028,1.6275,-3.6225,-3.43
31,200282,0.362584,-0.193004,-0.9042641,1.715,-3.6925,-3.43
32,200378,0.360388,-0.191296,-0.90402,1.82,-3.6225,-3.395
33,200475,0.359656,-0.193492,-0.9030440000000001,1.8025,-3.6575,-3.3425
34,200571,0.359412,-0.195444,-0.902068,1.7675,-3.71,-3.36
35,200667,0.35868,-0.192028,-0.9028,1.7325,-3.78,-3.3425
36,200763,0.35746,-0.19251600000000002,-0.9028,1.68,-3.7275,-3.3775
37,200860,0.360388,-0.193004,-0.902068,1.7325,-3.5525,-3.4125
38,200956,0.36087600000000003,-0.190564,-0.90402,1.6975,-3.57,-3.3425
39,201052,0.36087600000000003,-0.193004,-0.902068,1.715,-3.6575,-3.4125
40,201148,0.3599,-0.191052,-0.902068,1.7675,-3.6925,-3.3775
41,201245,0.359656,-0.191052,-0.9030440000000001,1.7675,-3.6575,-3.3075
42,201341,0.360144,-0.192028,-0.902068,1.8025,-3.6575,-3.36
43,201437,0.359412,-0.193492,-0.9018241,1.715,-3.7275,-3.29
44,201533,0.36112,-0.192028,-0.9037761000000001,1.68,-3.6925,-3.2375
45,201630,0.35892399999999997,-0.19251600000000002,-0.9037761000000001,1.7325,-3.6575,-3.2375
46,201726,0.359412,-0.19251600000000002,-0.9018241,1.715,-3.78,-3.36
47,201822,0.3599,-0.193248,-0.9015799999999999,1.61,-3.7275,-3.325
48,201918,0.36112,-0.194224,-0.9025559999999999,1.68,-3.6575,-3.325
49,202015,0.360144,-0.193492,-0.9015799999999999,1.715,-3.78,-3.325
50,202111,0.363804,-0.19154000000000002,-0.9042641,1.6975,-3.745,-3.3075
51,202207,0.360144,-0.191296,-0.9025559999999999,1.75,-3.71,-3.29
52,202303,0.359168,-0.19178399999999998,-0.9018241,1.7325,-3.7275,-3.3075
53,202400,0.361608,-0.195688,-0.902068,1.6625,-3.745,-3.36
54,202496,0.360144,-0.193004,-0.9018241,1.645,-3.85,-3.3425
55,202592,0.359412,-0.190808,-0.903532,1.6275,-3.815,-3.43
56,202688,0.36112,-0.194712,-0.901336,1.5925,-3.7975,-3.36
57,202785,0.359412,-0.19251600000000002,-0.9018241,1.6275,-3.7975,-3.395
58,202881,0.358192,-0.192028,-0.9030440000000001,1.5925,-3.815,-3.3775
59,202977,0.359412,-0.19178399999999998,-0.902068,1.75,-3.6925,-3.395
60,203073,0.359168,-0.19178399999999998,-0.9030440000000001,1.785,-3.5875,-3.43
61,203170,0.359656,-0.193004,-0.904752,1.715,-3.64,-3.325
62,203266,0.360388,-0.192272,-0.902068,1.68,-3.64,-3.36
63,203362,0.357704,-0.19251600000000002,-0.90036,1.6625,-3.605,-3.36
64,203459,0.36136399999999996,-0.194224,-0.901336,1.715,-3.6225,-3.2725
65,203555,0.360144,-0.193004,-0.9010921000000001,1.6975,-3.8325,-3.29
66,203651,0.358192,-0.19154000000000002,-0.901336,1.5925,-3.675,-3.3075
67,203747,0.359168,-0.192028,-0.9015799999999999,1.5225,-3.745,-3.29
68,203844,0.358192,-0.19276,-0.9018241,1.505,-3.745,-3.2375
69,203940,0.359412,-0.19251600000000002,-0.901336,1.5925,-3.8675,-3.3075
70,204036,0.359656,-0.195932,-0.9001161,1.54,-3.8675,-3.3425
71,204133,0.359168,-0.189588,-0.902068,1.54,-3.8325,-3.22
72,204229,0.360144,-0.19276,-0.902068,1.54,-3.9025,-3.185
73,204325,0.3599,-0.19154000000000002,-0.9018241,1.6275,-3.9375,-3.0625
74,204421,0.36136399999999996,-0.194712,-0.9006040999999999,1.68,-3.99,-3.01
75,204518,0.36282800000000004,-0.190076,-0.901336,1.645,-4.0075,-2.905
76,204614,0.361608,-0.189344,-0.9049959999999999,1.7325,-4.0775,-2.73
77,204710,0.362584,-0.192272,-0.9028,1.6975,-4.1125,-2.6075
78,204807,0.36282800000000004,-0.18666,-0.9052401,1.68,-4.025,-2.4675
79,204903,0.36112,-0.1891,-0.9037761000000001,1.8725,-4.025,-2.3975
80,204999,0.363072,-0.194224,-0.9032879999999999,2.1525,-3.9025,-2.205
81,205095,0.35892399999999997,-0.192272,-0.9049959999999999,2.415,-3.7625,-2.205
82,205192,0.354288,-0.198372,-0.8971879999999999,2.415,-3.6925,-2.135
83,205288,0.349408,-0.201544,-0.903532,2.2225,-3.675,-2.45
84,205384,0.353312,-0.203008,-0.8996280999999999,1.9075,-3.6225,-2.905
85,205481,0.358192,-0.196908,-0.899384,1.61,-3.5875,-3.115
86,205577,0.359656,-0.193736,-0.9028,1.33,-3.7275,-3.3075
87,205673,0.357704,-0.194224,-0.9030440000000001,1.295,-3.745,-3.36
88,205769,0.360144,-0.195444,-0.901336,1.33,-3.85,-3.5175
89,205866,0.359168,-0.19251600000000002,-0.902068,1.33,-3.745,-3.5875
90,205962,0.35868,-0.1952,-0.898652,1.2775,-3.9025,-3.5175
91,206058,0.359656,-0.189832,-0.90036,1.2075,-3.9375,-3.465
92,206155,0.35868,-0.1891,-0.9042641,1.2075,-4.025,-3.4125
93,206251,0.35672800000000005,-0.188612,-0.904508,1.82,-3.885,-3.3425
94,206347,0.36136399999999996,-0.194956,-0.9028,2.4675,-3.57,-3.43
95,206444,0.364292,-0.184952,-0.9052401,2.6425,-3.815,-3.57
96,206540,0.36112,-0.21374400000000002,-0.892064,3.045,-4.2525,-3.605
97,206636,0.364536,-0.190808,-0.9025559999999999,2.6075,-4.4975,-3.71
98,206732,0.360144,-0.19178399999999998,-0.9108521,2.765,-4.935,-3.815
99,206829,0.364536,-0.163968,-0.9242720999999999,3.92,-4.7425,-3.7975
100,206925,0.363072,-0.163236,-0.925736,7.5425,-4.0425,-3.3425
101,207021,0.369904,-0.168604,-0.912316,12.1275,-3.1325,-2.7475
102,207118,0.367952,-0.192272,-0.90646,14.6475,-2.695,-1.4875
103,207214,0.36478,-0.217892,-0.898164,14.91,-2.66,-0.9975
104,207310,0.35477600000000004,-0.22423600000000002,-0.8906,13.1775,-2.5375,-0.91
105,207406,0.352092,-0.219356,-0.891576,10.885,-2.4675,-1.2775
106,207503,0.35014,-0.229116,-0.8796200000000001,9.0125,-2.6775,-1.5925
107,207599,0.34404,-0.238144,-0.8786440999999999,7.28,-2.9575,-1.82
108,207695,0.355752,-0.22691999999999998,-0.8869401,4.8475,-3.01,-2.45
109,207792,0.356484,-0.21472,-0.89426,2.7125,-3.64,-2.9575
110,207888,0.355508,-0.200812,-0.901336,1.61,-4.06,-3.115
111,207984,0.357704,-0.196664,-0.8969440000000001,1.505,-4.0425,-3.0975
112,208081,0.363316,-0.205204,-0.8930401,1.7675,-3.9025,-2.8875
113,208177,0.35746,-0.21276799999999998,-0.8913321,1.225,-4.1125,-2.835
114,208273,0.35843600000000003,-0.21106,-0.8906,0.175,-4.27,-3.045
115,208369,0.35843600000000003,-0.22204000000000002,-0.8964561,-0.9975,-4.48,-3.2025
116,208466,0.355996,-0.2196,-0.8969440000000001,-1.75,-4.7075,-3.3775
117,208562,0.359168,-0.20984,-0.8967,-2.17,-4.7425,-3.5175
118,208658,0.358192,-0.21618400000000002,-0.898164,-2.3975,-4.795,-3.675
119,208755,0.35892399999999997,-0.21228000000000002,-0.8962120000000001,-2.73,-4.83,-3.78
120,208851,0.35233600000000004,-0.208132,-0.8935280999999999,-3.2025,-5.11,-3.9375
121,208947,0.35258,-0.213988,-0.8959681,-3.64,-5.18,-4.2
122,209043,0.35892399999999997,-0.20618000000000003,-0.8964561,-4.1825,-5.075,-4.3575
123,209140,0.355752,-0.202764,-0.8962120000000001,-4.27,-5.2675,-4.2875
124,209236,0.346968,-0.203252,-0.897432,-4.5675,-5.215,-4.3575
125,209332,0.345992,-0.20496,-0.8827921000000001,-5.5825,-5.3375,-4.8125
126,209429,0.350628,-0.215696,-0.894748,-6.8425,-5.985,-5.6
127,209525,0.359168,-0.18788,-0.9037761000000001,-8.8025,-6.1075,-6.195
128,209621,0.359168,-0.19154000000000002,-0.9084121,-9.1525,-6.16,-6.2825
129,209718,0.354288,-0.202032,-0.907192,-8.82,-5.81,-6.16
130,209814,0.35477600000000004,-0.194712,-0.907436,-8.68,-5.4075,-6.23
131,209910,0.3538,-0.188124,-0.9115840000000001,-7.7,-4.4625,-6.265
132,210006,0.350628,-0.19178399999999998,-0.9137799999999999,-6.195,-3.22,-6.335
133,210103,0.34477199999999997,-0.181536,-0.9203680000000001,-4.97,-2.345,-6.685
134,210199,0.34477199999999997,-0.194468,-0.9203680000000001,-2.765,-1.4,-7.6475
135,210295,0.349408,-0.193492,-0.916464,-0.7175,0.2275,-8.61
136,210392,0.333304,-0.195444,-0.9262239999999999,0.175,1.995,-8.6625
137,210488,0.324276,-0.212036,-0.9296399999999999,1.5925,5.04,-8.295
138,210584,0.303048,-0.235948,-0.9406200000000001,2.8175,9.52,-8.68
139,210680,0.28304,-0.279868,-0.9613601,4.165,15.3125,-9.9575
140,210777,0.233264,-0.339404,-0.9884440000000001,4.7775,23.555,-13.1775
141,210873,0.22935999999999998,-0.43505200000000005,-1.0004,5.8275,35.49,-19.7225
142,210969,0.306708,-0.10321199999999998,-1.112152,3.5525,52.4125,-29.0325
143,211066,0.293044,-0.14347200000000002,-1.100196,27.6675,67.0075,-49.2275
144,211162,0.326228,-0.214232,-1.106052,45.115,80.745,-65.31
145,211258,0.376736,-0.413092,-1.107272,50.9075,95.41,-76.1075
146,211354,0.345016,-0.504104,-1.11142,48.405,101.29,-90.8075
147,211451,0.296948,-0.5307,-1.136064,35.035,100.8875,-113.8375
148,211547,0.0244,-0.807884,-1.3359,37.4675,91.3325,-135.3625
149,211643,-0.018788,-1.3571280000000001,-1.728984,54.95,71.2425,-138.04
150,211740,-0.115656,-1.622844,-1.748504,45.185,29.925,-122.395
151,211836,-0.8210601000000001,-1.6806720000000002,-1.029436,7.42,-24.5,-95.48
152,211932,-0.760792,-0.998448,-0.8359440999999999,-30.8525,-35.805,-64.925
153,212029,-0.85888,-0.70516,-1.13826,-11.7075,-27.8775,-37.5025
154,212125,-0.9874681000000001,-0.8342360000000001,-1.0243120000000001,42.0525,-46.5325,-10.325
155,212221,-1.079212,-0.8954801,-0.868152,75.7925,-57.3475,12.7225
156,212317,-0.9106081,-0.7834840000000001,-1.037,80.64,-57.2425,27.405
157,212414,-0.791536,-0.577304,-1.14192,80.3075,-61.9675,40.075
158,212510,-0.72468,-0.506788,-1.158024,83.2825,-70.7875,52.605
159,212606,-0.7241920000000001,-0.4392,-1.1033680000000001,83.405,-76.8775,63.665
160,212703,-0.6790520999999999,-0.349408,-1.102636,74.55,-76.16001,71.0675
161,212799,-0.5551,-0.1952,-1.1575360000000001,63.5075,-69.9825,76.65
162,212895,-0.429684,-0.08784,-1.2012120000000002,56.91,-64.1725,81.55001
163,212991,-0.3233,-0.07173600000000001,-1.2334200000000002,53.935,-58.8525,84.28
164,213088,-0.2623,-0.077836,-1.184132,48.72,-54.04,84.4375
165,213184,-0.246196,-0.018056,-1.081896,40.46,-45.0625,81.62001
166,213280,-0.21301199999999998,0.013908000000000002,-1.024556,35.21,-29.015,77.105
167,213377,-0.07686,-0.023424,-1.033828,34.4925,-5.8975,71.5925
168,213473,0.16689600000000002,-0.111752,-1.111908,36.61,18.2875,66.4825
169,213569,0.4553041,-0.21008400000000002,-1.2500120000000001,41.93,35.6125,63.805
170,213665,0.6946681,-0.325496,-1.351516,51.5725,39.4975,66.15
171,213762,0.9298841,-0.46774799999999994,-1.4374040000000001,63.455,32.3925,73.395
172,213858,1.188768,-0.648308,-1.543544,72.8175,16.0125,84.2275
173,213954,1.420568,-0.8030041,-1.506456,72.555,-14.0175,98.3675
174,214050,1.471076,-0.865956,-1.398608,54.6175,-54.5125,113.2425
175,214147,1.289052,-0.815204,-1.1575360000000001,25.305,-93.24,125.895
176,214243,1.0462719999999999,-0.6290319999999999,-0.8091041,-11.2,-119.595,131.32
177,214339,0.9001161,-0.363316,-0.560956,-43.19,-125.755,131.6175
178,214436,0.8369200000000001,-0.16201600000000002,-0.41113999999999995,-60.9,-116.27,130.0775
179,214532,0.9037761000000001,-0.06832001,-0.354044,-65.6775,-97.7375,126.875
180,214628,1.012844,-0.011712,-0.30353600000000003,-65.6075,-78.8025,121.24
181,214724,1.1411879999999999,0.022448,-0.264252,-65.485,-63.6475,112.49
182,214821,1.2341520000000001,0.057339999999999995,-0.182024,-67.6375,-52.08,100.1
183,214917,1.305644,0.12248800000000001,-0.09882,-70.595,-42.1925,82.6525
184,215013,1.413492,0.20178800000000002,-0.061732,-67.9875,-32.1475,60.13
185,215109,1.518412,0.24326799999999998,-0.063928,-55.055,-23.975,34.93
186,215206,1.626016,0.162748,-0.05002,-33.6875,-17.045,10.8325
187,215302,1.617964,0.049532,0.01098,-14.875,-12.985,-11.1475
188,215398,1.584292,-0.015128,0.057584,-5.285,-5.705,-31.605
189,215495,1.577216,-0.038308,0.090768,-2.5025,7.91,-50.4875
190,215591,1.5433,-0.09418401,0.10614000000000001,-3.2025,24.885,-68.8275
191,215687,1.19926,-0.374296,-0.11224,-2.8525,43.75,-87.2375
192,215783,1.049688,-0.5165481,-0.387228,-12.39,59.2725,-99.68
193,215880,-0.5063,-0.9174399999999999,-1.3298,-37.695,68.7575,-115.1325
194,215976,-1.583804,-0.931348,-2.0230040000000002,-65.8525,38.0275,-118.02
195,216072,-0.0976,-1.164856,-1.249768,-20.02,108.29,-78.0325
196,216169,0.457744,-0.48165600000000003,-0.25376,9.6425,136.71,-50.1375
197,216265,1.218048,-0.134688,-0.7427361,-35.0525,153.6675,-50.8025
198,216361,1.20658,-0.5070319999999999,-1.44814,-10.92,153.9825,-34.51
199,216457,1.125572,-0.442616,-1.7592400000000001,0.735,130.795,-12.46
200,216554,0.9564799999999999,0.28938400000000003,-1.54208,-45.6225,102.2,-31.8325
201,216650,0.555588,0.290604,-1.17242,-53.48,60.3925,-52.535
202,216746,0.31232,-0.1159,-0.9562360999999999,-26.9325,38.85,-48.6325
203,216843,0.6378159999999999,-0.648796,-0.987712,-29.7675,34.7725,-49.385
204,216939,0.7427361,-0.659288,-0.9894200000000001,-45.08,18.2525,-43.3475
205,217035,0.516792,-0.144204,-1.06018,-49.2275,0.2975,-29.715
206,217132,0.541924,-0.066856,-1.098488,-33.635,-3.7975,-19.845
207,217228,0.44383599999999995,-0.300852,-0.927932,-11.9,-9.345,-12.74
208,217324,0.41236000000000006,-0.30036399999999996,-0.908168,-2.59,-7.6475,-5.355
209,217420,0.40577199999999997,-0.28914,-0.885476,-0.6825,-5.5125,-2.7825
210,217517,0.393816,-0.332084,-0.87718,0.28,-5.8625,-2.415
211,217613,0.386008,-0.27523200000000003,-0.893284,-1.085,-5.18,-2.275
212,217709,0.393572,-0.234972,-0.8969440000000001,-0.8575,-4.235,-2.1875
213,217806,0.372832,-0.24912399999999998,-0.892552,1.3125,-3.92,-1.5925
214,217902,0.37551599999999996,-0.220088,-0.8954801,3.0975,-3.6575,-1.085
215,217998,0.36966,-0.21447600000000003,-0.8949921000000001,5.005,-2.835,-0.56
216,218094,0.359168,-0.24790399999999999,-0.8840120000000001,6.965,-2.7825,-0.315
217,218191,0.36087600000000003,-0.254004,-0.877668,7.2975,-2.1525,-0.3325
218,218287,0.366976,-0.247416,-0.8810841,7.07,-1.68,-0.2625
219,218383,0.375272,-0.258152,-0.8718120999999999,6.3875,-1.4525,-0.21
220,218480,0.37502800000000003,-0.281088,-0.86864,5.7575,-1.505,-0.14
221,218576,0.357216,-0.285236,-0.8554641,4.3575,-2.5725,-0.735
222,218672,0.36234,-0.30866,-0.8508280999999999,1.47,-3.605,-2.485
223,218768,0.344528,-0.312808,-0.844484,-3.1325,-5.81,-4.445
224,218865,0.362584,-0.301584,-0.8522921,-8.855,-7.945,-7.035
225,218961,0.357948,-0.30402399999999996,-0.865468,-13.2125,-10.185,-8.9775
226,219057,0.354532,-0.27938,-0.8720559999999999,-17.0975,-11.69,-10.6225
227,219154,0.375272,-0.256688,-0.877912,-19.3725,-12.1975,-12.145
228,219250,0.36648800000000004,-0.24936799999999998,-0.883768,-19.25,-13.2475,-13.0725
229,219346,0.367708,-0.21374400000000002,-0.897432,-18.9175,-13.195,-13.545
230,219442,0.346968,-0.24326799999999998,-0.897432,-15.9775,-13.0025,-13.475
231,219539,0.347456,-0.237168,-0.8957241,-14.1925,-11.41,-13.475
232,219635,0.37454,-0.202032,-0.90036,-12.9675,-7.9975,-13.4925
233,219731,0.376492,-0.202276,-0.907192,-10.2025,-6.125,-12.0575
234,219828,0.358192,-0.235948,-0.8957241,-7.175,-5.1275,-10.92
235,219924,0.35746,-0.223504,-0.8996280999999999,-5.8275,-4.725,-10.7625
236,220020,0.36722,-0.23228800000000002,-0.887916,-5.215,-3.9725,-11.095
237,220116,0.353556,-0.220088,-0.8954801,-5.53,-3.4125,-11.375
238,220213,0.34477199999999997,-0.214232,-0.9076799999999999,-4.865,-1.8025,-11.48
239,220309,0.34867600000000004,-0.21472,-0.9140241,-3.7625,2.03,-11.34
240,220405,0.348432,-0.217404,-0.918416,-1.645,5.9325,-11.0075
241,220502,0.3477,-0.213256,-0.9198799999999999,0.7175,10.15,-11.13
242,220598,0.337452,-0.181292,-0.9335440999999999,3.6925,14.735,-11.97
243,220694,0.32452,-0.186904,-0.9450120000000001,9.6775,20.475,-12.95
244,220790,0.327936,-0.20178800000000002,-0.9555040000000001,16.66,28.0,-13.4925
245,220887,0.32256799999999997,-0.19861600000000001,-0.9616040000000001,22.7325,37.4675,-13.405
246,220983,0.312808,-0.205936,-0.976,27.5625,48.8075,-12.635
247,221079,0.315492,-0.203984,-0.9833200000000001,34.3175,61.3725,-12.285
248,221175,0.327448,-0.24326799999999998,-0.9777081,40.3375,76.37001,-10.885
249,221272,0.317444,-0.244488,-0.987712,43.1375,93.695,-8.7675
250,221368,0.306464,-0.284504,-0.9889319999999999,46.6025,112.525,-8.89
251,221464,0.309148,-0.261324,-0.9901521000000001,48.8775,134.225,-11.3575
252,221561,0.29792399999999997,-0.24570799999999998,-0.9977159999999999,52.045,159.4775,-16.485
253,221657,0.262056,-0.239608,-0.9945440000000001,57.19,189.7,-25.4275
254,221753,0.262788,-0.298168,-0.9918600000000001,63.63,225.8725,-36.9075
255,221849,0.185684,-0.36575599999999997,-0.9852719999999999,65.8525,265.09,-51.4675
256,221946,0.181536,-0.398208,-0.951356,62.3875,309.47,-71.645
257,222042,0.212524,-0.354044,-0.9630681000000001,57.1375,360.0975,-96.0925
258,222138,0.223016,-0.48263199999999995,-0.81374,62.5975,417.0775,-119.84
259,222235,0.34648,-0.587796,-0.8364321,72.2925,483.875,-147.5425
260,222331,0.165432,-0.446032,-0.7256560000000001,85.8025,544.3025,-175.385
261,222427,0.8581479999999999,0.14518,-0.41577600000000003,111.965,572.6,-196.0525
262,222523,2.2372360000000002,-0.13078399999999998,-1.387384,200.41,573.405,-177.905
263,222620,2.75232,-1.606008,-1.8461040000000002,330.6625,573.405,-150.2375
264,222716,3.200792,-1.36152,-1.078968,286.0725,573.405,-162.4525
265,222812,3.73686,-0.9706319999999999,-1.8480560000000001,147.5075,536.5675,-188.5625
266,222909,3.302296,-1.659932,-2.04472,113.8375,388.3075,-201.1975
267,223005,3.167608,-2.151348,-2.63764,85.2425,315.875,-249.515
268,223101,1.6499279999999998,-2.31434,-3.251788,8.2425,180.1625,-240.7125
269,223197,1.378844,-2.321904,-3.430884,-92.1375,-57.0675,-158.3925
270,223294,-0.44286000000000003,-1.3163799999999999,-0.319396,-116.1475,-304.78,-81.39251
271,223390,0.363316,-1.236104,-3.181028,-163.835,-244.125,-64.61
272,223486,0.343796,-1.0887280000000001,-2.127192,-38.85,-224.63,-1.8725
273,223583,-1.315404,-0.681736,-0.447496,-120.5925,-428.645,-33.25
274,223679,-1.00406,-0.509228,-0.665144,-75.5125,-349.7375,-25.095
275,223775,-0.438224,-0.40138,-1.0687200000000001,-49.5075,-315.9275,-14.735
276,223871,-0.376492,-0.418704,-0.9032879999999999,-17.8325,-340.2525,-1.365
277,223968,-0.144204,-0.5917,-0.9394,20.6675,-349.44,20.79
278,224064,0.029524,-0.700036,-0.953308,40.67,-365.6625,43.225
279,224160,0.18666,-0.776408,-0.892552,47.2675,-384.5975,64.05
280,224257,0.25376,-0.786656,-0.7854361,44.73,-396.34,82.775
281,224353,0.32452,-0.6878361,-0.7168720000000001,34.86,-399.4375,99.155
282,224449,0.29743600000000003,-0.59658,-0.654408,31.7625,-396.3225,117.915
283,224545,0.36844,-0.5206960999999999,-0.671244,35.42,-384.7725,135.2575
284,224642,0.5489999999999999,-0.53314,-0.777872,38.7275,-368.3925,147.8575
285,224738,0.684176,-0.542168,-0.937448,35.805,-355.32,156.905
286,224834,0.8459479999999999,-0.5185,-1.158268,30.275,-343.1925,162.155
287,224931,1.016748,-0.395768,-1.3947040000000002,25.235,-338.4675,160.125
288,225027,1.074332,-0.274012,-1.504992,35.2975,-343.8225,154.245
289,225123,1.124596,-0.20618000000000003,-1.593076,54.0925,-342.895,144.6725
290,225219,1.1895,-0.233264,-1.605764,75.2675,-335.86,129.5875
291,225316,1.323456,-0.250344,-1.60674,95.9175,-320.11,112.4375
292,225412,1.494256,-0.32818,-1.5006,115.815,-296.3275,95.34
293,225508,1.643584,-0.38552,-1.386408,133.315,-263.2525,86.9925
294,225605,2.0281279999999997,-0.429928,-1.436428,150.71,-218.785,92.90751
295,225701,2.572736,-0.4594521,-1.411052,169.6975,-179.13,116.69
296,225797,3.277652,-0.6380600000000001,-1.35542,185.57,-153.125,154.875
297,225893,4.04064,-0.8261841000000001,-1.1033680000000001,178.1325,-142.1525,199.92
298,225990,4.170692,-0.8039801,-0.515328,126.4725,-156.8,235.2875
299,226086,3.843,-0.5282600000000001,0.13298,40.2325,-172.9175,245.5075
300,226182,3.4940800000000003,0.030987999999999998,0.8274040000000001,-50.12,-158.3575,232.2075
301,226278,3.180052,0.5192319999999999,1.3351680000000001,-101.0975,-119.1225,200.8825
302,226375,3.316204,0.9608721,1.37494,-106.9425,-61.88,163.1
303,226471,3.267404,1.0023520000000001,1.267336,-80.185,-5.985,129.255
304,226567,3.075376,0.8044680999999999,1.0911680000000001,-34.545,28.245,86.27501
305,226664,2.875296,0.456768,0.813496,1.3825,58.5375,53.4975
306,226760,2.548092,0.22252800000000003,0.5063,8.365,87.045,26.565
307,226856,2.35338,-0.762988,0.5753520000000001,0.49,114.8,1.575
308,226952,0.106628,-0.6878361,-0.9028,-57.3475,161.7875,-30.0825
309,227049,-1.782664,-0.775188,-1.900516,-117.4775,132.125,-61.7925
310,227145,-0.17202,0.263764,-1.301496,-112.2625,212.8525,-80.255
311,227241,1.163392,1.285392,-0.332572,-96.21500999999999,257.1975,-88.46251
312,227338,2.04838,0.9972281,-1.268068,-56.9275,276.4475,-95.2875
313,227434,2.5927439999999997,-0.81618,-2.984608,10.01,262.3075,-88.7425
314,227530,3.132472,-1.341024,-2.275788,-69.16,162.085,-114.31
315,227626,-0.16104000000000002,-0.27571999999999997,-0.763476,-140.7,44.24,-97.3525
316,227723,0.912316,0.061488,-1.642608,-105.49,57.225,-62.0725
317,227819,0.8930401,0.345748,-1.37982,-87.4475,31.0975,-46.06
318,227915,0.510936,-0.7032079999999999,-0.807884,-35.9975,-11.725,-34.1075
319,228011,0.576084,-0.252296,-0.9830760000000001,-30.59,-6.405,-15.435
320,228108,0.43724799999999997,-0.030987999999999998,-0.9945440000000001,-25.935,-11.69,-9.73
321,228204,0.413092,-0.25424800000000003,-0.91622,-2.6425,-10.9725,-3.885
322,228300,0.34892,-0.254492,-0.902068,1.19,-9.415,-0.49
323,228397,0.407968,-0.37332,-0.8559521000000001,0.245,-8.61,-1.61
324,228493,0.38674000000000003,-0.33916,-0.8574161,-4.4275,-11.7075,-3.885
325,228589,0.360144,-0.272548,-0.9057280999999999,-9.6775,-15.0675,-7.1225
326,228685,0.36502399999999996,-0.252296,-0.877912,-10.9725,-14.455,-9.415
327,228782,0.35502,-0.25302800000000003,-0.889136,-9.9225,-10.8675,-10.9725
328,228878,0.380396,-0.233996,-0.887916,-8.5225,-8.05,-11.9525
329,228974,0.38918,-0.212036,-0.902068,-8.4875,-6.965,-11.8825
330,229070,0.381372,-0.254492,-0.8962120000000001,-8.5225,-7.105,-11.235
331,229167,0.392108,-0.276208,-0.877424,-9.905,-8.26,-12.1975
332,229263,0.396988,-0.257176,-0.8791321,-13.51,-9.835,-13.685
333,229359,0.368684,-0.241804,-0.8910879999999999,-16.1175,-11.445,-14.5775
334,229456,0.379664,-0.259372,-0.8764481,-14.945,-11.8125,-14.84
335,229552,0.356484,-0.24522,-0.887916,-14.8575,-10.99,-15.4875
336,229648,0.366,-0.22277199999999997,-0.887184,-13.5275,-10.2025,-16.1175
337,229744,0.36966,-0.14274,-0.9093880999999999,-14.315,-7.07,-16.38
338,229841,0.368684,-0.17616800000000002,-0.9028,-8.6275,-2.4325,-15.0325
339,229937,0.363316,-0.191296,-0.898164,-5.39,0.4025,-13.8425
340,230033,0.384788,-0.160796,-0.897432,-4.62,3.36,-14.0
341,230130,0.392352,-0.16226,-0.898164,-1.505,6.2475,-12.8625
342,230226,0.385764,-0.20252,-0.8869401,2.0475,7.525,-10.955
343,230322,0.35526399999999997,-0.21886799999999998,-0.9057280999999999,2.3625,8.05,-10.6225
344,230418,0.363316,-0.226188,-0.9032879999999999,3.045,9.38,-12.39
345,230515,0.37088000000000004,-0.20178800000000002,-0.8998719999999999,4.095,11.795,-13.9825
346,230611,0.37332,-0.196664,-0.9037761000000001,4.935,15.2425,-14.2275
347,230707,0.34867600000000004,-0.208864,-0.91622,8.365,18.9,-12.8625
348,230804,0.35892399999999997,-0.21838000000000002,-0.9247601000000001,7.1925,23.7475,-13.335
349,230900,0.352092,-0.24058400000000002,-0.9206120000000001,10.3775,29.47,-13.79
350,230996,0.353556,-0.243024,-0.9250040999999999,10.675,36.435,-15.2425
351,231092,0.36478,-0.22935999999999998,-0.9262239999999999,11.27,45.1675,-17.4475
352,231189,0.366,-0.22033200000000003,-0.942084,15.3825,54.6175,-18.795
353,231285,0.370636,-0.149816,-0.9696561,17.3075,65.5375,-19.0925
354,231381,0.37332,-0.14762,-0.9825879999999999,21.63,79.765,-17.08
355,231478,0.37746799999999997,-0.165432,-0.9803921,26.7225,97.00251,-13.4575
356,231574,0.378688,-0.14786400000000002,-0.9940559999999999,31.6925,115.7975,-10.8675
357,231670,0.36209600000000003,-0.18104800000000001,-1.001376,38.5875,136.6925,-10.185
358,231766,0.34257600000000005,-0.213256,-0.9994241,42.4725,160.195,-11.305
359,231863,0.318176,-0.223016,-0.9913719999999999,42.91,188.72,-16.1
360,231959,0.27523200000000003,-0.23838800000000002,-1.015284,44.8175,222.04,-24.9375
361,232055,0.206668,-0.266692,-1.042856,47.53,260.6625,-38.255
362,232152,0.14493599999999998,-0.42016800000000004,-1.02968,51.38,309.7325,-56.4725
363,232248,0.17446,-0.406748,-0.9955200000000001,44.0475,364.6825,-82.81
364,232344,0.15128,-0.45286400000000004,-0.8723001,42.315,429.1,-115.2375
365,232440,0.179096,-0.545096,-0.7239479999999999,48.9125,504.28,-151.06
366,232537,0.2989,-0.56608,-0.72346,69.37,566.1425,-181.7375
367,232633,0.984784,-0.21716,-0.43066000000000004,113.54,573.405,-200.06
368,232729,2.406572,0.005856,-1.737768,226.31,573.405,-175.735
369,232826,3.801276,-1.755824,-1.997872,416.185,573.405,-122.325
370,232922,4.383948,-1.56282,-1.997872,337.75,570.5175,-168.56
371,233018,3.834704,-1.7089759999999998,-2.535404,180.145,467.9675,-225.75
372,233114,3.5970480000000005,-2.06302,-2.81576,105.455,345.6775,-290.9375
373,233211,2.839428,-2.114504,-3.541904,47.5475,240.0125,-299.3375
374,233307,0.8918200000000001,-1.966884,-4.276344,-1.3825,-40.3725,-219.59
375,233403,-0.654408,-1.310768,0.3416,-20.02,-335.755,-135.135
376,233500,1.336144,-1.92882,-4.1175,-11.69,-192.5175,-83.6325
377,233596,0.01586,-1.584292,-1.9893319999999999,73.08,-273.7875,15.3475
378,233692,-1.878068,-1.110688,-0.09272000000000001,-61.075,-454.895,-21.49
379,233788,-0.9052401,-0.8637601,-0.9315921,-38.4125,-339.2725,-1.295
380,233885,-0.438468,-0.5192319999999999,-1.064816,-32.9,-320.005,28.2275
381,233981,-0.42578,-0.5058121,-0.9198799999999999,-6.9475,-348.39,57.2775
382,234077,-0.258884,-0.5653481,-0.930372,29.82,-354.9175,92.68001
383,234174,-0.161772,-0.5648601,-0.8398479999999999,42.385,-367.5875,122.8675
384,234270,-0.087108,-0.471164,-0.7991,38.5175,-373.9225,143.5525
385,234366,0.061975999999999996,-0.338672,-0.8310639999999999,30.31,-370.405,157.3075
386,234462,0.194712,-0.1464,-0.883036,23.135,-370.7725,166.1625
387,234559,0.341356,-0.01708,-0.978684,26.4075,-368.9175,171.92
388,234655,0.46726,0.02196,-1.078236,34.16,-368.025,171.7975
389,234751,0.643184,0.05246,-1.1751040000000001,39.585,-368.6025,164.57
390,234848,0.791536,0.053436000000000004,-1.315404,43.89,-369.74,150.745
391,234944,0.9298841,0.046848,-1.4783959999999998,49.21,-368.7775,132.7725
392,235040,1.0704280000000002,0.126392,-1.635532,53.97,-371.77,111.4925
393,235136,1.256844,0.031232,-1.7111720000000001,73.815,-375.62,93.08249
394,235233,1.3205280000000001,-0.12688,-1.6975080000000002,92.78501,-377.615,78.505
395,235329,1.321016,-0.260836,-1.6689599999999998,104.195,-370.0725,67.2525
396,235425,1.391044,-0.366244,-1.6926279999999998,113.5575,-350.2275,62.405
397,235521,1.6521240000000001,-0.5282600000000001,-1.6689599999999998,120.5925,-321.405,65.7125
398,235618,1.996164,-0.7808001,-1.611376,118.09,-291.515,74.865
399,235714,2.33386,-0.782752,-1.616012,103.3725,-262.535,92.505
400,235810,2.755248,-0.68198,-1.519144,93.66,-237.7725,125.545
401,235907,3.185908,-0.5072760000000001,-1.318332,96.4775,-220.4825,169.085
402,236003,3.5614239999999997,-0.316712,-0.8642481,105.14,-204.2775,213.6925
403,236099,3.6987959999999998,-0.256932,-0.305,107.2225,-185.8325,248.6575
404,236195,3.627792,-0.249856,0.24351199999999998,87.5875,-160.4925,266.2625
405,236292,3.516528,-0.11126400000000002,0.72468,38.815,-123.445,255.675
406,236388,3.764432,0.271328,1.0025959999999998,-16.5375,-84.91,227.4475
407,236484,3.3750080000000002,0.49141599999999996,1.220976,-53.13,-61.495,198.415
408,236580,3.438936,0.81252,1.2080440000000001,-75.25,0.0,157.465
409,236677,3.485296,1.26026,1.1477760000000001,-49.0175,27.65,103.075
410,236773,2.977532,0.895236,1.0279719999999999,-14.56,47.6,66.5875
411,236869,2.728652,0.505568,0.604388,3.2025,83.37001,45.815
412,236966,3.033408,0.26108000000000003,0.367708,8.9425,133.455,0.7175
413,237062,-1.560136,-0.293044,-1.348344,-17.01,152.5475,-62.265
414,237158,-3.0002240000000002,-0.6109760000000001,-1.39446,-40.285,151.1125,-134.26
415,237254,2.685952,0.332328,-1.5159719999999999,-73.3425,338.065,-177.4325
416,237351,2.3363,0.5604680000000001,-1.0260200000000002,-71.19,287.0,-169.7675
417,237447,2.03252,-0.560956,-2.169648,7.4725,270.375,-121.3625
418,237543,2.323612,-2.3199520000000002,-2.33752,24.5,220.22,-95.3225
419,237640,2.225524,-0.71248,-1.558184,-98.96251,147.28,-105.945
420,237736,0.251564,0.46335600000000005,-1.248792,-131.845,92.6625,-83.52750999999999
421,237832,0.91012,0.346968,-1.688236,-105.77,66.0975,-74.8125
422,237928,0.989664,-0.7134560999999999,-1.15778,-62.86,29.995,-62.1075
423,238025,0.6222,-0.4697,-1.016748,-52.22,-0.8400001,-38.6925
424,238121,0.51972,0.19397999999999999,-1.163392,-46.2875,1.4875,-19.25
425,238217,0.470188,-0.292556,-0.906948,-12.6,-4.585,-11.4625
426,238313,0.41260399999999997,-0.354044,-0.868152,3.535,-3.01,-1.6625
427,238410,0.378932,-0.320128,-0.8976761000000001,-1.33,-3.535,0.245
428,238506,0.4087,-0.359412,-0.868884,-0.6125,-5.1625,-1.2075
429,238602,0.392108,-0.26766799999999996,-0.8901120000000001,-2.4325,-7.8575,-1.89
430,238699,0.4026,-0.237168,-0.916952,-1.995,-7.0875,-2.4675
431,238795,0.376492,-0.24058400000000002,-0.8957241,3.1675,-3.1325,-3.01
432,238891,0.367952,-0.2257,-0.899384,4.7775,-1.4525,-3.0975
433,238987,0.381372,-0.235948,-0.8930401,7.665,-0.56,-3.7975
434,239084,0.37332,-0.23082399999999997,-0.885964,10.6225,0.0175,-3.99
435,239180,0.378444,-0.244488,-0.885964,13.475,1.645,-3.5525
436,239276,0.38356799999999996,-0.245952,-0.8866961,15.645,3.3775,-3.1675
437,239372,0.38356799999999996,-0.249612,-0.879864,16.0125,4.6025,-3.5
438,239469,0.374784,-0.30012,-0.849608,16.8,5.285,-4.06
439,239565,0.386008,-0.32866799999999996,-0.845216,15.05,5.2675,-5.46
440,239661,0.39479200000000003,-0.317932,-0.8488761,10.3075,3.6575,-7.665
441,239758,0.395768,-0.316224,-0.8413120000000001,5.9675,-0.1925,-10.1675
442,239854,0.385764,-0.361608,-0.809348,0.735,-4.6025,-13.0725
443,239950,0.387228,-0.329644,-0.8344801,-7.4025,-7.595,-16.2925
444,240046,0.353556,-0.280844,-0.8420440999999999,-10.43,-10.395,-18.69
445,240143,0.42431599999999997,-0.31476,-0.8464360000000001,-13.86,-7.595,-21.0525
446,240239,0.39967199999999997,-0.275476,-0.846924,-20.0025,-10.325,-23.5375
447,240335,0.381372,-0.291092,-0.8405800999999999,-20.9475,-12.25,-24.255
448,240431,0.409188,-0.296216,-0.8332601000000001,-25.8475,-14.0875,-24.2375
449,240528,0.40211199999999997,-0.26718000000000003,-0.868396,-32.34,-16.8175,-24.78
450,240624,0.389912,-0.160308,-0.9142680000000001,-31.78,-14.2625,-23.7825
451,240720,0.377956,-0.199104,-0.9293961,-25.0775,-7.945,-21.28
452,240817,0.342332,-0.239608,-0.9315921,-14.595,-1.33,-19.9675
453,240913,0.387472,-0.19154000000000002,-0.941108,-9.9575,7.595,-20.5275
454,241009,0.37332,-0.18422,-0.9464761,-4.375,16.0825,-19.18
455,241105,0.363804,-0.198372,-0.9562360999999999,3.535,24.78,-16.485
456,241202,0.35014,-0.14688800000000002,-0.97234,10.57,34.265,-15.05
457,241298,0.34281999999999996,-0.145912,-0.9906401,19.9325,46.4275,-13.65
458,241394,0.329888,-0.158356,-1.004792,26.9325,62.125,-9.59
459,241491,0.335988,-0.135664,-1.010648,34.93,80.97251,-3.885
460,241587,0.33305999999999997,-0.24058400000000002,-1.001376,47.4075,101.36,1.1725
461,241683,0.294508,-0.248148,-1.017236,54.11,123.76,4.3225
462,241779,0.261812,-0.316712,-1.034316,56.805,150.4125,3.0275
463,241876,0.20374,-0.31890799999999997,-1.055056,56.63,183.9425,-5.11
464,241972,0.187636,-0.404064,-1.042612,58.135,222.565,-20.09
465,242068,0.164944,-0.41675200000000007,-1.036512,53.8125,264.25,-39.025
466,242164,0.122732,-0.413092,-1.015284,47.8625,310.0475,-61.81
467,242261,0.063684,-0.39405999999999997,-1.0309,43.295,363.09,-86.45
468,242357,0.008296000999999999,-0.341844,-0.9845401,41.055,429.59,-112.805
469,242453,0.050263999999999996,-0.5009319999999999,-0.8554641,47.7575,505.75,-138.4775
470,242550,0.192272,-0.359656,-0.8820601,57.7325,565.635,-160.545
471,242646,0.7278521,-0.0305,-0.86498,101.36,573.405,-169.3125
472,242742,1.765096,-0.0488,-1.4234959999999999,195.965,573.405,-144.655
473,242838,2.929464,-1.257332,-1.4715639999999999,313.32,573.405,-129.1675
474,242935,3.4911519999999996,-1.3703040000000002,-1.15412,257.005,573.405,-163.345
475,243031,4.443728,-1.40666,-1.716784,139.5275,558.7224,-211.0675
476,243127,3.436496,-1.743868,-2.00812,79.2575,403.76,-211.085
477,243223,3.535072,-1.9883560000000002,-3.2988800000000005,74.18251,329.105,-241.8675
478,243320,1.56282,-1.588196,-3.9701239999999998,23.7825,101.1325,-206.78
479,243416,1.1392360000000001,-1.8465919999999998,-3.9286440000000002,-8.4875,-160.3,-131.32
480,243512,-1.173152,-1.248548,-0.935984,-75.4425,-405.6675,-130.55
481,243609,1.60796,-1.7150759999999998,-3.400384,58.625,-155.05,-72.59
482,243705,-0.561688,-0.9852719999999999,-1.402268,0.8400001,-377.2475,-54.1975
483,243801,-1.584048,-0.9613601,-0.202764,-42.84,-436.52,-81.935
484,243897,-0.754448,-0.6707561,-0.9030440000000001,-9.7825,-327.53,-58.66
485,243994,-0.486048,-0.478728,-0.887916,-0.6125,-331.1,-37.905
486,244090,-0.268644,-0.610244,-0.8447280999999999,38.815,-340.4625,-4.06
487,244186,-0.130296,-0.808372,-0.850096,71.4,-346.255,37.6775
488,244282,-0.01464,-0.850096,-0.8203280000000001,73.5175,-357.595,76.2825
489,244379,0.159088,-0.833992,-0.8300879999999999,59.2725,-362.5825,108.7625
490,244475,0.3111,-0.7285841,-0.8657120999999999,39.2875,-365.155,135.52
491,244571,0.45993999999999996,-0.54656,-0.921588,23.3975,-367.885,158.2
492,244667,0.5355800999999999,-0.433832,-0.9142680000000001,20.545,-372.3475,179.865
493,244764,0.58316,-0.417972,-0.9147559999999999,23.7475,-374.22,199.5525
494,244860,0.654896,-0.366244,-0.9437921,20.895,-368.795,211.2075
495,244956,0.7166279999999999,-0.264252,-1.0972680000000001,12.2675,-360.15,214.3925
496,245052,0.9403761,-0.22691999999999998,-1.2749,5.53,-351.26,207.3225
497,245149,1.086776,-0.047824,-1.481324,10.64,-347.7075,193.2525
498,245245,1.14314,0.011468,-1.629432,33.1275,-346.9025,173.4075
499,245341,1.176812,-0.034404000000000004,-1.7097080000000002,60.9,-345.835,151.0075
500,245438,1.319308,-0.169336,-1.8056,80.885,-337.5575,125.3
501,245534,1.614792,-0.386984,-1.8763599999999998,93.9225,-323.7325,98.1575
502,245630,2.025932,-0.508252,-1.911252,104.965,-310.1525,76.335
503,245726,2.507588,-0.51484,-1.8478119999999998,127.995,-296.45,75.075
504,245823,2.94386,-0.6368401,-1.657736,161.805,-284.6375,99.05001
505,245919,3.161508,-1.218292,-1.101904,181.4225,-275.0475,140.14
506,246015,3.6360879999999995,-1.0025959999999998,-0.759084,134.3125,-242.34,175.42
507,246111,3.47212,-0.769576,-0.208132,61.635,-233.9575,204.89
508,246208,3.7976160000000005,-0.389424,0.16714,0.7175,-200.655,229.4775
509,246304,3.8464160000000005,0.13908,0.8283799999999999,-33.0925,-149.7125,227.1675
510,246400,3.6063199999999997,0.6649,1.3588360000000002,-41.545,-124.3375,187.4775
511,246497,3.2488599999999996,0.785192,1.566236,-24.15,-102.865,168.8575
512,246593,3.566304,0.699548,1.6082040000000002,-17.78,-8.54,140.455
513,246689,3.505792,0.8322841000000001,1.522804,-4.1125,40.7225,93.135
514,246785,3.090992,0.326228,1.334924,13.44,65.87,52.8675
515,246882,4.180452,-0.171044,1.27368,10.5175,148.1375,22.155
516,246978,-0.010004,0.338428,-0.052703999999999994,-47.635,198.9575,-22.9425
517,247074,-3.27082,1.02236,-1.57746,-122.08,170.59,-106.2775
518,247170,2.603236,-0.193736,-2.856996,-44.8,400.6975,-143.045
519,247267,2.599576,0.903532,-1.214388,-84.525,299.53,-126.735
520,247363,2.176236,0.404796,-1.8468360000000001,-28.525,268.8,-102.55
521,247459,2.268956,-2.0525279999999997,-2.505636,-13.9475,226.0475,-122.5
522,247556,1.76046,-1.1333799999999998,-1.5647719999999998,-128.45,109.025,-142.345
523,247652,0.282064,-0.24058400000000002,-1.0004,-162.855,43.645,-106.9075
524,247748,1.505724,0.61122,-2.071804,-155.2075,40.1625,-81.84751
525,247844,0.6980841,-0.085888,-1.02236,-101.815,-29.12,-64.12
526,247941,0.546072,-0.5958479999999999,-0.8862081,-35.035,-26.215,-30.975
527,248037,0.46457600000000004,0.0244,-1.0521280000000002,-46.7425,-23.66,-20.195
528,248133,0.425048,-0.069052,-0.992592,-30.555,-20.195,-15.9775
529,248229,0.379176,-0.22033200000000003,-0.9174399999999999,-7.3675,-16.345,-7.8925
530,248326,0.36892800000000003,-0.242536,-0.9010921000000001,-5.7925,-14.63,-4.7775
531,248422,0.380396,-0.284504,-0.8918200000000001,-8.4875,-15.33,-5.1275
532,248518,0.363316,-0.244732,-0.8949921000000001,-10.955,-17.57,-6.6325
533,248615,0.364048,-0.233996,-0.900848,-11.2875,-16.87,-8.0675
534,248711,0.367464,-0.222284,-0.895236,-11.0075,-14.35,-7.945
535,248807,0.36356,-0.23155599999999998,-0.8849879999999999,-10.43,-12.145,-7.8575
536,248903,0.369172,-0.20374,-0.898652,-12.075,-10.5875,-7.945
537,249000,0.358192,-0.195688,-0.9032879999999999,-10.955,-8.9425,-6.895
538,249096,0.373808,-0.21374400000000002,-0.8884040000000001,-8.1375,-6.8075,-5.25
539,249192,0.371856,-0.1769,-0.9049959999999999,-6.2825,-5.81,-4.9175
540,249288,0.372832,-0.20252,-0.8937719999999999,-2.38,-4.3925,-4.5675
541,249385,0.363072,-0.188612,-0.921832,-1.82,-3.045,-4.5675
542,249481,0.35672800000000005,-0.19178399999999998,-0.9201241,0.2625,-1.82,-5.3375
543,249577,0.354532,-0.207644,-0.90036,-0.315,-1.1725,-6.545
544,249674,0.364048,-0.235948,-0.87718,-0.595,-1.855,-7.42
545,249770,0.361852,-0.230336,-0.897432,-2.52,-2.1875,-8.575
546,249866,0.354532,-0.21862399999999999,-0.8959681,-2.1525,-1.9425,-9.87
547,249962,0.36502399999999996,-0.145424,-0.93086,-5.215,-1.19,-11.3225
548,250059,0.360388,-0.164212,-0.899384,-2.52,-0.7,-11.8125
549,250155,0.368684,-0.167872,-0.8808401,-4.41,1.0325,-11.9
550,250251,0.37746799999999997,-0.16592,-0.8908440999999999,-3.5875,1.8025,-11.13
551,250348,0.385276,-0.204228,-0.885964,-0.7875,1.435,-9.87
552,250444,0.361852,-0.229604,-0.8913321,-1.0325,0.8925,-9.3625
553,250540,0.35526399999999997,-0.223992,-0.8908440999999999,-3.395,1.4,-10.36
554,250636,0.35136,-0.190564,-0.9079241,-3.5525,2.555,-11.8125
555,250733,0.379176,-0.200568,-0.883524,-2.17,5.2325,-12.355
556,250829,0.355996,-0.147376,-0.9259799999999999,-0.42,8.19,-12.4775
557,250925,0.363804,-0.155916,-0.9389120000000001,4.655,11.55,-12.2325
558,251021,0.354532,-0.21813600000000002,-0.913536,8.54,15.5575,-11.8825
559,251118,0.330864,-0.19276,-0.9537959999999999,8.3125,20.9125,-12.355
560,251214,0.30182800000000004,-0.211304,-0.953308,13.09,28.5775,-13.3175
561,251310,0.320128,-0.166164,-0.9772200999999999,13.5275,38.885,-13.965
562,251407,0.31012399999999996,-0.14005599999999999,-1.011136,16.3625,51.87,-13.2825
563,251503,0.31158800000000003,-0.151524,-1.0208959999999998,23.695,68.3725,-10.8325
564,251599,0.3172,-0.173484,-1.024556,30.695,88.13,-8.0675
565,251695,0.313296,-0.1952,-1.0384639999999998,35.0,111.5275,-5.8625
566,251792,0.337452,-0.205692,-1.0565200000000001,38.465,137.4625,-5.3725
567,251888,0.269376,-0.233996,-1.073356,40.88,165.515,-8.6275
568,251984,0.260592,-0.254736,-1.086288,44.695,197.785,-16.2925
569,252080,0.20984,-0.294752,-1.1028799999999999,46.9525,236.1975,-27.9475
570,252177,0.09540401,-0.323056,-1.15046,45.4825,282.695,-43.575
571,252273,0.07442,-0.35087199999999996,-1.148996,39.235,335.9475,-64.1725
572,252369,0.040504000000000005,-0.406992,-1.005524,30.5375,398.965,-90.65001
573,252466,0.135176,-0.49263599999999996,-0.8613200000000001,15.47,471.975,-126.4025
574,252562,0.044164,-0.7617681,-0.913536,19.11,546.9275,-169.6275
575,252658,0.034648000000000005,-0.57462,-0.7088201,45.045,573.09,-200.515
576,252754,0.7766521,0.193736,-0.485072,101.0275,573.405,-203.595
577,252851,2.618608,0.312564,-1.6570040000000001,267.12,573.405,-155.19
578,252947,3.9496279999999997,-1.560868,-1.868796,479.325,573.405,-68.9325
579,253043,3.78444,-2.484164,-1.59332,420.4375,567.84,-132.1425
580,253140,3.958168,-1.607472,-1.70556,158.8125,459.1475,-298.4625
581,253236,3.376228,-1.6662759999999999,-2.84626,-13.5975,342.055,-376.6525
582,253332,2.869684,-2.156472,-3.5543480000000005,-80.6575,230.8075,-356.4575
583,253428,1.6504159999999999,-1.5799,-3.9196160000000004,-122.675,-38.8675,-249.9175
584,253525,-0.7117479999999999,-0.7178479999999999,-1.559404,-77.8575,-317.905,-151.2875
585,253621,0.244732,-1.44814,-2.632272,8.33,-323.47,-87.99
586,253717,0.15201199999999998,-1.515484,-1.8585479999999999,119.525,-254.8525,-0.98
587,253814,-1.473516,-1.128744,-0.44383599999999995,23.6425,-406.105,-5.355
588,253910,-1.042124,-0.9394,-0.5077640999999999,7.0175,-341.74,9.7125
589,254006,-0.523624,-0.679296,-0.904508,-1.435,-302.2425,26.7225
590,254102,-0.31646799999999997,-0.47360399999999997,-0.9406200000000001,12.4775,-311.0975,52.955
591,254199,-0.09247601,-0.543876,-0.9850280999999999,48.4225,-323.0675,89.11
592,254295,-0.0034159999999999998,-0.6514800000000001,-0.935008,68.565,-339.745,124.005
593,254391,0.008296000999999999,-0.648308,-0.8601,63.2275,-353.465,149.3975
594,254487,0.128832,-0.529724,-0.8876719999999999,44.275,-353.7625,166.0225
595,254584,0.24351199999999998,-0.33794,-0.9150001,25.9525,-353.5175,178.115
596,254680,0.3477,-0.18056,-0.9677040000000001,22.4525,-354.6025,190.2425
597,254776,0.493856,-0.125416,-1.06994,28.6475,-354.1125,200.9175
598,254873,0.662948,-0.12468399999999999,-1.149972,32.515,-354.655,205.73
599,254969,0.76372,-0.132492,-1.213168,28.9625,-357.84,202.93
600,255065,0.8788879999999999,-0.08174001,-1.336632,21.98,-358.6625,190.54
601,255161,0.973316,0.016347999999999998,-1.505724,15.155,-359.835,168.0875
602,255258,1.0687200000000001,0.11053199999999999,-1.6670080000000003,26.1975,-359.31,145.1975
603,255354,1.09556,0.15201199999999998,-1.6958,45.9025,-359.5375,122.535
604,255450,1.19072,0.054412,-1.7104400000000002,69.72,-351.4525,96.6875
605,255547,1.376892,-0.168848,-1.6682279999999998,91.0175,-333.3575,68.53
606,255643,1.536712,-0.43798000000000004,-1.530612,105.6475,-307.79,43.1025
607,255739,1.8407360000000001,-0.6290319999999999,-1.424716,117.985,-269.7275,30.415
608,255835,2.501976,-0.9028,-1.494256,129.115,-226.9225,33.32
609,255932,3.571672,-1.1829120000000002,-1.677256,144.6725,-200.3925,55.125
610,256028,4.19436,-1.310768,-1.4600959999999998,155.295,-215.2675,100.45
611,256124,3.782488,-1.02968,-0.768356,136.185,-242.095,160.615
612,256221,3.8808199999999995,-0.576572,-0.015616,89.845,-233.345,213.5875
613,256317,3.3340160000000005,-0.071492,0.7473721,52.535,-228.7425,233.835
614,256413,2.9453240000000003,0.45383999999999997,1.175592,32.1475,-182.2625,248.9025
615,256509,2.851628,0.6392800000000001,1.419348,3.3425,-105.2625,249.6025
616,256606,3.332064,0.5551,1.444968,-29.68,-9.6425,237.0025
617,256702,3.63438,0.8940161,1.4518,-60.6725,41.1425,186.9175
618,256798,3.5394639999999997,1.15046,1.0887280000000001,-53.9175,63.8575,128.4675
619,256894,3.090992,0.978684,0.8769360999999999,-14.805,75.4425,86.6775
620,256991,3.2974160000000006,-0.37258800000000003,1.1714440000000002,21.2975,110.4775,59.0275
621,257087,1.164856,-0.028548,-0.25864000000000004,-13.4575,206.78,22.645
622,257183,-3.591192,0.746152,-1.342488,-97.475,154.035,-32.725
623,257280,0.898408,0.42602399999999996,-1.9215,-98.7,352.415,-113.89
624,257376,3.076352,1.217072,-1.53598,-71.4175,361.1125,-110.88
625,257472,2.6415439999999997,0.509228,-1.899784,-27.825,275.31,-95.2
626,257568,2.454884,-1.562332,-3.0270639999999998,6.86,237.825,-107.94
627,257665,2.114748,-1.510116,-1.480348,-103.67,101.3425,-150.08
628,257761,-0.275476,-0.527772,-0.480192,-148.8025,38.71,-105.665
629,257857,1.66652,0.290116,-2.2850599999999996,-157.465,57.4875,-80.5875
630,257953,0.670024,0.548756,-1.154852,-125.8075,-14.665,-63.6125
631,258050,0.6229319999999999,-0.81618,-0.8430200999999999,-39.165,-28.77,-41.4225
632,258146,0.479216,-0.001464,-1.06018,-39.76,-17.8675,-20.8075
633,258242,0.427976,0.046604,-1.01626,-32.5325,-15.0325,-16.065
634,258338,0.398208,-0.267912,-0.895236,-2.5725,-9.45,-7.49
635,258435,0.395036,-0.271816,-0.883036,-1.19,-9.7825,-3.9025
636,258531,0.40894400000000003,-0.324276,-0.8586360000000001,-2.73,-11.97,-4.8125
637,258627,0.3782,-0.247416,-0.9118280000000001,-8.785,-15.015,-6.055
638,258723,0.374296,-0.22667600000000002,-0.915976,-9.8525,-15.33,-6.8425
639,258820,0.383324,-0.20374,-0.906948,-9.1875,-13.825,-6.6325
640,258916,0.383324,-0.238632,-0.8845,-7.56,-12.1975,-6.37
641,259012,0.367708,-0.205936,-0.9030440000000001,-8.715,-11.48,-6.5975
642,259109,0.370392,-0.183,-0.9120720999999999,-7.77,-10.22,-5.8275
643,259205,0.378688,-0.17324,-0.891576,-5.5825,-8.715,-4.375
644,259301,0.35868,-0.20691199999999998,-0.892552,-0.91,-7.0525,-3.36
645,259397,0.359412,-0.215696,-0.906216,0.4725,-4.865,-3.2375
646,259494,0.349164,-0.248148,-0.8662001,1.6975,-3.78,-3.8325
647,259590,0.35892399999999997,-0.24644000000000002,-0.880352,0.2975,-2.24,-4.69
648,259686,0.34794400000000003,-0.230336,-0.912316,0.805,-1.82,-5.67
649,259782,0.348432,-0.233752,-0.9057280999999999,1.295,-1.6975,-7.315
650,259879,0.368684,-0.232776,-0.888648,-1.0325,-1.6975,-8.9425
651,259975,0.366976,-0.221796,-0.892064,-0.875,-1.96,-10.115
652,260071,0.363804,-0.1647,-0.91012,-4.165,-1.015,-11.1475
653,260167,0.374052,-0.1708,-0.895236,-1.5225,0.4725,-11.06
654,260264,0.37576,-0.173484,-0.8945040000000001,-0.4375,2.2925,-10.4125
655,260360,0.368684,-0.208864,-0.8876719999999999,1.085,3.8675,-9.59
656,260456,0.36575599999999997,-0.23253200000000002,-0.8927959999999999,2.5025,4.795,-9.59
657,260552,0.362584,-0.254736,-0.8908440999999999,1.715,4.935,-11.095
658,260649,0.36136399999999996,-0.22935999999999998,-0.8969440000000001,-1.0325,6.8075,-13.4225
659,260745,0.332328,-0.250344,-0.900848,-0.0875,8.61,-16.345
660,260841,0.37746799999999997,-0.196176,-0.906216,-2.065,10.99,-19.145
661,260938,0.360632,-0.196908,-0.9049959999999999,-0.7525,13.79,-19.845
662,261034,0.35477600000000004,-0.24156,-0.9098761000000001,1.12,17.6575,-19.3725
663,261130,0.339892,-0.177876,-0.9337880999999999,-0.28,22.4875,-19.88
664,261226,0.36209600000000003,-0.191296,-0.9437921,1.8025,29.365,-20.5275
665,261323,0.343552,-0.20105599999999998,-0.940132,5.775,36.8025,-20.2825
666,261419,0.337208,-0.160796,-0.9772200999999999,5.53,47.2325,-20.055
667,261515,0.33013200000000004,-0.139812,-1.001376,11.5325,61.53,-18.83
668,261612,0.35014,-0.11955999999999999,-1.008208,16.695,79.7825,-16.3975
669,261708,0.353068,-0.121268,-1.019188,21.42,99.64499,-12.8975
670,261804,0.36136399999999996,-0.08759601,-1.038952,25.5675,121.2225,-9.1175
671,261900,0.31842,-0.156648,-1.0760399999999999,32.8475,145.88,-7.42
672,261997,0.267424,-0.200812,-1.073112,42.105,174.51,-9.415
673,262093,0.21228000000000002,-0.228872,-1.093852,45.5,212.135,-17.2375
674,262189,0.142984,-0.238632,-1.129964,48.1425,256.6725,-29.05
675,262285,0.14005599999999999,-0.287432,-1.091656,47.46,305.55,-44.0475
676,262382,0.10833599999999999,-0.373564,-1.112884,44.38,358.9775,-62.755
677,262478,0.06124401,-0.380884,-0.966484,29.4,413.8575,-87.3075
678,262574,0.129076,-0.385276,-0.778604,17.955,487.655,-121.6425
679,262671,0.11053199999999999,-0.779824,-0.868884,30.6425,557.3925,-155.4
680,262767,0.01586,-0.519964,-0.762988,54.5475,573.3875,-172.4975
681,262863,1.206824,0.279136,-1.035048,99.03251,573.405,-170.9575
682,262959,2.509784,0.039284,-1.2756319999999999,232.1375,573.405,-120.8375
683,263056,3.492372,-1.393484,-1.423252,373.905,573.405,-70.8925
684,263152,3.82226,-1.289052,-1.3725,312.2525,572.8625,-127.925
685,263248,4.3627199999999995,-1.3329719999999998,-2.1347560000000003,156.7125,503.3875,-201.88
686,263345,4.033076,-1.713124,-2.93654,67.8125,359.3625,-248.3425
687,263441,2.698396,-2.0051919999999996,-4.104080000000001,25.6025,200.3575,-237.3875
688,263537,1.93492,-1.6801840000000001,-4.007944,-1.5925,-100.5375,-140.805
689,263633,-1.243668,-1.059204,-1.622844,-36.715,-367.2025,-86.87
690,263730,0.021472,-1.2878319999999999,-2.977288,-27.545,-361.0775,-91.0
691,263826,0.392108,-1.2822200000000001,-2.016416,66.92,-280.9975,-29.6625
692,263922,-1.491084,-0.743224,-0.489708,-29.26,-460.495,-61.5825
693,264018,-0.908168,-0.616588,-0.8540000000000001,2.7125,-384.7725,-51.9575
694,264115,-0.3233,-0.47482399999999997,-1.073356,23.765,-364.07,-32.7425
695,264211,-0.202032,-0.5692520000000001,-0.960384,57.8725,-381.29,-2.52
696,264307,-0.05124001,-0.758108,-0.8918200000000001,88.795,-393.295,34.055
697,264404,-0.0305,-0.815936,-0.802272,91.91001,-402.465,68.4775
698,264500,0.083204,-0.737124,-0.815204,76.475,-402.3425,94.4125
699,264596,0.26156799999999997,-0.6131721,-0.859856,59.8675,-394.8525,115.535
700,264692,0.346236,-0.435784,-0.8969440000000001,49.4025,-394.0125,135.59
701,264789,0.4453,-0.27571999999999997,-0.944524,52.0975,-392.35,154.21
702,264885,0.5404601,-0.170312,-0.97356,62.3,-387.5025,167.8075
703,264981,0.68686,-0.155428,-1.038952,71.1725,-376.2325,172.865
704,265078,0.7922680000000001,-0.129564,-1.2219520000000001,72.6775,-360.78,167.335
705,265174,0.89426,0.007564001,-1.474004,73.0625,-347.06,154.0
706,265270,1.084092,0.144204,-1.643584,82.04,-340.165,136.9725
707,265366,1.223904,0.146644,-1.6714,100.975,-340.2175,118.16
708,265463,1.314916,-0.05368,-1.671644,121.3975,-333.9875,97.6325
709,265559,1.314916,-0.340868,-1.58722,129.6575,-319.0425,78.015
710,265655,1.339072,-0.478728,-1.4905959999999998,123.69,-292.4775,64.6975
711,265751,1.547936,-0.549244,-1.465708,115.6575,-254.2225,61.915
712,265848,2.042036,-0.558028,-1.43472,116.165,-212.8,73.605
713,265944,2.545408,-0.56852,-1.393972,118.335,-180.4075,101.1675
714,266040,3.031456,-0.6451359999999999,-1.2609920000000001,122.6225,-157.1325,145.3375
715,266137,3.4528440000000002,-0.5221600000000001,-1.069452,117.215,-143.6225,195.65
716,266233,3.727832,-0.40748,-0.652212,105.455,-136.325,247.3975
717,266329,3.8229919999999997,-0.350628,-0.119316,79.5025,-136.045,283.5
718,266425,3.6112,-0.211304,0.44944799999999996,30.94,-141.5225,292.285
719,266522,3.321328,0.31842,1.036512,-33.3025,-111.72,278.3375
720,266618,3.155408,0.709796,1.4398440000000001,-67.1125,-60.55,244.3875
721,266714,3.3977,1.14802,1.402756,-69.59751,-18.025,183.3475
722,266811,3.142232,1.112884,1.347124,-49.21,14.8575,128.0475
723,266907,3.035604,0.944524,1.110688,-14.175,43.365,79.3625
724,267003,2.7406080000000004,0.360388,1.139968,14.91,72.0825,43.82
725,267099,3.9706120000000005,0.014152000000000001,0.9821,21.105,148.1025,-1.82
726,267196,-1.074332,0.264496,-0.057096,-17.675,164.0975,-54.67
727,267292,-1.7333759999999998,0.198128,-1.724836,-97.86,194.53,-133.1575
728,267388,2.927268,-0.189832,-2.492216,-61.7925,350.315,-175.56
729,267484,2.552484,0.296704,-1.414224,-80.3075,245.8925,-158.6025
730,267581,2.97558,-1.091656,-2.741584,-42.3325,230.3175,-134.225
731,267677,1.625284,-1.471076,-1.561356,-84.875,130.97,-132.895
732,267773,0.008052001,-0.369172,-0.655628,-149.695,55.5625,-112.595
733,267870,1.5469600000000001,0.205204,-2.2543159999999998,-155.5925,65.94,-96.3025
734,267966,0.8764481,0.539484,-1.18584,-129.5525,-6.1425,-70.07
735,268062,0.5724239999999999,-0.768112,-0.8383841000000001,-46.0075,-31.185,-41.5275
736,268158,0.506544,-0.111752,-1.029192,-41.545,-19.9675,-16.66
737,268255,0.416264,-0.040504000000000005,-1.016016,-37.66,-18.83,-16.8525
738,268351,0.439688,-0.137128,-0.9442801,-12.075,-14.105,-9.24
739,268447,0.392108,-0.311344,-0.8674200000000001,0.4725,-14.1225,-4.1125
740,268544,0.42285200000000006,-0.23521599999999998,-0.90036,-2.1875,-15.435,-4.1475
741,268640,0.36844,-0.229604,-0.913536,-6.72,-15.3125,-5.3725
742,268736,0.367464,-0.178608,-0.9264680000000001,-4.3925,-12.6175,-4.445
743,268832,0.36502399999999996,-0.219356,-0.9079241,-0.8225,-8.4875,-3.955
744,268929,0.373564,-0.248148,-0.8940161,0.245,-6.37,-4.4975
745,269025,0.371612,-0.211792,-0.9106081,-1.715,-4.8125,-5.25
746,269121,0.394548,-0.16348,-0.906216,-1.6275,-2.8875,-4.6375
747,269218,0.369172,-0.182024,-0.9145120999999999,2.3625,-0.6475,-2.8175
748,269314,0.36966,-0.255956,-0.9010921000000001,6.72,0.8925,-2.4675
749,269410,0.37551599999999996,-0.256444,-0.8845,5.6525,0.9975,-4.2
750,269507,0.373564,-0.248392,-0.877424,2.345,0.07,-6.3175
751,269603,0.373076,-0.241804,-0.8906,-0.5425,-1.12,-7.7
752,269699,0.370148,-0.250344,-0.8849879999999999,-2.9575,-2.52,-9.135
753,269795,0.37454,-0.278648,-0.8752280000000001,-3.3075,-3.2375,-10.6925
754,269892,0.373564,-0.2379,-0.891576,-6.545,-3.8675,-13.125
755,269988,0.36112,-0.24034,-0.880352,-6.7375,-4.095,-15.1375
756,270084,0.38064000000000003,-0.195688,-0.8971879999999999,-9.2925,-2.9575,-16.7125
757,270181,0.388936,-0.156404,-0.8927959999999999,-8.8025,-2.345,-16.6775
758,270277,0.384788,-0.151524,-0.8935280999999999,-7.6125,-1.4,-15.7325
759,270373,0.372344,-0.173484,-0.8964561,-5.67,-0.315,-15.015
760,270469,0.377956,-0.190564,-0.898408,-2.3625,2.0125,-14.175
761,270566,0.362584,-0.194712,-0.9118280000000001,-0.1925,4.55,-13.23
762,270662,0.3538,-0.23228800000000002,-0.8940161,1.9075,7.98,-13.475
763,270758,0.35258,-0.2379,-0.909632,2.1175,12.4775,-15.155
764,270855,0.360144,-0.231312,-0.8910879999999999,2.3625,16.38,-16.7125
765,270951,0.368684,-0.199104,-0.900848,-0.3675,20.4925,-16.485
766,271047,0.37258800000000003,-0.182268,-0.9296399999999999,-1.9425,24.2025,-16.0475
767,271144,0.36844,-0.23301999999999998,-0.9023121,1.225,28.8575,-15.015
768,271240,0.367464,-0.19739600000000002,-0.9201241,-0.0875,33.74,-16.59
769,271336,0.376736,-0.21057199999999998,-0.916464,3.99,40.6,-18.305
770,271432,0.3721,-0.169824,-0.942084,3.9375,48.1075,-19.25
771,271529,0.388692,-0.137128,-0.9633120999999999,6.265,58.205,-19.2325
772,271625,0.365268,-0.119316,-0.989176,10.395,70.5425,-17.64
773,271721,0.393816,-0.10223600000000001,-1.000888,12.5475,87.6925,-14.28
774,271818,0.3843,-0.13298,-1.017724,18.7075,106.9775,-10.395
775,271914,0.359412,-0.2013,-1.0199200000000002,26.4425,127.855,-8.68
776,272010,0.317688,-0.22252800000000003,-1.041636,30.1,153.0025,-11.2175
777,272106,0.286456,-0.2501,-1.0382200000000001,33.18,182.9275,-18.3575
778,272203,0.258152,-0.310856,-1.059692,33.67,216.93,-29.4525
779,272299,0.187392,-0.391376,-1.047736,28.595,254.87,-45.85
780,272395,0.160308,-0.382836,-1.0882399999999999,18.8475,302.3475,-69.0375
781,272492,0.12053599999999999,-0.43627200000000005,-1.042856,13.72,356.37,-97.755
782,272588,0.12175599999999999,-0.36648800000000004,-0.9250040999999999,1.505,420.28,-131.46
783,272684,0.047824,-0.46433199999999997,-0.9115840000000001,-1.1725,496.545,-169.5575
784,272780,0.09223200000000001,-0.5575399999999999,-0.8015399999999999,16.59,561.9075,-203.665
785,272877,0.334768,-0.252784,-0.9501360999999999,54.775,573.3875,-213.9025
786,272973,1.749968,0.28621199999999997,-1.053836,137.2525,573.405,-190.575
787,273069,3.310104,-0.26474000000000003,-1.514996,289.6775,573.3875,-119.8225
788,273166,3.596072,-1.155828,-1.430328,395.78,573.405,-91.9625
789,273262,4.225592,-1.450336,-1.69702,321.6325,554.3125,-163.4675
790,273358,3.9022919999999996,-1.736304,-2.0874200000000003,164.5175,426.545,-250.32
791,273454,3.244224,-2.048868,-3.3996519999999997,8.7675,294.5425,-340.095
792,273551,1.830976,-1.619916,-3.770288,-78.96,122.5175,-311.605
793,273647,0.6527,-1.9468759999999998,-3.953532,-103.7225,-129.535,-207.69
794,273743,-0.551928,-0.895236,-1.464,-114.59,-362.005,-125.3875
795,273839,1.7521639999999998,-1.981768,-3.06586,81.97001,-179.27,-1.715
796,273936,-0.7622561,-1.336632,-1.056032,28.1575,-385.315,41.6325
797,274032,-1.491816,-1.0765280000000002,-0.308904,-29.6625,-407.3825,39.8825
798,274128,-0.5997520000000001,-0.781532,-0.7944641,-33.425,-318.4825,62.0725
799,274225,-0.42773199999999995,-0.49117200000000005,-0.777628,-44.065,-319.4275,72.0475
800,274321,-0.149816,-0.42212,-0.8422879999999999,-12.005,-327.285,94.2025
801,274417,0.10540799999999999,-0.5897479999999999,-0.893284,27.2125,-339.255,122.745
802,274513,0.122,-0.72712,-0.81252,40.985,-361.235,146.5975
803,274610,0.23253200000000002,-0.768356,-0.808372,34.825,-372.6975,160.7375
804,274706,0.380152,-0.6673399999999999,-0.81618,17.6225,-376.0925,167.755
805,274802,0.49141599999999996,-0.5604680000000001,-0.822524,6.65,-381.1325,173.1275
806,274899,0.592432,-0.47823999999999994,-0.8361879999999999,8.155,-384.93,179.0775
807,274995,0.64782,-0.41846000000000005,-0.79178,16.065,-389.2875,183.7325
808,275091,0.671244,-0.355752,-0.778604,24.5,-384.2125,187.6
809,275187,0.70638,-0.327204,-0.9318360000000001,31.99,-367.6925,187.5475
810,275284,0.861808,-0.256444,-1.12606,33.145,-350.5775,175.1225
811,275380,0.9977159999999999,-0.099552,-1.35664,45.78,-341.1275,159.075
812,275476,1.048712,0.018056,-1.4635120000000001,72.905,-336.28,142.135
813,275573,1.115812,-0.027816000000000004,-1.511092,102.2525,-330.33,120.4525
814,275669,1.25294,-0.139812,-1.580632,121.1,-317.6425,92.2425
815,275765,1.461316,-0.299632,-1.672132,128.24,-298.76,59.6225
816,275861,1.7748560000000002,-0.310612,-1.80194,132.3525,-278.495,31.78
817,275958,2.209664,-0.21374400000000002,-1.771684,144.9525,-260.365,22.505
818,276054,2.6871720000000003,-0.278648,-1.5706280000000001,168.9975,-248.1675,31.885
819,276150,3.084648,-0.960628,-0.9725841000000001,189.6125,-231.5775,55.2475
820,276247,3.6512160000000002,-0.5058121,-0.671244,130.2525,-190.855,71.33
821,276343,3.494568,-0.024644,-0.532652,88.6375,-204.9425,94.01
822,276439,3.872036,0.42822,-0.333548,91.56,-182.42,134.47
823,276535,3.5868,0.44896,0.6161,110.0925,-183.3475,184.94
824,276632,3.257888,0.524112,1.2627,97.12501,-138.1625,203.07
825,276728,3.1512599999999997,0.5968241,1.496208,68.32,-78.47,186.4625
826,276824,3.24398,0.8142281,1.408612,25.06,-15.47,157.57
827,276921,3.260084,0.65758,1.423008,-0.07,38.85,115.955
828,277017,3.540928,0.431148,1.248792,-25.1825,103.95,75.3375
829,277113,3.812012,-0.16689600000000002,1.262456,-57.7325,148.82,39.9525
830,277209,-0.769332,2.137196,0.488976,-170.2925,171.5525,-11.83
831,277306,0.12053599999999999,0.72346,-2.627392,-183.33,263.235,-133.0525
832,277402,2.934832,0.868152,-2.8016080000000003,-121.6075,338.065,-157.2025
833,277498,2.525644,0.442616,-2.0112919999999996,-105.595,226.24,-134.5575
834,277595,1.807064,-1.2719719999999999,-1.83122,-79.5725,193.5325,-135.87
835,277691,0.635864,-1.4964520000000001,-0.9108521,-136.5525,103.495,-126.4375
836,277787,0.8996280999999999,-0.42895200000000006,-2.040816,-196.595,85.365,-106.925
837,277883,1.331752,1.578924,-1.666764,-204.26,24.01,-84.805
838,277980,0.8579041,-0.48702399999999996,-0.9628241,-95.5675,-39.3925,-69.055
839,278076,0.38795999999999997,-0.355752,-0.957944,-30.205,-26.67,-25.9175
840,278172,0.49751599999999996,0.029768,-1.0279719999999999,-47.145,-23.2925,-20.3175
841,278269,0.417728,-0.022936,-0.9943001,-30.345,-18.5675,-18.9525
842,278365,0.38795999999999997,-0.217892,-0.9171961,-11.865,-16.7825,-11.935
843,278461,0.41504399999999997,-0.31451599999999996,-0.863028,-6.1775,-18.375,-10.0275
844,278557,0.396988,-0.172996,-0.9120720999999999,-14.665,-18.69,-10.605
845,278654,0.359656,-0.29133600000000004,-0.8906,-10.0625,-17.3075,-9.87
846,278750,0.367464,-0.17324,-0.90646,-10.885,-14.14,-8.225
847,278846,0.37576,-0.213256,-0.8937719999999999,-9.765,-10.185,-7.5775
848,278943,0.3782,-0.182024,-0.9089001,-7.7175,-7.595,-5.88
849,279039,0.382592,-0.188124,-0.9054840000000001,-6.0375,-5.5825,-4.7425
850,279135,0.379176,-0.209352,-0.9079241,-4.095,-3.3775,-3.8325
851,279231,0.3782,-0.180072,-0.907436,-2.52,-1.82,-3.6575
852,279328,0.380396,-0.130052,-0.904752,-0.77,-0.42,-3.1675
853,279424,0.374784,-0.149084,-0.9093880999999999,3.6225,1.3825,-1.505
854,279520,0.374052,-0.195932,-0.897432,7.49,2.695,-0.525
855,279616,0.380884,-0.243024,-0.8762040000000001,8.89,4.6375,-0.595
856,279713,0.355996,-0.214232,-0.8957241,8.19,6.23,-1.47
857,279809,0.36112,-0.199104,-0.90646,8.715,8.4875,-2.3625
858,279905,0.396744,-0.18788,-0.8918200000000001,8.855,11.1825,-2.73
859,280002,0.39405999999999997,-0.182024,-0.891576,10.57,13.2475,-2.3975
860,280098,0.35843600000000003,-0.200324,-0.893284,13.16,14.7875,-2.0125
861,280194,0.349408,-0.23887600000000003,-0.8720559999999999,14.1575,16.24,-1.855
862,280291,0.393572,-0.21594000000000002,-0.903532,12.81,19.9675,-3.5525
863,280387,0.36575599999999997,-0.225212,-0.89426,15.1725,21.0875,-5.0575
864,280483,0.371368,-0.22033200000000003,-0.9049959999999999,16.1875,23.905,-5.9675
865,280579,0.3904,-0.2562,-0.898164,17.36,26.635,-7.28
866,280676,0.380396,-0.2196,-0.8945040000000001,15.89,28.4025,-8.4525
867,280772,0.424804,-0.264496,-0.8752280000000001,15.295,32.0075,-9.38
868,280868,0.411872,-0.230336,-0.864492,14.7875,32.5675,-9.73
869,280964,0.429196,-0.20642399999999997,-0.856196,13.4575,34.79,-10.43
870,281061,0.423096,-0.217892,-0.87474,14.385,36.155,-10.465
871,281157,0.410652,-0.244488,-0.8762040000000001,13.965,38.0625,-10.5875
872,281253,0.41406800000000005,-0.29377600000000004,-0.876692,12.915,41.2475,-12.3725
873,281350,0.407724,-0.306464,-0.886452,11.9175,45.4825,-15.6275
874,281446,0.398696,-0.303292,-0.91012,12.11,51.9225,-19.5475
875,281542,0.394304,-0.285724,-0.9252481,12.5125,62.125,-23.695
876,281638,0.36892800000000003,-0.252784,-0.9706319999999999,11.83,77.2275,-27.5975
877,281735,0.38795999999999997,-0.264252,-0.9711200999999999,14.6475,95.935,-31.745
878,281831,0.40821199999999996,-0.250832,-0.981612,14.9275,116.9875,-37.6775
879,281927,0.392352,-0.256444,-0.9823440999999999,15.3825,140.735,-45.885
880,282024,0.34257600000000005,-0.318176,-1.03334,17.6925,169.2775,-56.0
881,282120,0.314272,-0.345504,-1.035536,18.2,202.6325,-68.915
882,282216,0.260592,-0.42016800000000004,-1.067744,18.865,241.36,-86.22251
883,282312,0.26108000000000003,-0.394304,-1.1009280000000001,17.5875,287.455,-109.69
884,282409,0.171776,-0.469944,-1.066036,24.36,342.5975,-139.3175
885,282505,0.193004,-0.342088,-0.9708760000000001,27.7725,405.5625,-173.39
886,282601,0.14005599999999999,-0.359168,-0.8400921,47.8275,468.685,-206.605
887,282697,0.20008,-0.186416,-0.8471681000000001,81.25251,530.7225,-228.3925
888,282794,1.101172,0.07612801,-1.102392,151.34,570.4475,-219.0825
889,282890,2.572004,-0.6019479999999999,-1.551596,296.66,573.405,-175.28
890,282986,3.975736,-1.1446040000000002,-1.8512279999999999,393.7675,553.385,-139.16
891,283083,3.9576800000000003,-1.033828,-1.85684,366.625,407.82,-172.3225
892,283179,2.591036,-0.758108,-2.469036,330.575,215.7225,-222.95
893,283275,0.8376520000000001,-0.8364321,-3.2957080000000003,368.2,23.0825,-218.085
894,283371,-1.375916,-1.173152,-2.112064,357.9625,-165.725,-216.2825
895,283468,-1.3973879999999999,-1.60796,-1.479372,271.1275,-217.315,-213.465
896,283564,-0.789828,-1.6399240000000002,-1.536956,238.3675,-191.73,-177.9925
897,283660,-0.8398479999999999,-1.6967759999999998,-1.2519639999999999,211.8025,-204.645,-104.125
898,283757,-0.484584,-1.680916,-1.2219520000000001,189.8575,-195.895,0.105
899,283853,-0.340136,-1.330288,-1.5013319999999999,188.65,-186.8125,109.6025
900,283949,-0.47360399999999997,-0.7747001,-1.265384,154.2975,-217.07,192.395
901,284046,-0.299388,-0.238144,-1.44082,127.26,-220.1675,244.895
902,284142,-0.037576,0.19642,-1.70312,112.9275,-220.115,272.3
903,284238,0.171044,0.651968,-1.7733919999999999,104.0375,-241.22,279.72
904,284334,0.33305999999999997,1.21878,-1.8058439999999998,94.46500999999999,-270.6725,267.5575
905,284431,0.589504,1.802916,-1.8768479999999998,99.47001,-295.9775,227.78
906,284527,0.820084,2.137684,-1.838296,139.9825,-316.4,163.52
907,284623,0.811056,1.914912,-1.779736,196.49,-332.3425,97.7025
908,284720,0.774212,1.7458200000000001,-1.7760759999999998,204.1725,-346.6575,22.8025
909,284816,0.9362280000000001,1.6609080000000003,-1.8602560000000001,174.8775,-351.3825,-48.44
910,284912,1.057984,1.528904,-1.9183279999999998,160.8425,-353.605,-91.1575
911,285008,1.081164,1.35542,-1.8404919999999998,162.715,-359.17,-107.1
912,285105,1.026996,1.15656,-1.690432,166.2675,-357.8225,-105.42
913,285201,0.897432,1.0321200000000001,-1.530124,156.1,-350.28,-99.7675
914,285297,0.820084,1.051152,-1.449848,134.575,-332.5175,-99.9075
915,285393,0.74664,1.1538760000000001,-1.41154,114.6075,-307.055,-109.5675
916,285490,0.7991,1.220488,-1.453752,106.33,-276.5875,-129.045
917,285586,1.051396,1.2395200000000002,-1.612108,110.7925,-245.5425,-152.18
918,285682,1.6399240000000002,1.2317120000000001,-2.0098279999999997,125.44,-223.6675,-175.3675
919,285779,2.0886400000000003,1.18462,-2.096448,137.41,-235.9525,-189.5075
920,285875,2.146468,1.139724,-1.73606,142.8175,-269.99,-192.5875
921,285971,1.905152,1.0675,-1.1472879999999999,136.535,-289.03,-191.275
922,286067,1.8351240000000002,1.024556,-0.6946681,113.2425,-277.5325,-185.78
923,286164,1.991528,1.057008,-0.417972,87.6925,-242.41,-176.2775
924,286260,2.247484,1.090192,-0.22862800000000003,71.8375,-199.9725,-164.5175
925,286356,2.463668,1.136308,-0.031232,70.0875,-163.5025,-157.4475
926,286452,2.5244240000000002,1.2117040000000001,0.156404,72.03,-133.385,-162.645
927,286549,2.451712,1.25294,0.306952,72.8875,-105.98,-178.7275
928,286645,2.37046,1.241716,0.346724,67.97,-76.37001,-198.135
929,286741,2.3528919999999998,1.144116,0.25132,57.7675,-46.4625,-210.8925
930,286838,2.297016,0.9955200000000001,0.162992,41.475,-22.8375,-215.215
931,286934,2.1825799999999997,0.8676640999999999,0.08662001,20.58,-4.34,-216.1075
932,287030,2.2591959999999998,0.77836,0.30744,-0.525,20.4225,-220.6925
933,287126,0.9516,-0.034892,-0.5063,-13.72,51.87,-256.4275
934,287223,1.4417959999999999,-1.7568,-1.410076,0.6825,36.3825,-268.7825
935,287319,1.3603,-4.569388,-2.0461840000000002,-19.11,10.92,-201.2325
936,287415,1.097756,-6.361568,0.09979600000000001,-167.125,-53.6025,-67.7075
937,287511,-0.36941599999999997,-1.31516,-0.70516,-192.8325,48.8075,24.92
938,287608,1.480592,1.378112,-1.085312,-116.305,140.105,14.1925
939,287704,0.29426399999999997,2.353136,-1.689212,-75.95,83.545,84.2275
940,287800,0.6810039999999999,2.894816,-1.753872,-63.1225,38.395,25.7775
941,287897,0.34794400000000003,-0.39723200000000003,-0.653188,-3.1675,-15.47,-55.58
942,287993,1.053348,-1.615524,-0.726876,26.1625,-8.54,-21.8225
943,288089,0.330376,0.40626,-0.989908,-37.45,1.015,3.0975
944,288186,0.337452,0.27694,-1.048956,-25.6725,-8.5225,-6.0025
945,288282,0.5502199999999999,-0.49702799999999997,-0.8317960999999999,3.255,-6.7725,-13.2475
946,288378,0.403332,-0.242292,-0.8713241,0.21,-7.0175,-5.425
947,288474,0.36892800000000003,-0.00122,-0.9291520000000001,-7.665,-8.6275,-5.635
948,288571,0.424072,-0.29158,-0.8935280999999999,0.805,-8.5925,-7.9275
949,288667,0.374296,-0.2745,-0.8679081,0.945,-8.2425,-5.565
950,288763,0.408456,-0.20496,-0.8959681,-3.605,-6.51,-5.145
951,288860,0.423828,-0.22667600000000002,-0.8949921000000001,-1.9075,-5.5125,-4.445
952,288956,0.40577199999999997,-0.17763199999999998,-0.898164,-0.98,-4.3925,-2.87
953,289052,0.406748,-0.151036,-0.9113399999999999,0.6125,-2.17,-1.6275
954,289148,0.39528,-0.143228,-0.9174399999999999,5.32,-0.49,-0.245
955,289245,0.3904,-0.16348,-0.9057280999999999,11.3925,1.225,1.4
956,289341,0.380396,-0.227408,-0.8810841,16.52,2.87,2.975
957,289437,0.36112,-0.219356,-0.8842561,17.885,3.535,4.095
958,289533,0.36356,-0.258884,-0.868396,18.375,4.5325,4.13
959,289630,0.38918,-0.252052,-0.8727879999999999,17.535,5.1275,3.3075
960,289726,0.41358,-0.242536,-0.8764481,16.5375,4.9875,2.6425
961,289822,0.420412,-0.27279200000000003,-0.8525360000000001,16.4675,4.0775,2.6425
962,289919,0.393328,-0.302316,-0.849608,14.8925,2.0825,2.135
963,290015,0.38064000000000003,-0.293532,-0.8664440000000001,12.495,0.8575,1.4525
964,290111,0.399428,-0.268156,-0.868152,10.4825,0.42,0.07
965,290208,0.390644,-0.27694,-0.862784,10.78,-0.0875,-0.42
966,290304,0.39918400000000004,-0.28181999999999996,-0.8752280000000001,10.815,0.2975,-0.945
967,290400,0.411872,-0.277916,-0.86498,9.9575,0.385,-1.855
968,290496,0.402844,-0.287188,-0.8637601,8.26,0.1575,-3.01
969,290593,0.398208,-0.27523200000000003,-0.8625401,6.0725,1.4875,-3.6575
970,290689,0.39161999999999997,-0.256688,-0.8727879999999999,5.3025,2.3975,-4.0775
971,290785,0.387228,-0.261812,-0.877912,6.8075,4.0775,-5.1275
972,290882,0.41675200000000007,-0.248392,-0.8866961,8.505,3.8675,-5.705
973,290978,0.37551599999999996,-0.290848,-0.8591241,9.5725,5.0575,-6.65
974,291074,0.39405999999999997,-0.258152,-0.8815719999999999,9.6775,9.7475,-9.5725
975,291170,0.3965,-0.312564,-0.8840120000000001,14.7175,11.1475,-9.9225
976,291267,0.380152,-0.275476,-0.8930401,15.715,12.8975,-11.9
977,291363,0.38503200000000004,-0.275476,-0.8752280000000001,18.13,16.275,-14.9275
978,291459,0.379176,-0.245952,-0.873276,21.4375,19.845,-16.3275
979,291556,0.373564,-0.257664,-0.892308,26.425,23.1875,-17.395
980,291652,0.40528400000000003,-0.239608,-0.8940161,28.91,27.755,-18.9
981,291748,0.437004,-0.25986,-0.8703481,32.5325,34.545,-18.13
982,291844,0.42456000000000005,-0.245464,-0.8881600000000001,36.1375,39.2,-15.085
983,291941,0.41016400000000003,-0.244732,-0.8769360999999999,40.915,44.87,-11.62
984,292037,0.423096,-0.293044,-0.8893800999999999,51.52,51.0475,-10.6575
985,292133,0.41260399999999997,-0.296704,-0.8967,61.1275,57.925,-11.5325
986,292230,0.438468,-0.323056,-0.885476,68.1625,68.04,-13.3875
987,292326,0.447984,-0.29792399999999997,-0.873764,71.5575,79.5725,-16.275
988,292422,0.47946000000000005,-0.33184,-0.81984,77.035,88.30501,-14.5775
989,292518,0.48653599999999997,-0.372832,-0.838628,78.3825,98.77,-10.815
990,292615,0.46018400000000004,-0.336476,-0.853512,71.4175,110.8275,-7.245
991,292711,0.444568,-0.395524,-0.8581479999999999,71.33,123.34,-6.8075
992,292807,0.47994799999999993,-0.376248,-0.8744960999999999,73.5175,139.0725,-8.96
993,292904,0.48433999999999994,-0.316712,-0.8491200000000001,82.4075,153.51,-12.6
994,293000,0.49263599999999996,-0.303292,-0.8437520000000001,96.005,170.6775,-12.95
995,293096,0.513376,-0.296704,-0.813984,109.4625,189.5425,-14.2275
996,293193,0.500444,-0.28938400000000003,-0.8195960999999999,121.7125,209.9475,-16.2225
997,293289,0.5363121,-0.229116,-0.8569280999999999,139.825,233.765,-18.2
998,293385,0.5655920999999999,-0.1098,-0.907192,164.465,261.8875,-14.4025
999,293481,0.5594920999999999,-0.05124001,-0.983564,195.9825,295.3475,-10.255
1000,293578,0.532652,0.004148001,-1.069452,234.885,341.7225,3.325
1001,293674,1.182424,-0.506788,-1.178032,310.4325,400.295,29.68
1002,293770,1.301008,-0.334524,-1.272704,465.57,482.7375,81.515
1003,293867,0.5397281,0.22448,-1.7028759999999998,569.52,563.2375,142.5375
1004,293963,1.741916,-1.1446040000000002,-1.2524520000000001,573.405,566.1075,174.02
1005,294059,1.868552,-1.199016,-0.6724640000000001,573.405,510.37,121.5375
1006,294155,3.4606519999999996,-2.35338,-0.7895840999999999,510.5975,406.21,67.48001
1007,294252,3.6753720000000003,-1.678232,-2.37778,275.975,79.17,125.23
1008,294348,2.899696,-1.7890080000000002,-2.516372,423.185,96.005,22.8375
1009,294444,0.638792,-1.315648,-2.57786,338.87,-130.7425,10.43
1010,294540,0.65758,-1.7097080000000002,0.383812,185.08,-391.125,-73.6225
1011,294637,2.175992,-0.868884,-3.460896,156.9575,-246.3125,-143.8325
1012,294733,0.695156,-1.0248,-2.1777,116.655,-380.94,-179.97
1013,294829,-0.141276,-0.256932,-1.326384,54.95,-500.6225,-187.5125
1014,294926,0.037088,-0.547048,-0.937448,70.7,-471.5025,-171.4475
1015,295022,-0.07612801,-0.6822239999999999,-0.9633120999999999,52.85,-466.69,-154.0875
1016,295118,0.08369201,-0.59658,-1.067012,14.28,-454.2475,-135.905
1017,295214,-0.122976,-0.118584,-0.781532,-29.26,-461.9475,-116.5325
1018,295311,-0.336964,0.374296,-0.676612,-33.1975,-448.875,-99.1375
1019,295407,-0.312076,0.734196,-0.769088,-5.8975,-418.215,-90.00251
1020,295503,-0.208132,0.805688,-0.9142680000000001,40.6175,-386.435,-82.355
1021,295600,0.020008,0.709064,-1.1346,82.1625,-363.1775,-73.5525
1022,295696,0.237168,0.5753520000000001,-1.3590799999999998,106.4175,-352.7825,-62.3175
1023,295792,0.38674000000000003,0.5343600000000001,-1.429352,107.485,-356.4575,-50.2775
1024,295888,0.508984,0.624884,-1.460584,92.62751,-362.775,-36.5225
1025,295985,0.579256,0.776896,-1.529392,81.46251,-366.6775,-23.1875
1026,296081,0.6380600000000001,0.9577,-1.550376,76.5975,-369.7225,-15.7325
1027,296177,0.68198,1.0431,-1.605032,77.8925,-371.455,-18.7425
1028,296274,0.7771399999999999,1.060424,-1.641144,80.97251,-371.8925,-32.935
1029,296370,0.863516,1.056032,-1.6653,81.69001,-372.7325,-54.775
1030,296466,0.8457040000000001,0.950868,-1.5584280000000001,78.365,-371.3675,-79.975
1031,296562,0.8388721,0.7659161,-1.516216,68.2325,-360.3775,-103.145
1032,296659,0.836676,0.5958479999999999,-1.476688,59.5525,-340.4625,-120.575
1033,296755,0.85644,0.435296,-1.4278879999999998,57.6625,-314.44,-129.4825
1034,296851,0.927688,0.197884,-1.39812,63.77,-281.61,-126.7
1035,296948,1.128256,-0.048556,-1.502308,69.0025,-243.9675,-113.75
1036,297044,1.5196319999999999,-0.238632,-1.652612,65.94,-212.1525,-94.22
1037,297140,1.937116,-0.349896,-1.655784,55.5625,-195.475,-68.79251
1038,297236,2.285304,-0.3721,-1.59942,43.505,-188.23,-38.7975
1039,297333,2.955572,-0.40138,-1.41032,42.735,-182.5425,-5.67
1040,297429,3.4362519999999996,-0.504836,-0.8518040000000001,43.365,-194.67,35.56
1041,297525,3.8656919999999997,-0.47653199999999996,-0.374296,37.625,-186.725,86.1
1042,297622,3.914736,-0.28621199999999997,0.276208,6.2475,-196.49,128.3275
1043,297718,3.7495480000000003,-0.091012,1.02114,-32.7075,-184.485,172.7075
1044,297814,3.5245800000000003,0.32403200000000004,1.70556,-77.40250999999999,-140.84,208.1625
1045,297910,3.362076,0.800564,2.007144,-113.5225,-65.3975,222.2325
1046,298007,3.7741919999999998,1.391532,1.8297560000000002,-113.47,19.39,198.6775
1047,298103,4.275124,1.6445599999999998,1.758996,-75.5475,86.3625,147.0875
1048,298199,3.9313279999999997,1.371524,1.766804,-15.9775,130.445,73.5525
1049,298296,-0.65758,0.798124,0.264496,56.56,133.28,-40.215
1050,298392,1.61772,-1.358104,-3.149552,32.7425,217.98,-150.3075
1051,298488,1.5098719999999999,-1.0821399999999999,-2.8189319999999998,-35.63,162.435,-155.8725
1052,298584,0.9433041,-0.7476161,-0.0793,-48.3875,49.1925,-106.9775
1053,298681,-0.044896,0.047336,-0.46116,-9.8175,133.7525,-44.59
1054,298777,1.039684,-0.186904,-1.400072,-10.535,169.47,-32.5675
1055,298873,2.428044,0.096624,-2.340204,-55.055,152.285,-68.32
1056,298970,0.466528,0.359168,-1.190232,-83.79001,42.245,-99.26001
1057,299066,0.8935280999999999,-0.41894799999999993,-1.3954360000000001,-60.4625,1.8025,-80.8325
1058,299162,0.87108,-0.2623,-0.9796600000000001,-26.075,7.805,-40.95
1059,299258,0.490928,-0.044896,-0.9652639999999999,-15.6275,-7.945,-22.9775
1060,299355,0.5121560000000001,-0.264984,-0.9191481,-1.1025,-9.8875,-10.3075
1061,299451,0.41284799999999994,-0.364536,-0.87718,3.7625,-10.3425,-6.09
1062,299547,0.420412,-0.15396400000000002,-0.9167081,-0.945,-10.0975,-4.6025
1063,299644,0.373076,-0.26961999999999997,-0.9037761000000001,9.3275,-9.4675,-0.3325
1064,299740,0.388936,-0.31451599999999996,-0.8869401,8.645,-8.9425,0.385
1065,299836,0.41382399999999997,-0.2501,-0.892552,2.31,-7.42,-1.715
1066,299933,0.426512,-0.22862800000000003,-0.8823040000000001,-0.9625,-7.28,-3.0275
1067,300029,0.400648,-0.25376,-0.8862081,-3.2025,-7.945,-1.4175
1068,300125,0.386008,-0.26108000000000003,-0.8967,-6.1425,-7.5425,-1.155
1069,300221,0.392596,-0.205204,-0.8996280999999999,-8.19,-7.6475,-3.745
1070,300318,0.3965,-0.185928,-0.907436,-6.8775,-8.1725,-5.6875
1071,300414,0.382836,-0.22691999999999998,-0.898408,-3.0625,-9.0125,-5.53
1072,300510,0.380152,-0.21716,-0.8937719999999999,-0.77,-9.2575,-4.7425
1073,300607,0.37990799999999997,-0.18446400000000002,-0.9001161,-0.5425,-9.31,-4.5325
1074,300703,0.373564,-0.21813600000000002,-0.887184,0.42,-9.765,-5.075
1075,300799,0.366976,-0.216428,-0.8906,-2.8875,-9.8175,-5.88
1076,300895,0.367708,-0.20837600000000003,-0.8935280999999999,-5.81,-9.8,-6.125
1077,300992,0.34404,-0.254004,-0.895236,-6.93,-9.38,-7.1225
1078,301088,0.347456,-0.24717199999999998,-0.891576,-9.415,-8.995,-11.2525
1079,301184,0.360632,-0.24082800000000001,-0.8813280000000001,-12.39,-8.4,-14.49
1080,301281,0.353312,-0.231068,-0.8862081,-14.63,-7.9275,-16.1175
1081,301377,0.367952,-0.204716,-0.8927959999999999,-16.31,-6.86,-17.675
1082,301473,0.36722,-0.200812,-0.886452,-16.8875,-5.985,-18.69
1083,301570,0.373808,-0.158844,-0.907192,-16.8525,-4.13,-18.69
1084,301666,0.363072,-0.119072,-0.91622,-12.705,-2.03,-16.38
1085,301762,0.36478,-0.11955999999999999,-0.9201241,-9.275,1.2425,-14.8925
1086,301858,0.333304,-0.09028,-0.944768,-4.6725,3.7625,-13.685
1087,301955,0.353068,-0.109556,-0.9372040999999999,2.9225,8.3475,-14.9275
1088,302051,0.362584,-0.085888,-0.9437921,7.875,14.875,-14.735
1089,302147,0.36282800000000004,-0.1403,-0.925736,14.63,20.8425,-12.74
1090,302244,0.386252,-0.11248399999999999,-0.9315921,17.465,26.7925,-10.115
1091,302340,0.353068,-0.101992,-0.944524,21.805,32.7775,-7.945
1092,302436,0.37088000000000004,-0.14396,-0.937448,26.67,41.125,-5.18
1093,302533,0.355996,-0.166164,-0.9433041,31.7975,50.155,-3.0275
1094,302629,0.377224,-0.181536,-0.954528,34.0725,59.71,-1.085
1095,302725,0.35868,-0.189588,-0.9716081,38.3075,71.75,1.47
1096,302821,0.34428400000000003,-0.262544,-0.9840521000000001,43.8725,88.13,2.5375
1097,302918,0.33305999999999997,-0.262544,-0.998692,46.1475,107.52,2.3275
1098,303014,0.324276,-0.273036,-0.9867360999999999,48.8075,130.095,1.19
1099,303110,0.315736,-0.2562,-1.012356,47.5475,154.7875,-2.4675
1100,303207,0.28694400000000003,-0.258884,-1.018456,47.0925,181.23,-8.365
1101,303303,0.244732,-0.259372,-1.02358,47.7925,212.8875,-17.0975
1102,303399,0.202764,-0.291092,-1.075308,46.375,251.7725,-29.6625
1103,303495,0.09150001,-0.413092,-1.100684,46.3225,296.8875,-47.145
1104,303592,-0.004636001,-0.380152,-1.1004399999999999,41.055,351.75,-72.4675
1105,303688,0.07881200000000001,-0.325496,-1.02724,36.82,420.665,-102.3225
1106,303784,0.038551999999999996,-0.3538,-0.9857600000000001,38.85,491.8025,-130.2875
1107,303881,0.178608,-0.338916,-0.796904,42.8575,557.515,-152.9325
1108,303977,0.697596,-0.319884,-0.813984,68.11,573.405,-164.185
1109,304073,1.253672,-0.35746,-1.7099520000000001,130.0075,573.405,-144.5675
1110,304169,2.940444,-0.53314,-1.569408,208.5125,573.405,-124.46
1111,304266,3.009984,-0.930372,-1.588684,239.085,573.405,-134.0675
1112,304362,3.8647160000000005,-1.269288,-1.325896,188.755,573.16,-155.995
1113,304458,3.55142,-1.49328,-2.243336,102.2525,509.25,-193.06
1114,304555,4.065772,-1.620892,-3.2208,55.5275,427.2625,-228.445
1115,304651,2.824056,-1.783884,-4.348324,37.6425,245.1925,-193.515
1116,304747,1.5128,-1.717516,-4.028683999999999,29.26,-85.71500999999999,-107.5375
1117,304843,-1.8702599999999998,-1.104832,-1.553792,-101.64,-398.755,-111.8075
1118,304940,2.150128,-1.695556,-4.3627199999999995,-8.505,-214.235,-46.3575
1119,305036,-0.15054800000000002,-1.092388,-1.71898,6.7375,-387.5725,5.7575
1120,305132,-1.563308,-0.8652241,-0.22252800000000003,-92.62751,-500.0275,-59.535
1121,305229,-0.487756,-0.780312,-1.028704,-41.055,-379.05,-32.7775
1122,305325,-0.10858,-0.635864,-0.9962521000000001,-42.2625,-397.425,-14.84
1123,305421,0.059536,-0.80886,-0.9093880999999999,-25.9525,-415.135,6.37
1124,305517,0.083936,-0.953308,-0.8252079999999999,-12.775,-431.515,29.9425
1125,305614,0.199348,-0.9874681000000001,-0.7869,-14.14,-444.2375,51.8175
1126,305710,0.397476,-0.9093880999999999,-0.77836,-18.7075,-448.105,70.14
1127,305806,0.521184,-0.8754719999999999,-0.7256560000000001,-17.7625,-447.4225,89.9675
1128,305903,0.509228,-0.763476,-0.6653880999999999,-11.0075,-443.94,112.4725
1129,305999,0.490928,-0.665632,-0.6080479999999999,1.47,-434.0175,134.8725
1130,306095,0.56608,-0.6141479999999999,-0.63562,16.59,-412.4575,156.17
1131,306191,0.8210601000000001,-0.6273241,-0.7998321,25.2175,-382.1475,172.445
1132,306288,0.9274440999999999,-0.643184,-0.9674601,24.01,-358.12,180.6525
1133,306384,0.9254921,-0.468724,-1.19926,19.145,-340.095,180.075
1134,306480,0.9950319999999999,-0.285236,-1.371768,26.0925,-328.4225,172.97
1135,306577,1.065304,-0.236436,-1.462292,42.7875,-320.425,162.4875
1136,306673,1.131184,-0.28181999999999996,-1.553792,56.4725,-307.2825,144.2875
1137,306769,1.192184,-0.317932,-1.619184,61.39,-290.99,118.0025
1138,306865,1.321504,-0.42163199999999995,-1.62504,60.83,-271.425,85.82
1139,306962,1.563308,-0.444324,-1.652368,60.9175,-248.92,56.245
1140,307058,2.1008400000000003,-0.342332,-1.802428,74.235,-226.8,43.12
1141,307154,2.80234,-0.33671999999999996,-1.9010040000000001,113.365,-215.565,59.4475
1142,307251,3.444548,-0.372344,-1.694092,164.22,-226.555,104.335
1143,307347,4.068212,-0.5355800999999999,-1.261724,197.0675,-228.97,157.78
1144,307443,3.685864,-0.456524,-0.574864,157.815,-233.415,198.24
1145,307540,3.482368,-0.7539600000000001,0.110044,82.7575,-239.61,223.2825
1146,307636,4.119696,-0.154452,0.9286639999999999,-6.86,-205.485,231.175
1147,307732,3.777364,0.403332,1.352492,-63.735,-152.5475,193.4625
1148,307828,3.178832,0.892308,1.948584,-71.75,-118.4225,140.665
1149,307925,3.82836,1.007476,1.738012,-22.4525,-26.705,92.85501
1150,308021,3.71734,0.721264,1.5645280000000001,30.6425,13.79,51.7125
1151,308117,3.493348,0.38308000000000003,1.297348,44.9225,41.545,62.37
1152,308214,3.600708,-0.393816,1.49694,39.7425,92.3125,58.8525
1153,308310,2.639836,0.053436000000000004,0.06075601,7.8575,193.0775,38.5175
1154,308406,-3.578992,0.8003201,-0.84546,-76.475,123.7775,-16.1525
1155,308502,-0.323788,0.35746,-1.731912,-86.4675,317.275,-121.59
1156,308599,3.9098559999999996,1.017968,-2.287988,-92.55751,386.7325,-131.565
1157,308695,2.2701759999999997,0.9289081,-1.515728,-75.5475,237.125,-128.065
1158,308791,1.881484,-0.606584,-2.5071,27.58,244.3525,-100.9225
1159,308888,2.43878,-2.42536,-1.527684,-17.0975,164.5875,-128.59
1160,308984,0.799588,-0.47384799999999994,-1.235372,-132.44,94.1325,-96.77501
1161,309080,0.9330560999999999,0.8845,-2.0754639999999998,-134.4175,50.505,-72.1175
1162,309176,0.7571321,0.381372,-1.23708,-90.685,4.8475,-57.4875
1163,309273,0.740296,-0.9955200000000001,-0.791536,-9.17,-14.7525,-35.245
1164,309369,0.47946000000000005,0.027816000000000004,-1.06018,-19.8625,-6.37,-9.555
1165,309465,0.47702,-0.11394800000000001,-0.9757561,-8.4525,-4.865,-4.34
1166,309562,0.410408,-0.398696,-0.8483879999999999,14.7,-6.65,1.0675
1167,309658,0.3599,-0.303048,-0.874252,12.6175,-6.7725,4.375
1168,309754,0.364048,-0.3477,-0.8723001,5.32,-5.8975,2.2925
1169,309850,0.363072,-0.305732,-0.8720559999999999,4.13,-7.9625,-0.4725
1170,309947,0.38966799999999996,-0.282308,-0.864492,-0.49,-10.605,-3.9025
1171,310043,0.36648800000000004,-0.2318,-0.8937719999999999,-6.7375,-10.3775,-6.23
1172,310139,0.36844,-0.270596,-0.8796200000000001,-4.8475,-8.435,-6.2475
1173,310236,0.381372,-0.232044,-0.8967,-8.715,-6.37,-7.28
1174,310332,0.366,-0.192272,-0.9203680000000001,-6.9825,-6.125,-7.805
1175,310428,0.39479200000000003,-0.21862399999999999,-0.9001161,-0.63,-4.305,-6.93
1176,310524,0.36722,-0.251808,-0.8903561,3.3775,-3.0275,-6.125
1177,310621,0.373564,-0.21301199999999998,-0.8949921000000001,5.2325,-1.9775,-6.4575
1178,310717,0.362584,-0.243024,-0.8901120000000001,7.3675,-0.525,-6.7725
1179,310813,0.357948,-0.26913200000000004,-0.8849879999999999,6.335,0.7525,-7.5775
1180,310910,0.37332,-0.294508,-0.860344,5.5125,1.365,-9.3625
1181,311006,0.374784,-0.26352,-0.8708360999999999,2.345,1.1725,-11.375
1182,311102,0.38186,-0.270352,-0.8701040000000001,-0.9975,0.0875,-13.4225
1183,311198,0.38356799999999996,-0.296216,-0.849608,-3.185,-1.96,-15.5225
1184,311295,0.378444,-0.257664,-0.8703481,-8.12,-3.7625,-17.8325
1185,311391,0.396988,-0.25961599999999996,-0.8676640999999999,-11.41,-3.7975,-19.145
1186,311487,0.38918,-0.23668000000000003,-0.88328,-14.98,-4.2525,-19.705
1187,311584,0.3721,-0.13859200000000002,-0.9171961,-14.28,-1.7675,-18.375
1188,311680,0.372832,-0.13859200000000002,-0.93696,-6.6325,4.48,-15.1725
1189,311776,0.35136,-0.213256,-0.930616,2.835,9.4325,-14.2625
1190,311872,0.378932,-0.141764,-0.9347639999999999,6.9825,15.7325,-14.525
1191,311969,0.395524,-0.15738,-0.9237841,14.2625,21.8925,-13.0725
1192,312065,0.384056,-0.177876,-0.9286639999999999,20.16,28.385,-10.045
1193,312161,0.354044,-0.139812,-0.945256,23.765,36.155,-7.0
1194,312258,0.378444,-0.20618000000000003,-0.930616,30.695,45.745,-4.76
1195,312354,0.367464,-0.24668400000000001,-0.921344,36.015,55.685,-2.87
1196,312450,0.349896,-0.29572800000000005,-0.9293961,39.41,66.675,-1.9425
1197,312546,0.347456,-0.283528,-0.9440360999999999,40.145,78.9075,-2.3625
1198,312643,0.34648,-0.259128,-0.9830760000000001,43.365,94.29,-3.85
1199,312739,0.31598000000000004,-0.26352,-0.9903959999999999,47.7575,112.8925,-4.8825
1200,312835,0.322324,-0.23546,-1.00528,46.9175,136.9025,-6.1775
1201,312932,0.322812,-0.24766,-1.0023520000000001,47.0925,164.5875,-9.555
1202,313028,0.28767600000000004,-0.266448,-1.026752,46.0425,195.51,-15.6275
1203,313124,0.22716399999999998,-0.380884,-1.010892,49.4725,228.13,-26.2325
1204,313220,0.152988,-0.365268,-1.01748,45.465,268.59,-41.44
1205,313317,0.14274,-0.424804,-1.006744,40.775,316.96,-60.935
1206,313413,0.032208,-0.396256,-1.029192,41.02,371.4375,-83.94751
1207,313509,-0.01342,-0.388692,-1.01138,44.975,444.6925,-106.9425
1208,313606,0.053436000000000004,-0.5577840000000001,-0.8418,56.4025,531.2475,-132.265
1209,313702,0.169336,-0.692228,-0.9552601000000001,72.8,572.3025,-157.8325
1210,313798,1.0126,-0.15128,-1.1855959999999999,107.135,573.3875,-170.065
1211,313894,2.583228,-0.38674000000000003,-2.020076,218.26,573.405,-184.03
1212,313991,2.645936,-0.996008,-1.422032,316.995,573.3875,-166.0225
1213,314087,3.01706,-1.412272,-1.029436,244.825,573.405,-159.145
1214,314183,4.183868,-1.5342719999999999,-1.8109680000000001,137.48,564.8825,-197.9775
1215,314279,4.261948,-1.748016,-2.3272720000000002,77.665,446.8625,-207.235
1216,314376,3.6856199999999997,-2.1535439999999997,-4.214124,79.065,330.9775,-204.0675
1217,314472,2.393396,-1.9837200000000001,-4.228276,26.215,4.8125,-126.8575
1218,314568,-0.316956,-1.778516,-2.139392,-28.245,-275.1875,-48.8425
1219,314664,-1.633092,-1.1960879999999998,-2.33874,-154.875,-405.44,-82.6875
1220,314761,1.997384,-1.497672,-3.219092,9.31,-174.9125,9.17
1221,314857,-0.8342360000000001,-0.543388,-1.1204479999999999,-77.84,-462.4725,-11.3225
1222,314953,-0.9999121,-0.6709999999999999,-0.7571321,-75.88,-466.1475,-31.815
1223,315050,-0.072712,-0.6505041,-1.190964,-40.0575,-395.4825,-5.285
1224,315146,0.09028,-0.6912520000000001,-1.015284,-49.9275,-434.3325,8.575
1225,315242,0.052948,-0.6878361,-0.7666480999999999,-43.365,-452.305,28.07
1226,315338,0.214964,-0.8010520000000001,-0.8039801,-42.3325,-465.9025,40.0925
1227,315435,0.293288,-0.6956439999999999,-0.790804,-44.0825,-463.8725,52.01
1228,315531,0.435784,-0.656116,-0.796904,-40.1275,-463.8725,64.225
1229,315627,0.5602239999999999,-0.6304960000000001,-0.763232,-21.175,-460.04,80.045
1230,315724,0.5587601,-0.598288,-0.687104,-0.49,-456.5575,97.685
1231,315820,0.609268,-0.595604,-0.62342,18.48,-443.1525,117.4425
1232,315916,0.7027201,-0.702232,-0.666608,28.35,-416.255,135.9925
1233,316012,0.786412,-0.772504,-0.803492,23.17,-385.7525,145.18
1234,316109,0.830332,-0.618784,-1.01748,13.685,-363.475,143.99
1235,316205,0.9093880999999999,-0.353556,-1.269044,18.2,-345.52,140.1225
1236,316301,0.942084,-0.316224,-1.3790879999999999,54.5475,-331.45,137.76
1237,316397,0.9774639999999999,-0.42333999999999994,-1.516948,91.35,-310.7825,132.09
1238,316494,1.145824,-0.633424,-1.598444,110.285,-288.8025,117.46
1239,316590,1.414468,-0.743468,-1.658712,112.63,-266.21,93.765
1240,316686,1.8824599999999998,-0.8193521,-1.7882759999999998,116.7425,-243.0225,70.56
1241,316783,2.501,-0.8249639999999999,-1.7519200000000001,136.9025,-228.7425,62.79
1242,316879,3.189324,-0.9638,-1.458388,173.565,-226.0475,77.665
1243,316975,3.9101,-0.93696,-1.210728,202.5975,-212.5025,110.215
1244,317071,3.404532,-0.892552,-0.5443640000000001,189.35,-227.5,157.745
1245,317168,3.540928,-0.5948720000000001,-0.320372,160.79,-211.7675,210.21
1246,317264,3.7027,-0.16226,0.187392,128.0825,-183.295,252.5425
1247,317360,3.475048,-0.055144000000000006,0.670268,78.8025,-147.7175,260.1375
1248,317457,3.26594,0.187148,1.182668,8.2425,-108.325,250.985
1249,317553,3.554104,0.849852,1.206824,-60.6025,-40.3025,213.1325
1250,317649,3.721732,1.437648,1.2336639999999999,-68.705,1.9075,164.0975
1251,317745,3.716364,1.63724,1.182424,-36.4175,13.7375,100.2225
1252,317842,3.290828,1.199748,1.092388,9.4325,23.555,49.7525
1253,317938,3.177368,-0.16714,1.465708,42.0525,55.51,9.625
1254,318034,3.843732,-0.35672800000000005,0.8757159999999999,-11.2,168.77,-41.44
1255,318131,-2.785748,1.321016,-0.57096,-138.5475,130.55,-95.02501
1256,318227,-0.330376,0.11736400000000001,-2.141832,-133.035,271.04,-197.085
1257,318323,4.081144,0.544608,-2.176968,-74.8125,368.7775,-174.2125
1258,318419,2.6049439999999997,0.570716,-1.8470799999999998,-97.7025,229.3025,-165.0075
1259,318516,2.012756,-2.0252,-2.307264,-32.165,197.75,-151.0425
1260,318612,0.8969440000000001,-1.8173119999999998,-0.892552,-119.2975,105.875,-148.2775
1261,318708,0.8147161,-0.18446400000000002,-1.238544,-196.105,98.2975,-120.7325
1262,318804,1.5791680000000001,1.18218,-2.544676,-207.585,72.835,-99.33001
1263,318901,0.70638,-0.080764,-1.0972680000000001,-125.1425,-32.165,-80.605
1264,318997,0.646844,-0.7422481,-0.874252,-28.0175,-28.245,-37.2925
1265,319093,0.452132,0.35282399999999997,-1.14802,-53.4625,-20.2475,-18.7775
1266,319190,0.41723999999999994,-0.173484,-0.9484280999999999,-16.0475,-17.22,-11.5675
1267,319286,0.37551599999999996,-0.282796,-0.8840120000000001,4.725,-12.915,-3.71
1268,319382,0.380396,-0.328912,-0.876692,-3.885,-13.86,-3.92
1269,319478,0.374784,-0.288896,-0.887916,-10.08,-16.1875,-6.1075
1270,319575,0.37576,-0.276696,-0.8815719999999999,-10.99,-18.515,-7.3325
1271,319671,0.359412,-0.242048,-0.8827921000000001,-13.9125,-20.7375,-9.7125
1272,319767,0.377224,-0.183732,-0.904508,-14.5425,-16.0825,-10.08
1273,319864,0.35282399999999997,-0.265716,-0.883524,-9.6775,-10.2725,-8.295
1274,319960,0.364536,-0.242536,-0.876692,-13.0375,-7.105,-7.6125
1275,320056,0.35160399999999997,-0.19276,-0.917684,-14.805,-6.5625,-7.525
1276,320152,0.367464,-0.193736,-0.913536,-12.46,-6.4575,-8.365
1277,320249,0.367952,-0.193248,-0.898408,-7.455,-6.2475,-8.26
1278,320345,0.365268,-0.18470799999999998,-0.9006040999999999,-6.1775,-5.39,-8.2075
1279,320441,0.349164,-0.200324,-0.9067040000000001,-3.6925,-4.3225,-8.12
1280,320537,0.343796,-0.199104,-0.913048,-4.0075,-2.73,-8.785
1281,320634,0.343796,-0.23546,-0.902068,-3.4125,-1.295,-9.5725
1282,320730,0.35136,-0.21276799999999998,-0.892064,-5.4425,0.105,-10.9025
1283,320826,0.345992,-0.22106399999999998,-0.887184,-5.8275,1.0675,-12.5475
1284,320923,0.351848,-0.180804,-0.9147559999999999,-9.0825,3.9725,-13.7725
1285,321019,0.378688,-0.148596,-0.9154880999999999,-11.865,7.665,-13.755
1286,321115,0.359168,-0.164212,-0.8908440999999999,-2.4325,6.9825,-13.475
1287,321211,0.36892800000000003,-0.12248800000000001,-0.9174399999999999,-0.14,9.9575,-12.1275
1288,321308,0.358192,-0.09418401,-0.9259799999999999,2.0825,13.44,-11.025
1289,321404,0.370636,-0.18104800000000001,-0.9006040999999999,9.8,16.0825,-11.025
1290,321500,0.36234,-0.142496,-0.9089001,11.8825,19.8625,-11.2
1291,321596,0.36722,-0.198128,-0.8996280999999999,14.7175,24.2725,-10.01
1292,321693,0.324276,-0.135908,-0.9450120000000001,13.4575,28.945,-8.5575
1293,321789,0.359412,-0.21594000000000002,-0.9128040000000001,18.34,36.2075,-8.2075
1294,321885,0.35502,-0.22667600000000002,-0.9289081,17.78,42.84,-8.68
1295,321982,0.36966,-0.251808,-0.9089001,20.2475,50.19,-10.08
1296,322078,0.381616,-0.20496,-0.9362280000000001,18.025,59.395,-11.1125
1297,322174,0.364536,-0.231068,-0.9635560999999999,20.5975,70.1575,-11.2525
1298,322270,0.335988,-0.228872,-1.004304,23.03,84.10501,-11.025
1299,322367,0.344528,-0.2257,-1.017236,24.2375,104.2125,-11.9175
1300,322463,0.354288,-0.15201199999999998,-1.03944,25.4275,128.1875,-13.86
1301,322559,0.316224,-0.160308,-1.043344,31.7275,154.245,-15.995
1302,322655,0.284992,-0.197152,-1.064816,34.79,186.025,-19.53
1303,322752,0.22789600000000002,-0.21032800000000001,-1.087752,38.0975,222.5125,-27.265
1304,322848,0.09735601,-0.317932,-1.1448479999999999,41.0725,266.28,-40.7225
1305,322944,0.027083999999999997,-0.370392,-1.087508,38.9725,318.815,-60.9
1306,323040,0.062464,-0.427976,-1.149484,34.3525,383.95,-88.55
1307,323137,-0.042944,-0.334524,-0.9713639999999999,19.1975,452.4275,-117.67
1308,323233,0.062952,-0.446276,-0.77836,12.985,533.435,-153.265
1309,323329,0.110044,-0.76494,-0.8532681000000001,32.9175,572.7925,-181.475
1310,323426,0.60634,-0.367708,-0.8471681000000001,73.885,573.405,-193.1475
1311,323522,2.2530959999999998,0.390888,-1.8302439999999998,176.6625,573.405,-161.0525
1312,323618,4.17972,-1.090924,-1.6552959999999999,372.47,573.405,-89.6875
1313,323714,4.043568,-1.7082439999999999,-1.724104,371.14,573.405,-110.145
1314,323811,4.345884,-1.647732,-2.05082,185.7275,521.78,-234.3775
1315,323907,3.690744,-1.7802240000000003,-2.965332,18.1475,384.65,-326.41
1316,324003,3.429664,-1.80682,-4.383948,-53.2525,280.245,-313.5475
1317,324099,1.76656,-1.3407799999999999,-4.587688,-34.3175,-47.95,-203.1575
1318,324196,-1.284416,-0.49288000000000004,-0.49312399999999995,-25.69,-377.44,-132.825
1319,324292,0.787144,-1.6272360000000001,-3.7985919999999997,93.2575,-286.3525,-94.2025
1320,324388,0.426512,-1.904664,-1.9075919999999997,177.275,-300.37,3.8325
1321,324485,-1.765828,-1.2526959999999998,0.001464,11.48,-499.8875,-35.7175
1322,324581,-0.9028,-0.998448,-0.7664041,10.0275,-380.52,-20.475
1323,324677,-0.270596,-0.6502600000000001,-1.0582280000000002,-0.9625,-350.5775,5.2325
1324,324773,-0.18324400000000002,-0.525332,-0.9181720999999999,18.445,-377.7375,39.55
1325,324870,-0.139568,-0.604144,-0.81374,62.51,-388.6925,80.29
1326,324966,-0.088328,-0.692716,-0.7759199999999999,81.25251,-393.1725,113.785
1327,325062,0.10248,-0.627568,-0.8466800999999999,76.79,-388.5875,136.8675
1328,325158,0.317932,-0.49288000000000004,-0.9235399999999999,64.5925,-382.4275,154.0525
1329,325255,0.386008,-0.314272,-0.9572120999999999,55.0375,-384.3525,168.5775
1330,325351,0.44164,-0.11028800000000001,-0.9901521000000001,55.475,-385.1575,179.2
1331,325447,0.5219159999999999,0.017812,-0.99918,64.33,-382.725,184.065
1332,325543,0.6980841,0.0427,-1.08946,76.0725,-373.9575,181.0725
1333,325640,0.8723001,-0.053191999999999996,-1.223172,84.8225,-362.39,168.56
1334,325736,0.8410681000000001,0.021716,-1.41642,86.5375,-353.325,149.065
1335,325832,0.9252481,0.07588400000000001,-1.6296760000000001,94.78,-347.1125,128.9925
1336,325929,1.02358,0.07832401,-1.724104,109.06,-343.7,114.52
1337,326025,1.121668,-0.082228,-1.8214599999999999,121.03,-337.5225,100.45
1338,326121,1.269044,-0.24570799999999998,-1.9041759999999999,124.53,-325.9025,84.98
1339,326217,1.45424,-0.365512,-1.9244279999999998,119.8225,-309.855,69.0375
1340,326314,1.838784,-0.42700000000000005,-2.0051919999999996,120.645,-288.0675,60.3575
1341,326410,2.4029119999999997,-0.438956,-1.9190599999999998,142.2225,-268.24,70.7175
1342,326506,2.961672,-0.47482399999999997,-1.665544,175.7175,-254.7475,101.325
1343,326602,3.647556,-0.7451760000000001,-1.375428,205.38,-236.285,146.335
1344,326699,4.045276,-1.109712,-0.8764481,196.5425,-227.4475,193.76
1345,326795,3.8534919999999997,-0.922076,-0.154452,125.195,-213.465,234.29
1346,326891,4.0077,-0.40528400000000003,0.487756,33.5475,-172.445,255.7975
1347,326987,3.872524,0.10418800000000002,1.12362,-30.9575,-152.32,253.2425
1348,327084,3.650728,0.60512,1.373476,-72.0825,-118.965,241.29
1349,327180,3.494568,0.677588,1.7394759999999998,-81.795,-36.9075,233.31
1350,327276,4.075532,1.3886040000000002,1.70312,-69.2825,31.57,195.335
1351,327372,3.772728,1.42496,1.558184,-38.8675,65.9225,142.8
1352,327469,3.4796839999999998,1.106052,1.238056,-7.6825,96.6,115.5
1353,327565,3.065372,0.09906401,1.072136,11.8825,135.9225,75.46
1354,327661,2.332884,0.288408,-0.518256,-18.585,203.63,23.065
1355,327757,-2.599576,-0.382348,-2.617388,-81.025,140.49,-31.6575
1356,327854,-1.057984,-0.45164399999999993,-1.458632,-102.7775,216.93,-121.275
1357,327950,2.967284,1.939068,-1.283928,-143.815,329.21,-132.5275
1358,328046,1.899784,1.464,-0.9828321,-113.96,250.6875,-137.445
1359,328143,1.6452919999999998,0.33379200000000003,-2.33142,10.64,261.0825,-118.6675
1360,328239,2.9758240000000002,-3.0380439999999997,-2.013976,-11.1475,184.5375,-154.9275
1361,328335,0.601216,-0.955016,-1.000644,-151.8825,74.5675,-128.38
1362,328431,1.480348,0.07222401,-2.173552,-169.015,50.1725,-96.4075
1363,328528,0.678076,1.125816,-1.303448,-146.195,8.925,-61.2675
1364,328624,0.686128,-0.9108521,-0.8532681000000001,-46.5675,-30.135,-45.9725
1365,328720,0.537044,-0.133224,-1.00528,-26.6875,-13.7025,-18.62
1366,328816,0.43188000000000004,0.10516400000000001,-1.043588,-29.05,-13.86,-11.4625
1367,328913,0.42748800000000003,-0.28181999999999996,-0.9230520000000001,0.665,-9.555,-3.7975
1368,329009,0.342088,-0.23472800000000002,-0.909632,4.7425,-9.1175,1.015
1369,329105,0.375272,-0.326228,-0.882548,4.41,-10.2725,-0.0525
1370,329202,0.364048,-0.28792,-0.8842561,-0.0525,-12.39,-2.4325
1371,329298,0.37746799999999997,-0.237168,-0.8937719999999999,-6.1425,-12.2675,-4.8475
1372,329394,0.36966,-0.211792,-0.903532,-6.265,-11.4275,-5.1275
1373,329490,0.362584,-0.232776,-0.8945040000000001,-4.8475,-9.52,-4.9525
1374,329587,0.368684,-0.24107199999999998,-0.888648,-5.145,-8.7325,-5.7575
1375,329683,0.363072,-0.22326,-0.8988959999999999,-6.3875,-8.645,-6.4575
1376,329779,0.366976,-0.21106,-0.9067040000000001,-6.3,-8.26,-6.4225
1377,329876,0.38064000000000003,-0.194712,-0.9079241,-5.355,-8.05,-6.3525
1378,329972,0.37551599999999996,-0.205936,-0.8893800999999999,-2.415,-7.4375,-6.055
1379,330068,0.36575599999999997,-0.196664,-0.909632,-2.73,-6.965,-6.3
1380,330164,0.35477600000000004,-0.24107199999999998,-0.8820601,-1.1025,-6.79,-6.5975
1381,330261,0.360144,-0.228384,-0.8901120000000001,-3.0275,-6.475,-7.56
1382,330357,0.359168,-0.260348,-0.877424,-1.505,-6.8775,-8.3825
1383,330453,0.34721199999999997,-0.24082800000000001,-0.8940161,-4.8125,-7.3675,-10.3775
1384,330549,0.354288,-0.229848,-0.889624,-6.8075,-7.4025,-12.915
1385,330646,0.34477199999999997,-0.20496,-0.892552,-8.2425,-7.1575,-15.0675
1386,330742,0.40967600000000004,-0.23228800000000002,-0.9154880999999999,-8.715,-6.685,-16.31
1387,330838,0.341844,-0.1952,-0.91012,-9.6425,-5.5475,-16.345
1388,330935,0.343552,-0.183,-0.903532,-10.4125,-2.8,-17.5875
1389,331031,0.353556,-0.134444,-0.9328120000000001,-10.9025,-0.665,-16.8525
1390,331127,0.34404,-0.175924,-0.9259799999999999,-5.1975,2.7825,-15.05
1391,331223,0.353068,-0.1647,-0.9259799999999999,-1.47,6.65,-14.595
1392,331320,0.33623200000000003,-0.199104,-0.931348,3.1325,11.34,-15.505
1393,331416,0.334036,-0.225212,-0.921832,8.715,15.8025,-16.7825
1394,331512,0.370636,-0.192028,-0.9137799999999999,7.3675,20.9125,-18.4275
1395,331608,0.373076,-0.194956,-0.9206120000000001,9.24,26.6175,-17.4825
1396,331705,0.320372,-0.178608,-0.9337880999999999,11.655,31.8675,-15.6275
1397,331801,0.363072,-0.167384,-0.9435479999999999,12.8975,39.8825,-14.2625
1398,331897,0.340136,-0.128344,-0.9720960999999999,15.855,49.525,-12.8625
1399,331994,0.324764,-0.12761199999999998,-1.01504,22.295,63.7175,-10.1675
1400,332090,0.324764,-0.185928,-1.022848,29.12,81.3575,-6.685
1401,332186,0.315736,-0.195932,-1.0321200000000001,34.475,103.215,-4.0775
1402,332283,0.3294,-0.17616800000000002,-1.04798,38.7975,127.8025,-2.6775
1403,332379,0.278648,-0.175924,-1.072868,43.26,155.75,-3.3775
1404,332475,0.23521599999999998,-0.235948,-1.059204,48.1075,188.2475,-8.365
1405,332571,0.211548,-0.20178800000000002,-1.089948,49.945,227.3425,-17.57
1406,332667,0.126148,-0.339892,-1.116788,52.01,269.4475,-32.375
1407,332764,-0.028792,-0.549488,-1.1148360000000002,53.97,319.935,-54.7225
1408,332860,0.016347999999999998,-0.5246,-1.069452,41.51,383.0925,-87.60501
1409,332956,-0.009028000999999999,-0.417972,-1.02114,30.24,452.55,-127.26
1410,333053,0.068076,-0.416508,-0.7517640999999999,25.095,526.82,-164.01
1411,333149,0.24034,-0.469944,-0.8371639999999999,35.0875,571.7249,-192.15
1412,333245,0.6390359999999999,-0.372832,-0.74664,85.55751,573.405,-201.425
1413,333341,1.724592,0.134688,-1.544032,177.975,573.405,-172.795
1414,333438,3.818112,-0.768844,-1.600396,333.3925,573.405,-124.145
1415,333534,3.5299480000000005,-1.381772,-1.7511880000000002,367.885,573.405,-125.475
1416,333630,4.513756,-1.643096,-1.9956759999999998,252.35,555.38,-170.38
1417,333726,3.7922480000000003,-1.8724560000000001,-2.33996,102.7775,425.7925,-258.02
1418,333823,3.7939559999999997,-1.990552,-3.7541839999999995,21.35,340.585,-293.3
1419,333919,2.11426,-1.7153200000000002,-4.10774,-23.7125,51.9575,-223.7025
1420,334015,-0.386008,-1.598932,-1.9093,-44.765,-263.2,-129.5
1421,334112,-0.34038,-1.1953559999999999,-3.183712,-114.1175,-356.8775,-116.8475
1422,334208,1.798036,-1.996652,-2.8843240000000003,104.8425,-172.3575,17.6225
1423,334304,-1.392508,-0.8969440000000001,-0.5453399999999999,-50.8725,-495.6875,-13.7025
1424,334400,-1.393728,-0.8388721,-0.484584,-54.565,-445.3225,-29.54
1425,334497,-0.371368,-0.490928,-1.048468,-32.62,-356.5975,-5.11
1426,334593,-0.273036,-0.42065600000000003,-0.8457040000000001,-23.7475,-388.6575,11.06
1427,334689,-0.09882,-0.535092,-0.7834840000000001,16.8,-396.2525,39.7425
1428,334785,0.030987999999999998,-0.733464,-0.765184,45.325,-403.305,69.87751
1429,334882,0.102724,-0.761524,-0.720532,43.4175,-413.56,92.55751
1430,334978,0.248392,-0.7166279999999999,-0.720288,33.81,-410.795,109.13
1431,335074,0.345504,-0.5751081,-0.7478600000000001,25.865,-405.7025,125.4225
1432,335170,0.445788,-0.49824799999999997,-0.822768,30.415,-399.9975,142.5725
1433,335267,0.553636,-0.45554799999999995,-0.909632,47.04,-394.24,163.0825
1434,335363,0.690764,-0.5158159999999999,-0.966484,66.36,-389.025,182.9275
1435,335459,0.8927959999999999,-0.6019479999999999,-1.054324,72.1525,-380.66,197.4875
1436,335556,0.9362280000000001,-0.553392,-1.149728,62.965,-372.5925,203.7525
1437,335652,0.955992,-0.345504,-1.3066200000000001,53.1825,-364.42,196.5425
1438,335748,1.065304,-0.125416,-1.52378,68.075,-351.4525,183.645
1439,335844,1.135576,-0.05172801,-1.603812,100.0125,-343.4025,169.5225
1440,335941,1.303692,-0.27938,-1.7345959999999998,130.4275,-330.995,149.8525
1441,336037,1.665056,-0.5738880000000001,-1.951756,145.8625,-315.035,124.5825
1442,336133,2.02032,-0.7754321,-1.984452,144.27,-308.455,100.31
1443,336230,2.400716,-0.8388721,-1.8126759999999997,137.41,-305.41,86.8175
1444,336326,2.851628,-0.821304,-1.493524,136.745,-296.24,90.52750999999999
1445,336422,3.094652,-0.931348,-0.7617681,139.6325,-278.9325,109.165
1446,336518,3.0280400000000003,-0.538752,-0.354044,120.995,-226.2925,133.385
1447,336615,3.199084,-0.205936,-0.207644,107.8175,-198.205,164.9725
1448,336711,3.921812,0.059048,0.022936,111.265,-146.1075,202.3
1449,336807,3.796396,-0.050508,0.422608,113.2075,-105.245,227.15
1450,336903,3.436984,0.031232,0.935008,62.72,-88.83,225.26
1451,337000,3.64048,0.248148,0.9394,-6.5975,-25.41,204.2075
1452,337096,3.86496,0.74908,1.192428,-65.8,16.7825,165.025
1453,337192,3.624864,1.329556,1.200236,-86.695,36.155,121.8875
1454,337288,3.19762,1.114104,1.156072,-57.19,66.7975,94.46500999999999
1455,337385,4.123844,0.391864,1.404464,-20.4925,132.93,48.23
1456,337481,1.129476,0.357216,0.194468,-59.5,217.7525,-14.7875
1457,337577,-3.172244,1.432768,-1.3771360000000001,-134.19,160.7025,-93.3625
1458,337674,2.169892,-0.32866799999999996,-3.254716,-79.7475,362.25,-161.9625
1459,337770,3.0270639999999998,1.098488,-1.821216,-105.3325,282.135,-150.85
1460,337866,2.107428,0.387716,-1.8465919999999998,-71.26,209.2475,-132.5625
1461,337962,1.3529799999999998,-1.311012,-1.6994599999999997,-12.04,176.6975,-136.535
1462,338059,1.838052,-2.464156,-0.942084,-66.2375,122.255,-143.5525
1463,338155,0.538996,-0.677588,-0.791536,-161.385,85.54,-111.7025
1464,338251,1.579656,0.5404601,-2.3868080000000003,-194.39,63.6125,-95.2
1465,338347,0.547536,0.885476,-1.240984,-155.33,-17.3075,-75.6875
1466,338444,0.724436,-0.9076799999999999,-0.8784,-51.065,-34.3,-50.5925
1467,338540,0.47823999999999994,0.191296,-1.118008,-42.3325,-19.2325,-19.6175
1468,338636,0.410896,0.068076,-1.0169920000000001,-31.1325,-15.365,-13.615
1469,338732,0.40894400000000003,-0.32696,-0.8820601,5.7925,-10.5,-5.845
1470,338829,0.35477600000000004,-0.229604,-0.9113399999999999,1.82,-9.38,-2.3975
1471,338925,0.376736,-0.270108,-0.9001161,-3.01,-11.13,-4.1125
1472,339021,0.357704,-0.24570799999999998,-0.9115840000000001,-4.2,-12.7575,-5.075
1473,339117,0.37990799999999997,-0.257176,-0.889868,-4.55,-13.44,-6.0375
1474,339214,0.377956,-0.229848,-0.889624,-6.4925,-12.74,-6.16
1475,339310,0.37576,-0.242048,-0.882548,-7.7525,-11.27,-5.81
1476,339406,0.37698000000000004,-0.24644000000000002,-0.886452,-9.2575,-8.7675,-5.5125
1477,339503,0.370392,-0.22935999999999998,-0.887916,-10.08,-8.0325,-5.74
1478,339599,0.359656,-0.21472,-0.8998719999999999,-9.415,-7.735,-5.32
1479,339695,0.360632,-0.20105599999999998,-0.8949921000000001,-7.5425,-8.365,-5.425
1480,339791,0.357704,-0.236436,-0.897432,-6.1075,-8.645,-6.58
1481,339888,0.353312,-0.215452,-0.9023121,-7.77,-8.1025,-7.7525
1482,339984,0.35477600000000004,-0.228872,-0.89426,-8.225,-7.5075,-9.3975
1483,340080,0.341356,-0.22935999999999998,-0.902068,-9.4675,-7.0875,-10.5525
1484,340176,0.34038,-0.21618400000000002,-0.909632,-10.4825,-6.6325,-12.0225
1485,340273,0.33061999999999997,-0.197152,-0.9347639999999999,-10.4125,-4.76,-13.755
1486,340369,0.335256,-0.197884,-0.935008,-10.29,-2.4325,-15.9075
1487,340465,0.366732,-0.21594000000000002,-0.8808401,-9.975,-1.3825,-17.99
1488,340561,0.36356,-0.135664,-0.9232961,-14.5075,0.0,-18.9
1489,340658,0.349652,-0.165432,-0.9179280000000001,-9.4325,3.185,-17.885
1490,340754,0.35892399999999997,-0.158112,-0.9150001,-4.795,6.825,-16.8525
1491,340850,0.359656,-0.152988,-0.917684,-2.1,10.255,-16.0825
1492,340947,0.34892,-0.134688,-0.9272,1.085,14.1575,-15.225
1493,341043,0.350628,-0.211304,-0.9018241,6.2475,18.2525,-15.785
1494,341139,0.377712,-0.16811600000000002,-0.9110959999999999,7.35,22.365,-16.905
1495,341235,0.36356,-0.200568,-0.908168,9.8525,26.355,-15.9075
1496,341332,0.335744,-0.150304,-0.949892,7.63,31.64,-14.6825
1497,341428,0.35624,-0.18544000000000002,-0.9347639999999999,10.885,38.7975,-14.6475
1498,341524,0.3843,-0.18446400000000002,-0.9333,11.9525,47.215,-15.5925
1499,341620,0.36087600000000003,-0.165676,-0.9547720999999999,13.685,55.5275,-16.1875
1500,341717,0.37112399999999995,-0.187392,-0.981124,16.94,66.92,-16.555
1501,341813,0.347456,-0.177876,-1.01138,18.4275,80.5175,-16.0825
1502,341909,0.347456,-0.18056,-1.020408,19.25,99.8725,-15.1375
1503,342005,0.346968,-0.14786400000000002,-1.042124,21.84,123.13,-14.875
1504,342102,0.329644,-0.14884,-1.056032,26.215,149.275,-15.6975
1505,342198,0.259128,-0.184952,-1.0972680000000001,31.5525,179.34,-18.4275
1506,342294,0.237656,-0.258152,-1.13094,34.44,215.9325,-25.0075
1507,342391,0.141032,-0.427976,-1.151924,35.8925,258.405,-39.3225
1508,342487,0.038064,-0.369172,-1.103124,22.6625,306.425,-63.4725
1509,342583,0.11541199999999999,-0.349164,-1.088484,8.75,366.8175,-92.71500999999999
1510,342679,0.08369201,-0.302316,-1.036756,-6.4575,429.8875,-122.92
1511,342776,-0.03538,-0.265716,-0.96014,-22.645,505.8725,-157.8325
1512,342872,0.08052000000000001,-0.681492,-0.863516,-1.47,567.84,-190.1375
1513,342968,0.246928,-0.644892,-1.129476,47.4775,573.405,-204.5925
1514,343064,1.9642,0.029524,-1.273436,115.9375,573.3875,-192.2725
1515,343161,3.329868,-0.332328,-1.631628,257.0575,573.405,-128.065
1516,343257,3.803228,-1.488888,-1.819996,352.905,573.3875,-112.56
1517,343353,4.286348,-1.86538,-1.86294,269.885,546.8575,-186.6375
1518,343450,3.780536,-1.809016,-2.9219,90.475,421.0325,-303.1875
1519,343546,2.9553279999999997,-2.582496,-4.148732,4.8125,249.9175,-320.5125
1520,343642,1.950048,-2.0632639999999998,-3.8508080000000002,-38.71,-36.6975,-203.805
1521,343738,-0.628544,-1.611376,-2.816248,-46.865,-246.2775,-124.88
1522,343835,-0.8959681,-1.3261399999999999,-1.583804,-88.8125,-388.9725,-112.1225
1523,343931,0.6351319999999999,-1.585756,-2.103524,57.61,-241.5875,-11.06
1524,344027,-1.0145520000000001,-1.158268,-0.8342360000000001,13.3875,-374.3075,2.135
1525,344123,-0.960628,-0.8740081000000001,-0.589992,10.115,-359.9575,22.9425
1526,344220,-0.153232,-0.8976761000000001,-1.060424,17.85,-328.3,44.9575
1527,344316,-0.037332,-0.6973520000000001,-1.039684,22.855,-349.0375,75.5475
1528,344412,-0.030987999999999998,-0.7027201,-0.9269561,36.0325,-374.885,108.2375
1529,344508,0.0034159999999999998,-0.6734399999999999,-0.8432639999999999,44.9225,-388.71,136.3075
1530,344605,0.112728,-0.471896,-0.809836,47.1275,-390.425,158.62
1531,344701,0.188856,-0.37576,-0.7564001,51.6075,-384.2125,175.805
1532,344797,0.22862800000000003,-0.252784,-0.793488,57.47,-378.6475,188.405
1533,344893,0.44408000000000003,-0.133956,-0.9264680000000001,65.6775,-367.92,196.07
1534,344990,0.641964,-0.12078,-1.00528,72.73,-362.6175,197.8375
1535,345086,0.768844,-0.0976,-1.096292,73.43,-356.6675,192.29
1536,345182,0.788852,-0.0244,-1.239032,66.4125,-348.005,177.2225
1537,345279,0.7922680000000001,0.159332,-1.4130040000000001,64.5925,-340.7775,158.2
1538,345375,0.9547720999999999,0.234972,-1.563308,71.7325,-335.9125,134.5925
1539,345471,1.021384,0.101992,-1.616744,93.73,-333.8825,113.6625
1540,345567,1.082384,-0.090036,-1.6977520000000001,105.385,-328.3875,95.2525
1541,345664,1.1324040000000002,-0.168848,-1.7741240000000003,105.0,-318.43,79.45
1542,345760,1.270508,-0.223748,-1.874896,103.4075,-301.91,68.0225
1543,345856,1.518656,-0.281332,-1.879288,104.195,-284.69,59.6575
1544,345952,1.8946599999999998,-0.30475599999999997,-1.845616,110.95,-267.9075,57.05
1545,346049,2.325564,-0.29426399999999997,-1.6750599999999998,132.265,-254.1525,66.045
1546,346145,2.8382080000000003,-0.540704,-1.20536,164.255,-238.0,87.1325
1547,346241,3.223484,-0.45018,-0.942084,174.825,-202.6675,116.1125
1548,346337,3.4423519999999996,-0.5499761,-0.531188,173.005,-198.4325,156.45
1549,346434,4.087976,-0.34526,-0.102724,152.74,-174.3875,197.785
1550,346530,3.7732160000000006,-0.26352,0.5738880000000001,112.49,-147.5075,221.8475
1551,346626,3.4892,0.185196,1.0765280000000002,32.06,-132.825,222.1975
1552,346723,3.210552,0.490928,1.226832,-29.0675,-62.615,210.5075
1553,346819,3.796396,1.384212,1.203408,-49.3325,-6.615,166.705
1554,346915,3.6922080000000004,1.438136,1.276852,-41.8075,31.8325,141.925
1555,347011,3.4096559999999996,1.299544,1.105564,-12.5825,56.8575,107.3975
1556,347108,2.989976,0.555588,0.807396,16.0125,84.945,60.3225
1557,347204,3.9528,-0.076616,0.777628,-0.0525,144.8125,3.6575
1558,347300,-0.47458,-0.02074,-0.5892601,-85.0675,164.64,-56.7175
1559,347396,-2.274568,-0.308904,-2.1362200000000002,-161.4025,134.2425,-134.155
1560,347493,1.759484,0.112972,-2.175016,-155.155,284.865,-183.505
1561,347589,2.161108,1.18462,-1.046028,-157.92,244.5625,-159.2675
1562,347685,1.55306,0.515084,-1.54818,-65.625,247.38,-125.16
1563,347781,2.578348,-2.57176,-2.4705,-30.8175,217.665,-127.3125
1564,347878,1.585756,-0.5887720000000001,-1.5708719999999998,-153.5275,117.3025,-121.87
1565,347974,0.741028,0.173484,-1.7021439999999999,-174.9475,68.67,-91.9275
1566,348070,0.94306,1.070184,-1.565992,-142.555,22.8025,-67.0775
1567,348166,0.8610761,-0.639524,-1.0138200000000002,-73.09751,-25.8825,-54.495
1568,348263,0.49776000000000004,-0.42285200000000006,-0.9254921,-30.1875,-14.6825,-24.29
1569,348359,0.465308,0.20691199999999998,-1.081896,-43.1375,-11.6375,-14.385
1570,348455,0.408456,-0.183732,-0.9335440999999999,-12.7225,-12.495,-9.485
1571,348552,0.381372,-0.30109600000000003,-0.883768,4.9,-10.0275,-2.1525
1572,348648,0.36722,-0.28621199999999997,-0.883524,-0.6825,-8.4,-2.24
1573,348744,0.37698000000000004,-0.285236,-0.8957241,-5.32,-10.3075,-3.885
1574,348840,0.380152,-0.271328,-0.8888921000000001,-8.05,-11.935,-6.0025
1575,348937,0.38674000000000003,-0.208132,-0.9120720999999999,-10.5525,-13.7725,-7.3325
1576,349033,0.38356799999999996,-0.194956,-0.9142680000000001,-9.9575,-14.07,-6.9825
1577,349129,0.363316,-0.23448400000000003,-0.8918200000000001,-7.8225,-13.2125,-6.2825
1578,349225,0.353312,-0.241804,-0.898652,-7.5075,-11.795,-6.4925
1579,349322,0.36966,-0.2074,-0.904752,-7.4375,-9.73,-7.105
1580,349418,0.382836,-0.193004,-0.9042641,-4.6025,-7.4725,-6.8775
1581,349514,0.37502800000000003,-0.215696,-0.8849879999999999,-1.8725,-6.9825,-6.2125
1582,349610,0.36892800000000003,-0.203984,-0.907192,-1.1725,-6.405,-6.09
1583,349707,0.353312,-0.227408,-0.8945040000000001,2.5025,-5.3725,-5.9675
1584,349803,0.363072,-0.20618000000000003,-0.9030440000000001,0.49,-4.305,-6.895
1585,349899,0.35697199999999996,-0.217892,-0.8959681,1.8375,-3.71,-7.42
1586,349995,0.366732,-0.232776,-0.8901120000000001,-0.56,-3.5175,-8.2075
1587,350092,0.353312,-0.24766,-0.892552,-1.2075,-3.99,-9.45
1588,350188,0.404064,-0.23228800000000002,-0.9203680000000001,-2.975,-3.045,-10.815
1589,350284,0.319396,-0.209352,-0.9089001,-6.65,-1.995,-11.935
1590,350380,0.345748,-0.26352,-0.862784,-5.6525,0.4375,-13.5625
1591,350477,0.345748,-0.19032000000000002,-0.9057280999999999,-7.1225,2.31,-14.315
1592,350573,0.3599,-0.214964,-0.897432,-4.9,5.705,-14.315
1593,350669,0.366,-0.185684,-0.9093880999999999,-2.9575,8.085,-14.56
1594,350766,0.36087600000000003,-0.14493599999999998,-0.9198799999999999,0.1225,11.76,-14.42
1595,350862,0.348432,-0.23448400000000003,-0.903532,4.935,15.7325,-14.1225
1596,350958,0.36356,-0.165676,-0.930372,6.265,19.81,-13.825
1597,351054,0.350628,-0.223992,-0.916464,11.13,25.0425,-13.2125
1598,351151,0.31890799999999997,-0.20105599999999998,-0.927688,10.99,31.885,-12.635
1599,351247,0.335744,-0.22496799999999997,-0.9325680000000001,10.8325,39.8825,-12.5825
1600,351343,0.348188,-0.229848,-0.9406200000000001,10.99,50.1025,-12.6525
1601,351439,0.327448,-0.196176,-0.9864921,14.2975,61.215,-13.965
1602,351536,0.30109600000000003,-0.23448400000000003,-1.0248,19.915,76.405,-15.6625
1603,351632,0.31451599999999996,-0.190564,-1.067012,22.9775,98.2975,-18.06
1604,351728,0.318176,-0.21716,-1.064816,28.7525,125.545,-21.28
1605,351824,0.262788,-0.25254,-1.081652,32.13,156.03,-26.11
1606,351921,0.2562,-0.266448,-1.0943399999999999,35.9275,190.82,-34.055
1607,352017,0.22814,-0.260836,-1.099708,33.2325,229.7225,-45.0975
1608,352113,0.169336,-0.266936,-1.087264,29.6625,271.53,-59.535
1609,352209,0.14396,-0.310368,-1.095072,24.465,319.725,-77.49
1610,352306,0.08954801,-0.365268,-1.083604,15.96,373.625,-99.995
1611,352402,0.068564,-0.422608,-1.0260200000000002,8.19,438.2,-128.8875
1612,352498,-0.22082,-0.6182960999999999,-0.96624,10.8675,508.06,-165.3575
1613,352594,-0.022936,-0.493856,-0.7473721,15.4875,565.2675,-203.28
1614,352691,0.243024,-0.072712,-0.765672,40.3025,573.405,-216.0375
1615,352787,1.164612,0.5368,-0.9777081,108.9025,573.405,-182.035
1616,352883,3.4284440000000003,-0.49873599999999996,-1.6860400000000002,259.2625,573.405,-106.6625
1617,352979,4.353936,-1.5906360000000002,-1.261724,338.66,572.0225,-83.58001
1618,353076,4.290496,-1.212192,-2.085468,232.3125,490.91,-191.8875
1619,353172,4.279028,-1.622112,-4.254872,210.3675,282.31,-209.8425
1620,353268,1.76656,-1.638216,-4.154832,240.66,-7.8575,-142.1175
1621,353364,-0.9128040000000001,-1.481324,-2.246752,190.2425,-232.5575,-105.5775
1622,353461,-1.264896,-1.541104,-1.4835200000000002,118.72,-266.28,-110.1975
1623,353557,-0.758108,-1.08336,-1.2785600000000001,58.2575,-260.6625,-117.2325
1624,353653,-0.41894799999999993,-0.8940161,-1.3827479999999999,50.4875,-270.1475,-85.85501
1625,353749,-0.323788,-1.13094,-1.1568040000000002,81.585,-281.3475,-40.8275
1626,353846,-0.16835999999999998,-1.24928,-1.222684,110.53,-278.0575,22.68
1627,353942,-0.357704,-1.168272,-0.876692,97.7025,-309.1025,85.19
1628,354038,-0.187148,-0.883524,-0.9511120000000001,72.59,-310.38,138.6525
1629,354135,0.047824,-0.596336,-1.069208,57.54,-306.88,183.3475
1630,354231,0.264008,-0.33916,-1.1163,54.7575,-314.055,217.21
1631,354327,0.383812,-0.10248,-1.100196,58.2575,-323.015,241.0625
1632,354423,0.35258,0.169824,-1.057984,61.67,-333.235,253.4
1633,354520,0.453108,0.5063,-1.13704,65.52,-334.11,250.8975
1634,354616,0.580232,0.764452,-1.292712,78.5225,-331.4675,232.61
1635,354712,0.725168,0.8954801,-1.44082,94.53501,-330.8725,196.35
1636,354808,0.8388721,0.8403360000000001,-1.548424,105.875,-335.475,147.5075
1637,354905,0.952332,0.71614,-1.666764,111.125,-345.485,97.7025
1638,355001,1.001376,0.592432,-1.6853080000000003,111.7375,-357.1925,54.705
1639,355097,0.9977159999999999,0.72224,-1.6479759999999999,111.93,-360.255,27.7025
1640,355193,0.9969841,0.527284,-1.673352,124.8625,-354.585,11.7425
1641,355290,1.083604,0.368196,-1.726056,139.2475,-341.0225,6.1075
1642,355386,1.1538760000000001,0.252784,-1.82512,136.2025,-323.9075,1.575
1643,355482,1.339072,0.318176,-1.8651360000000001,124.46,-307.4925,-2.7475
1644,355578,1.468636,0.465552,-1.775832,113.05,-290.0625,-8.4175
1645,355675,1.7170279999999998,0.7734800000000001,-1.61284,114.03,-266.49,-19.145
1646,355771,2.106208,0.944524,-1.486448,130.4275,-237.65,-24.0975
1647,355867,2.9514240000000003,0.748592,-1.6165,149.0125,-207.34,-31.15
1648,355964,3.666588,0.532896,-1.535492,145.8625,-210.6125,-34.8775
1649,356060,3.769312,0.7283400999999999,-0.908168,132.8425,-241.745,-36.0325
1650,356156,3.091724,0.8698601,-0.011956,123.4975,-269.745,-44.03
1651,356252,2.8016080000000003,1.075552,0.708576,111.65,-254.9575,-61.46
1652,356349,2.5986,1.116544,1.226588,106.26,-192.29,-63.9625
1653,356445,2.8626080000000003,1.093852,1.121912,76.79,-121.1175,-67.62001
1654,356541,3.280336,1.101904,0.8640040000000001,49.665,-62.265,-74.2
1655,356637,3.2896080000000003,1.259772,0.877668,36.4175,-34.2125,-69.3875
1656,356734,2.597624,0.753228,0.85644,23.52,-13.545,-73.2375
1657,356830,3.084648,0.21838000000000002,0.746152,-38.255,54.18,-99.96
1658,356926,-0.15420799999999998,0.284748,-1.443992,-145.145,81.375,-157.43
1659,357022,-0.969412,-1.998604,-3.1173439999999997,-156.2225,16.9925,-209.685
1660,357119,0.15494000000000002,-2.091568,-0.282064,-170.1,61.8275,-240.66
1661,357215,0.987224,-0.10248,-0.304268,-194.5125,172.935,-217.1925
1662,357311,1.8409799999999998,-1.24318,-1.3176,-169.47,223.1775,-137.2175
1663,357408,2.354356,-0.5084960000000001,-2.288964,-168.0,212.9575,-62.895
1664,357504,0.55388,0.388448,-1.436916,-196.735,110.8975,-44.7475
1665,357600,0.48678,0.886452,-1.431792,-133.0,52.15,-6.755
1666,357696,1.4945,1.214876,-1.4173959999999999,-129.6575,33.775,-35.63
1667,357793,0.504104,-0.33061999999999997,-0.9596520000000001,-51.66,-14.2975,-47.145
1668,357889,0.5587601,-0.293532,-0.9894200000000001,-21.525,-15.9425,-22.89
1669,357985,0.47555600000000003,0.085156,-0.9774639999999999,-32.6025,-12.18,-14.5425
1670,358081,0.4331,-0.200324,-0.9293961,-14.42,-14.63,-13.5275
1671,358178,0.391376,-0.183488,-0.9264680000000001,-8.3825,-13.65,-8.365
1672,358274,0.406016,-0.22277199999999997,-0.892308,-6.23,-11.9175,-6.2475
1673,358370,0.395768,-0.2867,-0.8735200000000001,-5.1625,-11.62,-5.145
1674,358467,0.37942,-0.239852,-0.9052401,-7.5425,-10.9375,-4.095
