,T,ax,ay,az,gx,gy,gz
0,210220,0.231068,0.0051240009999999996,-0.8247200000000001,14.4375,-13.475,-13.9475
1,210371,0.2501,0.012688,-0.906948,13.3525,-21.98,18.5675
2,210468,0.266692,0.014152000000000001,-0.9691681000000001,123.165,-144.1125,-47.32
3,210565,0.266936,0.014884,-0.966484,56.98,-98.9975,-31.7625
4,210662,0.267424,0.016347999999999998,-0.9669721,3.0975,-4.2525,-3.675
5,210759,0.26766799999999996,0.014396,-0.969412,2.0475,-2.3625,-3.1325
6,210856,0.26718000000000003,0.01464,-0.968924,1.9425,-2.2575,-2.9925
7,210953,0.266204,0.013908000000000002,-0.968192,2.0125,-2.275,-3.0625
8,211050,0.267912,0.013175999999999998,-0.968192,1.89,-2.2225,-3.1675
9,211147,0.268156,0.014152000000000001,-0.969412,1.89,-2.205,-3.1325
10,211244,0.266936,0.01342,-0.9711200999999999,1.9075,-2.2575,-3.0275
11,211341,0.269376,0.016347999999999998,-0.968192,1.925,-2.2925,-3.1325
12,211438,0.26961999999999997,0.013663999999999999,-0.9708760000000001,1.89,-2.205,-3.115
13,211536,0.266936,0.014396,-0.9708760000000001,1.8375,-2.24,-3.08
14,211633,0.268888,0.013908000000000002,-0.9699,1.785,-2.24,-3.0975
15,211730,0.26718000000000003,0.014396,-0.9684360999999999,1.8375,-2.205,-3.08
16,211827,0.269376,0.013908000000000002,-0.9696561,1.9075,-2.2225,-3.0625
17,211924,0.266204,0.014884,-0.9699,1.8025,-2.205,-3.08
18,212021,0.26913200000000004,0.014152000000000001,-0.9711200999999999,1.8025,-2.275,-3.115
19,212118,0.268156,0.014396,-0.969412,1.89,-2.275,-3.045
20,212215,0.268156,0.011712,-0.9701440999999998,1.925,-2.24,-3.0625
21,212312,0.26766799999999996,0.013908000000000002,-0.968924,1.9775,-2.24,-3.045
22,212409,0.268888,0.015128,-0.9711200999999999,1.96,-2.275,-3.08
23,212506,0.26961999999999997,0.012931999999999999,-0.9669721,1.9775,-2.275,-2.9925
24,212603,0.266448,0.014152000000000001,-0.9699,1.9775,-2.1875,-3.0275
25,212701,0.268888,0.015616,-0.9703879999999999,1.96,-2.205,-3.045
26,212798,0.26913200000000004,0.016836,-0.9711200999999999,1.9775,-2.205,-3.115
27,212895,0.26596,0.016104,-0.9684360999999999,1.9775,-2.2225,-3.045
28,212992,0.266936,0.01464,-0.9708760000000001,2.0475,-2.205,-3.01
29,213089,0.26718000000000003,0.014152000000000001,-0.9679481,2.03,-2.205,-3.0625
30,213186,0.266936,0.016347999999999998,-0.967216,1.995,-2.38,-3.01
31,213283,0.268644,0.015128,-0.9706319999999999,2.065,-2.205,-2.975
32,213380,0.268644,0.01708,-0.9679481,2.0475,-2.31,-2.9925
33,213477,0.266204,0.016347999999999998,-0.9691681000000001,2.1175,-2.2925,-2.9575
34,213574,0.26766799999999996,0.01342,-0.9679481,2.135,-2.275,-3.045
35,213671,0.266692,0.011712,-0.9711200999999999,2.135,-2.205,-3.0275
36,213768,0.270108,0.014884,-0.9696561,2.0825,-2.24,-2.975
37,213865,0.266692,0.012931999999999999,-0.9708760000000001,2.1,-2.2575,-3.0275
38,213963,0.268644,0.014152000000000001,-0.9711200999999999,1.9425,-2.1875,-3.0275
39,214060,0.26766799999999996,0.014396,-0.9699,2.135,-2.24,-2.975
40,214157,0.266204,0.013908000000000002,-0.969412,2.17,-2.275,-2.94
41,214254,0.26718000000000003,0.011468,-0.969412,2.24,-2.2225,-3.045
42,214351,0.27084,0.014152000000000001,-0.9691681000000001,2.065,-2.2925,-3.0275
43,214448,0.26718000000000003,0.012444,-0.968192,1.925,-2.345,-3.01
44,214545,0.266204,0.014884,-0.9696561,1.8725,-2.345,-3.0625
45,214642,0.267912,0.014152000000000001,-0.9706319999999999,1.9425,-2.345,-3.0275
46,214739,0.265472,0.012931999999999999,-0.9684360999999999,1.96,-2.345,-2.9925
47,214836,0.266204,0.014884,-0.966728,2.0825,-2.415,-3.01
48,214933,0.266692,0.014152000000000001,-0.968192,1.96,-2.3625,-2.94
49,215030,0.267424,0.013908000000000002,-0.967216,1.9775,-2.2575,-3.01
50,215127,0.268156,0.015128,-0.9684360999999999,2.0125,-2.345,-3.0275
51,215224,0.26766799999999996,0.01342,-0.968924,1.89,-2.275,-2.975
52,215321,0.267424,0.014396,-0.9686799999999999,1.8725,-2.205,-3.08
53,215419,0.265716,0.012931999999999999,-0.9686799999999999,1.7675,-2.24,-3.0275
54,215516,0.270108,0.014884,-0.9696561,1.8025,-2.205,-3.08
55,215613,0.268644,0.015128,-0.9699,1.715,-2.1525,-3.185
56,215710,0.268156,0.015616,-0.9686799999999999,1.7325,-2.2225,-3.115
57,215807,0.26766799999999996,0.015128,-0.9691681000000001,1.75,-2.2225,-3.15
58,215904,0.266936,0.016592,-0.965752,1.8375,-2.1875,-3.0975
59,216001,0.266692,0.014884,-0.9686799999999999,1.925,-2.2925,-3.15
60,216098,0.267424,0.01586,-0.968192,1.9075,-2.2925,-3.0625
61,216195,0.266936,0.014396,-0.9686799999999999,1.855,-2.275,-3.045
62,216292,0.26596,0.015128,-0.9686799999999999,1.89,-2.2575,-3.08
63,216389,0.266448,0.01464,-0.969412,1.8725,-2.2225,-3.0625
64,216486,0.26718000000000003,0.014396,-0.9669721,1.8025,-2.2575,-3.15
65,216583,0.266448,0.014396,-0.9686799999999999,1.8025,-2.31,-3.045
66,216681,0.26596,0.015372,-0.9669721,1.8025,-2.1875,-3.0275
67,216778,0.26718000000000003,0.014396,-0.968924,1.8725,-2.205,-3.0975
68,216875,0.266204,0.016347999999999998,-0.967216,1.855,-2.1,-3.15
69,216972,0.265472,0.017812,-0.9701440999999998,1.9075,-2.1875,-3.115
70,217069,0.266204,0.01586,-0.9652639999999999,1.925,-2.17,-3.0975
71,217166,0.266936,0.013175999999999998,-0.969412,1.96,-2.1525,-3.0275
72,217263,0.268156,0.014152000000000001,-0.9679481,1.89,-2.1875,-3.0975
73,217360,0.266692,0.013663999999999999,-0.969412,1.8725,-2.24,-3.08
74,217457,0.268888,0.01342,-0.966484,1.925,-2.38,-3.0975
75,217554,0.267912,0.015616,-0.968192,1.89,-2.3625,-3.045
76,217651,0.266448,0.013908000000000002,-0.9696561,1.855,-2.3975,-3.1675
77,217748,0.26913200000000004,0.013908000000000002,-0.968924,1.7675,-2.38,-3.15
78,217845,0.268156,0.014396,-0.968924,1.8375,-2.38,-3.115
79,217943,0.266936,0.013663999999999999,-0.966728,1.8725,-2.3625,-3.0975
80,218040,0.266936,0.015128,-0.9679481,1.8725,-2.2925,-3.08
81,218137,0.267424,0.016104,-0.9679481,1.89,-2.345,-2.9925
82,218234,0.268888,0.01708,-0.966484,1.855,-2.2925,-3.0275
83,218331,0.266204,0.01586,-0.9677040000000001,1.9425,-2.3975,-3.0975
84,218428,0.265472,0.013908000000000002,-0.966728,2.0825,-2.3625,-3.0275
85,218525,0.267424,0.01342,-0.9677040000000001,2.1525,-2.4675,-3.0275
86,218622,0.26596,0.013908000000000002,-0.9655081,1.995,-2.3625,-3.115
87,218719,0.267424,0.012688,-0.9674601,1.9075,-2.2925,-3.185
88,218816,0.267424,0.014884,-0.968192,1.855,-2.3275,-3.115
89,218913,0.26718000000000003,0.013663999999999999,-0.968924,1.82,-2.17,-3.0975
90,219010,0.267424,0.018788,-0.966484,1.7325,-2.24,-3.1675
91,219107,0.2684,0.017812,-0.966484,1.82,-2.31,-3.1325
92,219205,0.266936,0.01586,-0.9684360999999999,2.0475,-2.2225,-3.0625
93,219302,0.26718000000000003,0.01708,-0.9679481,2.03,-2.2575,-3.0975
94,219399,0.266692,0.016592,-0.966728,2.0825,-2.38,-3.1325
95,219496,0.266204,0.014884,-0.9669721,2.1525,-2.3975,-3.0625
96,219593,0.26766799999999996,0.01464,-0.9674601,2.1175,-2.3625,-3.08
97,219690,0.266692,0.013663999999999999,-0.9686799999999999,2.0125,-2.3625,-3.115
98,219787,0.26766799999999996,0.01464,-0.9655081,1.9775,-2.2925,-3.15
99,219884,0.264984,0.013908000000000002,-0.965752,1.82,-2.275,-3.1675
100,219981,0.26766799999999996,0.015128,-0.96624,1.8025,-2.345,-3.2025
101,220078,0.268156,0.01708,-0.966728,1.855,-2.24,-3.2375
102,220175,0.26766799999999996,0.013908000000000002,-0.9699,1.9425,-2.31,-3.115
103,220272,0.266936,0.015372,-0.966484,1.995,-2.2575,-3.15
104,220370,0.268888,0.017568,-0.9669721,1.96,-2.2575,-3.0975
105,220467,0.26718000000000003,0.016347999999999998,-0.9691681000000001,2.03,-2.31,-3.0975
106,220564,0.267424,0.01464,-0.967216,2.0475,-2.3275,-3.0625
107,220661,0.26766799999999996,0.01586,-0.966728,2.0125,-2.345,-3.115
108,220758,0.268644,0.014152000000000001,-0.9696561,2.03,-2.3275,-3.115
109,220855,0.26766799999999996,0.013663999999999999,-0.968192,1.89,-2.4325,-3.115
110,220952,0.266204,0.015616,-0.966484,1.855,-2.3625,-3.15
111,221049,0.26596,0.014396,-0.966484,1.925,-2.38,-3.1675
112,221146,0.268156,0.017568,-0.96624,1.8025,-2.31,-3.15
113,221243,0.266692,0.017324000000000003,-0.966728,1.8025,-2.3625,-3.22
114,221340,0.267424,0.017568,-0.9652639999999999,1.9075,-2.2925,-3.1675
115,221437,0.26718000000000003,0.014152000000000001,-0.966484,1.9425,-2.275,-3.2025
116,221534,0.265472,0.01464,-0.968192,1.89,-2.345,-3.2025
117,221631,0.265716,0.012688,-0.9691681000000001,1.855,-2.275,-3.1325
118,221728,0.26766799999999996,0.016104,-0.9677040000000001,1.8025,-2.2925,-3.08
119,221826,0.267424,0.017812,-0.9652639999999999,1.785,-2.2575,-3.15
120,221923,0.266692,0.014884,-0.965996,1.785,-2.275,-3.2025
121,222020,0.26718000000000003,0.015616,-0.9706319999999999,1.925,-2.415,-3.115
122,222117,0.267424,0.01464,-0.9677040000000001,1.96,-2.345,-3.0625
123,222214,0.267912,0.014884,-0.9669721,1.89,-2.38,-3.0975
124,222311,0.265716,0.013663999999999999,-0.966484,1.9075,-2.31,-3.15
125,222408,0.267424,0.016347999999999998,-0.9677040000000001,1.8025,-2.38,-3.22
126,222505,0.26913200000000004,0.014884,-0.9696561,1.8375,-2.3975,-3.22
127,222602,0.2684,0.017324000000000003,-0.968192,1.925,-2.4675,-3.255
128,222699,0.266936,0.01464,-0.9699,2.0825,-2.625,-3.255
129,222796,0.2684,0.011224,-0.9677040000000001,2.1175,-2.555,-3.3075
130,222893,0.266692,0.011468,-0.9669721,1.9425,-2.38,-3.185
131,222990,0.266204,0.012931999999999999,-0.9679481,1.6625,-2.205,-3.3425
132,223087,0.267424,0.020984,-0.9674601,1.505,-2.275,-3.29
133,223185,0.26913200000000004,0.01342,-0.965752,1.68,-2.1525,-3.325
134,223282,0.266204,0.019275999999999998,-0.965996,1.75,-2.1525,-3.325
135,223379,0.265716,0.020496,-0.9679481,1.8725,-2.2925,-3.3425
136,223476,0.267424,0.013908000000000002,-0.964532,2.065,-2.24,-3.3075
137,223573,0.268888,0.018788,-0.9684360999999999,2.0825,-2.275,-3.185
138,223670,0.26474000000000003,0.014884,-0.965752,2.2225,-2.3275,-3.0975
139,223767,0.264984,0.003172,-0.9635560999999999,2.2925,-2.1875,-3.115
140,223864,0.266692,0.020496,-0.9674601,1.6975,-2.1,-3.2375
141,223961,0.264008,0.02196,-0.96624,1.5225,-1.9425,-3.2725
142,224058,0.265716,0.01586,-0.964532,1.68,-1.855,-3.2375
143,224155,0.268156,0.022203999999999998,-0.965996,1.75,-1.785,-3.22
144,224252,0.26718000000000003,0.024156,-0.966484,2.1875,-1.89,-3.15
145,224349,0.265228,0.010248,-0.9652639999999999,2.5725,-2.17,-3.2375
146,224447,0.268156,-0.005612,-0.9638,1.9075,-1.7325,-3.255
147,224544,0.274988,0.021228,-0.9711200999999999,0.2975,-1.015,-3.2725
148,224641,0.277428,0.009028000999999999,-0.965996,-0.385,-1.1725,-3.2725
149,224738,0.27279200000000003,0.019275999999999998,-0.9745360000000001,-1.4,-1.575,-3.22
150,224835,0.26766799999999996,0.023668,-0.969412,-2.2225,-1.925,-3.2025
151,224932,0.269864,0.02196,-0.9711200999999999,-2.2575,-2.205,-3.4825
152,225029,0.270108,0.014884,-0.9801479999999999,-2.485,-2.17,-3.675
153,225126,0.27718400000000004,0.0017079999999999999,-0.9862479999999999,-2.905,-1.7675,-4.095
154,225223,0.277916,0.016836,-0.9791719999999999,-3.4125,-1.855,-4.6025
155,225320,0.268644,0.039284,-0.9720960999999999,-3.115,-2.03,-4.655
156,225417,0.260348,0.044164,-0.9686799999999999,-1.82,-1.82,-4.3225
157,225514,0.258152,0.038796,-0.9547720999999999,-0.5075,-1.4525,-4.1825
158,225611,0.266448,0.031476,-0.964044,0.21,-0.6475,-3.955
159,225708,0.25742,0.023180000000000003,-0.954528,0.8575,-0.595,-3.64
160,225806,0.2684,0.018056,-0.9699,0.77,-0.0175,-3.4825
161,225903,0.25522399999999995,0.026108,-0.9528200000000001,0.665,-0.1575,-3.22
162,226000,0.26474000000000003,0.016104,-0.9581881,0.6825,0.2275,-3.2375
163,226097,0.265472,0.008296000999999999,-0.9535521,0.595,0.4375,-3.1675
164,226194,0.272548,0.01708,-0.9616040000000001,0.4725,0.4375,-3.2725
165,226291,0.27718400000000004,0.018544,-0.958432,0.3675,0.1225,-3.3775
166,226388,0.277428,0.016836,-0.9547720999999999,0.245,-0.455,-3.3775
167,226485,0.284748,-0.001464,-0.9699,0.1225,-0.875,-3.3775
168,226582,0.287432,0.024644,-0.967216,-0.3325,-1.5925,-3.43
169,226679,0.265472,0.039772,-0.9608721,-0.2975,-2.7475,-3.57
170,226776,0.277916,0.027327999999999998,-0.9618481,0.2275,-2.6425,-3.5
171,226874,0.274744,0.020496,-0.964044,0.315,-2.8525,-3.395
172,226971,0.273524,0.026595999999999998,-0.9852719999999999,0.1575,-2.8525,-3.3775
173,227068,0.2867,0.025376,-0.975024,0.315,-2.9925,-3.5525
174,227165,0.272304,0.03538,-0.9630681000000001,0.385,-4.0775,-3.7275
175,227262,0.256688,0.020496,-0.9540401,0.9625,-4.095,-3.7625
176,227359,0.26108000000000003,0.009272001,-0.9516,0.6825,-3.57,-3.9725
177,227456,0.25961599999999996,0.021472,-0.9520881,-0.175,-2.9225,-4.0775
178,227553,0.242292,0.03538,-0.9286639999999999,-0.56,-2.485,-4.1825
179,227650,0.2257,0.048068,-0.9150001,0.2275,-1.4875,-3.8675
180,227747,0.25132,0.031476,-0.9415959999999999,0.07,-0.035,-4.06
181,227845,0.27816,0.044407999999999996,-0.9506241,-0.6125,0.035,-4.2175
182,227942,0.27205999999999997,0.071492,-0.9598959999999999,-0.665,-0.385,-3.885
183,228039,0.289628,0.007564001,-0.961116,0.1225,-1.75,-4.0075
184,228136,0.237168,0.02196,-0.9010921000000001,-0.42,-3.08,-3.5525
185,228233,0.260836,0.06124401,-0.9850280999999999,-0.735,-3.745,-2.5375
186,228330,0.279868,0.02562,-0.990884,1.82,-3.7275,-1.96
187,228427,0.294996,-0.008784,-0.9903959999999999,3.885,-3.7975,-1.61
188,228524,0.31012399999999996,-0.030256,-0.9894200000000001,2.5025,-3.7975,-2.135
189,228621,0.316712,-0.00976,-0.978196,-1.96,-3.535,-3.745
190,228718,0.288896,0.034404000000000004,-0.964776,-6.0025,-4.3575,-5.005
191,228815,0.288652,0.056852,-0.964532,-7.35,-4.8825,-5.32
192,228913,0.28621199999999997,0.032451999999999995,-0.9679481,-6.9125,-5.845,-5.8625
193,229010,0.292556,0.043432,-0.966728,-6.895,-6.755,-6.265
194,229107,0.27279200000000003,0.06270801,-0.9725841000000001,-6.2125,-8.19,-6.3875
195,229204,0.273036,0.022692,-0.973316,-4.865,-8.4,-6.58
196,229301,0.276452,0.03538,-0.967216,-5.46,-7.7175,-6.8075
197,229398,0.268156,0.048068,-0.9679481,-5.7925,-7.9625,-6.895
198,229495,0.255468,0.03172,-0.97356,-4.9525,-7.8925,-6.79
199,229592,0.252784,0.047580000000000004,-0.9762440999999998,-4.8475,-6.9125,-6.5275
200,229689,0.262056,0.06270801,-0.9777081,-4.2525,-6.055,-6.125
201,229786,0.268644,0.06270801,-0.975512,-2.8,-5.495,-5.74
202,229883,0.264496,0.066856,-0.9716081,-1.715,-5.18,-5.3375
203,229980,0.26596,0.052948,-0.978928,-0.42,-5.0925,-5.1625
204,230077,0.262788,0.03538,-0.965996,0.42,-4.725,-4.935
205,230175,0.2562,0.030012,-0.969412,0.455,-4.3925,-4.7075
206,230272,0.247416,0.038308,-0.9635560999999999,0.1225,-3.955,-4.655
207,230369,0.24424400000000002,0.043432,-0.9591639999999999,0.105,-3.29,-4.445
208,230466,0.23911999999999997,0.062220000000000004,-0.954528,0.28,-2.7825,-4.2875
209,230563,0.242048,0.061732,-0.9630681000000001,0.9625,-2.1175,-4.2
210,230660,0.24278000000000002,0.06880801,-0.9589200999999999,1.995,-1.4,-4.025
211,230757,0.25351599999999996,0.06539201,-0.9564799999999999,3.0975,-0.9625,-3.745
212,230854,0.257176,0.06270801,-0.9581881,3.92,-0.8575,-3.3075
213,230951,0.257176,0.06344,-0.9635560999999999,4.6025,-1.155,-3.0975
214,231048,0.265716,0.06929600000000001,-0.96624,5.25,-1.4175,-3.0625
215,231145,0.258884,0.06636801,-0.965996,5.7225,-1.995,-3.1325
216,231243,0.258884,0.045872,-0.967216,5.9675,-2.1525,-3.22
217,231340,0.25790799999999997,0.059536,-0.964776,5.9325,-2.24,-3.2725
218,231437,0.258396,0.063684,-0.9633120999999999,6.1775,-2.275,-3.22
219,231534,0.25302800000000003,0.0549,-0.9591639999999999,6.825,-2.66,-3.1325
220,231631,0.258396,0.05587601,-0.957456,7.35,-3.01,-2.835
221,231728,0.260104,0.04392,-0.965996,8.12,-3.255,-2.415
222,231825,0.262056,0.034648000000000005,-0.966728,8.7675,-3.7275,-2.1175
223,231922,0.25498000000000004,0.040260000000000004,-0.9572120999999999,9.065,-3.99,-2.065
224,232019,0.249856,0.040260000000000004,-0.9589200999999999,9.275,-4.165,-1.82
225,232116,0.250344,0.02562,-0.961116,9.8175,-4.0775,-1.4525
226,232213,0.239364,0.046116000000000004,-0.957456,10.0275,-4.48,-1.12
227,232310,0.241804,0.052703999999999994,-0.9677040000000001,10.4125,-4.2,-0.5425
228,232407,0.245464,0.025131999999999998,-0.9616040000000001,10.92,-3.71,-0.07
229,232505,0.233996,0.049044,-0.958432,10.0975,-3.29,0.385
230,232602,0.239608,0.030744,-0.9757561,9.6775,-2.275,0.6125
231,232699,0.24717199999999998,0.0305,-0.9752681000000001,9.135,-1.12,0.9625
232,232796,0.24424400000000002,0.035624,-0.974292,8.33,-0.5775,1.9775
233,232893,0.25376,0.037088,-0.97234,8.54,0.455,3.1675
234,232990,0.244732,0.05246,-0.9764879999999999,8.365,1.4,4.655
235,233087,0.243024,0.050508,-0.9774639999999999,8.645,2.87,6.02
236,233184,0.238632,0.041968,-0.9718521000000001,8.995,5.11,6.8425
237,233281,0.275964,0.08417999999999999,-0.9769760000000001,8.155,9.0475,7.35
238,233378,0.220088,0.017812,-0.9864921,5.705,11.8825,7.175
239,233475,0.21228000000000002,0.008296000999999999,-0.978928,7.315,15.1025,7.2275
240,233572,0.221308,0.03416,-0.9940559999999999,6.44,22.715,5.95
241,233670,0.174216,0.06539201,-1.0077200000000002,8.61,30.1875,5.3725
242,233767,0.20861999999999997,0.058803999999999995,-1.0377319999999999,9.7825,39.3925,5.705
243,233864,0.213988,0.038796,-1.0243120000000001,12.3375,49.49,6.3875
244,233961,0.21594000000000002,0.033184,-1.009916,14.105,60.3575,7.3675
245,234058,0.25376,-0.003172,-1.034804,15.12,74.0075,7.8225
246,234155,0.238632,0.017324000000000003,-1.0499319999999999,16.66,87.4825,8.05
247,234252,0.242048,0.04148,-1.044564,18.8825,103.7925,8.33
248,234349,0.232776,0.01952,-1.051884,19.5475,122.2025,8.96
249,234446,0.223504,-0.018056,-1.055544,21.2275,142.415,8.995
250,234543,0.21520799999999998,-0.031964,-1.065304,24.325,165.7775,7.56
251,234640,0.252296,-0.020496,-1.066524,28.42,190.295,4.4975
252,234738,0.271572,-0.029768,-1.052616,33.9675,214.34,5.46
253,234835,0.261324,-0.07710399999999999,-1.0309,37.625,239.855,8.4175
254,234932,0.29597199999999996,-0.101504,-1.0316319999999999,44.625,271.11,11.935
255,235029,0.269376,-0.00244,-1.075552,47.74,305.3925,18.0425
256,235126,0.270352,0.07832401,-1.1087360000000002,51.8525,341.145,28.2975
257,235223,0.355752,0.121024,-1.0765280000000002,55.8775,376.8975,45.1675
258,235320,0.32574000000000003,0.367708,-1.0821399999999999,60.795,415.3625,72.8
259,235417,0.477264,0.38552,-1.074332,81.27,464.5025,99.085
260,235514,0.8049561,0.025131999999999998,-1.087264,108.5525,521.325,115.64
261,235611,1.931016,-0.319152,-1.508408,87.0625,565.1975,108.7275
262,235708,2.477576,-0.337452,-1.2634319999999999,11.655,570.4825,80.7275
263,235805,3.433568,-0.425292,-1.7982799999999999,-92.4525,539.8575,61.8625
264,235903,3.3247440000000004,-0.29572800000000005,-2.406084,-182.9625,438.025,40.425
265,236000,2.034716,0.07173600000000001,-2.2128360000000002,-209.37,297.115,43.505
266,236097,0.399428,0.8142281,-2.906772,-208.39,246.1025,86.22251
267,236194,0.69906,1.7463080000000002,-3.5323879999999996,-127.995,203.0175,106.715
268,236291,-0.431392,2.745244,-4.061868,-43.1725,41.335,59.3425
269,236388,1.148752,1.594296,-0.6182960999999999,123.655,-97.475,10.29
270,236485,0.252784,0.990884,-1.9346759999999998,145.46,-73.5875,-50.785
271,236582,-0.7076001000000001,0.701256,-1.607716,151.9525,-157.2375,-70.56
272,236679,-1.043588,0.4758,-0.8784,134.295,-194.915,-91.6125
273,236776,-1.055788,0.242536,-0.6409881,76.2475,-202.8775,-118.1075
274,236873,-0.8527800999999999,0.15738,-0.6897880999999999,28.1575,-200.9,-126.805
275,236971,-0.568032,0.08296,-0.856684,3.9725,-199.3775,-121.73
276,237068,-0.367952,0.068076,-1.0316319999999999,-9.765,-212.8175,-111.055
277,237165,-0.319884,0.023180000000000003,-1.041636,-16.9225,-237.1775,-96.005
278,237262,-0.214964,-0.06929600000000001,-1.021628,-23.66,-257.4075,-79.3275
279,237359,-0.03172,-0.1098,-1.10776,-39.445,-272.475,-65.66
280,237456,0.135908,-0.0427,-1.19682,-59.955,-290.2025,-56.14
281,237553,0.254736,0.08564401,-1.2587959999999998,-75.4775,-310.415,-50.3125
282,237650,0.354288,0.22423600000000002,-1.323944,-80.0625,-329.28,-47.9325
283,237747,0.41723999999999994,0.324276,-1.354688,-73.4475,-345.205,-50.1025
284,237844,0.553392,0.199348,-1.248792,-61.1275,-357.385,-59.6575
285,237941,0.579256,0.1281,-1.176812,-51.1875,-363.6675,-72.45
286,238039,0.5587601,0.0122,-1.242204,-46.8125,-358.4,-79.5025
287,238136,0.621224,-0.05856,-1.354932,-45.8325,-349.895,-79.4675
288,238233,0.754204,-0.101748,-1.54818,-49.91,-342.65,-77.6825
289,238330,0.812032,-0.090768,-1.677012,-53.445,-337.505,-74.9525
290,238427,0.7832399999999999,-0.126148,-1.7277639999999999,-53.6725,-332.4125,-71.9075
291,238524,0.759572,-0.20008,-1.723616,-50.3125,-321.6675,-67.515
292,238621,0.7991,-0.313296,-1.631628,-51.7125,-302.12,-61.9675
293,238718,0.969412,-0.398452,-1.56892,-60.83,-272.2125,-56.4725
294,238815,1.245132,-0.363316,-1.568676,-72.3275,-236.6,-51.66
295,238912,1.6982400000000002,-0.30182800000000004,-1.7338639999999998,-87.3775,-202.055,-48.335
296,239009,2.262612,-0.223992,-1.8824599999999998,-112.07,-181.8425,-50.4175
297,239106,2.766716,0.040992,-1.8971,-140.245,-183.6975,-54.985
298,239204,3.2713080000000003,0.33184,-1.8180439999999998,-148.4175,-197.715,-53.9875
299,239301,3.4652879999999997,0.7027201,-1.43472,-126.91,-226.03,-48.5975
300,239398,3.275456,0.682956,-0.7661600000000001,-70.175,-252.5075,-32.83
301,239495,2.9487400000000004,0.33671999999999996,0.023180000000000003,-12.0575,-253.68,-17.4125
302,239592,2.708888,-0.058316,0.673928,12.7225,-226.0125,-14.7525
303,239689,2.724748,-0.202032,1.085556,1.82,-175.84,-30.7825
304,239786,2.9636240000000003,-0.220088,1.23708,-24.36,-113.1375,-54.8275
305,239883,3.067812,-0.1891,1.224636,-34.965,-51.5025,-69.2475
306,239980,2.9916840000000002,-0.291092,1.078724,-33.95,4.4625,-68.39
307,240077,2.688392,-0.31012399999999996,0.870592,-35.245,54.04,-56.98
308,240174,2.345572,0.357948,0.490196,-42.6825,104.51,-45.4125
309,240271,1.561356,1.4034879999999998,-0.504592,-11.3925,165.585,-55.44
310,240369,-0.269376,0.702964,-1.672132,96.0575,193.4975,-87.85
311,240466,-0.148352,0.232044,-2.970212,184.3625,204.82,-76.30001
312,240563,1.0887280000000001,-1.307596,-2.356552,205.975,181.7725,-68.32
313,240660,0.527772,-2.78526,-0.605608,247.6425,142.24,-12.4075
314,240757,0.45725600000000005,-1.977132,-0.8935280999999999,185.5175,142.87,52.045
315,240854,0.22448,-0.516792,-1.2822200000000001,96.4425,150.815,84.08751
316,240951,0.62098,0.328912,-1.05408,52.605,150.955,76.2475
317,241048,2.054968,1.781932,-2.5400400000000003,49.315,166.565,54.0225
318,241145,1.1263040000000002,0.5736441,-1.926136,120.4,95.9875,23.4675
319,241242,0.24863600000000002,-1.226832,-1.529148,122.115,40.145,1.4
320,241339,0.03416,-1.2902719999999999,-0.9001161,70.3325,10.745,-2.2225
321,241436,0.5363121,0.43554,-1.1538760000000001,2.5725,15.505,3.4825
322,241534,0.349652,0.310368,-1.084336,-4.5675,9.3275,-4.55
323,241631,0.212036,-0.340868,-0.9267120000000001,2.0825,4.6025,-11.7775
324,241728,0.347456,0.158356,-1.0065,-11.69,7.5775,-7.07
325,241825,0.278404,0.376736,-0.9828321,-13.4925,3.4825,-5.915
326,241922,0.256688,0.163236,-0.954528,-3.92,1.5225,-7.7175
327,242019,0.26303200000000004,0.119316,-0.9830760000000001,0.49,0.945,-5.915
328,242116,0.268156,0.10540799999999999,-0.9703879999999999,1.9425,0.595,-4.0075
329,242213,0.26766799999999996,0.08881599,-0.9616040000000001,3.3775,0.4025,-2.625
330,242310,0.24644000000000002,0.07173600000000001,-0.958432,4.515,-0.1925,-1.7675
331,242407,0.24766,0.046848,-0.9799041,4.62,0.805,-0.9625
332,242504,0.252784,0.0122,-0.9616040000000001,4.3225,1.995,-0.0875
333,242601,0.249612,0.033428,-0.966728,3.325,2.555,0.5775
334,242698,0.253272,0.09272000000000001,-0.9779521000000001,3.815,2.0825,1.96
335,242796,0.257664,0.071004,-0.9767321,6.6325,2.38,2.38
336,242893,0.239852,0.054655999999999996,-0.981124,10.0975,2.6075,2.0475
337,242990,0.25351599999999996,0.06563601,-0.9779521000000001,13.51,2.8525,2.3625
338,243087,0.266936,0.083204,-0.9813681000000001,15.2775,3.0275,3.2025
339,243184,0.25376,0.079056,-0.969412,16.8,3.3075,3.85
340,243281,0.2562,0.050263999999999996,-0.974292,17.3775,5.565,4.34
341,243378,0.24936799999999998,-0.019275999999999998,-0.9093880999999999,17.9025,6.965,4.7075
342,243475,0.316956,0.058316,-0.9860040999999999,14.4725,9.8,4.97
343,243572,0.271084,0.021472,-0.9699,14.28,7.315,5.9325
344,243669,0.29402,0.016104,-0.9552601000000001,11.865,8.12,6.2125
345,243766,0.271084,0.059536,-0.967216,8.6275,8.3475,7.1925
346,243863,0.271084,0.005368,-0.96014,8.505,9.765,7.9625
347,243961,0.24668400000000001,0.049044,-0.9911281,4.69,11.83,8.995
348,244058,0.28157600000000005,0.06880801,-0.9940559999999999,1.295,14.42,10.045
349,244155,0.25742,0.052948,-0.975512,0.7,17.57,10.675
350,244252,0.25302800000000003,0.058316,-0.9562360999999999,-0.4725,21.7175,11.5325
351,244349,0.23887600000000003,0.042212,-0.989908,-0.735,26.9325,12.7925
352,244446,0.23887600000000003,0.049532,-0.978928,-0.21,33.3725,13.4925
353,244543,0.25961599999999996,0.095648,-0.989908,-0.3325,42.2275,13.4575
354,244640,0.2501,0.045872,-1.007476,1.925,51.205,13.335
355,244738,0.251564,0.008540001,-1.002108,4.1825,61.5125,12.005
356,244834,0.24668400000000001,0.0183,-1.034804,2.9925,74.8475,9.205
357,244931,0.25864000000000004,-0.022448,-1.0255319999999999,3.7625,91.6825,5.74
358,245029,0.248148,-0.02928,-1.033828,2.1,111.44,2.3975
359,245126,0.22277199999999997,-0.02074,-1.033096,0.525,134.26,-0.805
360,245223,0.22082,0.033184,-1.069696,-0.595,160.4925,-2.87
361,245320,0.22448,0.027083999999999997,-1.065304,2.415,189.9275,-2.765
362,245417,0.22106399999999998,0.033672,-1.040904,5.7575,221.4275,1.3125
363,245514,0.208864,0.046848,-1.074576,10.045,255.9025,8.54
364,245611,0.22082,0.07588400000000001,-1.1346,16.73,294.035,18.41
365,245708,0.14347200000000002,0.022448,-1.109956,26.075,336.1225,29.715
366,245805,0.16592,0.09613601,-1.0206520000000001,36.05,390.67,42.4725
367,245902,0.22106399999999998,0.127368,-1.0760399999999999,41.9475,459.3225,61.355
368,245999,0.229604,0.5016641,-1.293688,38.78,530.5825,85.68
369,246096,0.42748800000000003,0.215696,-1.131184,59.6925,571.1475,96.5125
370,246193,1.0060120000000001,-0.119316,-1.681648,76.545,573.405,98.0
371,246291,2.423652,-0.36282800000000004,-0.738588,38.7625,573.3875,81.77750999999999
372,246388,3.155896,-0.5231359999999999,-0.8298440999999999,-156.695,573.405,16.73
373,246485,3.400872,0.077836,-2.877004,-398.1075,573.405,-15.96
374,246582,5.406308,0.565104,-4.0155080000000005,-499.345,522.1125,1.8375
375,246679,2.502952,0.840824,-3.8029839999999995,-331.485,306.0225,28.385
376,246776,0.537532,3.963048,-5.656651999999999,-231.595,121.9575,53.0425
377,246873,0.269376,2.7459759999999998,-3.921324,98.4375,-90.93,23.135
378,246970,-0.264984,0.829356,-0.13664,345.485,-221.095,-1.3825
379,247067,0.17128800000000002,-0.198128,-2.661796,293.8075,-158.6725,-32.235
380,247164,-0.9650200999999999,-0.6724640000000001,-1.560868,194.2675,-206.36,-25.8475
381,247261,-1.242448,-0.171044,-1.109224,97.825,-261.03,-20.965
382,247359,-1.250744,0.24668400000000001,-0.7954399999999999,14.665,-275.6425,-15.2075
383,247456,-0.8810841,0.252296,-0.89426,3.1325,-268.52,-0.105
384,247553,-0.513864,0.151036,-1.086776,11.935,-264.18,13.615
385,247650,-0.323544,0.15201199999999998,-1.154364,5.5125,-282.275,18.6375
386,247747,-0.126636,0.190564,-1.155828,-15.12,-308.14,17.4825
387,247844,0.05246,0.338916,-1.14802,-36.6625,-332.535,10.605
388,247941,0.186904,0.47677600000000003,-1.1775440000000001,-47.7925,-350.91,-1.0325
389,248038,0.2745,0.517768,-1.123132,-47.7575,-366.87,-15.5225
390,248135,0.366732,0.5307,-1.086532,-45.0275,-377.9475,-32.8825
391,248232,0.49434399999999995,0.45725600000000005,-1.072136,-42.8575,-384.0025,-53.5325
392,248329,0.6675840000000001,0.324764,-0.9911281,-41.7025,-386.8375,-75.5475
393,248426,0.65758,0.275476,-1.059936,-39.2175,-383.2325,-92.75001
394,248523,0.7166279999999999,0.127368,-1.2609920000000001,-33.355,-370.965,-99.4875
395,248620,0.856196,-0.013175999999999998,-1.489132,-31.255,-362.5825,-97.9825
396,248718,1.00894,-0.09394001,-1.652856,-36.9075,-361.27,-92.9775
397,248815,1.0201639999999998,-0.101016,-1.7402080000000002,-44.03,-362.985,-85.48751
398,248912,0.9091440000000001,-0.182024,-1.7450880000000002,-47.075,-359.7475,-74.6025
399,249009,0.853512,-0.359168,-1.741916,-49.56,-345.38,-62.405
400,249106,0.9354959999999999,-0.468724,-1.747284,-59.045,-322.28,-49.4025
401,249203,1.31516,-0.523624,-1.81902,-79.7475,-293.545,-37.8525
402,249300,1.850008,-0.48653599999999997,-1.915888,-109.3575,-268.24,-32.4625
403,249397,2.4217,-0.255956,-2.095716,-142.8525,-252.1925,-35.665
404,249494,2.814052,0.15762400000000001,-2.130608,-169.3125,-251.72,-46.515
405,249591,3.156872,0.5858439999999999,-2.008608,-165.7075,-264.18,-53.9525
406,249688,3.510428,0.6851520999999999,-1.66042,-124.25,-280.9975,-49.6825
407,249785,3.5553239999999997,0.282308,-0.8723001,-66.5175,-292.7575,-34.5975
408,249883,3.30376,-0.29402,0.156892,-33.4425,-283.5525,-19.8625
409,249980,3.2574,-0.472384,0.937448,-41.72,-245.2625,-28.8225
410,250077,3.609004,-0.33916,1.336144,-47.495,-181.4575,-55.895
411,250174,4.27366,-0.21862399999999999,1.580876,-15.6625,-113.5925,-79.38
412,250271,4.196556,-0.42163199999999995,1.670668,33.32,-51.3975,-80.99
413,250368,3.52946,-0.6541640000000001,1.5001120000000001,54.005,12.46,-67.9
414,250465,2.958988,-0.389424,0.9774639999999999,25.6725,73.02750999999999,-61.495
415,250562,2.580788,0.366244,0.41577600000000003,-7.5775,130.34,-58.66
416,250659,1.035292,0.9874681000000001,-0.7993439999999999,9.24,189.5775,-65.695
417,250756,-1.86782,1.616012,-2.852116,96.11,219.1525,-62.1775
418,250853,0.780312,0.363072,-3.058784,177.7475,261.7825,-42.595
419,250950,1.123864,-1.871968,-0.509472,248.6575,218.925,-22.9775
420,251048,1.23708,-2.1169439999999997,-0.8491200000000001,198.2225,214.27,0.9275
421,251145,0.661484,-1.058716,-1.87392,99.9775,230.055,7.105
422,251242,0.423584,-0.8481440999999998,-1.592344,70.7175,188.72,27.51
423,251339,1.533052,0.502152,-2.63764,51.94,186.97,46.0425
424,251436,2.6461799999999998,1.7714400000000001,-3.2981480000000003,73.745,145.81,41.3175
425,251533,0.15616,-0.356484,-0.8081281,91.525,10.5875,4.76
426,251630,-0.037576,-1.794864,-1.001132,62.93,1.785,-12.285
427,251727,0.351116,-0.1586,-1.020408,4.4625,9.6075,-2.03
428,251824,0.476288,0.809348,-1.1289879999999999,-21.8225,15.1025,0.4025
429,251921,0.126392,-0.361852,-0.907436,-4.585,6.58,-14.3675
430,252019,0.374052,-0.034404000000000004,-1.006988,-11.8825,10.395,-11.34
431,252116,0.312564,0.49044,-1.011136,-20.475,8.33,-6.5275
432,252213,0.263764,0.136884,-0.9833200000000001,-7.2275,4.27,-9.485
433,252310,0.256688,0.11736400000000001,-0.97234,0.0875,3.22,-6.1075
434,252407,0.228384,0.1281,-0.97356,2.94,2.24,-3.3075
435,252504,0.235948,0.117852,-0.981124,7.2625,2.975,-0.9625
436,252601,0.264008,0.087352,-0.978196,11.515,3.395,1.855
437,252698,0.246196,0.030987999999999998,-0.992348,13.895,3.185,3.0625
438,252795,0.242048,0.008296000999999999,-0.985516,14.385,4.34,4.06
439,252892,0.23546,0.02196,-0.9864921,13.055,6.545,4.6025
440,252989,0.23009200000000002,0.039284,-0.9945440000000001,12.18,9.7825,4.7425
441,253087,0.229848,0.059536,-0.9913719999999999,12.88,13.09,4.4975
442,253184,0.26303200000000004,0.048068,-0.985516,14.28,16.1175,4.9875
443,253281,0.286456,0.030744,-0.976,15.19,17.57,6.02
444,253378,0.27205999999999997,0.036112,-0.9711200999999999,14.875,17.325,7.525
445,253475,0.24888000000000002,0.014152000000000001,-0.966484,14.28,18.34,9.485
446,253572,0.24717199999999998,-0.004636001,-0.8669319999999999,12.5475,20.02,13.16
447,253669,0.343552,0.015616,-0.9701440999999998,7.5425,23.1875,15.925
448,253766,0.32208000000000003,0.02074,-0.9720960999999999,6.1075,22.435,17.5
449,253863,0.28426,0.005856,-0.9469641,4.2,23.345,17.8675
450,253960,0.299144,-0.01952,-0.9623360999999999,3.64,25.9,16.4675
451,254057,0.30402399999999996,0.0183,-0.9830760000000001,2.94,28.525,15.2775
452,254155,0.30036399999999996,0.024156,-0.97356,3.5,32.1825,14.8575
453,254252,0.302804,0.005368,-0.9701440999999998,3.92,36.3825,14.8575
454,254349,0.30475599999999997,-0.00244,-0.9745360000000001,4.3575,41.1075,14.3675
455,254446,0.315004,0.011712,-0.9686799999999999,4.795,46.9875,13.0725
456,254543,0.29646,-0.011468,-0.9623360999999999,6.9125,52.5525,11.935
457,254640,0.29792399999999997,-0.008296000999999999,-0.9572120999999999,7.3325,58.9225,10.675
458,254737,0.307684,-0.01708,-0.9564799999999999,6.5275,66.36,8.3125
459,254834,0.29987600000000003,-0.020252000000000003,-0.9635560999999999,6.405,74.9,5.985
460,254931,0.30866,-0.016347999999999998,-0.9757561,6.5625,86.0825,3.22
461,255028,0.300852,-0.002928,-0.9977159999999999,7.28,99.715,0.5425
462,255126,0.27694,-0.008052001,-0.9977159999999999,8.54,116.9875,-1.89
463,255223,0.292312,0.005856,-1.041148,8.015,137.7775,-4.0425
464,255320,0.28181999999999996,-0.000732,-1.022848,10.57,161.8575,-4.55
465,255417,0.285968,-0.002684,-1.0255319999999999,10.815,188.4575,-3.675
466,255514,0.28304,0.035868000000000004,-1.035048,14.525,216.475,0.8225
467,255611,0.279136,0.016104,-1.021872,19.915,248.185,6.86
468,255708,0.24668400000000001,0.051484,-1.043588,23.1875,285.775,16.625
469,255805,0.2379,-0.017324000000000003,-1.0140639999999999,31.7975,328.615,24.92
470,255902,0.17812,-0.05172801,-1.167052,36.575,380.1175,28.945
471,255999,0.08442401,0.11224,-1.1350879999999999,39.48,435.05,34.265
472,256096,0.31451599999999996,0.165432,-1.244644,48.8425,499.94,47.67
473,256194,0.29743600000000003,0.15396400000000002,-1.318576,81.515,555.9225,58.8525
474,256291,0.656116,-0.068564,-1.6565159999999999,150.43,573.3175,72.975
475,256388,2.174528,-0.18104800000000001,-0.561932,204.47,573.405,82.2675
476,256485,2.215764,-0.5158159999999999,-0.6456241,80.01,573.405,31.43
477,256582,2.86456,-0.14005599999999999,-0.07637200000000001,-122.815,573.405,-36.2775
478,256679,3.5929,-0.122,-2.72792,-371.0525,573.405,-55.2475
479,256776,4.769712,0.110776,-3.8205519999999997,-434.9625,519.82,-29.3475
480,256873,2.780868,1.5079200000000001,-4.636732,-284.48,315.8925,8.6625
481,256970,1.7575319999999999,2.7764759999999997,-5.490488,-168.1575,76.545,25.62
482,257067,0.578036,2.128168,-3.310104,96.56501,-153.1075,24.08
483,257165,-0.42748800000000003,0.8247200000000001,0.258884,251.3,-286.545,3.08
484,257262,0.385764,0.2684,-3.215188,199.8325,-202.0725,-17.92
485,257359,-0.323056,-0.157868,-1.6682279999999998,138.495,-269.64,-28.035
486,257456,-1.076284,0.131272,-0.8344801,76.7025,-332.885,-28.3325
487,257553,-0.9874681000000001,0.460672,-0.83936,11.2875,-325.2025,-22.89
488,257650,-0.508252,0.30134,-1.063352,3.3075,-311.745,-15.1025
489,257747,-0.290116,0.297192,-1.137772,-2.415,-322.455,-11.3925
490,257844,-0.122,0.36892800000000003,-1.11264,-23.31,-345.0825,-15.12
491,257941,0.019275999999999998,0.386496,-1.047492,-41.615,-366.73,-23.8
492,258038,0.114192,0.42944,-0.967216,-54.0225,-383.8625,-36.155
493,258135,0.196664,0.47482399999999997,-0.89792,-59.8675,-393.05,-49.4025
494,258232,0.336964,0.49288000000000004,-0.9274440999999999,-59.395,-394.6425,-63.14
495,258329,0.48995200000000005,0.499712,-1.023336,-54.775,-393.1725,-78.785
496,258427,0.6141479999999999,0.490928,-1.10532,-47.95,-394.275,-96.145
497,258524,0.7661600000000001,0.409188,-1.123132,-38.2375,-395.5875,-113.5575
498,258621,0.862784,0.17202,-1.13094,-25.795,-394.6075,-127.785
499,258718,0.803736,0.019275999999999998,-1.2561120000000001,-17.2025,-390.0925,-134.96
500,258815,0.9572120999999999,-0.120048,-1.5384200000000001,-18.34,-380.905,-132.2125
501,258912,1.103612,-0.261812,-1.7170279999999998,-20.2825,-377.5975,-121.905
502,259009,1.075064,-0.40967600000000004,-1.7692439999999998,-22.925,-377.51,-106.6625
503,259106,1.029436,-0.555832,-1.7929119999999998,-28.105,-370.5275,-86.32751
504,259203,1.059448,-0.7041841,-1.78608,-34.4925,-356.16,-61.3725
505,259300,1.2609920000000001,-0.73078,-1.821948,-52.57,-335.2825,-33.8975
506,259397,1.5859999999999999,-0.573156,-1.860012,-82.5825,-314.615,-11.4275
507,259495,2.048868,-0.25790799999999997,-1.94346,-116.76,-297.43,-2.9925
508,259592,2.540772,0.15201199999999998,-1.9644439999999999,-142.3625,-285.9675,-5.11
509,259689,2.899452,0.51118,-1.88002,-147.1925,-281.715,-9.4675
510,259786,3.194692,0.797148,-1.711904,-127.1725,-282.6425,-7.77
511,259883,3.362564,0.6021920000000001,-1.18218,-88.655,-288.1375,2.0125
512,259980,3.29156,-0.08100801,-0.25790799999999997,-60.2,-284.06,9.66
513,260077,3.1295439999999997,-0.35502,0.5692520000000001,-73.2025,-256.8125,-0.7525
514,260174,3.3806199999999995,-0.24131599999999997,1.009916,-93.065,-202.4225,-33.7225
515,260271,3.994036,-0.050263999999999996,1.22244,-64.41751,-135.5025,-68.9675
516,260368,4.442019999999999,-0.274012,1.353712,0.0875,-72.0825,-78.89
517,260466,3.9664639999999998,-0.774944,1.4422840000000001,47.0925,-21.245,-55.195
518,260563,3.19884,-0.796172,1.223172,22.4525,31.9025,-26.39
519,260660,2.5949400000000002,0.349408,0.7366361,-28.5425,87.46500999999999,-7.105
520,260757,2.469036,1.4659520000000001,-0.478972,7.4025,165.8125,-21.4375
521,260854,-1.25904,0.716384,-1.736792,170.5725,215.075,-29.4
522,260951,0.258152,-0.02196,-3.230316,229.67,251.7725,-13.37
523,261048,1.085068,-2.018856,-1.143384,254.9925,228.2175,-3.64
524,261145,1.048468,-2.2894520000000003,-0.81984,198.415,209.16,15.225
525,261242,0.5206960999999999,-1.107516,-1.353224,91.6825,232.75,29.8725
526,261339,0.468236,-0.276208,-1.56282,45.8325,217.0875,47.005
527,261436,1.8400040000000002,1.297836,-2.654232,22.1375,216.4225,46.7775
528,261534,2.476356,1.704584,-3.0451200000000003,88.83,178.0275,40.425
529,261631,0.578036,-0.8247200000000001,-1.3054,122.1675,42.8925,0.6125
530,261728,-0.089304,-1.7877880000000002,-0.9884440000000001,86.45,-2.7475,-11.7775
531,261825,0.373076,0.14566800000000002,-1.015772,4.9175,18.165,0.735
532,261922,0.5455840000000001,0.633912,-1.182424,-14.035,14.3325,-1.3125
533,262019,0.110776,-0.5504641,-0.8615640999999999,2.8175,5.0925,-14.35
534,262116,0.35160399999999997,0.06954,-1.0121120000000001,-13.1075,8.68,-8.89
535,262213,0.319396,0.525576,-0.993568,-18.9525,7.7,-5.7925
536,262310,0.251808,0.139324,-0.979416,-3.22,3.22,-7.9975
537,262407,0.273524,0.100772,-0.985516,3.5,2.485,-4.445
538,262505,0.253272,0.100284,-0.9684360999999999,4.7425,1.6975,-2.415
539,262602,0.232044,0.046360000000000005,-0.9598959999999999,6.65,0.91,-1.785
540,262699,0.232044,0.10492,-0.9684360999999999,8.2425,1.1725,0.4375
541,262796,0.23838800000000002,0.087108,-0.9825879999999999,11.4275,1.9775,2.345
542,262893,0.260836,0.023668,-0.978684,14.8925,2.59,3.0275
543,262990,0.24717199999999998,0.005856,-0.9911281,15.47,2.66,2.38
544,263087,0.257176,-0.0034159999999999998,-0.993568,15.645,3.4825,1.47
545,263184,0.25132,0.025863999999999998,-0.9767321,14.7525,5.1275,1.2425
546,263281,0.265228,0.043432,-0.9784401,14.0,7.4375,1.575
547,263378,0.266692,0.07515201,-0.9857600000000001,13.6675,8.7325,2.03
548,263476,0.267912,0.02928,-0.9635560999999999,14.6825,9.3975,2.59
549,263573,0.26596,0.019032,-0.9620920000000001,14.245,10.7975,3.815
550,263670,0.270108,0.043432,-0.9730721,14.9975,11.2875,5.635
551,263767,0.326228,-0.009516001,-0.959408,14.525,11.97,7.455
552,263864,0.265228,0.024644,-0.9503799999999999,9.8525,10.4825,8.89
553,263961,0.264252,0.007564001,-0.9696561,10.8325,10.6575,10.08
554,264058,0.276208,0.009272001,-0.9557479999999999,8.1375,12.74,11.9525
555,264155,0.284992,0.012444,-0.97234,5.565,14.595,12.95
556,264252,0.263276,0.038796,-0.97478,3.745,16.6425,13.3525
557,264349,0.27205999999999997,0.02684,-0.989176,2.5725,20.755,14.1225
558,264446,0.264252,-0.006344,-0.987956,2.94,25.97,13.2475
559,264544,0.285236,-0.023912,-0.9677040000000001,2.24,32.27,10.9025
560,264641,0.291824,0.004636001,-0.9913719999999999,-0.5425,38.1325,9.0475
561,264738,0.267424,-0.005368,-0.9716081,0.0,43.47,7.945
562,264835,0.284748,0.024644,-0.9850280999999999,-0.595,50.68,6.9475
563,264932,0.28938400000000003,0.032208,-1.0086959999999998,0.875,57.9075,5.355
564,265029,0.272304,-0.00366,-0.983564,2.66,65.50251,3.6925
565,265126,0.260348,-0.007808001,-1.013576,1.6975,76.475,1.61
566,265223,0.25961599999999996,-0.031232,-1.014308,2.2925,91.49,-1.54
567,265320,0.2501,-0.036844,-1.021628,0.8400001,110.3725,-4.7775
568,265417,0.24912399999999998,-0.05612,-1.03334,-1.1025,132.685,-8.9075
569,265515,0.24644000000000002,-0.027327999999999998,-1.0499319999999999,-3.4475,158.6725,-12.4075
570,265612,0.23692399999999997,0.007808001,-1.054812,-3.3425,186.83,-13.1075
571,265709,0.21520799999999998,0.00488,-1.039684,-1.785,217.8575,-10.605
572,265806,0.219844,0.06270801,-1.096292,0.2625,252.7875,-5.3375
573,265903,0.17128800000000002,-0.018056,-1.120204,7.0175,290.2375,1.82
574,266000,0.114192,0.133224,-1.146556,15.6975,338.1,8.9775
575,266097,0.057339999999999995,0.234972,-1.0382200000000001,22.505,396.83,21.245
576,266194,0.13078399999999998,0.23692399999999997,-1.095316,32.8125,466.3925,44.065
577,266291,0.202764,0.415288,-1.346148,46.76,535.8675,70.56
578,266388,0.291092,0.184952,-1.4152,80.99,571.585,81.865
579,266485,0.7327321,-0.055144000000000006,-1.678964,141.155,573.405,94.72751
580,266583,2.150616,-0.291824,-0.454084,176.715,573.405,93.5375
581,266680,2.176236,-0.66368,-0.7929999999999999,41.3875,573.405,36.33
582,266777,2.940444,-0.08003201,-0.45432799999999995,-158.4275,573.405,-37.9925
583,266874,3.588508,0.007564001,-3.021696,-370.8775,573.405,-47.635
584,266971,5.095452,0.527772,-4.6984639999999995,-411.6875,522.585,-13.23
585,267068,2.6110439999999997,2.628368,-5.931883999999999,-233.415,263.515,-1.575
586,267165,1.492304,2.3685080000000003,-4.8861,-29.575,-27.23,-14.9975
587,267262,-0.132736,1.663836,-2.696688,214.6725,-238.3675,-8.365
588,267359,-1.015284,-0.109556,0.14274,296.2225,-326.8475,-23.9575
589,267456,0.098332,-0.462624,-2.702544,173.495,-230.93,-27.615
590,267553,-0.523868,-0.479704,-1.399096,85.78501,-297.325,-24.9375
591,267650,-0.9730721,0.0366,-0.783972,8.7675,-351.3125,-11.55
592,267747,-0.6380600000000001,0.35672800000000005,-0.9530641,-40.0575,-341.8625,3.78
593,267845,-0.296704,0.309392,-1.079456,-24.15,-340.34,21.0525
594,267942,-0.1586,0.31158800000000003,-0.98088,-14.8925,-355.53,28.56
595,268039,-0.06563601,0.257664,-0.892064,-22.785,-368.9175,25.7775
596,268136,0.125172,0.24107199999999998,-0.9511120000000001,-40.4075,-376.8275,15.5925
597,268233,0.26913200000000004,0.326472,-0.9713639999999999,-63.875,-387.5375,0.6475
598,268330,0.376492,0.44212799999999997,-1.001376,-80.7975,-397.1275,-16.94
599,268427,0.44505600000000006,0.568764,-1.0147959999999998,-83.1775,-403.1475,-35.63
600,268524,0.49824799999999997,0.60634,-1.027728,-70.8225,-404.1625,-55.335
601,268621,0.560956,0.5307,-1.0911680000000001,-52.0975,-398.895,-76.0375
602,268718,0.871568,0.288164,-1.1102,-36.995,-388.465,-96.4075
603,268815,0.8459479999999999,0.118584,-1.356884,-35.0175,-383.32,-114.345
604,268912,0.7190681,-0.026108,-1.305644,-32.795,-387.94,-124.985
605,269009,0.9625799999999999,-0.194956,-1.60064,-31.4825,-373.45,-121.9575
606,269107,0.9677040000000001,-0.341356,-1.6960439999999999,-26.7925,-361.515,-110.1275
607,269204,1.000644,-0.50508,-1.75558,-24.0275,-349.37,-89.72251
608,269301,1.120204,-0.675148,-1.8343919999999998,-28.1225,-332.64,-62.4925
609,269398,1.308816,-0.69906,-1.915644,-47.0225,-314.195,-33.81
610,269495,1.575996,-0.60146,-1.915156,-78.7325,-298.095,-12.67
611,269592,1.99836,-0.376492,-1.903932,-117.2325,-283.78,-8.505
612,269689,2.526376,0.01342,-1.899052,-148.9425,-272.58,-18.2875
613,269786,2.934344,0.451888,-1.7990119999999998,-155.4,-268.485,-30.8
614,269883,3.214456,0.72346,-1.577216,-131.9675,-268.0825,-35.84
615,269980,3.470168,0.560956,-1.172908,-89.5125,-270.55,-32.34
616,270077,3.415024,0.08417999999999999,-0.437004,-50.9775,-270.7075,-25.4625
617,270175,3.2635,-0.387716,0.438224,-44.17,-257.46,-26.1275
618,270272,3.318888,-0.359656,1.009672,-60.6725,-215.32,-41.51
619,270369,3.8510519999999997,-0.209108,1.22854,-49.175,-155.5225,-58.59
620,270466,4.33954,-0.268156,1.38958,-5.635,-95.515,-63.63
621,270563,4.050644,-0.517768,1.53354,38.605,-41.685,-49.5775
622,270660,3.4042879999999998,-0.553148,1.387628,43.0325,14.4025,-33.25
623,270757,3.3476800000000004,0.528992,1.0887280000000001,22.6275,80.57,-27.23
624,270854,1.2099959999999998,0.05563200000000001,-0.796172,72.4675,182.5075,-29.155
625,270951,-1.909544,0.483364,-1.856352,160.3525,186.6725,-16.205
626,271048,1.1770559999999999,-0.13298,-3.4162440000000003,198.3625,284.235,11.795
627,271145,1.3893360000000001,-2.22162,-0.5160600000000001,224.0175,207.1825,34.195
628,271243,1.078724,-1.3359,-1.403,128.345,216.1425,33.7225
629,271340,0.42602399999999996,-0.36282800000000004,-1.477908,67.83,208.5825,33.46
630,271437,0.48263199999999995,-0.021228,-1.410076,32.8825,194.5825,29.89
631,271534,2.045696,1.071892,-2.941908,30.555,199.5175,22.6275
632,271631,1.786568,0.678076,-2.6327599999999998,97.2475,126.665,16.905
633,271728,0.23668000000000003,-0.791536,-0.9286639999999999,92.27750999999999,23.7825,-5.7575
634,271825,0.189832,-0.8971879999999999,-1.058716,52.115,9.2575,-8.75
635,271922,0.376248,0.20642399999999997,-1.0521280000000002,6.51,14.42,-4.1475
636,272019,0.42065600000000003,0.233996,-1.081652,-0.07,8.155,-7.35
637,272116,0.163724,-0.286456,-0.9267120000000001,4.41,3.675,-12.7925
638,272213,0.29743600000000003,0.121024,-0.9974719999999999,-8.5925,7.875,-8.4525
639,272310,0.36356,0.340868,-1.004548,-9.5025,8.015,-6.195
640,272408,0.254492,0.10394400000000001,-0.9857600000000001,-0.4375,3.43,-7.8575
641,272505,0.26913200000000004,0.053924,-0.9921040999999999,4.5325,2.3975,-5.88
642,272602,0.259372,0.05172801,-0.9840521000000001,5.3025,2.0125,-4.3925
643,272699,0.23741199999999998,0.063196,-0.9806360000000001,6.7375,1.015,-3.115
644,272796,0.249856,0.071004,-0.983564,9.765,0.735,-0.875
645,272893,0.265472,0.021472,-0.9906401,12.5125,0.8400001,0.315
646,272990,0.264496,-0.01342,-0.9830760000000001,13.0375,0.8400001,0.2625
647,273087,0.26108000000000003,-0.001952,-0.9777081,10.325,0.77,-0.0875
648,273184,0.25961599999999996,0.005368,-0.9725841000000001,7.455,1.5575,-0.7175
649,273281,0.242536,0.053436000000000004,-0.9703879999999999,6.0725,2.1175,-0.4375
650,273379,0.237656,0.06929600000000001,-0.97356,6.2825,3.2025,0.49
651,273476,0.251564,0.07173600000000001,-0.9784401,7.7,4.725,1.68
652,273573,0.25132,0.059536,-0.9772200999999999,9.24,5.845,2.415
653,273670,0.255712,0.06954,-0.9679481,10.465,6.6675,3.29
654,273767,0.258396,0.054167999999999994,-0.964532,12.0925,8.33,4.62
655,273864,0.24131599999999997,0.01952,-0.9679481,14.0875,9.0475,5.9675
656,273961,0.29572800000000005,0.0051240009999999996,-1.000156,11.48,10.6575,6.8775
657,274058,0.259128,-0.007320001,-0.951844,8.9075,11.4625,7.4375
658,274155,0.2623,-0.016347999999999998,-0.966728,6.65,13.055,7.42
659,274252,0.27279200000000003,0.014152000000000001,-0.9503799999999999,4.585,14.175,8.6625
660,274349,0.28181999999999996,0.051972000000000004,-0.965996,2.9225,15.68,9.66
661,274446,0.273036,0.02806,-0.9701440999999998,3.2025,17.2375,10.9025
662,274544,0.269376,0.015372,-0.9867360999999999,2.975,20.3525,11.095
663,274641,0.259372,0.016836,-0.9906401,1.2775,24.9375,10.815
664,274738,0.24668400000000001,0.014152000000000001,-1.00406,-0.28,30.975,10.3775
665,274835,0.264496,-0.00366,-0.9803921,0.735,38.4125,9.3625
666,274932,0.26474000000000003,0.040260000000000004,-0.9711200999999999,-0.2975,46.375,8.9075
667,275029,0.276208,0.030256,-1.006988,0.35,54.425,8.715
668,275126,0.26766799999999996,-0.016104,-0.9972281,2.3975,62.1075,7.6125
669,275223,0.266448,-0.016836,-1.0187,2.6075,71.1725,4.8825
670,275320,0.25132,-0.040748,-1.027728,3.4825,83.30001,1.33
671,275417,0.25424800000000003,-0.037088,-1.028216,1.7675,100.275,-2.1
672,275514,0.234972,-0.067832,-1.018944,-0.7875,121.275,-5.8975
673,275611,0.24717199999999998,-0.040992,-1.030168,-4.6725,144.48,-9.6425
674,275709,0.24497600000000003,-0.045872,-1.0255319999999999,-5.67,169.3475,-13.02
675,275806,0.2379,0.023668,-1.04188,-6.09,196.7,-13.265
676,275903,0.24156,-0.000732,-1.0121120000000001,-2.1525,227.08,-11.55
677,276000,0.255956,0.0017079999999999999,-1.029924,1.785,259.7175,-8.365
678,276097,0.23253200000000002,0.08906,-1.117764,3.9025,293.1075,-1.645
679,276194,0.13664,0.062464,-1.090924,12.18,332.7275,4.3575
680,276291,0.09028,0.236192,-0.9903959999999999,18.9525,385.35,13.37
681,276388,0.211792,0.182024,-0.9803921,28.105,446.2675,30.765
682,276485,0.186416,0.487756,-1.36762,38.675,508.095,52.57
683,276582,0.320128,0.178608,-1.464976,80.08,558.6525,66.185
684,276679,0.425048,-0.101748,-1.7441119999999999,163.0125,573.335,88.865
685,276777,1.9102759999999999,-0.08857201,-0.5011760000000001,218.0325,572.7925,94.67501
686,276874,2.1959999999999997,-0.547292,-0.562176,111.895,573.37,44.0125
687,276971,2.578836,-0.43627200000000005,0.211792,-86.7125,573.405,-28.8925
688,277068,3.8534919999999997,0.31890799999999997,-2.3785119999999997,-327.215,573.405,-68.4075
689,277165,6.4398919999999995,0.330376,-4.1955800000000005,-456.8025,549.8675,-28.9625
690,277262,3.4879800000000003,1.148752,-4.797772,-254.1525,355.6175,19.74
691,277359,1.719712,2.792336,-5.574668,-110.705,106.995,33.4075
692,277456,0.4331,2.5061240000000002,-4.446168,117.88,-169.75,21.1925
693,277553,-0.280356,0.42138809999999993,1.25416,295.1725,-342.3525,-6.37
694,277650,0.551928,0.404552,-3.5965599999999998,164.7275,-157.2725,-18.62
695,277747,-0.558272,-0.23058,-1.505724,156.3625,-290.2725,-27.335
696,277845,-1.289052,-0.016836,-0.6348881,93.8875,-338.9925,-19.5125
697,277942,-1.096048,0.244488,-0.7190681,20.02,-320.0925,-12.425
698,278039,-0.593896,0.183976,-0.9389120000000001,-0.1575,-302.785,-2.7125
699,278136,-0.4453,0.208864,-0.9589200999999999,-9.8875,-311.01,2.345
700,278233,-0.315492,0.285968,-0.9150001,-27.9475,-327.4075,0.4375
701,278330,-0.21057199999999998,0.230336,-0.8718120999999999,-38.045,-342.125,-4.06
702,278427,-0.054655999999999996,0.193004,-0.908168,-48.405,-352.2925,-10.535
703,278524,0.10540799999999999,0.16128399999999998,-0.930616,-61.0575,-362.3375,-18.725
704,278621,0.246928,0.159332,-0.9857600000000001,-70.5775,-371.91,-26.005
705,278718,0.35746,0.194712,-1.048712,-73.045,-381.2025,-31.955
706,278815,0.451888,0.18446400000000002,-1.110688,-66.7275,-388.6925,-38.115
707,278913,0.6007279999999999,0.121268,-1.230248,-58.17,-392.385,-44.17
708,279010,0.7259001,0.105896,-1.335412,-53.4275,-397.9675,-49.735
709,279107,0.803492,0.09223200000000001,-1.435208,-51.87,-404.88,-54.6875
710,279204,0.8813280000000001,0.051484,-1.5403719999999999,-52.71,-408.73,-59.5175
711,279301,0.9618481,-0.015372,-1.661152,-55.7025,-409.29,-64.0325
712,279398,0.9967401,-0.10809200000000001,-1.74826,-61.145,-407.3825,-66.885
713,279495,1.021384,-0.226188,-1.843908,-68.0925,-399.2275,-66.64
714,279592,1.1716879999999998,-0.305732,-1.9949439999999998,-82.3375,-382.585,-63.4725
715,279690,1.418128,-0.304268,-2.066436,-107.7825,-363.055,-60.585
716,279786,1.771196,-0.22326,-2.0703400000000003,-138.46,-340.55,-65.3975
717,279883,2.33142,-0.085888,-2.067412,-164.7625,-312.7075,-82.845
718,279981,2.951912,0.142252,-1.956636,-176.4,-287.665,-104.3175
719,280078,3.4977400000000003,0.50264,-1.7931560000000002,-163.8875,-268.205,-117.775
720,280175,4.069432,0.60024,-1.498404,-116.4975,-257.2325,-116.5325
721,280272,4.2058279999999995,0.363316,-0.9730721,-51.59,-263.27,-93.9925
722,280369,4.1240879999999995,-0.385764,0.012444,-0.42,-268.5725,-63.5775
723,280466,3.831288,-0.64904,0.99918,7.5775,-245.7875,-43.12
724,280563,4.2058279999999995,-0.776896,1.719956,1.12,-197.225,-33.285
725,280660,4.569876,-0.6646561,2.032276,4.935,-126.1575,-17.92
726,280757,4.048204,-0.607804,2.0374,25.97,-51.59,10.185
727,280854,3.2774080000000003,-0.379176,1.6479759999999999,16.7825,24.955,30.0125
728,280952,3.0158400000000003,1.11386,1.0582280000000002,-1.8725,107.485,31.4125
729,281049,0.8518040000000001,0.5121560000000001,-0.9113399999999999,62.9475,208.2325,7.5425
730,281146,-0.674172,1.292224,-2.627148,136.7625,220.9375,-5.775
731,281243,1.208288,0.6653880999999999,-3.488468,174.1075,269.92,-28.1575
732,281340,0.8398479999999999,-2.0069,-0.15494000000000002,254.7825,184.485,-20.7375
733,281437,1.042856,-2.256268,-1.1507040000000002,167.895,223.9125,-17.22
734,281534,0.60146,-1.2580639999999998,-1.8004759999999997,64.0325,218.4,-0.7875
735,281631,1.349076,-0.604388,-2.426336,42.0875,187.285,36.5925
736,281728,1.596004,0.798856,-1.921988,68.0225,157.4825,65.0475
737,281825,1.3729879999999999,1.7160520000000001,-1.963468,86.17,71.71500999999999,37.135
738,281922,0.385764,-0.5314321,-1.204628,90.21251,23.5375,-9.905
739,282019,0.0427,-1.2609920000000001,-0.8998719999999999,70.9275,-7.56,-15.82
740,282117,0.45871999999999996,0.530456,-1.015528,8.3825,13.6675,-0.35
741,282214,0.36136399999999996,0.35746,-1.11996,7.5075,5.39,-3.675
742,282311,0.23301999999999998,-0.486048,-0.8908440999999999,25.2,-0.245,-10.99
743,282408,0.293532,0.17324,-1.0438319999999999,2.8,5.81,-4.5675
744,282505,0.27889200000000003,0.082472,-1.011136,1.4175,2.2575,-5.7225
745,282602,0.262788,0.0427,-0.97478,6.0725,1.7675,-7.035
746,282699,0.24912399999999998,0.14762,-0.999668,5.985,1.1725,-4.62
747,282796,0.235948,0.056852,-0.9864921,11.4975,0.875,-3.2375
748,282893,0.25986,0.080276,-0.9945440000000001,14.42,1.4,-0.8575
749,282990,0.251564,0.07686,-0.9974719999999999,17.0275,1.0325,0.805
750,283087,0.256688,0.007076001,-0.9874681000000001,18.55,2.0475,0.8925
751,283184,0.23692399999999997,-0.008784,-0.987712,16.8175,3.2025,0.5075
752,283282,0.25790799999999997,0.049532,-0.9901521000000001,14.2275,5.775,1.1375
753,283379,0.251808,0.05002,-0.9818561,14.105,7.8925,2.4675
754,283476,0.252784,0.0305,-0.985516,14.0175,9.625,3.5875
755,283573,0.24863600000000002,-0.00976,-0.966728,13.6675,11.2875,4.2
756,283670,0.251808,0.027572000000000003,-0.9799041,11.2175,13.195,4.585
757,283767,0.266692,0.017812,-0.9696561,10.6225,14.7175,5.5825
758,283864,0.27571999999999997,0.002928,-0.9625799999999999,10.3075,16.03,7.14
759,283961,0.256444,-0.013908000000000002,-0.9503799999999999,8.715,17.1675,8.2425
760,284058,0.282308,0.053191999999999996,-0.981124,4.4275,19.1975,10.3425
761,284155,0.29377600000000004,0.016104,-0.9650200999999999,5.0225,20.685,12.495
762,284252,0.29036,0.028792,-0.9628241,4.5675,22.1375,13.825
763,284350,0.274988,0.03538,-0.9745360000000001,4.9,23.1525,14.1925
764,284447,0.28157600000000005,-0.006832001,-0.9572120999999999,6.6325,24.4125,13.7725
765,284544,0.285968,-0.01342,-0.955016,5.11,26.355,13.195
766,284641,0.282796,0.007076001,-0.9774639999999999,4.6725,29.6275,12.7575
767,284738,0.299388,-0.016347999999999998,-0.9567241,4.5675,34.37,12.1975
768,284835,0.28621199999999997,-0.01708,-0.9903959999999999,4.0775,39.6375,11.6375
769,284932,0.282064,0.002196,-0.9677040000000001,5.95,44.66,11.62
770,285029,0.29768,-0.009028000999999999,-0.9691681000000001,6.965,51.3625,11.1125
771,285126,0.29133600000000004,-0.005368,-0.974292,6.8775,57.75,10.15
772,285223,0.298656,-0.021716,-0.9699,7.8925,65.45,8.61
773,285320,0.288652,-0.0183,-0.9779521000000001,7.1925,73.7625,6.7025
774,285417,0.287432,-0.017812,-0.978684,8.3125,83.80751,4.655
775,285514,0.282552,-0.034648000000000005,-0.9918600000000001,8.8725,97.8775,1.5925
776,285612,0.27694,-0.041968,-1.0086959999999998,9.24,114.9225,-1.645
777,285709,0.26766799999999996,-0.028304000000000003,-1.042124,8.2075,135.7125,-4.8125
778,285806,0.274988,-0.042456,-1.020408,9.205,160.055,-6.685
779,285903,0.28548,-0.033916,-1.021384,11.2875,186.8825,-7.175
780,286000,0.259128,0.025863999999999998,-1.046028,12.0225,214.9525,-4.7075
781,286097,0.280844,0.015372,-1.020408,20.86,247.03,-0.8575
782,286194,0.28694400000000003,0.021228,-1.01626,26.53,280.63,6.545
783,286291,0.26718000000000003,0.050752,-1.000156,32.76,318.15,15.505
784,286388,0.16835999999999998,0.062464,-1.169736,40.1975,365.5225,21.35
785,286485,0.163236,0.046604,-1.011868,45.92,416.4475,28.875
786,286582,0.271572,0.193248,-1.2197559999999998,47.8275,476.9275,43.6625
787,286680,0.277428,0.294996,-1.316868,72.06501,534.4675,59.3075
788,286777,0.547536,-0.029768,-1.759484,137.76,571.06,73.64
789,286874,1.574044,-0.06954,-0.81374,220.675,573.265,95.585
790,286971,1.862452,-0.49776000000000004,-0.582428,176.6975,573.405,69.195
791,287068,2.6413,-0.479216,-0.439932,7.7525,573.3875,-0.2625
792,287165,3.16834,-0.17763199999999998,-0.400648,-195.685,573.405,-57.225
793,287262,4.996144,0.07978801,-4.2443800000000005,-410.445,566.3525,-52.4125
794,287359,3.712704,0.542168,-4.107252,-305.4275,419.16,-16.31
795,287456,2.189168,2.617388,-5.301144,-179.8825,215.53,20.8075
796,287553,1.7509439999999998,2.134024,-4.4439720000000005,20.09,-36.6275,22.6975
797,287650,-0.23424,1.612108,-2.38022,201.775,-255.2025,1.89
798,287747,0.14884,0.198372,-2.352404,259.5075,-260.295,-25.3575
799,287844,0.102724,-0.05636401,-2.3502080000000003,138.95,-200.3225,-40.0925
800,287942,-0.8813280000000001,-0.07808001,-1.16266,110.8975,-327.18,-48.965
801,288039,-1.093852,0.261324,-0.7227279999999999,32.8825,-333.2,-41.475
802,288136,-0.6653880999999999,0.2379,-0.8679081,1.47,-308.84,-29.5925
803,288233,-0.41284799999999994,0.17543599999999998,-1.0077200000000002,-3.6925,-307.4925,-20.09
804,288330,-0.30378,0.16835999999999998,-0.8910879999999999,-18.725,-326.235,-20.37
805,288427,-0.20861999999999997,0.17934,-0.8601,-37.2225,-340.41,-23.3625
806,288524,-0.03782,0.162992,-0.883524,-54.355,-350.91,-29.1375
807,288621,0.131272,0.251564,-0.9415959999999999,-66.395,-360.57,-35.5075
808,288718,0.283528,0.28792,-1.0126,-66.01,-370.09,-40.7225
809,288815,0.38356799999999996,0.260104,-1.037976,-58.3625,-380.5725,-46.9
810,288912,0.42212,0.2257,-1.024556,-49.1225,-389.305,-53.795
811,289009,0.467016,0.16128399999999998,-1.0614,-42.77,-391.825,-62.335
812,289106,0.558028,0.133468,-1.159244,-41.23,-390.985,-72.205
813,289204,0.7795801,0.030987999999999998,-1.269288,-40.8975,-389.865,-81.655
814,289301,0.904752,-0.027816000000000004,-1.7741240000000003,-41.965,-383.74,-86.8875
815,289398,0.9823440999999999,-0.167628,-1.653344,-41.685,-396.06,-89.635
816,289495,0.9137799999999999,-0.307684,-1.617964,-35.07,-403.83,-83.2475
817,289592,1.11996,-0.49873599999999996,-1.6643240000000001,-33.215,-395.6225,-69.055
818,289689,1.173152,-0.616588,-1.868064,-47.8275,-379.8375,-51.3275
819,289786,1.2561120000000001,-0.5751081,-1.9788400000000002,-71.225,-366.415,-33.425
820,289883,1.464244,-0.42822,-2.031788,-94.045,-350.455,-17.815
821,289980,1.7875439999999998,-0.274744,-2.04228,-115.7275,-331.0475,-11.585
822,290077,2.279936,-0.07490801,-2.008364,-133.035,-309.5225,-18.375
823,290174,2.811368,0.17519200000000001,-1.9659080000000002,-141.4,-290.3775,-28.77
824,290271,3.43796,0.316956,-1.758996,-136.3775,-277.165,-35.665
825,290368,3.63194,0.276208,-1.5159719999999999,-110.355,-270.3225,-34.93
826,290466,3.921324,0.005368,-0.838628,-91.56,-290.78,-31.2025
827,290563,3.921324,-0.413092,0.09613601,-72.1175,-279.79,-29.3475
828,290660,3.6987959999999998,-0.45628,1.1934040000000001,-49.735,-245.945,-30.9575
829,290757,4.2419400000000005,-0.518744,1.62382,-15.12,-179.585,-34.2125
830,290854,4.407616,-0.647332,1.876116,33.25,-107.905,-23.625
831,290951,3.8361680000000002,-0.7378560000000001,1.772172,52.955,-38.4475,-1.3825
832,291048,3.305712,-0.337696,1.20658,20.3175,29.4175,12.11
833,291145,3.468948,1.057252,0.687592,4.3925,102.3225,11.305
834,291242,0.606096,0.410408,-1.050176,91.665,191.0125,-1.2075
835,291339,-0.45335200000000003,0.7407841,-2.093276,182.14,190.435,-5.775
836,291436,0.58316,0.5975560000000001,-2.726456,204.05,242.935,-9.3625
837,291533,0.856684,-1.879288,-0.576328,237.2125,187.2675,-11.655
838,291631,0.8945040000000001,-2.095228,-1.2524520000000001,141.5225,220.64,-39.3225
839,291728,0.42724399999999996,-1.617476,-1.347124,54.4075,211.6275,-33.5825
840,291825,0.456524,-1.67262,-1.45302,25.725,195.79,20.055
841,291922,2.498316,0.961116,-3.458212,2.5025,200.3925,59.85
842,292019,1.6211360000000001,2.430484,-2.0337400000000003,37.8,99.5575,36.505
843,292116,0.219356,-0.089792,-1.123376,66.6925,21.1925,-16.695
844,292213,0.062464,-1.48718,-0.8425321,60.1475,12.845,-27.2825
845,292310,0.46896800000000005,0.390888,-1.1009280000000001,12.11,11.4625,-2.24
846,292407,0.39771999999999996,0.591212,-1.091412,0.665,6.335,-2.1175
847,292504,0.089304,-0.580476,-0.9025559999999999,20.8075,-1.435,-15.1025
848,292601,0.345016,0.017568,-0.99918,2.4325,6.195,-8.645
849,292698,0.31402800000000003,0.282308,-1.004548,-5.11,7.945,-6.7725
850,292796,0.259128,-0.017568,-0.9886881,3.9725,2.3975,-10.01
851,292893,0.244732,0.06075601,-0.992348,5.46,2.2925,-7.56
852,292990,0.223504,0.018788,-0.9791719999999999,6.51,2.3625,-6.58
853,293087,0.21618400000000002,0.016104,-0.9860040999999999,8.4175,3.395,-5.4775
854,293184,0.25522399999999995,0.05856,-0.9964959999999999,9.31,4.9,-3.4125
855,293281,0.24668400000000001,0.05929201,-0.9945440000000001,11.4625,5.565,-1.33
856,293378,0.2623,0.001952,-0.981124,12.25,6.5275,-0.63
857,293475,0.26766799999999996,-0.011224,-0.978684,9.9225,8.0325,-0.9275
858,293572,0.268156,0.044652,-0.9772200999999999,7.1225,9.2225,-0.42
859,293669,0.26718000000000003,0.05124001,-0.9825879999999999,7.1925,9.66,0.7875
860,293766,0.25058800000000003,0.0793,-0.9830760000000001,8.085,10.325,2.17
861,293863,0.257176,0.073688,-0.9886881,9.5725,12.005,3.5175
862,293960,0.271328,0.026595999999999998,-0.9708760000000001,11.2525,13.16,4.865
863,294058,0.27205999999999997,0.050752,-0.9703879999999999,10.6925,13.7375,6.825
864,294155,0.271084,0.03172,-0.968192,10.99,14.0525,9.45
865,294252,0.21886799999999998,-0.06490399999999999,-0.9015799999999999,12.04,14.105,10.71
866,294349,0.343064,0.004148001,-0.9625799999999999,4.795,16.8525,11.3225
867,294446,0.274012,0.033672,-0.9701440999999998,2.0125,15.2775,11.9875
868,294543,0.283528,-0.020496,-0.9738041,3.535,16.9575,11.585
869,294640,0.275964,0.023912,-0.9598959999999999,0.5075,18.69,11.9875
870,294737,0.277916,0.03172,-0.9850280999999999,-1.89,21.315,12.6
871,294834,0.263276,0.020496,-0.983564,-2.0825,24.7975,12.8275
872,294931,0.27523200000000003,0.009272001,-0.9845401,-2.3275,29.12,12.9675
873,295028,0.289628,0.007808001,-0.9767321,-3.15,34.6675,12.8625
874,295125,0.288652,0.003172,-0.9591639999999999,-4.13,40.32,12.04
875,295222,0.28377199999999997,0.026351999999999997,-0.9740479999999999,-4.9875,46.8825,10.5
876,295320,0.305,0.020252000000000003,-0.9730721,-3.5875,53.5325,9.1525
877,295417,0.29597199999999996,0.008784,-0.9699,-1.7325,60.9,7.805
878,295514,0.277916,0.03538,-0.981612,-0.2275,69.2125,5.74
879,295611,0.29036,0.01586,-1.010892,1.8375,79.8525,3.99
880,295708,0.274012,-0.013908000000000002,-1.030412,1.5575,92.12001,1.7325
881,295805,0.256688,0.00122,-1.0206520000000001,0.8925,107.5375,-0.7525
882,295902,0.25132,0.001464,-1.026752,0.7175,128.17,-3.325
883,295999,0.24278000000000002,0.008540001,-1.0614,-1.2425,153.23,-5.355
884,296096,0.223992,-0.023668,-1.056764,-1.96,182.2625,-4.7425
885,296193,0.2074,-0.01952,-1.0650600000000001,-1.925,217.4375,-1.3825
886,296290,0.132004,-0.018056,-1.125084,-2.59,258.44,3.675
887,296387,0.041968,-0.010736,-1.214632,-1.68,308.6825,10.6225
888,296485,0.040748,-0.040260000000000004,-0.993812,6.4575,369.4775,13.545
889,296582,0.070516,0.02806,-1.054324,21.105,438.3575,14.49
890,296679,-0.07710399999999999,0.142984,-1.034316,32.795,507.64,28.525
891,296776,0.183732,0.31012399999999996,-1.278804,38.605,565.145,53.6375
892,296873,0.441884,0.29426399999999997,-1.386896,48.2475,573.405,61.9675
893,296970,1.601372,-0.42212,-1.214388,52.3075,573.405,36.1025
894,297067,3.1415,-0.281088,-1.089216,-3.5875,573.405,17.885
895,297164,3.467972,0.005612,-1.380552,-201.495,573.405,-65.1175
896,297261,4.107496,-0.256444,-3.2025,-394.7475,568.3125,-71.54
897,297358,4.139216,0.8703481,-4.75312,-459.34,422.4675,-22.8725
898,297455,1.361032,3.314496,-5.829892,-297.325,134.8025,14.525
899,297553,0.079544,2.287988,-3.826896,60.5325,-87.5175,41.4575
900,297650,-0.606096,0.8315520000000001,-2.0559439999999998,313.9325,-180.0225,57.6975
901,297747,-1.101172,-0.6649,-0.22814,325.7625,-234.5175,35.3325
902,297844,-0.287432,-0.7139439999999999,-2.0923,208.9325,-173.0225,35.7
903,297941,-0.355508,-0.213988,-1.6933599999999998,91.1925,-196.3325,42.035
904,298038,-0.7442,0.352092,-1.198284,34.0725,-272.3175,49.945
905,298135,-0.654896,0.7327321,-1.01016,26.145,-294.7175,62.2475
906,298232,-0.33916,0.6502600000000001,-1.158024,59.43,-299.8975,73.08
907,298329,-0.217404,0.6039,-1.030168,75.6525,-318.675,69.7725
908,298426,-0.12688,0.614392,-0.916464,67.445,-338.485,54.11
909,298523,0.00488,0.7256560000000001,-0.9516,44.94,-351.47,31.15
910,298620,0.13542,0.8703481,-0.952332,24.64,-363.8775,2.17
911,298718,0.274744,0.964044,-0.9906401,16.415,-372.0675,-29.05
912,298815,0.401624,0.9625799999999999,-1.059204,16.9225,-376.425,-61.2675
913,298912,0.578036,0.8652241,-1.096292,24.22,-381.7625,-92.295
914,299009,0.741028,0.74298,-1.049444,35.7875,-387.4675,-118.02
915,299106,0.822768,0.619516,-1.118984,48.3525,-387.1175,-131.1625
916,299203,1.1331360000000001,0.532408,-1.269044,55.125,-378.7175,-131.6525
917,299300,0.921832,0.376492,-1.3834799999999998,51.2225,-377.9125,-127.2775
918,299397,0.9333,0.407236,-1.372256,39.3925,-378.8575,-118.4575
919,299494,0.9999121,0.22862800000000003,-1.4125159999999999,30.9925,-371.35,-105.3675
920,299591,1.023824,0.284504,-1.587708,12.9325,-354.27,-90.195
921,299688,1.168272,0.462624,-1.7160520000000001,-8.225,-339.2725,-74.725
922,299785,1.481324,0.730536,-1.9205240000000001,-32.515,-322.9975,-64.1725
923,299882,2.019832,1.145824,-2.116212,-55.9825,-310.975,-65.94
924,299979,2.626904,1.7877880000000002,-2.3358119999999998,-65.8875,-305.3925,-83.825
925,300077,3.202256,2.2143,-2.286768,-45.0975,-310.17,-121.8875
926,300174,3.4587,2.167452,-1.7836400000000001,7.21,-324.6075,-164.4825
927,300271,3.2422720000000003,1.016748,-0.7766521,50.54,-334.075,-198.1525
928,300368,3.080012,0.36356,-0.059536,41.475,-309.68,-228.5675
929,300465,3.1390599999999997,0.046116000000000004,0.312076,-8.82,-260.6625,-252.7175
930,300562,3.276432,-0.424804,0.604876,-34.7025,-197.0675,-253.33
931,300659,3.7678480000000003,-0.118584,0.43602799999999997,-56.14,-132.755,-235.1825
932,300756,4.313432,0.23911999999999997,0.483364,-27.405,-92.995,-211.68
933,300853,4.249016,-0.24912399999999998,1.1448479999999999,34.93,-72.3625,-162.155
934,300950,3.528972,-0.710284,1.680916,26.3025,-38.9375,-108.5175
935,301047,3.0680560000000003,-0.06124401,1.530856,-55.16,22.9425,-81.48001
936,301144,3.448696,1.425448,0.386984,-100.1,127.5925,-91.1225
937,301241,-0.273768,-0.820084,-0.235948,20.8425,204.1725,-128.8525
938,301339,-1.126792,-2.182824,-0.7366361,50.3125,239.575,-167.51
939,301436,0.59902,-1.767048,-2.324832,-40.8975,357.665,-137.4275
940,301533,2.883348,-1.724592,-2.724504,-98.7875,332.2725,-52.955
941,301630,1.16388,-0.9408639999999999,-1.491084,-55.16,217.7525,35.385
942,301727,0.30866,-0.19276,-1.657736,-57.33,194.25,92.1725
943,301824,3.143452,3.050976,-4.203632,-35.5425,183.75,94.37751
944,301921,0.8352120000000001,1.7699759999999998,-0.46726,26.53,26.5825,37.4675
945,302018,0.472384,-0.639524,-1.7143439999999999,59.01,13.755,-5.8975
946,302115,-0.0034159999999999998,-0.400404,-0.6517241,45.2725,-4.2175,1.225
947,302212,0.585112,0.647576,-1.3207719999999998,22.2425,-2.3275,14.385
948,302309,0.0976,-0.229116,-0.909632,39.41,-5.635,-1.715
949,302406,0.360632,0.023180000000000003,-1.058716,32.27,-0.2975,-1.5925
950,302503,0.350628,0.254736,-1.057496,26.4775,-2.6775,2.59
951,302600,0.200324,-0.006587999999999999,-0.960384,32.9875,-6.055,0.8925
952,302698,0.19764,0.10126,-0.993568,31.115,-5.18,2.38
953,302795,0.296216,0.081252,-1.009916,34.755,-1.505,7.0175
954,302892,0.27889200000000003,0.028792,-0.989664,39.935,-0.98,7.875
955,302989,0.24668400000000001,-0.085156,-0.9894200000000001,38.8325,-0.0175,6.195
956,303086,0.260348,-0.043676,-0.9857600000000001,32.5325,3.115,4.1475
957,303183,0.261324,-0.003904,-0.984296,27.685,5.53,4.5675
958,303280,0.242048,-0.006344,-0.9921040999999999,25.2875,6.6675,5.53
959,303377,0.26156799999999997,-0.011956,-0.9764879999999999,23.205,8.435,5.18
960,303474,0.261812,0.002928,-0.9818561,22.5925,9.87,5.39
961,303571,0.26474000000000003,-0.011712,-0.976,23.0475,10.6225,6.195
962,303668,0.29133600000000004,-0.011224,-0.9677040000000001,22.4175,11.235,6.8425
963,303765,0.29743600000000003,-0.034892,-0.9581881,21.2275,11.1125,7.385
964,303862,0.28181999999999996,-0.034892,-0.9684360999999999,20.79,9.31,7.0175
965,303959,0.28914,-0.046848,-0.966728,20.5625,7.5425,6.37
966,304056,0.2867,-0.030744,-0.9635560999999999,19.355,6.965,5.81
967,304154,0.286456,-0.054167999999999994,-0.9486720999999999,19.0225,6.8075,5.88
968,304251,0.288652,-0.058803999999999995,-0.952332,18.06,6.44,5.9325
969,304348,0.28157600000000005,-0.06075601,-0.9552601000000001,17.9025,5.04,5.3025
970,304445,0.28548,-0.05977999999999999,-0.949892,17.1325,4.305,4.6725
971,304542,0.2623,-0.081984,-0.9557479999999999,15.925,4.27,4.5675
972,304639,0.273036,-0.087352,-0.9472079999999999,14.5425,5.1275,4.6025
973,304736,0.264984,-0.043432,-0.9650200999999999,11.7425,6.3875,4.3575
974,304833,0.28328400000000004,-0.067344,-0.9630681000000001,11.9525,7.4375,4.76
975,304930,0.28304,-0.07564,-0.958432,11.34,8.085,4.9
976,305027,0.27279200000000003,-0.057584,-0.968192,11.1825,8.785,4.235
977,305124,0.272304,-0.058072000000000006,-0.9674601,11.6375,10.2375,3.99
978,305221,0.266936,-0.053191999999999996,-0.9691681000000001,11.8475,11.9875,4.4625
979,305318,0.252784,-0.02684,-0.9799041,12.565,13.8425,4.62
980,305416,0.24278000000000002,-0.027083999999999997,-0.992348,14.1925,17.045,5.1625
981,305513,0.259128,-0.01708,-0.9950319999999999,16.38,21.2275,7.0175
982,305610,0.24424400000000002,-0.046360000000000005,-1.000156,18.1475,26.11,9.205
983,305707,0.238632,-0.034404000000000004,-1.022848,20.4575,32.2175,11.025
984,305804,0.2135,-0.121024,-1.014308,23.8875,39.935,11.76
985,305901,0.235704,-0.131028,-1.014308,24.185,50.19,11.13
986,305998,0.24570799999999998,-0.132736,-1.019432,22.925,63.07,9.9225
987,306095,0.25302800000000003,-0.07002799999999999,-1.05164,20.7025,78.3125,9.065
988,306192,0.196176,-0.058803999999999995,-1.104588,23.905,95.8475,7.175
989,306289,0.199104,-0.07808001,-1.1155680000000001,31.5525,115.5875,3.7275
990,306386,0.185196,-0.087352,-1.121424,36.505,140.3325,0.2275
991,306483,0.185928,-0.118096,-1.175836,41.09,169.9075,-3.1675
992,306580,0.162992,-0.029768,-1.2439120000000001,47.7575,204.925,-6.8075
993,306677,0.198128,-0.019032,-1.265628,63.14,243.4425,-10.0275
994,306775,0.22204000000000002,-0.008296000999999999,-1.22488,81.7075,285.0575,-10.08
995,306872,0.268156,-0.057339999999999995,-1.185352,97.12501,330.6625,-5.9675
996,306969,0.225456,0.182024,-1.247328,108.0975,372.7325,7.1925
997,307066,0.23472800000000002,0.149816,-1.1089799999999999,124.075,413.875,23.66
998,307163,0.335012,0.028548,-1.13094,139.475,465.36,41.0025
999,307260,0.35136,0.18422,-1.206092,176.68,517.1075,70.525
1000,307357,1.58112,0.086864,-1.631872,237.965,558.9325,114.94
1001,307454,2.7364599999999997,-0.518744,-1.532076,232.925,523.81,101.395
1002,307551,3.062688,-0.24522,-1.568432,166.0575,405.685,64.3825
1003,307648,2.101084,1.124596,-2.5695639999999997,111.5975,313.3375,55.23
1004,307745,2.3058,0.6392800000000001,-3.03658,122.6575,260.295,64.505
1005,307842,1.217072,2.405596,-3.4526,153.5625,83.545,25.305
1006,307939,1.6091799999999998,2.86822,-3.419172,250.1275,-83.825,-44.835
1007,308037,-0.274012,2.424384,-1.2519639999999999,413.35,-225.0675,-115.08
1008,308134,0.447496,0.815692,0.213256,516.25,-209.335,-151.2
1009,308231,0.18251199999999998,-0.010736,-0.849852,430.0975,-141.295,-170.8175
1010,308328,-0.14274,0.176656,-0.8247200000000001,357.7525,-190.0675,-159.075
1011,308425,-0.21472,0.423096,-0.747128,277.48,-194.4775,-166.39
1012,308522,-0.187636,0.589016,-0.587064,237.79,-208.39,-152.355
1013,308619,0.111508,0.675148,-1.029192,237.5275,-193.7425,-116.7425
1014,308716,0.11614400000000001,0.733708,-1.027484,245.1925,-204.8725,-86.17
1015,308813,0.183732,0.771772,-1.016504,235.4975,-224.9625,-66.1675
1016,308910,0.407968,1.02358,-1.18096,209.825,-242.375,-54.0225
1017,309007,0.58804,1.366156,-1.2500120000000001,185.9725,-270.0425,-52.885
1018,309104,0.725168,1.741184,-1.2822200000000001,172.5325,-298.865,-60.97
1019,309201,0.7766521,1.974448,-1.100684,175.665,-328.1775,-76.615
1020,309299,0.8615640999999999,2.0801,-0.9333,186.1475,-345.7475,-96.3375
1021,309396,1.0023520000000001,2.1777,-0.839116,189.0,-352.905,-118.86
1022,309493,1.1446040000000002,2.265784,-0.779824,181.44,-355.5475,-143.885
1023,309590,1.2622120000000001,2.3555759999999997,-0.725412,171.255,-357.385,-169.96
1024,309687,1.313696,2.501732,-0.700036,160.195,-358.855,-195.7375
1025,309784,1.4574120000000002,2.5766400000000003,-0.752984,153.02,-353.815,-219.24
1026,309881,1.529148,2.564684,-0.8047121,146.23,-346.675,-239.435
1027,309978,1.6567599999999998,2.571272,-0.8906,131.6175,-341.6,-255.43
1028,310075,1.7333759999999998,2.48148,-0.9916161,112.455,-336.0,-266.5425
1029,310172,1.8858759999999999,2.4561040000000003,-1.0736,88.69,-333.4275,-268.695
1030,310269,1.950048,2.455616,-1.125084,56.875,-331.1,-267.47
1031,310366,2.010072,2.486116,-1.138016,27.055,-325.0625,-268.31
1032,310463,2.117432,2.523448,-1.148264,4.1475,-315.035,-272.0725
1033,310560,2.235284,2.51808,-1.135332,-12.3725,-303.1525,-279.5625
1034,310657,2.31678,2.424628,-1.075552,-23.3275,-289.1175,-290.08
1035,310755,2.272616,2.2128360000000002,-0.999668,-33.425,-271.46,-301.9275
1036,310852,2.170868,1.96298,-0.9618481,-48.4925,-249.025,-313.81
1037,310949,2.13378,1.9241840000000001,-1.078968,-70.805,-222.495,-322.455
1038,311046,2.22772,1.613328,-1.1570479999999999,-90.66751,-197.5925,-324.1875
1039,311143,2.3428880000000003,1.48474,-1.311744,-113.1025,-177.2225,-322.6125
1040,311240,2.597868,1.365424,-1.459608,-141.4525,-165.8125,-320.5125
1041,311337,2.593232,0.310856,-1.075308,-157.71,-165.76,-316.505
1042,311434,2.2906720000000003,-0.09516001,-0.5702281,-170.205,-156.4675,-333.4275
1043,311531,2.946788,-0.019764,-0.612196,-192.71,-120.9425,-365.2075
1044,311628,3.169804,-0.451888,-0.49117200000000005,-134.155,-81.55001,-354.55
1045,311725,3.080012,-0.623908,-0.6753920999999999,-69.475,-57.47,-307.65
1046,311822,3.242516,-0.7134560999999999,-0.765428,-16.5375,-50.505,-252.6825
1047,311919,3.2122599999999997,-0.8888921000000001,-0.443592,23.3975,-65.59,-189.385
1048,312017,3.061224,-0.9635560999999999,-0.019032,29.19,-77.1575,-121.1525
1049,312114,2.746464,-0.9418401,0.5594920999999999,7.525,-72.5025,-69.0025
1050,312211,2.435364,-0.571692,0.779092,-30.8175,-36.505,-48.7725
1051,312308,2.376804,0.7707961,0.351116,-55.7725,20.2125,-60.76
1052,312405,3.463336,1.504748,-0.014884,26.5475,95.5325,-99.8725
1053,312502,1.2153639999999999,-1.330532,-0.24790399999999999,204.4875,161.5425,-159.1975
1054,312599,-0.319884,-3.412584,-0.172508,260.2775,193.1125,-187.6525
1055,312696,0.23838800000000002,-3.105388,-2.856996,149.3625,285.7575,-163.6775
1056,312793,1.635044,-2.960696,-2.980216,57.4175,240.2575,-77.2975
1057,312890,1.1575360000000001,-2.0403279999999997,-1.6628599999999998,35.14,155.785,33.075
1058,312987,0.27718400000000004,-0.293044,-1.18706,29.4875,129.4475,105.1925
1059,313084,0.115656,0.620492,-0.9982040000000001,-10.9725,112.9975,102.8825
1060,313181,1.4659520000000001,1.605276,-2.526376,-7.5075,120.9075,75.425
1061,313279,1.607228,2.538088,-1.333216,60.5325,74.48,58.4675
1062,313376,0.312564,0.270352,-1.117764,104.72,9.9925,12.0575
1063,313473,0.088328,-1.526952,-1.23098,99.155,10.7625,-8.75
1064,313570,0.292068,-0.702964,-1.0126,32.69,7.7,-0.7875
1065,313667,0.459208,0.753228,-1.098976,-14.3675,9.975,-0.0525
1066,313764,0.20861999999999997,0.263764,-0.936716,-8.19,6.265,-11.0075
1067,313861,0.274744,-0.012688,-1.019676,6.475,4.445,-11.1125
1068,313958,0.256444,0.22643200000000002,-0.987712,5.5125,1.505,-5.1625
1069,314055,0.231312,0.0854,-0.9913719999999999,8.8725,1.715,-5.985
1070,314152,0.24034,-0.000244,-0.978928,11.0075,2.2225,-5.8625
1071,314249,0.261812,0.04392,-0.9589200999999999,9.3975,1.715,-4.3925
1072,314346,0.251564,0.014152000000000001,-0.9791719999999999,8.225,0.735,-4.8825
1073,314443,0.234972,0.038064,-0.9852719999999999,8.3825,-0.5425,-4.8475
1074,314540,0.225456,0.07417601,-0.9867360999999999,9.975,-0.805,-4.0425
1075,314637,0.24058400000000002,0.0488,-0.9889319999999999,13.7725,0.105,-3.0275
1076,314734,0.25790799999999997,0.062220000000000004,-0.989908,17.43,0.2275,-1.1375
1077,314832,0.271084,0.06490399999999999,-0.9833200000000001,18.515,0.315,0.4025
1078,314929,0.247416,0.013663999999999999,-0.968924,17.815,-0.4375,1.015
1079,315026,0.245952,-0.011468,-0.964044,16.625,-0.4025,1.575
1080,315123,0.264008,0.035624,-0.9762440999999998,14.42,0.595,2.065
1081,315220,0.22935999999999998,0.04392,-0.9530641,14.1225,0.805,2.1875
1082,315317,0.23082399999999997,0.01586,-0.968924,14.1575,2.7125,2.415
1083,315414,0.25498000000000004,0.019032,-0.989176,12.32,4.6725,2.8525
1084,315511,0.2623,0.000488,-0.9796600000000001,11.97,5.2325,2.45
1085,315608,0.25254,0.06929600000000001,-0.9903959999999999,11.865,5.8275,1.9075
1086,315705,0.243756,0.046604,-0.9799041,14.7525,6.475,2.7125
1087,315802,0.24570799999999998,0.011224,-0.976,17.3425,7.9275,2.7475
1088,315899,0.248392,0.024644,-0.978684,16.03,9.9925,3.4475
1089,315996,0.250832,0.006344,-0.969412,14.7525,11.6725,5.1275
1090,316093,0.257664,-0.005612,-0.974292,11.6375,13.65,4.5675
1091,316190,0.242292,0.047336,-0.9950319999999999,9.765,16.1,3.4125
1092,316287,0.24351199999999998,0.010004,-0.9918600000000001,11.8825,19.0575,3.8675
1093,316385,0.207156,0.022936,-1.013332,13.58,23.8525,5.1975
1094,316482,0.20008,0.07417601,-1.030168,14.315,30.6775,5.25
1095,316579,0.236436,-0.008540001,-0.9962521000000001,17.78,39.8125,4.4975
1096,316676,0.228872,-0.043188,-0.972828,17.43,49.9975,4.7075
1097,316773,0.267912,-0.07564,-1.003084,14.8575,60.8475,5.25
1098,316870,0.262788,0.017324000000000003,-0.987224,12.0575,71.89,7.0875
1099,316967,0.262056,0.118828,-1.070916,10.675,84.5775,7.9625
1100,317064,0.269376,0.101992,-1.0521280000000002,19.425,99.27750999999999,8.2425
1101,317161,0.203496,0.131028,-1.066768,25.795,116.585,9.5725
1102,317258,0.25986,0.07637200000000001,-1.069452,34.0025,136.29,11.445
1103,317355,0.242048,0.04392,-1.08092,38.395,157.325,12.46
1104,317452,0.23887600000000003,0.067344,-1.074332,46.2175,180.8275,13.125
1105,317549,0.221308,0.008296000999999999,-1.04188,53.76,207.2525,14.9275
1106,317646,0.283528,0.022692,-1.083848,58.7825,243.6875,18.8825
1107,317743,0.30109600000000003,0.061,-1.142652,65.29251,282.31,25.13
1108,317841,0.317444,0.055144000000000006,-1.187792,70.0,324.5725,37.8525
1109,317938,0.273036,0.189344,-1.309548,72.555,369.5125,61.285
1110,318035,0.15762400000000001,0.30378,-1.230004,78.5925,415.835,92.3125
1111,318132,0.21228000000000002,0.244,-1.209752,90.4575,470.82,122.045
1112,318229,0.08808401,0.111996,-1.037488,127.855,530.705,157.4825
1113,318326,0.8479,0.14518,-1.0736,175.385,570.395,186.0075
1114,318423,2.01178,-0.205692,-1.637972,175.91,573.405,182.98
1115,318520,2.78892,-0.755912,-1.251476,136.43,573.405,163.59
1116,318617,3.96012,-0.50264,-2.0461840000000002,-1.4525,564.6025,132.4225
1117,318714,3.12564,1.146068,-3.341336,-101.815,472.6225,125.6675
1118,318811,3.700992,0.809348,-3.983056,-108.465,419.7725,141.75
1119,318908,1.761436,3.040484,-5.07642,-49.0,261.205,114.17
1120,319005,1.2517200000000002,2.843332,-4.0033080000000005,33.81,-24.605,24.045
1121,319102,-0.319152,3.040728,-1.5908799999999998,201.0575,-205.065,-37.52
1122,319200,0.11321600000000001,1.4964520000000001,-1.9964080000000002,298.935,-174.475,-118.44
1123,319297,-0.404796,0.709064,-1.25538,238.2625,-177.695,-181.3
1124,319394,-0.922076,0.215452,-0.72224,189.595,-230.9475,-230.8425
1125,319491,-0.697596,0.368684,-1.0182120000000001,96.1975,-214.6725,-259.6825
1126,319588,-0.350628,0.187636,-1.090192,62.44,-215.4775,-259.6825
1127,319685,-0.015128,0.04148,-1.390068,54.8625,-227.15,-239.6975
1128,319782,-0.027083999999999997,-0.0183,-1.312232,54.6175,-264.145,-209.4925
1129,319879,-0.05587601,-0.134932,-1.049444,51.135,-300.3525,-176.0675
1130,319976,0.001464,-0.232776,-0.964044,39.55,-319.025,-142.6075
1131,320073,0.08857201,-0.20374,-0.908168,16.765,-332.43,-114.4675
1132,320170,0.164456,-0.06466001,-0.93086,-8.96,-341.4425,-92.78501
1133,320267,0.29158,0.100284,-1.0147959999999998,-25.9,-347.6375,-76.615
1134,320364,0.40992,0.24034,-1.1070280000000001,-31.185,-355.3025,-65.415
1135,320461,0.555832,0.317932,-1.15656,-27.65,-362.985,-60.6375
1136,320558,0.615124,0.32086,-1.138016,-21.3675,-370.2825,-61.3375
1137,320656,0.6368401,0.299388,-1.192428,-18.3575,-371.49,-64.925
1138,320753,0.727364,0.302072,-1.3266280000000001,-20.1425,-370.0025,-70.0
1139,320850,0.833016,0.29743600000000003,-1.497184,-25.5675,-371.5775,-75.4775
1140,320947,0.8874280999999999,0.277428,-1.621624,-28.8225,-375.7075,-79.0125
1141,321044,0.888648,0.205692,-1.6862840000000001,-28.875,-377.755,-77.735
1142,321141,0.883036,0.040260000000000004,-1.707024,-31.9725,-373.905,-71.2425
1143,321238,0.927688,-0.07881200000000001,-1.7821759999999998,-41.9125,-360.9725,-57.96
1144,321335,1.100684,-0.10126,-1.8478119999999998,-59.71,-342.3175,-37.52
1145,321432,1.346392,-0.05563200000000001,-1.8812400000000002,-84.735,-322.7,-16.4675
1146,321529,1.7690000000000001,-0.044164,-1.9180840000000001,-116.8475,-300.9825,-4.165
1147,321626,2.395104,-0.017568,-1.90198,-156.17,-279.3175,-5.425
1148,321723,3.105632,0.0427,-1.9041759999999999,-198.3625,-262.5525,-20.93
1149,321820,3.878868,0.11321600000000001,-1.713856,-233.905,-256.935,-48.895
1150,321917,4.2956199999999995,0.323056,-1.240008,-242.445,-265.8425,-80.325
1151,322014,4.2602400000000005,0.49605200000000005,-0.5321640000000001,-191.8875,-270.48,-100.2925
1152,322112,3.9615839999999998,0.07637200000000001,0.343064,-94.86751,-249.865,-96.86251
1153,322209,4.020632,-0.6039,1.0121120000000001,-12.95,-203.385,-81.34000999999999
1154,322306,4.2334,-0.935984,1.4332559999999999,20.16,-152.5475,-63.5425
1155,322403,4.4957,-1.0025959999999998,1.6501720000000002,7.245,-103.495,-43.9425
1156,322500,4.16752,-0.768844,1.748016,-15.0675,-51.6075,-18.5675
1157,322597,3.6763480000000004,-0.435296,1.359812,-28.07,11.41,-1.645
1158,322694,2.88042,0.67466,0.57096,-31.885,75.7575,-4.2175
1159,322791,1.8058439999999998,1.68848,-0.8727879999999999,44.59,129.78,-48.125
1160,322888,-1.311256,1.291004,-3.1812720000000003,225.54,171.2375,-90.2475
1161,322985,-0.3904,0.018788,-2.7267,311.9725,176.12,-81.9875
1162,323082,0.022692,-3.758332,1.1951120000000002,350.21,169.715,-66.6225
1163,323179,0.525576,-3.7344199999999996,-0.08369201,219.555,250.075,-16.8
1164,323276,1.138992,-1.403,-2.671312,38.815,304.255,6.895
1165,323373,0.836676,-0.415288,-1.844396,39.8125,229.6875,55.58
1166,323471,1.8995400000000002,1.554768,-2.7542720000000003,38.745,220.5,76.2475
1167,323568,2.895304,2.073756,-3.661708,90.7375,187.53,43.8025
1168,323665,-0.068076,-1.423252,-0.6749041,125.335,25.515,-7.4025
1169,323762,-0.012444,-1.781932,-1.156316,64.7325,6.125,-11.585
1170,323859,0.523624,0.660752,-1.039684,-18.6025,27.335,3.8325
1171,323956,0.563884,0.711504,-1.218292,-18.76,16.2925,0.945
1172,324053,0.047092,-0.681492,-0.79666,5.1975,4.375,-14.84
1173,324150,0.386496,0.252052,-1.0384639999999998,-20.3525,14.2625,-8.3475
1174,324247,0.29646,0.55388,-0.987224,-21.9625,8.505,-7.42
1175,324344,0.30744,0.1464,-0.9779521000000001,-4.27,6.3525,-10.0975
1176,324441,0.26913200000000004,0.211792,-0.9701440999999998,2.24,3.01,-5.6
1177,324538,0.24570799999999998,0.127368,-0.965752,7.21,1.68,-3.955
1178,324635,0.248148,0.054655999999999996,-0.976,11.6025,2.0475,-3.045
1179,324732,0.240096,0.07710399999999999,-0.984784,13.2475,2.45,-0.8400001
1180,324830,0.262544,0.050996,-0.9918600000000001,15.47,2.9925,0.6825
1181,324927,0.26913200000000004,0.018788,-0.9818561,16.835,3.5875,1.33
1182,325024,0.271572,-0.0061,-0.968924,16.1175,4.4625,1.435
1183,325121,0.25424800000000003,0.0183,-0.9799041,13.23,5.4775,1.2075
1184,325218,0.244488,0.049532,-0.9882001,10.5875,7.175,1.2425
1185,325315,0.26352,0.058072000000000006,-0.9772200999999999,9.5725,8.855,1.715
1186,325412,0.284016,0.091988,-0.9630681000000001,8.12,9.905,2.7125
1187,325509,0.261812,0.07442,-0.9652639999999999,8.6975,9.7475,4.025
1188,325606,0.255712,0.05172801,-0.958432,9.6425,11.165,5.6
1189,325703,0.251564,0.120048,-0.96014,7.105,13.615,9.0825
1190,325800,0.280356,0.058316,-0.9474520000000001,7.945,15.855,12.74
1191,325897,0.263764,0.072712,-0.9440360999999999,7.77,16.8525,17.1325
1192,325994,0.33184,0.07076001,-0.978684,5.32,19.53,20.3525
1193,326091,0.301584,0.051484,-0.97234,4.2,20.2475,20.405
1194,326189,0.28767600000000004,0.11248399999999999,-0.989176,1.3825,21.875,20.93
1195,326286,0.29036,0.07002799999999999,-0.9903959999999999,2.1175,24.5,21.07
1196,326383,0.276452,0.004636001,-0.9757561,5.285,27.4925,21.2275
1197,326480,0.286456,0.022692,-0.9757561,5.3725,31.6225,21.0525
1198,326577,0.29572800000000005,0.014884,-0.9752681000000001,4.9525,37.03,19.9325
1199,326674,0.291092,0.026108,-0.9525761,4.1825,43.1725,18.9
1200,326771,0.27889200000000003,0.02928,-0.966728,5.4075,49.9975,17.7625
1201,326868,0.293532,-0.0034159999999999998,-0.957944,7.49,57.295,15.7325
1202,326965,0.276208,0.012688,-0.978684,6.23,67.2175,12.25
1203,327062,0.270596,-0.001952,-1.006988,5.3025,79.555,8.68
1204,327159,0.25058800000000003,-0.011224,-1.0182120000000001,5.1275,95.515,5.39
1205,327256,0.250832,-0.031964,-1.00528,4.4975,116.5325,1.435
1206,327353,0.25302800000000003,-0.027083999999999997,-1.042612,2.4325,141.4875,-2.45
1207,327450,0.21594000000000002,-0.038551999999999996,-1.0018639999999999,3.4825,168.4375,-5.7225
1208,327548,0.223504,-0.006587999999999999,-1.063108,2.4675,199.675,-7.7
1209,327645,0.209108,0.030012,-1.083116,3.885,234.535,-5.495
1210,327742,0.211548,0.03172,-1.057496,7.14,273.9275,0.77
1211,327839,0.160308,0.008540001,-1.1204479999999999,9.8525,317.24,10.01
1212,327936,0.018788,0.042456,-1.114348,18.76,369.4425,18.165
1213,328033,0.07393200000000001,0.16348,-1.053592,27.755,432.845,27.195
1214,328130,0.158112,0.29572800000000005,-1.2099959999999998,41.09,499.7125,42.49
1215,328227,0.19739600000000002,0.16104000000000002,-1.43106,59.5875,557.445,53.8825
1216,328324,0.374052,0.056608000000000006,-1.7324,122.15,573.37,73.85
1217,328421,0.8174001000000001,-0.061732,-1.006256,186.76,573.335,81.1475
1218,328518,2.210152,-0.43651599999999996,-0.274988,113.925,573.37,41.65
1219,328615,2.9248279999999998,-0.403332,-0.693448,-89.355,573.405,-30.45
1220,328712,3.4025800000000004,0.061,0.283528,-293.965,573.405,-72.03
1221,328810,5.194028,0.021716,-5.9414,-498.75,572.425,-38.08
1222,328907,4.748972,1.418128,-5.598091999999999,-396.6375,461.6675,22.3475
1223,329004,2.207224,2.7542720000000003,-5.874544,-204.8025,129.7975,21.9975
1224,329101,0.9330560999999999,2.251144,-3.693916,45.43,-133.5075,30.9225
1225,329198,-1.00284,0.9520881,-0.703696,225.68,-312.0075,29.295
1226,329295,0.346724,0.090768,-3.2966839999999995,177.94,-235.41,3.045
1227,329392,-0.35258,-0.101992,-1.7109279999999998,91.3325,-286.895,-13.405
1228,329489,-1.12362,0.20837600000000003,-0.7600600000000001,51.7125,-359.4675,-2.5725
1229,329586,-0.784704,0.389912,-1.092144,-4.5675,-330.645,0.665
1230,329683,-0.41358,0.327692,-1.169492,-8.295,-331.555,9.4675
1231,329780,-0.24058400000000002,0.35014,-1.0858,-11.8825,-351.5575,13.65
1232,329877,-0.195932,0.384788,-0.946232,-24.185,-369.1625,9.4325
1233,329974,-0.048068,0.368684,-0.9142680000000001,-38.01,-379.225,-0.6825
1234,330071,0.157868,0.360632,-0.936716,-55.1425,-387.415,-16.03
1235,330169,0.282064,0.42187600000000003,-0.931348,-69.195,-397.4075,-33.0225
1236,330266,0.327204,0.49654,-0.8910879999999999,-74.7425,-405.44,-49.5075
1237,330363,0.38966799999999996,0.5131319999999999,-0.87474,-70.105,-406.2975,-66.255
1238,330460,0.44212799999999997,0.5009319999999999,-0.9167081,-59.8675,-400.61,-83.37001
1239,330557,0.53314,0.45725600000000005,-1.0845799999999999,-46.48,-390.4425,-101.1325
1240,330654,0.759328,0.361852,-1.361276,-33.635,-382.095,-117.04
1241,330751,0.9259799999999999,0.195932,-1.5445200000000001,-26.845,-384.44,-128.8175
1242,330848,0.9830760000000001,0.10248,-1.6552959999999999,-27.055,-393.155,-133.2625
1243,330945,0.9979600000000001,-0.09930800000000001,-1.6433400000000002,-26.53,-401.66,-130.4625
1244,331042,1.018456,-0.162992,-1.70068,-31.3075,-402.36,-121.345
1245,331139,1.0126,-0.29646,-1.7489919999999999,-32.62,-392.245,-104.9125
1246,331236,0.9906401,-0.47604399999999997,-1.8358560000000002,-36.75,-374.7625,-82.6525
1247,331333,1.071404,-0.5631520000000001,-1.944924,-49.84,-351.2775,-58.205
1248,331431,1.331752,-0.5631520000000001,-1.8953919999999997,-74.55,-323.295,-34.5975
1249,331528,1.8170680000000001,-0.509716,-1.8666,-107.975,-292.355,-19.67
1250,331625,2.842356,0.098576,-2.134512,-145.7225,-257.985,-14.0875
1251,331722,3.5506879999999996,-0.105652,-1.8282919999999998,-143.465,-218.1725,-6.58
1252,331819,3.7312480000000003,0.364292,-1.6145479999999999,-161.7,-239.855,-14.42
1253,331916,4.368332,0.633668,-1.470832,-145.1975,-268.8525,-9.0825
1254,332013,4.026244,0.5697399999999999,-0.306464,-109.7775,-305.6375,-1.295
1255,332110,3.9730519999999996,-0.360144,1.0943399999999999,-66.9725,-282.3625,5.25
1256,332207,4.0179480000000005,-0.377956,1.890268,-54.5125,-221.725,-8.33
1257,332304,4.548648,-0.504836,2.358504,-27.685,-140.175,-31.8675
1258,332401,4.407616,-0.465796,2.16794,2.9225,-48.475,-30.905
1259,332498,3.821528,0.161772,1.6677400000000002,2.03,34.37,-21.91
1260,332595,4.54084,1.737768,0.8113001,29.1375,133.56,-35.7
1261,332693,-0.1342,-0.305,-0.927932,211.8725,224.035,-56.14
1262,332790,-0.069784,-1.1836440000000001,-3.012912,336.9975,250.355,-60.48
1263,332887,1.614792,-3.085136,-2.133292,279.0025,299.3725,-34.8075
1264,332984,1.148264,-2.660576,-1.53964,178.535,223.3875,-23.8875
1265,333081,0.503616,-1.8946599999999998,-1.1094680000000001,83.4575,240.66,12.0225
1266,333178,0.468724,-0.9564799999999999,-1.29198,21.8925,227.29,53.2
1267,333275,2.852848,2.5175919999999996,-3.5929,0.175,244.58,70.315
1268,333372,1.895148,1.8419560000000001,-2.306044,108.1325,114.1525,31.6575
1269,333469,0.11053199999999999,-1.575752,-1.075308,126.77,22.61,-18.62
1270,333566,0.203496,-1.243424,-0.927688,63.9975,3.36,-14.1925
1271,333663,0.494832,0.9825879999999999,-1.149484,-2.6425,12.18,5.0925
1272,333760,0.294752,-0.10858,-1.005036,9.5375,3.1675,-9.1525
1273,333857,0.18470799999999998,-0.38918,-0.9091440000000001,12.3725,1.54,-11.865
1274,333954,0.398452,0.354288,-1.037488,-10.2375,8.9775,-4.8825
1275,334051,0.258152,0.15616,-0.9803921,-3.99,4.0075,-7.7175
1276,334149,0.259372,0.089792,-0.9918600000000001,2.485,3.325,-6.895
1277,334246,0.24522,0.034892,-0.9725841000000001,4.2875,3.85,-4.34
1278,334343,0.221796,0.060512,-0.993568,6.1775,4.13,-3.1675
1279,334440,0.252296,0.10833599999999999,-0.9901521000000001,8.4,5.5475,-0.6825
1280,334537,0.246196,0.09052401,-0.984296,10.815,6.615,0.3325
1281,334634,0.264496,0.05172801,-0.9862479999999999,11.7425,7.315,0.4375
1282,334731,0.27816,0.020008,-0.9745360000000001,11.48,8.7675,0.175
1283,334828,0.24766,0.096868,-0.9962521000000001,9.0475,10.255,0.6475
1284,334925,0.265472,0.127368,-0.9882001,9.94,12.1625,3.4475
1285,335022,0.250832,0.106628,-1.000156,12.9675,14.07,6.0375
1286,335119,0.282552,0.03416,-0.968192,15.89,15.96,7.875
1287,335216,0.25986,0.009272001,-0.9716081,14.735,17.92,9.1175
1288,335313,0.258884,0.045627999999999995,-0.965996,10.92,19.6175,12.005
1289,335410,0.282552,0.03904,-0.9706319999999999,7.385,22.225,16.17
1290,335508,0.24863600000000002,-0.067344,-0.9386681,5.6875,23.59,18.41
1291,335605,0.418216,0.081252,-1.034316,-0.7875,26.5825,17.885
1292,335702,0.29646,0.023912,-0.965996,-1.295,24.185,17.71
1293,335799,0.292312,0.022203999999999998,-0.9403761,0.3675,26.775,15.82
1294,335896,0.326716,-0.003172,-0.948184,-0.07,28.3325,13.86
1295,335993,0.316224,0.03416,-0.960384,-0.875,29.9075,11.0775
1296,336090,0.311832,0.038551999999999996,-0.956968,-0.7525,32.725,9.9925
1297,336187,0.304512,0.023424,-0.959408,-0.665,36.5225,9.625
1298,336284,0.31158800000000003,0.023180000000000003,-0.9708760000000001,-1.8375,41.65,8.8375
1299,336381,0.30622,0.042944,-0.960628,-1.855,47.565,8.2775
1300,336478,0.309148,0.033672,-0.9740479999999999,-2.03,53.8125,8.19
1301,336575,0.31354,0.01098,-0.9516,-1.3475,60.7075,7.805
1302,336672,0.312808,-0.003172,-0.9764879999999999,-0.8925,68.32,6.125
1303,336769,0.312808,-0.047092,-0.9713639999999999,0.8225,76.895,2.94
1304,336866,0.30134,-0.043432,-0.96014,-1.5225,87.99,-1.19
1305,336963,0.28426,-0.008052001,-0.9852719999999999,-4.8125,103.3025,-5.6525
1306,337060,0.280356,0.02562,-1.019676,-7.4025,123.095,-8.6975
1307,337157,0.279624,0.023668,-1.013332,-5.4775,146.0025,-9.94
1308,337255,0.266204,0.044896,-1.021384,-3.955,171.2025,-9.1525
1309,337352,0.26156799999999997,0.06832001,-1.055788,-3.4825,200.6025,-6.475
1310,337449,0.24497600000000003,0.036112,-1.007476,-0.875,234.64,-1.4175
1311,337546,0.22667600000000002,0.036356,-1.031388,-0.4725,274.365,5.39
1312,337643,0.15201199999999998,0.082228,-1.096048,1.1025,319.7425,12.6875
1313,337740,0.050752,-0.008296000999999999,-1.0643280000000002,9.1875,374.71,20.44
1314,337837,0.061,-0.06466001,-0.983564,27.685,442.015,27.0725
1315,337934,0.12932000000000002,0.285968,-1.309792,43.47,516.67,38.325
1316,338031,0.15372,0.28694400000000003,-1.4879120000000001,60.69,567.7875,41.7375
1317,338128,0.203008,-0.182756,-1.538176,118.6675,573.405,47.635
1318,338225,2.004216,0.10004,-0.21886799999999998,153.7725,573.405,59.2025
1319,338322,2.4988040000000002,-0.43602799999999997,-1.0797,-8.61,573.3875,-3.92
1320,338419,3.2347080000000004,-0.115168,-0.5885281,-209.265,573.405,-80.605
1321,338517,4.665768,0.390888,-2.066924,-381.08,573.405,-90.58001
1322,338614,6.580924,0.259128,-5.102772,-506.59,558.25,-23.905
1323,338711,3.6365760000000003,2.5053919999999996,-6.326676,-342.755,352.345,14.945
1324,338808,1.24074,2.705716,-5.340428,-88.2,-13.4925,-1.2425
1325,338905,-0.064172,1.833904,-3.481636,207.9875,-257.7575,27.4925
1326,339002,-0.9301280000000001,-0.11102000000000001,-0.60146,317.9925,-327.8625,16.94
1327,339099,0.7356600000000001,-0.148352,-3.530192,137.3575,-177.94,4.375
1328,339196,-0.778116,-0.167628,-1.344196,133.0875,-347.2525,12.775
1329,339293,-1.054568,0.238632,-0.913048,66.15,-368.7075,29.54
1330,339390,-0.576328,0.24668400000000001,-1.3351680000000001,23.905,-345.9575,39.4625
1331,339487,-0.374052,0.21813600000000002,-1.1890120000000002,19.4075,-366.205,49.5075
1332,339584,-0.30988000000000004,0.321104,-0.9894200000000001,1.9075,-389.2,51.9225
1333,339681,-0.248148,0.343064,-0.8669319999999999,-15.785,-400.575,46.8825
1334,339778,-0.110044,0.34404,-0.8210601000000001,-32.795,-406.2625,37.17
1335,339876,0.098088,0.39771999999999996,-0.830576,-53.4975,-408.4325,23.38
1336,339973,0.257664,0.4514,-0.8698601,-67.9525,-409.43,5.1625
1337,340070,0.349164,0.49434399999999995,-0.9052401,-72.6775,-409.71,-14.9275
1338,340167,0.45115600000000006,0.5124001,-0.9972281,-68.2325,-406.805,-35.0175
1339,340264,0.596336,0.49995600000000007,-1.128256,-55.8775,-401.555,-54.425
1340,340361,0.928176,0.27279200000000003,-1.134112,-37.8,-397.8975,-70.91001
1341,340458,0.9381801,0.305732,-1.7294720000000001,-33.0925,-390.8625,-83.0025
1342,340556,0.9486720999999999,0.188124,-1.6387040000000002,-33.3725,-405.8425,-91.9975
1343,340652,0.9118280000000001,-0.030744,-1.588196,-32.6025,-415.0825,-91.0175
1344,340749,1.048224,-0.2013,-1.615768,-37.5025,-407.9775,-81.88251
1345,340846,1.066036,-0.33379200000000003,-1.8092599999999999,-54.4075,-393.4,-68.005
1346,340943,1.0765280000000002,-0.382104,-1.9122279999999998,-75.2675,-377.65,-49.3325
1347,341041,1.28588,-0.317688,-2.040572,-101.2025,-354.76,-30.59
1348,341138,1.625528,-0.188124,-2.030812,-130.7425,-331.765,-19.145
1349,341235,2.1886799999999997,-0.067832,-2.054968,-160.3175,-306.0575,-23.3275
1350,341332,2.925072,0.08954801,-2.106452,-188.1775,-281.8375,-42.665
1351,341429,3.7485720000000002,0.452132,-1.87758,-202.8075,-269.71,-70.2975
1352,341526,4.00526,0.7829961,-1.6394360000000001,-164.9725,-266.0175,-92.1025
1353,341623,4.261216,0.8235001000000001,-1.036512,-93.065,-295.9425,-99.24251
1354,341720,4.344664,0.001464,-0.021472,-2.2225,-291.305,-86.18751
1355,341817,3.833972,-0.52094,1.089216,42.6825,-257.5825,-69.3525
1356,341914,4.170448,-0.750544,1.58844,33.8625,-204.715,-69.2475
1357,342011,4.737016000000001,-0.6097560000000001,1.8048680000000001,17.395,-134.68,-70.5075
1358,342108,4.513756,-0.468724,2.062776,14.63,-72.0825,-60.6025
1359,342206,3.745888,-0.30182800000000004,1.6933599999999998,7.5775,1.575,-47.355
1360,342303,3.817868,0.9494040000000001,1.2073120000000002,-0.07,84.455,-53.305
1361,342400,1.4898639999999999,0.121512,-1.0760399999999999,84.01751,204.3825,-75.5475
1362,342497,-2.010316,-0.10760399999999999,-1.226344,198.38,212.59,-72.8525
1363,342594,1.18584,-1.063108,-3.1234439999999997,209.93,332.5875,-47.9325
1364,342691,1.6574919999999997,-2.876272,-0.803248,204.435,257.2325,-18.795
1365,342788,1.502796,-1.7829080000000002,-1.8858759999999999,94.2025,259.07,-10.3075
1366,342885,0.21106,-0.9860040999999999,-1.489132,59.36,227.9725,27.7725
1367,342982,1.301008,0.165432,-1.9122279999999998,27.3525,225.0325,55.79
1368,343079,3.0378,2.088152,-3.3064440000000004,51.8525,215.11,52.6575
1369,343176,1.095072,0.11834000000000001,-1.6926279999999998,109.97,63.105,1.4175
1370,343273,-0.191052,-1.9910400000000001,-0.834968,103.845,-7.1225,-18.6725
1371,343371,0.360144,-0.26718000000000003,-0.9833200000000001,10.745,19.6525,-5.775
1372,343468,0.604876,1.0438319999999999,-1.22732,-20.0025,16.975,1.785
1373,343565,0.07637200000000001,-0.5267960999999999,-0.8840120000000001,5.95,3.8675,-14.3675
1374,343662,0.313052,-0.08564401,-1.000156,-7.735,8.015,-11.1475
1375,343759,0.35697199999999996,0.49751599999999996,-1.0323639999999998,-21.28,10.4475,-7.1575
1376,343856,0.261812,0.08344800000000001,-0.9757561,-5.3725,3.4475,-9.6075
1377,343953,0.271572,0.111996,-0.9784401,1.5575,1.7675,-5.425
1378,344050,0.221796,0.09418401,-0.973316,4.6025,0.9275,-3.605
1379,344147,0.203008,0.067832,-0.9725841000000001,8.645,1.33,-2.975
1380,344244,0.264008,0.049532,-0.9757561,11.2875,3.1325,-1.085
1381,344341,0.24326799999999998,0.034648000000000005,-0.996008,13.755,2.6775,0.805
1382,344438,0.25986,-0.00122,-0.9928360999999999,14.5075,3.01,1.4175
1383,344535,0.284992,-0.006832001,-0.974292,13.1075,4.34,1.54
1384,344632,0.269376,0.02562,-0.9806360000000001,11.165,4.27,1.4875
1385,344729,0.25058800000000003,0.046360000000000005,-0.984784,10.8325,4.8825,1.8375
1386,344827,0.251808,0.04392,-0.973316,11.5325,6.3525,3.01
1387,344924,0.271816,0.05612,-0.974292,12.2675,7.5425,4.4275
1388,345021,0.264252,0.060267999999999995,-0.9772200999999999,12.775,8.05,5.5825
1389,345118,0.264496,0.040748,-0.9638,14.945,7.805,6.685
1390,345215,0.276208,0.071492,-1.0025959999999998,15.33,8.12,8.68
1391,345312,0.304512,0.053924,-0.9801479999999999,16.52,9.2925,11.69
1392,345409,0.2562,0.001464,-0.948184,17.115,9.695,13.6675
1393,345506,0.26352,-0.039772,-0.9489161,16.2575,9.9225,15.33
1394,345603,0.293288,0.012931999999999999,-0.957456,11.165,10.6575,16.59
1395,345700,0.254004,-0.00366,-0.946232,9.8,10.92,16.7475
1396,345797,0.263276,0.0,-0.966728,8.61,14.07,16.5375
1397,345894,0.276208,0.020496,-0.9857600000000001,5.565,18.13,16.7825
1398,345991,0.25058800000000003,-0.020496,-0.9918600000000001,4.865,22.365,15.715
1399,346088,0.2562,-0.064416,-0.9699,3.99,28.07,13.09
1400,346185,0.27084,-0.023912,-0.9767321,1.26,34.93,9.975
1401,346282,0.281088,-0.000732,-0.9738041,0.1575,42.07,7.455
1402,346379,0.255468,-0.010004,-0.9894200000000001,0.56,49.3675,5.5825
1403,346476,0.25864000000000004,0.000976,-1.011136,1.6275,57.5925,3.5175
1404,346574,0.239608,0.006587999999999999,-1.0248,4.76,67.3925,1.365
1405,346671,0.23472800000000002,-0.010736,-1.029436,6.3,81.46251,-0.9275
1406,346768,0.229604,-0.016836,-1.0255319999999999,5.285,98.945,-3.1325
1407,346865,0.2196,-0.025131999999999998,-1.0492,2.765,120.1725,-6.23
1408,346962,0.220088,-0.038308,-1.049444,1.2775,146.37,-8.9425
1409,347059,0.204228,-0.005856,-1.084092,0.035,176.5225,-9.8525
1410,347156,0.193248,-0.023668,-1.061644,2.1175,209.825,-9.73
1411,347253,0.193248,-0.039772,-1.060424,3.0975,247.0125,-8.6975
1412,347350,0.17934,-0.01586,-1.134112,4.4275,287.105,-4.7425
1413,347447,0.115168,-0.060024,-1.188768,10.885,329.7875,1.9075
1414,347544,0.037332,0.09320801,-1.0643280000000002,19.705,383.6525,9.17
1415,347641,0.11541199999999999,0.172508,-0.9852719999999999,26.4075,447.475,20.475
1416,347738,0.12761199999999998,0.264008,-1.1102,33.8275,513.1875,39.7775
1417,347835,0.223748,0.33623200000000003,-1.519388,47.775,565.635,66.0975
1418,347932,0.5248441,0.048556,-2.085468,106.7325,573.405,81.53251
1419,348030,1.107272,-0.091988,-1.061156,204.365,573.405,105.105
1420,348127,2.3077520000000002,-0.519476,-0.6919841,171.675,573.405,77.2275
1421,348224,2.6776560000000003,-0.537044,-0.568764,-16.415,573.405,0.35
1422,348321,3.5741120000000004,0.193736,-1.348344,-234.71,573.405,-54.4075
1423,348418,6.9764479999999995,0.37746799999999997,-4.68236,-429.59,567.7875,-11.06
1424,348515,4.145072,1.621624,-6.055348,-238.56,421.435,52.5
1425,348612,1.9114959999999999,2.4583,-5.514156,-101.395,83.0025,21.105
1426,348709,0.351848,2.2701759999999997,-3.9589,127.1725,-198.6775,21.7525
1427,348806,-0.9537959999999999,0.506544,0.221552,285.355,-330.96,-2.03
1428,348903,0.61732,0.201544,-3.522628,152.425,-177.2925,-32.55
1429,349000,-0.7241920000000001,-0.061,-1.363716,115.29,-307.2125,-47.4425
1430,349097,-1.2282959999999998,0.239852,-0.752984,54.985,-341.4425,-38.0275
1431,349194,-0.789828,0.296948,-1.008208,6.51,-315.84,-30.835
1432,349291,-0.43798000000000004,0.178852,-1.10166,-0.0175,-316.8725,-18.8475
1433,349389,-0.35892399999999997,0.168848,-0.9247601000000001,-18.375,-340.27,-13.6325
1434,349486,-0.288164,0.252784,-0.8371639999999999,-41.9475,-356.1075,-15.4
1435,349583,-0.138836,0.229604,-0.8147161,-54.5475,-363.825,-21.3325
1436,349680,0.038064,0.25302800000000003,-0.8652241,-63.665,-369.1275,-27.37
1437,349777,0.19251600000000002,0.213988,-0.930372,-65.45,-374.5,-32.725
1438,349874,0.376736,0.166164,-1.027484,-66.8325,-380.835,-38.0975
1439,349971,0.45457200000000003,0.166652,-1.057496,-68.3375,-391.86,-43.5225
1440,350068,0.5172800999999999,0.146156,-1.10532,-66.745,-399.6475,-49.3325
1441,350165,0.593896,0.122976,-1.2043840000000001,-63.0,-401.8,-55.37
1442,350262,0.669048,0.091744,-1.3571280000000001,-57.855,-402.2375,-59.955
1443,350359,0.9181720999999999,-0.010004,-1.5384200000000001,-55.86,-400.19,-63.1575
1444,350456,0.9620920000000001,-0.052216,-1.926868,-61.11,-404.8275,-63.035
1445,350553,1.003572,-0.12053599999999999,-1.800964,-65.29251,-422.5375,-57.0325
1446,350651,1.242936,-0.173728,-1.985428,-79.9925,-422.2925,-49.4725
1447,350748,1.333216,-0.111996,-2.054236,-99.5575,-418.495,-43.4525
1448,350845,1.419836,-0.010004,-2.155984,-115.43,-409.08,-40.6525
1449,350942,1.677744,0.061,-2.2448,-127.6975,-390.705,-43.4525
1450,351039,2.1164560000000003,-0.013663999999999999,-2.148176,-145.5475,-370.3525,-57.1025
1451,351136,2.72792,-0.05124001,-1.990552,-166.4075,-343.8575,-82.0925
1452,351233,3.3379199999999996,0.043432,-1.737768,-178.29,-315.3325,-106.225
1453,351330,3.782,0.282064,-1.467416,-165.8475,-290.2375,-118.615
1454,351427,4.164592,0.246928,-1.0706719999999998,-115.29,-271.215,-111.09
1455,351524,4.329048,-0.079544,-0.437004,-46.8475,-256.165,-82.8975
1456,351621,4.349544,-0.45896400000000004,0.47555600000000003,4.5325,-239.015,-52.885
1457,351718,4.75556,-0.633668,1.29564,31.815,-202.7725,-35.0875
1458,351815,5.02396,-0.7088201,2.046916,56.0175,-153.58,-18.9
1459,351913,4.5025319999999995,-0.9225639999999999,2.503684,74.8825,-85.295,8.68
1460,352010,3.550932,-0.699548,1.98616,49.9275,0.875,31.9725
1461,352107,3.036336,-0.049776,1.057008,-1.5225,91.3675,28.2975
1462,352204,2.030812,2.4221880000000002,-0.6885680999999999,-19.4075,165.025,3.745
1463,352301,-0.22472399999999998,1.40788,-2.151836,110.705,203.28,-63.1575
1464,352398,-0.256444,1.3139399999999999,-3.84666,194.3725,209.2825,-83.80751
1465,352495,0.357704,-2.087908,-0.8276481,301.0175,182.8925,-92.0675
1466,352592,0.233264,-4.0704080000000005,1.19682,277.9,192.0975,-63.8575
1467,352689,1.598444,-2.221864,-2.4212119999999997,38.4825,295.96,-43.155
1468,352786,0.780068,-1.4966959999999998,-2.410964,21.63,221.97,22.4525
1469,352883,0.812276,-0.454816,-1.214632,23.1175,179.7075,80.5525
1470,352980,2.491972,2.7877,-2.815272,-1.295,187.1625,72.9575
1471,353078,1.4752239999999999,1.5006,-2.219668,52.255,100.24,0.595
1472,353175,-0.179584,-1.783884,-0.794708,110.845,6.3875,-30.1
1473,353272,0.23472800000000002,-0.9293961,-1.0182120000000001,35.175,21.7,-12.25
1474,353369,0.508252,1.084824,-1.18584,-3.57,11.2,6.16
1475,353466,0.272304,-0.183976,-0.99308,14.7525,4.9525,-12.215
1476,353563,0.13761600000000002,-0.49044,-0.9206120000000001,14.0,1.7325,-15.7675
1477,353660,0.424804,0.41236000000000006,-1.0208959999999998,-10.29,11.13,-6.3
1478,353757,0.30548800000000004,0.21008400000000002,-1.005768,-5.04,6.3525,-8.575
1479,353854,0.24790399999999999,0.038796,-0.9886881,4.62,1.575,-9.1525
1480,353951,0.253272,0.101016,-0.989664,4.9875,1.995,-4.83
1481,354048,0.21520799999999998,0.039772,-0.985516,7.3675,1.575,-3.36
1482,354145,0.233996,0.083204,-0.981612,9.7125,2.2925,-1.26
1483,354243,0.24278000000000002,0.07344400000000001,-0.989908,11.62,3.99,0.315
1484,354340,0.269864,-0.011224,-0.987712,13.02,5.53,-0.2275
1485,354437,0.25864000000000004,-0.030012,-0.9830760000000001,10.6925,7.07,-0.9975
1486,354534,0.262544,0.037088,-0.979416,7.35,9.275,-0.63
1487,354631,0.2623,0.07002799999999999,-0.9860040999999999,6.23,10.71,0.8925
1488,354728,0.265228,0.057339999999999995,-0.9886881,7.4025,11.865,1.6975
1489,354825,0.265228,0.08906,-0.987712,7.595,12.88,3.1325
1490,354922,0.273524,0.071004,-0.975024,9.59,13.5975,4.8475
1491,355019,0.264984,0.040748,-0.958432,10.885,13.965,6.79
1492,355116,0.299144,0.08369201,-1.0147959999999998,11.4975,14.5075,8.9425
1493,355213,0.24326799999999998,-0.023180000000000003,-0.921832,13.3875,13.7725,10.99
1494,355310,0.278648,0.053924,-0.942572,5.4425,17.2025,13.3
1495,355407,0.29133600000000004,-0.0061,-0.9596520000000001,6.965,16.1175,14.5075
1496,355505,0.285236,-0.014396,-0.94916,5.495,18.27,14.6825
1497,355602,0.284992,0.00488,-0.9613601,2.03,20.265,14.245
1498,355699,0.28767600000000004,0.049532,-0.9884440000000001,-1.1025,23.695,14.0875
1499,355796,0.270108,0.02928,-0.984784,-0.1225,26.7225,14.1925
1500,355893,0.280844,0.033184,-0.956968,1.0325,31.115,14.455
1501,355990,0.31402800000000003,0.03782,-0.9823440999999999,0.2975,36.015,14.6475
1502,356087,0.29768,0.022936,-0.9628241,1.715,39.76,14.77
1503,356184,0.297192,0.014884,-0.9474520000000001,2.625,45.15,14.21
1504,356281,0.295484,0.016347999999999998,-0.967216,3.255,51.38,12.74
1505,356378,0.293044,0.009272001,-0.956968,4.48,58.3625,10.9725
1506,356475,0.270108,0.019032,-0.964044,3.8325,67.4975,8.365
1507,356572,0.286456,0.022692,-1.003084,3.4825,79.3975,5.495
1508,356669,0.25351599999999996,0.007808001,-1.0248,4.515,93.3625,3.3075
1509,356767,0.25302800000000003,0.019275999999999998,-1.037488,4.585,111.4925,1.5575
1510,356864,0.24717199999999998,0.00366,-1.028704,4.4275,133.3675,-0.1225
1511,356961,0.246196,-0.014884,-1.0565200000000001,4.8475,159.2675,-2.8525
1512,357058,0.256688,-0.053191999999999996,-1.035292,7.4025,188.09,-4.9525
1513,357155,0.22691999999999998,-0.066856,-1.0584719999999999,7.6825,219.59,-4.865
1514,357252,0.20984,-0.11248399999999999,-1.062132,9.5725,254.6775,-4.2
1515,357349,0.13761600000000002,-0.13054000000000002,-1.112396,10.4825,295.89,-1.5925
1516,357446,0.06880801,0.0305,-1.1148360000000002,15.4175,345.73,-0.0525
1517,357543,0.085156,0.10418800000000002,-0.9720960999999999,18.9525,404.5825,6.1075
1518,357640,0.082472,0.123464,-1.047004,24.1325,470.5575,17.395
1519,357737,0.195932,0.38064000000000003,-1.54818,29.89,540.5925,36.5225
1520,357834,0.559248,0.24888000000000002,-1.7936439999999998,78.68,572.705,49.1575
1521,357931,0.482388,-0.06954,-1.630896,169.1025,573.405,70.56
1522,358028,2.31068,-0.2074,-0.354532,173.6175,573.3875,63.3325
1523,358125,2.417552,-0.73444,-0.432612,2.52,573.405,-3.955
1524,358223,3.595828,0.08003201,-0.042456,-250.635,573.3875,-75.6875
1525,358320,5.35824,0.484584,-4.3810199999999995,-489.23,572.985,-67.8475
1526,358417,4.919772,0.663924,-5.18012,-390.18,509.6175,24.92
1527,358514,2.744268,2.678632,-6.2195599999999995,-219.065,250.8625,63.9975
1528,358611,1.249036,2.482944,-4.422744000000001,5.7575,-71.99501,53.55
1529,358708,-0.8071520000000001,1.206336,0.061,223.3,-314.475,39.1125
1530,358805,0.233996,0.294996,-3.737104,198.3275,-217.6475,5.915
1531,358902,-0.14713199999999999,-0.033916,-2.087908,102.515,-241.29,-22.925
1532,358999,-1.316868,0.049044,-0.8400921,86.3975,-351.5225,-21.2625
1533,359096,-1.0645719999999999,0.25498000000000004,-0.8964561,20.4225,-328.09,-13.8075
1534,359193,-0.5353359999999999,0.10418800000000002,-1.196332,2.275,-312.4625,-5.7925
1535,359290,-0.32866799999999996,0.06344,-1.148508,-12.145,-332.2025,0.0175
1536,359387,-0.24497600000000003,0.154452,-1.0004,-39.8475,-358.61,-0.7
1537,359484,-0.192272,0.149084,-0.8962120000000001,-57.05,-376.5475,-5.3375
1538,359581,-0.041236,0.129076,-0.8852321,-68.4775,-385.7525,-11.27
1539,359679,0.13908,0.142496,-0.9328120000000001,-77.0875,-390.11,-18.76
1540,359776,0.310612,0.158844,-0.9974719999999999,-81.27,-395.395,-26.46
1541,359873,0.403332,0.208132,-1.035292,-79.66001,-402.78,-34.5625
1542,359970,0.469944,0.21032800000000001,-1.05774,-70.9975,-408.205,-43.7325
1543,360067,0.542168,0.194712,-1.123376,-60.1475,-408.2925,-53.7775
1544,360164,0.590236,0.149816,-1.217072,-50.6625,-406.4725,-65.1175
1545,360261,0.737124,0.023180000000000003,-1.364692,-43.715,-402.4825,-76.7025
1546,360358,0.85644,-0.114436,-1.477176,-40.11,-401.135,-85.34751
1547,360455,0.8808401,-0.202276,-1.59332,-40.705,-398.8775,-86.6425
1548,360552,0.978196,-0.35233600000000004,-1.738256,-44.3625,-391.44,-79.835
1549,360649,1.107516,-0.440176,-1.9820119999999999,-57.2775,-381.885,-70.7525
1550,360746,1.337364,-0.39528,-2.2606599999999997,-75.565,-373.3275,-62.5975
1551,360843,1.6826240000000001,-0.21032800000000001,-2.439268,-94.72751,-368.2175,-55.195
1552,360941,2.033008,-0.020496,-2.395836,-111.4925,-366.625,-54.495
1553,361038,2.520276,0.10394400000000001,-2.199904,-120.68,-357.63,-64.4875
1554,361135,3.1964,0.353556,-1.992016,-117.775,-339.2025,-79.905
1555,361232,3.9125400000000004,0.5355800999999999,-1.661152,-95.41,-322.8575,-91.035
1556,361329,4.414692,0.5631520000000001,-1.18218,-52.2375,-313.53,-86.5375
1557,361426,4.260728,0.21667199999999998,-0.297192,-1.1375,-306.32,-62.3
1558,361523,4.067236,-0.501908,0.8727879999999999,24.745,-279.825,-39.13
1559,361620,3.9918400000000003,-0.662948,1.688968,2.275,-216.545,-29.4875
1560,361717,4.382728,-0.321592,1.9971400000000001,-17.605,-136.5525,-32.2875
1561,361814,4.8590160000000004,-0.292068,1.9014919999999997,-10.2375,-55.125,-31.885
1562,361911,4.297084,-0.323056,1.593808,1.995,11.025,-20.125
1563,362008,3.622668,0.62098,1.009916,-11.2,72.135,-15.8725
1564,362105,3.153212,1.2341520000000001,-0.10833599999999999,39.2525,165.27,-28.91
1565,362202,-1.261968,0.444812,-1.1455799999999998,157.7625,211.19,-53.515
1566,362300,0.06929600000000001,-0.016104,-3.218604,179.55,256.235,-73.3425
1567,362397,0.9142680000000001,-2.609336,-0.902068,222.9675,245.2275,-45.5525
1568,362494,1.791448,-2.8543119999999997,-1.109956,130.55,248.15,-29.7675
1569,362591,0.394548,-1.3449280000000001,-1.7333759999999998,36.7325,246.68,10.535
1570,362688,0.604632,-1.230004,-1.464244,33.2325,209.65,74.4975
1571,362785,3.113684,2.717428,-3.840804,12.1275,218.4,90.3875
1572,362882,1.691164,2.1059639999999997,-2.175748,54.635,95.2525,17.85
1573,362979,-0.045872,-1.65432,-1.114592,108.815,-1.0675,-32.025
1574,363076,0.09613601,-1.284416,-0.7417600000000001,50.8025,10.325,-15.5925
1575,363173,0.556076,0.87108,-1.2012120000000002,1.715,10.22,9.0125
1576,363270,0.214964,-0.317444,-0.969412,0.6475,5.9675,-12.005
1577,363367,0.237656,-0.241804,-0.935008,-2.7825,7.595,-15.4
1578,363464,0.368684,0.594384,-1.053592,-19.7225,12.11,-6.895
1579,363561,0.281332,0.096868,-0.9911281,-4.9525,6.3175,-10.5525
1580,363658,0.240096,0.053436000000000004,-1.0004,3.9375,3.2025,-8.7325
1581,363755,0.24863600000000002,0.07808001,-0.992592,4.2525,3.0975,-5.95
1582,363853,0.235948,0.02562,-0.9784401,7.14,2.8,-5.5475
1583,363950,0.228384,0.10540799999999999,-0.987224,9.1525,2.2925,-2.695
1584,364047,0.24131599999999997,0.082716,-0.9964959999999999,13.195,2.9925,0.5425
1585,364144,0.262788,-0.01098,-0.9852719999999999,16.17,4.2875,1.8025
1586,364241,0.270352,0.0034159999999999998,-0.9869800999999999,13.9125,5.7225,1.96
1587,364338,0.27523200000000003,0.006832001,-0.9791719999999999,11.4625,6.545,2.205
1588,364435,0.244488,0.00244,-0.9803921,9.8175,7.14,2.3275
1589,364532,0.24497600000000003,0.046604,-0.973316,8.9775,8.54,2.9925
1590,364629,0.254492,0.07612801,-0.9767321,9.8175,10.08,4.9875
1591,364726,0.274988,0.024644,-0.9650200999999999,12.25,10.22,6.86
1592,364823,0.24790399999999999,-0.00488,-0.961116,12.88,9.6425,7.945
1593,364920,0.251076,0.015128,-0.9618481,11.375,11.2875,8.9425
1594,365017,0.21472,0.022692,-0.9674601,11.2875,12.81,10.3425
1595,365114,0.31354,0.038064,-0.9974719999999999,11.3575,14.4025,11.515
1596,365212,0.274256,-0.046116000000000004,-0.9564799999999999,9.2925,14.1575,12.5475
1597,365309,0.294996,0.01586,-0.9708760000000001,5.88,15.4,13.0375
1598,365406,0.287432,0.00976,-0.9516,3.85,15.505,13.8075
1599,365503,0.293288,0.025863999999999998,-0.9686799999999999,2.73,17.29,14.07
1600,365600,0.275476,0.033916,-0.9701440999999998,2.3625,19.9325,14.6475
1601,365697,0.2745,0.020252000000000003,-0.9725841000000001,3.15,22.8375,14.735
1602,365794,0.278648,-0.00122,-0.9713639999999999,4.34,26.775,14.245
1603,365891,0.280356,0.020496,-0.978196,2.4675,31.43,13.5275
1604,365988,0.2684,0.021228,-0.968924,3.6225,36.6625,12.915
1605,366085,0.27694,0.010004,-0.98088,4.41,43.82,12.355
1606,366182,0.265716,0.034404000000000004,-0.984784,5.915,51.52,12.0925
1607,366279,0.25424800000000003,0.017568,-0.9977159999999999,8.015,59.7275,11.3575
1608,366376,0.247416,-0.02806,-1.0065,11.3575,70.84000999999999,9.625
1609,366473,0.233752,-0.035868000000000004,-1.021384,11.3225,85.435,6.2125
1610,366571,0.234972,-0.018056,-1.051396,8.33,103.495,2.8875
1611,366668,0.22814,-0.039772,-1.044808,6.965,125.6325,0.1225
1612,366765,0.223016,-0.05612,-1.047492,5.8625,152.0225,-3.115
1613,366862,0.2318,-0.058803999999999995,-1.069452,3.255,182.4375,-5.635
1614,366959,0.20447200000000001,-0.06588,-1.056032,3.2725,215.6175,-7.875
1615,367056,0.19032000000000002,-0.045627999999999995,-1.053836,2.94,252.0,-8.4175
1616,367153,0.15396400000000002,-0.07076001,-1.0889719999999998,3.0975,292.8975,-7.1225
1617,367250,0.11053199999999999,-0.08466801,-1.126792,5.9675,340.48,-1.4525
1618,367347,0.13859200000000002,-0.024644,-1.02358,15.9775,397.1975,2.8525
1619,367444,0.067344,0.198372,-1.011136,20.8425,459.235,12.7925
1620,367541,0.081252,0.339648,-1.231468,30.5375,526.61,37.17
1621,367638,0.179828,0.37551599999999996,-1.4332559999999999,46.2,570.395,62.65
1622,367735,0.531188,-0.06344,-2.18502,99.575,573.405,74.55
1623,367832,1.6796959999999999,-0.068564,-0.6661201,206.5,573.3875,99.61
1624,367929,2.274568,-0.5282600000000001,-0.5072760000000001,146.44,573.405,59.3425
1625,368026,2.60836,-0.392352,-0.12761199999999998,-54.04,573.3875,-25.7775
1626,368123,4.524004,0.337696,-2.672532,-315.35,573.405,-81.69001
1627,368220,6.73928,0.36282800000000004,-4.850964,-435.715,553.525,-17.5875
1628,368317,3.4494279999999997,2.52418,-6.368888,-238.1575,320.7575,54.0925
1629,368414,1.7572880000000002,2.3018959999999997,-4.552796,-34.72,-20.65,24.0975
1630,368511,-0.089792,1.81902,-3.196888,186.97,-224.2275,43.4
1631,368608,-1.170468,0.252296,-0.13078399999999998,278.11,-328.195,23.065
1632,368705,0.367708,0.079056,-3.070008,145.565,-216.0725,0.2625
1633,368802,-0.7766521,0.042944,-1.304424,96.5475,-305.48,-1.155
1634,368900,-0.9552601000000001,0.343552,-1.004304,28.595,-332.2375,1.435
1635,368997,-0.5690081,0.46238,-1.247572,-3.955,-325.5,5.88
1636,369094,-0.29768,0.397476,-1.247328,1.6625,-340.7075,14.8225
1637,369191,-0.25742,0.384788,-1.048956,-3.6225,-369.7225,16.8175
1638,369288,-0.16104000000000002,0.403332,-0.8901120000000001,-18.06,-388.465,10.885
1639,369385,-0.036112,0.388204,-0.8103239999999999,-32.62,-397.4425,-1.8375
1640,369482,0.120048,0.43798000000000004,-0.8166680000000001,-46.3925,-401.415,-16.59
1641,369579,0.263276,0.465552,-0.8364321,-54.25,-403.8125,-32.0425
1642,369676,0.35233600000000004,0.47165200000000007,-0.8708360999999999,-55.6325,-403.83,-48.615
1643,369773,0.44554399999999994,0.48092399999999996,-0.97234,-50.8375,-401.1875,-66.01
1644,369870,0.5702281,0.439688,-1.110444,-39.9875,-397.5475,-84.03501
1645,369967,0.771528,0.40748,-1.33956,-25.2525,-395.2025,-98.84000999999999
1646,370064,0.830332,0.243756,-1.45546,-9.0125,-397.215,-109.2
1647,370161,1.011868,0.149572,-1.6735959999999999,-5.565,-400.2425,-113.2425
1648,370258,1.064816,-0.05929201,-1.6865279999999998,-6.2475,-409.395,-111.4925
1649,370355,1.047004,-0.226188,-1.665056,-15.89,-411.6875,-105.8925
1650,370452,1.097512,-0.312808,-1.76656,-28.5075,-402.955,-96.7575
1651,370549,1.348588,-0.25864000000000004,-2.006412,-37.8175,-385.84,-79.8
1652,370646,1.7694880000000002,-0.116388,-2.338496,-42.56,-369.0925,-56.1575
1653,370743,2.31922,0.07246799999999999,-2.607872,-45.5525,-359.17,-36.9775
1654,370840,2.8372319999999998,0.23253200000000002,-2.49978,-47.635,-362.53,-33.075
1655,370937,3.3130319999999998,0.504836,-2.175992,-45.535,-367.92,-40.4425
1656,371034,3.606564,0.719312,-1.53354,-28.56,-367.6225,-49.035
1657,371131,3.781024,0.5941401,-0.73078,-2.94,-351.68,-53.6725
1658,371228,3.7715080000000003,0.225456,0.028548,2.8875,-312.9,-58.8525
1659,371325,3.6214480000000004,-0.290116,0.8403360000000001,-20.4925,-260.925,-66.9725
1660,371422,3.6634160000000002,-0.10492,1.134112,-75.6,-189.14,-84.7
1661,371519,4.117255999999999,0.325008,1.093608,-91.0,-125.7375,-109.6025
1662,371616,4.636732,0.3111,1.131916,-39.69,-68.72251,-125.1425
1663,371713,4.329048,-0.188124,1.4600959999999998,16.555,-23.59,-125.3175
1664,371810,3.7388120000000002,-0.5063,1.362984,5.11,25.865,-124.145
1665,371907,3.112464,0.521672,0.720288,-49.7,84.595,-122.8675
1666,372004,1.63358,0.47653199999999996,-0.942572,-8.365,179.4975,-139.4575
1667,372101,-1.6521240000000001,-1.262944,-1.127524,101.9725,222.4425,-184.065
1668,372198,-1.111908,-3.069764,-1.232444,102.585,309.96,-168.665
1669,372295,2.822836,-2.898476,-2.1167,13.93,364.1925,-72.2225
1670,372392,1.968104,-1.67262,-1.674816,-28.5075,290.7625,9.31
1671,372489,0.7183361,-0.269376,-2.002264,-19.5125,231.4025,85.1025
1672,372586,0.3233,0.11394800000000001,-1.3825040000000002,-16.835,201.005,108.4125
1673,372683,3.940356,3.5099400000000003,-4.3688199999999995,20.16,218.6275,87.95501
1674,372780,0.9564799999999999,0.865956,-1.159,93.5725,42.105,12.95
1675,372877,0.13078399999999998,-1.317356,-1.466684,119.0,-22.12,-13.5275
1676,372975,0.260592,-0.42553599999999997,-0.772504,60.585,-4.3225,-1.5575
1677,373072,0.45628,0.282308,-1.156316,29.295,-1.995,4.445
1678,373169,0.086132,-0.424072,-0.895236,22.4875,-2.17,-13.37
1679,373266,0.385276,0.161772,-0.984296,4.4975,8.505,-8.19
1680,373363,0.27816,0.24082800000000001,-1.029436,0.7875,7.1925,-1.61
1681,373460,0.24644000000000002,-0.015128,-0.998448,11.515,3.92,-6.23
1682,373557,0.258396,0.10248,-1.0230920000000001,11.165,3.0275,-2.0825
1683,373654,0.255712,-0.001464,-0.9940559999999999,14.6475,2.2225,-1.82
1684,373751,0.24082800000000001,-0.006587999999999999,-0.99918,17.955,3.4825,0.035
1685,373848,0.275964,-0.022936,-0.992348,19.7575,4.2525,4.095
1686,373945,0.268644,-0.07344400000000001,-0.987224,18.6725,4.9,5.4075
1687,374042,0.268888,-0.036356,-0.9921040999999999,13.93,5.705,4.9
1688,374139,0.290604,-0.038064,-0.9860040999999999,10.5525,7.035,4.55
