,T,ax,ay,az,gx,gy,gz
0,8970670,0.9208561,0.07246799999999999,0.075396,18.7775,-16.625,-15.54
1,8970828,0.9602620999999999,0.07039400000000001,-0.02623,-47.53,29.4525,-138.8975
2,8970925,1.002474,0.067344,-0.095282,-78.82,31.78,-270.9875
3,8971023,0.946842,0.05843801,-0.08503401,18.55,-96.4075,-87.045
4,8971121,0.9291520000000001,0.06661201,-0.092964,-0.2275,-18.2175,-8.75
5,8971219,0.9455,0.063318,-0.121024,-2.1525,-9.73,-4.2
6,8971317,0.9568459999999999,0.055265999999999996,-0.14469200000000002,-3.815,-10.85,-3.71
7,8971415,0.9705101,0.054655999999999996,-0.180804,-6.685,-14.84,-3.0275
8,8971513,1.01138,0.038674,-0.116632,-8.2075,-20.72,-1.9775
9,8971611,1.003328,0.064294,-0.18971,-5.1975,-34.09,-0.0525
10,8971708,1.025898,0.085522,-0.192882,-1.505,-44.94,1.6625
11,8971806,1.029802,0.09991799999999999,-0.15372,3.5875,-58.1875,2.94
12,8971904,1.031144,0.1037,-0.110654,10.5,-73.2375,3.71
13,8972002,1.031876,0.08893801,-0.107848,12.0225,-90.21251,3.4825
14,8972100,1.028704,0.030987999999999998,0.103822,5.9675,-108.465,2.9225
15,8972198,0.8814501,0.176778,0.20435,-8.9775,-97.21251,4.6025
16,8972296,0.9189040999999999,0.072956,-0.001464,-4.7425,-33.8975,-0.8225
17,8972394,0.99918,0.055265999999999996,-0.23167800000000002,-0.6825,2.9575,-5.285
18,8972492,0.978928,0.061975999999999996,-0.191906,0.2975,-4.9875,-4.3575
19,8972589,0.9612379999999999,0.069052,-0.161406,-0.56,-9.3625,-3.6575
20,8972687,0.963434,0.07027201,-0.152256,-1.1375,-8.47,-3.85
21,8972785,0.9699,0.067832,-0.161894,-1.12,-7.35,-4.0075
22,8972883,0.9738041,0.066734,-0.15677,-0.9275,-7.595,-4.1825
23,8972981,0.977342,0.06356201,-0.156892,-0.9625,-7.1225,-4.305
24,8973079,0.9800261,0.062341999999999995,-0.158966,-1.1025,-7.1925,-4.41
25,8973177,0.9791719999999999,0.061975999999999996,-0.15506199999999998,-1.2075,-7.6825,-4.375
26,8973275,0.9775860000000001,0.062220000000000004,-0.151646,-1.365,-8.015,-4.34
27,8973373,0.9745360000000001,0.063318,-0.151158,-1.54,-8.155,-4.3575
28,8973470,0.974658,0.06380599999999999,-0.14798599999999998,-1.7325,-8.225,-4.3575
29,8973568,0.9739261,0.06527000000000001,-0.148108,-1.82,-8.085,-4.34
30,8973666,0.9740479999999999,0.06649,-0.14518,-1.7675,-7.875,-4.445
31,8973764,0.973316,0.06563601,-0.143228,-1.68,-7.7,-4.445
32,8973862,0.97356,0.066124,-0.142984,-1.715,-7.42,-4.41
33,8973960,0.9729501,0.067222,-0.143594,-1.715,-7.245,-4.3575
34,8974058,0.971242,0.064782,-0.14469200000000002,-1.6625,-6.9475,-4.305
35,8974155,0.9699,0.06356201,-0.142252,-1.5575,-6.685,-4.305
36,8974253,0.969412,0.06466001,-0.141276,-1.54,-6.405,-4.305
37,8974351,0.9729501,0.06356201,-0.14347200000000002,-1.54,-5.9675,-4.34
38,8974449,0.977342,0.064172,-0.144204,-1.6625,-5.565,-4.3925
39,8974547,0.9767321,0.062952,-0.141764,-1.785,-5.6,-4.41
40,8974645,0.976366,0.06490399999999999,-0.13969,-1.9775,-5.8275,-4.6375
41,8974743,0.9720960999999999,0.065514,-0.139324,-2.345,-6.2125,-4.5675
42,8974841,0.9725841000000001,0.06539201,-0.13785999999999998,-2.555,-6.2475,-4.5675
43,8974939,0.9739261,0.06466001,-0.139324,-2.7125,-6.1775,-4.7425
44,8975036,0.9777081,0.061366,-0.141276,-2.7825,-5.985,-4.8125
45,8975134,0.978318,0.062098,-0.1403,-2.73,-5.74,-4.83
46,8975232,0.97783,0.06405001,-0.14078800000000002,-2.52,-5.74,-4.7775
47,8975330,0.975878,0.067222,-0.141398,-2.4675,-5.81,-4.6725
48,8975428,0.975878,0.070882,-0.142252,-2.45,-5.845,-4.55
49,8975526,0.979416,0.07076001,-0.14310599999999998,-2.625,-5.705,-4.48
50,8975624,0.984418,0.070516,-0.143716,-2.5725,-5.635,-4.4975
51,8975722,0.983564,0.06880801,-0.143716,-2.24,-5.88,-4.585
52,8975820,0.9799041,0.067832,-0.145546,-1.9425,-6.09,-4.585
53,8975918,0.977342,0.06563601,-0.14823,-1.96,-6.16,-4.48
54,8976015,0.9767321,0.06527000000000001,-0.14896199999999998,-2.065,-6.4925,-4.375
55,8976113,0.9764879999999999,0.06941801,-0.148596,-2.1525,-6.6675,-4.3925
56,8976211,0.9745360000000001,0.07259,-0.14566800000000002,-2.24,-6.79,-4.3575
57,8976309,0.9740479999999999,0.076738,-0.144814,-2.1175,-6.9475,-4.445
58,8976407,0.9769760000000001,0.07588400000000001,-0.146156,-2.1175,-6.825,-4.655
59,8976505,0.9799041,0.07381001,-0.142008,-1.855,-6.8425,-4.76
60,8976603,0.979294,0.06880801,-0.142618,-1.645,-7.175,-4.9175
61,8976701,0.975024,0.064538,-0.141398,-1.5225,-7.4025,-4.935
62,8976799,0.9724620999999999,0.061366,-0.141154,-1.575,-7.1925,-4.8125
63,8976897,0.9738041,0.061610000000000005,-0.14164200000000002,-1.7325,-6.8425,-4.8125
64,8976994,0.9751460999999999,0.062464,-0.14090999999999998,-1.82,-6.5625,-4.7775
65,8977092,0.975512,0.06539201,-0.142618,-1.8025,-6.2825,-4.725
66,8977190,0.9745360000000001,0.06892999999999999,-0.14457,-2.0125,-6.1425,-4.7775
67,8977288,0.9725841000000001,0.070882,-0.144814,-2.2225,-6.195,-4.7775
68,8977386,0.9725841000000001,0.069052,-0.14518,-2.2225,-6.0375,-4.7425
69,8977484,0.9724620999999999,0.06954,-0.144814,-2.31,-5.9675,-4.7425
70,8977582,0.973316,0.06795401,-0.145302,-2.24,-5.9325,-4.7775
71,8977680,0.9751460999999999,0.068564,-0.145424,-2.1,-5.705,-4.7075
72,8977778,0.975512,0.068442,-0.146522,-1.9775,-5.6175,-4.795
73,8977876,0.9766101,0.070882,-0.14383800000000002,-2.065,-5.53,-4.7425
74,8977973,0.975878,0.074786,-0.144082,-2.17,-5.4775,-4.725
75,8978071,0.9740479999999999,0.075762,-0.141764,-2.135,-5.67,-4.76
76,8978169,0.971974,0.07600599999999999,-0.144326,-2.135,-5.915,-4.76
77,8978267,0.972828,0.07307801,-0.145912,-1.995,-5.8275,-4.76
78,8978365,0.972218,0.07137001,-0.145912,-1.75,-5.74,-4.865
79,8978463,0.9736819999999999,0.071004,-0.146522,-1.5925,-5.565,-4.7075
80,8978561,0.9749021000000001,0.07259,-0.14566800000000002,-1.33,-5.53,-4.6375
81,8978659,0.9779521000000001,0.07381001,-0.14701,-1.155,-5.53,-4.62
82,8978757,0.9784401,0.07612801,-0.141398,-1.015,-5.705,-4.5675
83,8978854,0.976366,0.075396,-0.14090999999999998,-0.98,-5.8275,-4.725
84,8978952,0.9738041,0.072956,-0.14090999999999998,-1.0675,-5.845,-4.9
85,8979050,0.9749021000000001,0.071492,-0.143594,-1.1025,-5.74,-4.97
86,8979148,0.9774639999999999,0.06880801,-0.14469200000000002,-1.015,-5.5475,-4.9875
87,8979246,0.978318,0.068442,-0.143228,-0.8575,-5.635,-4.8125
88,8979344,0.97783,0.06880801,-0.14152,-0.735,-5.915,-4.7425
89,8979442,0.979294,0.070516,-0.141764,-0.5425,-5.8625,-4.6725
90,8979540,0.9761219999999999,0.07283401,-0.142862,-0.4725,-5.775,-4.795
91,8979637,0.97478,0.073688,-0.14188599999999998,-0.49,-5.67,-4.7425
92,8979735,0.9753901,0.0732,-0.142496,-0.6125,-5.6,-4.8125
93,8979833,0.974292,0.07222401,-0.14188599999999998,-0.63,-5.6175,-4.7775
94,8979931,0.9769760000000001,0.070882,-0.14310599999999998,-0.6825,-5.6,-5.005
95,8980029,0.9772200999999999,0.06929600000000001,-0.14469200000000002,-0.6475,-5.6525,-5.005
96,8980127,0.9749021000000001,0.06746601,-0.143594,-0.49,-5.81,-4.9875
97,8980225,0.9764879999999999,0.07027201,-0.14383800000000002,-0.315,-5.9325,-4.83
98,8980323,0.978318,0.07173600000000001,-0.14383800000000002,-0.35,-5.8625,-4.6375
99,8980420,0.9796600000000001,0.075396,-0.144448,-0.315,-6.02,-4.69
100,8980518,0.9768540000000001,0.076616,-0.144448,-0.4025,-5.95,-4.7075
101,8980616,0.9751460999999999,0.074664,-0.14335,-0.4375,-6.16,-4.8125
102,8980714,0.9741700000000001,0.07259,-0.145302,-0.28,-6.055,-4.97
103,8980812,0.975024,0.070516,-0.146644,-0.0525,-5.8975,-4.935
104,8980910,0.97356,0.068076,-0.146522,0.175,-5.95,-4.8825
105,8981008,0.975024,0.068442,-0.14469200000000002,0.0525,-5.9675,-4.8125
106,8981106,0.9744141,0.06795401,-0.144326,-0.0525,-5.9325,-4.8475
107,8981204,0.9751460999999999,0.06746601,-0.14566800000000002,-0.1225,-5.95,-4.8125
108,8981301,0.9734381,0.067588,-0.14566800000000002,-0.175,-6.02,-4.8125
109,8981399,0.9739261,0.06771001,-0.14713199999999999,-0.1925,-5.915,-4.83
110,8981497,0.975634,0.06795401,-0.145424,-0.455,-5.95,-4.725
111,8981595,0.9761219999999999,0.067588,-0.14518,-0.595,-6.055,-4.62
112,8981693,0.975512,0.06771001,-0.145302,-0.665,-6.09,-4.655
113,8981791,0.9764879999999999,0.06344,-0.14566800000000002,-0.77,-6.0375,-4.655
114,8981889,0.9774639999999999,0.064538,-0.144814,-0.7875,-5.9675,-4.7075
115,8981987,0.9770981,0.064416,-0.14469200000000002,-0.7525,-5.9325,-4.585
116,8982085,0.978074,0.06600201,-0.14493599999999998,-0.8400001,-5.8625,-4.655
117,8982182,0.9777081,0.067344,-0.145302,-0.9625,-6.0025,-4.62
118,8982280,0.9757561,0.06832001,-0.14688800000000002,-1.0675,-6.09,-4.6375
119,8982378,0.9779521000000001,0.06563601,-0.145546,-1.1725,-6.1425,-4.62
120,8982476,0.9753901,0.065026,-0.145302,-1.155,-6.055,-4.4975
121,8982574,0.9768540000000001,0.062098,-0.146156,-1.085,-6.2125,-4.4975
122,8982672,0.9769760000000001,0.062220000000000004,-0.146522,-1.085,-6.1775,-4.515
123,8982770,0.9744141,0.062220000000000004,-0.14469200000000002,-1.1725,-6.3175,-4.41
124,8982868,0.9751460999999999,0.06575800000000001,-0.145546,-1.3475,-6.1425,-4.375
125,8982965,0.975878,0.06661201,-0.14786400000000002,-1.61,-5.95,-4.375
126,8983063,0.9761219999999999,0.066124,-0.146766,-1.75,-6.2125,-4.34
127,8983161,0.9768540000000001,0.066246,-0.145546,-1.8375,-6.37,-4.445
128,8983259,0.9766101,0.06490399999999999,-0.14566800000000002,-2.1,-6.335,-4.515
129,8983357,0.9769760000000001,0.06527000000000001,-0.144326,-2.1525,-6.4925,-4.5325
130,8983455,0.977342,0.06527000000000001,-0.142496,-2.1,-6.6325,-4.4625
131,8983553,0.9770981,0.066856,-0.14274,-2.1525,-6.5275,-4.4975
132,8983651,0.9770981,0.066978,-0.14457,-2.3275,-6.475,-4.5325
133,8983748,0.978074,0.067588,-0.144204,-2.275,-6.5275,-4.5325
134,8983846,0.9784401,0.06466001,-0.144082,-2.3625,-6.5275,-4.585
135,8983944,0.975024,0.06636801,-0.14579,-2.555,-6.615,-4.585
136,8984042,0.972706,0.068564,-0.14786400000000002,-2.66,-6.545,-4.655
137,8984140,0.9716081,0.07027201,-0.148352,-2.66,-6.475,-4.62
138,8984238,0.971974,0.07222401,-0.148596,-2.52,-6.3875,-4.55
139,8984336,0.9770981,0.07307801,-0.14701,-2.345,-6.23,-4.5675
140,8984434,0.9801479999999999,0.07015,-0.145058,-2.03,-6.2475,-4.655
141,8984532,0.9801479999999999,0.06832001,-0.14566800000000002,-1.9075,-6.4925,-4.6725
142,8984629,0.9766101,0.065148,-0.146156,-1.855,-6.685,-4.76
143,8984727,0.973194,0.062341999999999995,-0.145912,-1.855,-6.86,-4.8475
144,8984825,0.969412,0.062952,-0.14688800000000002,-1.925,-6.8775,-4.795
145,8984923,0.9673379999999999,0.06356201,-0.150304,-1.96,-6.5275,-4.7075
146,8985021,0.9675819999999999,0.06563601,-0.15067,-2.03,-6.2125,-4.6025
147,8985119,0.969046,0.067832,-0.14945,-2.1,-6.0025,-4.585
148,8985217,0.9709979999999999,0.07039400000000001,-0.15091400000000002,-2.3625,-6.0025,-4.6375
149,8985315,0.9751460999999999,0.071004,-0.15006,-2.415,-6.1775,-4.655
150,8985413,0.976,0.071004,-0.14993800000000002,-2.2225,-6.3175,-4.515
151,8985511,0.9777081,0.06795401,-0.15128,-2.0825,-6.37,-4.515
152,8985608,0.9801479999999999,0.066124,-0.151036,-1.8725,-6.58,-4.41
153,8985706,0.981124,0.065514,-0.149816,-1.75,-6.8775,-4.41
154,8985804,0.9774639999999999,0.06661201,-0.14945,-1.6625,-7.0525,-4.48
155,8985902,0.975024,0.06588,-0.151036,-1.715,-6.9125,-4.515
156,8986000,0.975878,0.06832001,-0.149084,-1.5925,-6.9125,-4.62
157,8986098,0.9772200999999999,0.07015,-0.14871800000000002,-1.6975,-6.895,-4.62
158,8986196,0.981124,0.071492,-0.14786400000000002,-1.715,-6.8775,-4.76
159,8986294,0.982466,0.07198,-0.149084,-1.4,-7.07,-4.865
160,8986391,0.9821,0.07198,-0.14993800000000002,-1.1025,-7.28,-4.725
161,8986489,0.9769760000000001,0.06954,-0.152134,-1.015,-7.4375,-4.725
162,8986587,0.9691681000000001,0.067832,-0.15189,-1.015,-7.63,-4.7425
163,8986685,0.96319,0.065514,-0.151402,-0.7875,-7.385,-4.795
164,8986783,0.962458,0.065026,-0.154574,-0.8225,-7.0875,-4.76
165,8986881,0.9628241,0.063196,-0.15555,-0.9975,-6.6675,-4.9175
166,8986979,0.9636780999999999,0.05941401,-0.156404,-1.12,-6.3175,-5.11
167,8987077,0.9680700000000001,0.05941401,-0.15762400000000001,-1.2075,-5.985,-5.18
168,8987174,0.9705101,0.060512,-0.15677,-1.19,-5.775,-5.075
169,8987272,0.9703879999999999,0.060267999999999995,-0.15616,-1.0675,-5.775,-5.18
170,8987370,0.9725841000000001,0.062586,-0.155672,-1.155,-5.6,-5.075
171,8987468,0.972828,0.06527000000000001,-0.156404,-1.33,-5.4425,-4.97
172,8987566,0.969412,0.06636801,-0.157136,-1.3825,-5.565,-5.04
173,8987664,0.96929,0.069662,-0.15433,-1.4,-5.5475,-5.04
174,8987762,0.9709979999999999,0.068686,-0.154696,-1.47,-5.3375,-5.005
175,8987860,0.9772200999999999,0.069052,-0.155306,-1.4875,-5.1625,-4.8825
176,8987957,0.9799041,0.06588,-0.153842,-1.4175,-5.3025,-4.8475
177,8988055,0.9802700000000001,0.06270801,-0.152622,-1.3825,-5.6,-4.7425
178,8988153,0.979416,0.063196,-0.15176800000000001,-1.47,-5.9325,-4.5675
179,8988251,0.9764879999999999,0.06380599999999999,-0.152622,-1.68,-6.0025,-4.48
180,8988349,0.9718521000000001,0.063928,-0.15396400000000002,-1.6625,-6.1425,-4.585
181,8988447,0.9678261,0.066124,-0.153842,-1.645,-6.055,-4.76
182,8988545,0.967094,0.066246,-0.155306,-1.6275,-5.7925,-4.795
183,8988643,0.9701440999999998,0.06661201,-0.157746,-1.68,-5.495,-4.865
184,8988740,0.9736819999999999,0.06649,-0.15738,-1.575,-5.425,-4.8125
185,8988838,0.9741700000000001,0.06600201,-0.154696,-1.575,-5.635,-4.7075
186,8988936,0.9705101,0.06563601,-0.152866,-1.6275,-5.845,-4.55
187,8989034,0.9700219999999999,0.066978,-0.15128,-1.7325,-5.775,-4.69
188,8989132,0.9701440999999998,0.062952,-0.15420799999999998,-1.9075,-5.565,-4.6725
189,8989230,0.968192,0.064782,-0.15006,-1.9075,-5.39,-4.7075
190,8989328,0.972218,0.06344,-0.155306,-1.89,-4.865,-4.8475
191,8989426,0.973316,0.063928,-0.15506199999999998,-1.96,-4.725,-4.8825
192,8989523,0.9716081,0.06405001,-0.15372,-2.0475,-4.7075,-4.8825
193,8989621,0.972706,0.06575800000000001,-0.153476,-2.31,-4.795,-4.97
194,8989719,0.972828,0.06661201,-0.15237799999999999,-2.3975,-4.7425,-4.9175
195,8989817,0.9711200999999999,0.06819800000000001,-0.1525,-2.3625,-4.655,-4.8475
196,8989915,0.9699,0.06819800000000001,-0.15128,-2.31,-4.585,-4.7775
197,8990013,0.97234,0.068442,-0.15506199999999998,-2.17,-4.3575,-4.7425
198,8990111,0.9767321,0.069174,-0.158966,-2.345,-4.095,-4.76
199,8990209,0.9784401,0.069784,-0.156404,-2.4325,-4.305,-4.9175
200,8990306,0.978684,0.069784,-0.15579400000000002,-2.52,-4.795,-5.1275
201,8990404,0.9772200999999999,0.069052,-0.15311,-2.485,-5.215,-5.215
202,8990502,0.9774639999999999,0.06892999999999999,-0.15201199999999998,-2.275,-5.355,-5.3375
203,8990600,0.977342,0.068442,-0.151646,-2.1,-5.5475,-5.285
204,8990698,0.978684,0.06600201,-0.151402,-2.065,-5.7225,-5.32
205,8990796,0.9806360000000001,0.066734,-0.15201199999999998,-1.96,-5.8975,-5.2675
206,8990894,0.98088,0.069052,-0.15128,-1.9775,-6.1425,-5.3375
207,8990992,0.9802700000000001,0.069174,-0.14798599999999998,-2.24,-6.44,-5.4425
208,8991089,0.9795381,0.071004,-0.146644,-2.6425,-6.545,-5.6525
209,8991187,0.9767321,0.073688,-0.146644,-2.6075,-6.615,-5.8275
210,8991285,0.975024,0.07173600000000001,-0.150426,-2.3275,-6.5625,-5.8625
211,8991383,0.9749021000000001,0.068076,-0.15201199999999998,-1.9425,-6.3,-5.8275
212,8991481,0.97478,0.06880801,-0.152256,-1.7675,-6.195,-5.67
213,8991579,0.971974,0.071248,-0.153598,-1.6625,-6.265,-5.5825
214,8991677,0.9711200999999999,0.0732,-0.15725799999999998,-1.715,-6.2125,-5.6
215,8991775,0.9686799999999999,0.07515201,-0.156526,-1.61,-6.23,-5.4775
216,8991872,0.9653860000000001,0.077836,-0.155672,-1.575,-6.3875,-5.5475
217,8991970,0.9656300999999999,0.080154,-0.15555,-1.4875,-6.2825,-5.635
218,8992068,0.966606,0.07991000000000001,-0.15420799999999998,-1.47,-6.0725,-5.705
219,8992166,0.969534,0.07808001,-0.156038,-1.26,-5.74,-5.7225
220,8992264,0.9741700000000001,0.07442,-0.15420799999999998,-1.1025,-5.6175,-5.705
221,8992362,0.9770981,0.07039400000000001,-0.153354,-0.8575,-5.81,-5.67
222,8992460,0.9738041,0.06954,-0.151158,-0.805,-5.9675,-5.565
223,8992557,0.9725841000000001,0.067832,-0.149206,-0.9975,-5.985,-5.53
224,8992655,0.9730721,0.067588,-0.151158,-1.2425,-5.985,-5.4775
225,8992753,0.97478,0.069906,-0.15067,-1.4175,-5.8625,-5.425
226,8992851,0.976366,0.07027201,-0.152134,-1.4,-5.74,-5.5125
227,8992949,0.9766101,0.07356601,-0.152256,-1.505,-5.7575,-5.5825
228,8993047,0.975634,0.077592,-0.149328,-1.68,-6.0025,-5.565
229,8993145,0.97356,0.07856801,-0.14884,-1.8025,-6.1775,-5.6175
230,8993242,0.9738041,0.07722601,-0.150304,-1.8725,-5.985,-5.775
231,8993340,0.97234,0.07564,-0.152866,-1.6625,-5.6875,-5.6175
232,8993438,0.9744141,0.07527400000000001,-0.15555,-1.4175,-5.495,-5.39
233,8993536,0.9769760000000001,0.07637200000000001,-0.15616,-1.295,-5.39,-5.425
234,8993634,0.975634,0.075762,-0.15311,-1.33,-5.6875,-5.3725
235,8993732,0.9736819999999999,0.076494,-0.154086,-1.26,-5.88,-5.25
236,8993829,0.9729501,0.074786,-0.155916,-1.4,-5.9325,-5.285
237,8993927,0.9707541,0.07198,-0.155306,-1.4175,-6.1075,-5.3725
238,8994025,0.9669721,0.07283401,-0.153842,-1.435,-6.195,-5.2325
239,8994123,0.964776,0.073688,-0.15396400000000002,-1.26,-6.09,-5.145
240,8994221,0.967094,0.07747001,-0.15372,-1.365,-5.7225,-4.97
241,8994319,0.969534,0.07893401,-0.15189,-1.5225,-5.565,-4.9525
242,8994416,0.973316,0.08052000000000001,-0.15006,-1.5925,-5.4775,-5.0575
243,8994514,0.978318,0.07978801,-0.152622,-1.575,-5.215,-5.18
244,8994612,0.9801479999999999,0.077836,-0.150304,-1.6275,-5.18,-5.215
245,8994710,0.9779521000000001,0.07698201,-0.149328,-1.715,-5.3375,-5.2325
246,8994808,0.9761219999999999,0.074054,-0.15018199999999998,-1.855,-5.565,-5.285
247,8994906,0.9724620999999999,0.07259,-0.15067,-1.995,-5.6,-5.1975
248,8995003,0.97356,0.07344400000000001,-0.14993800000000002,-2.135,-5.495,-5.285
249,8995101,0.972706,0.076494,-0.15201199999999998,-2.1875,-5.46,-5.25
250,8995199,0.9725841000000001,0.080398,-0.150426,-2.3275,-5.495,-5.25
251,8995297,0.9707541,0.081496,-0.151036,-2.3975,-5.5475,-5.2675
252,8995395,0.973316,0.08100801,-0.149572,-2.3625,-5.425,-5.32
253,8995493,0.975024,0.079666,-0.15054800000000002,-2.24,-5.4075,-5.32
254,8995590,0.973194,0.079178,-0.150792,-2.1525,-5.5825,-5.25
255,8995688,0.9679481,0.07747001,-0.1525,-1.9425,-5.67,-5.1625
256,8995786,0.9697780999999999,0.07686,-0.15311,-1.8025,-5.6,-5.1975
257,8995884,0.9697780999999999,0.079056,-0.151524,-1.855,-5.355,-5.2675
258,8995982,0.9706319999999999,0.079178,-0.15128,-1.9075,-5.355,-5.2675
259,8996079,0.9736819999999999,0.079544,-0.151036,-1.9425,-5.04,-5.425
260,8996177,0.9762440999999998,0.079544,-0.15372,-1.855,-4.9175,-5.3725
261,8996275,0.9749021000000001,0.07869,-0.15189,-1.785,-5.215,-5.32
262,8996373,0.9720960999999999,0.07747001,-0.149694,-1.785,-5.4075,-5.215
263,8996471,0.9703879999999999,0.07637200000000001,-0.15274400000000002,-1.68,-5.3375,-5.0225
264,8996569,0.969412,0.07442,-0.153476,-1.855,-5.1975,-4.9175
265,8996666,0.969046,0.074786,-0.152134,-1.995,-5.1275,-4.865
266,8996764,0.9673379999999999,0.074542,-0.149694,-2.0125,-5.1625,-4.7425
267,8996862,0.9707541,0.07698201,-0.149694,-2.17,-4.8825,-4.725
268,8996960,0.9718521000000001,0.07637200000000001,-0.152256,-2.275,-4.585,-4.76
269,8997058,0.9734381,0.07600599999999999,-0.151036,-2.2575,-4.515,-4.7425
270,8997156,0.9718521000000001,0.07625,-0.150426,-2.2575,-4.585,-4.6725
271,8997253,0.9711200999999999,0.077592,-0.148474,-2.2925,-4.7425,-4.515
272,8997351,0.971242,0.07686,-0.14713199999999999,-2.31,-4.8475,-4.4275
273,8997449,0.9730721,0.077836,-0.14762,-2.2225,-4.795,-4.515
274,8997547,0.9753901,0.0793,-0.14945,-2.2575,-4.7775,-4.5675
275,8997645,0.9775860000000001,0.080764,-0.14823,-2.1,-4.585,-4.4975
276,8997743,0.9764879999999999,0.079666,-0.149206,-2.03,-4.76,-4.55
277,8997840,0.97173,0.08100801,-0.146644,-1.89,-5.075,-4.445
278,8997938,0.968558,0.082472,-0.145424,-1.785,-5.215,-4.4275
279,8998036,0.9686799999999999,0.082838,-0.146766,-1.6625,-5.0575,-4.34
280,8998134,0.96929,0.08174001,-0.146766,-1.645,-4.7425,-4.445
281,8998232,0.9725841000000001,0.081252,-0.149816,-1.4875,-4.3925,-4.5325
282,8998330,0.9730721,0.07893401,-0.14823,-1.225,-4.3225,-4.48
283,8998428,0.9741700000000001,0.07832401,-0.14823,-1.015,-4.6725,-4.55
284,8998525,0.9716081,0.077958,-0.147498,-0.9975,-4.9,-4.62
285,8998623,0.9718521000000001,0.077836,-0.146278,-0.945,-5.075,-4.655
286,8998721,0.9700219999999999,0.081618,-0.14383800000000002,-1.015,-5.18,-4.9525
287,8998819,0.965752,0.080764,-0.140178,-1.155,-5.075,-5.32
288,8998917,0.965752,0.08113001,-0.139202,-0.9625,-4.7075,-5.5475
289,8999015,0.9707541,0.082716,-0.139812,-0.9275,-4.1825,-5.7925
290,8999113,0.975512,0.08357,-0.139324,-0.6125,-3.7275,-5.775
291,8999210,0.9784401,0.082838,-0.137738,-0.2975,-3.7975,-5.4425
292,8999308,0.9791719999999999,0.07832401,-0.137494,-0.2625,-3.9725,-5.145
293,8999406,0.9818561,0.076494,-0.13480999999999999,-0.49,-3.8675,-4.8475
294,8999504,0.9802700000000001,0.07442,-0.13298,-0.63,-4.165,-4.83
295,8999602,0.9766101,0.071492,-0.129442,-0.945,-4.2525,-4.935
296,8999700,0.9801479999999999,0.07246799999999999,-0.133102,-1.085,-3.9375,-5.1625
297,8999798,0.9851501,0.07564,-0.134322,-1.05,-3.64,-5.18
298,8999895,0.986858,0.07978801,-0.13383399999999998,-1.085,-3.5875,-5.075
299,8999993,0.9853940999999999,0.08174001,-0.133468,-1.0325,-3.8325,-4.795
300,9000091,0.984906,0.080398,-0.132858,-1.155,-4.13,-4.6725
301,9000189,0.9833200000000001,0.080276,-0.136152,-1.2075,-4.34,-4.725
302,9000287,0.9772200999999999,0.080398,-0.134688,-1.0675,-4.62,-4.655
303,9000385,0.9730721,0.07978801,-0.136884,-1.1025,-4.795,-4.76
304,9000483,0.972218,0.0793,-0.141276,-1.0675,-4.795,-4.9175
305,9000581,0.9752681000000001,0.08003201,-0.14469200000000002,-0.8400001,-4.48,-5.0225
306,9000679,0.9777081,0.08100801,-0.146522,-0.5425,-4.5325,-4.9175
307,9000776,0.979294,0.081374,-0.146766,-0.4025,-4.83,-4.7425
308,9000874,0.9779521000000001,0.081252,-0.14823,-0.245,-5.1625,-4.7075
309,9000972,0.9753901,0.080276,-0.14884,-0.105,-5.425,-4.795
310,9001070,0.9739261,0.079178,-0.14871800000000002,0.0,-5.6875,-4.9175
311,9001168,0.976,0.07832401,-0.147254,0.14,-5.775,-4.9525
312,9001266,0.9777081,0.0793,-0.14798599999999998,0.245,-5.7225,-4.97
313,9001364,0.9751460999999999,0.078202,-0.14457,0.315,-5.7925,-4.8125
314,9001461,0.9730721,0.07808001,-0.144448,0.35,-5.95,-4.6725
315,9001559,0.974292,0.077714,-0.144204,0.1575,-5.7575,-4.76
316,9001657,0.9738041,0.07564,-0.14383800000000002,-0.0875,-5.845,-4.76
317,9001755,0.973316,0.073688,-0.142862,-0.0875,-6.0025,-4.8125
318,9001853,0.9734381,0.070882,-0.141276,-0.105,-5.95,-4.865
319,9001951,0.9751460999999999,0.07259,-0.138958,-0.14,-5.8975,-4.8475
320,9002049,0.9753901,0.07356601,-0.138104,-0.1575,-6.0375,-4.7075
321,9002147,0.9784401,0.07551801,-0.138348,-0.3675,-5.9675,-4.6725
322,9002244,0.9770981,0.07808001,-0.13664,-0.6125,-6.055,-4.6025
323,9002342,0.9772200999999999,0.0793,-0.132736,-0.8225,-6.0375,-4.6025
324,9002440,0.981124,0.07722601,-0.134688,-0.805,-5.95,-4.795
325,9002538,0.981002,0.07417601,-0.136518,-0.8400001,-5.88,-4.725
326,9002636,0.981002,0.07564,-0.136274,-0.8400001,-5.8975,-4.865
327,9002734,0.978318,0.07344400000000001,-0.138348,-0.8400001,-5.915,-4.795
328,9002832,0.9770981,0.076494,-0.141154,-0.91,-5.8625,-4.7775
329,9002930,0.97478,0.076494,-0.141032,-0.9625,-5.9325,-4.725
330,9003027,0.9736819999999999,0.076494,-0.142008,-0.805,-5.9675,-4.7075
331,9003125,0.9708760000000001,0.076494,-0.142862,-0.7,-5.845,-4.7775
332,9003223,0.9701440999999998,0.07747001,-0.145546,-0.7525,-5.775,-4.7775
333,9003321,0.972828,0.07747001,-0.146278,-0.7,-5.74,-4.795
334,9003419,0.972218,0.076616,-0.145302,-0.63,-5.81,-4.725
335,9003517,0.9702661,0.07686,-0.14383800000000002,-0.7,-6.055,-4.6025
336,9003615,0.9730721,0.076494,-0.14579,-0.7175,-6.125,-4.5675
337,9003713,0.972706,0.074664,-0.14493599999999998,-0.6825,-6.1775,-4.5325
338,9003810,0.9729501,0.07600599999999999,-0.142862,-0.5425,-6.2825,-4.62
339,9003908,0.9740479999999999,0.075396,-0.14310599999999998,-0.5775,-6.2825,-4.69
340,9004006,0.97356,0.07625,-0.14152,-0.595,-6.3175,-4.6375
341,9004104,0.9740479999999999,0.07710399999999999,-0.142008,-0.6825,-6.23,-4.5325
342,9004202,0.9777081,0.07869,-0.140422,-0.805,-5.9325,-4.4975
343,9004300,0.979416,0.078202,-0.13847,-0.77,-5.985,-4.4975
344,9004398,0.9803921,0.07722601,-0.137738,-0.7,-5.915,-4.3925
345,9004496,0.9791719999999999,0.07381001,-0.139812,-0.7525,-5.7575,-4.585
346,9004593,0.9774639999999999,0.074054,-0.14164200000000002,-0.6125,-5.705,-4.655
347,9004691,0.9766101,0.07442,-0.14310599999999998,-0.6825,-5.81,-4.7425
348,9004789,0.975512,0.07722601,-0.14457,-0.7875,-6.0025,-4.8475
349,9004887,0.9713639999999999,0.07856801,-0.144326,-0.91,-6.1775,-4.8125
350,9004985,0.9708760000000001,0.07893401,-0.143716,-1.1025,-6.44,-5.005
351,9005083,0.9674601,0.079056,-0.144204,-1.12,-6.4225,-5.0925
352,9005181,0.965996,0.07832401,-0.146034,-0.7875,-6.265,-5.1625
353,9005279,0.9678261,0.07808001,-0.145302,-0.42,-6.0725,-4.8475
354,9005376,0.973194,0.07808001,-0.146034,-0.385,-5.8275,-4.6375
355,9005474,0.9795381,0.07588400000000001,-0.14383800000000002,-0.3675,-5.6525,-4.6025
356,9005572,0.9846620999999999,0.074542,-0.144326,-0.2625,-5.81,-4.6725
357,9005670,0.984296,0.07490801,-0.141032,-0.2625,-6.055,-4.8125
358,9005768,0.9812460999999999,0.070882,-0.14152,-0.385,-6.37,-4.8475
359,9005866,0.9801479999999999,0.069906,-0.14188599999999998,-0.28,-6.5975,-4.8825
360,9005964,0.975878,0.07002799999999999,-0.140422,-0.315,-6.6325,-4.7075
361,9006062,0.97173,0.07356601,-0.139202,-0.4725,-6.65,-4.48
362,9006159,0.9688021000000001,0.074054,-0.13908,-0.595,-6.72,-4.3575
363,9006257,0.9686799999999999,0.07393200000000001,-0.141032,-0.595,-6.37,-4.27
364,9006355,0.975024,0.074786,-0.143716,-0.56,-5.8275,-4.3225
365,9006453,0.9757561,0.075762,-0.142008,-0.5425,-5.8275,-4.41
366,9006551,0.9751460999999999,0.074542,-0.142252,-0.56,-5.95,-4.48
367,9006649,0.97783,0.074298,-0.145058,-0.7175,-6.16,-4.62
368,9006747,0.9791719999999999,0.07490801,-0.14566800000000002,-0.7175,-6.2475,-4.725
369,9006845,0.9785620999999999,0.074786,-0.14310599999999998,-0.63,-6.5625,-4.7425
370,9006942,0.974292,0.07600599999999999,-0.14335,-0.735,-6.58,-4.62
371,9007040,0.9736819999999999,0.076494,-0.144082,-0.77,-6.37,-4.585
372,9007138,0.976,0.074786,-0.147254,-0.7875,-6.125,-4.62
373,9007236,0.975878,0.07503,-0.14518,-0.6825,-6.09,-4.655
374,9007334,0.9718521000000001,0.076738,-0.147254,-0.7,-6.2125,-4.6025
375,9007432,0.9688021000000001,0.07893401,-0.145912,-0.665,-6.16,-4.6025
376,9007530,0.9675819999999999,0.07881200000000001,-0.14798599999999998,-0.735,-6.16,-4.6025
377,9007628,0.9705101,0.078446,-0.147498,-0.8225,-6.1425,-4.6375
378,9007725,0.9724620999999999,0.077958,-0.144326,-0.77,-6.23,-4.76
379,9007823,0.9713639999999999,0.074786,-0.144204,-0.7,-6.51,-4.6725
380,9007921,0.972828,0.07246799999999999,-0.14396,-0.6825,-6.545,-4.585
381,9008019,0.9766101,0.07112601,-0.1403,-0.5775,-6.4925,-4.515
382,9008117,0.97783,0.072102,-0.14078800000000002,-0.6125,-6.51,-4.5325
383,9008215,0.9753901,0.071004,-0.14335,-0.6825,-6.405,-4.5325
384,9008313,0.9761219999999999,0.07356601,-0.14493599999999998,-0.7,-6.265,-4.5675
385,9008410,0.9799041,0.07503,-0.148352,-0.7,-6.1075,-4.55
386,9008508,0.9801479999999999,0.075762,-0.14823,-0.5425,-6.02,-4.6025
387,9008606,0.9753901,0.07564,-0.14688800000000002,-0.4725,-6.3875,-4.6725
388,9008704,0.97356,0.074786,-0.146644,-0.5425,-6.37,-4.5675
389,9008802,0.9734381,0.074542,-0.146644,-0.4725,-6.3875,-4.5325
390,9008900,0.974658,0.07246799999999999,-0.14579,-0.5775,-6.4225,-4.3925
391,9008998,0.9736819999999999,0.07381001,-0.147254,-0.6825,-6.4925,-4.375
392,9009095,0.9749021000000001,0.071004,-0.147254,-0.735,-6.4575,-4.3575
393,9009193,0.976366,0.071004,-0.14786400000000002,-0.8400001,-6.44,-4.445
394,9009291,0.9753901,0.071614,-0.14786400000000002,-0.9625,-6.4925,-4.4975
395,9009389,0.9734381,0.07356601,-0.148108,-1.2425,-6.86,-4.5325
396,9009487,0.96929,0.073688,-0.146766,-1.4175,-7.0525,-4.6025
397,9009585,0.9684360999999999,0.073688,-0.14701,-1.4875,-6.93,-4.62
398,9009683,0.9718521000000001,0.07698201,-0.14945,-1.365,-6.475,-4.55
399,9009781,0.975878,0.078202,-0.14713199999999999,-1.155,-6.405,-4.4625
400,9009879,0.9749021000000001,0.07869,-0.148474,-1.05,-6.475,-4.3925
401,9009976,0.9752681000000001,0.079544,-0.151036,-0.9625,-6.335,-4.3575
402,9010074,0.9769760000000001,0.080154,-0.15006,-0.8400001,-6.3525,-4.3925
403,9010172,0.976366,0.077836,-0.148596,-0.7,-6.4925,-4.48
404,9010270,0.975878,0.075762,-0.14762,-0.5775,-6.6325,-4.4975
405,9010368,0.9753901,0.07442,-0.149084,-0.4725,-6.51,-4.48
406,9010466,0.9757561,0.074298,-0.15006,-0.4725,-6.16,-4.515
407,9010564,0.9736819999999999,0.07503,-0.151402,-0.4725,-6.2825,-4.4625
408,9010662,0.973316,0.075396,-0.15176800000000001,-0.3675,-6.58,-4.515
409,9010760,0.972828,0.07637200000000001,-0.15237799999999999,-0.42,-6.615,-4.48
410,9010857,0.9720960999999999,0.07564,-0.151402,-0.5425,-6.755,-4.48
411,9010955,0.9734381,0.07527400000000001,-0.15176800000000001,-0.385,-6.65,-4.515
412,9011053,0.9753901,0.07381001,-0.15433,-0.4375,-6.37,-4.585
413,9011151,0.9749021000000001,0.07137001,-0.154818,-0.385,-6.44,-4.48
414,9011249,0.9741700000000001,0.07137001,-0.153842,-0.28,-6.615,-4.375
415,9011347,0.9730721,0.07393200000000001,-0.155306,-0.245,-6.6675,-4.305
416,9011445,0.9734381,0.07381001,-0.15555,-0.315,-6.7375,-4.2525
417,9011543,0.9741700000000001,0.07442,-0.153598,-0.56,-6.6675,-4.2175
418,9011640,0.9741700000000001,0.07551801,-0.15274400000000002,-0.595,-6.6675,-4.095
419,9011738,0.9724620999999999,0.072712,-0.151646,-0.5425,-6.6675,-4.1825
420,9011836,0.9729501,0.07222401,-0.1525,-0.49,-6.3875,-4.305
421,9011934,0.97173,0.07259,-0.15176800000000001,-0.28,-6.475,-4.27
422,9012032,0.9700219999999999,0.0732,-0.152134,-0.2275,-6.58,-4.165
423,9012130,0.9711200999999999,0.071492,-0.15372,-0.28,-6.6325,-4.165
424,9012228,0.971974,0.07307801,-0.153476,-0.3675,-6.51,-4.165
425,9012326,0.9749021000000001,0.073688,-0.152622,-0.49,-6.2825,-4.1475
426,9012424,0.9757561,0.074054,-0.152134,-0.525,-6.2825,-4.2875
427,9012521,0.974658,0.07332201,-0.153598,-0.5075,-6.2125,-4.2175
428,9012619,0.9729501,0.07234600000000001,-0.155428,-0.4025,-6.16,-4.2875
429,9012717,0.971242,0.07332201,-0.15701400000000001,-0.3675,-6.195,-4.3575
430,9012815,0.9714860000000001,0.0732,-0.15725799999999998,-0.3325,-6.23,-4.3225
431,9012913,0.9688021000000001,0.074786,-0.15823399999999999,-0.35,-6.2125,-4.2175
432,9013011,0.9720960999999999,0.074542,-0.158966,-0.42,-6.16,-4.27
433,9013109,0.9730721,0.07564,-0.158966,-0.2625,-6.1075,-4.0425
434,9013207,0.972828,0.07344400000000001,-0.158356,-0.175,-6.125,-4.0775
435,9013305,0.97234,0.07039400000000001,-0.159942,-0.1575,-6.1425,-4.13
436,9013402,0.9707541,0.06795401,-0.15982000000000002,-0.0875,-6.545,-4.06
437,9013500,0.966728,0.069052,-0.15762400000000001,-0.175,-6.8075,-4.2175
438,9013598,0.9636780999999999,0.06819800000000001,-0.160308,-0.28,-6.58,-4.2525
439,9013696,0.9656300999999999,0.068564,-0.158112,-0.3675,-6.2475,-4.2175
440,9013794,0.965996,0.06941801,-0.160308,-0.3675,-6.1775,-4.34
441,9013892,0.968924,0.07015,-0.158844,-0.4375,-5.985,-4.3225
442,9013990,0.9679481,0.07198,-0.157502,-0.4375,-6.0375,-4.095
443,9014088,0.9706319999999999,0.071858,-0.156404,-0.3675,-6.09,-3.92
444,9014185,0.973316,0.071248,-0.156892,-0.455,-5.775,-3.8675
445,9014283,0.9753901,0.06941801,-0.158722,-0.42,-5.5475,-3.85
446,9014381,0.9775860000000001,0.06954,-0.156038,-0.35,-5.53,-3.885
447,9014479,0.982466,0.069174,-0.15799000000000002,-0.28,-5.4775,-3.8675
448,9014577,0.9821,0.06832001,-0.15738,-0.315,-5.565,-3.8675
449,9014675,0.9791719999999999,0.067344,-0.15738,-0.2625,-5.67,-3.99
450,9014773,0.9772200999999999,0.06771001,-0.15921,-0.315,-5.8275,-3.955
451,9014871,0.975024,0.0671,-0.160186,-0.385,-5.9675,-4.0075
452,9014968,0.969534,0.06746601,-0.160552,-0.35,-6.1425,-4.1125
453,9015066,0.9673379999999999,0.070882,-0.16104000000000002,-0.315,-6.02,-3.99
454,9015164,0.9696561,0.07246799999999999,-0.163846,-0.2275,-5.7575,-3.99
455,9015262,0.9741700000000001,0.070516,-0.162382,0.0,-5.81,-4.025
456,9015360,0.976366,0.069174,-0.158722,0.035,-6.09,-4.025
457,9015458,0.9720960999999999,0.064416,-0.158966,0.2275,-6.5625,-4.025
458,9015556,0.9699,0.06039,-0.158722,0.0525,-6.545,-4.305
459,9015654,0.968924,0.060146000000000005,-0.158112,-0.1575,-6.37,-4.235
460,9015752,0.9716081,0.06124401,-0.15762400000000001,-0.49,-6.3,-4.27
461,9015850,0.97234,0.062098,-0.159698,-0.7525,-5.9675,-4.235
462,9015947,0.9739261,0.065026,-0.16043,-0.98,-6.02,-4.27
463,9016045,0.9738041,0.064538,-0.161406,-1.1375,-6.055,-4.2525
464,9016143,0.975024,0.064782,-0.162382,-1.155,-6.09,-4.2
465,9016241,0.9752681000000001,0.066978,-0.161772,-0.98,-6.02,-4.13
466,9016339,0.9766101,0.06649,-0.162748,-1.015,-6.0025,-4.1125
467,9016437,0.9752681000000001,0.06466001,-0.162992,-1.085,-6.125,-4.1475
468,9016535,0.9757561,0.064172,-0.162626,-1.0675,-6.16,-4.165
469,9016633,0.9774639999999999,0.062952,-0.163358,-1.1025,-6.3175,-4.2
470,9016730,0.9761219999999999,0.06270801,-0.160796,-1.155,-6.4925,-4.3225
471,9016828,0.9745360000000001,0.063196,-0.16348,-1.19,-6.475,-4.48
472,9016926,0.9706319999999999,0.065026,-0.16128399999999998,-1.085,-6.5625,-4.41
473,9017024,0.969046,0.065026,-0.163236,-0.98,-6.37,-4.34
474,9017122,0.9674601,0.06344,-0.165432,-0.945,-6.2125,-4.34
475,9017220,0.9680700000000001,0.061488,-0.167872,-1.085,-6.0375,-4.305
476,9017318,0.9699,0.059536,-0.168604,-1.33,-5.95,-4.48
477,9017416,0.97234,0.056852,-0.16530999999999998,-1.435,-6.09,-4.69
478,9017513,0.971242,0.05587601,-0.166408,-1.645,-6.1075,-4.83
479,9017611,0.9691681000000001,0.057218,-0.163968,-1.715,-6.09,-4.795
480,9017709,0.9674601,0.057828,-0.16128399999999998,-1.82,-6.2125,-4.6375
481,9017807,0.965752,0.05636401,-0.161406,-1.9075,-6.16,-4.445
482,9017905,0.965996,0.05843801,-0.162626,-2.2225,-6.0375,-4.235
483,9018003,0.968558,0.058682000000000005,-0.163358,-2.45,-5.9325,-4.2525
484,9018101,0.972706,0.058072000000000006,-0.161406,-2.5025,-5.81,-4.27
485,9018199,0.975634,0.05819401,-0.160918,-2.485,-5.7925,-4.2
486,9018296,0.975512,0.058072000000000006,-0.163358,-2.59,-5.6875,-4.1475
487,9018394,0.9741700000000001,0.05929201,-0.163236,-2.5025,-5.7925,-4.13
488,9018492,0.971242,0.058803999999999995,-0.162626,-2.4325,-5.88,-4.1125
489,9018590,0.9714860000000001,0.058803999999999995,-0.163602,-2.5375,-5.8275,-4.13
490,9018688,0.9696561,0.061366,-0.163358,-2.555,-5.8275,-4.025
491,9018786,0.9700219999999999,0.060146000000000005,-0.164212,-2.4675,-5.8625,-4.095
492,9018884,0.9720960999999999,0.058926,-0.162992,-2.45,-5.8275,-4.1475
493,9018982,0.9730721,0.059048,-0.163602,-2.4325,-5.74,-4.2525
494,9019080,0.975024,0.05941401,-0.163236,-2.4675,-5.6175,-4.2875
495,9019177,0.9734381,0.05941401,-0.16287000000000001,-2.415,-5.74,-4.375
496,9019275,0.9724620999999999,0.063074,-0.16165,-2.415,-5.81,-4.41
497,9019373,0.969412,0.061975999999999996,-0.16165,-2.415,-5.74,-4.3575
498,9019471,0.9675819999999999,0.062341999999999995,-0.161162,-2.38,-5.6875,-4.3575
499,9019569,0.9655081,0.05917000000000001,-0.16104000000000002,-2.31,-5.5125,-4.3925
500,9019667,0.9683141,0.058682000000000005,-0.162504,-2.2225,-5.3025,-4.48
501,9019765,0.9714860000000001,0.060024,-0.16226,-2.2225,-5.1625,-4.655
502,9019863,0.9724620999999999,0.058682000000000005,-0.160308,-2.2225,-5.11,-4.6375
503,9019961,0.972828,0.05941401,-0.160796,-2.2575,-5.005,-4.6375
504,9020058,0.9729501,0.060634,-0.161894,-2.2925,-5.04,-4.725
505,9020156,0.9729501,0.062098,-0.163846,-2.1525,-5.25,-4.55
506,9020254,0.9714860000000001,0.060634,-0.164456,-2.1875,-5.2325,-4.4975
507,9020352,0.971242,0.060267999999999995,-0.16409,-2.205,-5.32,-4.55
508,9020450,0.9705101,0.061732,-0.16165,-1.96,-5.4075,-4.62
509,9020548,0.9707541,0.06270801,-0.162382,-1.855,-5.075,-4.7075
510,9020646,0.9720960999999999,0.061488,-0.16201600000000002,-1.8375,-4.97,-4.7775
511,9020744,0.974292,0.062098,-0.160796,-1.7675,-4.9525,-4.8825
512,9020842,0.9739261,0.061854,-0.16043,-1.68,-5.0925,-4.9175
513,9020939,0.9740479999999999,0.059902,-0.161406,-1.61,-5.215,-4.83
514,9021037,0.9744141,0.05941401,-0.162138,-1.68,-5.2325,-4.69
515,9021135,0.9736819999999999,0.059902,-0.161406,-1.505,-5.2675,-4.5325
516,9021233,0.97234,0.06075601,-0.160918,-1.4175,-5.355,-4.48
517,9021331,0.9716081,0.059658,-0.160186,-1.435,-5.3725,-4.55
518,9021429,0.9705101,0.062464,-0.159942,-1.4175,-5.285,-4.48
519,9021527,0.972218,0.06124401,-0.159942,-1.3825,-5.1275,-4.725
520,9021625,0.974292,0.061366,-0.15945399999999998,-1.3825,-4.8125,-4.8825
521,9021723,0.9757561,0.060146000000000005,-0.16165,-1.3825,-4.8825,-4.83
522,9021820,0.9734381,0.062464,-0.160186,-1.295,-5.215,-4.9175
523,9021918,0.972828,0.064416,-0.160552,-1.3825,-5.25,-4.795
524,9022016,0.9739261,0.065026,-0.16104000000000002,-1.4,-5.18,-4.7425
525,9022114,0.9734381,0.06588,-0.158844,-1.3475,-5.3025,-4.7775
526,9022212,0.9762440999999998,0.06356201,-0.15945399999999998,-1.4175,-5.1975,-5.0225
527,9022310,0.9796600000000001,0.062464,-0.161528,-1.4175,-5.04,-5.1625
528,9022408,0.9823440999999999,0.061975999999999996,-0.158722,-1.505,-5.075,-5.1975
529,9022506,0.978318,0.059902,-0.158966,-1.505,-5.2325,-5.1975
530,9022604,0.972828,0.062464,-0.158722,-1.5225,-5.565,-5.0925
531,9022701,0.9683141,0.063196,-0.159942,-1.47,-5.53,-5.04
532,9022799,0.96624,0.06466001,-0.15823399999999999,-1.4,-5.4075,-4.97
533,9022897,0.96624,0.06880801,-0.1586,-1.155,-5.285,-4.8475
534,9022995,0.97173,0.067222,-0.158478,-1.015,-4.97,-4.83
535,9023093,0.973316,0.066124,-0.158844,-1.0325,-5.04,-4.935
536,9023191,0.97234,0.062341999999999995,-0.15555,-0.875,-5.1975,-5.005
537,9023289,0.9702661,0.061732,-0.15506199999999998,-0.875,-5.285,-4.9525
538,9023387,0.969534,0.061610000000000005,-0.156892,-0.9975,-5.2325,-4.9175
539,9023485,0.968558,0.061732,-0.155428,-1.0675,-5.18,-4.795
540,9023582,0.9696561,0.063196,-0.15579400000000002,-1.05,-5.005,-4.7075
541,9023680,0.9700219999999999,0.060877999999999995,-0.155428,-1.085,-4.9175,-4.76
542,9023778,0.9729501,0.062098,-0.154696,-1.085,-4.69,-4.8475
543,9023876,0.9741700000000001,0.062220000000000004,-0.155184,-1.225,-4.55,-4.795
544,9023974,0.974658,0.061366,-0.15494000000000002,-1.4,-4.585,-4.8475
545,9024072,0.9753901,0.061,-0.155184,-1.505,-4.6375,-4.8475
546,9024170,0.9752681000000001,0.062952,-0.153232,-1.5925,-4.585,-4.7775
547,9024268,0.9761219999999999,0.06283,-0.15494000000000002,-1.575,-4.4625,-4.7425
548,9024366,0.9749021000000001,0.06466001,-0.154574,-1.5225,-4.5325,-4.655
549,9024463,0.9730721,0.06405001,-0.15506199999999998,-1.5925,-4.48,-4.6725
550,9024561,0.9716081,0.06527000000000001,-0.155672,-1.54,-4.305,-4.795
551,9024659,0.9699,0.063074,-0.154574,-1.575,-4.27,-4.865
552,9024757,0.9713639999999999,0.063196,-0.15506199999999998,-1.645,-4.3225,-4.795
553,9024855,0.973316,0.064172,-0.153476,-1.5925,-4.375,-4.865
554,9024953,0.9753901,0.062952,-0.155428,-1.505,-4.41,-4.8825
555,9025051,0.975878,0.06356201,-0.154574,-1.435,-4.48,-4.725
556,9025149,0.973316,0.06344,-0.153598,-1.33,-4.69,-4.62
557,9025247,0.9730721,0.06405001,-0.15396400000000002,-1.26,-4.655,-4.5325
558,9025344,0.9740479999999999,0.064172,-0.153598,-1.3825,-4.445,-4.7075
559,9025442,0.9762440999999998,0.062098,-0.15274400000000002,-1.47,-4.515,-4.795
560,9025540,0.976,0.060877999999999995,-0.15311,-1.575,-4.69,-4.9875
561,9025638,0.9767321,0.060634,-0.152134,-1.47,-4.7775,-4.935
562,9025736,0.9761219999999999,0.060877999999999995,-0.151524,-1.5225,-4.76,-4.8825
563,9025834,0.9774639999999999,0.060024,-0.151402,-1.61,-4.865,-4.935
564,9025932,0.9757561,0.05941401,-0.149572,-1.645,-4.97,-4.865
565,9026030,0.9749021000000001,0.060146000000000005,-0.148352,-1.7675,-4.9875,-4.8825
566,9026127,0.975024,0.063196,-0.149084,-1.8375,-5.005,-5.005
567,9026225,0.9757561,0.063928,-0.148474,-1.8725,-5.005,-5.075
568,9026323,0.9762440999999998,0.064538,-0.148474,-1.9425,-4.935,-5.1625
569,9026421,0.977342,0.064538,-0.14688800000000002,-2.0475,-4.935,-5.0225
570,9026519,0.977342,0.064172,-0.14713199999999999,-2.0475,-5.0225,-5.0225
571,9026617,0.9757561,0.06466001,-0.148596,-1.8375,-5.0575,-4.935
572,9026715,0.9749021000000001,0.064294,-0.148596,-1.855,-4.9875,-4.865
573,9026813,0.975878,0.06283,-0.14786400000000002,-1.855,-4.8825,-4.83
574,9026910,0.9766101,0.063196,-0.147376,-1.785,-4.8825,-4.8825
575,9027008,0.978196,0.063074,-0.149816,-1.715,-4.7775,-5.0225
576,9027106,0.978928,0.063074,-0.15067,-1.6275,-4.865,-5.0225
577,9027204,0.9761219999999999,0.064782,-0.15128,-1.505,-4.9875,-5.04
578,9027302,0.9744141,0.065026,-0.15128,-1.4525,-5.04,-4.9175
579,9027400,0.9729501,0.067222,-0.151402,-1.365,-5.005,-4.8475
580,9027498,0.9697780999999999,0.06588,-0.150426,-1.365,-4.83,-4.8825
581,9027595,0.9713639999999999,0.066124,-0.149816,-1.26,-4.8475,-4.97
582,9027693,0.969412,0.06527000000000001,-0.150792,-1.19,-4.7775,-5.005
583,9027791,0.972706,0.06588,-0.15018199999999998,-1.2075,-4.795,-4.8825
584,9027889,0.9725841000000001,0.06380599999999999,-0.15006,-1.2425,-4.83,-4.97
585,9027987,0.971974,0.06124401,-0.149572,-1.33,-5.04,-4.9
586,9028085,0.97234,0.062341999999999995,-0.146644,-1.365,-5.075,-4.935
587,9028182,0.9745360000000001,0.062952,-0.147376,-1.365,-4.935,-4.8825
588,9028280,0.975512,0.06600201,-0.14786400000000002,-1.47,-4.865,-4.83
589,9028378,0.9764879999999999,0.067832,-0.146034,-1.4175,-4.7775,-4.8125
590,9028476,0.981002,0.067222,-0.1464,-1.54,-4.795,-4.9
591,9028574,0.98088,0.065026,-0.14786400000000002,-1.5925,-4.865,-4.9875
592,9028672,0.9799041,0.06344,-0.14566800000000002,-1.435,-4.935,-5.075
593,9028770,0.979294,0.062341999999999995,-0.146644,-1.435,-5.11,-5.075
594,9028868,0.9768540000000001,0.065148,-0.14871800000000002,-1.4,-5.25,-5.005
595,9028965,0.97478,0.06636801,-0.15006,-1.365,-5.2325,-4.935
596,9029063,0.972706,0.06941801,-0.148108,-1.33,-5.25,-4.9
597,9029161,0.9741700000000001,0.06795401,-0.148108,-1.2775,-5.32,-4.8825
598,9029259,0.9720960999999999,0.067222,-0.149206,-1.2425,-5.32,-4.935
599,9029357,0.9729501,0.064294,-0.149694,-1.155,-5.425,-4.9175
600,9029455,0.975634,0.063318,-0.151036,-1.225,-5.355,-4.9875
601,9029553,0.973316,0.06405001,-0.147376,-1.3825,-5.46,-5.005
602,9029651,0.9730721,0.06588,-0.147254,-1.4525,-5.5825,-4.8475
603,9029748,0.9734381,0.06649,-0.145546,-1.5225,-5.5825,-4.8475
604,9029846,0.975878,0.064538,-0.145424,-1.6625,-5.425,-4.8825
605,9029944,0.975634,0.062341999999999995,-0.143228,-1.68,-5.3725,-4.8825
606,9030042,0.9757561,0.062586,-0.141276,-1.75,-5.3725,-4.865
607,9030140,0.9764879999999999,0.06112201,-0.143228,-1.7675,-5.215,-4.8475
608,9030238,0.9767321,0.061488,-0.14310599999999998,-1.925,-5.2325,-4.865
609,9030336,0.97783,0.064172,-0.142496,-2.065,-5.1975,-4.8825
610,9030434,0.9745360000000001,0.06819800000000001,-0.14396,-2.135,-5.3375,-4.8125
611,9030531,0.9718521000000001,0.07027201,-0.14310599999999998,-2.0475,-5.39,-4.76
612,9030629,0.97478,0.07332201,-0.14579,-1.9775,-5.3725,-4.7075
613,9030727,0.9775860000000001,0.07198,-0.145058,-1.8025,-5.3725,-4.7075
614,9030825,0.9769760000000001,0.06929600000000001,-0.14469200000000002,-1.61,-5.495,-4.795
615,9030923,0.9757561,0.06661201,-0.142496,-1.47,-5.5125,-4.9
616,9031021,0.9764879999999999,0.06344,-0.13944600000000001,-1.4875,-5.6525,-4.9175
617,9031119,0.9777081,0.06270801,-0.140178,-1.54,-5.4425,-5.005
618,9031216,0.9770981,0.063928,-0.142496,-1.7675,-5.2325,-5.1625
619,9031314,0.9775860000000001,0.06466001,-0.144326,-1.7325,-5.1625,-5.0925
620,9031412,0.9761219999999999,0.06466001,-0.144814,-1.61,-5.285,-5.0925
621,9031510,0.975512,0.06563601,-0.145546,-1.5575,-5.355,-5.0225
622,9031608,0.9769760000000001,0.064782,-0.145546,-1.6275,-5.3025,-4.9175
623,9031706,0.975512,0.06527000000000001,-0.143228,-1.575,-5.4425,-4.8125
624,9031804,0.9764879999999999,0.065514,-0.142374,-1.6275,-5.6175,-4.7425
625,9031902,0.9785620999999999,0.06466001,-0.142496,-1.82,-5.635,-4.7075
626,9031999,0.9803921,0.065026,-0.142374,-2.1,-5.6,-4.9175
627,9032097,0.982466,0.064416,-0.140666,-2.1,-5.74,-5.04
628,9032195,0.9790501,0.06600201,-0.142008,-1.855,-5.88,-5.005
629,9032293,0.9766101,0.06795401,-0.144326,-1.855,-5.74,-4.97
630,9032391,0.9751460999999999,0.069662,-0.146034,-1.855,-5.7225,-4.9875
631,9032489,0.97234,0.07015,-0.146522,-1.8725,-5.6875,-4.865
632,9032587,0.9739261,0.07002799999999999,-0.146766,-1.855,-5.565,-4.83
633,9032684,0.9761219999999999,0.071004,-0.14688800000000002,-1.8375,-5.425,-4.8475
634,9032782,0.9774639999999999,0.070516,-0.14945,-1.715,-5.39,-5.04
635,9032880,0.976366,0.06832001,-0.14762,-1.505,-5.7225,-5.2325
636,9032978,0.975024,0.069174,-0.146278,-1.1725,-5.95,-5.215
637,9033076,0.9729501,0.069052,-0.147376,-1.2075,-5.9675,-5.075
638,9033174,0.9725841000000001,0.0671,-0.14786400000000002,-1.1725,-5.985,-4.9175
639,9033272,0.9740479999999999,0.0671,-0.14786400000000002,-1.26,-6.0725,-4.9525
640,9033370,0.9740479999999999,0.06600201,-0.14871800000000002,-1.365,-5.9325,-5.005
641,9033468,0.972706,0.066124,-0.1464,-1.26,-5.81,-5.005
642,9033565,0.9711200999999999,0.06600201,-0.14713199999999999,-1.2775,-5.7575,-4.97
643,9033663,0.9730721,0.06575800000000001,-0.148596,-1.3825,-5.6175,-4.9875
644,9033761,0.972706,0.065026,-0.149084,-1.2775,-5.775,-5.1275
645,9033859,0.973194,0.066124,-0.150304,-1.3125,-5.845,-5.0575
646,9033957,0.9751460999999999,0.066246,-0.15006,-1.3475,-6.0025,-5.0225
647,9034055,0.9736819999999999,0.066734,-0.147498,-1.33,-6.125,-4.935
648,9034153,0.9738041,0.066856,-0.1464,-1.3825,-6.16,-4.69
649,9034251,0.9752681000000001,0.06649,-0.146034,-1.435,-5.8625,-4.6375
650,9034348,0.9785620999999999,0.06539201,-0.14469200000000002,-1.4,-5.7575,-4.585
651,9034446,0.978318,0.066856,-0.144814,-1.505,-5.775,-4.6725
652,9034544,0.9779521000000001,0.06600201,-0.14347200000000002,-1.4875,-6.0375,-4.7075
653,9034642,0.9769760000000001,0.06490399999999999,-0.14335,-1.5925,-6.125,-4.725
654,9034740,0.9770981,0.065514,-0.142984,-1.645,-6.055,-4.8825
655,9034838,0.978318,0.06636801,-0.145424,-1.6625,-6.0375,-4.935
656,9034936,0.978074,0.06636801,-0.145424,-1.6275,-6.0725,-4.935
657,9035033,0.9768540000000001,0.068686,-0.146644,-1.5925,-6.055,-4.865
658,9035131,0.975878,0.070516,-0.146644,-1.645,-5.9325,-4.83
659,9035229,0.976366,0.072102,-0.146644,-1.645,-5.8975,-4.69
660,9035327,0.975024,0.069906,-0.14688800000000002,-1.575,-6.1775,-4.8475
661,9035425,0.9739261,0.069174,-0.14688800000000002,-1.435,-6.3,-4.9175
662,9035523,0.9745360000000001,0.066978,-0.14762,-1.3475,-6.405,-4.9175
663,9035621,0.97478,0.066734,-0.14786400000000002,-1.295,-6.5275,-4.865
664,9035718,0.9753901,0.06636801,-0.146644,-1.3475,-6.58,-4.8475
665,9035816,0.9749021000000001,0.067222,-0.14713199999999999,-1.435,-6.4575,-4.7775
666,9035914,0.9738041,0.06929600000000001,-0.146644,-1.4,-6.3525,-4.7775
667,9036012,0.9744141,0.07015,-0.147498,-1.4525,-6.2475,-4.8125
668,9036110,0.9745360000000001,0.068686,-0.146156,-1.2775,-6.195,-4.8825
669,9036208,0.9734381,0.068564,-0.146522,-1.1725,-6.0025,-4.9525
670,9036306,0.9752681000000001,0.06771001,-0.14493599999999998,-1.1375,-6.0375,-4.97
671,9036403,0.974292,0.067832,-0.146522,-1.155,-6.1075,-4.97
672,9036501,0.976,0.06832001,-0.14701,-1.295,-6.09,-5.04
673,9036599,0.9761219999999999,0.06746601,-0.144814,-1.3475,-6.16,-4.9875
674,9036697,0.9745360000000001,0.06771001,-0.145302,-1.3475,-6.3175,-4.9
675,9036795,0.9713639999999999,0.069174,-0.14383800000000002,-1.19,-6.3525,-4.8475
676,9036893,0.973316,0.06832001,-0.14518,-1.1725,-6.1075,-4.8125
677,9036991,0.9744141,0.067588,-0.147254,-1.225,-5.7575,-4.83
678,9037089,0.9752681000000001,0.0671,-0.14762,-1.2075,-5.88,-4.8825
679,9037186,0.9740479999999999,0.06832001,-0.145424,-1.225,-6.055,-4.9875
680,9037284,0.9753901,0.068076,-0.14798599999999998,-1.2075,-5.95,-5.0575
681,9037382,0.9741700000000001,0.07027201,-0.147742,-1.1725,-6.0025,-5.04
682,9037480,0.9738041,0.07173600000000001,-0.14896199999999998,-1.1375,-5.915,-4.8125
683,9037578,0.9739261,0.07283401,-0.14871800000000002,-1.0325,-5.7925,-4.7775
684,9037676,0.9741700000000001,0.07222401,-0.14798599999999998,-0.98,-5.8275,-4.83
685,9037774,0.9749021000000001,0.07002799999999999,-0.148352,-0.945,-6.02,-4.935
686,9037872,0.9775860000000001,0.067588,-0.149206,-0.8575,-6.055,-4.9875
687,9037969,0.9768540000000001,0.06819800000000001,-0.14798599999999998,-0.6475,-6.125,-5.04
688,9038067,0.9752681000000001,0.067222,-0.147742,-0.77,-6.1775,-4.9175
689,9038165,0.9711200999999999,0.06649,-0.14798599999999998,-0.8225,-6.2475,-4.865
690,9038263,0.972218,0.069784,-0.15018199999999998,-0.945,-6.16,-4.9
691,9038361,0.972218,0.071248,-0.150426,-0.91,-6.125,-4.7075
692,9038459,0.9767321,0.071858,-0.148108,-0.7875,-6.0025,-4.7075
693,9038557,0.978196,0.070882,-0.14896199999999998,-0.665,-6.16,-4.7075
694,9038655,0.9757561,0.06954,-0.145546,-0.5425,-6.335,-4.9
695,9038753,0.9767321,0.06746601,-0.144204,-0.7,-6.1775,-4.9875
696,9038851,0.97356,0.06490399999999999,-0.145912,-0.8575,-6.265,-4.935
697,9038948,0.9738041,0.06527000000000001,-0.146156,-0.9975,-6.1075,-4.8825
698,9039046,0.97234,0.06771001,-0.146522,-0.9975,-6.0025,-4.8125
699,9039144,0.9705101,0.06746601,-0.147254,-0.8225,-6.0375,-4.69
700,9039242,0.9696561,0.06941801,-0.14798599999999998,-0.805,-5.8975,-4.655
701,9039340,0.9725841000000001,0.070516,-0.151158,-0.7,-5.6525,-4.7075
702,9039438,0.9741700000000001,0.071858,-0.15006,-0.595,-5.635,-4.69
703,9039536,0.975878,0.070638,-0.15067,-0.5075,-5.7925,-4.6375
704,9039634,0.975634,0.069784,-0.14896199999999998,-0.35,-5.8975,-4.7425
705,9039732,0.9785620999999999,0.069174,-0.149694,-0.3325,-5.8275,-4.62
706,9039830,0.9796600000000001,0.069662,-0.150304,-0.1575,-5.81,-4.6375
707,9039928,0.979294,0.07112601,-0.15067,-0.105,-6.0025,-4.445
708,9040025,0.978318,0.071492,-0.151158,-0.175,-6.125,-4.6375
709,9040123,0.978806,0.071248,-0.1525,-0.14,-6.265,-4.655
710,9040221,0.9774639999999999,0.071614,-0.15433,-0.035,-6.5275,-4.7075
711,9040319,0.9751460999999999,0.06771001,-0.155428,0.0525,-6.6675,-4.76
712,9040417,0.974658,0.067832,-0.156282,0.1225,-6.685,-4.7425
713,9040515,0.976,0.066734,-0.15579400000000002,0.0175,-6.965,-4.6725
714,9040613,0.9796600000000001,0.067222,-0.158478,-0.175,-7.0875,-4.7075
715,9040711,0.9806360000000001,0.07356601,-0.159332,-0.1575,-7.6125,-4.9
716,9040809,0.9797819999999999,0.07564,-0.15091400000000002,0.0175,-8.3475,-5.0225
717,9040907,0.9673379999999999,0.079056,-0.146034,-0.175,-9.485,-5.39
718,9041005,0.9539181000000001,0.08845001,-0.15506199999999998,-0.6125,-10.29,-5.81
719,9041103,0.9567241,0.114802,-0.166774,-0.8925,-10.08,-6.0375
720,9041201,0.97478,0.127978,-0.166164,-1.1725,-9.9575,-6.5975
721,9041298,0.9797819999999999,0.11712,-0.160674,-1.295,-11.3225,-7.595
722,9041396,0.9673379999999999,0.109556,-0.174704,-0.98,-13.1075,-8.4875
723,9041494,0.9581881,0.11943800000000002,-0.19580999999999998,-0.2275,-13.3875,-8.3825
724,9041592,0.9474520000000001,0.138714,-0.20178800000000002,-0.14,-13.4225,-6.8775
725,9041690,0.936594,0.120902,-0.18043800000000002,-0.735,-15.54,-4.76
726,9041788,0.9267120000000001,0.082106,-0.17360599999999998,-0.6475,-18.095,-2.9575
727,9041886,0.918538,0.038796,-0.153842,0.7175,-19.8275,-0.63
728,9041984,0.904508,0.018422,-0.113094,2.485,-20.7025,3.0975
729,9042082,0.9023121,0.001464,-0.076738,3.325,-19.1975,7.4375
730,9042180,0.9204901,0.010248,-0.066124,1.505,-15.33,10.71
731,9042278,0.9511120000000001,0.036356,-0.066124,-1.085,-11.5675,12.2675
732,9042376,0.985516,0.067344,-0.07246799999999999,-1.2075,-9.8525,12.2325
733,9042474,1.0077200000000002,0.11504600000000001,-0.08174001,0.91,-11.1475,11.13
734,9042571,1.0248,0.152622,-0.09516001,2.905,-11.97,9.2575
735,9042669,1.006378,0.17019,-0.118584,5.075,-11.5325,6.3875
736,9042767,0.960384,0.17995,-0.15921,7.4375,-11.1125,2.7475
737,9042865,0.9450120000000001,0.174948,-0.193126,9.1,-9.45,-1.925
738,9042963,0.9284200999999999,0.167628,-0.218746,10.185,-8.995,-7.8575
739,9043061,0.8701040000000001,0.155184,-0.21301199999999998,10.7275,-14.0,-15.19
740,9043159,0.7816541,0.132248,-0.183122,9.9575,-21.875,-24.1675
741,9043257,0.711382,0.097478,-0.19983599999999999,8.155,-27.1775,-34.1425
742,9043355,0.677832,0.039406000000000004,-0.22448,5.845,-29.155,-43.75
743,9043453,0.731268,0.000366,-0.21594000000000002,4.2175,-25.6725,-50.995
744,9043551,0.862296,0.008296000999999999,-0.201666,1.785,-15.0675,-52.85
745,9043649,0.97783,0.011956,-0.169702,-0.665,-4.7425,-50.015
746,9043747,1.0717700000000001,0.076616,-0.090158,-2.5025,-4.305,-42.455
747,9043845,1.084946,0.10553,-0.009028000999999999,-3.1325,-8.1025,-36.1725
748,9043942,0.9990581000000001,0.094672,0.063074,-4.095,-10.22,-32.4975
749,9044040,0.9800261,0.063196,0.045506,-7.14,-0.5775,-32.0775
750,9044138,1.016382,0.100406,-0.042944,-8.645,10.8325,-27.7725
751,9044236,1.0371219999999999,0.135664,0.000244,-6.86,5.88,-21.6825
752,9044334,1.072136,0.142252,0.044407999999999996,-6.195,4.13,-16.8875
753,9044432,1.133746,0.138104,0.036722000000000005,-6.44,10.3075,-13.2825
754,9044530,1.182058,0.10943399999999999,0.016347999999999998,-4.865,13.44,-9.7125
755,9044628,1.2159739999999999,0.07625,0.01464,-3.115,10.8325,-6.02
756,9044726,1.209508,0.069906,0.007808001,-2.1175,5.7225,-1.645
757,9044824,1.17791,0.06527000000000001,0.00427,-2.3275,-0.21,1.015
758,9044922,1.161196,0.046116000000000004,-0.015006,-3.325,-4.445,2.66
759,9045019,1.135332,0.045994,-0.028792,-4.4625,-8.1025,3.7275
760,9045117,1.111664,0.056608000000000006,-0.03782,-5.1275,-11.8475,4.9175
761,9045215,1.086044,0.051362,-0.045506,-5.6175,-15.4525,5.5825
762,9045313,1.045296,0.05770599999999999,-0.057828,-6.055,-18.865,6.3175
763,9045411,1.003816,0.022936,-0.07600599999999999,-6.7725,-21.7175,6.16
764,9045509,0.9928360999999999,0.077714,-0.06600201,-7.315,-23.975,5.495
765,9045607,0.9699,0.052948,-0.07332201,-8.505,-24.7975,4.9175
766,9045705,0.9595300999999999,0.07881200000000001,-0.06563601,-9.24,-26.1275,3.78
767,9045803,0.9528200000000001,0.06356201,-0.057462,-10.535,-26.67,3.36
768,9045901,0.952332,0.07259,-0.05160601,-11.095,-25.9875,2.9225
769,9045999,0.952332,0.077836,-0.0427,-10.43,-25.585,2.625
770,9046096,0.9476959999999999,0.101992,-0.037088,-10.395,-26.7925,2.73
771,9046194,0.940254,0.09259801,-0.032695999999999996,-10.675,-27.4575,2.66
772,9046292,0.9322021,0.0976,-0.02501,-10.7625,-27.685,3.185
773,9046390,0.9293961,0.05856,-0.024156,-11.235,-28.7,3.3425
774,9046488,0.9307380999999999,0.08064199,-0.018666,-11.5675,-29.12,3.535
775,9046586,0.9315921,0.077348,-0.013175999999999998,-12.7575,-28.98,3.535
776,9046684,0.9211,0.093696,-0.008784,-13.5625,-29.05,3.3775
777,9046782,0.912926,0.104432,0.002806,-14.105,-29.1025,3.15
778,9046880,0.9142680000000001,0.09613601,-0.005856,-14.7875,-28.665,2.6775
779,9046978,0.933422,0.130296,0.005002,-15.75,-26.4075,1.82
780,9047076,0.9501360999999999,0.12017,0.02196,-16.345,-26.005,-0.07
781,9047174,0.9764879999999999,0.1525,0.030256,-15.8725,-24.6225,-1.4525
782,9047272,1.019188,0.158722,0.028182,-15.5225,-21.2625,-3.3425
783,9047369,1.0438319999999999,0.122366,0.033672,-14.0,-22.54,-5.5825
784,9047467,1.069086,0.095648,0.03904,-12.355,-23.5725,-7.0
785,9047565,1.080554,0.0427,0.034526,-11.6375,-23.7475,-7.805
786,9047663,1.080066,0.015738,0.029768,-11.1825,-25.235,-8.26
787,9047761,1.075186,-0.000488,0.024766,-11.06,-26.6525,-7.98
788,9047859,1.04859,-0.01098,0.02196,-11.2,-27.5975,-6.615
789,9047957,1.005768,-0.022203999999999998,0.0305,-11.9875,-29.82,-4.9525
790,9048055,0.9941780000000001,-0.028304000000000003,0.063928,-14.0175,-29.89,-2.0475
791,9048153,0.966728,-0.028426,0.049044,-18.515,-25.9875,2.52
792,9048251,0.940742,-0.049898000000000005,0.05636401,-24.36,-26.635,7.5775
793,9048349,0.9296399999999999,-0.05795,0.052338,-29.4875,-26.215,12.495
794,9048447,0.939766,-0.043432,0.0366,-33.8975,-22.715,17.36
795,9048544,0.9766101,-0.05368,-0.036966000000000006,-38.395,-19.6875,21.1575
796,9048642,1.04249,-0.05246,-0.12749000000000002,-41.9825,-14.6475,22.925
797,9048740,1.133258,-0.037332,-0.28316199999999997,-42.455,-7.28,22.8375
798,9048838,1.2439120000000001,0.07173600000000001,-0.376736,-36.82,1.9425,22.1725
799,9048936,1.332484,0.209596,-0.335378,-25.8825,8.96,21.805
800,9049034,1.269898,0.379176,-0.23753400000000002,-15.75,5.0925,22.82
801,9049132,1.179008,0.44200600000000007,-0.135908,-5.46,0.35,21.2275
802,9049230,1.1808379999999998,0.37515,-0.10528599999999999,1.96,8.47,17.5875
803,9049328,1.209142,0.279258,-0.115534,4.3225,17.2025,13.7725
804,9049426,1.2817319999999999,0.17812,-0.16530999999999998,4.7075,23.625,10.0275
805,9049524,1.339316,0.10760399999999999,-0.25302800000000003,6.0025,27.5975,5.6175
806,9049622,1.33102,0.077836,-0.311954,8.47,22.33,2.17
807,9049719,1.27185,0.063684,-0.335866,11.305,12.565,-0.735
808,9049817,1.20902,0.061,-0.3599,12.9325,7.4375,-3.7275
809,9049915,1.118862,0.125538,-0.376492,12.25,4.0425,-3.7625
810,9050013,1.03578,0.14090999999999998,-0.36636599999999997,11.095,-4.1475,-1.4875
811,9050111,0.966606,0.132248,-0.390888,9.8175,-6.8775,0.315
812,9050209,0.9500139999999999,0.099552,-0.391254,8.645,-8.5925,0.8225
813,9050307,0.9406200000000001,0.06039,-0.35977800000000004,9.0825,-8.715,1.19
814,9050405,0.9679481,0.032208,-0.350018,10.255,-5.425,0.8925
815,9050503,0.9934460999999999,-0.000976,-0.310002,11.97,-4.2,0.7875
816,9050601,0.995886,-0.032451999999999995,-0.256688,13.23,-7.455,0.385
817,9050699,0.9895421,-0.040016,-0.218502,12.775,-10.8325,-1.015
818,9050797,0.9675819999999999,-0.01525,-0.23009200000000002,10.7275,-12.635,-3.7625
819,9050895,0.9378139999999999,0.02745,-0.270474,9.03,-12.18,-6.4575
820,9050992,0.891576,0.08369201,-0.27584200000000003,7.7525,-13.2125,-7.1225
821,9051090,0.849852,0.10492,-0.26474000000000003,6.1425,-16.765,-6.4925
822,9051188,0.841556,0.14786400000000002,-0.244854,4.0075,-17.6225,-6.0025
823,9051286,0.8230120999999999,0.11529,-0.23472800000000002,0.1575,-17.1325,-6.02
824,9051384,0.798734,0.112972,-0.22935999999999998,-1.2775,-16.5025,-7.07
825,9051482,0.779702,0.100162,-0.226554,-2.7825,-14.4725,-7.9625
826,9051580,0.7622561,0.08466801,-0.222162,-2.5725,-13.2125,-8.9775
827,9051678,0.702354,0.073688,-0.239608,-2.1,-10.9725,-9.7825
828,9051776,0.707234,0.077958,-0.23155599999999998,-1.855,-10.885,-9.73
829,9051874,0.674538,0.08576601,-0.203862,-1.5575,-10.4475,-8.75
830,9051972,0.649894,0.06405001,-0.2013,-2.17,-8.05,-8.225
831,9052069,0.6304960000000001,0.07832401,-0.197762,-2.7825,-6.685,-8.12
832,9052167,0.6161,0.07332201,-0.20642399999999997,-4.025,-7.0175,-8.015
833,9052265,0.5845020000000001,0.08052000000000001,-0.22338200000000002,-4.795,-7.8225,-7.665
834,9052363,0.597434,0.09577000000000001,-0.22326,-4.6025,-8.085,-7.98
835,9052461,0.611342,0.11016600000000001,-0.219112,-3.465,-5.4775,-8.96
836,9052559,0.62464,0.10906800000000001,-0.212402,-1.4175,-4.27,-10.535
837,9052657,0.638426,0.13664,-0.197518,0.105,-4.06,-10.99
838,9052755,0.6408659999999999,0.14945,-0.186538,0.42,-4.165,-11.025
839,9052853,0.6335460999999999,0.129686,-0.182024,-1.715,-3.5525,-10.92
840,9052951,0.665266,0.12334200000000001,-0.167018,-2.1875,-0.315,-11.4625
841,9053049,0.720532,0.17446,-0.142008,-3.71,4.8125,-11.585
842,9053146,0.78873,0.203008,-0.112972,-4.025,9.065,-13.09
843,9053244,0.873764,0.21045,-0.055510000000000004,-3.185,10.045,-14.735
844,9053342,0.9567241,0.216916,-0.01342,-1.5575,10.36,-15.8375
845,9053440,1.008574,0.208498,0.023790000000000002,1.96,7.3325,-15.2075
846,9053538,1.023458,0.199348,0.059536,7.105,1.2425,-13.5275
847,9053636,1.01138,0.208864,0.07856801,12.53,-4.8475,-11.83
848,9053734,1.005768,0.23753400000000002,0.07808001,17.3075,-7.4375,-10.15
849,9053832,1.016138,0.24631799999999998,0.098576,21.2625,-7.3675,-8.4875
850,9053930,1.031144,0.230946,0.137982,23.66,-7.4375,-7.35
851,9054028,1.060668,0.216916,0.167018,24.36,-5.1625,-7.0875
852,9054125,1.109956,0.19483399999999998,0.08869401,24.36,3.395,-7.4375
853,9054223,1.16632,0.145058,0.008052001,25.3225,12.6525,-7.07
854,9054321,1.192672,0.10906800000000001,-0.02928,25.375,12.4775,-4.725
855,9054419,1.170102,0.09540401,0.044896,21.6125,10.0975,-2.1
856,9054517,1.139846,0.09869801,0.243024,14.6475,9.8175,-1.89
857,9054615,1.1636360000000001,0.040382,0.268766,5.8625,15.9075,-4.3225
858,9054713,1.16876,0.000488,0.296216,1.4525,19.25,-8.4875
859,9054811,1.098244,0.12065799999999999,0.28181999999999996,7.07,13.37,-10.045
860,9054908,1.053226,0.20679,0.223504,22.1375,16.415,-7.0
861,9055006,1.14375,0.329278,-0.005246,23.17,37.45,-8.3475
862,9055104,1.21268,0.5214281,-0.5818181,15.925,55.8775,-10.1325
863,9055202,1.440332,0.44078599999999996,-0.8023939999999999,16.4675,59.01,-8.5575
864,9055300,1.8302439999999998,-0.021228,-0.540582,21.91,61.74,-10.4475
865,9055398,1.7610700000000001,-0.44847200000000004,-0.58377,15.8725,48.6675,-19.67
866,9055496,1.21451,-0.436638,-0.638426,10.4125,4.83,-30.555
867,9055594,0.9913719999999999,-0.23009200000000002,-0.61793,9.17,-23.03,-34.86
868,9055691,1.002474,-0.010126000000000001,-0.6293981,14.63,-15.855,-40.075
869,9055789,1.052494,0.16652999999999998,-0.5936520000000001,22.5925,-2.3975,-42.105
870,9055887,1.143872,0.271938,-0.545218,25.375,8.96,-41.685
871,9055985,1.295884,0.33976999999999996,-0.425048,21.735,19.005,-36.9775
872,9056083,1.473272,0.27279200000000003,-0.326106,14.5775,28.525,-29.3125
873,9056181,1.491084,0.16652999999999998,-0.335134,8.4,12.215,-21.0875
874,9056279,1.363472,0.039528,-0.34709,3.0975,-12.4425,-12.74
875,9056377,1.181326,-0.02501,-0.299144,0.4725,-30.03,-6.51
876,9056474,1.0438319999999999,-0.05429,-0.256322,-1.015,-35.8575,-1.995
877,9056572,0.9779521000000001,-0.046726,-0.23729,-2.5375,-32.7425,2.6775
878,9056670,0.9655081,-0.017324000000000003,-0.241438,-6.265,-24.675,6.4925
879,9056768,0.9335440999999999,0.021228,-0.25790799999999997,-9.8525,-19.8975,8.0675
880,9056866,0.9046301,-0.0035380000000000003,-0.24583000000000002,-12.215,-20.8425,6.16
881,9056964,0.834724,-0.04575,-0.238632,-12.39,-20.8425,2.275
882,9057062,0.7766521,-0.09259801,-0.215696,-13.4225,-22.82,-2.975
883,9057160,0.76555,-0.111752,-0.21289,-13.4575,-25.0775,-7.805
884,9057258,0.7017439999999999,-0.061,-0.20837600000000003,-13.16,-25.7775,-9.205
885,9057355,0.655506,-0.006954000000000001,-0.20178800000000002,-14.5775,-25.2875,-10.2375
886,9057453,0.6821020000000001,0.001098,-0.190808,-16.1875,-21.35,-11.1825
887,9057551,0.670512,0.039528,-0.21386599999999997,-16.17,-17.535,-9.8875
888,9057649,0.6646561,0.029524,-0.203252,-17.15,-21.0875,-7.9275
889,9057747,0.6681941,0.059658,-0.189588,-19.74,-23.065,-6.72
890,9057845,0.6919841,0.017324000000000003,-0.162626,-22.19,-21.945,-5.9325
891,9057943,0.6852739999999999,-0.042822000000000006,-0.14396,-21.84,-23.4325,-7.14
892,9058041,0.659532,-0.071614,-0.113094,-20.4575,-27.37,-9.31
893,9058138,0.626714,-0.013175999999999998,-0.08454600000000001,-18.76,-28.1925,-11.97
894,9058236,0.593164,0.022203999999999998,-0.08601,-18.13,-25.76,-13.3175
895,9058334,0.551806,0.014518000000000001,-0.08723001,-15.925,-24.3425,-14.7
896,9058432,0.49263599999999996,0.07344400000000001,-0.07112601,-12.8275,-24.2375,-16.3975
897,9058530,0.45152200000000003,0.06405001,-0.05563200000000001,-11.69,-21.1225,-14.8925
898,9058628,0.46238,0.079422,-0.044896,-12.53,-14.6475,-13.0375
899,9058726,0.5161819999999999,0.09906401,-0.028914,-15.2775,-7.28,-10.5
900,9058824,0.579622,0.100772,0.0,-20.2475,-0.2275,-8.365
901,9058922,0.683566,0.08052000000000001,0.035868000000000004,-27.2825,5.7575,-7.4025
902,9059020,0.813984,0.038308,0.069052,-32.62,10.395,-8.2425
903,9059117,0.9469641,-0.02196,0.070516,-33.075,10.675,-10.8675
904,9059215,1.013454,-0.068564,0.046482,-30.135,4.41,-13.3525
905,9059313,1.013088,-0.07625,0.009394,-25.795,-5.74,-14.455
906,9059411,0.9740479999999999,0.002074,-0.026962,-22.645,-15.785,-14.035
907,9059509,0.96319,0.07722601,-0.031354,-20.685,-21.665,-12.8975
908,9059607,0.9945440000000001,0.079544,0.009028000999999999,-17.15,-19.2325,-13.1775
909,9059705,1.026386,0.180926,0.08466801,-14.42,-8.8725,-13.4575
910,9059803,1.064938,0.357948,0.150792,-13.3525,2.1525,-14.14
911,9059901,1.118496,0.48556000000000005,0.245098,-13.5275,7.42,-12.81
912,9059998,1.2517200000000002,0.392596,0.17433800000000002,-16.975,12.075,-11.8825
913,9060096,1.406782,0.30927,0.030622000000000003,-19.355,25.515,-12.1275
914,9060194,1.454118,0.187148,-0.25681,-15.6975,34.7725,-11.5675
915,9060292,1.500356,0.279136,-0.44286000000000003,-4.41,47.11,-10.92
916,9060390,1.73545,0.6344,-0.45078999999999997,3.78,59.08,-3.36
917,9060488,1.761802,0.7503,-0.49288000000000004,22.89,46.5675,9.1175
918,9060586,1.359202,0.663192,-0.416508,38.3425,20.9825,22.2075
919,9060684,1.018456,0.23582600000000004,-0.380152,39.305,-3.6225,30.135
920,9060782,1.03029,-0.07442,-0.523624,30.73,10.15,28.6825
921,9060880,1.1651,-0.310368,-0.668438,14.1925,37.31,26.1275
922,9060977,1.341146,-0.335378,-0.525332,4.725,64.1375,25.025
923,9061075,1.526464,-0.242292,-0.43346599999999996,0.4375,80.045,24.2025
924,9061173,1.6689599999999998,-0.090646,-0.406138,5.5125,73.3425,24.85
925,9061271,1.7020220000000001,-0.018178,-0.43066000000000004,9.7825,49.875,28.4375
926,9061369,1.563064,0.006222,-0.463844,8.4525,16.66,32.375
927,9061467,1.297958,0.028914,-0.38369000000000003,1.4,-13.02,33.18
928,9061565,1.1293540000000002,0.07856801,-0.3233,-4.5675,-23.7475,30.8
929,9061663,1.056032,0.10004,-0.24339,-7.21,-24.01,25.83
930,9061760,1.041026,0.091988,-0.194468,-8.7325,-22.33,18.585
931,9061858,1.009794,0.089914,-0.206546,-9.065,-18.27,10.675
932,9061956,0.9768540000000001,0.101504,-0.22021,-8.645,-19.7925,3.745
933,9062054,0.9079241,0.108458,-0.18849000000000002,-7.245,-23.5025,-0.5425
934,9062152,0.8164239999999999,0.12041400000000001,-0.167384,-6.8775,-22.5925,-3.045
935,9062250,0.772016,0.13237000000000002,-0.173484,-6.23,-18.6025,-3.885
936,9062348,0.730536,0.13785999999999998,-0.195444,-3.9725,-16.905,-3.2025
937,9062446,0.6794180000000001,0.141154,-0.187148,-0.385,-19.88,-1.47
938,9062544,0.5893821,0.138714,-0.190808,2.1525,-21.385,0.1925
939,9062641,0.546682,0.15982000000000002,-0.18422,3.92,-22.47,1.61
940,9062739,0.5200861,0.1464,-0.193492,5.6175,-22.575,4.095
941,9062837,0.49849209999999994,0.15823399999999999,-0.156648,8.3125,-22.75,5.9675
942,9062935,0.501542,0.17641199999999999,-0.13054000000000002,9.345,-16.3625,7.1225
943,9063033,0.58682,0.2196,-0.104432,10.7275,-10.675,7.98
944,9063131,0.536678,0.16165,-0.08918200000000001,11.9,-8.0675,9.3625
945,9063229,0.55083,0.167628,-0.06563601,11.2525,-7.98,10.3075
946,9063327,0.535702,0.129564,-0.05941401,9.2925,-5.7225,11.3225
947,9063425,0.484096,0.094062,-0.032451999999999995,6.5275,-7.1225,11.3225
948,9063522,0.43371000000000004,0.05929201,-0.017446,3.5525,-7.91,11.235
949,9063620,0.410408,0.043676,0.01098,0.49,-8.505,10.185
950,9063718,0.40992,-0.017934000000000002,0.020984,-3.3425,-6.1425,7.91
951,9063816,0.431026,-0.060512,0.030987999999999998,-5.6875,-2.765,5.4075
952,9063914,0.46116,-0.063928,0.051362,-6.93,0.4725,3.815
953,9064012,0.504714,-0.054046000000000004,0.0549,-7.0525,2.38,2.135
954,9064110,0.5635180000000001,0.001586,0.06527000000000001,-6.0025,3.57,1.5575
955,9064208,0.630618,0.053191999999999996,0.07515201,-3.6225,4.865,2.7125
956,9064306,0.6989380000000001,0.09979600000000001,0.108702,0.7175,5.4425,6.16
957,9064404,0.760792,0.191174,0.10418800000000002,5.355,6.5975,11.83
958,9064501,0.8514379999999999,0.29402,0.010004,7.175,12.1625,18.4275
959,9064599,0.9894200000000001,0.294752,-0.07344400000000001,7.7525,19.53,25.515
960,9064697,1.148752,0.22143000000000002,-0.07893401,9.135,17.0625,33.5475
961,9064795,1.26575,0.076494,-0.013663999999999999,9.905,10.815,40.11
962,9064893,1.46095,-0.019154,0.24192600000000003,9.9225,9.3975,40.46
963,9064991,1.577948,-0.12334200000000001,0.450546,11.27,15.155,30.975
964,9065089,1.52805,-0.170312,0.517768,12.0225,9.8875,12.2675
965,9065187,1.375794,-0.055265999999999996,0.48556000000000005,7.8925,-3.8325,-6.055
966,9065285,1.2456200000000002,0.038551999999999996,0.375638,5.8625,-3.675,-18.76
967,9065382,1.262822,0.104554,0.332328,9.03,10.535,-27.7375
968,9065480,1.18767,0.41907,0.016958,11.375,14.7525,-32.62
969,9065578,1.1483860000000001,0.594018,-0.5696180000000001,9.7825,20.7725,-30.2925
970,9065676,1.577338,0.217892,-0.628178,6.7025,49.5425,-31.08
971,9065774,2.239066,-0.5967021,-0.604144,2.24,101.2725,-52.78
972,9065872,2.2509,-0.6825899999999999,-0.773724,-19.635,96.5825,-71.5225
973,9065970,1.5128,-0.427122,-0.581696,-44.2575,17.1325,-89.775
974,9066068,1.158268,0.026351999999999997,-0.486414,-43.5925,-29.19,-85.48751
975,9066165,1.202798,0.31524800000000003,-0.5738880000000001,-25.2175,-9.94,-78.8375
976,9066263,1.308206,0.55083,-0.6350100000000001,-1.7675,13.755,-69.055
977,9066361,1.3786,0.670268,-0.498126,9.205,22.3825,-53.865
978,9066459,1.40117,0.592554,-0.431758,12.0575,27.44,-39.235
979,9066557,1.535492,0.382226,-0.36844,9.3625,28.14,-30.695
980,9066655,1.60674,0.165798,-0.31146599999999997,7.9625,15.645,-25.725
981,9066753,1.534882,0.027938,-0.21752600000000002,9.24,-11.13,-20.545
982,9066851,1.356274,-0.021838,-0.149694,10.3775,-34.3875,-15.295
983,9066949,1.155584,0.013786000000000001,-0.10504200000000001,8.4175,-48.2825,-11.62
984,9067046,1.011868,0.040260000000000004,-0.10248,5.7925,-49.105,-9.5025
985,9067144,0.919636,0.023424,-0.12456199999999999,4.025,-44.52,-9.6075
986,9067242,0.8521700999999999,0.035136,-0.143594,2.9925,-40.7925,-11.655
987,9067340,0.8448501,0.025863999999999998,-0.170678,2.4325,-36.4525,-13.895
988,9067438,0.8084939999999999,-0.013297999999999999,-0.174216,3.255,-33.5825,-15.4525
989,9067536,0.728218,-0.067588,-0.123708,2.8175,-38.115,-17.6925
990,9067634,0.681858,-0.100162,-0.12053599999999999,0.14,-43.0325,-20.51
991,9067732,0.636962,-0.079056,-0.125782,-1.925,-45.9025,-20.72
992,9067830,0.604388,-0.068564,-0.13115,-4.1825,-49.2275,-18.585
993,9067927,0.549854,-0.063928,-0.08344800000000001,-4.7775,-50.5575,-15.3475
994,9068025,0.509472,-0.073688,-0.042334,-7.07,-45.1325,-13.02
995,9068123,0.499346,-0.099552,-0.060024,-9.415,-31.605,-10.4475
996,9068221,0.49837,-0.089304,-0.09284201,-10.0275,-23.0475,-8.4
997,9068319,0.482998,-0.11529,-0.081862,-10.3075,-20.37,-7.2625
998,9068417,0.46457600000000004,-0.13969,-0.043066,-10.5525,-19.3025,-8.9425
999,9068515,0.465308,-0.08869401,-0.015493999999999999,-10.955,-16.8525,-11.935
1000,9068613,0.47092,-0.060877999999999995,-0.000732,-10.5875,-12.8625,-15.295
1001,9068710,0.482876,-0.044164,-0.01525,-9.1175,-8.995,-19.425
1002,9068808,0.457744,0.045384,-0.041114,-7.5075,-9.7125,-23.0125
1003,9068906,0.47641000000000006,0.069906,-0.055388,-8.47,-10.465,-23.31
1004,9069004,0.490928,0.09052401,-0.06636801,-11.06,-10.6225,-24.6575
1005,9069102,0.5288701,0.102358,-0.06588,-15.2775,-12.005,-25.2175
1006,9069200,0.6021920000000001,0.098942,-0.040748,-20.545,-13.44,-25.165
1007,9069298,0.693692,0.062952,0.003172,-26.67,-15.1725,-25.3575
1008,9069396,0.8365541,0.013541999999999998,0.049044,-32.515,-17.255,-26.635
1009,9069494,0.943426,-0.0305,0.070638,-35.9625,-22.085,-27.7725
1010,9069591,0.9744141,-0.059048,0.037698,-35.63,-33.4425,-28.175
1011,9069689,0.9500139999999999,-0.060146000000000005,0.000122,-31.3775,-48.0375,-27.615
1012,9069787,0.8720559999999999,0.039406000000000004,-0.042334,-25.1125,-59.64,-25.095
1013,9069885,0.8698601,0.164944,0.005856,-17.2725,-62.0025,-22.855
1014,9069983,0.9764879999999999,0.271572,0.105896,-8.0675,-45.5,-21.77
1015,9070081,1.106174,0.381128,0.203008,-1.4175,-8.225,-20.16
1016,9070179,1.175836,0.496174,0.23911999999999997,-0.2275,24.675,-15.365
1017,9070277,1.301252,0.506178,0.259006,1.9075,35.315,-5.0225
1018,9070374,1.496574,0.355508,0.288164,3.1325,31.2375,7.455
1019,9070472,1.633092,0.13602999999999998,0.161894,-2.3275,20.8075,14.6475
1020,9070570,1.648098,-0.03965,0.037698,-8.3475,2.415,16.8175
1021,9070668,1.520974,-0.114802,-0.03416,-16.24,-14.5425,17.8325
1022,9070766,1.3954360000000001,-0.12444000000000001,-0.231434,-21.6825,-15.715,17.7625
1023,9070864,1.404708,0.12529400000000002,-0.48385200000000006,-15.6625,8.6275,19.6875
1024,9070962,1.5999079999999999,0.5577840000000001,-0.5188659999999999,-2.625,36.785,28.63
1025,9071060,1.4970620000000001,0.98759,-0.619516,9.38,54.6875,45.815
1026,9071158,1.2311020000000001,0.737246,-0.690154,25.6725,45.64,57.2425
1027,9071255,1.01931,0.46298999999999996,-0.612318,28.0,30.2225,56.14
1028,9071353,0.9711200999999999,0.227042,-0.6019479999999999,22.4175,34.6675,51.485
1029,9071451,1.123742,0.035746,-0.516304,20.58,67.4275,46.3225
1030,9071549,1.354932,-0.053191999999999996,-0.444324,14.98,96.1625,41.4225
1031,9071647,1.585146,-0.058682000000000005,-0.35441,9.2575,95.725,37.8
1032,9071745,1.787422,-0.080886,-0.327326,8.9425,71.1025,38.22
1033,9071843,1.7692439999999998,-0.133224,-0.33428,16.1875,32.235,39.6025
1034,9071941,1.497184,-0.13151600000000002,-0.346236,18.4625,-6.7725,38.955
1035,9072038,1.2578200000000002,-0.08064199,-0.26169000000000003,12.355,-32.0425,37.8525
1036,9072136,1.1120299999999999,-0.01952,-0.191296,4.7425,-35.875,33.3725
1037,9072234,1.022848,0.007808001,-0.147742,0.14,-29.19,24.6575
1038,9072332,0.9916161,0.039284,-0.17751,-3.4825,-22.015,14.28
1039,9072430,0.9202459999999999,0.08344800000000001,-0.170434,-4.7775,-24.0625,7.8575
1040,9072528,0.8615640999999999,0.116632,-0.149694,-6.0725,-29.1025,4.2525
1041,9072626,0.803126,0.133956,-0.136152,-7.3325,-30.17,2.5725
1042,9072724,0.7792140000000001,0.155184,-0.148474,-7.735,-29.925,1.4175
1043,9072822,0.7299260999999999,0.18043800000000002,-0.14383800000000002,-5.81,-31.5175,1.4
1044,9072919,0.658556,0.17934,-0.151036,-2.3275,-34.1425,1.225
1045,9073017,0.6076819999999999,0.162138,-0.165188,2.59,-35.5075,0.945
1046,9073115,0.523868,0.14213,-0.16043,8.33,-37.5375,1.4
1047,9073213,0.45420600000000005,0.168726,-0.14347200000000002,12.8625,-40.81,2.6425
1048,9073311,0.428464,0.185928,-0.135542,16.8175,-39.725,4.1825
1049,9073409,0.41297,0.204716,-0.09650201,20.1075,-37.0475,5.1275
1050,9073507,0.39174200000000003,0.198006,-0.10516400000000001,22.225,-28.4375,4.76
1051,9073605,0.388204,0.205204,-0.07881200000000001,22.1025,-22.3825,6.0375
1052,9073703,0.40016,0.174948,-0.07076001,20.4225,-19.145,6.16
1053,9073801,0.40687,0.181292,-0.043066,18.0775,-14.14,6.44
1054,9073898,0.41175,0.153842,-0.030744,13.5625,-8.4175,8.8025
1055,9073996,0.417362,0.10004,-0.014762,10.885,-6.3175,10.8325
1056,9074094,0.435906,0.03172,0.009394,7.8575,-7.56,12.8275
1057,9074192,0.44847200000000004,-0.015982,0.030866,6.2125,-8.6975,13.755
1058,9074290,0.4758,-0.05856,0.036478,5.25,-8.7325,13.7725
1059,9074388,0.516304,-0.07234600000000001,0.040016,6.755,-8.3125,13.51
1060,9074486,0.56425,-0.06771001,0.064416,10.43,-7.77,12.6875
1061,9074584,0.632326,-0.05636401,0.101016,15.82,-7.0525,11.4625
1062,9074682,0.705038,-0.023058000000000002,0.152988,23.8175,-5.565,11.62
1063,9074779,0.773602,0.05917000000000001,0.201422,32.3225,-4.13,14.0
1064,9074877,0.8550979999999999,0.174094,0.16811600000000002,34.7725,-0.49,19.285
1065,9074975,0.9282981,0.23692399999999997,0.078446,30.485,8.12,24.8675
1066,9075073,1.071892,0.199104,0.017812,24.2725,12.8275,28.945
1067,9075171,1.2099959999999998,0.08357,-0.02074,18.3575,12.3375,32.025
1068,9075269,1.317844,-0.028304000000000003,0.14945,14.6125,4.1125,32.235
1069,9075367,1.419836,-0.162382,0.438468,12.8625,-2.3275,26.2675
1070,9075465,1.486448,-0.27523200000000003,0.556686,11.025,8.8375,11.8475
1071,9075563,1.471076,-0.154452,0.37551599999999996,4.41,29.4,-4.83
1072,9075660,1.487058,0.0008540001,0.23777800000000002,6.5275,40.565,-16.87
1073,9075758,1.5257319999999999,0.124928,0.020618,11.6025,32.69,-22.295
1074,9075856,1.47376,0.30402399999999996,-0.257176,10.955,18.7075,-23.7825
1075,9075954,1.549034,0.263154,-0.5489999999999999,5.95,28.175,-26.1975
1076,9076052,1.937116,-0.335622,-0.238754,14.42,51.1175,-40.5125
1077,9076150,1.962004,-0.62952,-0.24558600000000003,-1.89,51.6075,-60.7075
1078,9076248,1.473516,-0.21716,-0.41260399999999997,-30.0475,23.625,-73.5525
1079,9076346,1.1425299999999998,-0.00305,-0.39271799999999996,-29.995,0.735,-80.045
1080,9076444,1.088606,0.268522,-0.68015,-19.775,10.5875,-75.6
1081,9076542,1.178886,0.42114399999999996,-0.681614,-5.1975,27.7025,-68.18
1082,9076640,1.3679860000000001,0.372954,-0.553758,6.7725,45.6225,-61.6875
1083,9076738,1.6598099999999998,0.292434,-0.514962,3.85,63.0875,-54.2325
1084,9076835,1.925648,0.198372,-0.5261859999999999,-0.1575,65.50251,-48.825
1085,9076933,1.826584,0.057462,-0.548268,1.7675,23.87,-51.4675
1086,9077031,1.484984,-0.013663999999999999,-0.44542200000000004,3.6575,-36.05,-54.74
1087,9077129,1.295518,-0.030987999999999998,-0.329156,3.605,-61.81,-54.81
1088,9077227,1.2281739999999999,0.028669999999999998,-0.227652,5.04,-64.27750999999999,-49.2625
1089,9077325,1.1350879999999999,0.08369201,-0.18178,3.9725,-57.995,-40.285
1090,9077423,1.0595700000000001,0.110044,-0.168604,4.06,-46.9875,-29.645
1091,9077521,0.995398,0.127002,-0.169214,4.655,-42.875,-19.915
1092,9077619,0.895602,0.103822,-0.162748,5.74,-43.365,-13.16
1093,9077717,0.8605879999999999,0.066978,-0.1891,5.775,-42.49,-9.52
1094,9077815,0.8166680000000001,0.020252000000000003,-0.195932,4.9875,-41.9125,-8.925
1095,9077913,0.7922680000000001,-0.05429,-0.17629,3.9375,-44.1875,-10.5875
1096,9078011,0.7540819999999999,-0.16530999999999998,-0.135786,2.87,-46.3925,-13.125
1097,9078108,0.661972,-0.21862399999999999,-0.11919400000000001,0.0875,-48.72,-15.26
1098,9078206,0.5856,-0.217038,-0.098088,-6.4225,-51.555,-18.0425
1099,9078304,0.638426,-0.193492,-0.149816,-13.7725,-47.285,-20.5275
1100,9078402,0.592188,-0.1525,-0.12980799999999998,-16.835,-46.3225,-17.9025
1101,9078500,0.529358,-0.128344,-0.049654000000000004,-22.75,-51.73,-16.8175
1102,9078598,0.550952,-0.125782,-0.017446,-28.5075,-44.555,-17.01
1103,9078696,0.517402,-0.08003201,-0.014518000000000001,-30.1525,-33.11,-16.8525
1104,9078794,0.496906,-0.06490399999999999,-0.033306,-29.225,-23.0475,-16.5025
1105,9078892,0.45811,-0.019032,-0.035624,-25.5325,-20.2475,-14.7175
1106,9078990,0.42626800000000004,0.010736,-0.007198,-20.7725,-21.9275,-12.915
1107,9079088,0.385886,0.08442401,-0.009882,-17.64,-21.7525,-12.075
1108,9079186,0.371612,0.107726,-0.005368,-14.9625,-20.055,-10.395
1109,9079283,0.37088000000000004,0.119682,0.00122,-12.74,-20.4225,-10.7625
1110,9079381,0.379786,0.13151600000000002,0.005734,-12.215,-21.4375,-11.8475
1111,9079479,0.389058,0.114558,0.0061,-13.8775,-22.2775,-12.845
1112,9079577,0.36722,0.140544,-0.016347999999999998,-16.45,-21.7875,-14.35
1113,9079675,0.4148,0.122732,-0.002318,-21.42,-18.935,-11.4275
1114,9079773,0.48165600000000003,0.066856,-0.000122,-26.53,-13.72,-10.745
1115,9079871,0.59658,-0.03782,0.02135,-30.03,-8.855,-12.4425
1116,9079969,0.758596,-0.11126400000000002,0.031354,-32.2525,-2.52,-16.485
1117,9080067,0.928054,-0.1403,0.015006,-33.5825,0.2975,-22.33
1118,9080165,1.077748,-0.11895,-0.036966000000000006,-31.2725,-4.795,-27.79
1119,9080263,1.157414,-0.027694,-0.074542,-25.865,-16.6425,-30.5025
1120,9080360,1.17913,0.107116,-0.048556,-19.9675,-28.8925,-29.995
1121,9080458,1.24196,0.240706,0.06563601,-16.4325,-34.86,-28.1925
1122,9080556,1.2688,0.399428,0.17055599999999999,-16.45,-29.4525,-25.13
1123,9080654,1.20902,0.568398,0.257054,-16.695,-20.685,-18.1825
1124,9080752,1.18157,0.576084,0.348066,-15.8725,-13.475,-7.1575
1125,9080850,1.291736,0.43944399999999995,0.360632,-19.67,-3.78,4.2175
1126,9080948,1.41764,0.21228000000000002,0.12163399999999999,-20.6325,7.42,12.6525
1127,9081046,1.521096,0.063928,-0.01281,-13.8775,11.8825,19.0925
1128,9081144,1.527806,-0.177266,-0.297558,-9.9225,8.155,23.03
1129,9081242,1.607716,-0.05160601,-0.504836,0.07,21.4025,23.59
1130,9081340,1.877946,0.5119121,-0.5913341,3.885,52.115,28.175
1131,9081438,1.7875439999999998,1.042856,-0.6039,15.4175,63.0525,46.235
1132,9081536,1.327848,0.8071520000000001,-0.6642899999999999,29.4175,50.5575,61.3375
1133,9081633,0.9951540000000001,0.32147,-0.502762,33.32,22.5925,59.64
1134,9081731,0.9073141,0.11614400000000001,-0.5248441,19.985,21.4025,50.96
1135,9081829,0.977342,-0.149694,-0.533262,13.9475,51.73,41.965
1136,9081927,1.21939,-0.1891,-0.459696,3.955,84.385,31.15
1137,9082025,1.463268,-0.142496,-0.35099400000000003,1.505,97.3,21.3325
1138,9082123,1.729716,-0.036112,-0.282308,2.9575,89.88,15.89
1139,9082221,1.907836,0.080764,-0.339648,9.8875,63.9275,18.2875
1140,9082319,1.6705459999999999,0.08906,-0.421266,17.5175,15.435,23.905
1141,9082417,1.336266,0.10614000000000001,-0.332328,18.8125,-27.72,29.0675
1142,9082515,1.12789,0.11846199999999998,-0.253272,12.3025,-38.5875,31.57
1143,9082613,1.062498,0.102846,-0.208864,8.1725,-30.17,30.7475
1144,9082710,1.022116,0.05063,-0.181658,5.39,-19.53,24.2025
1145,9082808,0.97356,0.000244,-0.200324,2.1175,-13.65,14.5775
1146,9082906,0.9385460999999999,0.005368,-0.183366,-0.875,-16.45,6.5625
1147,9083004,0.895236,0.025986000000000002,-0.161528,-3.7625,-18.6025,1.1025
1148,9083102,0.8481440999999998,0.039772,-0.148108,-5.8625,-18.375,-3.115
1149,9083200,0.820084,0.049288,-0.182268,-7.735,-17.9025,-6.755
1150,9083298,0.7983680000000001,0.06356201,-0.184586,-7.1225,-22.12,-9.205
1151,9083396,0.746152,0.108946,-0.18483,-5.2325,-25.935,-9.555
1152,9083494,0.6753920999999999,0.14383800000000002,-0.178242,-1.96,-30.45,-9.5725
1153,9083592,0.5988979999999999,0.189588,-0.148352,1.575,-36.8375,-9.415
1154,9083690,0.5353359999999999,0.19580999999999998,-0.144814,5.04,-39.41,-8.435
1155,9083787,0.441762,0.18446400000000002,-0.134322,9.6075,-39.305,-6.79
1156,9083885,0.429196,0.196542,-0.140422,12.7575,-35.9975,-4.8125
1157,9083983,0.482754,0.21862399999999999,-0.129076,15.19,-30.87,-1.4
1158,9084081,0.45811,0.214354,-0.094306,17.15,-24.78,3.2375
1159,9084179,0.471286,0.23741199999999998,-0.09455001,17.5875,-15.2775,6.5975
1160,9084277,0.482388,0.175924,-0.07747001,17.6575,-8.5575,9.5025
1161,9084375,0.48922,0.21777,-0.05917000000000001,15.3125,-5.985,14.28
1162,9084473,0.48702399999999996,0.127734,-0.022813999999999997,13.3,-6.3525,15.8025
1163,9084571,0.467016,0.101016,0.011590000000000001,10.85,-6.9825,17.675
1164,9084669,0.469578,0.03416,0.030744,8.5575,-5.985,16.73
1165,9084766,0.48531599999999997,-0.016225999999999997,0.038674,7.49,-4.025,15.33
1166,9084864,0.5077640999999999,-0.057218,0.049654000000000004,8.33,-2.03,13.6675
1167,9084962,0.5363121,-0.07564,0.077348,11.025,-2.3975,12.005
1168,9085060,0.58316,-0.05624199999999999,0.118828,13.5975,-4.515,11.3225
1169,9085158,0.635742,-0.01281,0.153842,16.59,-4.1825,12.3375
1170,9085256,0.707234,0.058316,0.167506,19.5475,-2.5375,14.735
1171,9085354,0.775676,0.10394400000000001,0.114924,20.8775,-0.1225,17.955
1172,9085452,0.856562,0.127002,0.041724000000000004,21.525,1.0675,22.295
1173,9085550,0.9519661,0.111142,0.007320001,22.365,0.665,28.07
1174,9085648,1.015528,0.064416,-0.038308,20.0025,0.28,35.805
1175,9085746,1.03273,-0.0035380000000000003,0.042456,14.525,-1.82,43.715
1176,9085844,1.0767719999999998,-0.094306,0.277062,9.625,-7.7,46.7075
1177,9085941,1.1716879999999998,-0.13664,0.436638,5.8275,-5.74,39.3575
1178,9086039,1.298812,-0.102114,0.5694961,3.0625,5.285,22.19
1179,9086137,1.322602,0.053801999999999996,0.586576,9.2925,24.3775,2.7125
1180,9086235,1.426302,0.19276,0.304512,16.5375,40.425,-14.4025
1181,9086333,1.473638,0.31964000000000004,0.08479,20.65,45.36,-24.5175
1182,9086431,1.3290680000000001,0.45762200000000003,-0.129442,27.8775,24.255,-27.615
1183,9086529,1.353712,0.433954,-0.529358,23.065,25.1825,-26.1975
1184,9086627,1.81475,-0.15921,-0.48922,15.5925,72.345,-37.695
1185,9086725,2.3424,-0.868762,-0.41663,2.415,107.4325,-65.275
1186,9086823,2.111576,-0.904874,-0.591212,-29.9425,81.76001,-88.83
1187,9086920,1.311134,-0.5058121,-0.42187600000000003,-48.7725,1.4525,-100.8525
1188,9087018,0.9390341,-0.036233999999999995,-0.434198,-44.38,-42.6125,-90.9125
1189,9087116,0.9343981,0.33976999999999996,-0.540582,-25.8125,-14.6825,-79.3975
1190,9087214,1.134722,0.40626,-0.520452,-0.3325,23.66,-74.655
1191,9087312,1.3888479999999999,0.46018400000000004,-0.525942,6.405,48.7725,-69.1775
1192,9087410,1.659932,0.424926,-0.502518,5.355,67.935,-61.11
1193,9087508,1.831952,0.322324,-0.4743361,4.76,60.9875,-57.4875
1194,9087606,1.7141,0.128588,-0.45457200000000003,4.06,18.0075,-61.5475
1195,9087704,1.5128,0.051972000000000004,-0.38735,3.9375,-28.7525,-61.0575
1196,9087801,1.36457,0.044286,-0.26413000000000003,4.83,-51.45,-54.1625
1197,9087899,1.190964,0.078446,-0.170312,6.265,-58.065,-41.4225
1198,9087997,1.166808,0.11577799999999999,-0.147254,6.055,-53.1475,-29.3125
1199,9088095,1.126792,0.099186,-0.13908,5.39,-43.3475,-19.18
1200,9088193,1.054446,0.049898000000000005,-0.14884,4.655,-40.4425,-11.655
1201,9088291,0.989664,-0.0008540001,-0.167628,2.66,-45.255,-6.6325
1202,9088389,0.8359440999999999,-0.029768,-0.14713199999999999,2.5375,-53.4975,-3.885
1203,9088487,0.79422,-0.06344,-0.13298,1.085,-56.7525,-4.9875
1204,9088585,0.72102,-0.067222,-0.160796,2.0475,-52.43,-3.605
1205,9088683,0.69784,-0.09613601,-0.112606,1.82,-51.31,-2.5725
1206,9088780,0.6347661,-0.11431400000000001,-0.122732,-1.89,-45.185,-2.4675
1207,9088878,0.5846241,-0.126148,-0.110898,-6.9475,-47.1625,-3.4475
1208,9088976,0.5852341,-0.135542,-0.045262000000000004,-11.4275,-51.5375,-4.8825
1209,9089074,0.581696,-0.104676,-0.033916,-16.625,-43.855,-4.8475
1210,9089172,0.5787680000000001,-0.09052401,-0.059658,-18.8125,-29.33,-4.4975
1211,9089270,0.56181,-0.045506,-0.08296,-17.8325,-21.8225,-3.78
1212,9089368,0.544974,-0.07356601,-0.06344,-13.825,-21.7875,-4.3925
1213,9089466,0.51545,-0.0793,-0.044407999999999996,-9.695,-20.825,-5.6
1214,9089564,0.48995200000000005,-0.011346,-0.035258,-7.0525,-17.3075,-6.965
1215,9089662,0.500688,0.014518000000000001,-0.019764,-5.355,-13.2825,-7.91
1216,9089760,0.5063,0.109922,-0.027083999999999997,-3.6225,-11.9,-10.2375
1217,9089858,0.506788,0.11407,-0.028182,-2.5375,-13.86,-11.48
1218,9089955,0.49995600000000007,0.126392,-0.030987999999999998,-2.8525,-17.325,-13.58
1219,9090053,0.498126,0.114802,-0.020862000000000002,-5.53,-22.19,-16.1
1220,9090151,0.487634,0.116388,-0.000366,-9.3625,-25.76,-18.4625
1221,9090249,0.5352140000000001,0.08893801,0.017812,-14.805,-24.115,-18.0075
1222,9090347,0.6036560999999999,0.06380599999999999,0.029036000000000003,-20.545,-19.425,-18.13
1223,9090445,0.6918621,0.036478,0.071614,-26.67,-18.025,-19.005
1224,9090543,0.7762859999999999,-0.016592,0.11431400000000001,-31.885,-19.81,-21.7
1225,9090641,0.829966,-0.02684,0.111142,-34.8075,-24.36,-25.83
1226,9090739,0.8443620999999999,-0.020008,0.05648601,-33.7575,-29.96,-30.9225
1227,9090837,0.864492,0.023302,-0.033184,-28.4725,-34.7375,-34.755
1228,9090934,0.8672979999999999,0.09320801,-0.12212200000000001,-18.795,-34.475,-37.38
1229,9091032,0.9761219999999999,0.20178800000000002,-0.09845401,-5.32,-27.405,-40.775
1230,9091130,1.12972,0.361852,0.061975999999999996,5.425,-10.6575,-41.1775
1231,9091228,1.149972,0.547536,0.266936,7.8575,11.8825,-36.6275
1232,9091326,1.1776659999999999,0.587918,0.2623,10.71,25.585,-26.9675
1233,9091424,1.256966,0.440054,0.269986,19.8975,28.7525,-11.8475
1234,9091522,1.435086,0.160796,0.264496,16.2575,31.1325,2.3625
1235,9091620,1.6424860000000001,-0.148108,0.11224,-1.295,25.3925,11.8825
1236,9091718,1.728374,-0.246196,-0.030012,-15.8375,7.21,18.2875
1237,9091816,1.656638,-0.189588,-0.18422,-17.185,-10.885,22.9425
1238,9091914,1.564406,0.110044,-0.24412199999999998,-13.685,-11.7775,26.3025
1239,9092011,1.474492,0.353434,-0.401136,-2.9225,2.38,33.0925
1240,9092109,1.502308,0.597068,-0.3904,14.0175,21.875,41.8775
1241,9092207,1.319308,0.7951961,-0.450912,15.26,34.86,50.9075
1242,9092305,1.066158,0.374052,-0.404674,23.24,28.6125,51.975
1243,9092403,0.9828321,0.043188,-0.503128,14.42,30.6775,43.645
1244,9092501,1.025776,-0.158844,-0.541192,10.5875,45.4825,34.93
1245,9092599,1.166808,-0.18775799999999998,-0.44420200000000004,5.6,62.9125,30.2225
1246,9092697,1.308694,-0.118584,-0.39113200000000004,0.4725,72.835,26.285
1247,9092795,1.48779,0.045872,-0.335988,0.21,83.2125,22.5225
1248,9092893,1.6297979999999999,0.09821001,-0.43041599999999997,0.595,80.5525,23.6075
1249,9092990,1.637606,0.09418401,-0.46238,1.12,47.285,29.68
1250,9093088,1.4600959999999998,0.10638399999999999,-0.4087,-1.75,4.62,37.2925
1251,9093186,1.252818,0.106628,-0.308782,-6.02,-18.8475,41.965
1252,9093284,1.119838,0.078202,-0.23424,-11.7775,-28.3325,40.8625
1253,9093382,1.064816,0.025376,-0.216306,-15.1025,-26.6175,35.4025
1254,9093480,1.011624,0.003172,-0.20178800000000002,-16.6075,-25.235,27.1425
1255,9093578,0.9465981,0.004392,-0.14469200000000002,-17.885,-26.845,18.3925
1256,9093676,0.9221981,0.036356,-0.144448,-18.5325,-23.1525,11.7075
1257,9093774,0.8969440000000001,0.06527000000000001,-0.135664,-18.095,-20.895,7.8225
1258,9093872,0.8525360000000001,0.08808401,-0.156648,-17.0275,-18.095,6.2475
1259,9093970,0.8106899999999999,0.119804,-0.18629400000000002,-14.8925,-17.325,5.32
1260,9094067,0.760304,0.14188599999999998,-0.181658,-12.075,-21.07,4.55
1261,9094165,0.713334,0.192272,-0.188124,-9.31,-22.015,4.4975
1262,9094263,0.661606,0.233508,-0.168238,-5.845,-26.3375,4.9175
1263,9094361,0.61,0.242902,-0.14005599999999999,-1.8725,-30.38,5.3725
1264,9094459,0.547536,0.22509,-0.12712400000000001,1.925,-29.47,5.355
1265,9094557,0.543998,0.228506,-0.1281,5.3725,-27.1075,5.705
1266,9094655,0.551562,0.23363,-0.09577000000000001,9.0125,-25.6025,7.14
1267,9094753,0.531188,0.196176,-0.056852,12.355,-19.215,8.19
1268,9094850,0.516914,0.181658,-0.041114,13.3175,-9.625,9.695
1269,9094948,0.541558,0.125782,-0.045872,11.6375,-4.27,10.115
1270,9095046,0.533628,0.09320801,-0.01464,9.485,-6.23,10.2375
1271,9095144,0.523258,0.082594,0.01281,6.16,-7.105,10.5525
1272,9095242,0.495442,0.021838,0.019764,3.15,-5.5125,8.505
1273,9095340,0.496418,0.005978,0.03416,1.68,-5.0575,7.1225
1274,9095438,0.5249659999999999,0.02562,0.037576,-0.4725,-2.8,7.1575
1275,9095536,0.522526,-0.022082,0.047580000000000004,-1.4875,-3.4825,6.405
1276,9095634,0.543144,-0.017446,0.056729999999999996,-2.24,-4.2175,7.8225
1277,9095732,0.55693,-0.028792,0.05355801,-2.3275,-4.865,9.1175
1278,9095829,0.5726680000000001,-0.009150001,0.052703999999999994,-2.59,-7.0175,10.7975
1279,9095927,0.6140260000000001,0.036112,0.05941401,-2.1,-9.2575,12.985
1280,9096025,0.6653880999999999,0.081862,0.08808401,0.2625,-11.935,15.8375
1281,9096123,0.7394421,0.15555,0.080398,4.97,-12.3025,19.7225
1282,9096221,0.8350901,0.296216,-0.017568,11.1475,-6.16,24.0975
1283,9096319,0.9734381,0.29402,-0.05770599999999999,19.4425,0.98,28.77
1284,9096417,1.1087360000000002,0.23424,-0.072956,24.5525,-4.7075,35.0875
1285,9096515,1.1807159999999999,0.108824,-0.039162,23.345,-12.7925,41.3
1286,9096613,1.134112,-0.039284,0.082838,15.4525,-18.0075,42.4725
1287,9096711,1.1210579999999999,-0.17433800000000002,0.27084,8.4175,-17.4475,36.5575
1288,9096808,1.203042,-0.328058,0.45713400000000004,6.3875,-10.3425,22.3825
1289,9096906,1.25965,-0.337086,0.589626,3.1325,-0.6825,2.8875
1290,9097004,1.26331,-0.13639600000000002,0.5997520000000001,1.715,12.495,-13.65
1291,9097102,1.344074,0.123464,0.506544,8.645,23.765,-22.3125
1292,9097200,1.42313,0.361852,0.346846,20.1075,23.415,-22.47
1293,9097298,1.494866,0.4553041,0.21362199999999998,27.5625,13.545,-19.285
1294,9097396,1.4635120000000001,0.493856,-0.164944,19.88,6.9125,-18.6025
1295,9097494,1.387506,0.529358,-0.6588,8.9425,20.2475,-17.4125
1296,9097592,1.7272759999999998,0.07808001,-0.470066,10.4125,47.2325,-24.9725
1297,9097689,2.2484599999999997,-0.8457040000000001,-0.28121,6.79,73.43,-56.665
1298,9097787,1.8950259999999999,-0.953308,-0.665632,-30.835,78.48751,-89.74
1299,9097885,1.13277,-0.461892,-0.42212,-45.0625,-3.4475,-88.37501
1300,9097983,0.8274040000000001,-0.05843801,-0.249734,-40.6525,-46.27,-74.6025
1301,9098081,0.8666879999999999,0.267546,-0.40662600000000004,-21.735,-16.8175,-63.9975
1302,9098179,1.00711,0.46640600000000004,-0.576206,-3.1325,16.4675,-58.2225
1303,9098277,1.2639200000000002,0.46543,-0.45127799999999996,4.6725,45.3775,-54.3025
1304,9098375,1.5098719999999999,0.429806,-0.396744,3.6925,67.4625,-49.6475
1305,9098473,1.705682,0.34050199999999997,-0.38918,-1.575,62.79,-45.0275
1306,9098570,1.71715,0.107482,-0.44420200000000004,-7.3325,31.885,-49.5775
1307,9098668,1.575386,-0.020984,-0.38856999999999997,-9.695,-12.2675,-52.9375
1308,9098766,1.371158,-0.08808401,-0.28023400000000004,-6.5975,-43.0675,-50.4875
1309,9098864,1.1930379999999998,-0.03721,-0.22801799999999997,-5.565,-60.6725,-42.175
1310,9098962,1.061034,0.037454,-0.126148,-7.945,-67.55001,-32.13
1311,9099060,0.9999121,0.068442,-0.118218,-12.39,-53.4625,-23.555
1312,9099158,0.9768540000000001,0.066734,-0.172508,-15.96,-38.3425,-15.7675
1313,9099256,0.9609940999999999,0.056729999999999996,-0.19885999999999998,-18.0425,-36.5575,-9.3975
1314,9099354,0.904752,0.01342,-0.184342,-18.1825,-41.3,-5.4425
1315,9099451,0.8448501,-0.04087,-0.167018,-17.9725,-45.675,-3.4475
1316,9099549,0.7975140000000001,-0.09552601,-0.153476,-18.7075,-46.62,-2.765
1317,9099647,0.7299260999999999,-0.11712,-0.167018,-20.3175,-45.5875,-2.135
1318,9099745,0.671122,-0.1586,-0.150304,-23.135,-46.55,-1.995
1319,9099843,0.6673399999999999,-0.18043800000000002,-0.149572,-26.0225,-47.6175,-2.31
1320,9099941,0.599264,-0.174948,-0.102602,-28.805,-49.875,-1.9425
1321,9100039,0.533384,-0.14945,-0.07198,-34.2125,-50.1375,-3.4475
1322,9100137,0.5499761,-0.143228,-0.04404201,-38.8325,-44.0825,-5.3025
1323,9100235,0.55571,-0.132126,-0.03599,-41.1775,-35.14,-5.0575
1324,9100332,0.535946,-0.08649801,-0.044652,-41.265,-23.835,-3.64
1325,9100430,0.529724,-0.05795,-0.039894,-39.27,-15.89,-2.66
1326,9100528,0.5443640000000001,0.010492,-0.039406000000000004,-35.2275,-11.3225,-2.8525
1327,9100626,0.553636,0.091744,-0.025498,-30.9575,-7.5775,-2.52
1328,9100724,0.566446,0.14688800000000002,-0.008540001,-26.5825,-4.585,-3.6575
1329,9100822,0.5703501,0.220942,-0.019886,-22.7325,-2.24,-6.5975
1330,9100920,0.58011,0.217038,-0.04867801,-18.6375,-2.59,-9.135
1331,9101018,0.5810860999999999,0.21301199999999998,-0.05587601,-15.6275,-9.38,-11.9
1332,9101115,0.5754739999999999,0.18995399999999998,-0.043188,-15.3125,-17.3075,-14.28
1333,9101213,0.571692,0.223504,-0.006832001,-16.1,-20.7375,-16.4675
1334,9101311,0.6396460999999999,0.190564,0.043798000000000004,-18.41,-18.76,-16.1175
1335,9101409,0.7317560000000001,0.16201600000000002,0.09028,-20.2125,-15.54,-17.0975
1336,9101507,0.8178880999999999,0.140544,0.136762,-21.035,-16.8,-18.795
1337,9101605,0.8713241,0.132004,0.166164,-21.9625,-21.07,-20.8425
1338,9101703,0.903532,0.08820599999999999,0.162626,-22.19,-27.4575,-22.4875
1339,9101801,0.9202459999999999,0.04819,0.126392,-18.27,-34.5275,-24.0625
1340,9101899,0.9372040999999999,0.0064659999999999995,0.040504000000000005,-11.34,-38.1675,-25.795
1341,9101996,0.9237841,0.07002799999999999,0.02623,-4.55,-39.515,-26.39
1342,9102094,0.889136,0.188612,0.021106,1.435,-37.2575,-29.47
1343,9102192,0.9464761,0.313052,0.055144000000000006,6.825,-22.4175,-34.475
1344,9102290,1.03273,0.4209,0.138836,11.2,1.82,-37.3275
1345,9102388,1.057374,0.50874,0.22143000000000002,12.8975,20.545,-36.96
1346,9102486,1.1295979999999999,0.44944799999999996,0.247416,15.715,25.97,-32.97
1347,9102584,1.288442,0.252784,0.26657,14.0875,24.01,-25.8125
1348,9102681,1.431182,-0.023302,0.144082,3.1675,21.4025,-19.915
1349,9102779,1.577582,-0.21472,0.020374,-9.6075,14.7525,-15.75
1350,9102877,1.5889280000000001,-0.380884,-0.242536,-15.715,6.1775,-11.305
1351,9102975,1.6213799999999998,-0.21777,-0.327448,-13.545,12.4425,-5.39
1352,9103073,1.6893340000000001,0.190076,-0.338916,-10.5,26.5825,8.8025
1353,9103171,1.551962,0.455182,-0.40076999999999996,9.5025,36.925,26.04
1354,9103269,1.22671,0.650382,-0.38247,16.73,46.8125,40.2675
1355,9103367,0.8880380999999999,0.384178,-0.32269000000000003,10.6925,40.18,43.6975
1356,9103465,0.798124,0.020618,-0.37759000000000004,5.285,40.8975,37.8525
1357,9103563,0.883768,-0.221552,-0.5193541,-6.3175,66.43,32.3225
1358,9103660,1.045052,-0.24351199999999998,-0.5203300000000001,-15.085,88.39251,30.9575
1359,9103758,1.2608700000000002,-0.155184,-0.425292,-16.87,99.5225,30.73
1360,9103856,1.511458,0.10052799999999999,-0.28121,-11.7075,106.435,28.2275
1361,9103954,1.7203220000000001,0.285724,-0.34867600000000004,-5.0925,96.3725,28.8925
1362,9104052,1.642852,0.288042,-0.50508,3.395,55.615,35.28
1363,9104150,1.372622,0.22362600000000002,-0.44993599999999995,10.6575,4.3925,42.0875
1364,9104248,1.1529,0.201544,-0.306464,11.0075,-19.7225,43.61
1365,9104346,1.038952,0.16897,-0.232654,10.15,-19.285,39.7775
1366,9104443,1.039928,0.12749000000000002,-0.216428,8.575,-12.4425,31.9725
1367,9104541,1.037976,0.097722,-0.196542,8.645,-13.79,22.9425
1368,9104639,0.9625799999999999,0.055022,-0.12248800000000001,11.0075,-18.2875,13.9125
1369,9104737,0.9500139999999999,0.05002,-0.134688,12.775,-10.3775,5.985
1370,9104835,0.924638,0.062586,-0.168238,15.61,-5.355,0.6825
1371,9104933,0.883524,0.09735601,-0.154818,19.215,-7.1575,-1.6625
1372,9105031,0.8559521000000001,0.142374,-0.166408,21.3325,-5.0575,-2.8525
1373,9105129,0.833992,0.189344,-0.172264,22.9075,-4.2175,-3.85
1374,9105227,0.828624,0.219966,-0.178852,25.1825,-4.165,-4.6375
1375,9105325,0.8132520999999999,0.249612,-0.16104000000000002,29.505,-5.8625,-4.83
1376,9105422,0.7951961,0.257542,-0.13151600000000002,34.4575,-8.9425,-4.9525
1377,9105520,0.767502,0.263886,-0.117974,40.215,-13.125,-3.9725
1378,9105618,0.73688,0.2684,-0.093086,46.3225,-17.2375,-2.6075
1379,9105716,0.686372,0.245098,-0.07710399999999999,52.43,-17.5175,-1.47
1380,9105814,0.6673399999999999,0.21813600000000002,-0.048434,57.3825,-14.7,-0.4725
1381,9105912,0.685396,0.203252,-0.04331,59.885,-10.2725,0.77
1382,9106010,0.710284,0.18141400000000002,-0.030378,61.9325,-7.63,2.4325
1383,9106108,0.694546,0.14078800000000002,-0.005002,62.5625,-7.1225,4.2525
1384,9106205,0.7190681,0.1098,-0.000488,61.2325,-6.16,6.335
1385,9106303,0.7291941,0.077592,0.018544,59.3425,-7.2975,8.6625
1386,9106401,0.736392,0.044896,0.043676,57.2775,-9.2575,10.045
1387,9106499,0.7500560000000001,0.03721,0.05843801,55.755,-10.535,11.2
1388,9106597,0.764818,0.049654000000000004,0.07698201,55.825,-14.2975,12.6525
1389,9106695,0.756644,0.027694,0.08698601,57.9425,-19.6875,14.0525
1390,9106793,0.764452,0.01952,0.09284201,62.6675,-23.8525,15.54
1391,9106891,0.772382,-0.003172,0.10760399999999999,68.1625,-27.65,17.43
1392,9106989,0.7622561,-0.014274,0.130174,72.625,-30.835,19.075
1393,9107087,0.737246,-0.050386,0.11504600000000001,74.8825,-31.9375,20.0375
1394,9107184,0.7366361,-0.01525,0.08625401,75.32,-30.5375,20.265
1395,9107282,0.74847,0.009028000999999999,0.05002,73.4475,-27.685,20.0375
1396,9107380,0.769332,0.08601,0.02928,72.3275,-28.7175,20.545
1397,9107478,0.762988,0.15396400000000002,-0.039406000000000004,69.02,-27.8775,23.345
1398,9107576,0.7828741,0.09930800000000001,-0.02806,64.4525,-24.7275,25.8125
1399,9107674,0.7893399999999999,0.0032939999999999996,0.02074,59.3775,-21.945,26.4775
1400,9107772,0.780678,-0.07173600000000001,0.09650201,50.435,-14.07,24.2375
1401,9107870,0.815204,-0.13908,0.243756,42.5425,-1.6975,17.9725
1402,9107968,0.906216,-0.1647,0.384422,40.285,8.435,9.205
1403,9108065,1.02724,-0.11321600000000001,0.441274,40.67,17.9025,-0.4725
1404,9108163,1.164734,0.01769,0.42199799999999993,46.3925,26.9325,-9.975
1405,9108261,1.212558,0.153598,0.317322,59.745,27.2475,-17.4825
1406,9108359,1.095926,0.359046,-0.00488,70.2275,21.49,-22.435
1407,9108457,0.9766101,0.46128199999999997,-0.23472800000000002,79.0475,12.6525,-26.915
1408,9108555,1.006256,0.28486999999999996,-0.435784,83.615,12.39,-31.1675
1409,9108651,1.261358,-0.15006,-0.41248199999999996,78.995,36.435,-42.1575
1410,9108749,1.8004759999999997,-0.542412,-0.296704,64.995,79.24,-62.3875
1411,9108847,2.181726,-1.024556,-0.266326,50.8725,94.67501,-82.005
1412,9108945,1.74521,-0.9120720999999999,-0.330864,39.7425,50.4875,-98.735
1413,9109043,1.170224,-0.365146,-0.413336,32.76,-16.9225,-96.95
1414,9109141,1.092144,0.0032939999999999996,-0.422364,43.925,-15.575,-88.8475
1415,9109238,1.2136559999999998,0.156282,-0.44725200000000004,63.56,10.9725,-86.73
1416,9109336,1.331996,0.284748,-0.46908999999999995,74.3225,6.9825,-87.53501
1417,9109434,1.398608,0.374906,-0.465796,80.8675,4.8825,-88.3575
1418,9109532,1.501088,0.401502,-0.47177399999999997,84.9275,11.7425,-87.0625
1419,9109630,1.5340280000000002,0.353556,-0.41199399999999997,92.0675,9.7825,-79.6775
1420,9109728,1.499746,0.324276,-0.33916,99.855,-6.79,-66.08
1421,9109826,1.446798,0.24802600000000002,-0.238632,105.735,-20.79,-50.4525
1422,9109924,1.389214,0.16897,-0.188124,112.21,-26.4075,-36.365
1423,9110021,1.260504,0.094672,-0.12163399999999999,119.7175,-31.6575,-27.3175
1424,9110119,1.1770559999999999,0.050142,-0.05843801,127.1375,-34.65,-23.45
1425,9110217,1.135576,0.029768,-0.052948,131.565,-28.14,-24.8325
1426,9110315,1.128256,0.016714,-0.085522,131.5475,-21.0875,-29.3825
1427,9110413,1.104222,-0.015982,-0.093574,129.92,-18.1475,-34.195
1428,9110511,1.063474,-0.049166,-0.07710399999999999,128.065,-19.67,-38.185
1429,9110609,1.017724,-0.057828,-0.06283,127.0325,-23.03,-41.02
1430,9110707,0.9949100000000001,-0.085156,-0.015493999999999999,127.82,-25.6025,-43.5575
1431,9110805,0.9564799999999999,-0.08881599,-0.015982,129.22,-22.085,-43.5575
1432,9110902,0.892552,-0.07600599999999999,-0.021228,130.62,-18.97,-41.895
1433,9111000,0.898652,-0.038796,-0.049898000000000005,131.2675,-19.145,-39.655
1434,9111098,0.8718120999999999,-0.013297999999999999,-0.012688,132.6325,-21.805,-37.625
1435,9111196,0.8524139999999999,-0.004758,-0.027938,133.56,-16.625,-36.1375
1436,9111294,0.841922,-0.01281,-0.015616,133.98,-14.07,-34.7725
1437,9111392,0.8300879999999999,-0.021838,-0.001342,133.35,-17.0625,-34.9825
1438,9111490,0.79971,-0.044164,0.013054,133.2975,-19.6875,-36.5575
1439,9111588,0.7659161,-0.071858,0.032086,132.37,-21.0875,-38.15
1440,9111685,0.737002,-0.077958,0.050874,129.99,-22.0675,-39.06
1441,9111783,0.707112,-0.07551801,0.07039400000000001,126.6825,-21.665,-40.1975
1442,9111881,0.72102,-0.0793,0.099186,122.8325,-18.8825,-41.265
1443,9111979,0.762988,-0.085888,0.112728,119.665,-11.8125,-41.7375
1444,9112077,0.772382,-0.07234600000000001,0.11053199999999999,117.6175,-5.4075,-40.6525
1445,9112175,0.75884,-0.05648601,0.128344,117.775,-4.55,-40.1975
1446,9112273,0.7582300000000001,-0.028914,0.156404,117.495,-4.76,-40.425
1447,9112371,0.7435901,0.001342,0.17202,116.025,-4.13,-40.8975
1448,9112469,0.724924,-0.006832001,0.169946,115.08,-4.9175,-42.0175
1449,9112567,0.7239479999999999,-0.045384,0.17433800000000002,116.3925,-4.4625,-44.4325
1450,9112664,0.729438,-0.05612,0.15128,118.055,-0.2275,-46.7425
1451,9112762,0.7821421,-0.07234600000000001,0.14518,118.755,3.325,-49.455
1452,9112860,0.828624,-0.049044,0.11614400000000001,117.215,6.1775,-53.1125
1453,9112958,0.8521700999999999,-0.009150001,0.087352,115.465,5.1975,-58.8175
1454,9113056,0.8497299999999999,0.04087,0.061975999999999996,115.4825,1.75,-66.1325
1455,9113154,0.831918,0.101138,0.042089999999999995,116.9,-1.12,-73.4475
1456,9113252,0.803248,0.160918,0.02501,116.6025,-2.205,-78.9075
1457,9113350,0.803126,0.21057199999999998,0.06380599999999999,115.64,-0.7175,-81.76001
1458,9113448,0.8045899999999999,0.24095,0.071614,112.6475,3.6925,-81.2875
1459,9113545,0.826916,0.246196,0.08417999999999999,107.31,9.8525,-78.1375
1460,9113643,0.874252,0.20691199999999998,0.099674,100.8525,18.41,-74.4275
1461,9113741,0.938058,0.06746601,0.068442,95.34,26.81,-72.17
1462,9113839,0.986858,-0.08649801,0.020862000000000002,91.455,32.095,-71.1025
1463,9113937,0.9966181000000001,-0.307196,0.005856,90.59751,35.0875,-71.225
1464,9114035,1.006378,-0.547048,-0.056729999999999996,95.34,42.7175,-69.7725
1465,9114133,1.042734,-0.80642,-0.31646799999999997,108.5,61.495,-63.9625
1466,9114231,1.235128,-0.8230120999999999,-0.558028,130.305,92.5225,-51.135
1467,9114329,1.5817299999999999,-0.194346,-0.517158,137.7075,125.7375,-26.1975
1468,9114426,1.5279280000000002,0.523746,-0.467992,128.415,128.695,4.4275
1469,9114524,1.271484,0.818986,-0.327814,126.315,101.8675,25.4975
1470,9114622,1.17608,0.7034521,-0.32147,116.8475,79.4325,36.295
1471,9114720,1.230492,0.37881,-0.372222,107.0475,71.8025,35.8575
1472,9114818,1.324798,0.122732,-0.214232,102.1825,60.48,25.8825
1473,9114916,1.37189,0.032574,-0.08576601,101.675,45.0975,10.745
1474,9115014,1.389092,0.009394,-0.08820599999999999,112.28,31.01,-3.8325
1475,9115112,1.387018,0.015372,-0.097234,123.34,14.0875,-12.2675
1476,9115210,1.378966,0.104676,-0.14579,125.1775,7.175,-16.03
1477,9115308,1.316258,0.214598,-0.161894,124.285,0.8575,-18.445
1478,9115405,1.2372020000000001,0.30109600000000003,-0.09845401,125.37,-7.5775,-20.8775
1479,9115503,1.1630260000000001,0.37258800000000003,-0.063684,129.0975,-4.655,-22.855
1480,9115601,1.12484,0.42748800000000003,-0.078202,134.68,3.29,-24.4825
1481,9115699,1.1003180000000001,0.47201809999999994,-0.087474,141.5225,8.5575,-25.3575
1482,9115797,1.096902,0.4697,-0.081374,151.0775,11.55,-25.2
1483,9115895,1.075186,0.44212799999999997,-0.057584,162.2075,10.815,-24.6225
1484,9115993,1.036268,0.406748,-0.039284,174.125,11.2175,-24.6575
1485,9116091,1.011258,0.383202,-0.02257,186.06,13.195,-26.355
1486,9116188,1.002474,0.385398,-0.004148001,197.2425,16.0825,-30.1
1487,9116286,1.0077200000000002,0.404674,-0.031476,206.955,18.8825,-35.035
1488,9116384,0.98393,0.42443800000000004,-0.029036000000000003,213.92,16.8875,-39.62
1489,9116482,0.968192,0.393938,-0.043554,217.5075,13.9475,-44.1525
1490,9116580,0.9741700000000001,0.33623200000000003,-0.031964,219.7825,11.06,-47.9325
1491,9116678,0.981002,0.25559,-0.001464,220.9375,8.715,-51.0825
1492,9116776,0.9757561,0.17055599999999999,0.01037,220.815,9.45,-54.145
1493,9116874,0.9627020000000001,0.080764,0.011712,218.68,9.7825,-56.14
1494,9116971,0.9535521,-0.009150001,0.0122,215.2325,10.045,-56.3675
1495,9117069,0.9627020000000001,-0.104554,0.02196,209.65,10.0975,-54.67
1496,9117167,0.9684360999999999,-0.205448,0.049044,201.1975,7.665,-50.995
1497,9117265,0.9567241,-0.27633,0.066734,189.84,1.8025,-46.48
1498,9117363,0.9247601000000001,-0.30475599999999997,0.064294,177.7825,-2.9575,-41.7375
1499,9117461,0.8903561,-0.28975,0.04331,165.9525,-6.825,-38.2725
1500,9117559,0.8466800999999999,-0.258274,0.020130000000000002,155.2425,-11.76,-36.1375
1501,9117657,0.798856,-0.211304,0.012688,146.405,-17.7275,-35.035
1502,9117755,0.758718,-0.132126,0.011468,139.1775,-22.1725,-35.07
1503,9117852,0.7381001,-0.0488,0.009516001,133.805,-23.205,-36.3125
1504,9117950,0.735416,0.027083999999999997,0.009882,129.57,-21.2275,-38.7975
1505,9118048,0.746274,0.103822,0.018178,125.5975,-17.9725,-41.7725
1506,9118146,0.768844,0.14383800000000002,0.020374,122.57,-13.6325,-44.5025
1507,9118244,0.803126,0.132248,0.033062,120.12,-8.5925,-47.18
1508,9118342,0.8375299999999999,0.10187,0.0549,117.67,-4.5675,-48.4575
1509,9118440,0.8520479999999999,0.07002799999999999,0.069784,114.135,-2.5375,-47.5125
1510,9118538,0.864614,0.063684,0.05770599999999999,105.77,0.14,-45.605
1511,9118635,0.8752280000000001,0.030012,0.049898000000000005,96.4075,4.3575,-44.205
1512,9118733,0.8685181000000001,0.03965,0.11614400000000001,94.51751,5.705,-41.055
1513,9118831,0.871934,0.0244,0.145058,96.39,7.9275,-35.3675
1514,9118929,0.90951,0.01464,0.15396400000000002,96.25,16.24,-29.1025
1515,9119027,0.9834421,0.035258,0.17568,96.21500999999999,25.3225,-23.7475
1516,9119125,1.061888,0.050874,0.22691999999999998,96.0925,30.45,-19.7225
1517,9119223,1.118374,0.071248,0.27328,94.46500999999999,31.57,-16.5025
1518,9119321,1.15473,0.0854,0.29292199999999996,92.8725,33.8975,-14.0525
1519,9119419,1.15778,0.129442,0.309026,92.6625,35.2975,-11.27
1520,9119516,1.174372,0.159088,0.238754,91.7875,38.675,-8.435
1521,9119614,1.2261,0.09638,0.22204000000000002,89.86251,42.595,-5.7925
1522,9119712,1.2056040000000001,0.102358,0.1342,89.8275,35.595,-3.6575
1523,9119810,1.1956,0.265228,-0.09991799999999999,92.27750999999999,34.3175,-1.4
1524,9119908,1.346514,0.367586,-0.329766,97.65,50.4,0.385
1525,9120006,1.510238,0.277916,-0.42395,101.7975,61.8975,0.315
1526,9120104,1.482544,-0.056974000000000004,-0.49873599999999996,101.1325,57.435,-9.5725
1527,9120202,1.251476,-0.17934,-0.313906,90.79,23.7125,-19.46
1528,9120299,1.019188,-0.343796,-0.381006,105.0175,-0.245,-29.1375
1529,9120397,0.915732,-0.12871,-0.5233800000000001,86.7825,10.5,-38.5875
1530,9120495,0.945256,-0.01037,-0.448838,87.81501,13.125,-40.95
1531,9120593,0.9799041,0.065026,-0.322446,87.1325,16.5725,-41.9825
1532,9120691,1.011136,0.11650999999999999,-0.31171,80.71,20.37,-44.4325
1533,9120789,1.078968,0.15921,-0.30988000000000004,71.3125,25.375,-43.3475
1534,9120887,1.181814,0.139324,-0.273768,66.22,23.2575,-38.43
1535,9120985,1.1859620000000002,0.058926,-0.215696,63.07,11.69,-32.2525
1536,9121082,1.2486700000000002,-0.043066,-0.167018,60.2875,4.3225,-25.4975
1537,9121180,1.239398,-0.05843801,-0.197884,59.325,4.3225,-15.715
1538,9121278,1.1605860000000001,-0.053191999999999996,-0.21679400000000001,62.51,-1.4525,-6.055
1539,9121376,1.036146,-0.06649,-0.18727,64.9075,-13.475,0.5425
1540,9121474,0.9539181000000001,-0.060146000000000005,-0.168726,64.505,-18.62,4.8825
1541,9121572,0.8897459999999999,-0.061488,-0.154818,62.65,-17.85,6.5625
1542,9121670,0.821792,-0.062586,-0.14493599999999998,58.94,-16.3975,5.11
1543,9121768,0.8244761,-0.07991000000000001,-0.119072,54.215,-16.415,0.5775
1544,9121866,0.808738,-0.07808001,-0.1098,50.12,-14.175,-3.2025
1545,9121963,0.798246,-0.106628,-0.12322000000000001,45.7275,-13.3525,-6.1425
1546,9122061,0.7931220999999999,-0.090158,-0.13237000000000002,41.2125,-15.4525,-7.84
1547,9122159,0.8010520000000001,-0.096868,-0.14310599999999998,37.03,-18.305,-8.1725
1548,9122257,0.795074,-0.06600201,-0.15274400000000002,33.39,-21.0525,-6.72
1549,9122355,0.7812880999999999,-0.05209400000000001,-0.146766,31.57,-25.1475,-5.0225
1550,9122453,0.743834,-0.053070000000000006,-0.14078800000000002,30.7825,-28.735,-4.41
1551,9122551,0.71004,-0.04404201,-0.14396,29.575,-30.4325,-4.0425
1552,9122649,0.726388,-0.049532,-0.15054800000000002,27.4925,-28.77,-3.15
1553,9122747,0.753594,-0.035868000000000004,-0.150426,25.0075,-25.1475,-2.1875
1554,9122844,0.812154,-0.031232,-0.13859200000000002,22.2075,-23.5375,-1.6975
1555,9122942,0.8676640999999999,-0.040138,-0.112972,20.3175,-23.625,-2.275
1556,9123040,0.873886,-0.07344400000000001,-0.09223200000000001,19.1275,-25.9175,-2.6775
1557,9123138,0.8571719999999999,-0.087352,-0.07259,18.6725,-27.86,-3.0975
1558,9123236,0.868762,-0.094672,-0.063074,16.4325,-26.4075,-3.29
1559,9123334,0.9006040999999999,-0.10931199999999999,-0.0366,12.635,-25.7075,-2.73
1560,9123432,0.9151219999999999,-0.11394800000000001,-0.011834,6.6325,-25.3225,-0.4725
1561,9123530,0.9242720999999999,-0.116388,0.022082,-0.1925,-24.08,1.7325
1562,9123628,0.919392,-0.09650201,0.043432,-5.8275,-22.1025,3.0975
1563,9123725,0.8982860999999999,-0.06466001,0.056729999999999996,-9.4325,-20.02,4.305
1564,9123823,0.885476,-0.051972000000000004,0.06466001,-10.57,-15.26,5.985
1565,9123921,0.9086559999999999,-0.046238,0.068076,-11.4975,-6.3,7.9975
1566,9124019,0.94001,-0.034282,0.07527400000000001,-12.4775,5.355,10.5875
1567,9124117,0.982466,-0.020862000000000002,0.105652,-13.65,17.5525,13.125
1568,9124215,1.036268,-0.0051240009999999996,0.143716,-14.315,28.035,14.7525
1569,9124313,1.110444,0.003904,0.19154000000000002,-13.58,38.2025,15.3125
1570,9124411,1.207068,0.019032,0.220088,-13.685,46.6375,15.1025
1571,9124509,1.297836,0.05648601,0.20496,-15.7325,49.105,14.5775
1572,9124606,1.353224,0.049044,0.09784401,-16.625,44.1525,13.3
1573,9124704,1.353224,0.11895,0.0305,-14.735,39.4625,10.815
1574,9124802,1.3679860000000001,0.171898,-0.15189,-12.7575,34.37,7.1925
1575,9124900,1.426058,0.156892,-0.596946,-4.8475,40.7925,2.73
1576,9124998,1.595516,0.344528,-0.732854,8.0675,60.865,-0.455
1577,9125096,1.703974,0.627934,-0.563884,17.045,48.3,0.2275
1578,9125194,1.380064,0.6157341,-0.387838,25.655,4.2175,-1.2425
1579,9125292,1.008574,0.424926,-0.34111199999999997,28.2975,-18.8475,-5.425
1580,9125389,0.975512,0.213378,-0.416142,19.46,-13.055,-9.1875
1581,9125487,1.033706,0.009394,-0.552782,8.575,4.1475,-7.35
1582,9125585,1.057374,-0.15799000000000002,-0.596092,6.3525,18.585,-0.5775
1583,9125683,1.116544,-0.23301999999999998,-0.495076,7.5425,26.8625,6.125
1584,9125781,1.169614,-0.23851,-0.41907,12.0225,30.38,11.865
1585,9125879,1.2524520000000001,-0.135908,-0.385276,18.5675,42.2275,16.4675
1586,9125977,1.382016,-0.10052799999999999,-0.418216,23.275,53.27,20.2825
1587,9126075,1.410808,-0.08442401,-0.438468,20.825,47.7925,23.065
1588,9126172,1.285026,-0.01342,-0.45811,13.055,26.075,24.815
1589,9126270,1.14497,0.038796,-0.410896,8.75,3.57,23.8525
1590,9126368,1.081896,0.052703999999999994,-0.35563,9.0475,-5.4775,19.635
1591,9126466,1.03883,0.05002,-0.328912,10.4825,-7.875,13.755
1592,9126564,1.027362,0.04514,-0.293898,10.8675,-11.095,7.8575
1593,9126662,0.987956,0.016104,-0.265472,10.325,-14.3325,2.555
1594,9126760,0.9311040999999999,0.013054,-0.24668400000000001,8.75,-16.835,-2.66
1595,9126858,0.8901120000000001,0.018422,-0.237046,6.4925,-16.835,-6.4925
1596,9126956,0.8267940999999999,0.023180000000000003,-0.231434,4.0075,-16.205,-8.3825
1597,9127053,0.760304,0.040504000000000005,-0.20508200000000001,3.2025,-16.835,-8.295
1598,9127151,0.6985720999999999,0.09125599999999999,-0.20288599999999998,1.645,-15.2075,-6.895
1599,9127249,0.648796,0.133346,-0.18422,0.3675,-14.28,-5.8975
1600,9127347,0.633912,0.12175599999999999,-0.17397200000000002,-1.4,-13.5275,-4.48
1601,9127445,0.5980439999999999,0.09516001,-0.15274400000000002,-0.14,-12.7575,-2.66
1602,9127543,0.5784020000000001,0.091744,-0.139934,0.875,-9.94,-0.56
1603,9127641,0.589016,0.107726,-0.116632,1.75,-8.5575,0.2275
1604,9127739,0.562542,0.10687200000000001,-0.104676,2.555,-5.7925,0.455
1605,9127837,0.5854779999999999,0.1098,-0.084912,3.465,-2.765,-0.875
1606,9127934,0.608536,0.13359000000000001,-0.103822,4.6725,3.605,-1.1375
1607,9128032,0.608536,0.195322,-0.131028,5.11,5.7575,-0.2625
1608,9128130,0.58621,0.103822,-0.098332,5.7225,0.035,0.035
1609,9128228,0.5543680000000001,0.110776,-0.066734,4.9875,-0.8925,2.1
1610,9128326,0.554124,0.161772,-0.03599,2.625,0.2275,2.555
1611,9128424,0.5160600000000001,0.011224,-0.025131999999999998,-0.8925,-0.56,1.0325
1612,9128522,0.518134,0.046604,-0.011956,-4.1825,0.2625,0.1575
1613,9128620,0.521306,0.00976,-0.01098,-6.755,3.5,-1.12
1614,9128718,0.52704,0.00793,0.005246,-8.1375,4.83,-2.3625
1615,9128815,0.530212,0.007076001,0.010126000000000001,-9.5375,5.32,-3.2375
1616,9128913,0.5392399999999999,0.06039,0.015982,-9.6425,5.3725,-3.535
1617,9129011,0.573034,0.166408,0.01403,-8.7325,7.6125,-2.0125
1618,9129109,0.624518,0.233386,0.01464,-6.37,13.195,1.05
1619,9129207,0.711382,0.27999,0.043188,-1.9075,18.5325,6.6675
1620,9129305,0.8361879999999999,0.302804,0.071248,3.6925,24.0975,14.5075
1621,9129403,0.995398,0.23155599999999998,0.01952,8.225,31.0625,22.1025
1622,9129501,1.251354,0.0244,-0.00671,8.9425,33.6175,28.2625
1623,9129599,1.449726,-0.186904,0.08893801,13.09,26.11,33.6
1624,9129696,1.471686,-0.281698,0.26352,17.64,15.435,36.9075
1625,9129794,1.330654,-0.207644,0.39918400000000004,16.555,6.7025,31.605
1626,9129892,1.15046,-0.070882,0.406382,11.8475,4.6025,20.0025
1627,9129990,1.10105,0.038308,0.3843,7.7,4.865,7.035
1628,9130088,1.1448479999999999,0.132614,0.243878,7.28,9.1175,-4.9525
1629,9130186,1.3146719999999998,0.181902,0.117852,13.8075,24.78,-15.785
1630,9130284,1.441674,0.404186,-0.101748,18.34,32.1125,-20.7025
1631,9130382,1.410198,0.658068,-0.691496,15.96,31.36,-16.5375
1632,9130479,1.7165400000000002,0.271084,-0.5188659999999999,13.7725,45.0975,-18.5325
1633,9130577,2.104012,-0.559248,-0.377712,11.13,80.0275,-44.45
1634,9130675,1.7805900000000001,-0.589504,-0.56242,-8.3825,72.7125,-61.8625
1635,9130773,1.2932,-0.436638,-0.45115600000000006,-15.54,24.2375,-72.135
1636,9130871,1.18584,-0.127002,-0.506544,-9.1,7.105,-71.435
1637,9130969,1.187182,0.18483,-0.6128060000000001,0.5425,11.1125,-65.45
1638,9131067,1.330044,0.298046,-0.540704,12.4775,26.5125,-60.06
1639,9131165,1.491206,0.313052,-0.46506400000000003,15.89,37.1175,-52.535
1640,9131263,1.6781099999999998,0.306464,-0.43468599999999996,8.085,39.375,-44.065
1641,9131360,1.79279,0.25681,-0.423828,1.3125,32.8475,-39.5325
1642,9131458,1.690066,0.09235399999999999,-0.42114399999999996,0.0875,1.715,-41.1775
1643,9131556,1.528294,0.024766,-0.316346,-0.2275,-38.3775,-37.485
1644,9131654,1.314794,0.000976,-0.207156,-1.3125,-58.345,-29.4
1645,9131752,1.127646,0.026595999999999998,-0.14493599999999998,-3.0275,-63.7525,-20.685
1646,9131850,0.9943001,0.05856,-0.12261,-3.7975,-58.03,-11.9875
1647,9131948,0.8992620000000001,0.084912,-0.129442,-4.235,-48.0725,-5.7575
1648,9132046,0.8510719999999999,0.07198,-0.170068,-4.515,-39.0425,-3.465
1649,9132143,0.8555860999999999,0.031110000000000002,-0.159088,-2.73,-34.5625,-5.1275
1650,9132241,0.8220360000000001,-0.019154,-0.170922,-1.4,-33.95,-8.575
1651,9132339,0.817156,-0.058072000000000006,-0.180072,-0.385,-39.5325,-11.55
1652,9132437,0.72468,-0.0732,-0.14164200000000002,-0.4375,-47.5125,-13.09
1653,9132535,0.6320819999999999,-0.09625801,-0.119804,-4.445,-50.435,-15.89
1654,9132633,0.64355,-0.08454600000000001,-0.139934,-8.995,-46.7425,-16.8
1655,9132731,0.601826,-0.053924,-0.133224,-12.145,-46.165,-15.8025
1656,9132829,0.554856,-0.046116000000000004,-0.09211,-16.0475,-47.6,-16.8
1657,9132927,0.573034,-0.06527000000000001,-0.080886,-19.39,-41.02,-17.255
1658,9133025,0.538508,-0.070638,-0.07698201,-21.3325,-34.86,-15.365
1659,9133122,0.5049581,-0.07625,-0.071004,-22.47,-32.025,-13.3175
1660,9133220,0.47702,-0.06112201,-0.050386,-22.1375,-29.435,-11.41
1661,9133318,0.45298599999999994,-0.060634,-0.021838,-20.755,-25.585,-10.9375
1662,9133416,0.43761400000000006,-0.009272001,-0.017324000000000003,-18.9175,-19.5475,-10.745
1663,9133514,0.43798000000000004,0.025254,-0.026718000000000002,-16.66,-13.755,-9.8
1664,9133612,0.44469,0.066124,-0.015493999999999999,-12.635,-12.6525,-9.31
1665,9133710,0.45933,0.077592,-0.008418,-9.8,-13.72,-9.2225
1666,9133808,0.48080200000000006,0.102846,-0.014762,-9.3625,-12.74,-9.1
1667,9133906,0.487878,0.129564,-0.013175999999999998,-10.9725,-12.775,-9.1875
1668,9134003,0.499346,0.121268,-0.008052001,-14.4375,-13.5625,-8.8375
1669,9134101,0.5314321,0.08576601,-0.0034159999999999998,-19.6175,-14.2275,-8.0675
1670,9134199,0.5838920999999999,-0.000366,0.01769,-24.185,-12.9675,-7.7875
1671,9134297,0.670024,-0.07564,0.021838,-26.705,-8.995,-8.6275
1672,9134395,0.8011741,-0.138714,0.005612,-28.4725,-4.1825,-10.85
1673,9134493,0.9385460999999999,-0.12358599999999999,0.032574,-29.3125,-4.095,-13.685
1674,9134591,1.030778,-0.038918,0.019032,-28.3675,-12.355,-16.87
1675,9134689,1.081774,0.102358,-0.026595999999999998,-24.885,-20.93,-19.8275
1676,9134787,1.118374,0.236192,-0.002074,-21.21,-27.195,-22.0675
1677,9134884,1.2106059999999998,0.300608,0.081252,-17.9725,-29.6975,-24.885
1678,9134982,1.218292,0.401136,0.164212,-15.5575,-23.2925,-26.1625
1679,9135080,1.2334200000000002,0.5131319999999999,0.24851399999999998,-13.7025,-15.4875,-22.2775
1680,9135178,1.238788,0.49031800000000003,0.288164,-12.5475,-6.405,-13.615
1681,9135276,1.3893360000000001,0.267424,0.17836400000000002,-11.235,11.2175,-3.4475
1682,9135374,1.640534,0.163602,0.012444,-10.1675,26.74,7.245
1683,9135472,1.6914080000000002,0.07698201,-0.316224,-5.4425,21.315,17.01
1684,9135570,1.6524900000000002,0.267912,-0.437004,7.245,15.085,23.38
1685,9135668,1.8379299999999998,0.60451,-0.30866,8.8025,21.7875,30.38
1686,9135765,1.74216,0.59536,-0.36783000000000005,18.62,17.71,42.8575
1687,9135863,1.353224,0.52704,-0.251198,27.93,2.59,49.8225
1688,9135961,1.001498,0.20630199999999999,-0.39771999999999996,18.69,3.3775,47.88
1689,9136059,1.006622,-0.12334200000000001,-0.560346,13.65,32.095,38.675
1690,9136157,1.091046,-0.268034,-0.7095520000000001,1.1375,57.8025,30.66
1691,9136255,1.194136,-0.21862399999999999,-0.5321640000000001,2.24,74.445,25.375
1692,9136353,1.395924,-0.030987999999999998,-0.392962,5.7575,85.71500999999999,20.2825
1693,9136451,1.628578,0.11529,-0.379176,13.6675,95.375,16.73
1694,9136549,1.793766,0.22667600000000002,-0.505324,16.6775,86.94,20.685
1695,9136646,1.75741,0.215452,-0.496784,15.47,41.8775,29.26
1696,9136744,1.474126,0.18056,-0.395158,12.565,-10.92,37.3975
1697,9136842,1.190476,0.091744,-0.26657,9.555,-39.2,38.6575
1698,9136940,1.059326,-0.000244,-0.24522,3.8325,-38.1675,34.6675
