,T,ax,ay,az,gx,gy,gz
0,150828,0.51484,0.123708,-0.649284,14.77,-14.595,-14.175
1,150982,0.537044,0.13298,-0.7564001,135.065,-122.3775,-87.57
2,151079,0.575596,0.14078800000000002,-0.8091041,124.7925,-146.475,-50.2775
3,151176,0.579012,0.14396,-0.8076399999999999,56.35,-97.7025,-31.4475
4,151273,0.57706,0.142008,-0.80642,3.1325,-4.1475,-3.64
5,151370,0.57828,0.141032,-0.8054439999999999,2.03,-2.0825,-3.0275
6,151467,0.58194,0.142008,-0.8086161000000001,1.995,-2.1525,-2.975
7,151564,0.581208,0.142984,-0.806908,2.0475,-2.17,-3.08
8,151661,0.582184,0.143716,-0.8047121,2.03,-2.1175,-3.01
9,151758,0.5797441,0.14396,-0.8054439999999999,2.1,-2.1875,-2.975
10,151855,0.5814520000000001,0.144448,-0.8052,2.205,-2.2575,-3.01
11,151952,0.581696,0.14566800000000002,-0.8049561,2.3275,-2.3975,-2.9925
12,152049,0.581208,0.142984,-0.807396,2.4325,-2.4675,-2.905
13,152146,0.578036,0.14152,-0.8052,2.59,-2.6075,-2.7825
14,152243,0.583648,0.1403,-0.8081281,2.7475,-2.7125,-2.8175
15,152340,0.5795,0.140544,-0.8105680000000001,2.695,-2.73,-2.8525
16,152437,0.577548,0.142008,-0.8103239999999999,2.5725,-2.7825,-2.835
17,152534,0.57584,0.142984,-0.8100801,2.5025,-2.7475,-2.8525
18,152632,0.5787680000000001,0.142496,-0.8081281,2.5725,-2.555,-2.8175
19,152729,0.578036,0.140544,-0.808372,2.5375,-2.38,-2.7475
20,152826,0.5799880000000001,0.139324,-0.80886,2.345,-2.205,-2.7475
21,152923,0.580232,0.13859200000000002,-0.807396,2.275,-2.31,-2.8175
22,153020,0.5826720000000001,0.13859200000000002,-0.8066641,2.1875,-2.2575,-2.9575
23,153117,0.580232,0.141276,-0.8081281,2.065,-2.17,-3.1325
24,153214,0.580476,0.1403,-0.8086161000000001,2.1,-2.2575,-3.185
25,153311,0.579256,0.142252,-0.806908,2.135,-2.3625,-3.0975
26,153408,0.581208,0.14078800000000002,-0.8076399999999999,2.135,-2.345,-2.9925
27,153505,0.582428,0.139324,-0.805932,2.2575,-2.415,-3.0975
28,153602,0.581208,0.14005599999999999,-0.8081281,2.2575,-2.52,-3.185
29,153699,0.580476,0.13908,-0.805688,2.2575,-2.555,-3.22
30,153796,0.5814520000000001,0.140544,-0.8086161000000001,2.205,-2.4675,-3.2375
31,153893,0.578036,0.142252,-0.807396,2.135,-2.3625,-3.2725
32,153990,0.579012,0.144204,-0.8105680000000001,2.1175,-2.5025,-3.255
33,154087,0.580476,0.141032,-0.8091041,2.065,-2.485,-3.2375
34,154184,0.576572,0.140544,-0.805932,2.1175,-2.3625,-3.2725
35,154281,0.57706,0.143716,-0.8091041,2.1875,-2.38,-3.2725
36,154378,0.58072,0.14005599999999999,-0.80886,2.1,-2.345,-3.185
37,154475,0.579256,0.141276,-0.807396,2.0825,-2.345,-3.1675
38,154573,0.577548,0.14078800000000002,-0.80642,2.0825,-2.415,-3.255
39,154670,0.576816,0.14396,-0.807884,2.135,-2.4325,-3.2025
40,154767,0.57828,0.14396,-0.8076399999999999,2.17,-2.275,-3.115
41,154864,0.578036,0.140544,-0.806908,2.135,-2.3625,-3.0275
42,154961,0.580476,0.141764,-0.8086161000000001,2.2225,-2.1875,-3.045
43,155058,0.5795,0.13908,-0.80886,2.205,-2.17,-3.0975
44,155155,0.579256,0.138836,-0.8086161000000001,2.1,-2.1875,-3.2025
45,155252,0.578036,0.141764,-0.807396,2.17,-2.17,-3.1675
46,155349,0.577304,0.14274,-0.8091041,2.17,-2.0825,-3.255
47,155446,0.5787680000000001,0.142496,-0.8086161000000001,2.1525,-2.065,-3.185
48,155543,0.5785241,0.142008,-0.80886,2.1525,-2.135,-3.185
49,155640,0.5814520000000001,0.1403,-0.808372,2.24,-2.1525,-3.22
50,155737,0.5777920999999999,0.14152,-0.805688,2.275,-2.2225,-3.2025
51,155834,0.57584,0.14152,-0.805932,2.2925,-2.205,-3.0275
52,155931,0.57828,0.141032,-0.806908,2.31,-2.17,-3.15
53,156028,0.576572,0.13908,-0.808372,2.38,-2.205,-3.22
54,156125,0.57828,0.141276,-0.809348,2.205,-2.0825,-3.1325
55,156222,0.576328,0.13908,-0.8081281,2.0475,-2.0125,-3.15
56,156319,0.580232,0.140544,-0.8076399999999999,1.9425,-1.855,-3.115
57,156417,0.579012,0.141032,-0.80642,1.9075,-1.8025,-3.1325
58,156514,0.580232,0.140544,-0.8076399999999999,1.855,-1.75,-3.1675
59,156611,0.579012,0.142252,-0.8049561,1.9075,-1.8375,-3.115
60,156708,0.5787680000000001,0.14078800000000002,-0.8054439999999999,1.89,-1.8725,-3.2375
61,156805,0.579012,0.141764,-0.809348,1.9425,-1.8725,-3.22
62,156902,0.576572,0.141764,-0.8054439999999999,1.9775,-1.96,-3.01
63,156999,0.580476,0.139324,-0.807396,2.03,-2.03,-2.94
64,157096,0.580476,0.14078800000000002,-0.8052,1.9075,-2.065,-3.0275
65,157193,0.579256,0.14078800000000002,-0.806176,1.8375,-2.0825,-3.0975
66,157290,0.580232,0.14005599999999999,-0.8071520000000001,1.7675,-2.065,-3.115
67,157387,0.580964,0.141764,-0.8052,1.75,-2.03,-3.185
68,157484,0.578036,0.141032,-0.8044680999999999,1.8725,-2.1175,-3.08
69,157581,0.578036,0.14152,-0.8044680999999999,1.8725,-2.1525,-3.1325
70,157678,0.580232,0.141764,-0.8100801,1.925,-2.1175,-3.185
71,157775,0.5814520000000001,0.140544,-0.808372,2.0125,-2.1,-3.1675
72,157872,0.58072,0.1403,-0.806176,1.925,-2.1525,-3.045
73,157969,0.5814520000000001,0.142496,-0.8052,2.065,-2.275,-3.115
74,158066,0.58194,0.140544,-0.8076399999999999,2.17,-2.345,-3.115
75,158164,0.5814520000000001,0.139812,-0.8066641,2.1175,-2.31,-3.115
76,158261,0.58072,0.13908,-0.8052,2.1525,-2.415,-3.185
77,158358,0.5785241,0.14152,-0.806176,2.1175,-2.4325,-3.1325
78,158455,0.5785241,0.14152,-0.8076399999999999,2.1,-2.415,-3.1325
79,158552,0.577548,0.142496,-0.8076399999999999,2.2225,-2.45,-3.0975
80,158649,0.57828,0.14078800000000002,-0.808372,2.1875,-2.2925,-3.0625
81,158746,0.5787680000000001,0.141032,-0.806908,2.2225,-2.1,-2.9575
82,158843,0.579256,0.139324,-0.808372,2.135,-2.0125,-2.9925
83,158940,0.5799880000000001,0.1403,-0.807396,2.0125,-1.925,-3.115
84,159037,0.5814520000000001,0.137372,-0.8066641,2.0125,-2.0475,-3.15
85,159134,0.577548,0.13785999999999998,-0.807396,1.9075,-2.065,-3.185
86,159231,0.5799880000000001,0.144448,-0.8044680999999999,1.925,-2.17,-3.3425
87,159328,0.576572,0.14347200000000002,-0.8071520000000001,2.0475,-2.24,-3.2375
88,159425,0.58072,0.141032,-0.8076399999999999,2.1175,-2.3975,-3.15
89,159522,0.57828,0.143716,-0.80886,2.135,-2.3625,-3.0975
90,159619,0.5797441,0.14152,-0.8081281,2.2575,-2.3275,-3.0625
91,159717,0.581208,0.14005599999999999,-0.807884,2.275,-2.3625,-3.0275
92,159814,0.5795,0.14005599999999999,-0.8054439999999999,2.065,-2.3975,-3.0275
93,159911,0.580476,0.13908,-0.8081281,1.995,-2.415,-2.975
94,160008,0.579012,0.140544,-0.806176,1.995,-2.3275,-3.045
95,160105,0.578036,0.1403,-0.80642,2.0825,-2.275,-3.0275
96,160202,0.579012,0.13908,-0.805932,2.065,-2.2925,-2.94
97,160299,0.579256,0.141276,-0.806908,2.0825,-2.275,-3.01
98,160396,0.579256,0.140544,-0.807396,2.135,-2.2575,-3.045
99,160493,0.5785241,0.139324,-0.806176,2.205,-2.1875,-3.0275
100,160590,0.57828,0.14152,-0.8052,2.205,-2.24,-3.0275
101,160687,0.5795,0.141032,-0.807396,2.2575,-2.24,-2.9575
102,160784,0.58072,0.138348,-0.8054439999999999,2.17,-2.2575,-2.9225
103,160881,0.580964,0.14005599999999999,-0.806908,2.1525,-2.345,-2.975
104,160978,0.580232,0.14005599999999999,-0.8091041,2.205,-2.275,-2.975
105,161076,0.5785241,0.139812,-0.805932,2.2925,-2.275,-2.975
106,161173,0.5799880000000001,0.1403,-0.8076399999999999,2.2225,-2.2225,-2.9225
107,161270,0.580232,0.14005599999999999,-0.807884,2.135,-2.31,-2.8875
108,161367,0.5797441,0.140544,-0.805688,2.2225,-2.2925,-2.8175
109,161464,0.5797441,0.14005599999999999,-0.8066641,2.1525,-2.3275,-2.8525
110,161561,0.579012,0.14005599999999999,-0.806176,2.0825,-2.38,-2.8525
111,161658,0.576816,0.139812,-0.8039801,2.0125,-2.415,-2.94
112,161755,0.5785241,0.14078800000000002,-0.806908,2.1175,-2.45,-2.905
113,161852,0.57706,0.140544,-0.805688,2.1175,-2.345,-2.94
114,161949,0.5787680000000001,0.138836,-0.8076399999999999,2.065,-2.31,-2.8525
115,162046,0.5814520000000001,0.13859200000000002,-0.806176,2.0825,-2.345,-2.87
116,162143,0.580232,0.138836,-0.8071520000000001,2.135,-2.345,-2.9575
117,162240,0.5795,0.139568,-0.8081281,2.205,-2.2575,-3.045
118,162337,0.5787680000000001,0.139568,-0.807884,2.205,-2.31,-3.0975
119,162434,0.5785241,0.139812,-0.807884,2.24,-2.345,-3.01
120,162532,0.580232,0.13859200000000002,-0.806908,2.275,-2.2575,-3.01
121,162629,0.579012,0.138348,-0.8081281,2.24,-2.24,-3.0275
122,162726,0.57828,0.13908,-0.803492,2.2925,-2.2225,-2.9225
123,162823,0.579012,0.139812,-0.806176,2.38,-2.2575,-2.9925
124,162920,0.5795,0.13785999999999998,-0.8054439999999999,2.2225,-2.135,-2.905
125,163017,0.5785241,0.139324,-0.8047121,2.24,-2.1175,-3.0275
126,163114,0.5797441,0.139812,-0.806176,2.205,-2.275,-3.08
127,163211,0.578036,0.13908,-0.80886,2.2225,-2.17,-3.15
128,163308,0.575596,0.142008,-0.805688,2.2225,-2.275,-3.115
129,163405,0.578036,0.139324,-0.8076399999999999,2.2575,-2.2225,-3.045
130,163502,0.5795,0.14152,-0.808372,2.2225,-2.1525,-3.045
131,163599,0.579012,0.139324,-0.8076399999999999,2.24,-2.1875,-2.905
132,163696,0.579012,0.134688,-0.8042239999999999,2.0125,-2.0825,-2.9925
133,163793,0.576084,0.138836,-0.8047121,1.82,-2.1175,-3.2025
134,163890,0.578036,0.139812,-0.8044680999999999,1.855,-2.1525,-3.29
135,163987,0.5787680000000001,0.13761600000000002,-0.805932,1.9075,-2.1175,-3.2725
136,164085,0.5787680000000001,0.139812,-0.805688,1.8375,-2.03,-3.5
137,164182,0.57706,0.143716,-0.8076399999999999,1.7325,-1.925,-3.4825
138,164279,0.581208,0.14005599999999999,-0.8071520000000001,1.8725,-1.9775,-3.3775
139,164376,0.5797441,0.137128,-0.8049561,1.995,-2.1,-3.29
140,164473,0.579012,0.14078800000000002,-0.8042239999999999,2.0125,-2.2925,-3.325
141,164570,0.579012,0.14274,-0.8003201,2.0125,-2.3625,-3.4475
142,164667,0.582916,0.11955999999999999,-0.806176,1.365,-1.995,-3.92
143,164764,0.577548,0.148352,-0.81374,0.0,-1.5925,-4.515
144,164861,0.5838920999999999,0.127856,-0.8015399999999999,-0.1225,-1.5925,-4.305
145,164958,0.5814520000000001,0.149572,-0.806176,0.07,-2.1525,-4.305
146,165055,0.5936520000000001,0.156648,-0.827892,0.175,-2.38,-4.305
147,165152,0.6265921,0.132004,-0.8698601,-1.47,-2.415,-4.2175
148,165249,0.7034521,0.083936,-0.889868,-5.4775,-3.57,-5.5125
149,165347,0.706624,0.040016,-0.9032879999999999,-13.3175,-7.77,-10.08
150,165444,0.69662,0.125416,-0.845216,-24.8325,-12.9675,-17.045
151,165541,0.677588,0.166164,-0.8427761,-34.9125,-15.5925,-23.24
152,165638,0.654652,0.195932,-0.892064,-39.165,-19.005,-25.62
153,165735,0.583648,0.18446400000000002,-0.691008,-34.265,-22.26,-21.9275
154,165832,0.5648601,0.394304,-0.8410681000000001,-22.19,-24.4825,-12.2325
155,165929,0.508008,0.205936,-0.7571321,-8.995,-26.6175,-7.0
156,166026,0.55266,0.1464,-0.817156,-2.6075,-26.39,-3.0275
157,166123,0.6263479999999999,0.134444,-0.8383841000000001,-1.05,-27.02,-2.73
158,166220,0.61366,0.14078800000000002,-0.80642,-2.0825,-29.26,-4.2525
159,166317,0.607316,0.193736,-0.812032,-2.6775,-32.165,-6.195
160,166414,0.789828,0.312808,-0.9311040999999999,-0.5425,-35.07,-8.1375
161,166511,0.6280560000000001,0.225944,-0.7856801,7.7875,-43.54,-8.6975
162,166608,0.46603999999999995,0.14274,-0.7422481,10.1325,-48.3175,-10.465
163,166706,0.35502,0.145912,-0.7766521,9.03,-46.0775,-10.5175
164,166803,0.3721,0.24351199999999998,-0.774456,5.9325,-40.4425,-10.9725
165,166900,0.477996,0.271816,-0.8327720999999999,5.53,-34.37,-12.005
166,166997,0.549244,0.186172,-0.815448,5.915,-32.4975,-14.245
167,167094,0.45871999999999996,0.1098,-0.747128,6.16,-34.055,-16.3625
168,167191,0.43602799999999997,0.118584,-0.741272,4.235,-33.6875,-16.625
169,167288,0.459208,0.163236,-0.762012,2.7475,-32.7075,-15.9075
170,167385,0.47384799999999994,0.16835999999999998,-0.8095920999999999,3.3075,-32.13,-15.0325
171,167482,0.45164399999999993,0.142496,-0.8988959999999999,4.9175,-31.57,-13.1775
172,167579,0.43724799999999997,0.15616,-0.9330560999999999,5.635,-30.2925,-9.66
173,167676,0.385276,0.205204,-0.8991401,7.4375,-28.385,-4.7425
174,167773,0.37576,0.20788800000000002,-0.8754719999999999,10.5875,-24.5,-0.5775
175,167870,0.451888,0.17738800000000002,-0.9023121,11.9525,-19.635,1.26
176,167967,0.43432,0.149084,-0.8625401,12.1275,-17.465,1.575
177,168064,0.37698000000000004,0.143228,-0.830332,12.495,-15.4175,2.3625
178,168162,0.359656,0.159576,-0.834724,13.58,-11.3925,3.64
179,168259,0.397964,0.183976,-0.864492,14.7525,-6.8425,5.5475
180,168356,0.44676400000000005,0.187392,-0.8769360999999999,15.5225,-3.7975,7.1925
181,168453,0.458476,0.194712,-0.8764481,16.275,-2.5375,7.805
182,168550,0.4933681,0.204228,-0.8927959999999999,16.2925,-2.0475,7.7875
183,168647,0.5009319999999999,0.19154000000000002,-0.9018241,16.3625,-2.9225,7.035
184,168744,0.480192,0.180804,-0.8901120000000001,16.7125,-4.1475,5.95
185,168841,0.47604399999999997,0.155184,-0.88328,16.4325,-4.3925,4.865
186,168938,0.437492,0.122,-0.859856,16.17,-4.375,3.7625
187,169035,0.438468,0.109556,-0.8647360000000001,16.2575,-3.2375,4.06
188,169132,0.450424,0.119804,-0.854244,15.3125,-2.2225,4.5325
189,169229,0.384788,0.118584,-0.801296,15.4175,-1.4875,4.7075
190,169326,0.3233,0.12444000000000001,-0.749812,16.485,1.505,5.1275
191,169424,0.336964,0.149084,-0.7944641,18.2,7.3675,6.16
192,169521,0.459696,0.139324,-0.883768,18.305,12.565,6.2125
193,169618,0.457988,0.101016,-0.868884,17.5525,13.1425,5.215
194,169715,0.438224,0.09150001,-0.84424,16.6775,13.055,5.0225
195,169812,0.4575,0.10638399999999999,-0.8491200000000001,15.6975,14.07,5.355
196,169909,0.458476,0.101016,-0.85034,15.435,14.595,5.1975
197,170006,0.453108,0.096624,-0.84424,15.2425,15.225,5.32
198,170103,0.458476,0.10418800000000002,-0.855708,14.84,16.5375,5.7925
199,170200,0.471896,0.112972,-0.8620521000000001,13.6675,17.7275,5.7575
200,170297,0.4636,0.084912,-0.8447280999999999,13.125,18.69,5.9325
201,170394,0.46457600000000004,0.07978801,-0.8376520000000001,13.0375,19.915,6.37
202,170491,0.381616,0.07417601,-0.76372,13.16,21.3325,7.245
203,170588,0.31354,0.09613601,-0.7332201,12.6,25.5675,8.89
204,170685,0.333548,0.104676,-0.7093081,11.4625,32.9175,10.1325
205,170783,1.4152,0.119316,-1.8290240000000002,12.6,37.975,10.5
206,170880,0.28157600000000005,0.216428,-0.584868,22.2425,14.3675,11.7775
207,170977,0.635864,0.15201199999999998,-0.9952761,24.6925,9.275,10.36
208,171074,0.564616,0.12248800000000001,-0.8513161,26.005,7.2625,12.425
209,171171,0.538996,0.15372,-0.8420440999999999,21.7175,5.565,10.6575
210,171268,0.538752,0.10833599999999999,-0.8625401,15.54,8.4875,7.175
211,171365,0.548756,-0.008784,-0.897432,7.175,11.9,3.57
212,171462,0.5060560000000001,-0.00976,-0.897432,-2.1175,14.8575,-0.595
213,171559,0.557296,-0.07417601,-0.8927959999999999,-7.8925,17.675,-4.2875
214,171656,0.514352,0.0,-0.8757159999999999,-13.58,19.39,-7.8575
215,171753,0.52094,0.030987999999999998,-0.8625401,-17.7275,23.135,-11.305
216,171850,0.6029241,0.11321600000000001,-0.8513161,-20.5625,26.6175,-13.44
217,171947,0.525088,0.10858,-0.853512,-21.63,30.2925,-14.35
218,172044,0.558028,0.116876,-0.8447280999999999,-22.0675,35.0175,-13.93
219,172142,0.556808,0.133224,-0.8388721,-21.98,38.4475,-13.44
220,172239,0.5233800000000001,0.07442,-0.8464360000000001,-20.7025,41.4575,-12.88
221,172336,0.532652,0.048312,-0.8640040000000001,-22.3125,46.27,-12.7575
222,172433,0.5038600000000001,0.07637200000000001,-0.8664440000000001,-25.6025,54.425,-12.74
223,172530,0.505568,0.015372,-0.8910879999999999,-29.9775,65.835,-10.675
224,172627,0.40577199999999997,0.332084,-1.0401719999999999,-40.845,77.7875,-7.6475
225,172724,0.47604399999999997,-0.000488,-0.9301280000000001,-32.3925,101.1325,-7.6825
226,172821,0.45896400000000004,0.1952,-0.931348,-35.8225,127.5925,-7.07
227,172918,0.5011760000000001,0.148596,-0.9669721,-34.09,155.82,-3.3775
228,173015,0.485804,0.134444,-0.9150001,-34.405,182.7875,1.3475
229,173112,0.490196,0.166408,-0.8969440000000001,-33.95,212.905,5.8275
230,173209,0.537288,0.252784,-0.9206120000000001,-30.45,242.6025,14.0875
231,173306,0.46726,0.213988,-0.813008,-18.445,265.8425,26.7575
232,173404,0.586576,0.269376,-0.900848,-11.7775,283.605,41.2475
233,173501,0.8967,0.377712,-0.802272,-1.2775,289.3975,54.9675
234,173598,0.944768,0.23887600000000003,-0.7954399999999999,-3.535,302.365,55.6325
235,173695,1.198772,0.376004,-1.046028,-14.5075,300.1075,73.71
236,173792,1.70556,0.355752,-0.48678,-30.45,327.0225,95.9
237,173889,1.7687560000000002,0.32866799999999996,-1.023824,-22.82,420.665,117.5825
238,173986,1.67628,0.6034121,-1.0589600000000001,-1.4,470.1725,139.7025
239,174083,1.9895759999999998,0.652456,-1.47864,14.4725,501.795,157.22
240,174180,1.7355720000000001,0.685884,-1.486448,36.9775,513.1175,175.63
241,174277,1.7585080000000002,0.6878361,-1.395924,22.1375,516.11,156.5375
242,174374,1.9398,0.485072,-2.36192,-9.975,526.435,119.9625
243,174471,1.202676,0.668072,-2.251388,-81.74251,385.21,102.655
244,174568,1.7568,1.008208,-2.1179200000000002,-116.7775,218.0325,88.48001
245,174665,2.495388,1.6443159999999999,-4.192652,-86.20501,109.27,63.9625
246,174762,0.749812,1.4186159999999999,-2.566148,-34.72,-66.815,50.575
247,174860,0.118828,0.9840521000000001,-1.9366279999999998,-12.3725,-155.2075,36.9075
248,174957,-0.38308000000000003,0.7366361,-1.312476,-1.96,-191.5375,21.1925
249,175054,-0.40821199999999996,0.60146,-1.087996,-17.2725,-196.7,3.955
250,175151,-0.182268,0.604144,-1.09312,-36.3475,-193.4275,-13.3175
251,175248,0.061,0.651968,-1.161196,-49.77,-198.3625,-28.3675
252,175345,0.328912,0.6973520000000001,-1.26758,-51.8175,-212.8875,-40.4075
253,175442,0.5631520000000001,0.662948,-1.3224799999999999,-43.3475,-235.76,-50.4875
254,175539,0.66856,0.5455840000000001,-1.253184,-29.8725,-264.5825,-59.395
255,175636,0.6605081,0.349896,-1.078724,-19.425,-291.2525,-66.4475
256,175733,0.6258600000000001,0.15372,-0.891576,-19.5825,-308.91,-71.9425
257,175830,0.604144,0.03538,-0.759328,-30.1875,-316.61,-75.8975
258,175927,0.6141479999999999,-0.011224,-0.7005239999999999,-43.8375,-315.7,-77.0175
259,176024,0.6605081,-0.011712,-0.7078439999999999,-54.775,-309.33,-74.34
260,176122,0.7283400999999999,-0.012688,-0.756644,-60.4975,-300.5275,-67.585
261,176219,0.8095920999999999,-0.025131999999999998,-0.800076,-62.755,-292.18,-58.3275
262,176316,0.858392,-0.058316,-0.8296,-65.975,-285.11,-49.1575
263,176413,0.8813280000000001,-0.06344,-0.8308200000000001,-72.2575,-277.69,-41.44
264,176510,0.8918200000000001,0.006832001,-0.8518040000000001,-78.5925,-268.9225,-35.28
265,176607,0.918416,0.11126400000000002,-0.900848,-80.36,-257.635,-28.945
266,176704,0.9379360000000001,0.193736,-0.936472,-74.935,-244.8775,-21.9275
267,176801,0.9418401,0.255712,-0.964776,-65.555,-231.3675,-16.065
268,176898,0.9635560999999999,0.299632,-1.015772,-55.0375,-215.915,-13.335
269,176995,1.0736,0.338672,-1.108492,-45.255,-199.43,-13.8425
270,177092,1.2749,0.368684,-1.2695319999999999,-36.7325,-184.7125,-17.01
271,177189,1.6504159999999999,0.389424,-1.555256,-31.99,-176.855,-23.8
272,177287,2.064484,0.332084,-1.807552,-34.6325,-185.99,-37.205
273,177384,2.35094,0.267424,-1.90808,-49.8575,-217.7,-62.8425
274,177481,2.3973,0.304512,-1.7882759999999998,-78.61,-262.01,-101.71
275,177578,2.2408959999999998,0.387472,-1.4569239999999999,-106.12,-301.7525,-148.0325
276,177675,2.0825400000000003,0.25790799999999997,-1.049688,-118.3875,-320.6175,-193.725
277,177772,2.229428,0.248392,-0.6919841,-120.96,-316.575,-236.0225
278,177869,2.6901,0.249856,-0.24717199999999998,-110.915,-300.65,-266.1925
279,177966,3.3181559999999997,-0.3721,0.658312,-85.1725,-279.405,-279.0725
280,178063,3.782,-1.4457,2.005436,-83.72001,-249.445,-282.9225
281,178160,3.470412,-2.014464,2.960208,-142.205,-197.54,-293.4925
282,178257,3.076596,-1.4396,2.709376,-199.99,-103.985,-290.0275
283,178354,2.7130360000000002,-0.61122,1.878312,-160.7025,2.2925,-234.7975
284,178451,2.5449200000000003,-0.5131319999999999,0.9057280999999999,-26.32,90.30001,-132.4225
285,178548,2.383636,-0.8256960999999999,0.028548,97.86,135.6075,-33.145
286,178646,2.509052,-0.362584,0.08052000000000001,158.6725,176.47,50.3125
287,178743,0.568764,-0.401868,0.375272,193.515,182.6475,133.07
288,178840,0.387228,-0.133224,-2.008852,220.08,224.735,197.0675
289,178937,1.245132,-0.8471681000000001,-1.6501720000000002,141.0325,206.01,130.235
290,179034,1.981768,-0.250832,-1.053836,26.985,231.245,48.58
291,179131,2.81942,-0.27205999999999997,-2.245532,78.855,222.0925,89.285
292,179228,1.351516,0.010248,-1.344196,102.3925,145.915,106.5575
293,179325,0.37454,0.204716,-0.5380199999999999,115.15,101.9025,114.59
294,179422,0.818132,0.118828,-0.9511120000000001,109.9525,118.405,107.555
295,179519,1.005524,-0.219844,-1.05164,107.59,117.7575,83.93001
296,179616,1.569652,0.159332,-1.706536,99.27750999999999,106.295,73.90250999999999
297,179713,1.9644439999999999,-0.10809200000000001,-1.560868,113.4175,60.83,68.145
298,179810,0.11102000000000001,-0.282308,-0.806176,117.3725,-13.125,52.325
299,179907,0.743224,-0.038796,-0.944768,76.405,16.5025,37.94
300,180004,0.429196,0.090036,-0.9911281,56.6825,10.255,27.0725
301,180102,0.6344,-0.152988,-1.05774,41.3,19.705,18.83
302,180199,0.462624,-0.025863999999999998,-0.904752,23.2225,22.8725,10.5
303,180296,0.557296,0.0244,-0.9113399999999999,7.28,29.1725,3.185
304,180393,0.6107319999999999,-0.010736,-0.8610761,-2.59,31.9725,-1.4525
305,180490,0.5814520000000001,0.111996,-0.853512,-10.64,32.13,-6.0025
306,180587,0.5516840000000001,0.06490399999999999,-0.879864,-15.0325,33.705,-8.3125
307,180684,0.5648601,0.113704,-0.8945040000000001,-17.5,36.295,-8.8725
308,180781,0.590968,0.082228,-0.8569280999999999,-18.2,38.6575,-8.75
309,180878,0.596336,0.112728,-0.822524,-18.6025,38.6925,-9.03
310,180975,0.5843801,0.191296,-0.8420440999999999,-18.7425,38.255,-8.5575
311,181072,0.5743761,0.093696,-0.8422879999999999,-15.715,38.57,-6.895
312,181169,0.5980439999999999,0.133468,-0.823744,-15.645,41.4575,-6.2825
313,181266,0.6292760000000001,0.121268,-0.80276,-15.6975,42.805,-5.8625
314,181363,0.5875520000000001,0.137128,-0.8461921,-15.4,44.0475,-4.8475
315,181460,0.49166000000000004,0.06880801,-0.8479,-13.0375,47.4075,-4.585
316,181558,0.597312,0.10516400000000001,-0.8015399999999999,-12.705,55.755,-6.265
317,181655,0.5875520000000001,0.07417601,-0.795928,-11.55,60.2875,-7.245
318,181752,0.610488,0.07246799999999999,-0.7822640000000001,-10.9025,63.5775,-7.7875
319,181849,0.64172,0.08808401,-0.754692,-11.0075,65.24,-8.505
320,181946,0.654652,0.10516400000000001,-0.7478600000000001,-12.285,66.46500999999999,-9.7475
321,182043,0.654896,0.12688,-0.711016,-12.8275,66.43,-10.99
322,182140,0.6736840000000001,0.130052,-0.7117479999999999,-13.475,65.7825,-11.48
323,182237,0.6600201,0.12248800000000001,-0.727364,-13.825,64.085,-11.4975
324,182334,0.652212,0.10736,-0.733464,-12.6175,62.9475,-12.11
325,182431,0.649528,0.1586,-0.74054,-12.355,63.1925,-12.705
326,182528,0.6653880999999999,0.228384,-0.7366361,-12.4075,64.435,-10.3425
327,182625,0.6707561,0.21813600000000002,-0.738344,-11.27,66.7975,-4.375
328,182722,0.6753920999999999,0.186904,-0.701256,-11.305,70.56,1.365
329,182819,0.6946681,0.14469200000000002,-0.7015,-11.585,76.0025,6.125
330,182917,0.680516,0.10004,-0.69052,-12.3725,82.5825,8.295
331,183014,0.6688041,0.05368,-0.71614,-13.685,90.545,7.105
332,183111,0.646844,0.08954801,-0.7283400999999999,-15.47,101.5175,3.01
333,183208,0.625128,0.122,-0.73932,-16.38,116.4625,0.49
334,183305,0.61366,0.140544,-0.726144,-17.3075,132.1075,0.5425
335,183402,0.5968241,0.107116,-0.7503,-16.485,146.965,3.1675
336,183499,0.605364,0.10516400000000001,-0.780556,-13.79,164.1675,3.6575
337,183596,0.6375721,0.247416,-0.604876,-6.615,170.4675,5.5125
338,183693,0.806908,0.17616800000000002,-0.8105680000000001,-8.085,184.5025,1.68
339,183790,0.33305999999999997,0.203252,-0.8405800999999999,-12.4075,169.61,13.37
340,183887,0.503372,0.371612,0.071492,-5.5475,155.3125,44.205
341,183984,0.7195560000000001,0.05563200000000001,-0.7795801,18.7075,236.5475,59.64
342,184081,2.6715560000000003,0.334768,0.52582,-7.98,257.2675,51.45
343,184178,0.785924,0.382836,-0.8571719999999999,-85.6625,398.8425,59.57
344,184276,1.331996,0.36087600000000003,-0.9613601,-89.86251,503.86,75.39
345,184373,2.0461840000000002,0.46433199999999997,-0.7232161,-92.85501,560.9275,95.1475
346,184470,2.459764,0.45432799999999995,-1.39812,-60.0075,573.3175,171.43
347,184567,2.297016,0.40821199999999996,-1.9954319999999999,42.1575,573.3875,241.0625
348,184664,3.024136,0.499224,-2.32166,77.6125,554.5925,252.3325
349,184761,4.966132,1.3571280000000001,-2.0618,4.41,501.1825,220.465
350,184858,2.518568,0.5655920999999999,-1.968592,-71.5225,550.1475,126.98
351,184955,1.869284,-0.355752,-4.170936,-143.08,477.3475,116.305
352,185052,4.2053400000000005,0.790804,-3.956948,-214.83,126.7875,158.13
353,185149,2.480016,1.6601759999999999,-3.74784,-208.8975,-28.8925,155.1375
354,185246,1.182668,1.785836,-2.354844,-160.615,-236.1625,155.8725
355,185343,0.543876,1.6731080000000003,-1.741916,-99.225,-281.5575,144.3925
356,185441,0.134444,1.3908,-1.128744,-51.94,-303.0475,129.71
357,185538,0.13078399999999998,1.252208,-0.9376921,-29.19,-295.435,102.8825
358,185635,0.194712,1.112152,-0.843508,-23.8525,-287.2275,68.7575
359,185732,0.317932,1.0323639999999998,-0.8100801,-29.295,-285.9675,29.925
360,185829,0.484828,0.9679481,-0.8476561,-38.675,-290.0275,-11.5675
361,185926,0.577548,0.9232961,-0.8100801,-43.5225,-301.0,-51.3975
362,186023,0.6573359999999999,0.8518040000000001,-0.792512,-42.77,-313.18,-85.97751
363,186120,0.72956,0.737124,-0.74542,-37.31,-324.6075,-113.4
364,186217,0.7771399999999999,0.592432,-0.682956,-29.9075,-333.795,-134.085
365,186314,0.8047121,0.428708,-0.6058520000000001,-22.6975,-339.675,-148.3125
366,186411,0.813984,0.25302800000000003,-0.5380199999999999,-19.495,-340.7775,-158.235
367,186508,0.8674200000000001,0.10394400000000001,-0.534848,-23.0125,-336.9275,-164.3775
368,186605,0.9577,0.013175999999999998,-0.5826720000000001,-32.5325,-330.645,-167.545
369,186702,1.0504200000000001,-0.018056,-0.654408,-43.8375,-325.3425,-166.4425
370,186800,1.1094680000000001,-0.030012,-0.7317560000000001,-52.36,-321.2825,-159.7225
371,186897,1.200968,-0.08052000000000001,-0.807396,-57.6975,-316.6975,-148.26
372,186994,1.283196,-0.116388,-0.858392,-62.965,-313.25,-134.5225
373,187091,1.322724,-0.105896,-0.908168,-70.245,-311.6925,-120.6975
374,187188,1.337852,-0.043676,-0.9511120000000001,-77.6825,-309.2775,-108.4475
375,187285,1.392752,0.028548,-1.0140639999999999,-82.0225,-303.5025,-98.7175
376,187382,1.479372,0.079544,-1.104344,-82.635,-296.205,-90.755
377,187479,1.6028360000000001,0.12029200000000001,-1.2141440000000001,-83.30001,-289.17,-84.385
378,187576,1.77388,0.155672,-1.334924,-86.0125,-284.13,-80.2025
379,187673,1.951268,0.214232,-1.416908,-92.71500999999999,-282.59,-79.6425
380,187770,2.114016,0.28694400000000003,-1.4459440000000001,-103.8975,-283.4125,-85.5225
381,187867,2.399984,0.387472,-1.456192,-121.0825,-284.5675,-104.2825
382,187964,2.686196,0.5192319999999999,-1.367376,-139.8075,-290.85,-137.1825
383,188061,2.661064,0.17934,-1.06994,-149.555,-300.265,-181.37
384,188159,2.732556,-0.31598000000000004,-0.7117479999999999,-161.525,-298.4275,-238.77
385,188256,3.6275480000000004,-0.572912,-0.1342,-190.505,-292.32,-294.0525
386,188353,4.663084,-0.8971879999999999,0.8249639999999999,-207.62,-290.3075,-333.9175
387,188450,4.144340000000001,-1.267824,2.0364240000000002,-200.235,-278.5125,-362.95
388,188547,3.2939999999999996,-1.363472,2.791116,-163.7125,-213.675,-361.305
389,188644,2.4612279999999997,-1.284904,2.652036,-97.14251,-100.4675,-290.3425
390,188741,2.298236,-1.091656,1.717516,-8.3125,21.6825,-166.5125
391,188838,2.377536,-0.8418,0.26913200000000004,64.4875,100.8875,-41.895
392,188935,2.76818,0.32866799999999996,-0.312076,117.565,153.1075,49.2275
393,189032,1.937116,-0.08369201,1.063108,218.015,150.535,114.065
394,189129,1.037488,-2.7486599999999997,2.059116,322.665,196.07,164.7625
395,189227,0.5885281,-1.768268,-0.936472,163.1525,292.7575,146.7375
396,189323,4.464468,0.006344,-3.264964,-45.2375,426.3,104.9475
397,189420,4.563288,-0.37551599999999996,-2.29238,32.0425,301.9975,103.495
398,189518,1.8236560000000002,-0.40138,-1.735328,84.9625,182.3325,120.2775
399,189615,0.165432,-0.142252,-0.54656,96.63501,129.185,142.03
400,189712,0.514596,0.17641199999999999,-0.431148,75.565,150.255,126.84
401,189809,2.971676,1.800232,-2.687904,67.795,168.35,107.31
402,189906,1.414224,0.302804,-1.048224,141.5925,93.9575,95.9
403,190003,0.9086559999999999,-0.823256,-1.212192,147.4025,42.035,72.2925
404,190100,1.019188,0.028548,-0.9347639999999999,95.1475,38.2025,53.7775
405,190197,0.567788,0.15128,-1.004548,77.0175,16.7475,36.33
406,190294,0.576572,-0.016836,-0.961116,66.7275,19.1625,25.235
407,190391,0.502152,-0.04148,-0.89792,54.46,17.4475,20.2125
408,190488,0.506788,0.08052000000000001,-0.9079241,38.2375,22.47,13.195
409,190585,0.536556,0.041236,-0.8930401,24.15,27.055,7.8575
410,190682,0.559004,-0.023912,-0.8913321,10.9725,30.485,2.0125
411,190779,0.5463161,0.063684,-0.869128,0.4025,31.57,-2.38
412,190877,0.540704,0.05929201,-0.8613200000000001,-2.9575,32.5675,-3.5175
413,190974,0.563884,0.030256,-0.87718,-6.51,34.685,-4.9875
414,191071,0.601216,0.135908,-0.8300879999999999,-11.4975,36.575,-7.1925
415,191168,0.6156119999999999,0.139324,-0.8249639999999999,-13.2125,36.505,-7.98
416,191265,0.60512,0.221796,-0.809348,-13.055,35.0525,-6.475
417,191362,0.570472,0.08466801,-0.8235001000000001,-10.045,35.14,-4.9175
418,191459,0.5655920999999999,0.11955999999999999,-0.805688,-9.24,37.8175,-6.6675
419,191556,0.604876,0.123464,-0.7986121,-9.695,40.46,-8.9075
420,191653,0.63562,0.165432,-0.790072,-11.5325,41.16,-9.45
421,191750,0.60024,0.046604,-0.798856,-12.9675,40.74,-8.155
422,191847,0.58072,0.10248,-0.8117880000000001,-19.3725,42.315,-8.3125
423,191944,0.5260640000000001,0.172264,-0.7849480999999999,-16.905,46.935,-9.625
424,192041,0.639524,0.08174001,-0.783972,-10.43,52.5525,-10.325
425,192139,0.6378159999999999,0.134688,-0.757376,-11.725,52.815,-10.64
426,192236,0.656848,0.115656,-0.734928,-10.7625,53.1125,-9.835
427,192333,0.673928,0.142008,-0.7032079999999999,-11.725,51.8,-9.73
428,192430,0.672708,0.11345999999999999,-0.687592,-10.9725,49.805,-10.9375
429,192527,0.654408,0.12395199999999999,-0.726144,-10.2025,46.83,-13.58
430,192624,0.618784,0.203984,-0.769576,-9.59,43.6275,-14.0875
431,192721,0.621224,0.22667600000000002,-0.7722600000000001,-7.245,42.0875,-9.9575
432,192818,0.623908,0.282308,-0.7549359999999999,-6.405,41.65,-2.7125
433,192915,0.62098,0.21447600000000003,-0.7700640999999999,-4.8825,44.135,6.37
434,193012,0.639524,0.18446400000000002,-0.7556681,-5.11,50.05,13.79
435,193109,0.684664,0.11224,-0.7320001,-5.8275,57.6625,19.04
436,193207,0.660996,0.07027201,-0.7266321,-8.9425,65.975,20.5975
437,193304,0.6351319999999999,0.067588,-0.7476161,-13.6675,76.9125,18.9875
438,193401,0.6068279999999999,0.07612801,-0.7612800999999999,-17.71,89.3025,15.4875
439,193498,0.613904,0.060512,-0.7510321,-19.2325,105.735,9.2925
440,193595,0.609268,0.07564,-0.776896,-20.6675,122.57,1.925
441,193692,0.5885281,0.059536,-0.781044,-19.495,139.72,-4.9175
442,193789,0.586088,0.082228,-0.813984,-15.89,158.7075,-11.27
443,193886,0.534848,0.130052,-0.8230120999999999,-9.38,177.6075,-15.0675
444,193983,0.7288279999999999,0.308904,-0.73078,-2.73,188.3,-11.1125
445,194080,0.71126,0.17836400000000002,-0.774456,-0.7525,203.5425,-16.485
446,194178,0.07808001,0.155916,-0.794708,-1.8375,185.7625,-7.1925
447,194275,0.8103239999999999,0.417484,-0.6514800000000001,7.8225,189.7875,19.9675
448,194372,0.391376,0.31842,-0.056852,43.7675,266.7,25.9525
449,194469,3.3857440000000003,0.557296,-0.9450120000000001,-24.85,350.1225,13.055
450,194566,0.729072,0.217892,-1.278804,-76.65,515.4099,57.68
451,194663,1.7275200000000002,0.613416,-0.7227279999999999,-89.0225,572.32,51.7125
452,194760,2.486116,0.60634,-1.590148,-78.995,573.405,105.21
453,194857,2.74988,1.017236,-2.9487400000000004,-23.4325,573.405,191.1875
454,194954,2.703276,0.868884,-2.912384,73.7275,565.285,245.5425
455,195051,4.6116,1.5323200000000001,-2.502708,72.1175,495.6,231.91
456,195149,2.864072,0.325008,-2.552484,-18.1475,518.14,156.065
457,195246,1.6513919999999997,-0.8571719999999999,-3.8259199999999995,-110.39,538.9125,116.55
458,195343,3.972808,0.10248,-3.4406440000000003,-273.5775,202.1425,153.1075
459,195440,3.1756599999999997,1.57502,-4.339052,-265.475,-17.5,205.555
460,195537,1.249768,1.9014919999999997,-2.3841240000000004,-217.0875,-245.4725,227.92
461,195634,0.686128,2.00202,-1.752896,-146.5975,-308.945,226.03
462,195731,0.115168,1.783152,-1.1709559999999999,-76.86,-325.5525,213.0275
463,195828,-0.072712,1.54208,-0.8244761,-35.035,-318.71,183.855
464,195925,-0.00976,1.318332,-0.73444,-25.34,-303.2575,141.33
465,196022,0.079056,1.2056040000000001,-0.659044,-39.3925,-296.45,89.0225
466,196119,0.249612,1.1385040000000002,-0.72346,-62.0375,-293.3,30.9925
467,196217,0.461892,1.123132,-0.7820199999999999,-81.77750999999999,-296.7125,-28.7525
468,196314,0.619028,1.084824,-0.8025161,-90.1775,-306.39,-83.94751
469,196411,0.7190681,0.981612,-0.7788480999999999,-85.99501,-317.59,-129.71
470,196508,0.8142281,0.827892,-0.743712,-73.465,-325.4475,-164.955
471,196605,0.9254921,0.632448,-0.708576,-58.1175,-329.4725,-191.8875
472,196702,1.055056,0.452376,-0.7176041,-45.605,-332.4475,-211.4525
473,196799,1.215852,0.28938400000000003,-0.744688,-37.7125,-334.9325,-223.8075
474,196896,1.31882,0.099552,-0.750788,-33.775,-338.8875,-228.41
475,196993,1.369084,-0.07808001,-0.755912,-36.6975,-342.9825,-226.7825
476,197090,1.4032440000000002,-0.22252800000000003,-0.760792,-47.985,-345.52,-219.835
477,197187,1.438136,-0.279868,-0.7808001,-65.73,-345.6775,-208.88
478,197284,1.4752239999999999,-0.254492,-0.8300879999999999,-83.4925,-343.1575,-193.7775
479,197382,1.536224,-0.171044,-0.8893800999999999,-95.69,-338.2225,-175.665
480,197479,1.6265040000000002,-0.07076001,-1.001132,-98.28,-332.0625,-156.6075
481,197576,1.6631040000000001,0.011712,-1.069696,-92.1725,-326.795,-138.635
482,197673,1.695556,0.06270801,-1.113372,-80.9375,-320.6875,-122.255
483,197770,1.741916,0.043676,-1.138016,-71.3125,-312.83,-106.225
484,197867,1.8287799999999999,0.017568,-1.13582,-69.80751,-304.185,-90.755
485,197964,1.9285759999999998,0.027083999999999997,-1.090436,-78.365,-295.05,-76.79
486,198061,2.07156,0.111508,-1.041636,-92.83751,-283.8675,-65.6425
487,198158,2.4038880000000002,0.247416,-1.086532,-107.555,-270.3225,-59.64
488,198255,2.785748,0.24863600000000002,-1.1041,-118.72,-262.01,-63.105
489,198352,2.8904240000000003,-0.425048,-0.9110959999999999,-131.5825,-263.9175,-89.4425
490,198450,3.294488,-0.661972,-0.438956,-178.08,-276.6575,-148.68
491,198547,3.907172,-0.9037761000000001,0.47653199999999996,-236.425,-295.575,-217.3325
492,198644,3.921324,-1.087996,1.47986,-271.985,-294.6825,-286.2125
493,198741,3.352804,-1.110932,2.3772919999999997,-240.9575,-245.4025,-339.0275
494,198838,2.632272,-0.8927959999999999,2.565172,-120.89,-145.915,-314.125
495,198935,2.05936,-1.259284,2.196976,50.33,-17.465,-188.545
496,199032,2.250656,-1.2195120000000002,1.429352,208.6875,113.3475,-20.5275
497,199129,2.197952,-0.579012,1.299056,316.1025,219.975,124.915
498,199226,2.9524,-1.854644,0.386496,368.8475,276.01,204.1025
499,199323,1.759972,-3.5650839999999997,0.674416,294.7525,287.84,188.615
500,199421,3.511648,-0.702476,-3.183468,0.665,329.14,84.8575
501,199518,4.320508,0.091988,-3.170292,-17.3775,335.5275,86.25751
502,199615,2.3358119999999998,-0.387228,-1.52134,73.4475,229.9675,91.42
503,199712,0.15762400000000001,-0.610488,-0.61732,86.9575,171.4125,74.06
504,199809,-0.053924,-0.885964,-0.475312,55.1775,185.6225,67.0425
505,199906,4.601351999999999,1.753872,-2.79136,12.775,217.1225,64.68
506,200003,1.350052,-0.5219159999999999,-0.803248,135.625,76.3875,76.2125
507,200100,0.873276,-0.6095119999999999,-1.45424,125.93,23.1,63.245
508,200197,0.709064,0.533628,-0.8113001,71.82,29.82,42.175
509,200294,0.912316,0.001952,-1.064084,56.63,27.58,24.885
510,200391,0.634156,0.28548,-0.8940161,35.3675,21.1575,14.14
511,200489,0.556808,0.065148,-0.8949921000000001,19.25,23.3625,8.7675
512,200586,0.741272,0.100772,-0.888648,9.345,25.83,3.535
513,200683,0.527528,0.08857201,-0.8730319999999999,0.0175,24.465,-1.8025
514,200780,0.5546121,0.063684,-0.8918200000000001,-4.375,27.72,-4.2525
515,200877,0.5612,0.104676,-0.8525360000000001,-7.7525,31.36,-5.285
516,200974,0.5843801,0.126148,-0.8220360000000001,-6.685,32.935,-4.7775
517,201071,0.6019479999999999,0.10906800000000001,-0.8095920999999999,-6.8075,33.11,-4.34
518,201168,0.568276,0.090768,-0.805688,-8.4525,34.405,-5.565
519,201265,0.5726680000000001,0.133468,-0.838628,-10.0275,38.3425,-8.8025
520,201362,0.589504,0.062220000000000004,-0.837408,-11.4275,43.295,-11.0075
521,201459,0.627568,0.1769,-0.794708,-17.0975,46.9525,-11.235
522,201556,0.6034121,0.10492,-0.8076399999999999,-20.5275,47.8625,-9.03
523,201654,0.565836,0.046116000000000004,-0.8071520000000001,-23.7125,51.8,-10.15
524,201751,0.48165600000000003,0.242292,-0.8730319999999999,-27.125,61.67,-16.695
525,201848,0.6283,0.05612,-0.8015399999999999,-15.9775,76.685,-22.505
526,201945,0.604388,0.24790399999999999,-0.7427361,-18.06,83.94751,-26.6525
527,202042,0.630984,0.249612,-0.7451760000000001,-17.71,86.11751,-24.7975
528,202139,0.644892,0.323788,-0.735416,-14.1225,85.505,-18.34
529,202236,0.699548,0.281332,-0.6771,-7.77,82.4425,-9.8
530,202333,0.742492,0.24570799999999998,-0.6317159999999999,-2.3625,77.21,-2.1875
531,202430,0.762744,0.242536,-0.639768,-0.6825,70.21,3.185
532,202527,0.773968,0.204228,-0.607804,1.7325,61.9325,7.2625
533,202624,0.781532,0.1769,-0.599508,1.995,52.955,10.15
534,202721,0.773724,0.120048,-0.58316,2.345,44.7125,11.27
535,202818,0.7598161,0.109556,-0.585356,1.68,37.38,9.8175
536,202915,0.724436,0.11736400000000001,-0.62952,2.7125,31.6575,7.385
537,203013,0.6973520000000001,0.200324,-0.668072,4.1125,28.7875,6.4575
538,203110,0.684176,0.25790799999999997,-0.68686,4.1125,29.89,8.4525
539,203207,0.670268,0.22082,-0.7088201,3.535,33.7225,13.125
540,203304,0.700036,0.136152,-0.696376,2.59,39.585,17.185
541,203401,0.7015,0.101016,-0.709064,-1.015,46.6375,18.62
542,203498,0.6956439999999999,0.125904,-0.6883239999999999,-4.8125,54.88,18.0775
543,203595,0.6993041,0.09442801,-0.6878361,-7.14,64.6975,17.255
544,203692,0.679784,0.09320801,-0.70394,-10.1325,76.1775,14.7
545,203789,0.6724640000000001,0.10638399999999999,-0.7093081,-11.48,88.8125,10.5875
546,203886,0.656848,0.09711201,-0.727608,-10.6575,102.8125,6.3875
547,203983,0.6224441,0.029036000000000003,-0.760792,-9.0825,116.0075,0.8925
548,204081,0.6505041,0.098088,-0.653676,-3.71,124.32,-5.81
549,204178,0.692472,0.108824,-0.787144,-2.2225,145.9675,-21.245
550,204275,0.606096,0.139568,-0.8784,-1.33,158.34,-30.975
551,204372,0.203984,0.214232,-0.819108,-6.0375,143.955,-20.23
552,204469,0.764208,0.36966,-0.527528,7.0875,155.4525,5.4775
553,204566,0.534604,0.27328,-0.5058121,40.5825,225.155,5.32
554,204663,3.7944440000000004,0.5694961,-0.690764,-4.0775,275.3975,-14.1925
555,204760,0.160064,0.039528,-0.793488,-66.4475,421.925,26.6175
556,204857,1.412272,0.423584,-1.494256,-66.1325,545.65,16.8875
557,204954,1.770952,0.7229720000000001,-0.7881199999999999,-59.7625,573.3875,26.74
558,205051,2.6217799999999998,0.79056,-1.944192,-37.905,573.405,99.9075
559,205149,2.284816,1.0382200000000001,-2.5815200000000003,16.73,573.3175,176.5925
560,205246,2.809416,0.69296,-2.250412,82.915,548.835,207.6725
561,205343,3.423564,1.093852,-1.91662,61.3025,475.4225,193.0425
562,205440,3.7327120000000003,0.7376119999999999,-2.2423599999999997,-45.325,499.4675,139.16
563,205537,1.321016,-0.389424,-3.5375120000000004,-158.8125,556.605,72.8175
564,205634,3.5746,0.0549,-3.056832,-295.1375,247.45,85.75
565,205731,3.5750879999999996,1.551596,-4.510828,-272.7725,-15.82,176.8725
566,205828,1.34932,1.6609080000000003,-2.2357720000000003,-211.6975,-242.1125,208.635
567,205925,0.79056,1.8048680000000001,-1.6879919999999997,-148.0325,-317.2575,221.445
568,206022,0.34794400000000003,1.6574919999999997,-1.170712,-82.355,-332.3775,226.2575
569,206119,0.133224,1.4459440000000001,-0.8291120999999999,-36.4875,-329.805,214.0075
570,206217,0.185196,1.2639200000000002,-0.716384,-20.1425,-314.93,183.2775
571,206314,0.25961599999999996,1.1326479999999999,-0.6763680000000001,-30.94,-306.705,140.2975
572,206411,0.4636,1.071404,-0.7171161,-59.0275,-305.8125,86.59
573,206508,0.614636,1.079456,-0.76494,-87.4825,-315.5775,26.95
574,206605,0.677588,1.065548,-0.7361481,-105.7175,-330.0325,-31.9725
575,206702,0.71492,0.983808,-0.644648,-111.125,-342.3175,-84.315
576,206799,0.729072,0.8757159999999999,-0.548268,-106.2775,-346.6225,-127.82
577,206896,0.792512,0.733464,-0.515572,-93.4675,-343.2625,-160.475
578,206993,0.976,0.583648,-0.5636399999999999,-77.805,-335.3175,-183.0325
579,207090,1.194624,0.447984,-0.682956,-64.365,-330.1375,-197.82
580,207187,1.3139399999999999,0.296948,-0.7503,-54.46,-333.1825,-205.45
581,207285,1.330288,0.07710399999999999,-0.74054,-49.77,-338.7825,-207.6725
582,207382,1.3298,-0.13639600000000002,-0.712724,-56.84,-341.1275,-207.55
583,207479,1.348832,-0.237656,-0.711992,-77.8925,-339.8325,-206.29
584,207576,1.380796,-0.18104800000000001,-0.769332,-103.5475,-335.7025,-203.42
585,207673,1.411052,-0.021716,-0.864492,-119.2625,-329.4375,-196.56
586,207770,1.46156,0.13054000000000002,-0.9616040000000001,-117.53,-320.81,-185.7975
587,207867,1.519144,0.21081599999999998,-1.057252,-100.485,-310.5025,-174.0025
588,207964,1.546716,0.167384,-1.1155680000000001,-77.6125,-301.035,-163.7475
589,208061,1.60186,0.055388,-1.181448,-61.6175,-291.865,-155.855
590,208158,1.6914080000000002,-0.036844,-1.2463520000000001,-60.3225,-283.5525,-150.29
591,208256,1.819752,-0.046360000000000005,-1.31028,-71.575,-277.725,-145.7925
592,208353,2.040572,0.039772,-1.3973879999999999,-89.215,-274.0325,-142.695
593,208450,2.349964,0.19983599999999999,-1.454972,-102.8475,-274.8725,-141.4175
594,208547,2.59616,0.302072,-1.386652,-104.615,-282.555,-142.275
595,208644,2.61446,-0.036844,-1.121424,-98.21,-292.39,-151.3575
596,208741,2.75842,-0.29158,-0.70638,-105.4725,-297.5525,-179.0775
597,208838,3.2866800000000005,-0.5060560000000001,0.115656,-124.985,-301.0,-214.1475
598,208935,4.016972,-0.928176,1.269288,-138.845,-290.9725,-245.28
599,209032,3.660732,-1.3969,2.2113720000000003,-150.9725,-255.955,-276.0975
600,209129,3.091724,-1.3298,2.44488,-151.55,-179.0775,-295.6975
601,209227,2.639104,-0.808372,2.008608,-106.9775,-78.1375,-267.82
602,209324,2.334104,-0.5587601,1.391044,2.73,18.1125,-178.955
603,209421,2.456836,-0.8335040000000001,0.47043199999999996,117.425,84.33249,-66.4125
604,209518,2.0464279999999997,-0.928176,-0.339648,159.0575,101.8325,10.9725
605,209615,1.9832319999999999,0.452132,0.319396,157.5875,137.865,60.8125
606,209712,1.0016200000000002,-0.9435479999999999,2.002508,227.6575,167.4575,122.64
607,209809,-0.47360399999999997,-3.152968,1.0979999999999999,246.2775,280.525,178.0275
608,209906,4.100664,0.55388,-4.2944,-14.9625,400.0325,141.8025
609,210003,5.1996400000000005,0.31232,-2.906284,1.295,360.045,111.685
610,210101,2.27774,-0.376736,-1.513288,75.53,235.935,90.51001
611,210198,0.091988,-0.655628,-0.8996280999999999,85.435,187.7575,90.265
612,210295,0.134932,-0.45383999999999997,-0.374784,52.5175,203.21,83.93001
613,210392,4.038932,1.8773360000000001,-1.997384,39.795,222.2325,80.2025
614,210489,1.395192,-0.506788,-1.129232,156.03,102.7775,81.67251
615,210586,1.1407,-0.774944,-1.407148,140.5425,58.3625,74.83
616,210683,0.773968,0.38503200000000004,-0.7793359999999999,89.3725,32.165,56.2275
617,210780,0.6409881,0.314272,-0.9720960999999999,67.445,28.665,34.4575
618,210877,0.808372,-0.016836,-0.8913321,55.3175,26.4075,25.4275
619,210974,0.568764,0.282552,-0.9137799999999999,30.03,16.5375,15.715
620,211072,0.69052,0.089792,-0.9171961,24.5525,20.4575,12.3025
621,211169,0.61854,0.20861999999999997,-0.855708,16.87,17.71,9.66
622,211266,0.5753520000000001,0.082228,-0.8754719999999999,14.1925,16.5025,7.49
623,211363,0.569984,0.130296,-0.8540000000000001,11.0425,17.9725,5.6875
624,211460,0.5455840000000001,0.155916,-0.8405800999999999,9.7475,19.11,5.11
625,211557,0.57462,0.134932,-0.8337481,9.835,20.125,5.565
626,211654,0.5799880000000001,0.119072,-0.8203280000000001,8.0325,20.4925,5.4425
627,211751,0.5795,0.10492,-0.8100801,4.8475,20.5625,4.935
628,211848,0.543144,0.08174001,-0.822768,1.68,21.4725,4.1125
629,211945,0.540216,0.08174001,-0.845216,-1.505,24.6575,1.995
630,212043,0.559004,0.1403,-0.8276481,-4.4625,29.155,0.4725
631,212140,0.595604,0.132004,-0.803492,-5.985,32.865,1.155
632,212237,0.643672,0.194468,-0.773724,-11.1475,32.9,4.62
633,212334,0.60268,0.152988,-0.787632,-14.2625,31.6575,8.61
634,212431,0.5043479999999999,0.290116,-0.865468,-15.19,32.97,9.8
635,212528,0.6514800000000001,0.039284,-0.7883640000000001,-5.25,41.8425,9.0125
636,212625,0.628544,0.13785999999999998,-0.765428,-4.3575,44.9225,6.8425
637,212722,0.634644,0.077592,-0.7551800000000001,-2.7825,45.3075,5.1625
638,212819,0.6463561,0.107116,-0.7373681,-2.975,45.2725,3.6925
639,212916,0.658556,0.083204,-0.7227279999999999,-3.8675,44.975,1.4
640,213014,0.6588,0.108824,-0.721996,-4.5325,44.38,-1.68
641,213111,0.670024,0.113704,-0.713212,-4.6375,43.155,-4.1475
642,213208,0.6605081,0.10736,-0.7088201,-4.725,40.495,-6.4575
643,213305,0.6505041,0.10638399999999999,-0.708088,-4.69,37.59,-9.45
644,213402,0.64172,0.19276,-0.7259001,-5.145,35.5075,-11.0775
645,213499,0.648308,0.24082800000000001,-0.746396,-4.3925,34.79,-7.805
646,213596,0.652456,0.225212,-0.7422481,-3.8675,35.175,-0.7175
647,213693,0.6646561,0.191052,-0.731268,-3.9375,37.38,6.2825
648,213790,0.649284,0.1647,-0.7517640999999999,-4.095,41.405,10.955
649,213887,0.6527,0.12078,-0.752496,-4.7425,47.6525,13.8775
650,213984,0.671244,0.09540401,-0.7407841,-7.28,55.6675,14.91
651,214082,0.653188,0.12175599999999999,-0.760792,-10.7625,64.295,15.715
652,214179,0.647332,0.14078800000000002,-0.772504,-11.34,74.305,15.9425
653,214276,0.640744,0.109556,-0.74908,-10.64,85.505,15.3475
654,214373,0.6095119999999999,0.090768,-0.760304,-11.27,98.455,12.74
655,214470,0.608536,0.056608000000000006,-0.75762,-9.5025,112.245,7.735
656,214567,0.616344,0.025863999999999998,-0.756156,-6.3525,127.4525,-0.28
657,214664,0.621712,0.118584,-0.725412,-4.585,143.465,-6.5625
658,214761,0.6182960999999999,0.227408,-0.74664,-3.325,161.77,-7.315
659,214858,0.56242,0.25351599999999996,-0.792512,0.8400001,175.7525,-1.19
660,214955,0.735416,0.225212,-0.7266321,6.8775,183.365,5.04
661,215052,0.6095119999999999,0.14566800000000002,-0.8095920999999999,0.0525,198.94,5.46
662,215150,-0.035624,0.28548,-0.8913321,-10.15,174.8075,21.945
663,215247,1.1594879999999999,0.30841599999999997,-0.7168720000000001,15.7675,217.2275,56.1925
664,215344,0.172752,0.35477600000000004,-0.334524,24.535,295.96,63.245
665,215441,2.6474,0.340868,-1.056032,-26.81,386.6275,84.7175
666,215538,1.625772,0.44554399999999994,-1.256356,-67.76,528.9375,116.1825
667,215635,2.0864439999999997,0.630252,-1.4452120000000002,-71.92501,572.0225,152.285
668,215732,2.3785119999999997,0.9830760000000001,-1.927356,-3.465,573.405,220.255
669,215829,1.7982799999999999,0.697108,-1.9083240000000001,78.2075,567.6125,263.235
670,215926,2.909944,0.8913321,-2.113772,60.445,513.31,259.8925
671,216023,3.869108,0.8881600000000001,-1.7514319999999999,2.205,476.21,228.865
672,216121,1.6582240000000001,0.758108,-0.892064,-78.7325,540.47,143.85
673,216218,2.4112080000000002,-0.396256,-3.9730519999999996,-192.4825,461.1775,97.7375
674,216315,4.330268,1.088484,-4.197044,-231.0175,116.9875,135.065
675,216412,2.128412,1.58112,-3.0802560000000003,-198.4325,-72.8875,131.285
676,216509,1.135576,1.601372,-2.05448,-147.98,-244.7725,133.77
677,216606,0.581696,1.4313040000000001,-1.4039760000000001,-90.72001,-288.1025,124.88
678,216703,0.124196,1.190476,-0.8491200000000001,-44.5025,-303.6775,116.0425
679,216800,-0.026595999999999998,1.031876,-0.594384,-20.055,-292.0575,97.72
680,216897,-0.041724000000000004,0.9137799999999999,-0.49044,-13.44,-274.4175,71.9425
681,216994,-0.001464,0.869616,-0.44847200000000004,-17.85,-258.58,40.8975
682,217092,0.16689600000000002,0.863516,-0.5489999999999999,-26.53,-245.0875,6.3875
683,217189,0.416264,0.8491200000000001,-0.695156,-34.615,-240.6425,-30.7825
684,217286,0.6058520000000001,0.806176,-0.773968,-39.3575,-248.7275,-69.2475
685,217383,0.691008,0.7390760000000001,-0.775188,-39.235,-264.915,-105.3325
686,217480,0.7285841,0.642696,-0.730536,-35.2275,-280.2275,-134.995
687,217577,0.748104,0.51118,-0.6588,-28.9275,-291.1125,-157.5
688,217674,0.7610359999999999,0.374784,-0.5997520000000001,-23.835,-297.2375,-173.04
689,217771,0.8105680000000001,0.24131599999999997,-0.596336,-22.4875,-298.585,-182.3675
690,217868,0.921344,0.13664,-0.644648,-26.0225,-297.9025,-186.8825
691,217965,1.0384639999999998,0.058316,-0.7076001000000001,-33.2325,-298.69,-187.32
692,218062,1.1575360000000001,-0.006344,-0.7861680999999999,-42.8575,-301.7,-183.68
693,218160,1.270508,-0.040748,-0.8784,-54.04,-306.39,-176.5575
694,218257,1.3847,-0.09540401,-0.9286639999999999,-65.5725,-312.62,-166.6875
695,218354,1.454972,-0.139568,-0.9669721,-79.135,-320.46,-155.2775
696,218451,1.494744,-0.133224,-0.989664,-96.0225,-327.845,-143.8325
697,218548,1.520852,-0.064172,-1.00284,-111.2475,-332.4825,-133.175
698,218645,1.555988,0.0244,-1.028948,-121.3975,-332.29,-124.5125
699,218742,1.6265040000000002,0.132492,-1.083116,-124.53,-327.005,-118.2825
700,218839,1.7263,0.207644,-1.167052,-122.36,-318.71,-113.855
701,218936,1.86294,0.208864,-1.258308,-118.3875,-309.365,-111.755
702,219033,2.0159279999999997,0.17202,-1.316868,-119.665,-301.6125,-113.47
703,219130,2.199904,0.15372,-1.3481,-131.11,-296.73,-120.7325
704,219227,2.378756,0.15494000000000002,-1.331752,-151.0075,-294.49,-135.1
705,219325,2.457812,0.118828,-1.222684,-172.0775,-293.755,-155.575
706,219422,2.379732,-0.34867600000000004,-0.8625401,-189.805,-291.6375,-180.11
707,219519,2.8660240000000003,-1.21634,-0.22448,-223.1775,-281.5925,-217.2975
708,219616,3.8349480000000002,-1.10532,0.518012,-300.0025,-280.0175,-265.265
709,219713,3.7597959999999997,-0.8874280999999999,1.4720520000000001,-326.0075,-269.8325,-308.1225
710,219810,2.94508,-0.660996,2.021784,-250.04,-206.815,-316.61
711,219907,2.4339,-0.9830760000000001,1.921988,-106.6975,-99.41751,-253.085
712,220004,1.9032,-1.357616,1.4654639999999999,27.615,3.745,-138.5475
713,220101,1.943216,-1.20536,0.544852,99.27750999999999,79.8175,-24.675
714,220198,2.2482159999999998,-0.79422,-0.397964,115.885,109.2875,54.5475
715,220295,1.921012,0.110776,-1.239276,103.635,91.49,90.8425
716,220393,1.783152,1.5586719999999998,-0.567056,158.9525,97.3875,117.005
717,220490,0.8047121,-0.726876,1.20902,335.51,103.705,163.4675
718,220587,0.15128,-3.2351959999999997,1.1712,385.315,188.79,198.0825
719,220684,2.002508,-1.606008,-3.030968,137.2875,259.7,151.9
720,220781,3.9928160000000004,-0.811056,-2.600064,20.1775,288.6625,115.43
721,220878,2.603968,-0.360632,-1.217316,85.505,194.53,127.4875
722,220975,0.370636,0.5307,-0.760792,113.645,149.66,113.365
723,221072,-0.24058400000000002,-0.08100801,-0.35697199999999996,112.91,168.5775,83.3175
724,221169,0.441884,-0.8249639999999999,-0.44676400000000005,94.60501,207.4625,61.4075
725,221266,3.787612,1.065792,-2.695712,93.485,217.2625,77.8925
726,221363,2.031056,-0.756644,-1.407392,182.14,97.685,102.025
727,221461,0.6229319999999999,-0.6729520999999999,-1.192184,155.4175,11.6725,75.565
728,221558,0.9345201,0.443592,-1.0145520000000001,84.9975,19.3375,45.6925
729,221655,0.5631520000000001,-0.031232,-0.9089001,61.005,16.2225,26.25
730,221752,0.6441600000000001,0.043432,-0.9711200999999999,35.2625,17.3775,14.91
731,221849,0.5511961,0.13639600000000002,-0.9252481,15.61,20.44,5.6175
732,221946,0.605364,-0.009028000999999999,-0.893284,7.3325,22.68,2.1875
733,222043,0.5856,0.082716,-0.877424,1.54,23.6775,-1.295
734,222140,0.604876,0.006587999999999999,-0.8910879999999999,-0.315,23.3625,-4.06
735,222237,0.538996,0.077348,-0.861808,-4.445,24.29,-6.9825
736,222335,0.5594920999999999,0.08417999999999999,-0.8671761,-8.505,26.775,-9.4675
737,222432,0.57828,0.110044,-0.8296,-11.1475,29.015,-10.9375
738,222529,0.589504,0.084912,-0.8149601,-12.915,29.995,-11.8125
739,222626,0.5697399999999999,0.12468399999999999,-0.8249639999999999,-15.96,30.38,-13.0725
740,222723,0.548024,0.17738800000000002,-0.833992,-17.2725,31.3075,-12.8975
741,222820,0.5692520000000001,0.146644,-0.83814,-16.2225,33.46,-11.6375
742,222917,0.5724239999999999,0.10345599999999999,-0.817156,-14.7525,36.645,-10.99
743,223014,0.6124400999999999,0.080276,-0.796416,-14.49,38.92,-11.6025
744,223111,0.62098,0.191052,-0.780312,-18.06,38.8325,-10.1325
745,223208,0.590724,0.13859200000000002,-0.795928,-16.1525,38.4125,-7.5075
746,223305,0.5968241,0.126148,-0.77836,-15.61,39.27,-7.4025
747,223403,0.568032,0.245952,-0.8105680000000001,-15.3475,41.44,-8.5225
748,223500,0.627568,0.119804,-0.784704,-6.0375,45.4475,-7.6825
749,223597,0.6453800000000001,0.21447600000000003,-0.7439560000000001,-3.36,46.9175,-5.6175
750,223694,0.650748,0.17568,-0.7449321,-1.6625,45.36,-2.38
751,223791,0.6675840000000001,0.169336,-0.724924,-1.225,42.98,1.12
752,223888,0.684176,0.15006,-0.7078439999999999,-1.5925,39.935,2.695
753,223985,0.684908,0.118828,-0.6973520000000001,-1.68,36.47,1.7325
754,224082,0.665876,0.150304,-0.710284,-2.31,31.9025,-0.595
755,224179,0.6558721,0.173728,-0.72346,-1.89,27.125,-1.5225
756,224276,0.6539201,0.216916,-0.7378560000000001,-1.435,23.1875,0.0
757,224374,0.6480640000000001,0.240096,-0.754692,-0.98,20.9825,3.9025
758,224471,0.6470880999999999,0.215452,-0.754204,-0.5425,20.9825,10.1325
759,224568,0.648552,0.188124,-0.745664,0.2275,22.4,16.8525
760,224665,0.6380600000000001,0.14493599999999998,-0.754692,-0.5425,25.1825,22.0675
761,224762,0.628788,0.111996,-0.748104,-2.94,30.52,23.87
762,224859,0.6141479999999999,0.08174001,-0.756156,-6.4575,39.445,22.5225
763,224956,0.627812,0.053191999999999996,-0.7622561,-9.415,50.4875,20.16
764,225053,0.611952,0.06636801,-0.791536,-12.705,63.5425,16.6775
765,225150,0.6068279999999999,0.043432,-0.786412,-12.915,78.62751,12.6525
766,225247,0.586576,0.05368,-0.801296,-13.0725,95.97,6.545
767,225345,0.578036,0.09906401,-0.8052,-12.005,113.9425,0.3325
768,225442,0.5897479999999999,0.049044,-0.778604,-10.395,133.0525,-5.3375
769,225539,0.6039,0.07710399999999999,-0.7510321,-10.185,152.67,-9.8525
770,225636,0.58194,0.14469200000000002,-0.757376,-8.5225,171.9375,-13.23
771,225733,0.5206960999999999,0.128588,-0.8357,-4.6375,189.0875,-13.8075
772,225830,0.719312,0.240096,-0.73078,0.385,195.2475,-9.5375
773,225927,0.659288,0.156892,-0.8662001,-1.295,209.755,-19.285
774,226024,-0.090768,0.160064,-0.823256,-3.5875,189.9275,-12.285
775,226121,0.9852719999999999,0.343308,-0.9398880999999999,11.5325,213.7275,13.65
776,226218,0.417972,0.41602,-0.38795999999999997,46.2175,291.27,12.5825
777,226316,2.5815200000000003,0.5119121,-1.0845799999999999,-23.1175,385.1225,13.9475
778,226413,1.247572,0.092964,-1.054324,-54.9325,528.535,47.495
779,226510,1.962736,0.334036,-1.009672,-57.085,571.795,44.8525
780,226607,2.4104759999999996,0.705892,-1.771684,-29.9775,573.405,102.5325
781,226704,2.116212,0.72956,-2.2357720000000003,37.135,572.7575,167.405
782,226801,2.1291439999999997,0.735904,-1.785348,70.805,536.6375,188.0375
783,226898,3.9740279999999997,0.9403761,-1.00894,18.7775,485.2925,167.055
784,226995,2.3841240000000004,0.45993999999999996,-1.62992,-77.245,536.655,94.4825
785,227092,1.903444,-0.363072,-3.206404,-159.425,538.055,68.67
786,227189,3.4513800000000003,0.041968,-2.942884,-287.805,243.215,94.02750999999999
787,227287,3.4103879999999998,1.452776,-4.284152,-248.5875,1.575,168.1925
788,227384,1.435452,1.386652,-2.273836,-179.515,-213.325,203.3675
789,227481,0.906216,1.4691239999999999,-1.597224,-113.2425,-298.3925,218.19
790,227578,0.5414359999999999,1.3083280000000002,-1.06994,-55.895,-321.86,223.72
791,227675,0.326716,1.1770559999999999,-0.7278521,-18.7775,-326.1825,213.9025
792,227772,0.3782,1.051152,-0.609024,-2.17,-317.1525,188.4575
793,227869,0.47165200000000007,1.011624,-0.57584,-5.25,-312.165,151.7775
794,227966,0.506788,0.9706319999999999,-0.5397281,-17.29,-315.9625,107.6075
795,228063,0.540948,0.979416,-0.549244,-30.45,-322.77,60.41
796,228160,0.5697399999999999,0.983808,-0.511668,-39.9,-329.9275,13.4925
797,228258,0.582916,1.002108,-0.481412,-40.705,-333.7075,-29.645
798,228355,0.64782,1.002108,-0.457744,-31.1325,-331.8175,-66.99
799,228452,0.715896,0.9613601,-0.4331,-12.1975,-326.8475,-97.5275
800,228549,0.819108,0.859368,-0.437492,10.2375,-319.27,-120.19
801,228646,0.9874681000000001,0.69418,-0.48068,27.7375,-312.6375,-137.06
802,228743,1.117764,0.5214281,-0.522404,33.3025,-311.15,-151.1825
803,228840,1.223172,0.400404,-0.5797441,25.4275,-313.53,-163.4675
804,228937,1.327604,0.33013200000000004,-0.636352,9.1,-317.8175,-173.18
805,229034,1.4215440000000001,0.284992,-0.6956439999999999,-9.6425,-322.945,-179.375
806,229131,1.486448,0.22423600000000002,-0.7229720000000001,-27.51,-327.5125,-182.2275
807,229228,1.5189,0.15982000000000002,-0.757864,-45.01,-330.0325,-182.4025
808,229326,1.5786799999999999,0.1281,-0.7664041,-62.5975,-329.0175,-179.795
809,229423,1.67262,0.18788,-0.8210601000000001,-79.6425,-326.4975,-175.42
810,229520,1.7592400000000001,0.312076,-0.8884040000000001,-89.705,-323.3475,-170.24
811,229617,1.8666,0.470188,-0.956968,-87.97251,-318.7975,-165.7425
812,229714,1.987868,0.5875520000000001,-1.0243120000000001,-73.90250999999999,-312.9525,-161.245
813,229811,2.137196,0.6095119999999999,-1.071404,-54.215,-307.3875,-156.8
814,229908,2.293844,0.57462,-1.08092,-39.8825,-304.08,-154.9275
815,230005,2.441464,0.546804,-1.0262639999999998,-36.925,-303.1525,-158.165
816,230102,2.534916,0.585356,-0.9006040999999999,-44.065,-303.45,-166.67
817,230200,2.565416,0.6688041,-0.708332,-55.2825,-302.5925,-179.6725
818,230297,2.5283279999999997,0.806908,-0.457744,-63.35,-295.1725,-198.6075
819,230394,2.40462,0.8317960999999999,-0.21667199999999998,-63.5075,-277.6725,-225.7325
820,230491,2.240164,0.166652,0.132248,-61.775,-248.57,-265.44
821,230588,2.863584,-0.568764,0.509716,-92.575,-209.0725,-329.0
822,230685,4.067724,-0.434076,0.9372040999999999,-159.705,-181.8425,-394.835
823,230782,4.170936,-0.34281999999999996,1.688968,-166.88,-159.6875,-421.925
824,230879,3.293268,-0.658068,2.296528,-99.365,-113.3825,-394.5375
825,230976,2.309948,-0.945256,2.292868,-4.0075,-27.16,-315.945
826,231073,2.022516,-0.9738041,1.515484,76.335,72.1,-214.55
827,231171,2.365336,-0.7015,0.236192,118.02,136.395,-132.6325
828,231268,2.2240599999999997,-0.519476,-0.68808,122.71,134.05,-94.5
829,231365,1.8522040000000002,-0.7156520000000001,0.435784,107.835,136.2025,-80.08
830,231462,-1.382992,-0.8937719999999999,3.1873720000000003,90.1775,193.235,-42.595
831,231559,-0.128588,-0.9010921000000001,-1.3054,36.89,385.07,-27.9475
832,231656,3.6199839999999996,-0.43432,-3.4157559999999996,-26.25,453.67,-18.97
833,231753,3.5919239999999997,-0.675148,-1.324432,-53.9875,396.41,-22.365
834,231850,2.312632,-0.604876,-1.524024,-31.745,314.8775,13.7375
835,231947,0.8998719999999999,-0.301584,-1.179008,-25.34,268.065,68.1975
836,232044,2.899452,3.16102,-3.9676839999999998,-7.14,245.49,107.24
837,232142,2.7215759999999998,1.143384,-1.062376,142.3275,169.61,116.3225
838,232239,1.416908,-0.51484,-1.530124,195.545,102.5325,112.805
839,232336,1.235372,-0.5665680000000001,-1.218292,137.4625,60.5325,102.55
840,232433,0.8547319999999999,0.400892,-0.8371639999999999,73.675,28.35,77.9625
841,232530,0.9489161,0.390644,-0.8532681000000001,56.84,23.5025,60.795
842,232627,0.617564,0.157868,-0.7439560000000001,47.0225,20.23,42.1225
843,232724,0.6985720999999999,0.21862399999999999,-0.8486319999999999,31.9375,18.9,30.205
844,232821,0.652944,0.20008,-0.82594,24.29,18.445,26.425
845,232918,0.6541640000000001,0.125416,-0.887184,20.7025,17.1325,23.24
846,233015,0.6317159999999999,0.026595999999999998,-0.8813280000000001,18.06,16.485,18.585
847,233113,0.69052,0.113704,-0.801784,13.755,17.0625,18.095
848,233210,0.6124400999999999,0.058316,-0.8322841000000001,12.25,10.745,13.65
849,233307,0.6161,0.081496,-0.90402,10.5875,10.6575,14.245
850,233404,0.627812,0.110044,-0.8591241,9.7825,10.115,10.9025
851,233501,0.604144,0.07832401,-0.81252,7.7175,12.1625,12.6525
852,233598,0.5551,0.02562,-0.73078,6.1425,11.795,8.54
853,233695,0.5858439999999999,0.034648000000000005,-0.794708,3.535,16.135,7.7175
854,233792,0.60878,0.05246,-0.794708,1.785,17.8325,5.2675
855,233889,0.623908,0.071248,-0.785924,0.245,18.48,2.905
856,233986,0.610244,0.11053199999999999,-0.791536,-0.7,19.1625,1.05
857,234083,0.589504,0.06880801,-0.8049561,0.77,21.1225,0.245
858,234181,0.595604,0.07808001,-0.821304,0.5075,24.885,-1.12
859,234278,0.5885281,0.101748,-0.8108121,0.14,29.2775,-2.9575
860,234375,0.611952,0.12322000000000001,-0.788852,0.77,32.3225,-3.2025
861,234472,0.6161,0.11028800000000001,-0.772748,1.7675,33.565,-2.3625
862,234569,0.631228,0.098088,-0.768112,2.625,33.6875,-1.54
863,234666,0.6326921,0.094916,-0.7625,3.3425,33.04,-2.0825
864,234763,0.647332,0.122732,-0.755424,3.4475,32.06,-2.52
865,234860,0.6517241,0.12248800000000001,-0.7427361,4.2875,30.1525,-1.82
866,234957,0.668072,0.136152,-0.743712,4.27,28.595,-0.56
867,235054,0.666852,0.11760799999999999,-0.735416,4.62,26.4075,0.7175
868,235151,0.6527,0.10223600000000001,-0.743224,4.27,24.71,1.3825
869,235248,0.654652,0.08808401,-0.7388319999999999,3.85,23.975,1.505
870,235346,0.653188,0.096624,-0.746396,3.3075,24.15,0.9975
871,235443,0.648308,0.07978801,-0.748836,3.4475,24.5,0.7
872,235540,0.654408,0.040016,-0.7388319999999999,3.745,24.9725,0.315
873,235637,0.64294,0.039772,-0.749812,2.73,26.6525,-2.45
874,235734,0.656848,0.07515201,-0.7598161,0.63,29.7675,-5.3725
875,235831,0.644648,0.07002799999999999,-0.747128,-1.155,34.0375,-6.545
876,235928,0.637084,0.055388,-0.754204,-3.5,39.6375,-7.0525
877,236025,0.644648,0.071492,-0.7598161,-5.145,46.165,-7.9275
878,236122,0.636596,0.071492,-0.770308,-5.8625,53.13,-8.7675
879,236219,0.64172,0.038796,-0.77104,-5.215,61.7575,-10.2725
880,236316,0.6229319999999999,0.038796,-0.7903161,-5.6525,72.485,-13.3175
881,236413,0.576084,0.053191999999999996,-0.856684,-3.3775,86.22251,-15.015
882,236511,0.548268,0.019764,-0.8188641,2.7475,104.5625,-15.47
883,236608,0.533872,0.0366,-0.8669319999999999,6.09,129.4475,-19.1975
884,236705,0.478728,0.106628,-0.9211,8.5575,158.0425,-21.7175
885,236802,0.443104,0.141032,-1.003572,15.3125,191.4675,-20.4925
886,236899,0.370392,0.344528,-1.068964,24.7625,227.85,-14.4025
887,236996,0.46238,0.537288,-1.1956,53.55,269.5875,1.3475
888,237093,0.666852,0.5724239999999999,-1.333216,99.9775,305.8475,19.95
889,237190,0.653188,0.8486319999999999,-1.891,153.8775,336.4025,40.3025
890,237287,1.860744,0.721508,-1.446432,182.6825,375.9175,75.21500999999999
891,237384,2.258464,0.6653880999999999,-2.133048,258.79,501.0075,123.4975
892,237481,1.9825,1.145092,-1.8695279999999999,335.09,548.5725,171.1675
893,237579,1.6918959999999998,0.9464761,-1.6906759999999998,398.3,553.105,195.9475
894,237676,1.842932,1.340292,-1.4835200000000002,432.145,533.5225,192.6225
895,237773,1.460584,0.743224,-2.008852,472.8675,538.265,161.8925
896,237870,0.8935280999999999,0.8845,-1.186328,468.3875,447.7725,153.5275
897,237967,2.4024240000000003,-0.045627999999999995,-3.515308,409.5175,327.5475,105.1925
898,238064,3.406972,0.399916,-3.8066440000000004,328.9125,108.7625,55.09
899,238161,1.274656,0.7705521,-2.210396,247.205,-75.915,34.0025
900,238258,0.79666,1.092144,-1.6975080000000002,204.7325,-185.92,49.4025
901,238355,0.44164,1.354932,-1.099464,214.2875,-226.2225,87.4125
902,238452,0.382592,1.6235760000000001,-0.868396,238.2975,-241.4125,119.21
903,238549,0.537776,1.9368720000000001,-0.793488,265.055,-245.9975,131.0575
904,238647,0.699792,2.2448,-0.703696,290.92,-260.6625,127.4525
905,238744,0.907192,2.455616,-0.640012,316.0325,-278.39,109.0775
906,238841,1.092388,2.627636,-0.519476,338.9925,-299.0925,78.085
907,238938,1.2019440000000001,2.756956,-0.318176,358.75,-321.8775,41.86
908,239035,1.239032,2.802584,-0.090036,378.07,-341.04,7.8925
909,239132,1.203164,2.7589080000000004,0.14713199999999999,390.7575,-353.29,-22.3125
910,239229,1.158268,2.667408,0.309392,392.0175,-355.355,-49.2975
911,239326,1.1289879999999999,2.557852,0.3965,378.875,-349.125,-75.425
912,239423,1.128256,2.46806,0.43212399999999995,351.225,-338.1,-102.9175
913,239520,1.276608,2.491972,0.32696,310.59,-322.1925,-131.985
914,239618,1.4720520000000001,2.613484,0.18178,268.4325,-307.8425,-159.3725
915,239715,1.6235760000000001,2.681804,0.08466801,237.93,-300.5625,-180.425
916,239812,1.6933599999999998,2.639592,0.08808401,217.595,-299.4775,-195.335
917,239909,1.671888,2.540772,0.08662001,200.48,-299.7575,-208.1275
918,240006,1.613572,2.383636,0.107116,182.7525,-296.52,-220.78
919,240103,1.617476,2.262368,0.059536,160.8425,-289.485,-235.69
920,240200,1.610156,2.201368,0.014884,138.1625,-281.1375,-251.9475
921,240297,1.553304,2.10206,-0.039772,119.63,-271.005,-267.1025
922,240394,1.4781520000000001,2.010072,-0.101748,103.95,-258.09,-281.3825
923,240491,1.436672,1.8709919999999998,-0.17543599999999998,90.37001,-241.955,-293.4225
924,240588,1.4400879999999998,1.677988,-0.259372,77.0175,-224.8925,-300.685
925,240685,1.501088,1.475956,-0.36722,57.9075,-210.105,-302.89
926,240783,1.5982,1.301008,-0.469944,31.0975,-199.815,-300.65
927,240880,1.711416,1.277584,-0.5858439999999999,0.14,-193.935,-293.405
928,240977,1.842688,1.342488,-0.720288,-25.235,-191.975,-281.4175
929,241074,1.8778240000000002,1.38714,-0.7195560000000001,-36.295,-193.6375,-267.5225
930,241171,1.821704,1.369816,-0.568764,-35.5775,-194.32,-254.485
931,241268,1.815848,1.335412,-0.359168,-33.565,-187.705,-244.4225
932,241365,1.925648,1.194136,-0.181536,-37.03,-173.285,-241.885
933,241462,2.102548,0.530212,-0.09418401,-50.68,-152.46,-258.0025
934,241559,2.299212,0.6158561,0.027083999999999997,-83.86001,-133.455,-286.195
935,241656,2.46074,0.672708,0.24863600000000002,-83.73751,-117.18,-290.675
936,241753,2.530768,0.417972,0.550708,-34.1075,-94.6925,-268.52
937,241851,2.699616,-0.05172801,0.8081281,23.45,-68.075,-231.9975
938,241948,2.80966,-0.47653199999999996,0.9799041,51.94,-43.6975,-191.275
939,242045,2.865048,-0.55388,0.9206120000000001,43.2075,-23.4325,-150.9375
940,242142,2.847968,-0.340868,0.7032079999999999,21.3675,-8.505,-112.8925
941,242239,2.665212,-0.157136,0.519476,15.2425,0.4375,-78.9775
942,242336,2.255048,0.931348,0.1098,27.4925,13.3175,-48.4575
943,242433,1.567456,0.516304,0.7956840999999999,131.04,53.025,-5.7225
944,242530,1.89222,-0.316956,0.346968,233.8875,98.8575,16.5375
945,242627,0.15274400000000002,-1.7572880000000002,0.651968,276.535,139.8775,8.54
946,242724,0.965996,-2.0647279999999997,-1.604544,178.115,190.155,-51.065
947,242822,1.504992,-2.256268,-1.6384599999999998,52.745,214.7425,-103.53
948,242919,1.658956,-1.606984,-1.6674959999999999,19.6875,191.3275,-46.445
949,243016,1.372012,0.138348,-1.460584,-9.24,157.8325,23.5375
950,243113,0.4941,0.5214281,-0.7300479999999999,2.345,120.4875,39.9175
951,243210,1.6826240000000001,1.1651,-2.363384,6.335,121.835,24.4475
952,243307,1.86782,-0.239608,-1.567944,60.2525,92.48751,30.66
953,243404,0.8884040000000001,-0.5343600000000001,-1.257088,55.8425,38.325,25.27
954,243501,0.7522521,0.409188,-0.9413520000000001,23.205,21.0,19.3725
955,243598,0.626104,0.5023960999999999,-0.859856,13.3875,16.94,8.7675
956,243695,0.540216,0.36941599999999997,-0.8510719999999999,14.3675,17.2375,3.9025
957,243792,0.590724,0.542412,-0.7986121,15.9775,16.0125,4.9525
958,243890,0.581696,0.406992,-0.7832399999999999,20.895,15.085,5.25
959,243987,0.60146,0.22106399999999998,-0.8554641,24.2725,15.4175,3.3075
960,244084,0.571692,0.278404,-0.8640040000000001,21.6475,12.145,1.61
961,244181,0.518988,0.30036399999999996,-0.81984,20.09,10.1675,1.085
962,244278,0.49727200000000005,0.27889200000000003,-0.8193521,20.8775,11.27,1.3125
963,244375,0.500688,0.285968,-0.8127641,22.3125,12.0225,3.255
964,244472,0.549732,0.240096,-0.839116,23.7825,12.425,5.6175
965,244569,0.594384,0.12322000000000001,-0.8422879999999999,21.7525,12.145,5.5125
966,244666,0.567056,0.1159,-0.8322841000000001,16.52,10.43,2.2575
967,244763,0.528016,0.156892,-0.8176439999999999,12.6,9.625,-1.0325
968,244861,0.49288000000000004,0.13054000000000002,-0.821792,12.145,9.4325,-1.6275
969,244958,0.484584,0.13664,-0.8298440999999999,13.4575,9.5375,0.665
970,245055,0.4933681,0.22716399999999998,-0.8076399999999999,16.6075,9.3975,6.0025
971,245152,0.538996,0.242292,-0.7983680000000001,20.7025,9.17,11.41
972,245249,0.537044,0.22057600000000002,-0.773968,22.47,8.2425,14.315
973,245346,0.527284,0.165188,-0.789828,24.4125,6.9825,15.5575
974,245443,0.458232,0.208864,-0.7571321,27.7725,5.705,17.9025
975,245540,0.42700000000000005,0.268644,-0.763232,35.4025,6.965,22.5575
976,245637,0.726144,0.164456,-0.9581881,45.43,9.6425,29.085
977,245734,0.526308,0.21520799999999998,-0.780556,43.61,3.6575,32.935
978,245831,0.610244,0.158356,-0.849852,36.96,2.975,31.185
979,245929,0.69418,0.021716,-0.8256960999999999,30.8875,3.9375,26.635
980,246026,0.591212,-0.08052000000000001,-0.853024,18.41,7.28,15.5225
981,246123,0.5043479999999999,0.05124001,-0.85034,6.2125,9.2925,5.005
982,246220,0.5038600000000001,0.09052401,-0.8479,1.715,15.89,0.35
983,246317,0.511424,0.047092,-0.8642481,-0.8575,23.52,-3.43
984,246414,0.509472,0.125172,-0.850584,-3.5,31.5,-7.3325
985,246511,0.49995600000000007,0.205448,-0.8596120999999999,-3.7975,39.13,-7.42
986,246608,0.525088,0.15274400000000002,-0.8735200000000001,-3.9725,45.6925,-3.5875
987,246705,0.532896,0.10126,-0.8527800999999999,-7.2975,53.585,-0.735
988,246802,0.41577600000000003,0.35014,-0.9596520000000001,-14.5075,64.54,1.295
989,246900,0.529724,0.07637200000000001,-0.861808,-7.7,82.9675,4.725
990,246997,0.527772,0.1037,-0.8727879999999999,-11.06,100.9575,5.1975
991,247094,0.527528,0.146644,-0.8652241,-14.1925,122.8325,1.925
992,247191,0.5353359999999999,0.101992,-0.885476,-15.4525,148.8725,-0.6825
993,247288,0.539484,0.094672,-0.8632719999999999,-14.07,176.75,-0.8225
994,247385,0.48995200000000005,0.133468,-0.8769360999999999,-16.2575,205.2575,-0.7
995,247482,0.5185,0.188612,-0.8757159999999999,-14.7175,232.3825,2.03
996,247579,0.49776000000000004,0.203496,-0.85888,-6.1425,257.8975,9.52
997,247676,0.481412,0.169336,-0.8847440999999999,4.5675,275.905,20.5975
998,247773,0.840824,0.27718400000000004,-0.5214281,18.445,282.1,33.0225
999,247870,0.638548,0.25522399999999995,-0.9240280000000001,17.0275,291.06,37.2225
1000,247968,0.024644,0.23009200000000002,-0.42700000000000005,14.1925,265.8425,63.4025
1001,248065,1.932724,0.334036,-1.0248,53.06,340.375,107.94
1002,248162,2.252852,0.0244,-0.5511961,36.96,419.685,110.425
1003,248259,2.194048,0.434564,-1.271484,11.795,522.3575,128.555
1004,248356,2.235284,0.9952761,-1.913936,43.435,572.1625,178.15
1005,248453,2.696688,0.956968,-2.137196,96.6175,571.62,219.4675
1006,248550,2.791604,0.7659161,-2.681804,96.74,560.9275,205.065
1007,248647,2.674972,0.8400921,-2.459764,80.465,569.0825,182.84
1008,248744,2.452444,0.64904,-2.98046,45.5875,534.2575,150.5
1009,248841,1.535248,0.223992,-1.814384,-48.37,280.56,149.38
1010,248939,3.5014,1.256356,-4.818268,-79.8175,151.41,133.245
1011,249036,1.285148,1.576484,-2.755004,-85.75,-41.6675,115.465
1012,249133,0.5751081,1.589172,-2.312388,-68.53,-145.8275,105.5075
1013,249230,0.037576,1.418128,-1.651636,-32.865,-187.81,96.5825
1014,249327,-0.134444,1.226588,-1.2961280000000002,-13.265,-202.9825,81.39251
1015,249424,-0.048068,1.108004,-1.1655879999999998,-8.33,-202.965,57.61
1016,249521,0.054655999999999996,1.0584719999999999,-1.0706719999999998,-12.53,-209.825,29.19
1017,249618,0.14396,1.039928,-1.019432,-15.715,-219.415,0.035
1018,249715,0.262056,1.003816,-1.000888,-14.77,-230.23,-28.14
1019,249812,0.3965,0.9186601000000001,-0.969412,-10.2725,-242.41,-54.985
1020,249909,0.512888,0.828624,-0.9259799999999999,-5.355,-256.0425,-81.5675
1021,250006,0.630252,0.731268,-0.888648,-0.315,-269.5875,-106.365
1022,250104,0.741028,0.6273241,-0.835456,4.2875,-282.4675,-128.415
1023,250201,0.7929999999999999,0.516304,-0.764208,8.365,-293.6675,-146.3875
1024,250298,0.843508,0.396256,-0.69906,10.815,-300.3875,-158.97
1025,250395,0.9211,0.29133600000000004,-0.686616,9.5725,-302.7675,-166.8275
1026,250492,1.017968,0.202276,-0.709064,5.3375,-302.9075,-169.6975
1027,250589,1.1155680000000001,0.09930800000000001,-0.7373681,-2.38,-303.8175,-167.72
1028,250686,1.20414,0.057584,-0.793244,-14.21,-305.9525,-161.8925
1029,250783,1.249524,0.054655999999999996,-0.8481440999999998,-27.02,-309.12,-151.7775
1030,250880,1.309548,0.07002799999999999,-0.882548,-38.15,-311.2375,-137.935
1031,250977,1.336876,0.110776,-0.8954801,-46.2525,-312.1125,-122.115
1032,251074,1.347612,0.164456,-0.9120720999999999,-51.6775,-310.2225,-106.68
1033,251171,1.3954360000000001,0.239852,-0.9679481,-54.9325,-304.99,-93.8175
1034,251269,1.474248,0.299632,-1.048712,-54.425,-298.55,-83.1775
1035,251366,1.561112,0.328912,-1.1102,-52.2725,-293.3,-73.36
1036,251463,1.6987279999999998,0.338672,-1.1812040000000001,-52.8325,-288.5225,-64.9775
1037,251560,1.979572,0.343796,-1.303692,-61.18,-284.6725,-60.3925
1038,251657,2.352404,0.29768,-1.399828,-81.0775,-287.7875,-64.7675
1039,251754,2.6108,0.27205999999999997,-1.380552,-113.365,-302.89,-83.72001
1040,251851,2.749148,0.41577600000000003,-1.2021879999999998,-152.7575,-322.7,-116.6375
1041,251948,2.6413,0.355752,-0.8317960999999999,-181.5625,-334.845,-157.115
1042,252045,2.633492,0.20984,-0.400648,-196.2975,-327.8975,-204.1025
1043,252142,2.937516,0.062220000000000004,0.161772,-199.2025,-306.9325,-246.6275
1044,252240,3.5048160000000004,-0.36478,0.8610761,-182.35,-275.2575,-275.7825
1045,252337,3.773704,-0.876692,1.60552,-156.2575,-235.095,-292.88
1046,252434,3.5216519999999996,-1.261724,2.154032,-123.2,-182.1925,-289.1
1047,252531,3.166388,-1.5142639999999998,2.199172,-79.695,-107.2575,-245.21
1048,252628,2.767692,-1.428132,1.7082439999999999,-30.2225,-24.185,-162.1375
1049,252725,2.2955520000000003,-0.97478,0.7895840999999999,21.5425,42.8225,-66.5
1050,252822,2.623488,0.016836,0.427976,102.6725,118.055,31.0975
1051,252919,2.157692,-0.43041599999999997,1.4720520000000001,233.03,170.7475,129.5
1052,253016,1.2939319999999999,-2.8355240000000004,0.9886881,327.845,241.99,209.5275
1053,253113,1.8778240000000002,-1.6226,-3.0585400000000003,168.77,288.9775,211.8725
1054,253210,3.9979400000000003,0.17397200000000002,-2.78038,-31.395,331.8,134.33
1055,253308,3.2783839999999995,-0.160308,-1.739232,45.2025,225.82,118.0725
1056,253405,1.238544,-0.145912,-1.0230920000000001,89.88,150.325,113.68
1057,253502,0.010004,-0.09735601,-0.510204,80.5175,133.0875,100.905
1058,253599,0.749324,0.267912,-0.8784,51.0125,164.4475,83.37001
1059,253696,3.242516,1.14192,-1.992016,60.795,160.5275,72.4325
1060,253793,0.635376,-0.5158159999999999,-0.822524,132.965,60.095,65.065
1061,253890,1.148996,-0.43188000000000004,-1.331508,101.64,50.4525,50.75
1062,253987,0.6456241,0.26352,-0.8396040000000001,68.8975,34.09,37.7475
1063,254084,0.654408,0.053191999999999996,-1.015772,58.415,25.6025,24.99
1064,254181,0.590236,0.0671,-0.89426,45.3075,26.495,17.045
1065,254279,0.468236,0.16714,-0.9354959999999999,30.625,26.1275,8.75
1066,254376,0.567788,0.09345201,-0.9352520000000001,20.7025,33.1275,4.9875
1067,254473,0.635864,0.08174001,-0.9115840000000001,9.66,34.72,1.015
1068,254570,0.5980439999999999,0.149572,-0.883036,-0.595,32.7075,-3.15
1069,254667,0.5511961,0.148108,-0.8632719999999999,-6.755,33.3725,-6.2475
1070,254764,0.568276,0.169336,-0.868884,-11.34,34.79,-8.9075
1071,254861,0.59536,0.1891,-0.8396040000000001,-12.9675,35.28,-9.0475
1072,254958,0.6222,0.17397200000000002,-0.815448,-12.635,34.6675,-8.365
1073,255055,0.5980439999999999,0.11126400000000002,-0.818376,-11.7075,34.195,-9.66
1074,255152,0.5594920999999999,0.1342,-0.820084,-12.5825,36.225,-13.16
1075,255250,0.548268,0.15494000000000002,-0.8322841000000001,-13.02,40.8275,-16.52
1076,255347,0.58072,0.19251600000000002,-0.799588,-12.5825,46.8125,-18.6725
1077,255444,0.6021920000000001,0.17738800000000002,-0.8025161,-12.845,50.47,-18.305
1078,255541,0.551928,0.223748,-0.806176,-15.4525,51.2225,-15.715
1079,255638,0.5602239999999999,0.216916,-0.7788480999999999,-16.835,53.8825,-11.55
1080,255735,0.5675439999999999,0.24888000000000002,-0.77104,-15.365,57.5925,-7.175
1081,255832,0.511424,0.47702,-0.7991,-11.41,59.8325,-2.38
1082,255929,0.69906,0.16348,-0.734684,6.79,63.8925,4.8125
1083,256026,0.6661201,0.300852,-0.686128,6.93,59.22,9.5725
1084,256123,0.7117479999999999,0.217892,-0.709796,8.6975,51.9925,15.2775
1085,256221,0.71126,0.225212,-0.695156,7.525,44.38,20.475
1086,256318,0.708332,0.22423600000000002,-0.6810039999999999,4.76,36.82,24.815
1087,256415,0.679784,0.132004,-0.6749041,7.7,31.255,27.72
1088,256512,0.6675840000000001,0.14078800000000002,-0.687592,6.7025,27.265,27.51
1089,256609,0.733708,0.09613601,-0.7227279999999999,5.565,25.9875,24.85
1090,256706,0.64172,0.10687200000000001,-0.709064,4.3225,25.48,20.93
1091,256803,0.61488,0.141276,-0.74664,1.155,26.7925,17.3075
1092,256900,0.630008,0.1403,-0.73932,-1.155,33.2675,14.98
1093,256997,0.627568,0.121024,-0.7390760000000001,-4.865,42.175,13.755
1094,257094,0.64782,0.122,-0.7556681,-8.435,52.99,12.635
1095,257192,0.654896,0.09589201,-0.73932,-10.395,64.27750999999999,12.145
1096,257289,0.641232,0.13298,-0.746152,-14.035,76.16001,11.4275
1097,257386,0.648552,0.13176,-0.75884,-16.975,89.6,11.1125
1098,257483,0.6273241,0.11321600000000001,-0.7478600000000001,-19.355,104.755,9.065
1099,257580,0.623908,0.09247601,-0.73688,-20.5625,119.91,5.7225
1100,257677,0.599264,0.08808401,-0.7598161,-20.3875,133.98,2.765
1101,257774,0.57218,0.0854,-0.812032,-17.115,151.6375,-2.0475
1102,257871,0.5023960999999999,0.119804,-0.77104,-9.3275,166.355,-5.2675
1103,257968,0.755912,0.182024,-0.8254520000000001,-5.95,179.62,-7.9975
1104,258065,0.5785241,0.136884,-0.955992,-5.3025,191.1875,-16.6425
1105,258162,-0.137128,0.053436000000000004,-0.5934081,-7.5775,170.625,-1.9775
1106,258260,0.789828,0.139324,-0.9408639999999999,12.4425,215.6,22.9775
1107,258357,0.774944,0.325252,0.023668,25.9875,284.4625,13.72
1108,258454,2.074976,0.367708,-0.364048,-64.9775,411.6175,31.465
1109,258551,1.631872,0.273768,-1.0016200000000002,-92.78501,553.385,73.885
1110,258648,2.183068,0.604876,-0.87718,-111.335,573.405,73.29
1111,258745,2.828936,0.826916,-1.9642,-92.27750999999999,573.405,145.3375
1112,258842,2.49856,0.7198,-2.922632,-10.2725,573.335,226.7825
1113,258939,3.212992,1.060424,-2.879444,34.2475,543.76,247.6075
1114,259036,4.331244,1.354688,-2.600308,-37.765,496.3175,203.9275
1115,259133,1.161684,1.0906799999999999,-1.64822,-110.985,556.2025,125.195
1116,259231,1.8229240000000002,-0.129564,-4.217296,-210.63,440.2475,93.73
1117,259328,4.565728,1.5852680000000001,-5.0756879999999995,-256.62,117.425,128.59
1118,259425,2.016416,2.111576,-3.5040839999999998,-185.22,-94.08,133.9625
1119,259522,0.9437921,1.9534639999999999,-2.398032,-102.62,-268.7825,142.135
1120,259619,0.37332,1.698484,-1.6906759999999998,-30.975,-306.8625,135.1175
1121,259716,0.059536,1.3139399999999999,-1.108004,12.3725,-318.535,123.6725
1122,259813,0.22082,1.066524,-0.9967401,20.86,-307.86,95.3575
1123,259910,0.396012,0.9028,-0.9330560999999999,2.205,-306.81,55.65
1124,260007,0.5282600000000001,0.846924,-0.9118280000000001,-26.11,-316.435,10.1325
1125,260105,0.650748,0.8308200000000001,-0.898652,-50.2425,-329.315,-36.015
1126,260202,0.750544,0.797392,-0.892552,-62.3,-343.525,-77.0175
1127,260299,0.8488761,0.646844,-0.822524,-62.895,-357.2625,-109.8125
1128,260396,0.859856,0.5016641,-0.674172,-55.8425,-368.5675,-134.5575
1129,260493,0.887916,0.351116,-0.564616,-48.1775,-372.5225,-151.1475
1130,260590,0.8823040000000001,0.22252800000000003,-0.48922,-41.5275,-369.32,-161.595
1131,260687,0.9113399999999999,0.133224,-0.50752,-36.435,-359.415,-166.4425
1132,260784,1.045296,0.039284,-0.628544,-33.2325,-347.1825,-166.5825
1133,260881,1.143872,-0.044407999999999996,-0.72956,-33.39,-340.5675,-164.08
1134,260979,1.22976,-0.10004,-0.8239880999999999,-37.975,-339.535,-159.1625
1135,261076,1.2883200000000001,-0.114924,-0.8525360000000001,-45.1325,-341.005,-151.69
1136,261173,1.29564,-0.12053599999999999,-0.8671761,-52.5175,-342.65,-142.0475
1137,261270,1.303936,-0.123708,-0.874984,-60.3225,-340.9525,-131.425
1138,261367,1.319308,-0.071004,-0.9232961,-68.7575,-335.965,-121.835
1139,261464,1.356884,0.010736,-1.000888,-73.97251,-329.1225,-112.9625
1140,261561,1.372744,0.054167999999999994,-1.059448,-73.90250999999999,-322.1925,-103.565
1141,261658,1.418372,0.06270801,-1.114592,-72.3625,-313.95,-92.2425
1142,261755,1.527196,0.068076,-1.172908,-75.32,-304.5875,-79.835
1143,261853,1.6914080000000002,0.141764,-1.223904,-84.2975,-295.6975,-69.02
1144,261950,1.9488279999999998,0.271328,-1.296616,-97.72,-287.42,-63.77
1145,262047,2.341668,0.452132,-1.402756,-112.8925,-282.065,-68.79251
1146,262144,2.7267,0.567056,-1.4125159999999999,-125.685,-286.615,-87.6575
1147,262241,2.833084,0.30841599999999997,-1.197064,-134.4525,-299.6175,-123.7075
1148,262338,2.802828,0.011224,-0.7356600000000001,-150.9025,-308.7525,-177.31
1149,262435,3.009984,-0.280356,-0.07222401,-177.1525,-306.46,-231.5075
1150,262532,3.6314519999999995,-0.6095119999999999,0.777628,-194.95,-286.7375,-272.79
1151,262629,3.8754519999999997,-0.859368,1.698484,-191.4675,-249.62,-297.0975
1152,262726,3.6987959999999998,-0.979416,2.30946,-153.405,-189.42,-295.05
1153,262824,3.3603680000000002,-1.138992,2.371436,-83.73751,-102.655,-244.755
1154,262921,2.754028,-1.112152,2.037644,-0.56,-7.7175,-156.52
1155,263018,2.54126,-0.9476959999999999,1.25294,73.255,76.4225,-61.25
1156,263115,2.7276759999999998,-0.658312,0.29377600000000004,113.1025,129.5,9.8525
1157,263212,2.056432,0.0061,-0.581208,113.575,138.5475,43.2775
1158,263309,1.807796,1.6918959999999998,0.161528,147.455,178.2025,70.0
1159,263406,-0.419436,-1.190964,1.2322,282.625,195.09,122.78
1160,263503,-0.2867,-1.8229240000000002,-1.520608,230.37,306.53,127.7675
1161,263600,3.3018080000000003,-0.367952,-2.7142560000000002,23.695,373.59,45.92
1162,263698,4.7885,-1.01016,-2.795264,27.265,355.5125,61.6
1163,263795,2.8252759999999997,-0.8361879999999999,-2.218204,43.9425,240.2225,67.83
1164,263892,0.148352,-0.58682,-0.8169121,50.9075,151.83,85.33
1165,263989,0.572912,0.794952,-0.859368,17.465,165.515,86.59
1166,264086,3.0441439999999997,1.565504,-1.5586719999999998,29.085,168.315,74.3225
1167,264183,0.6753920999999999,-0.41723999999999994,-0.9686799999999999,119.6475,72.7125,56.455
1168,264280,1.228784,-0.186416,-1.247084,91.5425,67.8125,55.37
1169,264377,0.9118280000000001,0.305244,-0.9903959999999999,67.13,46.2175,47.46
1170,264474,0.586332,0.216428,-0.849608,64.47,26.005,34.7025
1171,264571,0.690764,0.28767600000000004,-0.889624,61.6875,26.0225,32.7075
1172,264668,0.46726,0.23887600000000003,-0.8840120000000001,67.1475,18.9875,30.975
1173,264765,0.6283,0.185196,-0.9638,60.97,23.24,29.3475
1174,264863,0.544608,0.27938,-0.8369200000000001,50.505,21.4725,26.635
1175,264960,0.558272,0.221796,-0.834724,47.985,22.8025,25.55
1176,265057,0.7183361,-0.009028000999999999,-0.944768,48.0725,21.4375,24.57
1177,265154,0.5099600000000001,0.205204,-0.85644,35.665,16.625,20.4225
1178,265251,0.5353359999999999,0.112728,-0.8576601,29.575,20.545,18.8475
1179,265348,0.538996,0.129076,-0.8220360000000001,26.915,21.91,19.25
1180,265445,0.571448,0.09589201,-0.8220360000000001,24.2725,23.5375,18.3575
1181,265542,0.5702281,0.057096,-0.8015399999999999,21.2275,24.78,16.0825
1182,265639,0.538752,0.06344,-0.8281360999999999,14.98,26.775,13.1425
1183,265736,0.60146,0.06124401,-0.8425321,9.2225,30.7125,10.64
1184,265834,0.580476,0.11224,-0.821792,3.78,31.6575,9.66
1185,265931,0.6229319999999999,0.033672,-0.797148,0.2625,32.025,9.3975
1186,266028,0.6231760999999999,0.188856,-0.772992,-8.785,31.255,11.2
1187,266125,0.59048,0.085888,-0.8188641,-9.9925,31.605,12.215
1188,266222,0.5604680000000001,0.031476,-0.8276481,-7.735,35.945,8.645
1189,266319,0.616344,0.050752,-0.790804,-7.2275,43.085,2.3625
1190,266416,0.595604,0.027572000000000003,-0.7954399999999999,-8.505,46.235,-1.9425
1191,266513,0.61488,0.051972000000000004,-0.775676,-9.59,49.8925,-4.865
1192,266610,0.64172,0.02806,-0.748836,-10.71,52.57,-8.505
1193,266707,0.640744,0.044164,-0.729316,-11.3225,53.8825,-13.0725
1194,266804,0.6405,0.07686,-0.7217521,-12.18,54.8275,-17.43
1195,266902,0.647576,0.09320801,-0.71858,-12.6175,55.02,-20.65
1196,266999,0.634644,0.15054800000000002,-0.74542,-12.74,54.0225,-21.945
1197,267096,0.6095119999999999,0.1891,-0.760792,-11.7075,52.885,-20.37
1198,267193,0.606584,0.277672,-0.7820199999999999,-11.305,52.8675,-15.4
1199,267290,0.633668,0.27889200000000003,-0.774456,-10.535,55.3,-5.985
1200,267387,0.668072,0.243756,-0.7439560000000001,-8.26,59.745,4.8825
1201,267484,0.662704,0.22643200000000002,-0.745908,-7.3675,65.59,13.23
1202,267581,0.6573359999999999,0.179584,-0.7483479999999999,-6.6325,73.1325,19.635
1203,267678,0.657092,0.077592,-0.7266321,-6.755,81.97001,22.82
1204,267775,0.6283,0.061975999999999996,-0.746152,-10.4825,94.53501,21.9275
1205,267873,0.6068279999999999,0.06124401,-0.7625,-13.93,110.145,16.975
1206,267970,0.5997520000000001,0.024888,-0.760792,-13.86,127.8725,9.38
1207,268067,0.5875520000000001,0.012444,-0.7944641,-12.0925,146.405,0.14
1208,268164,0.593896,0.091012,-0.7661600000000001,-10.185,166.0925,-7.91
1209,268261,0.518744,0.118096,-0.8081281,-5.25,182.4725,-9.905
1210,268358,0.7610359999999999,0.198128,-0.833016,-2.9925,193.3225,-6.79
1211,268455,0.661484,0.101748,-0.8471681000000001,-5.7575,205.7475,-11.3575
1212,268552,-0.1891,0.118096,-0.7754321,-16.2575,182.2275,1.3475
1213,268649,1.056276,0.20691199999999998,-0.9347639999999999,-0.0175,217.1575,33.985
1214,268746,0.462136,0.23253200000000002,-0.11053199999999999,12.8975,289.03,34.02
1215,268844,2.243092,0.48873199999999994,-0.768112,-82.6875,402.5525,45.7975
1216,268941,1.467904,0.336964,-1.053348,-122.255,542.7275,80.2725
1217,269038,2.092788,0.45506,-1.1794959999999999,-133.77,572.8625,88.655
1218,269135,2.616412,0.8461921,-1.9766439999999998,-100.2225,573.405,157.955
1219,269232,2.19844,0.707112,-2.535404,-2.625,573.2125,227.955
1220,269329,2.724748,1.000888,-2.35582,46.1825,538.3875,251.0725
1221,269426,4.428844000000001,1.325652,-1.363716,1.1725,486.185,221.445
1222,269523,2.3528919999999998,0.670024,-1.313208,-66.7275,550.305,138.1975
1223,269620,2.038864,0.108824,-4.135068,-147.9275,491.7325,102.3575
1224,269717,4.5691440000000005,1.1089799999999999,-4.313676,-218.8725,140.7,123.3225
1225,269814,2.3616759999999997,1.8092599999999999,-3.6565839999999996,-156.73,-61.6,126.665
1226,269912,0.87718,1.654564,-2.136708,-89.67,-255.7275,136.15
1227,270009,0.40016,1.502308,-1.6021040000000002,-34.79,-287.875,130.8125
1228,270106,0.052703999999999994,1.225856,-1.025044,7.105,-298.9875,123.445
1229,270203,0.06124401,1.03578,-0.8466800999999999,21.5775,-292.1275,101.045
1230,270300,0.169824,0.889136,-0.7598161,13.755,-286.3525,68.65250999999999
1231,270397,0.325496,0.8359440999999999,-0.770308,-7.805,-288.1375,30.31
1232,270494,0.511668,0.8549761,-0.8315520000000001,-29.7325,-295.2425,-10.7275
1233,270591,0.658556,0.8413120000000001,-0.858392,-42.315,-309.8725,-50.5225
1234,270688,0.74298,0.764696,-0.823256,-44.9925,-327.74,-85.2075
1235,270785,0.7998321,0.6661201,-0.7671359999999999,-41.5975,-343.245,-112.6125
1236,270883,0.862296,0.504104,-0.698328,-36.19,-354.34,-133.21
1237,270980,0.901336,0.34477199999999997,-0.628788,-32.2,-361.655,-148.26
1238,271077,1.006744,0.192028,-0.6263479999999999,-32.3925,-365.0675,-157.3775
1239,271174,1.095072,0.033428,-0.618784,-36.9425,-368.235,-161.2625
1240,271271,1.1265479999999999,-0.12712400000000001,-0.592432,-46.62,-371.385,-159.5825
1241,271368,1.090924,-0.21301199999999998,-0.580476,-63.0525,-371.805,-152.18
1242,271465,1.087264,-0.21057199999999998,-0.606096,-82.81,-366.4325,-140.4025
1243,271562,1.146068,-0.164944,-0.6771,-98.84000999999999,-355.74,-125.6325
1244,271659,1.257576,-0.06929600000000001,-0.80886,-109.3925,-343.77,-109.935
1245,271756,1.3590799999999998,0.054655999999999996,-0.927932,-112.9275,-334.0925,-95.34
1246,271853,1.4459440000000001,0.157136,-1.017724,-108.6225,-326.4275,-84.2625
1247,271950,1.5037719999999999,0.228384,-1.111176,-100.9225,-319.5675,-77.665
1248,272048,1.572336,0.23692399999999997,-1.199748,-93.5375,-312.5675,-76.1775
1249,272145,1.6513919999999997,0.22814,-1.277096,-90.56251,-305.7075,-79.45
1250,272242,1.791204,0.22667600000000002,-1.3725,-95.62,-299.1975,-86.8
1251,272339,1.96786,0.240096,-1.431792,-107.8525,-294.8925,-98.07
1252,272436,2.16062,0.304512,-1.416908,-124.705,-293.685,-115.3075
1253,272533,2.366556,0.397476,-1.348588,-141.4875,-293.755,-139.5275
1254,272630,2.472696,0.425292,-1.17242,-151.06,-293.72,-169.8025
1255,272727,2.433168,-0.09540401,-0.89792,-150.36,-285.5825,-210.595
1256,272824,3.00242,-0.281332,-0.50264,-159.53,-269.1325,-266.945
1257,272921,4.243404,-0.527772,0.366,-161.7175,-259.945,-314.8075
1258,273018,4.591836,-1.170468,1.630896,-139.4925,-249.13,-342.7725
1259,273116,3.8144519999999997,-1.630652,2.585424,-111.0725,-208.4775,-350.6475
1260,273213,3.060004,-1.693604,2.601772,-79.31,-115.8325,-311.2725
1261,273310,2.3419119999999998,-1.20292,2.057652,-18.305,-4.62,-215.25
1262,273407,2.3006759999999997,-0.9674601,1.084336,71.645,93.59,-85.90751
1263,273504,2.656428,-0.9232961,-0.007320001,140.875,146.93,20.5975
1264,273601,2.489044,-0.5546121,-0.5058121,151.375,150.6225,78.1025
1265,273698,1.336144,1.0462719999999999,0.6329359999999999,155.54,168.8225,133.945
1266,273795,0.9547720999999999,-1.547204,0.66978,227.01,175.8925,184.835
1267,273892,-0.21301199999999998,-1.375428,-0.7076001000000001,160.5275,253.68,194.39
1268,273989,2.878956,1.431548,-2.22772,-58.8,351.19,92.4525
1269,274086,4.254872,-0.107116,-2.6932720000000003,26.565,330.015,63.0525
1270,274184,2.651792,-1.099708,-2.119628,50.6975,242.9,43.7675
1271,274281,0.372832,-1.209264,-0.93086,52.29,161.07,67.1475
1272,274378,0.823744,0.961116,-1.109956,8.19,160.16,86.4325
1273,274475,2.77916,1.9412639999999999,-1.208288,27.3525,154.14,85.2075
1274,274572,0.612928,-0.36575599999999997,-0.8222799999999999,124.46,65.1,55.405
1275,274669,1.200968,-0.23741199999999998,-1.257088,102.935,63.56,54.5475
1276,274766,0.9950319999999999,0.356484,-0.964044,77.63,42.945,50.015
1277,274863,0.44944799999999996,0.107848,-0.829356,76.37001,21.5425,35.4375
1278,274960,0.7032079999999999,0.21667199999999998,-0.9738041,64.34751,26.4075,30.9225
1279,275058,0.640012,0.001952,-0.9516,58.625,19.1975,25.9175
1280,275155,0.5294800000000001,0.208132,-0.8808401,43.82,18.025,19.6525
1281,275252,0.58316,0.142008,-0.9018241,33.3025,23.45,14.42
1282,275349,0.616344,0.058072000000000006,-0.8991401,26.7225,24.5525,11.1475
1283,275446,0.598288,-0.014152000000000001,-0.8971879999999999,16.905,23.7125,6.0375
1284,275543,0.555832,0.10321199999999998,-0.8740081000000001,4.655,24.815,-0.595
1285,275640,0.563396,0.112728,-0.8540000000000001,-2.0125,28.1225,-4.3225
1286,275737,0.5743761,0.101992,-0.83204,-4.7075,29.645,-5.985
1287,275834,0.572912,0.086132,-0.817156,-7.42,30.1,-7.7
1288,275931,0.564372,0.111508,-0.822768,-9.6775,31.535,-9.7125
1289,276028,0.5653481,0.188612,-0.811056,-11.1825,34.6675,-11.13
1290,276126,0.5499761,0.188856,-0.818132,-10.5525,38.5875,-11.4625
1291,276223,0.609024,0.187636,-0.791048,-8.435,43.89,-11.9
1292,276320,0.621468,0.19276,-0.785192,-9.135,45.3425,-10.675
1293,276417,0.607804,0.168848,-0.79666,-12.8975,43.9075,-7.525
1294,276514,0.6219561,0.20374,-0.7705521,-17.6225,42.7525,-4.48
1295,276611,0.620004,0.185928,-0.7517640999999999,-16.835,42.6825,-2.975
1296,276708,0.61732,0.203008,-0.753472,-14.8225,42.07,-2.625
1297,276805,0.5980439999999999,0.325496,-0.771772,-12.4075,41.51,-2.17
1298,276902,0.660996,0.189588,-0.740296,-2.73,43.4875,-0.0175
1299,276999,0.659044,0.21667199999999998,-0.724436,-0.5775,42.4725,1.3825
1300,277096,0.644648,0.211548,-0.7237041,-0.0525,39.13,3.85
1301,277193,0.6729520999999999,0.187392,-0.724436,4.725,37.73,7.595
1302,277291,0.6771,0.171776,-0.692472,5.565,34.5625,11.0075
1303,277388,0.6707561,0.161772,-0.6946681,5.5825,31.395,13.23
1304,277485,0.6439159999999999,0.148352,-0.715408,4.3225,29.4875,13.125
1305,277582,0.599508,0.165676,-0.7422481,4.445,29.6975,11.62
1306,277679,0.570472,0.223748,-0.781776,4.1825,31.9375,11.2875
1307,277776,0.684908,0.080276,-0.785192,3.2725,36.9425,14.4025
1308,277873,0.633424,0.23155599999999998,-0.7856801,-2.975,42.63,17.955
1309,277970,0.629764,0.177876,-0.780068,-4.025,53.41,20.8075
1310,278067,0.636108,0.178608,-0.7734800000000001,-5.5125,65.3275,23.45
1311,278164,0.643672,0.09028,-0.750788,-6.1075,78.0675,25.095
1312,278261,0.612196,0.09320801,-0.7712840999999999,-10.325,92.62751,23.765
1313,278358,0.605608,0.030744,-0.76372,-10.85,109.83,17.36
1314,278455,0.58072,0.033428,-0.7771399999999999,-12.0225,128.3625,6.72
1315,278553,0.5814520000000001,0.010004,-0.769332,-10.78,149.17,-5.3725
1316,278650,0.580476,0.08637601,-0.808372,-9.5025,171.57,-15.89
1317,278747,0.506788,0.156892,-0.7766521,-3.675,189.98,-17.7275
1318,278844,0.7283400999999999,0.196664,-0.794952,-0.0525,202.265,-15.9425
1319,278941,0.525332,0.173484,-0.967216,-0.8575,212.555,-23.66
1320,279038,-0.12078,0.135908,-0.651968,-4.445,192.605,-13.7725
1321,279135,0.7168720000000001,0.35892399999999997,-0.992592,7.805,228.3225,13.195
1322,279232,1.090436,0.42602399999999996,-0.259372,26.04,305.55,10.045
1323,279329,1.48718,0.346968,-0.745664,-57.645,432.25,34.195
1324,279426,1.355664,0.36234,-1.106296,-85.99501,553.77,61.1625
1325,279523,2.1179200000000002,0.547292,-1.395924,-99.03251,573.3525,58.1175
1326,279620,2.566636,0.841556,-2.19234,-68.565,573.405,122.325
1327,279718,2.13988,0.7105279999999999,-2.157936,14.4025,570.71,186.8475
1328,279815,2.315316,0.548756,-1.43228,46.6725,531.3875,207.095
1329,279912,4.413228,0.978196,-1.510116,-21.77,500.15,172.2175
1330,280009,2.38144,0.8388721,-1.253916,-111.5275,554.61,97.7725
1331,280106,1.8053560000000002,-0.18666,-3.835924,-196.0525,478.0825,68.9325
1332,280203,4.324656,0.9298841,-4.3163599999999995,-269.5525,124.005,115.3075
1333,280300,2.443172,1.63724,-3.7839519999999998,-182.9625,-84.8575,148.645
1334,280397,0.8437520000000001,1.510848,-2.0998639999999997,-105.4725,-285.005,179.1475
1335,280494,0.524112,1.48108,-1.6047879999999999,-54.3375,-321.2475,185.0625
1336,280591,0.259372,1.265628,-1.086776,-10.185,-332.85,184.2925
1337,280689,0.2196,1.11874,-0.86864,11.06,-328.1075,164.5175
1338,280786,0.28938400000000003,0.998448,-0.709796,9.8,-321.8075,131.5825
1339,280883,0.37502800000000003,0.9535521,-0.648796,-5.215,-320.0925,91.8575
1340,280980,0.536556,0.9686799999999999,-0.704916,-24.9025,-321.3175,48.58
1341,281077,0.647332,0.9250040999999999,-0.72102,-39.83,-329.525,4.445
1342,281174,0.721264,0.8908440999999999,-0.656116,-47.9675,-341.565,-38.5875
1343,281271,0.7166279999999999,0.786656,-0.562176,-49.07,-350.9625,-76.4925
1344,281369,0.734684,0.6646561,-0.47336000000000006,-46.025,-353.5175,-107.45
1345,281465,0.768356,0.548512,-0.429684,-41.09,-349.2125,-131.18
1346,281562,0.8820601,0.41602,-0.47702,-36.155,-340.9,-147.4375
1347,281659,1.006988,0.273524,-0.5380199999999999,-34.3875,-334.3725,-157.045
1348,281757,1.078724,0.13761600000000002,-0.587796,-37.1,-331.1175,-161.1225
1349,281854,1.125084,0.041968,-0.634156,-46.1125,-328.86,-160.16
1350,281951,1.171932,-0.0183,-0.6851520999999999,-58.625,-326.165,-154.6125
1351,282048,1.251232,-0.063684,-0.751276,-72.38,-322.245,-145.6875
1352,282145,1.315892,-0.039528,-0.823744,-87.1325,-319.1125,-135.6775
1353,282242,1.354444,0.050508,-0.8532681000000001,-97.4925,-316.785,-125.055
1354,282339,1.3642040000000002,0.170068,-0.9237841,-99.7325,-312.7775,-114.7125
1355,282436,1.431548,0.238632,-1.008208,-94.46500999999999,-305.1475,-106.1725
1356,282533,1.50548,0.22691999999999998,-1.090436,-86.45,-296.1,-100.8875
1357,282630,1.616012,0.180072,-1.1712,-83.0025,-287.315,-98.89251
1358,282727,1.7143439999999999,0.14152,-1.227808,-87.8325,-280.385,-99.295
1359,282825,1.90198,0.14762,-1.3207719999999998,-99.8375,-273.42,-100.9925
1360,282922,2.267492,0.17738800000000002,-1.450336,-116.375,-268.1,-104.93
1361,283019,2.655208,0.22691999999999998,-1.4903520000000001,-131.705,-272.5975,-112.63
1362,283116,2.786724,0.152988,-1.314184,-141.68,-287.42,-126.105
1363,283213,2.5800560000000003,-0.553636,-0.885476,-152.075,-299.0925,-152.915
1364,283310,2.9504479999999997,-0.800808,-0.374784,-192.71,-298.025,-201.7225
1365,283407,3.9801279999999997,-0.941108,0.5009319999999999,-238.28,-297.0975,-248.5875
1366,283504,4.249992,-1.18462,1.62626,-248.6575,-285.5475,-284.13
1367,283601,3.5985120000000004,-1.3090600000000001,2.463668,-209.4925,-237.3525,-305.3575
1368,283698,2.8077080000000003,-1.234884,2.504416,-131.7925,-141.3825,-273.2275
1369,283795,2.202588,-1.007232,1.9461439999999999,-19.0575,-27.0025,-177.9225
1370,283892,2.152568,-1.044564,0.9642879999999999,98.6475,71.92501,-55.0375
1371,283990,2.6754599999999997,-0.6390359999999999,0.128832,177.135,150.57,51.8
1372,284087,1.5664799999999999,0.052703999999999994,1.060668,253.3475,195.3875,151.06
1373,284184,1.8995400000000002,-1.9358959999999998,0.44066400000000006,324.8175,236.495,213.71
1374,284281,0.328912,-3.166876,-0.724924,247.45,266.1925,220.99
1375,284378,3.232268,0.25790799999999997,-3.1842,-32.655,337.68,129.675
1376,284475,3.9942800000000003,0.366244,-2.153788,10.0625,289.345,112.455
1377,284572,1.9032,-0.12932000000000002,-1.30418,85.27750999999999,214.0775,99.2075
1378,284669,-0.01464,-0.5231359999999999,-0.6514800000000001,95.00751,178.78,78.365
1379,284766,1.27978,0.983564,-1.8343919999999998,74.27,201.3025,76.2475
1380,284863,3.590704,0.5414359999999999,-1.9971400000000001,122.4475,189.8925,92.2425
1381,284960,0.887916,-1.4823,-1.491816,199.15,51.5025,87.0625
1382,285058,0.71858,0.19178399999999998,-0.9708760000000001,124.145,23.975,63.805
1383,285155,1.072624,0.202276,-1.032852,77.42,29.19,39.2
1384,285252,0.6197600000000001,0.057339999999999995,-0.832528,46.69,22.8725,20.4575
1385,285349,0.714432,0.207156,-0.887916,17.185,20.44,9.695
1386,285446,0.5892601,0.022936,-0.8845,10.185,19.2675,5.39
1387,285543,0.639768,0.12688,-0.888648,4.445,19.985,1.5225
1388,285640,0.542412,0.055144000000000006,-0.898164,0.91,20.3875,-1.5575
1389,285737,0.582184,0.033428,-0.8801081000000001,-3.29,23.695,-4.1125
1390,285834,0.57096,0.06588,-0.850584,-8.9425,26.0225,-7.42
1391,285931,0.583648,0.101748,-0.8298440999999999,-11.6025,27.0025,-9.2925
1392,286028,0.586332,0.114192,-0.818132,-11.6725,26.7575,-9.6775
1393,286126,0.582184,0.134444,-0.809348,-11.305,26.5475,-9.03
1394,286223,0.562664,0.035624,-0.8317960999999999,-10.185,27.965,-8.9075
1395,286320,0.531188,0.14078800000000002,-0.8300879999999999,-11.3225,31.4125,-11.1825
1396,286417,0.57096,0.10540799999999999,-0.8271601000000001,-11.27,35.875,-12.0925
1397,286514,0.601704,0.204228,-0.8020281,-14.105,38.5525,-10.0275
1398,286611,0.6131721,0.146644,-0.795928,-15.6975,38.885,-5.5125
1399,286708,0.565836,0.12761199999999998,-0.798124,-17.01,39.3575,-3.115
1400,286805,0.58072,0.196908,-0.797148,-19.04,42.7,-3.9025
1401,286902,0.5016641,0.24058400000000002,-0.777872,-13.6325,47.95,-3.605
1402,286999,0.647576,0.11053199999999999,-0.7700640999999999,-4.5325,54.67,-3.15
1403,287096,0.641964,0.191052,-0.74298,-7.175,53.5675,-2.9575
1404,287193,0.6753920999999999,0.148352,-0.7324881,-4.9525,52.605,-1.9075
1405,287291,0.70394,0.170068,-0.71614,-5.3725,49.7,-0.595
1406,287388,0.6832,0.14762,-0.7198,-3.4125,45.885,0.98
1407,287485,0.6939361,0.158844,-0.698816,-2.6425,41.9825,2.275
1408,287582,0.697596,0.137372,-0.686372,-1.855,38.01,3.6225
1409,287679,0.701256,0.11541199999999999,-0.6851520999999999,-2.0825,33.95,3.85
1410,287776,0.6856399999999999,0.098576,-0.6795401,-2.625,30.3975,2.065
1411,287873,0.661728,0.123464,-0.7019880000000001,-4.62,27.965,-0.4375
1412,287970,0.6456241,0.126392,-0.733464,-5.5475,28.0,-2.485
1413,288067,0.619028,0.16811600000000002,-0.76982,-6.4575,30.5025,-2.765
1414,288164,0.62342,0.221308,-0.772504,-6.685,36.4875,0.77
1415,288261,0.657824,0.178608,-0.7722600000000001,-5.4775,45.2725,6.965
1416,288358,0.6539201,0.130052,-0.74298,-5.6,53.9,11.4275
1417,288455,0.644648,0.13908,-0.747128,-8.05,63.3325,11.83
1418,288553,0.657092,0.1525,-0.73688,-8.715,72.7125,10.92
1419,288650,0.64172,0.13542,-0.73444,-7.455,83.3175,10.15
1420,288747,0.643428,0.100284,-0.741272,-5.7575,95.2,8.75
1421,288844,0.6497721,0.091012,-0.72956,-4.8475,107.9575,5.5125
1422,288941,0.64782,0.071492,-0.7237041,-3.57,122.115,1.645
1423,289038,0.627812,0.093696,-0.743468,-2.7125,138.04,-3.045
1424,289135,0.5926760999999999,0.1586,-0.7732359999999999,-1.4875,156.9225,-5.3725
1425,289232,0.5441199999999999,0.239364,-0.6763680000000001,3.675,168.5775,-0.2275
1426,289329,0.720288,0.16835999999999998,-0.7983680000000001,2.8175,184.0825,-0.9275
1427,289426,0.606584,0.11053199999999999,-0.904752,-2.59,194.25,-5.2325
1428,289523,-0.17641199999999999,0.17397200000000002,-0.8718120999999999,-13.4925,174.3875,5.215
1429,289620,0.96624,0.222284,-0.9884440000000001,4.6725,217.6825,33.5475
1430,289718,0.7139439999999999,0.29133600000000004,-0.25864000000000004,23.1525,290.64,31.465
1431,289815,2.065704,0.303048,-0.781532,-44.38,401.9575,51.9925
1432,289912,1.481324,0.20642399999999997,-0.82594,-85.71500999999999,539.805,84.3675
1433,290009,2.1008400000000003,0.518256,-1.292224,-98.2275,572.8625,99.45251
1434,290106,2.551996,0.9974719999999999,-2.204052,-42.595,573.405,170.345
1435,290203,1.9539520000000001,0.6405,-2.346304,56.385,571.8125,229.2325
1436,290300,2.8748080000000003,0.987956,-2.446832,51.52,530.075,231.7525
1437,290397,3.313764,0.9108521,-2.275788,-7.84,498.085,180.6175
1438,290494,1.2402520000000001,0.696132,-1.419836,-61.1975,557.41,119.56
1439,290591,1.880508,-0.18544000000000002,-3.8632519999999997,-167.16,440.72,85.78501
1440,290688,4.764832,0.9830760000000001,-4.60184,-227.8675,114.695,122.045
1441,290785,2.2067360000000003,1.574776,-3.342068,-165.585,-101.745,132.8775
1442,290883,0.79056,1.480104,-1.9480959999999998,-108.465,-281.96,148.33
1443,290980,0.353068,1.363472,-1.392508,-62.6325,-306.985,145.1625
1444,291077,0.04392,1.11264,-0.9028,-25.1825,-311.57,137.27
1445,291174,0.036112,0.9972281,-0.70394,-10.2375,-299.1625,116.1825
1446,291271,0.10687200000000001,0.9201241,-0.634644,-12.0225,-287.7,86.29251
1447,291368,0.219844,0.9206120000000001,-0.6439159999999999,-19.6875,-281.5575,52.395
1448,291465,0.41358,0.9154880999999999,-0.7156520000000001,-26.3025,-280.0525,18.025
1449,291562,0.6222,0.8935280999999999,-0.786656,-29.4175,-287.14,-17.2375
1450,291659,0.743712,0.820084,-0.785192,-27.93,-302.295,-51.45
1451,291756,0.812032,0.708576,-0.729072,-25.2175,-319.41,-82.6175
1452,291854,0.840824,0.564616,-0.645868,-23.0475,-333.2525,-108.7625
1453,291951,0.8576601,0.42456000000000005,-0.573156,-23.1525,-341.285,-128.9575
1454,292048,0.9252481,0.299388,-0.547292,-26.3375,-343.4025,-143.605
1455,292145,1.003328,0.153232,-0.553392,-32.13,-342.7725,-152.1275
1456,292242,1.048224,0.003172,-0.5663239999999999,-42.3325,-341.1625,-154.805
1457,292339,1.125572,-0.085156,-0.599996,-59.465,-338.45,-153.1075
1458,292436,1.203652,-0.09979600000000001,-0.676612,-80.29,-335.8775,-147.7875
1459,292533,1.315648,-0.094916,-0.7617681,-97.7375,-332.64,-138.5475
1460,292630,1.4191040000000001,-0.07246799999999999,-0.81252,-110.7925,-330.925,-125.5975
1461,292727,1.454484,-0.026595999999999998,-0.856684,-119.5775,-330.61,-111.02
1462,292824,1.447652,0.05172801,-0.8874280999999999,-124.145,-328.545,-97.3525
1463,292922,1.46644,0.13542,-0.9362280000000001,-124.845,-321.545,-87.7275
1464,293019,1.533784,0.176656,-1.029192,-123.095,-310.2225,-83.66751
1465,293116,1.6814040000000001,0.197884,-1.175592,-123.0425,-298.375,-85.3825
1466,293213,1.885388,0.17397200000000002,-1.310768,-127.0325,-289.555,-92.26001
1467,293310,2.097424,0.153232,-1.396168,-137.4275,-286.65,-105.4725
1468,293407,2.320928,0.17128800000000002,-1.412272,-153.615,-289.31,-125.1775
1469,293504,2.464156,0.207156,-1.303936,-169.295,-295.365,-149.59
1470,293601,2.490508,0.124928,-1.13094,-179.375,-299.565,-176.2075
1471,293698,2.376072,-0.348188,-0.8708360999999999,-184.2925,-291.8475,-209.3525
1472,293795,2.7181599999999997,-0.478484,-0.451888,-202.125,-274.8375,-251.965
1473,293892,3.8488559999999996,-0.612684,0.349164,-213.5175,-260.785,-285.075
1474,293990,4.166056,-1.011624,1.502796,-203.315,-246.7325,-303.8525
1475,294087,3.414048,-1.267336,2.359968,-171.465,-205.7125,-308.3675
1476,294184,2.626172,-1.31882,2.372656,-121.0475,-117.5125,-271.04
1477,294281,2.0220279999999997,-1.0821399999999999,1.8153599999999999,-45.1325,-9.17,-187.3725
1478,294378,1.9339439999999999,-0.9049959999999999,0.8762040000000001,43.155,84.1925,-80.2725
1479,294475,2.23504,-0.8127641,-0.126392,104.5275,134.365,8.61
1480,294572,2.217716,0.371856,-0.830332,124.8625,139.335,60.41
1481,294669,1.15534,1.107272,0.38308000000000003,212.765,159.285,119.0
1482,294766,1.609668,-1.4457,0.338672,331.6075,172.6375,173.88
1483,294863,-0.188368,-3.16712,-0.028304000000000003,309.4525,223.7025,200.1475
1484,294961,2.6827799999999997,-0.342332,-2.9853400000000003,32.445,290.115,115.78
1485,295058,3.288876,-0.025376,-2.213324,12.075,289.9925,77.91
1486,295155,2.338984,-0.48385200000000006,-1.7028759999999998,40.67,239.8375,59.0975
1487,295252,0.465552,-0.6605081,-1.039928,50.785,183.3125,49.7
1488,295349,0.592432,0.45628,-0.9801479999999999,31.71,178.185,57.68
1489,295446,2.8069759999999997,1.334924,-1.198772,41.685,181.7025,67.8475
1490,295543,0.772016,-0.29426399999999997,-0.8857200999999999,131.39,92.365,63.77
1491,295640,1.57502,-0.282064,-1.49084,119.8925,79.8875,69.6325
1492,295737,0.8113001,0.023424,-0.812032,104.895,38.395,59.36
1493,295834,0.8359440999999999,0.233508,-1.003572,82.67,28.07,40.3375
1494,295931,0.706136,0.327448,-0.822524,68.285,20.9825,30.31
1495,296029,0.7200439999999999,0.12175599999999999,-0.9467200000000001,52.71,21.665,22.1025
1496,296126,0.6675840000000001,0.049532,-0.9025559999999999,36.925,17.29,15.0675
1497,296223,0.612196,0.190564,-0.8671761,19.5825,13.7025,7.7525
1498,296320,0.591212,0.057584,-0.8730319999999999,13.615,14.14,3.955
1499,296417,0.559736,0.116632,-0.87474,6.055,14.455,0.455
1500,296514,0.571692,0.09247601,-0.8613200000000001,1.0675,16.1,-1.89
1501,296611,0.5726680000000001,0.104676,-0.8388721,-2.835,17.71,-4.5675
1502,296708,0.5734,0.10687200000000001,-0.833992,-6.1425,18.6025,-7.105
1503,296805,0.579012,0.121024,-0.8283799999999999,-8.4525,19.74,-8.8375
1504,296902,0.5726680000000001,0.10223600000000001,-0.8178880999999999,-9.9225,20.93,-10.2375
1505,296999,0.5665680000000001,0.10321199999999998,-0.8235001000000001,-11.5325,23.24,-12.6175
1506,297097,0.562176,0.16128399999999998,-0.808372,-14.0175,26.0225,-14.3325
1507,297194,0.543144,0.187636,-0.818132,-14.42,29.82,-14.98
1508,297291,0.5838920999999999,0.16104000000000002,-0.791048,-12.74,33.6175,-14.7
1509,297388,0.6036560999999999,0.193492,-0.786656,-12.32,34.9125,-12.95
1510,297485,0.6075600999999999,0.21618400000000002,-0.7754321,-12.1975,34.09,-9.8175
1511,297582,0.593164,0.217892,-0.7700640999999999,-10.745,32.2525,-5.705
1512,297679,0.625616,0.240096,-0.752496,-8.7325,30.975,-1.68
1513,297776,0.6317159999999999,0.22448,-0.738588,-6.895,28.7,2.1175
1514,297873,0.6380600000000001,0.24278000000000002,-0.733952,-6.685,25.0075,5.3025
1515,297970,0.6258600000000001,0.203252,-0.7356600000000001,-4.9175,21.3325,9.0475
1516,298068,0.6527,0.23301999999999998,-0.760792,-3.185,17.3425,13.58
1517,298165,0.64904,0.24668400000000001,-0.758108,0.6825,12.95,18.305
1518,298262,0.681736,0.173484,-0.7376119999999999,5.635,10.36,22.4175
1519,298359,0.671976,0.14469200000000002,-0.718092,3.675,5.1625,25.235
1520,298456,0.6724640000000001,0.152256,-0.7195560000000001,-1.5925,-1.3125,27.6675
1521,298553,0.668072,0.119804,-0.720776,-4.025,-6.1075,28.8225
1522,298650,0.620736,0.11834000000000001,-0.7288279999999999,-6.1425,-9.345,27.5975
1523,298747,0.571204,0.188856,-0.7639640999999999,-5.88,-9.695,25.69
1524,298844,0.5502199999999999,0.189588,-0.794952,-3.4475,-5.7925,24.115
1525,298941,0.5429,0.189588,-0.806176,-1.9075,0.56,24.0275
1526,299038,0.5587601,0.1647,-0.8327720999999999,-3.1675,8.61,25.8825
1527,299136,0.6453800000000001,0.081496,-0.809836,-6.1075,17.6925,27.965
1528,299233,0.57584,0.132248,-0.8052,-9.8875,26.25,27.5275
1529,299330,0.5785241,0.15128,-0.8095920999999999,-12.7575,37.835,26.95
1530,299427,0.569984,0.122244,-0.8274040000000001,-14.2625,51.065,25.4975
1531,299524,0.58804,0.07588400000000001,-0.8315520000000001,-12.88,64.4875,22.4175
1532,299621,0.5368,0.0427,-0.8549761,-11.725,79.7825,14.525
1533,299718,0.5246,0.0061,-0.8342360000000001,-12.0225,99.10251,4.445
1534,299815,0.529968,-0.070516,-0.815204,-13.825,122.6925,-7.2975
1535,299912,0.513864,-0.0061,-0.8149601,-19.4775,149.975,-20.51
1536,300009,0.503372,0.094672,-0.8296,-26.6875,180.3375,-32.2525
1537,300106,0.48068,0.142496,-0.818376,-28.1925,207.795,-36.715
1538,300203,0.378932,0.14762,-0.808372,-18.935,230.8075,-36.4175
1539,300301,0.663192,0.22277199999999997,-0.87718,-5.0575,247.2225,-36.2425
1540,300398,0.153232,0.112972,-1.254404,-1.68,250.8275,-54.95
1541,300495,-0.096868,0.389912,-0.5343600000000001,0.105,239.8725,-45.2725
1542,300592,1.072136,0.087352,-0.1891,43.2075,341.0575,-42.5425
1543,300689,2.781844,0.56242,-2.1240200000000002,-39.48,468.335,-73.09751
1544,300786,1.802672,0.91622,-1.3712799999999998,-92.225,568.9425,-25.585
1545,300883,2.434388,0.919636,-2.043256,-95.515,573.405,12.075
1546,300980,2.509296,0.7044279999999999,-2.41682,-75.6175,573.3875,73.57
1547,301077,2.016416,0.8271601000000001,-1.2458639999999999,-50.435,568.2075,115.22
1548,301174,2.523936,0.9337880999999999,-2.22772,-94.72751,564.27,110.67
1549,301271,2.139392,1.337852,-1.4713200000000002,-130.27,573.405,119.665
1550,301368,2.522472,1.342976,-2.5498,-145.67,534.625,98.3325
1551,301466,2.3772919999999997,1.4598520000000001,-1.863184,-163.555,282.94,151.7075
1552,301563,4.04552,2.0557,-5.08862,-78.1375,129.0275,163.0475
1553,301660,1.642608,1.633092,-2.745488,26.2675,-105.98,162.1375
1554,301757,0.853756,1.232932,-1.928332,70.665,-233.52,152.5475
1555,301854,0.18251199999999998,1.072868,-1.098976,92.76751,-279.7375,149.87
1556,301951,-0.035624,0.9398880999999999,-0.6663640000000001,100.695,-286.545,149.8
1557,302048,0.028792,1.0025959999999998,-0.513376,105.14,-273.735,150.255
1558,302145,0.158356,1.178764,-0.49288000000000004,109.55,-264.25,149.45
1559,302242,0.3355,1.400316,-0.518256,121.905,-259.56,141.3475
1560,302339,0.51362,1.633092,-0.570716,140.1225,-260.82,123.2525
1561,302436,0.671976,1.836588,-0.617564,161.7525,-269.8325,94.72751
1562,302534,0.795928,2.009584,-0.58682,187.5125,-284.795,56.21
1563,302631,0.8625401,2.05326,-0.47213999999999995,216.8075,-301.98,13.51
1564,302728,0.9001161,1.9654200000000002,-0.333548,244.0375,-317.4675,-26.9675
1565,302825,0.9552601000000001,1.884656,-0.223748,263.2175,-326.7775,-61.565
1566,302922,1.045784,1.82512,-0.13298,274.7675,-332.1325,-85.4
1567,303019,1.240984,1.7938880000000001,-0.05172801,281.225,-335.0375,-98.3325
1568,303116,1.3764040000000002,1.746552,-0.000488,281.155,-339.3075,-99.575
1569,303213,1.548424,1.665056,-0.038551999999999996,268.45,-343.0,-95.445
1570,303310,1.7143439999999999,1.634312,-0.045384,240.7825,-348.1975,-93.3625
1571,303407,1.837076,1.641144,-0.08466801,201.565,-353.6925,-93.1
1572,303504,1.993236,1.7511880000000002,-0.121512,157.465,-358.785,-97.8425
1573,303601,2.16062,1.949804,-0.134932,120.5225,-364.1575,-107.5375
1574,303699,2.255048,2.096692,-0.07978801,101.1325,-369.25,-117.4775
1575,303796,2.186728,2.051308,0.010004,95.76,-371.735,-124.985
1576,303893,1.9820119999999999,1.8297560000000002,0.09150001,88.34000999999999,-367.01,-134.12
1577,303990,1.767536,1.567944,0.0793,63.8225,-350.875,-150.815
1578,304087,1.659932,1.2846600000000001,-0.009272001,23.415,-326.655,-172.375
1579,304184,1.6836,0.985516,-0.183,-28.4725,-299.95,-193.095
1580,304281,1.833416,0.8222799999999999,-0.43334399999999995,-86.03,-277.8475,-210.735
1581,304378,2.016416,0.774212,-0.6675840000000001,-134.8375,-265.1075,-222.95
1582,304475,2.185264,0.8457040000000001,-0.877424,-164.0975,-262.465,-229.775
1583,304572,2.297748,0.9581881,-1.0004,-168.525,-266.63,-234.1675
1584,304670,2.247484,1.093364,-0.952332,-146.335,-272.3875,-240.38
1585,304767,2.119872,1.199992,-0.754692,-101.395,-271.0925,-251.1075
1586,304864,2.165988,0.9999121,-0.355996,-42.595,-253.8375,-270.9875
1587,304961,2.955572,0.694912,0.30744,12.3375,-221.5325,-300.965
1588,305058,4.068212,0.025863999999999998,1.40788,47.53,-197.4175,-315.4725
1589,305155,3.643652,-0.8405800999999999,2.470988,53.8825,-169.5575,-303.0125
1590,305252,2.4500040000000003,-0.7166279999999999,2.585668,17.115,-103.9325,-282.6425
1591,305349,1.979816,0.09882,1.7446,7.9975,1.4525,-254.7125
1592,305446,2.2128360000000002,0.549732,0.5575399999999999,70.5775,96.075,-218.9075
1593,305543,2.389248,0.35014,-0.380884,152.1625,131.1275,-199.535
1594,305640,2.3128759999999997,-1.047492,0.290848,184.66,142.3625,-197.12
1595,305737,0.784704,-0.9408639999999999,2.760616,115.71,168.7875,-193.83
1596,305835,1.921256,-0.43188000000000004,2.278716,39.095,303.0825,-196.6125
1597,305932,2.731336,-1.4234959999999999,-2.121336,0.7175,409.255,-156.3975
1598,306029,4.121404,-1.890512,-4.05772,-12.74,400.295,-81.445
1599,306126,3.077084,-1.305644,-1.9715200000000002,-32.48,260.54,-14.245
1600,306223,1.175348,0.191052,-1.1394799999999998,-54.5825,178.5175,51.1
1601,306320,-0.019275999999999998,1.3773799999999998,-0.36844,-40.2675,151.7075,79.45
1602,306417,2.551752,3.0575639999999997,-0.8901120000000001,19.95,155.715,75.2675
1603,306514,1.178032,-0.47994799999999993,-0.9089001,165.1825,95.2,66.3425
1604,306611,1.706292,-0.7442,-1.973716,159.4425,79.8525,89.46
1605,306708,0.56852,0.355996,-0.8332601000000001,101.9025,36.2425,87.0975
1606,306805,0.525576,0.5063,-0.7705521,66.9725,36.8725,70.385
1607,306902,1.028216,-0.17324,-0.9762440999999998,60.9175,36.575,51.8875
1608,307000,0.796172,0.323056,-0.913292,38.815,25.13,36.6625
1609,307097,0.6756361,0.16811600000000002,-0.8637601,32.3225,26.4075,29.715
1610,307194,0.635864,0.057584,-0.8849879999999999,27.965,24.5875,25.3575
1611,307291,0.705404,-0.005368,-0.849852,22.925,23.2575,21.8575
1612,307388,0.596092,0.020496,-0.8810841,19.0925,17.9725,18.3575
1613,307485,0.6080479999999999,0.01464,-0.8569280999999999,17.185,19.3725,14.9275
1614,307582,0.557052,0.042944,-0.8615640999999999,15.155,22.3125,11.935
1615,307679,0.446276,-0.081496,-0.7795801,17.535,22.2775,4.515
1616,307776,0.5246,-0.010736,-0.854244,17.3775,28.3325,-2.3275
1617,307873,0.473116,-0.008052001,-0.908168,23.5725,30.6775,-12.0925
1618,307970,0.456524,-0.082228,-0.9242720999999999,36.225,37.31,-25.13
1619,308067,0.47946000000000005,-0.10345599999999999,-0.8679081,43.4525,46.4975,-40.2675
1620,308164,0.44822799999999996,-0.039528,-0.9347639999999999,43.5575,57.0325,-54.6875
1621,308262,0.490196,-0.040992,-0.915976,53.1125,67.13,-66.1325
1622,308359,0.501908,-0.053191999999999996,-0.8744960999999999,61.075,76.3525,-78.1375
1623,308456,0.536068,-0.031476,-0.8657120999999999,69.09,84.07001,-90.28251
1624,308553,0.5489999999999999,-0.028548,-0.8317960999999999,78.575,90.1075,-101.2025
1625,308650,0.6009720000000001,0.020496,-0.778604,86.905,94.7625,-110.285
1626,308747,0.670512,0.050996,-0.7259001,92.90751,95.8825,-116.1125
1627,308844,0.6980841,0.110044,-0.696376,95.3575,93.66,-117.9325
1628,308941,0.736392,0.150792,-0.658068,95.7075,90.1775,-116.305
1629,309038,0.782508,0.182268,-0.6007279999999999,92.8025,84.385,-110.6875
1630,309135,0.80886,0.229604,-0.574132,84.875,76.3875,-102.1475
1631,309232,0.8337481,0.247416,-0.51484,74.3925,66.3075,-91.0
1632,309329,0.865468,0.288652,-0.49044,59.7275,55.02,-78.3825
1633,309426,0.883768,0.30841599999999997,-0.474092,43.015,41.65,-64.435
1634,309524,0.86864,0.34648,-0.49532,25.9875,27.475,-49.245
1635,309621,0.840824,0.367952,-0.5267960999999999,12.32,14.1925,-33.985
1636,309718,0.8066641,0.31646799999999997,-0.5787680000000001,4.0075,2.87,-19.6875
1637,309815,0.771528,0.286456,-0.648552,-1.0675,-5.4075,-8.8025
1638,309912,0.7317560000000001,0.20008,-0.697596,-1.155,-10.255,-0.7175
1639,310009,0.696376,0.096624,-0.7107720000000001,1.9775,-11.1825,4.9875
1640,310106,0.670268,0.080276,-0.740052,1.8375,-7.42,5.88
1641,310203,0.643428,0.042944,-0.751276,1.68,0.105,3.5525
1642,310300,0.6082920999999999,-0.012931999999999999,-0.758596,0.9275,10.7275,-0.9275
1643,310397,0.59536,-0.004392,-0.786656,-0.7525,24.7975,-7.4725
1644,310494,0.589016,0.037576,-0.803736,-3.85,42.0525,-13.1425
1645,310591,0.617564,0.11126400000000002,-0.819108,-5.6,60.795,-14.8925
1646,310688,0.62952,0.169336,-0.8256960999999999,-2.695,78.89,-13.1775
1647,310785,0.616588,0.107848,-0.8247200000000001,1.715,97.545,-8.4
1648,310882,0.576328,0.198372,-0.771772,6.0725,116.6375,-1.75
1649,310980,0.5673,0.21228000000000002,-0.81862,6.9475,137.83,2.9925
1650,311077,0.5260640000000001,0.21594000000000002,-0.8413120000000001,9.1175,160.1425,10.955
1651,311174,0.5363121,0.182756,-0.8996280999999999,14.6475,187.8975,19.285
1652,311271,0.60634,0.264008,-0.973316,25.1125,217.07,28.3325
1653,311368,0.8725440999999999,0.34892,-0.96014,49.4025,248.71,41.9475
1654,311465,0.356484,0.499712,-1.291736,82.8275,262.3775,75.1975
1655,311562,1.81292,0.314272,-0.779824,116.48,278.775,127.0675
1656,311659,2.030568,0.362584,-1.407148,176.12,402.7275,175.875
1657,311756,1.7550919999999999,0.5751081,-1.403,208.4425,455.6125,214.4275
1658,311853,2.350696,0.9415959999999999,-1.619428,223.265,489.685,240.6775
1659,311950,1.9673720000000001,1.085556,-1.74826,255.85,510.335,232.5925
1660,312047,2.102304,1.2341520000000001,-1.816336,279.5625,500.605,221.8125
1661,312144,1.4064159999999999,1.551108,-1.7572880000000002,312.4275,511.8575,227.9375
1662,312242,1.414468,1.396656,-1.46034,323.085,461.1075,216.5275
1663,312339,1.677256,0.6109760000000001,-2.239188,311.325,292.0575,193.13
1664,312436,3.3745199999999995,0.821792,-4.035028,259.8575,134.9075,103.145
1665,312533,1.254648,1.2702639999999998,-2.212104,175.6125,-57.2425,31.4825
1666,312630,0.78446,1.404952,-1.8634279999999999,147.7,-156.3625,14.875
1667,312727,0.456524,1.365424,-1.2402520000000001,168.315,-199.3775,33.3725
1668,312824,0.437004,1.470588,-1.059936,189.1575,-217.245,48.265
1669,312921,0.5663239999999999,1.675548,-0.9679481,205.5725,-231.455,48.4575
1670,313018,0.7378560000000001,1.896612,-0.9152440000000001,221.025,-252.1575,37.5725
1671,313115,0.9596520000000001,2.0398400000000003,-0.8784,238.945,-277.3575,18.445
1672,313212,1.089948,2.1045,-0.7317560000000001,258.02,-309.645,-6.51
1673,313309,1.103856,2.0801,-0.47458,275.0825,-341.4425,-30.415
1674,313407,1.11264,2.013488,-0.21008400000000002,284.025,-363.72,-48.5975
1675,313504,1.130208,1.946632,-0.000976,282.8,-374.885,-61.2325
1676,313601,1.175592,1.8343919999999998,0.114436,269.01,-377.16,-72.24
1677,313698,1.255136,1.748748,0.18422,240.5725,-375.83,-87.0275
1678,313795,1.340292,1.707268,0.15420799999999998,201.18,-372.855,-104.545
1679,313892,1.43838,1.7509439999999998,0.054655999999999996,158.6025,-367.2725,-123.2175
1680,313989,1.5142639999999998,1.7890080000000002,0.018056,124.5825,-362.915,-139.3875
1681,314086,1.529392,1.746552,-0.029036000000000003,102.585,-357.42,-149.6775
1682,314183,1.485472,1.6028360000000001,-0.029524,84.8925,-348.4425,-155.89
1683,314280,1.453264,1.4661959999999998,-0.049288,65.03,-335.2125,-162.4175
1684,314377,1.441552,1.38592,-0.12322000000000001,42.8575,-317.45,-169.4875
1685,314474,1.4454559999999999,1.360056,-0.221308,23.66,-298.27,-176.0675
1686,314572,1.452288,1.319796,-0.337208,11.865,-279.65,-181.4575
1687,314669,1.432036,1.2336639999999999,-0.418704,6.72,-262.955,-186.1125
1688,314766,1.379332,1.121912,-0.48433999999999994,4.2,-247.24,-189.2975
1689,314863,1.378112,0.9703879999999999,-0.557296,-1.1725,-230.615,-189.4375
1690,314960,1.446676,0.8230120999999999,-0.665632,-13.09,-215.6525,-187.915
1691,315057,1.527196,0.7239479999999999,-0.787388,-32.48,-205.485,-185.6925
1692,315154,1.6287,0.7190681,-0.9293961,-55.7375,-200.165,-183.05
1693,315251,1.88002,0.7722600000000001,-1.1346,-79.4675,-198.9925,-180.8625
1694,315348,2.112796,0.8261841000000001,-1.265628,-96.2325,-208.0225,-181.7725
