,T,ax,ay,az,gx,gy,gz
0,9305318,0.8544879999999999,0.089304,-0.0008540001,18.7775,-16.94,-14.91
1,9305474,0.952942,0.08357,-0.115656,-19.915,7.0875,-142.9225
2,9305572,1.0182120000000001,0.063928,-0.135908,-75.5125,38.5,-273.4025
3,9305670,0.9934460999999999,0.023302,-0.116022,17.045,-88.09501,-88.795
4,9305768,0.9738041,0.017812,-0.111508,-12.7925,-9.9925,-10.3775
5,9305866,0.999302,0.036478,-0.19861600000000001,-27.44,-1.365,-5.775
6,9305964,1.029436,0.07076001,-0.275476,-28.525,-2.0475,-5.4775
7,9306062,1.069696,0.063318,-0.31585799999999997,-19.88,-8.2775,-4.8475
8,9306160,1.0937299999999999,0.04819,-0.367464,-14.4375,-22.05,-3.85
9,9306258,1.07665,0.025498,-0.31451599999999996,-13.02,-42.245,-2.3975
10,9306355,1.042002,0.11016600000000001,-0.49837,-31.3075,-62.4575,-1.785
11,9306453,0.9831981,0.094062,-0.44237200000000004,-31.7275,-78.3125,-1.995
12,9306551,0.913658,0.138104,-0.430782,-17.6225,-77.035,-1.015
13,9306649,0.9302501,0.146522,-0.172752,-1.6975,-67.1125,0.35
14,9306747,1.130818,0.255834,0.353068,21.91,-75.775,1.05
15,9306845,0.7787261,-0.118096,0.7903161,41.685,-96.9675,-4.9175
16,9306943,0.5292359999999999,0.076738,-0.037088,-7.8575,-43.2075,-4.3925
17,9307041,0.947818,0.036478,-0.35160399999999997,0.595,11.6725,-5.6
18,9307139,1.06933,0.071004,-0.532042,-1.0675,30.94,-6.3
19,9307236,1.018822,0.048922,-0.37746799999999997,-0.4025,5.775,-5.3375
20,9307334,0.9413520000000001,0.059048,-0.24656199999999998,1.9425,-19.565,-4.4975
21,9307432,0.913048,0.06466001,-0.177144,2.415,-24.675,-4.6025
22,9307530,0.920734,0.07515201,-0.179584,2.205,-16.625,-4.935
23,9307628,0.944524,0.076738,-0.21899000000000002,0.9975,-5.74,-5.0225
24,9307726,0.96014,0.077592,-0.268644,0.2975,-1.0325,-4.9
25,9307824,0.9558701,0.07173600000000001,-0.288042,0.7875,-4.06,-4.76
26,9307922,0.940254,0.07002799999999999,-0.271572,1.8375,-8.61,-4.585
27,9308020,0.934642,0.068076,-0.24851399999999998,2.66,-9.8,-4.585
28,9308117,0.940742,0.06636801,-0.240096,2.8,-8.2775,-4.9
29,9308215,0.9474520000000001,0.06563601,-0.23997399999999997,2.3975,-6.825,-5.11
30,9308313,0.9502581,0.06563601,-0.24436599999999997,1.6275,-6.37,-5.355
31,9308411,0.949892,0.063928,-0.24278000000000002,1.155,-6.58,-5.495
32,9308509,0.9514780999999999,0.06344,-0.238754,0.98,-6.825,-5.5125
33,9308607,0.9564799999999999,0.059658,-0.23253200000000002,0.98,-6.615,-5.4425
34,9308705,0.961726,0.05819401,-0.23009200000000002,0.8225,-6.1075,-5.285
35,9308803,0.965752,0.05795,-0.23485,0.5425,-5.6875,-5.1975
36,9308900,0.965996,0.06112201,-0.239608,0.2625,-5.705,-5.075
37,9308998,0.9616040000000001,0.062464,-0.237168,0.2625,-6.23,-4.9175
38,9309096,0.9551379999999999,0.063074,-0.23228800000000002,0.0525,-6.8425,-4.725
39,9309194,0.9511120000000001,0.063196,-0.23228800000000002,-0.6125,-6.895,-4.725
40,9309292,0.94916,0.06405001,-0.232044,-1.05,-6.44,-4.69
41,9309390,0.9489161,0.06270801,-0.229238,-1.2775,-6.09,-4.655
42,9309488,0.9501360999999999,0.061366,-0.230946,-1.365,-6.0025,-4.55
43,9309586,0.9524540000000001,0.059048,-0.229604,-1.68,-5.7575,-4.55
44,9309684,0.955992,0.059048,-0.22862800000000003,-2.0825,-5.5825,-4.55
45,9309781,0.9602620999999999,0.061488,-0.227408,-2.3975,-5.25,-4.4275
46,9309879,0.965752,0.06466001,-0.22667600000000002,-2.45,-5.2325,-4.3925
47,9309977,0.9677040000000001,0.067222,-0.222284,-2.45,-5.46,-4.2525
48,9310075,0.9651421,0.068686,-0.221796,-2.3625,-5.705,-4.3225
49,9310173,0.9625799999999999,0.068442,-0.22204000000000002,-2.345,-5.775,-4.3575
50,9310271,0.961482,0.06649,-0.22338200000000002,-2.275,-5.5125,-4.445
51,9310369,0.960628,0.065026,-0.223504,-2.5025,-5.5475,-4.41
52,9310467,0.9561139999999999,0.06490399999999999,-0.221308,-2.7825,-5.88,-4.3225
53,9310565,0.952332,0.06490399999999999,-0.22265,-2.835,-5.9675,-4.3225
54,9310662,0.9525761,0.06746601,-0.22448,-2.6775,-5.495,-4.1475
55,9310760,0.9540401,0.07027201,-0.22691999999999998,-2.45,-4.97,-4.025
56,9310858,0.9562360999999999,0.071004,-0.22557800000000003,-2.1175,-4.7425,-4.0775
57,9310956,0.9552601000000001,0.071492,-0.223748,-1.8725,-4.865,-4.2175
58,9311054,0.9564799999999999,0.07173600000000001,-0.22191799999999998,-1.785,-5.04,-4.4975
59,9311152,0.96014,0.07039400000000001,-0.222162,-1.8375,-4.865,-4.6025
60,9311250,0.9628241,0.06892999999999999,-0.22362600000000002,-2.03,-4.655,-4.7425
61,9311348,0.964044,0.064782,-0.22326,-2.0125,-4.6375,-4.725
62,9311446,0.9641661,0.06575800000000001,-0.223138,-2.1,-4.725,-4.55
63,9311543,0.963922,0.065026,-0.22021,-1.9775,-4.9175,-4.5325
64,9311641,0.9633120999999999,0.065514,-0.2196,-1.7675,-5.04,-4.5675
65,9311739,0.9622141,0.064416,-0.22167399999999998,-1.6275,-5.075,-4.515
66,9311837,0.9620920000000001,0.064294,-0.22191799999999998,-1.6275,-5.11,-4.5325
67,9311935,0.9627020000000001,0.063318,-0.223504,-1.715,-5.355,-4.5675
68,9312033,0.961726,0.06270801,-0.223504,-1.8725,-5.635,-4.3575
69,9312131,0.9618481,0.06270801,-0.222284,-1.925,-5.8975,-4.235
70,9312229,0.961726,0.062586,-0.22082,-2.0825,-6.0725,-4.1825
71,9312327,0.9623360999999999,0.063074,-0.21972199999999997,-2.205,-6.0025,-4.235
72,9312425,0.963434,0.06466001,-0.219356,-2.2925,-6.0375,-4.2
73,9312522,0.9618481,0.06527000000000001,-0.222284,-2.17,-6.09,-4.305
74,9312620,0.9622141,0.063684,-0.225212,-2.03,-6.1425,-4.34
75,9312718,0.962458,0.061854,-0.22423600000000002,-2.1175,-6.405,-4.445
76,9312816,0.9619700000000001,0.063318,-0.22143000000000002,-2.38,-6.6325,-4.41
77,9312914,0.96014,0.05941401,-0.21862399999999999,-2.4325,-6.8075,-4.445
78,9313012,0.960628,0.05856,-0.218746,-2.52,-6.895,-4.3575
79,9313110,0.960384,0.059658,-0.21777,-2.7475,-6.9475,-4.4275
80,9313208,0.9609940999999999,0.06039,-0.21667199999999998,-3.045,-6.79,-4.3575
81,9313306,0.96014,0.061975999999999996,-0.216916,-3.045,-6.4575,-4.2875
82,9313404,0.9585541,0.06563601,-0.21838000000000002,-3.0275,-6.2825,-4.2
83,9313501,0.957334,0.068686,-0.219234,-3.08,-6.23,-4.025
84,9313599,0.9548940999999999,0.069662,-0.21862399999999999,-3.0275,-6.4575,-4.0775
85,9313697,0.9557479999999999,0.068686,-0.22021,-2.905,-6.4575,-4.0775
86,9313795,0.9566020000000001,0.066734,-0.219112,-2.9225,-6.37,-4.0425
87,9313893,0.9591639999999999,0.06527000000000001,-0.21667199999999998,-3.15,-6.09,-4.235
88,9313991,0.9609940999999999,0.06600201,-0.21752600000000002,-3.185,-6.125,-4.2875
89,9314089,0.9618481,0.06527000000000001,-0.218746,-3.15,-6.125,-4.2
90,9314187,0.964532,0.06575800000000001,-0.22277199999999997,-3.08,-6.0375,-4.2
91,9314285,0.9650200999999999,0.06941801,-0.22448,-2.9575,-6.02,-4.06
92,9314382,0.964044,0.07381001,-0.22045399999999998,-2.8875,-6.3875,-4.0425
93,9314480,0.9655081,0.07515201,-0.21886799999999998,-2.625,-6.86,-4.165
94,9314578,0.964044,0.074054,-0.21813600000000002,-2.1875,-7.14,-4.2875
95,9314676,0.9648979999999999,0.07259,-0.218502,-2.03,-7.0,-4.41
96,9314774,0.9641661,0.071492,-0.221308,-2.0125,-6.8425,-4.48
97,9314872,0.96319,0.07222401,-0.22082,-1.8025,-7.0875,-4.34
98,9314970,0.9591639999999999,0.07076001,-0.22252800000000003,-1.68,-7.6825,-4.165
99,9315068,0.9563581,0.071004,-0.22118600000000002,-1.785,-7.91,-4.095
100,9315166,0.953674,0.069906,-0.22277199999999997,-1.8375,-7.63,-4.1125
101,9315264,0.9535521,0.069906,-0.22582199999999997,-1.7675,-7.105,-4.1125
102,9315361,0.952332,0.069052,-0.228872,-1.4525,-6.7375,-4.1825
103,9315459,0.951844,0.07137001,-0.228384,-1.2075,-6.7725,-4.2875
104,9315557,0.9525761,0.06954,-0.22691999999999998,-1.2075,-6.7375,-4.375
105,9315655,0.951844,0.07027201,-0.22667600000000002,-1.2775,-6.5625,-4.41
106,9315753,0.952942,0.06941801,-0.22789600000000002,-1.4,-6.23,-4.4625
107,9315851,0.952942,0.071492,-0.23009200000000002,-1.505,-5.95,-4.34
108,9315949,0.9530641,0.071858,-0.231312,-1.61,-5.7225,-4.445
109,9316047,0.9519661,0.070638,-0.2318,-1.435,-5.6875,-4.4625
110,9316145,0.9531860000000001,0.07002799999999999,-0.229726,-1.2075,-5.7225,-4.48
111,9316243,0.9541620000000001,0.06892999999999999,-0.22691999999999998,-1.015,-5.39,-4.6025
112,9316340,0.9541620000000001,0.07015,-0.22557800000000003,-0.98,-5.145,-4.7075
113,9316438,0.9566020000000001,0.07027201,-0.226798,-1.1025,-5.04,-4.69
114,9316536,0.960384,0.06832001,-0.227408,-1.0325,-5.0225,-4.725
115,9316634,0.9612379999999999,0.066856,-0.228384,-1.085,-5.1275,-4.655
116,9316732,0.9575780999999999,0.0671,-0.22716399999999998,-1.26,-5.39,-4.7425
117,9316830,0.9598959999999999,0.069174,-0.224358,-1.365,-5.4775,-4.83
118,9316928,0.961726,0.06832001,-0.22423600000000002,-1.3125,-5.3725,-4.725
119,9317026,0.9616040000000001,0.06929600000000001,-0.224846,-1.4175,-5.355,-4.7075
120,9317124,0.959774,0.06795401,-0.22630999999999998,-1.4,-5.3375,-4.76
121,9317221,0.9580661,0.06795401,-0.22753,-1.3125,-5.3725,-4.725
122,9317319,0.9591639999999999,0.068442,-0.22691999999999998,-1.2775,-5.39,-4.6375
123,9317417,0.958432,0.06941801,-0.225944,-1.435,-5.46,-4.585
124,9317515,0.9595300999999999,0.07137001,-0.227042,-1.3475,-5.4775,-4.515
125,9317613,0.958432,0.071248,-0.226188,-1.0675,-5.635,-4.55
126,9317711,0.959774,0.07137001,-0.225456,-0.945,-5.46,-4.445
127,9317809,0.9572120999999999,0.070638,-0.22716399999999998,-0.9975,-5.285,-4.5675
128,9317907,0.95709,0.07137001,-0.229116,-0.945,-5.2675,-4.6375
129,9318005,0.95709,0.072102,-0.22996999999999998,-0.8575,-5.3025,-4.655
130,9318103,0.9552601000000001,0.070516,-0.22875,-0.665,-5.4075,-4.7075
131,9318200,0.9547720999999999,0.07307801,-0.22996999999999998,-0.525,-5.53,-4.69
132,9318298,0.9540401,0.071614,-0.230458,-0.4375,-5.6525,-4.655
133,9318396,0.9552601000000001,0.071004,-0.22728600000000002,-0.2975,-5.5825,-4.585
134,9318494,0.954406,0.069052,-0.225944,-0.42,-5.5125,-4.6375
135,9318592,0.95465,0.06819800000000001,-0.22777399999999998,-0.28,-5.39,-4.6025
136,9318690,0.957944,0.066856,-0.229848,-0.28,-5.2325,-4.55
137,9318788,0.9596520000000001,0.06588,-0.230458,-0.2975,-5.04,-4.4625
138,9318886,0.9613601,0.066246,-0.228994,-0.4025,-5.0925,-4.515
139,9318984,0.9612379999999999,0.06649,-0.22630999999999998,-0.455,-5.425,-4.445
140,9319082,0.96319,0.06588,-0.22326,-0.455,-5.67,-4.655
141,9319179,0.9627020000000001,0.06563601,-0.223504,-0.49,-5.6525,-4.725
142,9319277,0.9613601,0.064172,-0.22386999999999999,-0.63,-5.4075,-4.725
143,9319375,0.9580661,0.06405001,-0.223138,-0.875,-5.5825,-4.76
144,9319473,0.95709,0.063196,-0.223504,-1.085,-6.125,-4.6725
145,9319571,0.957822,0.064782,-0.22252800000000003,-1.1025,-6.265,-4.55
146,9319669,0.959408,0.06539201,-0.22204000000000002,-1.12,-5.8975,-4.6025
147,9319767,0.9613601,0.066734,-0.22167399999999998,-1.225,-5.6875,-4.5675
148,9319865,0.9613601,0.06636801,-0.22106399999999998,-1.2425,-5.74,-4.55
149,9319963,0.9596520000000001,0.06490399999999999,-0.222162,-1.2775,-5.6875,-4.55
150,9320060,0.9585541,0.06563601,-0.22118600000000002,-1.5225,-5.81,-4.585
151,9320158,0.9566020000000001,0.06490399999999999,-0.22204000000000002,-1.75,-5.81,-4.55
152,9320256,0.955992,0.0671,-0.22057600000000002,-1.8025,-5.74,-4.6025
153,9320354,0.9547720999999999,0.066246,-0.221796,-1.8725,-5.5825,-4.585
154,9320452,0.953308,0.067832,-0.221796,-2.0825,-5.46,-4.5325
155,9320550,0.9537959999999999,0.06832001,-0.2196,-2.17,-5.1275,-4.375
156,9320648,0.9539181000000001,0.068564,-0.22118600000000002,-2.1175,-4.8475,-4.27
157,9320746,0.953308,0.068564,-0.22167399999999998,-2.0825,-4.6375,-4.3225
158,9320844,0.9547720999999999,0.06795401,-0.22252800000000003,-1.9425,-4.5325,-4.3575
159,9320941,0.95709,0.068442,-0.22362600000000002,-1.925,-4.5675,-4.375
160,9321039,0.9572120999999999,0.069662,-0.22362600000000002,-1.855,-4.375,-4.445
161,9321137,0.9581881,0.071492,-0.223016,-1.89,-4.3225,-4.3925
162,9321235,0.9595300999999999,0.071858,-0.22021,-1.855,-4.2875,-4.445
163,9321333,0.9577,0.07259,-0.22204000000000002,-1.8025,-4.27,-4.4275
164,9321431,0.959408,0.07173600000000001,-0.222894,-1.54,-4.3925,-4.48
165,9321529,0.959774,0.07039400000000001,-0.224602,-1.295,-4.3925,-4.5325
166,9321627,0.9592860000000001,0.07039400000000001,-0.222162,-1.155,-4.3925,-4.6375
167,9321725,0.958432,0.07015,-0.22338200000000002,-1.1375,-4.515,-4.76
168,9321822,0.9591639999999999,0.069906,-0.222284,-1.015,-4.76,-4.8825
169,9321920,0.962458,0.066978,-0.22106399999999998,-1.05,-4.865,-4.7775
170,9322018,0.961116,0.06795401,-0.22118600000000002,-1.1725,-4.9175,-4.7775
171,9322116,0.963434,0.06771001,-0.21886799999999998,-1.3475,-4.9525,-4.6375
172,9322214,0.9641661,0.066856,-0.219844,-1.365,-5.0575,-4.6375
173,9322312,0.9622141,0.06746601,-0.22277199999999997,-1.3825,-5.005,-4.725
174,9322410,0.9620920000000001,0.06636801,-0.224846,-1.155,-5.075,-4.5675
175,9322508,0.96075,0.068076,-0.22496799999999997,-0.98,-5.285,-4.4975
176,9322606,0.95831,0.068076,-0.220942,-0.805,-5.565,-4.3575
177,9322703,0.957334,0.068564,-0.221552,-0.8400001,-5.6525,-4.34
178,9322801,0.957334,0.06563601,-0.222284,-0.98,-5.46,-4.3575
179,9322899,0.9581881,0.064172,-0.223138,-1.1375,-5.2675,-4.375
180,9322997,0.957456,0.061975999999999996,-0.22118600000000002,-1.4175,-5.32,-4.48
181,9323095,0.956968,0.06039,-0.22252800000000003,-1.82,-5.425,-4.5675
182,9323193,0.9566020000000001,0.061,-0.223504,-1.9425,-5.3725,-4.5675
183,9323291,0.9568459999999999,0.062341999999999995,-0.22338200000000002,-2.1,-5.0575,-4.375
184,9323389,0.9596520000000001,0.064538,-0.22326,-2.1525,-5.0225,-4.3225
185,9323487,0.9622141,0.067222,-0.221552,-2.24,-5.1625,-4.2175
186,9323584,0.963922,0.06832001,-0.218746,-1.995,-5.355,-4.2525
187,9323682,0.96624,0.0671,-0.217282,-1.8725,-5.67,-4.3575
188,9323780,0.9674601,0.06405001,-0.21667199999999998,-1.9775,-5.7925,-4.305
189,9323878,0.9678261,0.062586,-0.215086,-2.17,-5.88,-4.3225
190,9323976,0.9663620999999999,0.061732,-0.21313400000000002,-2.3975,-6.51,-4.27
191,9324074,0.9638,0.06270801,-0.21289,-2.555,-6.9475,-4.13
192,9324172,0.964044,0.064294,-0.21386599999999997,-2.6075,-7.0,-4.0075
193,9324270,0.9638,0.06563601,-0.214354,-2.625,-6.7025,-4.0775
194,9324368,0.9636780999999999,0.068564,-0.217282,-2.5375,-6.4575,-4.1125
195,9324465,0.9622141,0.07002799999999999,-0.219844,-2.205,-6.545,-4.13
196,9324563,0.9613601,0.070882,-0.217404,-1.96,-6.755,-4.2175
197,9324661,0.9572120999999999,0.069906,-0.21801399999999999,-1.75,-7.0525,-4.2175
198,9324759,0.9555040000000001,0.068442,-0.216428,-1.715,-7.1575,-4.305
199,9324857,0.9561139999999999,0.068442,-0.21752600000000002,-1.82,-6.965,-4.2875
200,9324955,0.9547720999999999,0.068564,-0.216428,-1.6275,-6.8775,-4.375
201,9325053,0.957822,0.06832001,-0.21825799999999998,-1.54,-6.72,-4.3575
202,9325151,0.9590420000000001,0.068442,-0.217648,-1.575,-6.7025,-4.3925
203,9325249,0.960384,0.06819800000000001,-0.21752600000000002,-1.435,-6.72,-4.515
204,9325346,0.9602620999999999,0.06795401,-0.21533000000000002,-1.4175,-6.755,-4.5325
205,9325444,0.9612379999999999,0.06941801,-0.21472,-1.4525,-6.79,-4.5325
206,9325542,0.9618481,0.069662,-0.21447600000000003,-1.365,-6.8775,-4.4625
207,9325640,0.9612379999999999,0.069906,-0.213256,-1.365,-6.5975,-4.3575
208,9325738,0.9609940999999999,0.07039400000000001,-0.212646,-1.225,-6.4575,-4.2875
209,9325836,0.9587979999999999,0.06929600000000001,-0.214598,-1.1375,-6.4225,-4.2
210,9325934,0.959774,0.069906,-0.215574,-1.0325,-6.335,-4.1475
211,9326032,0.959408,0.068564,-0.21679400000000001,-0.9975,-6.2825,-4.2
212,9326130,0.9587979999999999,0.067588,-0.216306,-0.9625,-6.3175,-4.2875
213,9326227,0.9602620999999999,0.06588,-0.21520799999999998,-0.8925,-6.4225,-4.48
214,9326325,0.9619700000000001,0.06795401,-0.21447600000000003,-0.8575,-6.3875,-4.55
215,9326423,0.961482,0.066124,-0.215086,-0.8575,-6.405,-4.6375
216,9326521,0.961726,0.06600201,-0.21472,-0.8575,-6.405,-4.6375
217,9326619,0.962458,0.065026,-0.21374400000000002,-1.0675,-6.4575,-4.6725
218,9326717,0.96319,0.06575800000000001,-0.21618400000000002,-1.085,-6.3875,-4.6375
219,9326815,0.9608721,0.066856,-0.217404,-1.085,-6.3875,-4.5325
220,9326913,0.9590420000000001,0.06771001,-0.219356,-0.9625,-6.265,-4.4625
221,9327011,0.9586761,0.067344,-0.21886799999999998,-0.8925,-6.1775,-4.4275
222,9327108,0.9577,0.06832001,-0.21825799999999998,-0.805,-6.055,-4.4275
223,9327206,0.9562360999999999,0.06832001,-0.219112,-0.7875,-6.3,-4.3925
224,9327304,0.954284,0.068442,-0.219844,-0.7875,-6.265,-4.375
225,9327402,0.9541620000000001,0.06575800000000001,-0.222406,-0.6825,-5.8975,-4.375
226,9327500,0.9572120999999999,0.064782,-0.222406,-0.56,-5.6,-4.375
227,9327598,0.9592860000000001,0.063196,-0.22143000000000002,-0.595,-5.7225,-4.4275
228,9327696,0.9592860000000001,0.062341999999999995,-0.222284,-0.805,-5.8975,-4.3925
229,9327794,0.9585541,0.06380599999999999,-0.224846,-0.805,-5.88,-4.4275
230,9327892,0.9587979999999999,0.06575800000000001,-0.226188,-0.8925,-5.7575,-4.5325
231,9327989,0.9608721,0.06880801,-0.226066,-1.0325,-5.88,-4.4625
232,9328087,0.96319,0.06941801,-0.222406,-0.8575,-6.02,-4.55
233,9328185,0.960628,0.06954,-0.222284,-0.7525,-6.3,-4.62
234,9328283,0.9608721,0.06880801,-0.222406,-0.6125,-6.3875,-4.6725
235,9328381,0.9622141,0.06466001,-0.220942,-0.5775,-6.3175,-4.69
236,9328479,0.9616040000000001,0.06356201,-0.22326,-0.7175,-6.5275,-4.725
237,9328577,0.95709,0.063196,-0.223138,-0.9275,-7.0,-4.69
238,9328675,0.9568459999999999,0.062098,-0.22191799999999998,-0.9625,-7.1925,-4.5675
239,9328772,0.9561139999999999,0.063196,-0.223138,-1.2075,-7.0175,-4.3575
240,9328870,0.956968,0.062952,-0.22338200000000002,-1.4175,-6.755,-4.375
241,9328968,0.9577,0.065026,-0.22557800000000003,-1.54,-6.7025,-4.4275
242,9329066,0.9572120999999999,0.06405001,-0.22326,-1.5225,-7.035,-4.4275
243,9329164,0.9580661,0.064172,-0.22362600000000002,-1.5575,-7.315,-4.4625
244,9329262,0.959774,0.065148,-0.22106399999999998,-1.6975,-7.4375,-4.3925
245,9329360,0.9608721,0.067222,-0.218502,-1.96,-7.385,-4.5325
246,9329458,0.9622141,0.06746601,-0.220698,-2.17,-7.42,-4.4975
247,9329556,0.9628241,0.066734,-0.22118600000000002,-2.2925,-7.4025,-4.4625
248,9329653,0.9630681000000001,0.064294,-0.2196,-2.415,-7.49,-4.375
249,9329751,0.9633120999999999,0.063196,-0.219112,-2.5375,-7.5775,-4.2875
250,9329849,0.959774,0.062464,-0.21899000000000002,-2.625,-7.6825,-4.2175
251,9329947,0.9587979999999999,0.06356201,-0.218502,-2.6075,-7.5425,-4.2525
252,9330045,0.9572120999999999,0.062464,-0.219478,-2.5725,-7.525,-4.2
253,9330143,0.955992,0.063196,-0.219844,-2.695,-7.2975,-4.235
254,9330241,0.9577,0.06539201,-0.21972199999999997,-2.8875,-7.175,-4.2175
255,9330339,0.9591639999999999,0.066124,-0.21813600000000002,-2.905,-7.3675,-4.1125
256,9330437,0.9596520000000001,0.06892999999999999,-0.21655,-2.8175,-7.315,-4.0775
257,9330534,0.9609940999999999,0.06880801,-0.219478,-2.9225,-7.3325,-4.1125
258,9330632,0.9605060999999999,0.067344,-0.22021,-2.87,-7.175,-4.235
259,9330730,0.959774,0.06636801,-0.2196,-2.8,-7.0175,-4.27
260,9330828,0.9592860000000001,0.068442,-0.22082,-2.8,-7.0525,-4.3225
261,9330926,0.9590420000000001,0.068686,-0.22143000000000002,-2.7125,-7.21,-4.235
262,9331024,0.9589200999999999,0.069052,-0.22057600000000002,-2.765,-7.21,-4.305
263,9331122,0.956968,0.069662,-0.22204000000000002,-2.73,-7.0,-4.2875
264,9331220,0.9555040000000001,0.070638,-0.223138,-2.6775,-6.825,-4.3575
265,9331318,0.9568459999999999,0.07112601,-0.224602,-2.5025,-6.895,-4.445
266,9331416,0.9563581,0.07076001,-0.223992,-2.4675,-6.825,-4.4275
267,9331513,0.9561139999999999,0.070638,-0.22509,-2.415,-6.7375,-4.48
268,9331611,0.9563581,0.07222401,-0.22411399999999998,-2.415,-6.685,-4.4625
269,9331709,0.95831,0.07307801,-0.222894,-2.3625,-6.8075,-4.515
270,9331807,0.958432,0.072712,-0.222406,-2.2925,-6.86,-4.305
271,9331905,0.95831,0.07246799999999999,-0.222284,-2.38,-6.685,-4.2875
272,9332003,0.9590420000000001,0.070516,-0.22472399999999998,-2.4325,-6.4225,-4.4625
273,9332101,0.957334,0.071248,-0.226554,-2.485,-6.37,-4.5675
274,9332199,0.9557479999999999,0.069174,-0.226798,-2.5375,-6.4575,-4.4975
275,9332297,0.9548940999999999,0.068564,-0.22789600000000002,-2.625,-6.51,-4.4625
276,9332394,0.9528200000000001,0.07027201,-0.228994,-2.6775,-6.2475,-4.375
277,9332492,0.954284,0.071858,-0.23021399999999997,-2.695,-6.055,-4.41
278,9332590,0.95709,0.07234600000000001,-0.228262,-2.6075,-6.1425,-4.34
279,9332688,0.9572120999999999,0.07393200000000001,-0.22472399999999998,-2.52,-6.3175,-4.4625
280,9332786,0.9591639999999999,0.07332201,-0.224358,-2.3975,-6.3,-4.445
281,9332884,0.9590420000000001,0.072102,-0.22643200000000002,-2.31,-6.23,-4.4275
282,9332982,0.9596520000000001,0.068442,-0.22801799999999997,-2.4675,-6.055,-4.515
283,9333080,0.9564799999999999,0.065514,-0.2257,-2.6425,-6.265,-4.4275
284,9333178,0.954284,0.06563601,-0.2257,-2.9225,-6.4925,-4.41
285,9333276,0.952942,0.067222,-0.22777399999999998,-3.115,-6.4925,-4.3575
286,9333373,0.95465,0.07027201,-0.227652,-2.9575,-6.1425,-4.305
287,9333471,0.9558701,0.071248,-0.23119,-2.765,-5.915,-4.3575
288,9333569,0.9567241,0.07307801,-0.23119,-2.485,-5.8625,-4.3575
289,9333667,0.9587979999999999,0.07332201,-0.231068,-2.345,-5.9675,-4.3575
290,9333765,0.9575780999999999,0.07307801,-0.23253200000000002,-2.31,-6.1425,-4.4625
291,9333863,0.9586761,0.07283401,-0.230946,-2.3975,-6.2475,-4.41
292,9333961,0.9589200999999999,0.07307801,-0.231068,-2.345,-6.37,-4.34
293,9334059,0.956968,0.07344400000000001,-0.230702,-2.38,-6.405,-4.375
294,9334157,0.95709,0.07551801,-0.233752,-2.2925,-6.3,-4.4275
295,9334255,0.9548940999999999,0.07490801,-0.23387399999999997,-1.995,-6.265,-4.4975
296,9334352,0.9553821,0.074054,-0.230336,-1.715,-6.1775,-4.4975
297,9334450,0.9562360999999999,0.07344400000000001,-0.231312,-1.8025,-6.2475,-4.6025
298,9334548,0.9581881,0.073688,-0.23216599999999998,-1.6275,-6.37,-4.6725
299,9334646,0.957822,0.074054,-0.23363,-1.3475,-6.44,-4.585
300,9334744,0.9581881,0.07332201,-0.230702,-1.085,-6.58,-4.4625
301,9334842,0.9586761,0.07332201,-0.22948200000000002,-1.1025,-6.6325,-4.3925
302,9334940,0.9596520000000001,0.07551801,-0.230458,-1.155,-6.6325,-4.3925
303,9335038,0.9600181000000001,0.07564,-0.23009200000000002,-0.875,-6.7025,-4.48
304,9335136,0.9589200999999999,0.07393200000000001,-0.230336,-0.56,-6.8425,-4.5675
305,9335234,0.9562360999999999,0.07112601,-0.23240999999999998,-0.3675,-6.6325,-4.69
306,9335331,0.955992,0.07039400000000001,-0.232654,-0.21,-6.6325,-4.7425
307,9335429,0.9552601000000001,0.0671,-0.23240999999999998,-0.21,-6.86,-4.8475
308,9335527,0.9553821,0.06588,-0.23216599999999998,-0.1575,-6.9825,-4.76
309,9335625,0.9551379999999999,0.06649,-0.231434,-0.35,-6.8425,-4.6725
310,9335723,0.9555040000000001,0.0671,-0.23155599999999998,-0.525,-6.755,-4.4975
311,9335821,0.9580661,0.067222,-0.235948,-0.5075,-6.6325,-4.4275
312,9335919,0.9567241,0.06746601,-0.233264,-0.5075,-6.5625,-4.34
313,9336017,0.9587979999999999,0.069174,-0.23448400000000003,-0.525,-6.5275,-4.34
314,9336115,0.9589200999999999,0.06954,-0.237168,-0.56,-6.44,-4.3925
315,9336213,0.9568459999999999,0.07137001,-0.238754,-0.3325,-6.5275,-4.2525
316,9336310,0.9558701,0.071858,-0.239852,-0.07,-6.8075,-4.165
317,9336408,0.9537959999999999,0.06880801,-0.23973000000000003,0.0875,-7.0,-4.165
318,9336506,0.95221,0.068442,-0.24107199999999998,0.28,-6.9825,-4.2525
319,9336604,0.9520881,0.067344,-0.239852,0.2975,-6.8425,-4.3925
320,9336702,0.9519661,0.066246,-0.23997399999999997,0.245,-6.8075,-4.4625
321,9336800,0.9506241,0.06600201,-0.242292,0.2975,-6.8775,-4.55
322,9336898,0.9506241,0.067222,-0.245464,0.2975,-6.6325,-4.7075
323,9336996,0.9502581,0.06795401,-0.245342,0.4375,-6.37,-4.725
324,9337094,0.9531860000000001,0.068564,-0.244732,0.525,-6.2825,-4.655
325,9337192,0.952942,0.069052,-0.24034,0.595,-6.5625,-4.6025
326,9337289,0.954284,0.06929600000000001,-0.23729,0.6475,-6.7025,-4.76
327,9337387,0.955016,0.06661201,-0.236558,0.77,-6.4225,-4.865
328,9337485,0.955016,0.065026,-0.23997399999999997,0.945,-6.055,-4.76
329,9337583,0.954528,0.06600201,-0.24082800000000001,0.8400001,-6.0725,-4.69
330,9337681,0.950868,0.064538,-0.239364,0.7,-6.5625,-4.55
331,9337779,0.949526,0.063928,-0.238754,0.4725,-6.79,-4.4975
332,9337877,0.94916,0.06527000000000001,-0.241194,0.42,-6.3525,-4.55
333,9337975,0.9506241,0.066978,-0.24058400000000002,0.455,-5.88,-4.6025
334,9338073,0.951356,0.06466001,-0.239364,0.5775,-5.7925,-4.8125
335,9338171,0.951356,0.066246,-0.240096,0.6825,-5.88,-4.7775
336,9338268,0.952942,0.06795401,-0.24046199999999998,0.63,-6.055,-4.865
337,9338366,0.953308,0.066246,-0.238998,0.595,-6.0725,-4.9175
338,9338464,0.9540401,0.066978,-0.23826599999999998,0.4375,-5.985,-5.0225
339,9338562,0.9558701,0.066856,-0.239486,0.21,-6.02,-5.04
340,9338660,0.957334,0.06746601,-0.24095,0.035,-6.0725,-5.005
341,9338758,0.957456,0.0671,-0.24107199999999998,-0.035,-6.055,-4.8475
342,9338856,0.9553821,0.067588,-0.24216999999999997,-0.0175,-5.9675,-4.8825
343,9338954,0.953308,0.068564,-0.24046199999999998,-0.035,-5.81,-4.795
344,9339052,0.952332,0.066246,-0.23911999999999997,-0.0175,-5.74,-4.7075
345,9339150,0.9539181000000001,0.064782,-0.23973000000000003,-0.1225,-5.7225,-4.6375
346,9339247,0.9534301,0.065026,-0.239608,-0.2275,-5.81,-4.48
347,9339345,0.9516,0.063074,-0.24095,-0.4025,-5.915,-4.5325
348,9339443,0.9506241,0.06124401,-0.239486,-0.5775,-5.8975,-4.5675
349,9339541,0.9519661,0.064294,-0.24095,-0.6125,-5.6,-4.6375
350,9339639,0.9530641,0.06539201,-0.23973000000000003,-0.595,-5.46,-4.69
351,9339737,0.9540401,0.068076,-0.23851,-0.6825,-5.425,-4.725
352,9339835,0.9555040000000001,0.069662,-0.239364,-0.7875,-5.565,-4.7075
353,9339933,0.9552601000000001,0.070638,-0.239364,-0.9625,-5.5125,-4.6725
354,9340031,0.956968,0.071614,-0.240096,-0.98,-5.4075,-4.62
355,9340129,0.957456,0.07039400000000001,-0.24131599999999997,-0.875,-5.46,-4.585
356,9340226,0.9562360999999999,0.06880801,-0.241194,-0.77,-5.6,-4.5325
357,9340324,0.9558701,0.06661201,-0.24082800000000001,-0.8225,-5.6525,-4.515
358,9340422,0.953674,0.06746601,-0.23887600000000003,-0.7525,-5.74,-4.375
359,9340520,0.9535521,0.066856,-0.239242,-0.98,-5.6,-4.41
360,9340618,0.954528,0.067832,-0.24156,-1.2075,-5.39,-4.34
361,9340716,0.9531860000000001,0.06819800000000001,-0.241804,-1.295,-5.5125,-4.2175
362,9340814,0.9530641,0.06771001,-0.24216999999999997,-1.33,-5.53,-4.305
363,9340912,0.9531860000000001,0.069052,-0.24192600000000003,-1.2775,-5.5825,-4.3575
364,9341010,0.9530641,0.066856,-0.24095,-1.365,-5.4425,-4.41
365,9341107,0.950868,0.06795401,-0.240096,-1.4875,-5.425,-4.375
366,9341205,0.9497701,0.066124,-0.238632,-1.645,-5.6525,-4.3575
367,9341303,0.94916,0.06380599999999999,-0.2379,-1.75,-5.6875,-4.27
368,9341401,0.9503799999999999,0.064416,-0.23973000000000003,-1.9775,-5.32,-4.27
369,9341499,0.95221,0.066124,-0.24131599999999997,-2.1875,-4.935,-4.2875
370,9341597,0.953674,0.06771001,-0.240096,-2.0825,-4.935,-4.2175
371,9341695,0.95709,0.0671,-0.23692399999999997,-2.065,-5.005,-4.2875
372,9341793,0.9568459999999999,0.067588,-0.235704,-2.1175,-5.2325,-4.235
373,9341891,0.9562360999999999,0.065026,-0.23460599999999998,-2.0475,-5.3025,-4.1825
374,9341989,0.9552601000000001,0.063684,-0.232654,-2.065,-5.18,-4.13
375,9342087,0.955016,0.064172,-0.237046,-2.275,-5.145,-4.13
376,9342185,0.9534301,0.065514,-0.23582600000000004,-2.3975,-5.18,-4.13
377,9342282,0.9535521,0.0671,-0.23424,-2.555,-5.46,-3.955
378,9342380,0.9528200000000001,0.068564,-0.237656,-2.5725,-5.1625,-3.9725
379,9342478,0.9540401,0.070882,-0.23753400000000002,-2.5025,-4.83,-4.025
380,9342576,0.9539181000000001,0.070516,-0.23802199999999998,-2.1525,-4.7775,-4.13
381,9342674,0.953674,0.071492,-0.236314,-2.0825,-4.795,-4.2
382,9342772,0.954528,0.069052,-0.236192,-2.0825,-4.7775,-4.3575
383,9342870,0.9552601000000001,0.06892999999999999,-0.23668000000000003,-2.0125,-4.8125,-4.445
384,9342968,0.9555040000000001,0.069174,-0.236192,-1.68,-4.725,-4.375
385,9343065,0.9557479999999999,0.068686,-0.235948,-1.4,-4.6725,-4.3575
386,9343163,0.9563581,0.06929600000000001,-0.23546,-1.295,-4.5675,-4.3575
387,9343261,0.955016,0.067832,-0.235094,-1.2075,-4.655,-4.305
388,9343359,0.9524540000000001,0.06649,-0.234362,-1.1375,-4.7425,-4.375
389,9343457,0.9525761,0.065514,-0.23472800000000002,-1.0675,-4.76,-4.445
390,9343555,0.9540401,0.06636801,-0.23521599999999998,-0.8575,-4.7075,-4.41
391,9343653,0.954406,0.06661201,-0.235704,-0.665,-4.585,-4.4625
392,9343751,0.9540401,0.06649,-0.23460599999999998,-0.49,-4.585,-4.585
393,9343849,0.9540401,0.0671,-0.233508,-0.56,-4.5675,-4.5675
394,9343946,0.9539181000000001,0.06490399999999999,-0.23314200000000002,-0.525,-4.5325,-4.55
395,9344044,0.9530641,0.064172,-0.233264,-0.49,-4.3575,-4.69
396,9344142,0.9537959999999999,0.06356201,-0.234362,-0.525,-4.235,-4.76
397,9344240,0.954406,0.063196,-0.233264,-0.3675,-4.3225,-4.8125
398,9344338,0.95465,0.062586,-0.23253200000000002,-0.35,-4.2875,-4.9175
399,9344436,0.952942,0.062220000000000004,-0.23058,-0.3325,-4.235,-4.8475
400,9344534,0.9548940999999999,0.061854,-0.229238,-0.3675,-4.305,-4.865
401,9344632,0.9580661,0.06270801,-0.23155599999999998,-0.5775,-4.34,-4.795
402,9344730,0.9602620999999999,0.060877999999999995,-0.2318,-0.595,-4.3225,-4.8475
403,9344827,0.9608721,0.063074,-0.228506,-0.6125,-4.3575,-4.7775
404,9344925,0.9629459999999999,0.061854,-0.228384,-0.6825,-4.48,-4.7425
405,9345023,0.961726,0.061854,-0.22935999999999998,-0.7,-4.4975,-4.725
406,9345121,0.961116,0.061854,-0.23009200000000002,-0.7,-4.55,-4.6025
407,9345219,0.9586761,0.063684,-0.22862800000000003,-0.6825,-4.7075,-4.4975
408,9345317,0.957456,0.064294,-0.23009200000000002,-0.6825,-4.9175,-4.48
409,9345415,0.9572120999999999,0.062098,-0.230702,-0.7175,-4.83,-4.4975
410,9345513,0.9585541,0.061732,-0.23228800000000002,-0.8925,-4.62,-4.62
411,9345611,0.957944,0.06112201,-0.23155599999999998,-0.98,-4.7775,-4.655
412,9345709,0.9566020000000001,0.061610000000000005,-0.22814,-0.945,-5.2675,-4.62
413,9345806,0.95709,0.061,-0.22691999999999998,-1.12,-5.355,-4.515
414,9345904,0.957822,0.062952,-0.22996999999999998,-1.295,-4.9175,-4.4975
415,9346002,0.958432,0.062098,-0.231434,-1.4175,-4.7775,-4.515
416,9346100,0.960384,0.062952,-0.22996999999999998,-1.33,-5.005,-4.6375
417,9346198,0.9613601,0.06539201,-0.227408,-1.4175,-5.25,-4.69
418,9346296,0.9620920000000001,0.06527000000000001,-0.225456,-1.295,-5.3375,-4.69
419,9346394,0.9623360999999999,0.06344,-0.227652,-1.1725,-5.3025,-4.6025
420,9346492,0.962458,0.063684,-0.228994,-0.9275,-5.3025,-4.515
421,9346590,0.9590420000000001,0.060146000000000005,-0.22557800000000003,-0.8925,-5.53,-4.34
422,9346687,0.9577,0.060634,-0.224846,-1.2775,-5.81,-4.2875
423,9346785,0.9539181000000001,0.06075601,-0.225456,-1.7325,-5.7925,-4.3575
424,9346883,0.955626,0.062341999999999995,-0.22777399999999998,-1.7325,-5.7225,-4.27
425,9346981,0.9551379999999999,0.06356201,-0.23021399999999997,-1.4875,-5.565,-4.34
426,9347079,0.9568459999999999,0.066246,-0.228872,-1.3825,-5.5825,-4.375
427,9347177,0.9585541,0.06771001,-0.229848,-1.33,-5.5475,-4.4625
428,9347275,0.9586761,0.068442,-0.230336,-1.2075,-5.635,-4.4975
429,9347373,0.9572120999999999,0.06819800000000001,-0.229726,-1.05,-5.53,-4.515
430,9347471,0.9602620999999999,0.068442,-0.231434,-0.98,-5.495,-4.4975
431,9347569,0.956968,0.066978,-0.231068,-0.8225,-5.6,-4.515
432,9347667,0.954284,0.06649,-0.23240999999999998,-0.6825,-5.775,-4.55
433,9347764,0.9514780999999999,0.06575800000000001,-0.23119,-0.665,-5.81,-4.55
434,9347862,0.9516,0.063318,-0.23301999999999998,-0.665,-5.5125,-4.5675
435,9347960,0.9526979999999999,0.064172,-0.232654,-0.7,-5.25,-4.5675
436,9348058,0.9534301,0.064172,-0.23228800000000002,-0.735,-5.145,-4.5675
437,9348156,0.9530641,0.065148,-0.233386,-0.7875,-5.11,-4.585
438,9348254,0.9534301,0.064782,-0.233386,-0.8400001,-5.1975,-4.6375
439,9348352,0.9530641,0.06575800000000001,-0.23314200000000002,-0.8225,-5.1625,-4.585
440,9348450,0.9539181000000001,0.065026,-0.232898,-0.91,-5.1275,-4.62
441,9348548,0.954528,0.06539201,-0.231312,-0.9275,-4.9,-4.6375
442,9348646,0.954284,0.065026,-0.232044,-0.8225,-4.9875,-4.62
443,9348743,0.95465,0.064172,-0.22948200000000002,-0.5075,-5.1625,-4.655
444,9348841,0.9557479999999999,0.06344,-0.230458,-0.6125,-5.1975,-4.6375
445,9348939,0.9558701,0.06356201,-0.23314200000000002,-0.805,-5.0925,-4.725
446,9349037,0.9553821,0.063318,-0.23228800000000002,-0.8575,-5.0925,-4.83
447,9349135,0.9558701,0.061488,-0.23155599999999998,-0.8925,-5.215,-4.795
448,9349233,0.9555040000000001,0.061,-0.231312,-1.1025,-5.18,-4.7775
449,9349331,0.9552601000000001,0.060877999999999995,-0.228994,-1.435,-5.0925,-4.76
450,9349429,0.95831,0.06124401,-0.22801799999999997,-1.6275,-4.9875,-4.62
451,9349527,0.9612379999999999,0.062464,-0.228384,-1.645,-4.6725,-4.5675
452,9349624,0.9618481,0.062341999999999995,-0.23167800000000002,-1.54,-4.55,-4.5325
453,9349722,0.960628,0.063074,-0.230336,-1.5225,-4.7775,-4.48
454,9349820,0.957334,0.064294,-0.23082399999999997,-1.6275,-5.145,-4.4275
455,9349918,0.955016,0.06405001,-0.22948200000000002,-1.68,-5.285,-4.445
456,9350016,0.954406,0.065026,-0.230336,-1.4525,-5.32,-4.55
457,9350114,0.954528,0.065514,-0.227042,-1.435,-5.215,-4.4275
458,9350212,0.9568459999999999,0.064538,-0.22582199999999997,-1.4,-5.1975,-4.445
459,9350310,0.9581881,0.064416,-0.2257,-1.3825,-5.2325,-4.4275
460,9350408,0.9585541,0.063318,-0.22728600000000002,-1.54,-5.1975,-4.4625
461,9350506,0.9586761,0.06563601,-0.229604,-1.6275,-5.1275,-4.655
462,9350603,0.9598959999999999,0.06795401,-0.231434,-1.4875,-5.18,-4.62
463,9350701,0.9616040000000001,0.06819800000000001,-0.22557800000000003,-1.33,-5.5125,-4.6025
464,9350799,0.9590420000000001,0.067222,-0.22362600000000002,-1.225,-5.775,-4.69
465,9350897,0.9592860000000001,0.066856,-0.22411399999999998,-1.12,-5.565,-4.76
466,9350995,0.9589200999999999,0.063318,-0.226066,-1.155,-5.1975,-4.7425
467,9351093,0.95831,0.061975999999999996,-0.22557800000000003,-1.3125,-5.075,-4.7425
468,9351191,0.9566020000000001,0.06039,-0.226798,-1.33,-5.6175,-4.62
469,9351289,0.954406,0.06075601,-0.22472399999999998,-1.4875,-5.985,-4.55
470,9351387,0.9531860000000001,0.061854,-0.226066,-1.6275,-5.8625,-4.585
471,9351485,0.952332,0.063928,-0.22753,-1.68,-5.3725,-4.6025
472,9351583,0.9524540000000001,0.064416,-0.22667600000000002,-1.7325,-5.11,-4.655
473,9351680,0.952942,0.065026,-0.227042,-1.8025,-5.0925,-4.7425
474,9351778,0.9526979999999999,0.06588,-0.226066,-1.645,-5.1975,-4.7775
475,9351876,0.957334,0.06563601,-0.22338200000000002,-1.5225,-5.25,-4.725
476,9351974,0.9595300999999999,0.063928,-0.22338200000000002,-1.7325,-5.1625,-4.8475
477,9352072,0.9623360999999999,0.06270801,-0.222162,-1.925,-5.0225,-4.76
478,9352170,0.9618481,0.063684,-0.219234,-2.1525,-5.1275,-4.8475
479,9352268,0.9627020000000001,0.06344,-0.218746,-2.275,-5.11,-4.8475
480,9352366,0.96319,0.06527000000000001,-0.219478,-1.995,-5.2325,-4.795
481,9352464,0.9612379999999999,0.066978,-0.220942,-1.785,-5.2325,-4.7075
482,9352561,0.9591639999999999,0.06466001,-0.21752600000000002,-1.8025,-5.2325,-4.6375
483,9352659,0.9590420000000001,0.06539201,-0.21520799999999998,-2.135,-5.2325,-4.6025
484,9352757,0.9595300999999999,0.06600201,-0.21520799999999998,-2.17,-5.4075,-4.515
485,9352855,0.959774,0.066734,-0.21533000000000002,-2.24,-5.4075,-4.5325
486,9352953,0.959408,0.066856,-0.21472,-2.2225,-5.3025,-4.5325
487,9353051,0.9605060999999999,0.068686,-0.21289,-2.2225,-5.3375,-4.55
488,9353149,0.9612379999999999,0.069784,-0.21313400000000002,-2.1525,-5.2325,-4.55
489,9353247,0.9629459999999999,0.07027201,-0.21411,-2.0125,-5.1275,-4.5675
490,9353345,0.964776,0.06880801,-0.216306,-2.17,-5.2325,-4.6025
491,9353443,0.9652639999999999,0.06819800000000001,-0.216428,-2.2225,-5.355,-4.62
492,9353541,0.963922,0.067222,-0.21899000000000002,-2.1,-5.39,-4.4975
493,9353638,0.9627020000000001,0.06746601,-0.21899000000000002,-2.1,-5.3725,-4.4625
494,9353736,0.9616040000000001,0.06746601,-0.22045399999999998,-2.2225,-5.39,-4.55
495,9353834,0.959408,0.06941801,-0.221796,-1.96,-5.5825,-4.4625
496,9353932,0.9572120999999999,0.07076001,-0.224602,-1.575,-5.635,-4.515
497,9354030,0.9572120999999999,0.07112601,-0.225212,-1.5925,-5.6525,-4.55
498,9354128,0.9561139999999999,0.069784,-0.224602,-1.4525,-5.5825,-4.6375
499,9354226,0.9563581,0.069052,-0.22265,-1.4525,-5.4775,-4.6375
500,9354324,0.9562360999999999,0.069052,-0.22252800000000003,-1.3825,-5.53,-4.5325
501,9354421,0.9581881,0.06892999999999999,-0.22045399999999998,-1.365,-5.635,-4.655
502,9354519,0.96014,0.06649,-0.220942,-1.2775,-5.6,-4.55
503,9354617,0.9627020000000001,0.063684,-0.22106399999999998,-1.295,-5.4775,-4.55
504,9354715,0.9622141,0.065148,-0.21838000000000002,-1.4175,-5.4425,-4.5675
505,9354813,0.9619700000000001,0.063074,-0.218502,-1.4525,-5.7575,-4.62
506,9354911,0.9612379999999999,0.064172,-0.22082,-1.6625,-5.7925,-4.55
507,9355009,0.9612379999999999,0.06466001,-0.223138,-1.68,-5.635,-4.4975
508,9355107,0.9619700000000001,0.066734,-0.223504,-1.75,-5.705,-4.48
509,9355204,0.9618481,0.067832,-0.22045399999999998,-1.575,-6.0025,-4.305
510,9355302,0.9619700000000001,0.07039400000000001,-0.21825799999999998,-1.5225,-6.1425,-4.4275
511,9355400,0.96441,0.07039400000000001,-0.21618400000000002,-1.3475,-6.2475,-4.445
512,9355498,0.9630681000000001,0.067832,-0.21801399999999999,-1.3125,-6.23,-4.4625
513,9355596,0.96319,0.065026,-0.219234,-1.2075,-6.3,-4.5325
514,9355694,0.961116,0.065026,-0.21862399999999999,-1.5225,-6.58,-4.445
515,9355792,0.9609940999999999,0.06490399999999999,-0.217648,-1.8725,-6.9125,-4.41
516,9355890,0.959408,0.068076,-0.219844,-2.0475,-6.8775,-4.3225
517,9355987,0.9591639999999999,0.066856,-0.22057600000000002,-2.205,-6.51,-4.3925
518,9356085,0.95831,0.06954,-0.221308,-2.0125,-6.405,-4.4275
519,9356183,0.9596520000000001,0.07027201,-0.223138,-1.645,-6.51,-4.4975
520,9356281,0.9591639999999999,0.07112601,-0.223504,-1.33,-6.6325,-4.62
521,9356379,0.9567241,0.069174,-0.22277199999999997,-1.19,-6.65,-4.585
522,9356477,0.95709,0.07015,-0.220088,-1.2775,-6.7025,-4.4625
523,9356575,0.9580661,0.07015,-0.220942,-1.4525,-6.7025,-4.62
524,9356673,0.9575780999999999,0.071492,-0.22167399999999998,-1.575,-6.58,-4.6725
525,9356770,0.9575780999999999,0.071004,-0.22326,-1.645,-6.44,-4.62
526,9356868,0.9566020000000001,0.07039400000000001,-0.22252800000000003,-1.4525,-6.37,-4.62
527,9356966,0.9555040000000001,0.071248,-0.222894,-1.4175,-6.3175,-4.795
528,9357064,0.9575780999999999,0.069052,-0.22326,-1.365,-6.265,-4.865
529,9357162,0.957334,0.06941801,-0.223138,-1.505,-6.2825,-4.725
530,9357260,0.957456,0.069052,-0.22057600000000002,-1.4525,-6.195,-4.655
531,9357358,0.9562360999999999,0.06880801,-0.22191799999999998,-1.47,-6.09,-4.5325
532,9357456,0.954528,0.069784,-0.22167399999999998,-1.365,-5.985,-4.4625
533,9357553,0.9558701,0.07076001,-0.221796,-1.3125,-5.985,-4.3925
534,9357651,0.9562360999999999,0.07198,-0.221308,-1.365,-5.8625,-4.3925
535,9357749,0.9575780999999999,0.071492,-0.221552,-1.26,-5.8275,-4.55
536,9357847,0.955992,0.07039400000000001,-0.222284,-1.19,-5.705,-4.585
537,9357945,0.9553821,0.069662,-0.22143000000000002,-1.12,-5.6525,-4.725
538,9358043,0.9566020000000001,0.06636801,-0.223016,-1.12,-5.5475,-4.7425
539,9358141,0.95831,0.068686,-0.220942,-1.0675,-5.67,-4.725
540,9358239,0.960384,0.06649,-0.219356,-1.1375,-5.635,-4.7425
541,9358336,0.9618481,0.066856,-0.219966,-1.19,-5.6,-4.725
542,9358434,0.9605060999999999,0.066124,-0.22118600000000002,-1.19,-5.67,-4.725
543,9358532,0.9613601,0.067588,-0.22106399999999998,-1.3475,-5.81,-4.655
544,9358630,0.9613601,0.06661201,-0.22021,-1.4525,-5.81,-4.6025
545,9358728,0.9602620999999999,0.067344,-0.22143000000000002,-1.5925,-5.705,-4.5675
546,9358826,0.9592860000000001,0.066978,-0.221552,-1.8025,-5.6175,-4.5325
547,9358924,0.9566020000000001,0.06795401,-0.22265,-1.6975,-5.6525,-4.34
548,9359022,0.9564799999999999,0.06832001,-0.22472399999999998,-1.5575,-5.67,-4.2175
549,9359119,0.9585541,0.0671,-0.22411399999999998,-1.4525,-5.4425,-4.235
550,9359217,0.9580661,0.06588,-0.22106399999999998,-1.4875,-5.495,-4.305
551,9359315,0.9581881,0.067832,-0.219234,-1.6975,-5.67,-4.3225
552,9359413,0.9585541,0.06649,-0.222162,-1.7675,-5.7575,-4.3925
553,9359511,0.9591639999999999,0.066124,-0.222894,-1.7325,-5.53,-4.445
554,9359609,0.9620920000000001,0.06600201,-0.225334,-1.9775,-5.4075,-4.445
555,9359707,0.9605060999999999,0.067588,-0.22509,-2.0825,-5.6525,-4.4975
556,9359805,0.9590420000000001,0.06892999999999999,-0.22082,-2.03,-5.81,-4.445
557,9359902,0.9600181000000001,0.069784,-0.21655,-1.855,-5.8625,-4.585
558,9360000,0.9605060999999999,0.068686,-0.21886799999999998,-1.54,-5.7225,-4.4975
559,9360098,0.961482,0.068442,-0.218502,-1.3125,-5.6175,-4.4625
560,9360196,0.96319,0.066734,-0.217282,-1.4,-5.915,-4.3575
561,9360294,0.9623360999999999,0.066978,-0.214598,-1.4875,-6.44,-4.2875
562,9360392,0.9628241,0.06771001,-0.216916,-1.61,-6.4225,-4.2175
563,9360490,0.9636780999999999,0.069784,-0.219234,-1.6625,-6.0725,-4.2
564,9360588,0.9620920000000001,0.07112601,-0.222406,-1.47,-5.7925,-4.375
565,9360685,0.9596520000000001,0.07112601,-0.22277199999999997,-1.2775,-6.1425,-4.48
566,9360783,0.9590420000000001,0.07039400000000001,-0.22472399999999998,-1.085,-6.3,-4.445
567,9360881,0.9553821,0.06954,-0.225334,-0.9975,-6.2825,-4.6025
568,9360979,0.9547720999999999,0.069784,-0.227408,-0.91,-6.1075,-4.6025
569,9361077,0.956968,0.069662,-0.22667600000000002,-0.665,-6.1425,-4.69
570,9361175,0.957822,0.06941801,-0.225212,-0.56,-6.1775,-4.6725
571,9361273,0.956968,0.06941801,-0.22630999999999998,-0.6475,-6.23,-4.655
572,9361371,0.956968,0.069662,-0.224602,-0.6475,-6.265,-4.6375
573,9361468,0.95831,0.07015,-0.22557800000000003,-0.525,-6.1425,-4.76
574,9361566,0.95831,0.069052,-0.222894,-0.49,-6.3525,-4.725
575,9361664,0.9587979999999999,0.068442,-0.22143000000000002,-0.42,-6.3875,-4.7075
576,9361762,0.959408,0.069052,-0.22045399999999998,-0.4375,-6.4225,-4.6725
577,9361860,0.96014,0.068686,-0.221552,-0.49,-6.23,-4.585
578,9361958,0.959408,0.067222,-0.22277199999999997,-0.245,-6.3175,-4.48
579,9362056,0.9587979999999999,0.06746601,-0.22362600000000002,-0.28,-6.23,-4.4975
580,9362154,0.957944,0.066124,-0.22582199999999997,-0.3325,-6.335,-4.48
581,9362252,0.9592860000000001,0.06661201,-0.223504,-0.3325,-6.4575,-4.55
582,9362349,0.9595300999999999,0.066246,-0.22423600000000002,-0.35,-6.545,-4.69
583,9362447,0.9590420000000001,0.06563601,-0.22326,-0.3675,-6.475,-4.655
584,9362545,0.9605060999999999,0.066124,-0.22509,-0.63,-6.3525,-4.725
585,9362643,0.9596520000000001,0.06527000000000001,-0.22509,-0.8400001,-6.3875,-4.7075
586,9362741,0.957334,0.067588,-0.225212,-0.945,-6.37,-4.725
587,9362839,0.957334,0.06929600000000001,-0.22801799999999997,-0.8575,-6.3525,-4.7075
588,9362937,0.956968,0.069174,-0.22667600000000002,-0.735,-6.44,-4.5325
589,9363035,0.9555040000000001,0.068564,-0.2257,-0.7175,-6.4575,-4.3925
590,9363133,0.9572120999999999,0.067832,-0.22496799999999997,-0.8225,-6.44,-4.4975
591,9363230,0.9566020000000001,0.067832,-0.22643200000000002,-0.875,-6.3525,-4.585
592,9363328,0.9575780999999999,0.066734,-0.22728600000000002,-0.91,-6.0725,-4.5325
593,9363426,0.957944,0.067588,-0.22777399999999998,-0.8925,-6.2825,-4.4625
594,9363524,0.9581881,0.06941801,-0.22814,-0.8925,-6.3,-4.4625
595,9363622,0.957822,0.068686,-0.226188,-0.945,-6.2475,-4.34
596,9363720,0.956968,0.06746601,-0.225944,-1.015,-6.0375,-4.4625
597,9363818,0.9557479999999999,0.06527000000000001,-0.22667600000000002,-0.9625,-6.125,-4.4275
598,9363916,0.9553821,0.064294,-0.22789600000000002,-0.98,-6.2825,-4.5325
599,9364013,0.954284,0.064416,-0.227652,-1.1375,-6.2125,-4.48
600,9364111,0.953674,0.064172,-0.22728600000000002,-1.435,-5.7925,-4.55
601,9364209,0.955016,0.066246,-0.229848,-1.5575,-5.7225,-4.375
602,9364307,0.957456,0.06954,-0.228872,-1.715,-5.9675,-4.4275
603,9364405,0.96075,0.069662,-0.22728600000000002,-1.6275,-6.2475,-4.375
604,9364503,0.960628,0.06954,-0.2257,-1.3475,-6.195,-4.4625
605,9364601,0.960628,0.068564,-0.225456,-1.33,-5.9675,-4.4275
606,9364699,0.9629459999999999,0.06661201,-0.227652,-1.4175,-5.88,-4.305
607,9364797,0.9598959999999999,0.06661201,-0.22801799999999997,-1.435,-6.3525,-4.1125
608,9364894,0.9585541,0.067588,-0.22753,-1.435,-6.79,-4.0425
609,9364992,0.9561139999999999,0.06649,-0.230458,-1.4875,-6.615,-4.025
610,9365090,0.9539181000000001,0.067832,-0.230702,-1.4525,-6.3525,-4.095
611,9365188,0.951356,0.066856,-0.23253200000000002,-1.47,-6.2125,-4.2525
612,9365286,0.9520881,0.06795401,-0.232776,-1.435,-6.1075,-4.4275
613,9365384,0.9531860000000001,0.066978,-0.23228800000000002,-1.4175,-6.2125,-4.48
614,9365482,0.9540401,0.067222,-0.23387399999999997,-1.4525,-6.1425,-4.445
615,9365580,0.955992,0.06771001,-0.23228800000000002,-1.505,-6.0025,-4.445
616,9365677,0.9568459999999999,0.068686,-0.231434,-1.505,-6.0025,-4.375
617,9365775,0.958432,0.069662,-0.2318,-1.47,-6.125,-4.3575
618,9365873,0.9581881,0.07076001,-0.23301999999999998,-1.295,-6.1075,-4.4275
619,9365971,0.9562360999999999,0.069784,-0.231068,-1.1375,-6.055,-4.445
620,9366069,0.9551379999999999,0.069662,-0.23058,-1.085,-6.0025,-4.5325
621,9366167,0.9551379999999999,0.068564,-0.2318,-0.8225,-5.95,-4.4275
622,9366265,0.9537959999999999,0.06649,-0.230946,-0.7525,-6.0025,-4.375
623,9366363,0.954528,0.066856,-0.230458,-0.8575,-5.95,-4.4275
624,9366461,0.9537959999999999,0.06563601,-0.22862800000000003,-0.875,-5.88,-4.4275
625,9366558,0.955626,0.06600201,-0.22789600000000002,-0.9975,-5.775,-4.3575
626,9366656,0.9567241,0.065514,-0.228506,-1.0325,-5.6875,-4.4275
627,9366754,0.9562360999999999,0.066734,-0.22801799999999997,-0.91,-5.7225,-4.305
628,9366852,0.959774,0.06575800000000001,-0.227042,-0.875,-5.635,-4.445
629,9366950,0.9605060999999999,0.06636801,-0.227408,-0.7875,-5.8275,-4.48
630,9367048,0.9589200999999999,0.067344,-0.230336,-0.77,-5.8975,-4.5325
631,9367146,0.957822,0.066734,-0.23021399999999997,-0.6825,-5.915,-4.4975
632,9367244,0.9568459999999999,0.06575800000000001,-0.228262,-0.8400001,-5.8275,-4.5675
633,9367341,0.955626,0.06588,-0.22789600000000002,-0.91,-5.8625,-4.515
634,9367439,0.9562360999999999,0.06527000000000001,-0.229238,-0.945,-5.9325,-4.445
635,9367537,0.9572120999999999,0.06563601,-0.22814,-0.8575,-5.985,-4.4275
636,9367635,0.958432,0.063684,-0.22728600000000002,-0.7875,-5.7225,-4.48
637,9367733,0.9602620999999999,0.06405001,-0.229604,-0.875,-5.7225,-4.515
638,9367831,0.961482,0.063684,-0.23021399999999997,-0.7525,-5.7925,-4.4975
639,9367929,0.9585541,0.065148,-0.228384,-0.6125,-5.985,-4.375
640,9368027,0.956968,0.067832,-0.22814,-0.63,-6.125,-4.3925
641,9368124,0.95709,0.068442,-0.22777399999999998,-0.735,-6.1775,-4.34
642,9368222,0.9561139999999999,0.06795401,-0.22789600000000002,-0.5775,-6.055,-4.2875
643,9368320,0.9553821,0.06600201,-0.228872,-0.5075,-6.16,-4.3575
644,9368418,0.9567241,0.06490399999999999,-0.229238,-0.5775,-6.09,-4.4625
645,9368516,0.957334,0.063074,-0.228262,-0.805,-6.0375,-4.5325
646,9368614,0.9564799999999999,0.062220000000000004,-0.22753,-0.9975,-5.9675,-4.515
647,9368712,0.9564799999999999,0.061488,-0.230458,-0.98,-5.845,-4.6375
648,9368810,0.9581881,0.063074,-0.23363,-0.9275,-5.5475,-4.4975
649,9368908,0.9596520000000001,0.06356201,-0.23424,-0.9275,-5.67,-4.48
650,9369005,0.959408,0.065026,-0.22875,-0.7525,-6.0375,-4.4625
651,9369103,0.9590420000000001,0.06746601,-0.22716399999999998,-0.5775,-6.4225,-4.375
652,9369201,0.9605060999999999,0.06490399999999999,-0.22643200000000002,-0.385,-6.405,-4.34
653,9369299,0.961726,0.06270801,-0.22777399999999998,-0.42,-6.02,-4.445
654,9369397,0.96014,0.059902,-0.22814,-0.5425,-6.3525,-4.48
655,9369495,0.95709,0.059536,-0.22582199999999997,-0.8400001,-6.8775,-4.3925
656,9369593,0.9541620000000001,0.06075601,-0.22789600000000002,-1.05,-6.825,-4.2875
657,9369691,0.95221,0.061975999999999996,-0.22814,-1.2075,-6.4575,-4.41
658,9369788,0.953674,0.062464,-0.229726,-1.2075,-6.1425,-4.4625
659,9369886,0.953308,0.063928,-0.22996999999999998,-0.945,-6.195,-4.5675
660,9369984,0.9531860000000001,0.067588,-0.231922,-0.805,-6.1775,-4.6025
661,9370082,0.9558701,0.06880801,-0.23363,-0.56,-6.195,-4.585
662,9370180,0.956968,0.06941801,-0.23253200000000002,-0.49,-6.125,-4.445
663,9370278,0.9575780999999999,0.06832001,-0.22996999999999998,-0.4725,-6.055,-4.4275
664,9370376,0.9585541,0.067832,-0.230336,-0.525,-6.09,-4.4625
665,9370474,0.957456,0.066246,-0.23009200000000002,-0.735,-6.195,-4.5325
666,9370571,0.957334,0.064782,-0.23119,-0.7,-6.02,-4.69
667,9370669,0.955992,0.064172,-0.23216599999999998,-0.665,-5.8625,-4.76
668,9370767,0.9537959999999999,0.062586,-0.23082399999999997,-0.595,-5.88,-4.585
669,9370865,0.9539181000000001,0.063196,-0.23009200000000002,-0.4725,-6.0375,-4.69
670,9370963,0.9557479999999999,0.06283,-0.228994,-0.56,-5.8975,-4.6375
671,9371061,0.9541620000000001,0.06270801,-0.229604,-0.665,-5.88,-4.585
672,9371159,0.9551379999999999,0.062952,-0.229238,-0.7175,-5.9675,-4.4975
673,9371257,0.9568459999999999,0.06344,-0.228872,-0.77,-5.7575,-4.515
674,9371355,0.9572120999999999,0.06356201,-0.229116,-0.875,-5.6525,-4.5325
675,9371452,0.9581881,0.06527000000000001,-0.230458,-0.98,-5.5475,-4.655
676,9371550,0.9587979999999999,0.064294,-0.23009200000000002,-0.945,-5.6,-4.655
677,9371648,0.9591639999999999,0.064294,-0.230702,-0.8400001,-5.7925,-4.6025
678,9371746,0.958432,0.064294,-0.229726,-0.945,-6.0725,-4.7425
679,9371844,0.957334,0.064294,-0.22789600000000002,-0.9975,-6.02,-4.83
680,9371942,0.955626,0.062098,-0.22630999999999998,-1.1025,-5.915,-4.8475
681,9372040,0.9577,0.061366,-0.2257,-1.2075,-5.845,-4.76
682,9372138,0.957822,0.063196,-0.22667600000000002,-1.3475,-5.81,-4.69
683,9372235,0.9577,0.065148,-0.226188,-1.4,-5.8275,-4.6375
684,9372333,0.957456,0.063684,-0.22423600000000002,-1.365,-5.8975,-4.55
685,9372431,0.9572120999999999,0.063318,-0.22509,-1.4525,-5.8625,-4.4625
686,9372529,0.9564799999999999,0.06380599999999999,-0.22728600000000002,-1.645,-5.9675,-4.4625
687,9372627,0.957334,0.064538,-0.225456,-1.7325,-5.915,-4.5325
688,9372725,0.9592860000000001,0.065026,-0.223992,-1.785,-5.9325,-4.48
689,9372823,0.9563581,0.064416,-0.225456,-1.8725,-5.8275,-4.4275
690,9372921,0.9567241,0.065514,-0.22691999999999998,-2.0825,-5.88,-4.41
691,9373018,0.9563581,0.064294,-0.228994,-2.2575,-5.915,-4.4625
692,9373116,0.9587979999999999,0.063684,-0.22935999999999998,-2.345,-5.7575,-4.48
693,9373214,0.959408,0.06539201,-0.22691999999999998,-2.345,-6.0375,-4.4625
694,9373312,0.9605060999999999,0.064294,-0.22935999999999998,-2.45,-6.5975,-4.4975
695,9373410,0.9605060999999999,0.06819800000000001,-0.228994,-2.8,-6.7725,-4.5675
696,9373508,0.96319,0.069906,-0.23314200000000002,-3.08,-6.5275,-4.6375
697,9373606,0.964532,0.07564,-0.23472800000000002,-3.29,-6.755,-4.76
698,9373704,0.965996,0.080886,-0.2318,-3.255,-7.1575,-4.83
699,9373802,0.9636780999999999,0.08674201,-0.227652,-3.22,-7.9975,-5.145
700,9373899,0.9586761,0.090036,-0.223504,-3.325,-8.645,-5.53
701,9373997,0.9577,0.089792,-0.22472399999999998,-2.94,-8.9075,-5.8625
702,9374095,0.9616040000000001,0.08845001,-0.228384,-2.52,-8.6625,-6.3175
703,9374193,0.9653860000000001,0.09150001,-0.227652,-2.59,-9.065,-6.615
704,9374291,0.9648979999999999,0.09625801,-0.228262,-2.8175,-10.2375,-6.7375
705,9374389,0.9636780999999999,0.09942999999999999,-0.225944,-2.6075,-10.8675,-6.9125
706,9374487,0.9653860000000001,0.099552,-0.22252800000000003,-2.065,-10.675,-6.9125
707,9374585,0.968558,0.09784401,-0.215696,-1.47,-10.3075,-7.035
708,9374683,0.9708760000000001,0.09845401,-0.21581799999999998,-0.945,-10.325,-7.0175
709,9374781,0.9696561,0.102358,-0.215452,-0.385,-10.5875,-6.86
710,9374878,0.967216,0.109556,-0.215696,-0.0175,-11.0425,-6.4925
711,9374976,0.96441,0.108214,-0.214598,0.7,-11.1125,-6.0025
712,9375074,0.963434,0.107116,-0.211304,1.1025,-10.9725,-5.5825
713,9375172,0.9618481,0.108946,-0.211304,0.91,-11.06,-5.4075
714,9375270,0.9580661,0.105652,-0.21276799999999998,0.875,-11.34,-5.1625
715,9375368,0.954284,0.1037,-0.211182,0.98,-11.48,-5.18
716,9375466,0.9512341000000001,0.09650201,-0.20483800000000002,1.19,-11.2175,-5.18
717,9375564,0.9520881,0.094062,-0.20288599999999998,1.33,-10.78,-5.0575
718,9375662,0.9540401,0.090768,-0.201422,1.4525,-10.2725,-5.04
719,9375759,0.9547720999999999,0.085888,-0.199714,1.5925,-10.08,-4.7425
720,9375857,0.958432,0.082838,-0.196786,1.5925,-10.2725,-4.5325
721,9375955,0.959408,0.078202,-0.19702999999999998,1.505,-10.29,-4.305
722,9376053,0.961482,0.07710399999999999,-0.197152,1.015,-10.1325,-4.095
723,9376151,0.962458,0.078446,-0.196176,0.42,-10.01,-3.955
724,9376249,0.9663620999999999,0.077958,-0.192638,-0.315,-9.8525,-3.78
725,9376347,0.9686799999999999,0.077592,-0.18849000000000002,-0.9625,-9.6775,-3.4125
726,9376445,0.969412,0.077348,-0.191296,-1.365,-9.555,-3.1675
727,9376542,0.969412,0.078202,-0.196054,-1.8375,-9.4325,-2.73
728,9376640,0.9680700000000001,0.083204,-0.201422,-2.17,-9.6425,-2.2925
729,9376738,0.96441,0.08357,-0.206058,-2.4675,-9.73,-1.9775
730,9376836,0.9628241,0.083936,-0.20496,-2.835,-9.94,-1.61
731,9376934,0.9618481,0.083936,-0.202154,-3.43,-10.1675,-1.4
732,9377032,0.9587979999999999,0.085522,-0.202154,-4.0075,-10.2025,-1.26
733,9377130,0.9547720999999999,0.082472,-0.20288599999999998,-4.6025,-10.115,-1.1375
734,9377228,0.951356,0.07869,-0.20496,-5.18,-9.8525,-0.8575
735,9377326,0.9487940999999999,0.076738,-0.2074,-5.88,-9.485,-0.595
736,9377423,0.9465981,0.07417601,-0.21106,-6.5625,-9.135,-0.315
737,9377521,0.94489,0.070638,-0.21228000000000002,-7.0875,-9.0125,-0.1925
738,9377619,0.940254,0.071004,-0.214842,-7.6825,-8.925,-0.035
739,9377717,0.9390341,0.071614,-0.214354,-7.9975,-8.645,0.1575
740,9377815,0.9376921,0.07112601,-0.215696,-8.2425,-7.9975,0.315
741,9377913,0.9354959999999999,0.074786,-0.22118600000000002,-8.5575,-7.245,0.42
742,9378011,0.9325680000000001,0.07551801,-0.225334,-8.8375,-6.265,0.525
743,9378109,0.9270780999999999,0.07344400000000001,-0.228262,-9.1175,-5.25,0.5775
744,9378206,0.9202459999999999,0.07222401,-0.229116,-9.4675,-4.445,0.5775
745,9378304,0.916464,0.069906,-0.226066,-9.3625,-3.85,0.455
746,9378402,0.915732,0.07173600000000001,-0.23119,-9.135,-3.045,0.1925
747,9378500,0.918538,0.08052000000000001,-0.238754,-9.2925,-1.5225,-0.2975
748,9378598,0.9203680000000001,0.091134,-0.239852,-9.415,0.14,-1.155
749,9378696,0.916464,0.097722,-0.23582600000000004,-9.275,1.6275,-2.2575
750,9378794,0.909632,0.094062,-0.230702,-9.0125,3.0975,-3.535
751,9378892,0.8990181,0.08967,-0.22935999999999998,-8.575,4.4975,-5.0575
752,9378989,0.8897459999999999,0.085156,-0.2379,-8.9425,6.09,-6.6675
753,9379087,0.8801081000000001,0.07039400000000001,-0.246806,-8.8375,7.2625,-8.12
754,9379185,0.8751059999999999,0.05819401,-0.262544,-8.645,7.805,-9.695
755,9379283,0.86864,0.05587601,-0.27755,-8.435,7.525,-11.235
756,9379381,0.8679081,0.05819401,-0.281454,-8.225,6.72,-12.705
757,9379479,0.8690061,0.06124401,-0.287432,-7.3675,5.7225,-14.21
758,9379577,0.8888921000000001,0.06283,-0.30097399999999996,-6.195,6.195,-15.89
759,9379675,0.9239059999999999,0.070516,-0.30622,-4.97,7.3675,-17.57
760,9379772,0.966484,0.091012,-0.295484,-4.0075,7.0875,-19.5475
761,9379870,1.006378,0.10723800000000001,-0.282674,-1.9775,5.495,-21.42
762,9379968,1.046028,0.11834000000000001,-0.28633400000000003,0.56,2.7825,-22.05
763,9380066,1.080676,0.122244,-0.281698,3.9725,-1.1025,-21.455
764,9380164,1.10105,0.13639600000000002,-0.26108000000000003,7.1225,-5.565,-18.97
765,9380262,1.109224,0.14469200000000002,-0.23228800000000002,10.255,-9.3975,-16.4675
766,9380360,1.092998,0.14152,-0.200812,12.845,-13.09,-13.335
767,9380458,1.0468819999999999,0.10418800000000002,-0.17763199999999998,17.185,-18.2875,-11.6025
768,9380555,0.9863700000000001,0.07722601,-0.14823,17.9725,-23.5375,-11.97
769,9380653,0.9325680000000001,0.032818,-0.11053199999999999,17.2725,-24.5875,-13.58
770,9380751,0.8945040000000001,-0.007442,-0.117852,12.985,-20.9825,-15.89
771,9380849,0.8857200999999999,-0.041846,-0.116876,7.91,-17.605,-18.095
772,9380947,0.9084121,-0.060634,-0.09906401,2.5725,-15.6975,-19.04
773,9381045,0.9612379999999999,-0.06636801,-0.095038,-4.0075,-13.125,-18.2525
774,9381143,1.0140639999999999,-0.056608000000000006,-0.08918200000000001,-8.6625,-9.38,-13.2475
775,9381241,1.064694,-0.021228,-0.09991799999999999,-12.285,-5.11,-6.7725
776,9381338,1.109224,0.023180000000000003,-0.115656,-12.88,-0.98,-0.455
777,9381436,1.13216,0.07112601,-0.12749000000000002,-11.3575,1.365,7.2625
778,9381534,1.129476,0.10553,-0.134688,-8.4875,0.945,12.0225
779,9381632,1.10471,0.13115,-0.13602999999999998,-5.04,-2.7475,15.1375
780,9381730,1.050054,0.135542,-0.135908,-1.4,-7.4725,17.1675
781,9381828,0.9934460999999999,0.124806,-0.13237000000000002,2.1875,-11.0075,17.255
782,9381926,0.937326,0.11467999999999999,-0.12248800000000001,4.2525,-13.72,17.955
783,9382023,0.904386,0.09320801,-0.10931199999999999,5.6525,-14.21,17.675
784,9382121,0.887916,0.074298,-0.101748,5.4075,-12.39,16.4675
785,9382219,0.894626,0.064782,-0.10126,4.6725,-10.0275,15.19
786,9382317,0.909632,0.059902,-0.098332,3.535,-9.135,13.79
787,9382415,0.9202459999999999,0.051362,-0.09089001,2.03,-9.94,11.97
788,9382513,0.9296399999999999,0.0427,-0.081374,0.5775,-11.0775,9.5025
789,9382611,0.9435479999999999,0.030744,-0.07612801,0.0,-11.935,6.8425
790,9382709,0.9587979999999999,0.015616,-0.07234600000000001,-0.1575,-13.02,4.375
791,9382807,0.972706,0.004514,-0.07076001,-0.595,-14.7,2.4325
792,9382904,0.983808,0.0008540001,-0.07112601,-0.7175,-16.3625,1.26
793,9383002,0.990274,0.004636001,-0.07283401,-0.98,-17.4825,0.4375
794,9383100,0.992348,0.015493999999999999,-0.073688,-1.33,-18.655,0.035
795,9383198,0.987712,0.032330000000000005,-0.07442,-1.6275,-19.8625,-0.455
796,9383296,0.9766101,0.043554,-0.084912,-1.785,-20.79,-1.0675
797,9383394,0.9609940999999999,0.045627999999999995,-0.09821001,-1.75,-21.14,-1.7325
798,9383492,0.945256,0.051972000000000004,-0.105896,-2.205,-21.245,-2.59
799,9383590,0.9284200999999999,0.052216,-0.124196,-2.8525,-21.4375,-3.325
800,9383688,0.9174399999999999,0.042212,-0.14871800000000002,-2.9225,-21.175,-4.13
801,9383785,0.9137799999999999,0.033794,-0.162138,-2.9225,-20.3,-4.9525
802,9383883,0.9140241,0.02562,-0.160186,-2.59,-18.865,-5.7575
803,9383981,0.913536,0.016714,-0.151158,-2.1525,-17.0275,-6.1425
804,9384079,0.9154880999999999,0.009516001,-0.137982,-1.785,-14.4375,-6.0725
805,9384177,0.930006,0.004636001,-0.11467999999999999,-1.575,-11.06,-5.6525
806,9384275,0.9552601000000001,0.00061,-0.08759601,-2.1875,-7.4725,-4.3925
807,9384373,0.9861260000000001,-0.009394,-0.069662,-3.7625,-4.515,-2.8525
808,9384471,1.0176020000000001,-0.050142,-0.155428,-5.005,-1.575,-1.1025
809,9384569,1.062132,-0.062464,-0.182146,-6.65,3.6225,1.7675
810,9384667,1.115324,-0.019032,-0.162138,-10.6575,7.42,5.32
811,9384764,1.164978,0.023424,-0.10797000000000001,-11.48,7.49,8.8375
812,9384862,1.203286,0.081496,-0.09455001,-12.1975,5.9675,12.3375
813,9384960,1.20597,0.11577799999999999,-0.102968,-9.8,5.145,14.56
814,9385058,1.186328,0.149084,-0.101382,-5.8975,6.1425,15.1725
815,9385156,1.149728,0.173362,-0.069174,-2.3275,7.0,13.615
816,9385254,1.085556,0.183366,-0.066856,2.0825,6.545,8.7675
817,9385352,1.01443,0.153476,-0.102968,8.4,6.02,1.8375
818,9385450,0.9701440999999998,0.100406,-0.180316,13.825,7.9625,-4.8825
819,9385548,0.9581881,0.04697001,-0.27510999999999997,13.2825,12.3725,-10.255
820,9385646,0.9653860000000001,0.050263999999999996,-0.291092,8.26,14.6125,-12.985
821,9385743,0.969412,0.05977999999999999,-0.25522399999999995,3.675,10.6925,-14.98
822,9385841,0.9736819999999999,0.050874,-0.258396,4.97,5.4775,-16.5025
823,9385939,0.996008,0.047092,-0.324886,7.0525,4.34,-15.4175
824,9386037,1.0468819999999999,0.012444,-0.367342,8.3125,6.8425,-11.8825
825,9386135,1.072746,-0.009516001,-0.3843,4.27,9.1525,-7.595
826,9386233,1.062254,-0.016104,-0.379786,-2.59,5.8625,-3.5875
827,9386331,1.041758,-0.024156,-0.377224,-6.3175,-0.4375,0.42
828,9386429,1.006988,-0.04819,-0.375638,-7.1575,-5.0225,4.7775
829,9386526,0.94306,-0.08003201,-0.364292,-8.4875,-7.1225,8.9775
830,9386624,0.868396,-0.08576601,-0.351482,-13.3,-7.77,12.215
831,9386722,0.8192299999999999,-0.082472,-0.324642,-17.92,-6.93,13.8425
832,9386820,0.804834,-0.060877999999999995,-0.290238,-21.07,-4.585,13.3875
833,9386918,0.841922,-0.026474,-0.274866,-23.065,-2.0125,10.8675
834,9387016,0.91012,0.021594,-0.26303200000000004,-24.8675,1.12,6.16
835,9387114,0.983808,0.072712,-0.264496,-27.09,4.2175,1.4175
836,9387212,1.056764,0.11028800000000001,-0.269376,-27.86,6.1425,-2.0825
837,9387310,1.120204,0.135664,-0.27279200000000003,-28.63,5.8975,-4.8825
838,9387407,1.146556,0.158112,-0.25961599999999996,-29.4,2.3975,-7.315
839,9387505,1.120082,0.18056,-0.248392,-29.2075,-3.4825,-8.26
840,9387603,1.04249,0.189832,-0.245098,-27.51,-9.485,-6.9475
841,9387701,0.966606,0.178608,-0.235948,-24.5,-14.175,-5.2675
842,9387799,0.8723001,0.17763199999999998,-0.22801799999999997,-21.595,-16.135,-3.29
843,9387897,0.8274040000000001,0.164456,-0.200934,-17.9375,-17.01,-1.645
844,9387995,0.77531,0.157136,-0.183122,-14.4025,-15.9425,-1.015
845,9388093,0.7582300000000001,0.139812,-0.167628,-11.025,-15.995,-2.9575
846,9388190,0.80703,0.12175599999999999,-0.149206,-7.805,-14.0525,-5.775
847,9388288,0.808982,0.105652,-0.149694,-4.6725,-7.9975,-5.7225
848,9388386,0.877424,0.10004,-0.14713199999999999,-2.555,-5.5475,-9.205
849,9388484,0.9063379999999999,0.106994,-0.161772,-2.38,-5.0225,-9.7825
850,9388582,0.9372040999999999,0.099674,-0.14274,-0.175,-8.4175,-11.025
851,9388680,0.990884,0.12334200000000001,-0.12053599999999999,0.665,-11.97,-12.39
852,9388778,0.9900300999999999,0.142496,-0.10540799999999999,2.2225,-12.6525,-9.975
853,9388876,0.9439139999999999,0.140178,-0.07978801,5.18,-15.68,-9.205
854,9388974,0.883158,0.146278,-0.044652,9.24,-21.0,-10.2375
855,9389072,0.8672979999999999,0.147498,-0.02562,13.545,-22.855,-10.255
856,9389170,0.8364321,0.160186,-0.043676,16.4675,-18.55,-9.415
857,9389267,0.795928,0.163236,-0.055265999999999996,18.9175,-14.4025,-6.3175
858,9389365,0.7245581,0.161162,-0.06112201,22.3475,-12.7925,-3.85
859,9389463,0.659776,0.14798599999999998,-0.063928,25.935,-9.975,-0.98
860,9389561,0.633912,0.112606,-0.06405001,30.24,-4.7425,1.2075
861,9389659,0.6586781,0.08052000000000001,-0.10187,32.1825,2.52,3.185
862,9389757,0.656482,0.05368,-0.160918,32.97,10.2025,5.11
863,9389855,0.692716,0.045262000000000004,-0.211304,31.465,9.6775,6.23
864,9389953,0.7564001,0.040992,-0.227042,27.615,7.84,5.8975
865,9390051,0.817034,0.034892,-0.20264200000000002,23.065,8.855,4.2
866,9390149,0.9082899999999999,0.016347999999999998,-0.15128,16.7825,11.2875,0.9275
867,9390247,1.028216,-0.01342,-0.096624,9.065,13.1775,-2.9925
868,9390344,1.156682,-0.045262000000000004,-0.041968,2.3975,13.86,-7.805
869,9390442,1.2785600000000001,-0.03477,0.01647,-3.115,13.09,-14.455
870,9390540,1.3589579999999999,0.018788,0.04819,-4.935,11.4625,-21.945
871,9390638,1.3832360000000001,0.11345999999999999,-0.11333800000000001,-2.835,9.5725,-29.75
872,9390736,1.37372,0.20252,-0.188978,-1.9075,9.275,-35.8225
873,9390834,1.3773799999999998,0.228506,-0.119316,0.8575,9.9575,-40.005
874,9390932,1.380308,0.211304,-0.043066,6.3875,8.645,-42.49
875,9391030,1.3299219999999998,0.19642,-0.054167999999999994,10.01,-0.4025,-45.045
876,9391128,1.2435459999999998,0.196786,-0.101138,6.1425,-13.23,-46.8825
877,9391226,1.16449,0.167628,-0.158966,2.975,-19.5825,-46.8125
878,9391323,1.104954,0.175924,-0.257176,1.4175,-16.24,-44.2925
879,9391421,1.045784,0.193248,-0.39771999999999996,-1.715,-9.135,-40.145
880,9391519,0.9894200000000001,0.11760799999999999,-0.47787399999999997,-3.78,-5.7225,-35.7
881,9391617,0.9882001,0.028792,-0.409554,-4.2,-5.775,-31.2025
882,9391715,1.0168700000000002,-0.054046000000000004,-0.34404,-4.4975,-2.275,-28.525
883,9391813,1.04493,-0.10065,-0.36539,-5.915,2.6075,-29.4175
884,9391911,1.02175,-0.023668,-0.42285200000000006,-10.7625,3.99,-33.3725
885,9392009,0.9331780000000001,0.070516,-0.482876,-9.9225,2.3975,-38.2025
886,9392107,0.819108,0.14164200000000002,-0.5039819999999999,-0.385,0.35,-42.1925
887,9392205,0.7700640999999999,0.16909200000000002,-0.458354,13.055,0.9975,-45.78
888,9392303,0.7628659999999999,0.162504,-0.401136,22.26,7.0,-47.845
889,9392400,0.8076399999999999,0.130662,-0.34404,25.445,13.0375,-48.58
890,9392498,0.883158,0.10492,-0.30073,24.5175,15.4875,-47.145
891,9392596,0.984906,0.071248,-0.279502,21.0875,14.5775,-43.8725
892,9392694,1.087996,0.014396,-0.257054,16.38,14.28,-39.0425
893,9392792,1.1834,-0.05563200000000001,-0.24131599999999997,9.835,15.2075,-31.3425
894,9392890,1.261846,-0.10430999999999999,-0.229116,3.3425,15.645,-22.155
895,9392988,1.279292,-0.11138599999999999,-0.231434,-2.1,12.565,-9.94
896,9393086,1.218292,-0.105896,-0.22875,-4.9175,5.0925,2.6425
897,9393184,1.104588,-0.091988,-0.199226,-6.9475,-3.9025,11.025
898,9393282,0.9642879999999999,-0.056729999999999996,-0.176046,-11.0425,-9.765,15.4175
899,9393379,0.843508,-0.031964,-0.164944,-13.4575,-10.7975,15.8025
900,9393477,0.7849480999999999,0.017324000000000003,-0.177144,-15.7325,-9.2925,12.4075
901,9393575,0.744688,0.06575800000000001,-0.19947,-17.15,-8.9075,11.9525
902,9393673,0.720776,0.09455001,-0.182756,-16.4675,-10.045,10.1675
903,9393771,0.7139439999999999,0.130296,-0.166774,-19.1975,-10.5,8.8725
904,9393869,0.716384,0.1342,-0.155428,-20.65,-9.6425,9.73
905,9393967,0.7592061,0.125782,-0.15372,-21.7875,-7.175,8.8725
906,9394065,0.803248,0.107848,-0.148352,-21.5075,-4.9175,10.9375
907,9394163,0.8520479999999999,0.08003201,-0.14383800000000002,-20.6675,-4.3925,10.99
908,9394261,0.8910879999999999,0.060877999999999995,-0.137982,-20.965,-5.425,10.185
909,9394358,0.9236620999999999,0.032208,-0.11102000000000001,-19.18,-8.015,8.82
910,9394456,0.934154,0.022082,-0.09186601,-19.565,-11.62,8.925
911,9394554,0.9357401,0.0122,-0.059658,-18.935,-14.1225,7.4725
912,9394652,0.9241501,0.031598,-0.051118000000000004,-20.615,-16.275,7.0
913,9394750,0.918782,0.03904,-0.032451999999999995,-21.1925,-18.13,7.49
914,9394848,0.9079241,0.064294,-0.018788,-22.54,-19.5125,7.735
915,9394946,0.883768,0.08235001,-0.007442,-24.745,-21.5075,7.945
916,9395044,0.853756,0.09345201,0.008540001,-25.55,-23.275,6.8775
917,9395142,0.8250860000000001,0.10638399999999999,0.015738,-27.16,-24.0275,4.6375
918,9395240,0.793366,0.10943399999999999,0.021472,-27.65,-23.415,2.135
919,9395337,0.762134,0.11053199999999999,0.008052001,-29.155,-21.8225,-0.7175
920,9395435,0.7422481,0.09942999999999999,-0.027938,-30.345,-19.355,-3.57
921,9395533,0.7435901,0.07881200000000001,-0.07991000000000001,-31.325,-15.295,-6.8425
922,9395631,0.7610359999999999,0.061854,-0.156648,-31.43,-9.38,-9.8175
923,9395729,0.8042239999999999,0.058803999999999995,-0.23741199999999998,-28.56,-1.61,-12.0225
924,9395827,0.856074,0.10809200000000001,-0.305,-24.9375,3.745,-12.6875
925,9395925,0.9015799999999999,0.178974,-0.290238,-19.145,2.975,-12.8625
926,9396023,0.9673379999999999,0.29292199999999996,-0.191662,-10.3075,-1.575,-12.32
927,9396121,1.042002,0.41272600000000004,-0.048434,0.2625,-3.3075,-10.5175
928,9396219,1.133014,0.43188000000000004,0.0732,12.9325,1.4175,-8.2075
929,9396317,1.20048,0.342942,-0.040260000000000004,21.5075,9.8525,-4.3225
930,9396414,1.26819,0.154818,-0.205448,27.09,17.92,-0.8400001
931,9396512,1.3699379999999999,0.06795401,-0.12041400000000001,21.9975,19.075,2.6425
932,9396610,1.515362,0.045872,0.001952,7.6825,16.415,6.16
933,9396708,1.580388,0.049044,-0.013297999999999999,-6.3175,8.3125,10.8325
934,9396806,1.482056,0.070516,-0.051972000000000004,-11.6725,-11.5675,15.3125
935,9396904,1.308084,0.10906800000000001,-0.077958,-2.3625,-26.11,16.73
936,9397002,1.1733959999999999,0.128588,-0.190686,6.7375,-19.3725,15.785
937,9397100,1.107882,0.07137001,-0.328912,9.0475,-2.5375,14.63
938,9397198,1.051396,0.04331,-0.49288000000000004,9.5375,6.265,15.33
939,9397296,0.9801479999999999,0.085522,-0.51789,9.73,0.1925,18.41
940,9397393,0.9297620999999999,0.158722,-0.43212399999999995,5.425,-10.675,20.1775
941,9397491,0.9240280000000001,0.14786400000000002,-0.386252,7.5425,-14.035,20.5975
942,9397589,0.9563581,0.102114,-0.393694,10.08,-9.2225,24.5175
943,9397687,0.981978,0.029158,-0.425292,8.0325,-1.785,30.5025
944,9397785,0.9990581000000001,-0.07393200000000001,-0.431148,3.115,2.9225,36.47
945,9397883,0.9989360999999999,-0.10321199999999998,-0.4553041,-7.84,4.3225,41.3
946,9397981,1.00284,-0.06527000000000001,-0.436638,-18.025,1.925,44.03
947,9398079,1.01565,-0.031964,-0.377956,-19.8975,-1.295,45.605
948,9398177,1.0377319999999999,0.011346,-0.35538600000000004,-16.5375,-3.3425,44.9225
949,9398275,1.052738,0.080764,-0.350628,-12.88,-4.0425,41.5625
950,9398372,1.066036,0.15176800000000001,-0.34038,-9.4325,-4.235,34.9825
951,9398470,1.0723799999999999,0.208742,-0.334646,-7.5425,-4.2175,27.58
952,9398568,1.063108,0.223504,-0.305976,-4.5325,-5.3025,18.095
953,9398666,1.026752,0.22996999999999998,-0.275476,-2.6775,-10.9375,6.1075
954,9398764,0.9433041,0.228506,-0.247416,-1.12,-20.195,-4.06
955,9398862,0.847046,0.21276799999999998,-0.21862399999999999,1.61,-27.5625,-11.0425
956,9398960,0.746152,0.208986,-0.207156,3.57,-26.88,-14.035
957,9399058,0.703086,0.20410599999999998,-0.21166999999999997,6.1775,-20.1775,-14.8225
958,9399156,0.6960101,0.177754,-0.212036,10.815,-13.51,-12.6175
959,9399254,0.7088201,0.145912,-0.21581799999999998,15.505,-10.745,-13.09
960,9399352,0.721996,0.131638,-0.208254,19.0225,-12.7925,-13.2125
961,9399449,0.7388319999999999,0.112972,-0.185806,23.5025,-15.085,-13.475
962,9399547,0.7631101,0.097722,-0.164944,28.9975,-14.28,-15.085
963,9399645,0.794708,0.09211,-0.160552,31.57,-12.075,-16.3625
964,9399743,0.812276,0.07393200000000001,-0.154696,33.985,-11.0075,-16.66
965,9399841,0.8494860999999999,0.07002799999999999,-0.145546,35.35,-12.495,-19.25
966,9399939,0.8810841,0.07808001,-0.1159,35.14,-15.8375,-20.405
967,9400037,0.8794981,0.08784,-0.0976,34.965,-19.1275,-20.3
968,9400135,0.8845,0.08820599999999999,-0.061,35.525,-22.2075,-20.9475
969,9400233,0.868152,0.089914,-0.04087,35.0175,-23.2225,-19.3025
970,9400330,0.8851100000000001,0.08527801,-0.007686,35.6125,-22.68,-16.7475
971,9400428,0.8580260000000001,0.082838,0.01525,36.575,-21.595,-12.495
972,9400526,0.8602221,0.07173600000000001,0.033306,38.92,-21.385,-10.1675
973,9400624,0.81618,0.080764,0.011712,40.4425,-19.0575,-5.705
974,9400722,0.7686,0.08466801,-0.010614,42.525,-18.0775,-1.47
975,9400820,0.7361481,0.082716,-0.03416,44.7825,-18.13,1.8375
976,9400918,0.71126,0.06283,-0.060512,47.005,-16.3275,5.81
977,9401016,0.7227279999999999,0.032574,-0.08881599,48.7725,-12.1275,8.8725
978,9401114,0.7401741,0.007076001,-0.110898,48.9475,-6.9825,11.585
979,9401212,0.7732359999999999,-0.011712,-0.136518,47.565,-3.29,11.865
980,9401309,0.8044680999999999,-0.015006,-0.16897,44.6075,-1.3825,10.465
981,9401407,0.8508280999999999,-0.023668,-0.20313,38.745,-1.3125,6.615
982,9401505,0.930372,-0.049776,-0.168848,31.4825,-1.9775,-0.0525
983,9401603,1.036756,-0.08308201,-0.09211,25.13,-1.575,-8.4875
984,9401701,1.137528,-0.10492,-0.01403,19.215,-0.9975,-16.3625
985,9401799,1.1897440000000001,-0.097478,0.051484,13.4925,-2.6075,-21.8925
986,9401897,1.2160959999999998,-0.046726,-0.046604,9.8875,-5.6875,-24.675
987,9401995,1.235738,0.050263999999999996,-0.205204,8.05,-5.145,-26.1275
988,9402093,1.291492,0.09162200000000001,-0.190808,5.6,1.1725,-28.8925
989,9402191,1.428742,0.004148001,-0.13542,13.545,12.8975,-32.55
990,9402289,1.49633,-0.10553,-0.177144,20.615,15.855,-38.7975
991,9402386,1.4093440000000002,-0.17214200000000002,-0.21972199999999997,12.985,-3.675,-45.43
992,9402484,1.259772,-0.108946,-0.30341399999999996,-7.0,-28.1925,-49.91
993,9402582,1.15534,-0.014762,-0.492514,-21.945,-25.515,-52.01
994,9402680,1.067866,0.014762,-0.7018661,-29.0325,-0.9975,-51.45
995,9402778,1.060424,-0.05209400000000001,-0.626104,-35.63,9.38,-48.5275
996,9402876,1.0309,-0.169336,-0.394914,-32.0775,0.91,-44.415
997,9402974,0.9825879999999999,-0.159332,-0.335744,-34.09,-9.625,-43.785
998,9403072,0.9153661,0.032451999999999995,-0.467016,-45.4125,-8.1025,-46.6025
999,9403170,0.8364321,0.21411,-0.53009,-46.2,1.89,-50.61
1000,9403268,0.794952,0.296704,-0.48116800000000004,-31.5,13.72,-52.7275
1001,9403365,0.836676,0.333426,-0.42773199999999995,-15.435,21.91,-53.2
1002,9403463,0.9113399999999999,0.34648,-0.394914,-6.09,22.5925,-51.765
1003,9403561,1.017358,0.33610999999999996,-0.360754,-4.1475,18.62,-46.515
1004,9403659,1.135332,0.262666,-0.34416199999999997,-4.0775,18.095,-37.17
1005,9403757,1.25538,0.11955999999999999,-0.324642,-3.8325,21.665,-26.6175
1006,9403855,1.3443180000000001,-0.039528,-0.30439,-5.915,21.9975,-17.2725
1007,9403953,1.369816,-0.168238,-0.27755,-10.745,14.7,-8.05
1008,9404051,1.2913700000000001,-0.22630999999999998,-0.25656599999999996,-17.0625,1.8725,2.7475
1009,9404149,1.117154,-0.231922,-0.23424,-21.98,-10.01,14.07
1010,9404247,0.9437921,-0.199714,-0.213378,-27.1775,-15.12,21.4375
1011,9404345,0.7812880999999999,-0.160308,-0.204716,-34.3875,-14.0525,26.0575
1012,9404443,0.690398,-0.118828,-0.184952,-40.005,-9.9225,25.9
1013,9404540,0.663558,-0.046360000000000005,-0.17446,-46.0075,-4.375,23.9225
1014,9404638,0.6533100000000001,0.015982,-0.182146,-49.9625,-0.07,23.0475
1015,9404736,0.647332,0.06490399999999999,-0.18056,-52.78,1.8375,22.8725
1016,9404834,0.6572140999999999,0.10553,-0.173362,-56.1925,3.7275,22.2425
1017,9404932,0.6855180000000001,0.12444000000000001,-0.171776,-58.4325,6.6325,21.98
1018,9405030,0.7320001,0.132004,-0.18068199999999998,-59.0275,8.8375,20.755
1019,9405128,0.7821421,0.132614,-0.187148,-58.2925,8.12,18.9525
1020,9405226,0.8261841000000001,0.12456199999999999,-0.178608,-56.2625,3.7275,18.13
1021,9405324,0.8555860999999999,0.106262,-0.155306,-54.5475,-2.4325,17.99
1022,9405422,0.883768,0.07808001,-0.10504200000000001,-51.905,-8.6625,14.455
1023,9405520,0.8876719999999999,0.07515201,-0.081496,-51.205,-12.88,9.765
1024,9405617,0.8982860999999999,0.07710399999999999,-0.052703999999999994,-49.6475,-15.3125,7.1925
1025,9405715,0.8897459999999999,0.094062,-0.03599,-48.8075,-16.625,4.7425
1026,9405813,0.8760819999999999,0.119804,-0.024034,-48.3875,-18.9525,3.885
1027,9405911,0.8596120999999999,0.14347200000000002,-0.015372,-47.005,-20.72,3.08
1028,9406009,0.838018,0.16958,-0.014884,-45.4825,-21.7175,4.2875
1029,9406107,0.809348,0.17812,-0.0122,-43.2425,-21.945,4.095
1030,9406205,0.784582,0.185196,-0.00671,-42.0,-22.2425,2.66
1031,9406303,0.771894,0.186782,-0.005612,-41.2125,-21.49,0.315
1032,9406401,0.765062,0.185074,-0.016836,-40.635,-19.0925,-2.975
1033,9406499,0.767624,0.173484,-0.035013999999999997,-39.9875,-16.03,-6.93
1034,9406597,0.793976,0.147498,-0.046848,-38.115,-12.2675,-11.2875
1035,9406694,0.8399700000000001,0.11431400000000001,-0.079666,-35.9975,-6.7025,-15.085
1036,9406792,0.89426,0.09625801,-0.136518,-32.9175,0.35,-17.43
1037,9406890,0.9500139999999999,0.1464,-0.254858,-29.3125,4.48,-18.13
1038,9406988,0.9901521000000001,0.217404,-0.312198,-22.2425,0.7,-17.395
1039,9407086,1.012234,0.266204,-0.225456,-11.76,-10.8325,-15.0675
1040,9407184,1.0432219999999999,0.331474,-0.063318,-1.5925,-17.7275,-12.32
1041,9407282,1.088362,0.37417399999999995,0.081252,4.9,-11.34,-10.5175
1042,9407380,1.1356979999999999,0.323666,0.09394001,12.145,-0.3325,-8.8725
1043,9407478,1.203286,0.21093800000000001,-0.145302,18.48,8.505,-6.4225
1044,9407575,1.292834,0.108946,-0.139934,20.9825,14.49,-1.4175
1045,9407673,1.451678,0.101748,-0.02745,11.865,14.91,4.795
1046,9407771,1.601982,0.130296,-0.025986000000000002,-0.9275,13.8775,11.795
1047,9407869,1.582706,0.170312,-0.069784,-6.16,6.8775,20.825
1048,9407967,1.463634,0.20556999999999997,-0.087962,1.26,-4.27,27.7375
1049,9408065,1.3321180000000001,0.221308,-0.143594,12.53,-6.4225,30.3625
1050,9408163,1.19926,0.119316,-0.274012,21.2975,-1.6275,31.01
1051,9408261,1.11447,-0.01403,-0.47860600000000003,25.8475,1.6975,30.8525
1052,9408359,1.009794,-0.05587601,-0.5388741,22.925,-2.695,30.94
1053,9408457,0.9021899999999999,0.0034159999999999998,-0.44676400000000005,15.33,-14.175,29.9075
1054,9408555,0.8480221,0.029768,-0.390522,11.165,-20.51,25.3225
1055,9408653,0.8407021000000001,0.025742,-0.43627200000000005,9.1525,-17.745,23.2575
1056,9408750,0.8206940999999999,-0.000732,-0.480558,7.56,-12.53,25.5325
1057,9408848,0.8211821,-0.027327999999999998,-0.4743361,4.445,-8.89,28.3675
1058,9408946,0.8548540000000001,-0.006832001,-0.45713400000000004,-3.465,-4.0775,29.6625
1059,9409044,0.9145120999999999,0.060024,-0.430782,-10.3075,-0.035,30.3975
1060,9409142,0.986614,0.12566,-0.384178,-9.975,2.1,31.0625
1061,9409240,1.058838,0.177754,-0.35624,-4.2875,1.54,32.165
1062,9409338,1.106906,0.21606199999999998,-0.33305999999999997,3.045,-0.875,31.85
1063,9409436,1.1070280000000001,0.24461,-0.318786,7.6825,-3.9375,28.56
1064,9409534,1.084702,0.25315,-0.298656,11.095,-5.075,21.8225
1065,9409632,1.06445,0.24570799999999998,-0.272914,14.595,-3.0275,11.1125
1066,9409730,1.025166,0.231068,-0.24790399999999999,17.64,-4.69,-1.6625
1067,9409828,0.9476959999999999,0.200568,-0.217282,20.9125,-13.51,-12.6175
1068,9409925,0.853146,0.182024,-0.193614,23.2925,-21.63,-20.58
1069,9410023,0.755424,0.18605,-0.18605,24.08,-22.6275,-23.1525
1070,9410121,0.7200439999999999,0.180072,-0.173362,27.2125,-17.6575,-23.555
1071,9410219,0.72102,0.156282,-0.177998,31.185,-10.955,-22.8375
1072,9410317,0.7539600000000001,0.126392,-0.18422,35.42,-7.2625,-23.905
1073,9410415,0.7687221,0.11041,-0.17848599999999998,37.625,-6.8425,-22.715
1074,9410513,0.7832399999999999,0.079056,-0.14701,42.3325,-8.155,-21.91
1075,9410611,0.822768,0.055998,-0.11943800000000002,45.535,-9.6075,-23.9575
1076,9410709,0.8410681000000001,0.032330000000000005,-0.119804,45.885,-10.2025,-22.645
1077,9410807,0.8841341,0.007808001,-0.11102000000000001,46.375,-11.7775,-23.905
1078,9410905,0.9092661,0.009637999999999999,-0.104066,43.6625,-15.3825,-23.555
1079,9411003,0.9046301,0.012688,-0.081862,42.2625,-19.495,-21.175
1080,9411100,0.8943821,0.025376,-0.05160601,40.0225,-21.9625,-19.2325
1081,9411198,0.8699821,0.047945999999999996,-0.035868000000000004,37.1525,-21.5425,-15.995
1082,9411296,0.8555860999999999,0.05917000000000001,-0.00549,36.75,-20.825,-12.8275
1083,9411394,0.8602221,0.082716,0.014884,36.9075,-20.02,-10.8325
1084,9411492,0.862174,0.090036,0.035624,38.6575,-18.5675,-6.6675
1085,9411590,0.8332601000000001,0.08808401,0.042334,41.6675,-18.5675,-3.6225
1086,9411688,0.7929999999999999,0.08893801,0.0244,44.1175,-18.9875,-1.435
1087,9411786,0.760914,0.089426,0.011834,46.0775,-18.2525,0.6475
1088,9411884,0.703818,0.079178,-0.001586,47.075,-16.4325,3.71
1089,9411982,0.6902761,0.056974000000000004,-0.023424,48.2125,-13.5975,5.6525
1090,9412080,0.696376,0.025254,-0.055265999999999996,48.3875,-7.1575,7.8925
1091,9412178,0.7376119999999999,0.0035380000000000003,-0.09589201,47.46,-0.525,9.6775
1092,9412275,0.776408,-0.00793,-0.154452,44.3275,4.7075,10.535
1093,9412373,0.8178880999999999,-0.011101999999999999,-0.21618400000000002,39.9,4.9175,9.45
1094,9412471,0.8758381,-0.00366,-0.229238,33.1975,1.68,5.8975
1095,9412569,0.9764879999999999,-0.004026,-0.1647,25.3225,0.7,-0.77
1096,9412667,1.097024,-0.039772,-0.06490399999999999,18.55,3.0975,-9.7475
1097,9412765,1.2189020000000002,-0.078202,0.038064,11.5325,3.045,-18.9875
1098,9412863,1.2968600000000001,-0.067832,0.11345999999999999,1.645,-1.8375,-27.09
1099,9412961,1.306864,-0.0051240009999999996,0.14762,-6.5625,-8.1025,-33.3375
1100,9413059,1.30113,0.063928,-0.096014,-7.805,-10.8675,-37.24
1101,9413157,1.3174780000000001,0.135908,-0.21228000000000002,-6.7725,-7.945,-39.165
1102,9413255,1.387628,0.164456,-0.136518,-6.0025,-0.42,-41.7375
1103,9413352,1.49938,0.100284,-0.07356601,1.1375,8.295,-45.64
1104,9413450,1.508774,-0.00793,-0.113704,9.1,2.555,-48.9825
1105,9413548,1.35481,-0.041236,-0.171044,3.57,-21.07,-49.9625
1106,9413646,1.19072,0.061854,-0.28243,-11.3925,-37.9575,-47.7575
1107,9413744,1.089826,0.146278,-0.48653599999999997,-16.8875,-26.1275,-45.7975
1108,9413842,0.9971059999999999,0.12932000000000002,-0.624396,-14.1925,-7.6825,-42.2275
1109,9413940,0.9265901,0.047580000000000004,-0.596214,-12.0575,-6.755,-38.2375
1110,9414038,0.8797421000000001,-0.067344,-0.472384,-10.745,-12.3725,-34.86
1111,9414136,0.8758381,-0.18043800000000002,-0.384178,-9.415,-13.895,-34.965
1112,9414234,0.830332,-0.116754,-0.442982,-16.7825,-10.43,-39.795
1113,9414331,0.7391979999999999,0.029768,-0.49312399999999995,-23.8,-5.985,-46.2875
1114,9414429,0.670268,0.122366,-0.45725600000000005,-17.71,-0.0175,-51.6075
1115,9414527,0.671244,0.168726,-0.415288,-8.0675,9.0825,-54.915
1116,9414625,0.7366361,0.186782,-0.379664,-0.175,17.8675,-56.4725
1117,9414723,0.840458,0.198128,-0.34953,1.96,21.7175,-55.0725
1118,9414821,0.9860040999999999,0.177266,-0.311222,1.33,22.89,-50.2425
1119,9414919,1.15229,0.11760799999999999,-0.280478,-1.1375,26.7225,-41.8075
1120,9415017,1.317356,0.039894,-0.2684,-3.7975,29.6625,-31.01
1121,9415115,1.458754,-0.043188,-0.258274,-6.2125,27.125,-20.3525
1122,9415213,1.495598,-0.108458,-0.24558600000000003,-9.3975,17.5875,-9.1875
1123,9415311,1.358226,-0.132004,-0.23363,-13.44,1.33,4.3575
1124,9415408,1.1333799999999998,-0.11285,-0.21313400000000002,-17.6925,-15.5575,16.59
1125,9415506,0.9228081,-0.09442801,-0.196908,-22.0675,-23.87,23.5725
1126,9415604,0.767624,-0.080398,-0.170678,-25.935,-22.9075,23.6775
1127,9415702,0.680516,-0.054046000000000004,-0.150426,-31.3425,-17.15,21.35
1128,9415800,0.660752,-0.015372,-0.148596,-35.8225,-9.8875,18.76
1129,9415898,0.664046,0.02928,-0.150426,-39.7775,-4.62,17.5
1130,9415996,0.6646561,0.057339999999999995,-0.138226,-42.805,-2.835,16.9575
1131,9416094,0.715408,0.08503401,-0.12017,-45.7625,-1.3825,16.0475
1132,9416192,0.764696,0.10919000000000001,-0.12358599999999999,-50.12,3.1675,19.4425
1133,9416290,0.834968,0.108946,-0.123098,-49.7525,7.49,19.8975
1134,9416388,0.9009700999999999,0.119926,-0.12041400000000001,-49.525,7.035,18.655
1135,9416485,0.937448,0.11712,-0.115656,-47.915,1.435,20.5275
1136,9416583,0.964776,0.08759601,-0.101748,-44.275,-5.9325,19.0925
1137,9416681,0.9635560999999999,0.078446,-0.089426,-43.0675,-13.93,15.645
1138,9416779,0.9439139999999999,0.06344,-0.050386,-42.035,-20.2125,13.6675
1139,9416877,0.9235399999999999,0.049532,-0.016104,-42.14,-23.9575,10.92
1140,9416975,0.8936501,0.040504000000000005,0.019032,-42.7875,-28.14,8.4525
1141,9417073,0.8713241,0.0366,0.036112,-43.925,-32.13,8.5225
1142,9417171,0.850096,0.043554,0.036844,-45.36,-33.04,8.26
1143,9417269,0.815326,0.056608000000000006,0.040992,-47.495,-31.395,7.595
1144,9417367,0.774212,0.070882,0.048556,-49.7,-28.56,6.615
1145,9417465,0.742858,0.08625401,0.050752,-52.6575,-24.3425,6.37
1146,9417562,0.714554,0.09650201,0.040626,-55.0025,-19.005,4.76
1147,9417660,0.6939361,0.10504200000000001,0.004758,-57.7675,-14.385,2.415
1148,9417758,0.69906,0.076738,-0.065514,-59.0975,-11.1475,-0.4725
1149,9417856,0.748592,0.062586,-0.17507,-57.4,-8.085,-2.8875
1150,9417954,0.8103239999999999,0.148108,-0.300608,-53.8475,-4.06,-3.8325
1151,9418052,0.8605879999999999,0.256932,-0.34648,-46.3225,-0.945,-5.0225
1152,9418150,0.9029221,0.337208,-0.249612,-31.78,-1.75,-6.755
1153,9418248,0.961482,0.4331,-0.06649,-14.8925,-4.445,-8.26
1154,9418346,1.056276,0.50874,0.067222,0.98,-3.15,-10.535
1155,9418444,1.172908,0.447618,0.156282,17.185,1.9425,-10.3775
1156,9418542,1.268556,0.328302,-0.015982,25.3575,5.4425,-7.8575
1157,9418640,1.359934,0.135908,-0.2379,23.1175,7.56,-3.0625
1158,9418737,1.483886,0.067344,-0.122732,13.4575,4.795,3.0625
1159,9418835,1.71593,0.061,0.044164,-2.4675,0.7,10.2375
1160,9418933,1.7244700000000002,0.098088,0.003172,-17.745,1.925,19.95
1161,9419031,1.491328,0.16775,-0.135664,-16.03,-7.0525,27.65
1162,9419129,1.288808,0.14152,-0.22204000000000002,5.5475,-18.935,29.26
1163,9419227,1.195234,-0.01891,-0.376614,16.9225,-9.415,28.91
1164,9419325,1.128744,-0.038308,-0.613538,8.8375,11.1475,28.35
1165,9419423,1.0858,0.06490399999999999,-0.693204,-0.4025,9.1,31.78
1166,9419521,0.999302,0.214964,-0.5363121,-3.2375,-13.6325,36.6975
1167,9419619,0.8692501,0.242414,-0.41150600000000004,-0.175,-32.8125,37.0475
1168,9419717,0.8052,0.12505,-0.396622,11.585,-31.2025,37.345
1169,9419815,0.8165460999999999,0.032451999999999995,-0.43724799999999997,8.295,-10.8675,38.99
1170,9419913,0.8344801,-0.051118000000000004,-0.457012,-1.96,5.5125,40.7925
1171,9420010,0.8519260000000001,-0.085522,-0.46481999999999996,-12.0225,10.9725,41.1775
1172,9420108,0.8916980999999999,-0.054778,-0.44956999999999997,-21.945,7.175,39.3925
1173,9420206,0.9469641,-0.03965,-0.401258,-20.51,-0.8225,36.6975
1174,9420304,1.0086959999999998,0.024278,-0.35014,-15.925,-2.87,32.4975
1175,9420402,1.07787,0.134322,-0.323056,-12.285,3.2025,26.6
1176,9420500,1.137528,0.221308,-0.321104,-7.07,10.3775,20.3875
1177,9420598,1.172176,0.292068,-0.328546,-4.025,10.955,13.475
1178,9420696,1.163392,0.33794,-0.311344,-0.28,4.095,5.635
1179,9420794,1.068964,0.327692,-0.274256,6.055,-6.02,-3.255
1180,9420892,0.9409860999999999,0.282186,-0.22753,14.1925,-16.1175,-11.8825
1181,9420990,0.8045899999999999,0.24631799999999998,-0.196298,19.495,-22.19,-16.5025
1182,9421088,0.7076001000000001,0.22935999999999998,-0.188612,22.575,-22.3125,-17.8325
1183,9421185,0.673562,0.215086,-0.180804,24.9375,-17.9725,-16.975
1184,9421283,0.6855180000000001,0.183488,-0.1891,28.7175,-11.2875,-15.085
1185,9421381,0.7047939999999999,0.14579,-0.185928,33.88,-6.755,-15.225
1186,9421479,0.712846,0.10553,-0.179828,38.325,-6.125,-16.135
1187,9421577,0.724924,0.07307801,-0.143228,44.3275,-5.5475,-16.695
1188,9421675,0.759938,0.050874,-0.132004,47.425,-2.73,-18.165
1189,9421773,0.8141060999999999,0.038674,-0.132858,48.965,1.015,-20.37
1190,9421871,0.861442,0.045627999999999995,-0.12932000000000002,48.02,1.085,-22.015
1191,9421969,0.9051181,0.071248,-0.121024,47.425,-6.6675,-24.08
1192,9422067,0.9208561,0.079178,-0.10187,48.37,-15.155,-23.975
1193,9422165,0.8887700000000001,0.09589201,-0.074054,49.7525,-21.07,-20.895
1194,9422263,0.868884,0.092964,-0.034648000000000005,50.1375,-24.9025,-18.725
1195,9422360,0.861442,0.081496,0.008296000999999999,51.275,-25.445,-18.27
1196,9422458,0.8574161,0.07137001,0.026718000000000002,51.6775,-23.8175,-14.42
1197,9422556,0.840824,0.064782,0.018788,52.955,-23.415,-10.5
1198,9422654,0.8261841000000001,0.06649,-0.006832001,54.95,-24.185,-8.1725
1199,9422752,0.7937320999999999,0.066978,-0.045872,56.9625,-24.7975,-4.725
1200,9422850,0.748714,0.057584,-0.05941401,59.2375,-25.515,-1.4525
1201,9422948,0.71248,0.040382,-0.07600599999999999,61.3025,-25.795,1.8375
1202,9423046,0.6822239999999999,0.010492,-0.08771799999999999,62.93,-24.4825,4.865
1203,9423144,0.675758,-0.01708,-0.09320801,61.775,-20.58,6.965
1204,9423242,0.68137,-0.035746,-0.110898,57.82,-14.1575,7.9975
1205,9423339,0.697962,-0.05429,-0.148352,52.535,-8.8025,7.5075
1206,9423437,0.750788,-0.074054,-0.164822,46.76,-4.6025,5.1275
1207,9423535,0.844972,-0.089792,-0.153842,39.445,0.0,0.35
1208,9423633,0.9585541,-0.104432,-0.105774,30.7125,4.2525,-6.4925
1209,9423731,1.092144,-0.11870599999999999,-0.015493999999999999,22.6625,7.1925,-15.05
1210,9423829,1.217438,-0.09223200000000001,0.07747001,15.1725,8.68,-23.59
1211,9423927,1.306742,-0.013175999999999998,0.151524,8.9425,7.8225,-30.975
1212,9424025,1.354932,0.061366,-0.016104,7.6475,5.075,-36.26
1213,9424123,1.36579,0.131028,-0.15433,8.3125,3.43,-40.04
1214,9424221,1.4125159999999999,0.15396400000000002,-0.142252,7.8225,4.48,-43.365
1215,9424318,1.4934020000000001,0.060512,-0.10943399999999999,14.385,9.765,-46.8825
1216,9424416,1.49938,-0.069662,-0.116876,20.055,9.065,-50.75
1217,9424514,1.362862,-0.10248,-0.131882,11.55,-5.39,-54.3725
1218,9424612,1.17486,-0.100162,-0.252296,-4.025,-25.375,-55.755
1219,9424710,1.065426,-0.012688,-0.472262,-17.7975,-29.0675,-56.77
1220,9424808,1.015284,0.040260000000000004,-0.5975560000000001,-29.855,-12.11,-57.3825
1221,9424906,0.9840521000000001,0.010858,-0.508618,-27.0375,0.6825,-55.7725
1222,9425004,0.9114620000000001,-0.00793,-0.40357600000000005,-25.8125,-2.31,-52.0625
1223,9425102,0.8571719999999999,0.031842,-0.443958,-27.65,-7.2625,-51.415
1224,9425200,0.8582700999999999,0.106262,-0.505934,-28.7,-4.6025,-55.8775
1225,9425297,0.856196,0.204594,-0.5663239999999999,-27.5975,3.9725,-61.5125
1226,9425395,0.8540000000000001,0.26718000000000003,-0.5203300000000001,-18.2175,13.86,-66.01
1227,9425493,0.901702,0.298412,-0.446032,-6.6325,20.825,-68.285
1228,9425591,0.9978379999999999,0.31293000000000004,-0.38661799999999996,0.63,22.785,-66.8325
1229,9425689,1.119472,0.270596,-0.35392199999999996,4.97,20.02,-60.83
1230,9425787,1.234518,0.182756,-0.32574000000000003,5.4425,16.415,-50.715
1231,9425885,1.334802,0.07198,-0.292556,4.34,13.9475,-38.815
1232,9425983,1.425814,-0.05856,-0.276574,1.89,10.5175,-25.48
1233,9426081,1.4431379999999998,-0.183732,-0.267424,-1.155,4.0425,-11.6025
1234,9426178,1.324066,-0.227652,-0.254126,-6.4575,-6.3875,2.8525
1235,9426276,1.125694,-0.214354,-0.22643200000000002,-13.055,-16.905,15.6625
1236,9426374,0.9298841,-0.18849000000000002,-0.18775799999999998,-20.2125,-22.54,24.99
1237,9426472,0.7598161,-0.154696,-0.156892,-28.4025,-22.19,29.7325
1238,9426570,0.671488,-0.11431400000000001,-0.126026,-35.0,-17.7975,29.295
1239,9426668,0.656726,-0.05563200000000001,-0.122244,-41.685,-10.36,27.0375
1240,9426766,0.664778,-0.006222,-0.11724200000000001,-46.4275,-3.4825,25.2525
1241,9426864,0.679906,0.040260000000000004,-0.126026,-51.625,0.0175,24.1325
1242,9426962,0.708332,0.071858,-0.131638,-55.4925,1.1725,24.15
1243,9427060,0.7612800999999999,0.097966,-0.137372,-58.3975,2.38,24.15
1244,9427157,0.809348,0.11041,-0.133468,-59.6925,3.465,26.4075
1245,9427255,0.85888,0.11846199999999998,-0.13480999999999999,-59.36,2.24,25.48
1246,9427353,0.8874280999999999,0.09784401,-0.11760799999999999,-57.365,-3.8675,27.1075
1247,9427451,0.8965780000000001,0.07686,-0.107726,-55.5975,-12.565,23.94
1248,9427549,0.8836459999999999,0.055144000000000006,-0.07637200000000001,-54.635,-21.6125,21.9625
1249,9427647,0.8577819999999999,0.033916,-0.047824,-54.8975,-26.7225,19.1625
1250,9427745,0.845582,0.03721,-0.025376,-56.0175,-27.125,15.6625
1251,9427843,0.829234,0.050752,-0.0032939999999999996,-57.4525,-28.84,12.8275
1252,9427941,0.8052,0.0671,0.01891,-58.0825,-31.3075,11.0775
1253,9428038,0.789218,0.108702,0.025254,-58.4325,-31.115,9.5025
1254,9428136,0.760182,0.140666,0.028182,-57.82,-30.1525,9.485
1255,9428234,0.7378560000000001,0.1647,0.032330000000000005,-56.2975,-28.28,7.9275
1256,9428332,0.7165060000000001,0.194468,0.028548,-55.65,-24.605,7.2275
1257,9428430,0.7108941,0.213256,0.021716,-53.4625,-18.7775,5.5475
1258,9428528,0.71858,0.239242,-0.00793,-52.815,-12.39,3.4475
1259,9428626,0.744444,0.237656,-0.049898000000000005,-51.2225,-8.1725,0.5775
1260,9428724,0.806542,0.20788800000000002,-0.10309000000000001,-47.495,-6.3,-2.52
1261,9428822,0.8827921000000001,0.191174,-0.188368,-40.635,-3.9375,-4.9175
1262,9428919,0.948184,0.235582,-0.26657,-32.095,-1.75,-6.4225
1263,9429017,0.9775860000000001,0.285236,-0.269864,-21.91,-2.1875,-7.6475
1264,9429115,0.9969841,0.312442,-0.18483,-9.205,-6.615,-9.6075
1265,9429213,1.024678,0.367952,-0.054778,2.275,-11.2175,-11.5675
1266,9429311,1.055544,0.370758,0.079544,11.27,-11.3925,-13.37
1267,9429409,1.103856,0.282674,0.157136,16.9225,-8.3125,-13.44
1268,9429507,1.178032,0.163846,-0.09259801,15.19,-2.205,-12.4075
1269,9429605,1.296616,0.029036000000000003,-0.17519200000000001,12.7225,5.6,-7.84
1270,9429703,1.474858,0.064538,-0.086132,3.43,7.91,-1.0325
1271,9429801,1.608814,0.11504600000000001,-0.068686,-9.03,7.7,6.125
1272,9429898,1.563552,0.143716,-0.10309000000000001,-15.8025,3.71,15.75
1273,9429996,1.3638379999999999,0.21838000000000002,-0.13176,-11.69,-1.575,24.7625
1274,9430094,1.202798,0.18239,-0.269498,1.5575,-3.745,30.38
1275,9430192,1.098976,-0.020496,-0.465552,12.81,0.9975,35.6475
1276,9430290,1.05713,-0.06600201,-0.5665680000000001,8.435,3.2375,41.615
1277,9430388,0.9766101,0.05172801,-0.503372,-0.455,-6.3875,44.2575
1278,9430486,0.9107301,0.15067,-0.357338,-1.295,-18.83,43.89
1279,9430584,0.8975540000000001,0.06954,-0.36807399999999996,7.5075,-16.6425,41.405
1280,9430682,0.8888921000000001,-0.03721,-0.470188,12.355,-5.005,41.0375
1281,9430780,0.8657120999999999,-0.09162200000000001,-0.48312,3.29,1.47,42.5775
1282,9430877,0.8729100000000001,-0.058803999999999995,-0.47153,-12.95,4.1125,42.105
1283,9430975,0.94489,-0.020862000000000002,-0.46628400000000003,-21.91,8.3825,40.075
1284,9431073,1.0675,0.028548,-0.41260399999999997,-22.435,11.165,37.0825
1285,9431171,1.190232,0.09882,-0.354288,-18.7775,9.2225,32.9175
1286,9431269,1.288076,0.16689600000000002,-0.3233,-11.83,6.895,27.72
1287,9431367,1.323456,0.23546,-0.324154,-6.405,5.8625,21.2275
1288,9431465,1.291126,0.298046,-0.31463800000000003,-0.525,2.7475,12.6875
1289,9431563,1.209142,0.332572,-0.288652,5.845,-2.695,1.575
1290,9431661,1.08702,0.31097800000000003,-0.25254,13.1425,-9.6425,-10.3075
1291,9431758,0.96441,0.26608200000000004,-0.231434,18.9525,-16.87,-20.1775
1292,9431856,0.855342,0.226798,-0.215696,22.3475,-21.5425,-26.635
1293,9431954,0.7705521,0.20788800000000002,-0.19739600000000002,24.605,-22.0325,-29.925
1294,9432052,0.7239479999999999,0.21301199999999998,-0.177144,27.3875,-18.865,-29.435
1295,9432150,0.711504,0.222406,-0.169946,31.3425,-13.51,-28.56
1296,9432248,0.711382,0.21886799999999998,-0.17580199999999999,36.0325,-9.0825,-28.315
1297,9432346,0.7129681,0.18751400000000001,-0.167994,42.175,-7.315,-26.775
1298,9432444,0.72224,0.15555,-0.15823399999999999,47.6175,-6.3525,-25.9175
1299,9432541,0.754692,0.122244,-0.153354,52.045,-3.36,-26.355
1300,9432639,0.803614,0.09089001,-0.15579400000000002,53.9,-0.525,-27.475
1301,9432737,0.8378960999999999,0.0732,-0.152866,52.57,-5.11,-26.2325
1302,9432835,0.8488761,0.055022,-0.12688,52.9725,-13.0375,-24.6925
1303,9432933,0.8409459999999999,0.048068,-0.090036,53.41,-18.9875,-22.295
1304,9433031,0.8287459999999999,0.04453,-0.045262000000000004,53.5675,-21.9625,-19.8625
1305,9433129,0.8042239999999999,0.043554,-0.003904,52.9375,-22.365,-16.8175
1306,9433227,0.790804,0.03416,0.024766,52.15,-22.0675,-14.6125
1307,9433325,0.787144,0.032330000000000005,0.029646,51.5725,-20.93,-11.83
1308,9433422,0.784704,0.042089999999999995,0.0244,51.5375,-19.88,-7.9275
1309,9433520,0.769332,0.058316,0.008662000999999999,52.395,-20.23,-3.745
1310,9433618,0.741272,0.054655999999999996,-0.028426,54.32,-21.9975,-0.1925
1311,9433716,0.7076001000000001,0.023546,-0.041236,57.085,-23.065,2.415
1312,9433814,0.687104,-0.005246,-0.054778,58.555,-20.2825,4.9
1313,9433912,0.685396,-0.020496,-0.093086,58.135,-14.2975,5.5475
1314,9434010,0.6972301,-0.032086,-0.114436,56.245,-9.73,6.1775
1315,9434108,0.7165060000000001,-0.0488,-0.117974,52.78,-8.715,6.0375
1316,9434205,0.74237,-0.06283,-0.128222,47.425,-7.42,4.235
1317,9434303,0.7820199999999999,-0.07222401,-0.157746,40.7575,-3.29,0.8400001
1318,9434401,0.8632719999999999,-0.0671,-0.188368,31.535,1.435,-3.92
1319,9434499,0.9799041,-0.07112601,-0.1708,21.5075,3.15,-9.9225
1320,9434597,1.100562,-0.10943399999999999,-0.089426,13.2825,0.525,-16.0475
1321,9434695,1.202432,-0.12627,0.014762,5.775,-4.865,-21.7175
1322,9434793,1.2622120000000001,-0.08430201,0.012322,-3.2375,-8.4175,-26.32
1323,9434891,1.278438,-0.025863999999999998,-0.111996,-9.8875,-7.5775,-30.345
1324,9434988,1.3085719999999998,0.050874,-0.15555,-16.87,-4.2875,-33.9325
1325,9435086,1.4215440000000001,0.08845001,-0.08820599999999999,-17.2025,3.3075,-38.0275
1326,9435184,1.524268,0.057339999999999995,-0.130174,-9.975,13.09,-44.2575
1327,9435282,1.512678,0.022692,-0.20776599999999998,-7.9275,9.5375,-51.9225
1328,9435380,1.39995,0.010614,-0.192028,-12.0575,-9.3275,-56.42
1329,9435478,1.286368,0.045384,-0.26608200000000004,-15.9775,-22.82,-57.33
1330,9435576,1.227808,0.102724,-0.40528400000000003,-22.4875,-18.4625,-58.415
1331,9435674,1.181082,0.09479401,-0.381616,-27.7375,-9.5375,-59.36
1332,9435771,1.08702,0.082838,-0.337574,-26.705,-9.205,-56.385
1333,9435869,0.9962521000000001,0.14945,-0.382836,-25.8475,-11.83,-50.1725
1334,9435967,0.9134141,0.22496799999999997,-0.468846,-23.6775,-7.805,-45.4125
1335,9436065,0.8352120000000001,0.2806,-0.5291140000000001,-17.2725,-2.6425,-43.5225
1336,9436163,0.76494,0.316102,-0.544242,-7.595,-2.0475,-43.4525
1337,9436261,0.723338,0.29487399999999997,-0.496662,5.6175,-1.9425,-44.1875
1338,9436359,0.7366361,0.250222,-0.43651599999999996,14.6475,2.1175,-44.8
1339,9436457,0.8252079999999999,0.209596,-0.396012,15.54,9.8175,-45.6575
1340,9436554,0.9586761,0.160796,-0.359534,14.0875,18.025,-46.2
1341,9436652,1.119716,0.080398,-0.327204,13.23,21.8925,-45.36
1342,9436750,1.2719719999999999,-0.019642,-0.287554,10.5175,20.16,-41.72
1343,9436848,1.352004,-0.09150001,-0.264862,4.0075,13.3875,-34.3525
1344,9436946,1.362374,-0.13847,-0.264008,-2.38,3.78,-24.01
1345,9437044,1.317356,-0.13115,-0.25864000000000004,-6.58,-2.415,-10.4825
1346,9437142,1.196942,-0.077592,-0.24790399999999999,-9.9925,-5.7225,4.69
1347,9437240,1.02846,-0.029158,-0.219844,-11.725,-11.2,17.15
1348,9437338,0.861442,-0.002928,-0.183488,-13.5625,-16.6075,24.1675
1349,9437435,0.7345619999999999,0.01342,-0.14310599999999998,-16.1875,-18.0075,25.0425
1350,9437533,0.673196,0.016347999999999998,-0.132858,-20.1425,-12.25,22.8725
1351,9437631,0.65514,0.018056,-0.14469200000000002,-23.45,-2.835,19.46
1352,9437729,0.650138,0.026595999999999998,-0.155184,-28.0875,1.9425,17.7275
1353,9437827,0.67161,0.036966000000000006,-0.148108,-32.06,1.575,15.645
1354,9437925,0.723338,0.036233999999999995,-0.12712400000000001,-35.98,1.155,15.1725
1355,9438023,0.7707961,0.0366,-0.11504600000000001,-39.8825,3.2725,18.655
1356,9438120,0.8364321,0.035746,-0.097478,-42.0175,6.8775,18.55
1357,9438218,0.8809620000000001,0.040138,-0.09650201,-44.9925,7.98,19.3375
1358,9438316,0.9232961,0.037454,-0.09394001,-44.7825,3.5875,19.5825
1359,9438414,0.941718,0.031354,-0.09821001,-45.045,-5.8625,19.005
1360,9438512,0.9357401,0.03477,-0.06490399999999999,-43.7675,-17.605,17.8675
1361,9438610,0.9112181,0.044407999999999996,-0.027572000000000003,-45.325,-27.09,16.2575
1362,9438708,0.8818159999999999,0.040626,0.033062,-45.395,-29.575,14.525
1363,9438806,0.8591241,0.04867801,0.07002799999999999,-46.235,-29.1725,13.0025
1364,9438904,0.844606,0.05941401,0.07173600000000001,-46.6725,-29.61,11.795
1365,9439001,0.815814,0.07856801,0.056974000000000004,-48.4575,-29.7675,9.24
1366,9439099,0.778482,0.08869401,0.061854,-50.0675,-29.05,6.4225
1367,9439197,0.745664,0.09516001,0.06466001,-51.3625,-27.7025,4.375
1368,9439295,0.7256560000000001,0.10516400000000001,0.05587601,-53.1125,-23.835,1.7675
1369,9439393,0.71065,0.10638399999999999,0.01281,-55.825,-20.09,-0.8225
1370,9439491,0.70028,0.09394001,-0.045627999999999995,-59.64,-18.655,-3.605
1371,9439589,0.718824,0.0671,-0.098942,-62.79,-19.705,-6.4575
1372,9439686,0.761524,0.06636801,-0.167506,-63.21,-18.6375,-8.645
1373,9439784,0.809836,0.130296,-0.265594,-59.92,-12.985,-9.5725
1374,9439882,0.8536341000000001,0.22753,-0.314394,-52.5175,-7.42,-10.465
1375,9439980,0.90585,0.31451599999999996,-0.242536,-39.48,-5.1975,-10.7975
1376,9440078,0.9894200000000001,0.41687399999999997,-0.08674201,-23.8175,-3.1675,-9.66
1377,9440176,1.103246,0.531554,0.015738,-7.7525,1.1375,-7.875
1378,9440274,1.2110940000000001,0.507886,0.123464,10.885,2.8525,-2.73
1379,9440372,1.287466,0.371734,-0.005734,22.12,2.065,4.27
1380,9440469,1.365546,0.173484,-0.262178,21.35,6.1075,9.3625
1381,9440567,1.48596,0.107116,-0.173118,13.86,7.6125,15.3125
1382,9440665,1.7282520000000001,0.111752,0.019764,2.2925,3.3425,21.3675
1383,9440763,1.7439900000000002,0.15420799999999998,0.021594,-12.7225,4.48,28.5775
1384,9440861,1.512312,0.18483,-0.11333800000000001,-11.69,-1.33,32.375
1385,9440959,1.283806,0.128832,-0.199958,6.44,-14.2975,30.7475
1386,9441057,1.11325,0.025376,-0.27523200000000003,16.3275,-14.315,28.0175
1387,9441155,1.00589,0.001342,-0.474214,9.135,-2.3975,24.43
1388,9441252,0.916952,0.0305,-0.611952,2.065,1.89,24.395
1389,9441350,0.8460700999999999,0.11834000000000001,-0.5596140000000001,2.1,-10.57,28.6475
1390,9441448,0.7882421,0.18239,-0.43212399999999995,1.7325,-21.91,31.465
1391,9441546,0.7895840999999999,0.14005599999999999,-0.417728,7.0525,-20.8775,33.81
1392,9441644,0.840458,0.07637200000000001,-0.46933400000000003,10.9375,-6.265,39.5325
1393,9441742,0.91012,0.024278,-0.500688,8.5225,8.6275,46.5675
1394,9441840,0.9568459999999999,-0.00122,-0.51667,3.0975,15.61,52.3425
1395,9441938,1.006988,0.009394,-0.49751599999999996,-3.22,14.56,55.3
1396,9442036,1.0737219999999998,0.029889999999999996,-0.45298599999999994,-5.4775,9.7475,56.1925
1397,9442133,1.128256,0.046726,-0.408456,-2.135,5.565,54.1975
1398,9442231,1.176568,0.09381801,-0.37576,0.595,3.255,48.79
1399,9442329,1.198772,0.137982,-0.35014,3.01,2.205,40.1275
1400,9442427,1.19072,0.169336,-0.33489,3.57,0.385,29.4
1401,9442525,1.154364,0.18727,-0.321104,2.59,-2.8175,16.6075
1402,9442623,1.0734780000000002,0.18361,-0.285846,4.06,-8.085,3.605
1403,9442721,0.9668501,0.17738800000000002,-0.24936799999999998,6.335,-16.345,-7.63
1404,9442819,0.8479,0.16348,-0.22716399999999998,8.015,-23.66,-14.875
1405,9442917,0.729804,0.160064,-0.20410599999999998,8.4525,-25.9875,-19.1275
1406,9443014,0.67405,0.178852,-0.192394,8.61,-22.3475,-19.95
1407,9443112,0.6728301,0.200568,-0.195322,12.2325,-13.7375,-19.2325
1408,9443210,0.695522,0.199714,-0.21045,17.4475,-7.63,-19.845
1409,9443306,0.707112,0.17946199999999998,-0.19642,23.3975,-7.1225,-19.985
1410,9443404,0.7150420999999999,0.154574,-0.16714,29.5925,-9.1175,-19.3375
1411,9443502,0.741638,0.133346,-0.12932000000000002,36.925,-7.63,-21.49
1412,9443600,0.7854361,0.09516001,-0.120048,41.7725,-2.24,-23.59
1413,9443698,0.8480221,0.07747001,-0.123708,43.4525,1.26,-26.775
1414,9443795,0.8976761000000001,0.082106,-0.126148,42.5425,-3.71,-28.665
1415,9443893,0.91195,0.08296,-0.10797000000000001,43.19,-13.2125,-29.3475
1416,9443991,0.9032879999999999,0.087474,-0.08174001,44.205,-20.3525,-29.33
1417,9444089,0.8788879999999999,0.09320801,-0.05160601,46.025,-22.6625,-28.035
1418,9444187,0.8765700000000001,0.104066,-0.01708,47.04,-22.96,-27.545
1419,9444285,0.8504620999999999,0.105896,0.011468,48.9125,-23.975,-23.94
1420,9444383,0.8428979999999999,0.103822,0.043798000000000004,52.395,-26.635,-20.8425
1421,9444481,0.812276,0.115168,0.04697001,55.58,-28.1575,-15.9775
1422,9444579,0.7883640000000001,0.12383,0.021716,59.5525,-27.86,-11.7075
1423,9444677,0.742858,0.12065799999999999,-0.01952,62.9475,-27.475,-6.37
1424,9444774,0.693692,0.09125599999999999,-0.043188,66.0625,-26.81,-1.505
1425,9444872,0.6645340000000001,0.044407999999999996,-0.058072000000000006,68.5475,-23.03,2.0825
1426,9444970,0.6602640000000001,-0.000488,-0.07856801,69.3175,-15.925,5.25
1427,9445068,0.695034,-0.038551999999999996,-0.086132,67.3225,-8.505,7.7175
1428,9445166,0.7291941,-0.069784,-0.109556,62.8775,-3.535,8.89
1429,9445264,0.762012,-0.100284,-0.1586,57.5575,-1.3475,7.2275
1430,9445362,0.8283799999999999,-0.108702,-0.202154,49.665,0.5775,2.7475
1431,9445460,0.9408639999999999,-0.118218,-0.18117,40.495,3.29,-5.005
1432,9445558,1.065426,-0.12261,-0.09613601,30.9225,3.92,-14.8225
1433,9445656,1.1781540000000001,-0.1098,-0.000366,20.72,1.1025,-24.71
1434,9445753,1.238544,-0.06588,0.078446,10.4125,-3.0975,-32.1125
1435,9445851,1.27795,-0.007808001,-0.031354,3.7975,-5.0925,-37.205
1436,9445949,1.298568,0.06819800000000001,-0.134444,0.6475,-4.0425,-39.725
1437,9446047,1.342488,0.10089400000000001,-0.091378,-3.0975,-0.035,-41.2475
1438,9446145,1.450214,0.064538,-0.043432,-1.82,8.89,-43.7675
1439,9446243,1.48718,-0.009150001,-0.13383399999999998,0.245,11.76,-48.0725
1440,9446341,1.37494,-0.030866,-0.170312,-2.695,-1.6275,-52.7625
1441,9446439,1.205848,-0.0051240009999999996,-0.23009200000000002,-10.9375,-17.8325,-54.985
1442,9446537,1.1039780000000001,0.050874,-0.403698,-17.1675,-19.145,-55.4225
1443,9446634,1.067134,0.10126,-0.57157,-24.4475,-6.2825,-55.6325
1444,9446732,1.0462719999999999,0.064782,-0.521672,-28.0525,0.77,-54.005
1445,9446830,0.9892981,-0.028548,-0.38735,-22.19,-2.625,-50.0325
1446,9446928,0.9511120000000001,0.020862000000000002,-0.383934,-22.19,-4.9875,-47.1975
1447,9447026,0.9108521,0.108946,-0.43737,-22.8375,-2.2225,-47.985
1448,9447124,0.8480221,0.244732,-0.517646,-21.56,-0.91,-50.19
1449,9447222,0.785558,0.310734,-0.517768,-11.9,3.99,-52.185
1450,9447320,0.7862901,0.277306,-0.46055,4.5325,13.79,-53.76
1451,9447418,0.859002,0.251198,-0.406748,10.22,21.35,-54.425
1452,9447516,0.9718521000000001,0.21374400000000002,-0.35477600000000004,10.255,22.12,-53.9525
1453,9447613,1.1117860000000002,0.14945,-0.323666,7.6825,19.915,-50.89
1454,9447711,1.253916,0.041846,-0.288042,4.7075,19.8275,-44.765
1455,9447809,1.362618,-0.076616,-0.270352,0.07,19.4425,-36.3825
1456,9447907,1.435086,-0.174948,-0.26047,-6.4925,14.2975,-25.3925
1457,9448005,1.438258,-0.22204000000000002,-0.240706,-12.4775,6.125,-11.7775
1458,9448103,1.3133299999999999,-0.197152,-0.21594000000000002,-19.915,-3.2725,4.9175
1459,9448201,1.121668,-0.14896199999999998,-0.194712,-25.83,-12.8625,19.4425
1460,9448299,0.928054,-0.107482,-0.17238599999999998,-31.29,-19.67,28.5425
1461,9448397,0.7687221,-0.07869,-0.137982,-35.84,-20.7025,31.3425
1462,9448495,0.68381,-0.040992,-0.115168,-40.5125,-15.19,29.5575
1463,9448593,0.65758,0.001342,-0.126026,-44.5375,-5.2675,25.9525
1464,9448691,0.655506,0.042456,-0.149084,-47.3725,1.645,22.4525
1465,9448788,0.667096,0.07137001,-0.15274400000000002,-49.49,2.24,20.825
1466,9448886,0.694912,0.08235001,-0.144082,-51.5375,0.56,20.0725
1467,9448984,0.74664,0.09991799999999999,-0.12712400000000001,-54.1625,0.6825,20.8425
1468,9449082,0.789218,0.107848,-0.116998,-56.28,1.785,23.1
1469,9449180,0.8392381,0.084912,-0.10540799999999999,-55.4925,1.645,22.0325
1470,9449278,0.8601,0.071858,-0.10943399999999999,-55.8425,-2.45,21.875
1471,9449376,0.8735200000000001,0.043798000000000004,-0.100162,-54.495,-9.415,21.8925
1472,9449474,0.8814501,0.027572000000000003,-0.07600599999999999,-54.1975,-15.68,20.2825
1473,9449572,0.873276,0.016592,-0.035868000000000004,-54.215,-20.965,17.9375
1474,9449670,0.8552200000000001,0.017324000000000003,0.014274,-54.915,-24.885,14.21
1475,9449767,0.8321620000000001,0.03355,0.037942000000000004,-55.895,-27.72,12.145
1476,9449865,0.821304,0.061366,0.031598,-55.7025,-29.155,10.3425
1477,9449963,0.8119101,0.101382,0.020618,-57.19,-27.965,8.5575
1478,9450061,0.7890961,0.122976,0.024156,-58.2575,-25.62,7.4375
1479,9450159,0.7645741,0.131272,0.034038,-58.1525,-22.995,5.6525
1480,9450257,0.7452979999999999,0.150304,0.038551999999999996,-60.1475,-20.02,3.0975
1481,9450355,0.724436,0.159576,0.0183,-63.2625,-18.0775,0.0875
1482,9450453,0.7162621,0.139934,-0.024034,-66.255,-17.535,-2.975
1483,9450551,0.745664,0.11431400000000001,-0.09589201,-66.325,-15.8025,-5.5475
1484,9450649,0.801784,0.135908,-0.183,-62.5975,-9.7125,-6.9125
1485,9450746,0.8671761,0.24216999999999997,-0.259494,-56.875,-2.9575,-7.8225
1486,9450844,0.917074,0.35843600000000003,-0.25376,-47.495,-0.1925,-9.3275
1487,9450942,0.9564799999999999,0.438834,-0.14993800000000002,-32.83,-3.6575,-10.3425
1488,9451040,1.001376,0.478972,-0.012322,-15.96,-7.7875,-9.9575
1489,9451138,1.073112,0.48421800000000004,0.09052401,-2.87,-5.915,-9.345
1490,9451236,1.17608,0.402844,0.175314,6.8075,-1.1725,-8.1025
1491,9451334,1.252574,0.30683,0.06819800000000001,10.0625,1.4525,-5.8975
1492,9451432,1.335534,0.131882,-0.227408,11.025,1.9425,-2.695
1493,9451530,1.43167,0.049776,-0.164212,8.68,1.645,3.115
1494,9451628,1.6084479999999999,0.06941801,0.026351999999999997,-1.505,-0.315,8.68
1495,9451726,1.645048,0.14347200000000002,0.002074,-16.6775,1.715,15.7675
1496,9451823,1.389824,0.17238599999999998,-0.101504,-17.4825,2.5025,24.71
1497,9451921,1.141432,0.12041400000000001,-0.22265,0.945,-1.505,28.245
1498,9452019,1.046028,-0.014274,-0.435174,15.2425,0.63,30.8875
1499,9452117,1.013088,-0.081862,-0.6442821,12.5475,11.0775,34.335
1500,9452215,0.9701440999999998,-0.017934000000000002,-0.671732,5.95,10.5175,40.1625
1501,9452313,0.90402,0.146034,-0.498004,3.4475,-5.285,43.0325
1502,9452411,0.8602221,0.251808,-0.362218,2.5375,-18.9175,41.4925
1503,9452509,0.8430200999999999,0.14347200000000002,-0.37685799999999997,16.24,-14.14,40.81
1504,9452607,0.850096,0.037576,-0.473116,17.885,-0.105,44.7825
1505,9452705,0.8662001,-0.033184,-0.47201809999999994,8.47,10.1675,49.2975
1506,9452803,0.9301280000000001,-0.039162,-0.46311199999999997,-4.2525,16.0125,49.6825
1507,9452901,1.02846,-0.025742,-0.424926,-8.855,17.08,46.4975
1508,9452998,1.133258,0.00793,-0.372954,-5.2675,11.5325,41.9125
1509,9453096,1.22061,0.07307801,-0.312198,2.3275,5.565,35.385
1510,9453194,1.279536,0.160918,-0.281332,8.9075,5.8625,26.8275
1511,9453292,1.30113,0.251564,-0.299144,12.4075,9.2925,17.4125
1512,9453390,1.2641639999999998,0.324276,-0.314394,15.3475,7.595,7.175
1513,9453488,1.154852,0.353312,-0.299144,20.125,-2.52,-3.9025
1514,9453586,1.01138,0.324886,-0.257786,26.915,-15.4525,-14.1225
1515,9453684,0.8690061,0.271084,-0.22814,32.8825,-24.465,-22.1725
1516,9453782,0.756034,0.224602,-0.20410599999999998,36.9075,-27.86,-26.915
1517,9453880,0.72895,0.199348,-0.166286,40.2325,-24.5175,-28.2625
1518,9453977,0.7473721,0.183,-0.14896199999999998,43.085,-15.6625,-29.295
1519,9454075,0.772016,0.171532,-0.154086,45.8675,-7.9625,-30.2225
1520,9454173,0.7931220999999999,0.15274400000000002,-0.14896199999999998,50.715,-4.7075,-30.0125
1521,9454271,0.829234,0.12761199999999998,-0.135054,57.505,-3.57,-29.54
1522,9454369,0.8674200000000001,0.102114,-0.12065799999999999,62.825,-2.2225,-29.925
1523,9454467,0.898164,0.087108,-0.112972,64.4525,-2.8175,-30.73
1524,9454565,0.9295180000000001,0.07978801,-0.11650999999999999,63.6475,-8.6625,-32.725
1525,9454663,0.9385460999999999,0.09028,-0.104432,63.21,-14.7875,-33.845
1526,9454761,0.9002379999999999,0.100284,-0.08405800000000001,62.9125,-20.895,-30.59
1527,9454859,0.8813280000000001,0.105896,-0.06124401,65.275,-27.6675,-31.2725
1528,9454957,0.8466800999999999,0.11943800000000002,-0.040260000000000004,66.0625,-30.73,-28.6475
1529,9455054,0.823256,0.10516400000000001,-0.007076001,68.145,-30.59,-25.5675
1530,9455152,0.8164239999999999,0.090158,0.025742,69.80751,-29.0325,-24.2025
1531,9455250,0.801906,0.068564,0.048068,71.71500999999999,-27.8775,-21.63
1532,9455348,0.7801899999999999,0.06356201,0.044407999999999996,73.885,-29.26,-18.6725
1533,9455446,0.744444,0.054655999999999996,-0.004148001,76.58,-31.1325,-15.12
1534,9455544,0.6967420999999999,0.028669999999999998,-0.031964,80.1325,-30.7825,-11.83
1535,9455642,0.6463561,0.016714,-0.041358,82.0925,-28.0525,-9.0825
1536,9455740,0.6231760999999999,-0.004026,-0.05160601,82.74,-23.4325,-7.385
1537,9455838,0.6380600000000001,-0.036356,-0.06892999999999999,82.0925,-17.0625,-5.9675
1538,9455936,0.681248,-0.080764,-0.10187,77.665,-9.765,-5.39
1539,9456034,0.7232161,-0.118828,-0.140178,68.7575,-5.2325,-5.53
1540,9456131,0.765794,-0.142252,-0.168238,56.0875,-5.4425,-6.44
1541,9456229,0.8447280999999999,-0.16287000000000001,-0.13602999999999998,42.1225,-4.97,-8.4875
1542,9456327,0.9656300999999999,-0.183,-0.080764,28.4725,0.07,-13.1775
1543,9456425,1.09617,-0.191662,-0.018788,14.455,4.2875,-20.3875
1544,9456523,1.206702,-0.172996,0.049166,1.3475,4.0425,-28.1225
1545,9456621,1.261968,-0.08662001,0.085156,-11.1475,0.8575,-34.86
1546,9456719,1.261968,0.017568,-0.052338,-16.4675,-2.5025,-40.88
1547,9456817,1.2184139999999999,0.123098,-0.185928,-13.9825,-4.2175,-44.625
1548,9456915,1.21451,0.21313400000000002,-0.186782,-10.2375,-3.5175,-46.935
1549,9457013,1.279414,0.261934,-0.115656,-3.01,-0.21,-47.985
1550,9457110,1.321382,0.23851,-0.149084,5.3375,3.045,-48.825
1551,9457208,1.247328,0.11577799999999999,-0.24034,8.05,-2.8525,-48.545
1552,9457306,1.1181299999999998,0.06124401,-0.30475599999999997,0.28,-16.45,-47.6875
1553,9457404,1.057252,0.10187,-0.484462,-11.8475,-18.9525,-48.6675
1554,9457502,1.026752,0.067832,-0.6108541000000001,-12.0925,-6.1075,-50.2775
1555,9457600,1.0551780000000002,-0.08723001,-0.47946000000000005,-7.385,5.5475,-50.925
1556,9457698,1.1148360000000002,-0.170678,-0.35075,-2.52,9.555,-51.87
1557,9457796,1.1478979999999999,-0.086864,-0.382104,-4.2175,8.68,-54.88
1558,9457894,1.10166,0.078446,-0.473116,-6.51,5.18,-57.575
1559,9457992,1.0115020000000001,0.24717199999999998,-0.543266,-3.0975,4.1125,-60.375
1560,9458089,0.9351299999999999,0.341356,-0.556198,10.99,6.4925,-63.805
1561,9458187,0.903532,0.351482,-0.513742,28.28,8.6975,-67.0075
1562,9458285,0.9025559999999999,0.320006,-0.486414,38.3075,8.4525,-69.545
1563,9458383,0.9389120000000001,0.27328,-0.456524,41.0725,6.6675,-70.0525
1564,9458481,1.014918,0.22252800000000003,-0.40565,41.72,5.705,-68.145
1565,9458579,1.1192280000000001,0.13115,-0.338916,44.0825,6.6675,-64.1375
1566,9458677,1.224636,0.022082,-0.277062,44.5025,6.9125,-56.875
1567,9458775,1.304912,-0.055144000000000006,-0.253882,40.565,4.83,-45.6575
1568,9458873,1.362496,-0.10553,-0.250344,35.805,0.49,-32.375
1569,9458971,1.315282,-0.12395199999999999,-0.24351199999999998,32.48,-4.445,-17.2375
1570,9459068,1.154608,-0.10906800000000001,-0.232776,30.17,-12.2675,-2.94
1571,9459166,0.9413520000000001,-0.081984,-0.20996199999999998,28.735,-21.6475,7.105
1572,9459264,0.77836,-0.057462,-0.16897,27.02,-25.6725,9.2925
1573,9459362,0.7095520000000001,-0.039772,-0.11870599999999999,23.9925,-19.5475,6.51
1574,9459460,0.6613621000000001,-0.015372,-0.100406,19.425,-7.21,4.2
1575,9459558,0.6542859999999999,0.017202000000000002,-0.103334,15.4,1.3125,0.49
1576,9459656,0.670512,0.047214,-0.10809200000000001,12.355,3.08,-1.6625
1577,9459754,0.7150420999999999,0.08430201,-0.10430999999999999,9.9925,4.2525,-3.4825
1578,9459852,0.7540819999999999,0.101992,-0.09625801,6.37,8.4,-3.605
1579,9459950,0.8113001,0.11614400000000001,-0.08357,3.5875,11.06,-4.97
1580,9460047,0.8701040000000001,0.12212200000000001,-0.080398,1.2075,7.2625,-3.675
1581,9460145,0.9120720999999999,0.110044,-0.10187,1.295,-0.77,-4.2175
1582,9460243,0.9394,0.07564,-0.08954801,1.995,-11.0775,-3.99
1583,9460341,0.935984,0.044652,-0.063318,1.26,-19.8275,-5.88
1584,9460439,0.91012,0.022203999999999998,-0.03843,-1.2075,-23.7825,-5.5475
1585,9460537,0.9052401,-0.0034159999999999998,-0.00549,-3.6225,-23.24,-5.1275
1586,9460635,0.894748,-0.012565999999999999,0.017568,-6.7025,-21.7875,-5.8625
1587,9460733,0.865834,-0.020984,0.059536,-10.0275,-22.6975,-6.545
1588,9460831,0.820084,-0.022326,0.07490801,-13.895,-23.8,-7.8925
1589,9460929,0.7631101,-0.01952,0.05941401,-17.71,-23.0825,-9.8875
1590,9461026,0.7116260999999999,0.006954000000000001,0.04867801,-22.54,-19.32,-12.1975
1591,9461124,0.6679501,0.05624199999999999,0.01525,-27.3,-11.9175,-15.3825
1592,9461222,0.646234,0.125538,-0.029401999999999998,-30.8175,-4.6725,-18.7075
1593,9461320,0.658556,0.189466,-0.090768,-31.5,-0.42,-21.875
1594,9461418,0.696254,0.23021399999999997,-0.164578,-27.965,2.5375,-24.9375
1595,9461516,0.752496,0.264008,-0.246196,-23.205,6.125,-26.6175
1596,9461614,0.80825,0.319884,-0.27828200000000003,-18.2,9.835,-27.58
1597,9461712,0.889136,0.417972,-0.221552,-12.1625,11.76,-27.86
1598,9461810,1.0090620000000001,0.4933681,-0.149816,-2.9225,13.125,-26.565
1599,9461908,1.150216,0.480436,-0.055754,11.0075,13.7375,-23.135
1600,9462005,1.249158,0.40565,-0.11736400000000001,24.6225,12.635,-18.9525
1601,9462103,1.313818,0.281698,-0.20178800000000002,35.455,15.5225,-14.1925
1602,9462201,1.372378,0.233752,-0.208254,41.5975,19.3375,-8.5925
1603,9462299,1.435818,0.27999,-0.192272,38.745,23.1875,-2.8875
1604,9462397,1.44326,0.3416,-0.149816,33.6,22.855,4.165
1605,9462495,1.395802,0.320616,-0.126026,38.7275,14.455,11.445
1606,9462593,1.309914,0.211792,-0.213378,51.8525,5.3725,17.6925
1607,9462691,1.220244,0.02196,-0.427122,64.3125,2.17,22.4875
1608,9462789,1.127768,-0.093696,-0.513742,69.72,9.7125,26.075
1609,9462887,1.032486,-0.073688,-0.43798000000000004,64.715,15.715,29.75
1610,9462985,0.9247601000000001,0.033672,-0.378322,61.2325,10.3775,28.49
1611,9463082,0.8133739999999999,0.040626,-0.39771999999999996,66.15,0.6825,23.135
1612,9463180,0.740052,-0.009028000999999999,-0.442616,75.1975,-0.28,17.605
1613,9463278,0.7060141,-0.00244,-0.47677600000000003,73.9375,7.7875,13.195
1614,9463376,0.739808,0.00244,-0.43627200000000005,68.3375,15.6625,9.415
1615,9463474,0.798124,0.027694,-0.376248,59.045,19.6175,5.0925
1616,9463572,0.882182,0.09882,-0.34038,53.9875,20.1425,0.7875
1617,9463670,0.9860040999999999,0.164456,-0.34221,59.045,22.0675,-3.1675
1618,9463768,1.0912899999999999,0.21716,-0.33818400000000004,69.475,26.81,-7.2625
1619,9463866,1.178642,0.275476,-0.32403200000000004,77.3325,32.725,-11.55
1620,9463964,1.2275639999999999,0.33366999999999997,-0.322934,84.07001,34.79,-15.9425
1621,9464061,1.209264,0.387716,-0.3294,89.915,29.645,-20.9825
1622,9464159,1.119106,0.412116,-0.322324,96.2325,19.04,-26.705
1623,9464257,0.998448,0.38491,-0.28682199999999997,104.1775,8.575,-33.04
1624,9464355,0.8964561,0.35465399999999997,-0.24631799999999998,110.5825,3.5,-37.5375
1625,9464453,0.833626,0.326106,-0.22265,116.095,3.71,-39.34
1626,9464551,0.8094701,0.28926199999999996,-0.203618,121.3275,5.67,-38.4825
1627,9464649,0.823256,0.25058800000000003,-0.180926,126.1225,9.345,-36.9075
1628,9464747,0.8674200000000001,0.21093800000000001,-0.15494000000000002,130.6375,14.9275,-36.75
1629,9464845,0.9267120000000001,0.172874,-0.137006,134.54,19.6875,-37.5375
1630,9464943,0.9878341,0.133102,-0.132614,137.9,21.42,-38.5
1631,9465041,1.036634,0.10418800000000002,-0.132614,140.5775,19.7925,-39.655
1632,9465138,1.06445,0.097722,-0.12712400000000001,142.38,14.5775,-40.5125
1633,9465236,1.054446,0.10809200000000001,-0.119072,143.8675,8.2075,-41.685
1634,9465334,1.022726,0.127856,-0.10223600000000001,144.655,3.22,-43.1725
1635,9465432,0.9956421,0.145912,-0.088328,145.2675,-0.77,-43.8725
1636,9465530,0.969046,0.155916,-0.068686,145.6175,-4.4275,-44.31
1637,9465628,0.943426,0.167262,-0.040260000000000004,144.8475,-8.05,-44.1875
1638,9465726,0.9219540999999999,0.160674,-0.00976,143.99,-9.31,-43.1725
1639,9465824,0.8960899999999999,0.139202,0.0064659999999999995,143.6925,-7.735,-41.265
1640,9465922,0.871934,0.104432,0.018544,144.2175,-6.1775,-38.7275
1641,9466020,0.8332601000000001,0.05453401,0.00244,145.32,-6.02,-35.385
1642,9466117,0.7890961,-0.0034159999999999998,-0.017934000000000002,146.615,-6.9475,-31.4825
1643,9466215,0.751276,-0.04331,-0.029889999999999996,146.44,-7.0875,-27.4575
1644,9466313,0.725168,-0.083936,-0.046360000000000005,145.11,-5.4075,-23.8175
1645,9466411,0.7150420999999999,-0.11407,-0.06490399999999999,141.33,-2.3275,-20.545
1646,9466509,0.7204100999999999,-0.12456199999999999,-0.06563601,136.43,1.1725,-17.36
1647,9466607,0.7417600000000001,-0.115168,-0.07344400000000001,131.5475,4.0775,-15.3825
1648,9466705,0.7506659999999999,-0.018056,-0.149328,122.9375,5.3025,-14.4725
1649,9466803,0.765672,0.017202000000000002,-0.232898,109.9525,7.7,-14.28
1650,9466901,0.8108121,-0.032330000000000005,-0.244,100.2575,10.4125,-14.455
1651,9466999,0.869616,-0.095038,-0.21166999999999997,92.0675,8.9075,-14.3325
1652,9467096,0.9209780000000001,-0.133956,-0.125172,83.3875,3.815,-14.5075
1653,9467194,0.9586761,-0.133468,-0.0064659999999999995,72.9575,0.2275,-15.2075
1654,9467292,0.980514,-0.091134,0.07832401,64.1375,0.455,-16.625
1655,9467390,0.9888101,-0.021106,0.10504200000000001,61.1625,4.2525,-18.48
1656,9467488,0.9761219999999999,0.089426,0.097966,64.3825,9.0475,-20.51
1657,9467586,0.9568459999999999,0.22582199999999997,0.06490399999999999,70.56,11.1475,-22.33
1658,9467684,0.9561139999999999,0.276696,-0.111874,80.2025,10.6925,-23.6425
1659,9467782,0.9736819999999999,0.29585,-0.201666,87.2025,10.6225,-24.9375
1660,9467880,0.99918,0.31232,-0.21032800000000001,89.5475,11.2,-26.2325
1661,9467977,1.044564,0.271694,-0.22948200000000002,96.28501,13.3525,-28.2975
1662,9468075,1.083482,0.195932,-0.401868,103.4075,13.65,-33.7225
1663,9468173,1.12667,0.13785999999999998,-0.693082,104.23,11.6025,-44.555
1664,9468271,1.245254,0.054655999999999996,-0.763476,98.385,13.2475,-61.1275
1665,9468369,1.470588,-0.12932000000000002,-0.5753520000000001,99.17251,21.945,-80.5525
1666,9468467,1.665056,-0.295362,-0.4148,108.64,27.8425,-100.2575
1667,9468565,1.497794,-0.132492,-0.38125,105.4725,7.1225,-113.33
1668,9468663,1.1508260000000001,0.161528,-0.43602799999999997,97.44,-32.62,-113.645
1669,9468761,0.8422879999999999,0.340014,-0.46335600000000005,107.8525,-44.555,-104.5975
1670,9468859,0.74115,0.428342,-0.45859799999999995,125.3175,-21.595,-89.4075
