,T,ax,ay,az,gx,gy,gz
0,177756,0.41016400000000003,0.017324000000000003,-0.715408,14.42,-14.84,-14.105
1,177910,0.43676000000000004,0.023912,-0.8335040000000001,134.2075,-123.795,-87.71
2,178007,0.46603999999999995,0.026351999999999997,-0.8903561,124.3375,-149.24,-50.575
3,178104,0.46848,0.02806,-0.885964,60.585,-105.5075,-33.81
4,178201,0.468236,0.030012,-0.8857200999999999,3.325,-4.7425,-3.8325
5,178298,0.466772,0.027816000000000004,-0.8881600000000001,2.0825,-2.38,-3.115
6,178395,0.46945600000000004,0.02684,-0.8893800999999999,2.1,-2.345,-3.15
7,178493,0.468724,0.025863999999999998,-0.889624,2.03,-2.275,-3.2375
8,178590,0.467016,0.02684,-0.889868,1.96,-2.2225,-3.1675
9,178687,0.466772,0.026351999999999997,-0.8893800999999999,2.065,-2.24,-3.1675
10,178784,0.46774799999999994,0.027572000000000003,-0.8901120000000001,2.03,-2.31,-3.115
11,178881,0.46896800000000005,0.028304000000000003,-0.891576,2.0475,-2.45,-3.15
12,178978,0.47092,0.027327999999999998,-0.8908440999999999,2.03,-2.38,-3.0975
13,179075,0.46945600000000004,0.024644,-0.888648,1.96,-2.2575,-3.0975
14,179172,0.47067600000000004,0.026351999999999997,-0.8881600000000001,1.9425,-2.31,-3.255
15,179269,0.469944,0.026595999999999998,-0.889624,1.9775,-2.345,-3.2375
16,179366,0.46335600000000005,0.027572000000000003,-0.8866961,1.995,-2.4325,-3.2725
17,179463,0.461892,0.031232,-0.889136,2.0475,-2.45,-3.185
18,179560,0.466772,0.029524,-0.889624,2.17,-2.1875,-3.0625
19,179657,0.46628400000000003,0.02562,-0.8901120000000001,2.135,-2.135,-3.0275
20,179754,0.470188,0.028548,-0.8906,2.0825,-2.135,-2.94
21,179851,0.46921199999999996,0.028304000000000003,-0.8918200000000001,2.065,-2.0825,-3.0625
22,179949,0.470188,0.027327999999999998,-0.8913321,2.065,-2.0825,-3.1675
23,180046,0.46726,0.02806,-0.889624,1.96,-2.1,-3.08
24,180143,0.465796,0.029524,-0.8903561,2.0475,-2.1175,-3.1325
25,180240,0.467504,0.02684,-0.8918200000000001,2.0825,-2.1525,-3.115
26,180337,0.467992,0.025131999999999998,-0.889868,2.065,-2.1525,-3.115
27,180434,0.468724,0.025863999999999998,-0.8884040000000001,2.0475,-2.03,-3.08
28,180531,0.467016,0.02684,-0.889136,2.03,-2.1,-3.15
29,180628,0.468236,0.028548,-0.8903561,2.03,-2.1,-3.08
30,180725,0.4697,0.027327999999999998,-0.8893800999999999,2.065,-2.1,-3.115
31,180822,0.468236,0.027816000000000004,-0.8913321,2.0475,-2.1875,-3.1325
32,180919,0.466528,0.028304000000000003,-0.8884040000000001,2.1175,-2.1875,-3.0975
33,181016,0.467992,0.02684,-0.8888921000000001,2.1175,-2.17,-3.0625
34,181113,0.46848,0.027327999999999998,-0.8910879999999999,2.1,-2.205,-3.115
35,181211,0.467992,0.027572000000000003,-0.8901120000000001,1.995,-2.24,-3.1325
36,181308,0.471896,0.026108,-0.889136,2.065,-2.1525,-3.0625
37,181405,0.468724,0.026351999999999997,-0.889136,2.1175,-2.135,-3.0275
38,181502,0.466772,0.026108,-0.8903561,2.0125,-2.135,-3.045
39,181599,0.46896800000000005,0.026595999999999998,-0.8908440999999999,2.0825,-2.1875,-3.0625
40,181696,0.468236,0.024644,-0.888648,2.0475,-2.1,-3.15
41,181793,0.46921199999999996,0.026351999999999997,-0.888648,1.96,-2.1175,-3.1675
42,181890,0.46945600000000004,0.026351999999999997,-0.889868,1.925,-2.065,-3.2375
43,181987,0.465308,0.02806,-0.885964,1.9775,-2.1175,-3.29
44,182084,0.466528,0.027083999999999997,-0.887184,1.96,-1.995,-3.1325
45,182181,0.46896800000000005,0.026108,-0.889624,1.995,-1.96,-3.1325
46,182279,0.467504,0.027816000000000004,-0.888648,1.995,-2.0475,-3.0975
47,182376,0.467992,0.027083999999999997,-0.889868,1.995,-2.065,-3.115
48,182473,0.466772,0.02562,-0.888648,2.03,-2.1,-3.0275
49,182570,0.46896800000000005,0.02684,-0.889624,2.0125,-2.0125,-3.0275
50,182667,0.4697,0.027083999999999997,-0.8876719999999999,2.065,-2.135,-3.045
51,182764,0.46726,0.026595999999999998,-0.8893800999999999,2.0125,-2.17,-3.185
52,182861,0.46726,0.02684,-0.887184,2.0475,-2.1,-3.115
53,182958,0.468236,0.026351999999999997,-0.8901120000000001,1.995,-2.1,-3.15
54,183055,0.46945600000000004,0.027083999999999997,-0.888648,1.9425,-2.03,-3.15
55,183152,0.468724,0.028304000000000003,-0.8893800999999999,2.0125,-2.0475,-3.22
56,183249,0.46896800000000005,0.029768,-0.8869401,1.995,-2.065,-3.1325
57,183346,0.467992,0.028304000000000003,-0.885476,1.9425,-2.1,-3.08
58,183444,0.467504,0.027816000000000004,-0.8874280999999999,1.96,-2.17,-3.15
59,183541,0.467016,0.026595999999999998,-0.8874280999999999,2.0125,-2.1175,-3.0625
60,183638,0.46921199999999996,0.026108,-0.8884040000000001,1.925,-2.0475,-3.0625
61,183735,0.46603999999999995,0.026595999999999998,-0.8876719999999999,1.9075,-2.03,-3.0625
62,183832,0.468236,0.026595999999999998,-0.889624,1.995,-1.995,-3.185
63,183929,0.46945600000000004,0.027327999999999998,-0.889624,2.0125,-1.995,-3.2025
64,184026,0.467992,0.026595999999999998,-0.8888921000000001,2.0125,-2.0825,-3.115
65,184123,0.468236,0.028548,-0.8893800999999999,1.995,-2.1175,-3.15
66,184220,0.467992,0.028548,-0.887916,2.0125,-2.1,-3.0275
67,184317,0.47067600000000004,0.026108,-0.8893800999999999,1.96,-2.1,-3.0275
68,184414,0.46896800000000005,0.02684,-0.889136,2.0125,-2.1175,-2.975
69,184511,0.46945600000000004,0.027327999999999998,-0.8881600000000001,2.0475,-2.1175,-3.2025
70,184609,0.467504,0.026351999999999997,-0.889624,2.0125,-2.2225,-3.22
71,184706,0.466772,0.02806,-0.887916,1.89,-2.17,-3.15
72,184803,0.468236,0.027572000000000003,-0.889624,1.9425,-2.1175,-3.08
73,184900,0.467504,0.027816000000000004,-0.8869401,1.925,-2.1,-3.1325
74,184997,0.46774799999999994,0.025863999999999998,-0.8881600000000001,1.995,-2.1175,-3.1675
75,185094,0.46921199999999996,0.027816000000000004,-0.888648,2.0125,-2.17,-3.115
76,185191,0.467992,0.029036000000000003,-0.886452,2.03,-2.24,-3.185
77,185288,0.467992,0.027816000000000004,-0.8888921000000001,1.96,-2.275,-3.115
78,185385,0.467504,0.027816000000000004,-0.887916,1.96,-2.24,-3.1675
79,185482,0.46896800000000005,0.02928,-0.8869401,1.9425,-2.2225,-3.185
80,185579,0.467504,0.027327999999999998,-0.8874280999999999,1.9775,-2.345,-3.1675
81,185676,0.467992,0.02806,-0.8884040000000001,2.065,-2.3275,-3.045
82,185774,0.46921199999999996,0.028792,-0.8876719999999999,1.925,-2.345,-3.115
83,185871,0.468236,0.02806,-0.8901120000000001,1.96,-2.31,-3.15
84,185968,0.467992,0.02562,-0.889624,2.0825,-2.345,-3.0975
85,186065,0.46896800000000005,0.025863999999999998,-0.8876719999999999,2.065,-2.415,-3.185
86,186162,0.467992,0.025863999999999998,-0.889624,2.03,-2.38,-3.185
87,186259,0.467504,0.02806,-0.887916,2.03,-2.4325,-3.2375
88,186356,0.46603999999999995,0.02684,-0.8866961,1.995,-2.45,-3.1675
89,186453,0.466772,0.027327999999999998,-0.8869401,1.995,-2.2925,-3.0975
90,186550,0.46896800000000005,0.026351999999999997,-0.8881600000000001,2.0125,-2.275,-3.1675
91,186647,0.46848,0.027327999999999998,-0.8876719999999999,1.96,-2.275,-3.1675
92,186744,0.467992,0.028548,-0.8874280999999999,2.0125,-2.2575,-3.2025
93,186841,0.46774799999999994,0.026351999999999997,-0.8874280999999999,2.0475,-2.2925,-3.1675
94,186939,0.46774799999999994,0.025131999999999998,-0.8884040000000001,2.0825,-2.2225,-3.1325
95,187036,0.468724,0.024644,-0.8876719999999999,2.065,-2.31,-3.2025
96,187133,0.467992,0.024888,-0.8881600000000001,2.0825,-2.3275,-3.15
97,187230,0.467016,0.02806,-0.8876719999999999,2.065,-2.2575,-3.115
98,187327,0.46726,0.027816000000000004,-0.8866961,1.9425,-2.2575,-3.08
99,187424,0.468236,0.02806,-0.887184,1.995,-2.2575,-3.15
100,187521,0.46848,0.028304000000000003,-0.887916,2.1175,-2.31,-3.15
101,187618,0.468236,0.026108,-0.8884040000000001,2.065,-2.1875,-3.1325
102,187715,0.467504,0.028792,-0.8852321,1.995,-2.0825,-3.0975
103,187812,0.468724,0.027572000000000003,-0.8876719999999999,2.0825,-2.1,-3.0625
104,187909,0.46945600000000004,0.028792,-0.888648,2.1,-2.17,-3.0975
105,188006,0.469944,0.028304000000000003,-0.889136,2.0125,-2.2575,-3.08
106,188103,0.46896800000000005,0.027816000000000004,-0.8893800999999999,1.925,-2.2575,-3.185
107,188200,0.46896800000000005,0.027083999999999997,-0.8881600000000001,2.0125,-2.24,-3.185
108,188298,0.467992,0.028792,-0.8869401,2.0475,-2.2575,-3.15
109,188395,0.46896800000000005,0.028304000000000003,-0.887916,2.03,-2.24,-3.22
110,188492,0.467016,0.029524,-0.8847440999999999,2.0125,-2.17,-3.185
111,188589,0.470188,0.027572000000000003,-0.8849879999999999,2.0125,-2.205,-3.08
112,188686,0.46945600000000004,0.02928,-0.8857200999999999,2.0125,-2.2575,-3.0625
113,188783,0.46848,0.028792,-0.886452,2.0125,-2.2575,-3.115
114,188880,0.4697,0.028548,-0.887916,1.925,-2.1,-3.0625
115,188977,0.465796,0.027816000000000004,-0.8869401,2.03,-2.17,-3.0275
116,189074,0.46848,0.028304000000000003,-0.885964,1.96,-2.1,-3.0975
117,189171,0.468724,0.0305,-0.8842561,1.96,-2.135,-3.115
118,189268,0.46774799999999994,0.027083999999999997,-0.888648,1.925,-2.135,-3.1325
119,189365,0.46921199999999996,0.031232,-0.8866961,1.9075,-2.1875,-3.22
120,189463,0.46726,0.028792,-0.886452,2.0475,-2.1,-3.115
121,189560,0.467016,0.02928,-0.8842561,1.995,-2.1525,-3.0975
122,189657,0.468236,0.027083999999999997,-0.8866961,2.0125,-2.135,-3.1325
123,189754,0.47043199999999996,0.027572000000000003,-0.8845,2.03,-2.0825,-3.15
124,189851,0.46774799999999994,0.02928,-0.8847440999999999,2.03,-2.1875,-3.1675
125,189948,0.46921199999999996,0.02928,-0.887916,1.995,-2.1,-3.15
126,190045,0.469944,0.028792,-0.8849879999999999,2.03,-2.0475,-3.045
127,190142,0.466772,0.026595999999999998,-0.8874280999999999,1.96,-2.17,-3.0975
128,190239,0.46774799999999994,0.028304000000000003,-0.8874280999999999,1.9775,-2.17,-3.0975
129,190336,0.466772,0.027083999999999997,-0.8888921000000001,2.03,-2.205,-3.0975
130,190434,0.466772,0.027327999999999998,-0.8857200999999999,2.0475,-2.2575,-3.1325
131,190531,0.467992,0.027572000000000003,-0.8881600000000001,2.0825,-2.2225,-3.185
132,190628,0.467504,0.028548,-0.887184,2.0825,-2.3625,-3.115
133,190725,0.468236,0.02684,-0.8884040000000001,1.96,-2.275,-3.0275
134,190822,0.467504,0.027327999999999998,-0.887916,1.96,-2.2225,-3.0625
135,190919,0.467504,0.027572000000000003,-0.8881600000000001,2.0125,-2.135,-3.185
136,191016,0.468724,0.027083999999999997,-0.8888921000000001,2.0125,-2.205,-3.1675
137,191113,0.46774799999999994,0.028792,-0.8866961,2.0125,-2.275,-3.185
138,191210,0.46896800000000005,0.027816000000000004,-0.886452,2.0125,-2.2925,-3.15
139,191307,0.46726,0.027572000000000003,-0.887184,2.1,-2.345,-3.1675
140,191404,0.46921199999999996,0.029524,-0.8866961,2.065,-2.2925,-3.1675
141,191501,0.467016,0.028792,-0.8876719999999999,2.0475,-2.3625,-3.045
142,191598,0.46945600000000004,0.026108,-0.885964,2.0125,-2.2225,-3.115
143,191695,0.46628400000000003,0.027327999999999998,-0.8876719999999999,1.995,-2.31,-3.115
144,191793,0.467016,0.027816000000000004,-0.8869401,2.065,-2.3275,-3.115
145,191890,0.468724,0.029524,-0.8862081,1.995,-2.2225,-3.1325
146,191987,0.468236,0.025863999999999998,-0.886452,1.96,-2.2925,-3.2025
147,192084,0.4697,0.029768,-0.8862081,2.065,-2.345,-3.1675
148,192181,0.46628400000000003,0.02806,-0.8869401,1.925,-2.38,-3.15
149,192278,0.46774799999999994,0.027572000000000003,-0.8884040000000001,2.065,-2.3275,-3.15
150,192375,0.4697,0.028304000000000003,-0.8884040000000001,2.0475,-2.345,-3.1325
151,192472,0.46726,0.027327999999999998,-0.8884040000000001,2.0125,-2.31,-3.0975
152,192569,0.46726,0.028304000000000003,-0.8874280999999999,1.995,-2.345,-3.2025
153,192666,0.468236,0.027816000000000004,-0.8866961,1.89,-2.275,-3.22
154,192763,0.472384,0.028792,-0.8852321,1.6275,-1.9775,-3.255
155,192860,0.47067600000000004,0.028792,-0.8884040000000001,1.435,-1.645,-3.1675
156,192957,0.47092,0.027816000000000004,-0.8869401,1.26,-1.2775,-3.08
157,193055,0.47384799999999994,0.02196,-0.889624,0.98,-1.19,-3.1325
158,193152,0.46774799999999994,0.027816000000000004,-0.8874280999999999,1.26,-1.295,-3.2025
159,193249,0.470188,0.022448,-0.888648,1.4875,-1.3475,-3.4125
160,193346,0.472628,0.027816000000000004,-0.8913321,1.05,-1.47,-3.71
161,193443,0.467016,0.024888,-0.903532,1.0675,-1.12,-3.9725
162,193540,0.473116,0.028548,-0.8940161,1.61,-0.455,-4.1125
163,193637,0.463844,0.022203999999999998,-0.883524,1.6275,-0.105,-4.725
164,193734,0.47043199999999996,0.042456,-0.8893800999999999,1.1025,0.2275,-5.3725
165,193831,0.465308,0.020008,-0.88328,1.4,-0.105,-5.74
166,193928,0.46896800000000005,0.034404000000000004,-0.8881600000000001,1.5575,-0.42,-5.81
167,194025,0.473116,0.033184,-0.8813280000000001,1.435,-0.805,-5.915
168,194122,0.468236,0.030256,-0.8727879999999999,1.8375,-1.015,-5.7925
169,194219,0.468236,0.0305,-0.8810841,1.645,-0.8575,-5.7225
170,194317,0.4758,0.02562,-0.894748,1.645,-0.9275,-5.95
171,194414,0.472628,0.035624,-0.883768,1.75,-0.9275,-5.9675
172,194511,0.465308,0.033428,-0.8813280000000001,1.7325,-1.1025,-5.845
173,194608,0.46481999999999996,0.029768,-0.879376,1.8025,-1.295,-5.53
174,194705,0.46311199999999997,0.038308,-0.8808401,1.785,-1.505,-5.075
175,194802,0.466528,0.03294,-0.8791321,2.1175,-1.645,-4.655
176,194899,0.46628400000000003,0.031476,-0.879864,2.1875,-1.8025,-4.1825
177,194996,0.466772,0.03416,-0.8820601,2.2925,-2.065,-3.885
178,195093,0.471164,0.034648000000000005,-0.8823040000000001,2.17,-2.0125,-3.745
179,195190,0.46921199999999996,0.031476,-0.883524,2.17,-2.1175,-3.605
180,195287,0.471408,0.031476,-0.8849879999999999,2.0825,-2.1525,-3.5525
181,195384,0.471896,0.032695999999999996,-0.8815719999999999,2.03,-2.1,-3.57
182,195481,0.472872,0.03172,-0.8815719999999999,1.995,-2.2225,-3.605
183,195579,0.466528,0.034404000000000004,-0.8805960999999999,1.8375,-2.345,-3.4825
184,195676,0.471896,0.030256,-0.8842561,1.9775,-2.2925,-3.3075
185,195773,0.46945600000000004,0.0366,-0.8849879999999999,1.96,-2.3975,-3.045
186,195870,0.47165200000000007,0.030744,-0.8862081,2.17,-2.2575,-3.01
187,195967,0.472872,0.029768,-0.8827921000000001,2.1875,-2.1875,-2.94
188,196064,0.47482399999999997,0.029768,-0.885476,1.9775,-2.24,-3.0625
189,196161,0.47555600000000003,0.026108,-0.8869401,1.925,-2.1,-3.36
190,196258,0.467992,0.032695999999999996,-0.883768,1.645,-2.0825,-3.885
191,196355,0.470188,0.0366,-0.8813280000000001,1.7325,-2.1525,-3.9725
192,196452,0.472872,0.032695999999999996,-0.8849879999999999,1.9425,-2.17,-3.7975
193,196549,0.471408,0.034648000000000005,-0.8820601,2.065,-2.345,-3.64
194,196646,0.471164,0.03782,-0.882548,2.065,-2.4675,-3.4125
195,196744,0.467992,0.030256,-0.8818159999999999,2.0475,-2.5725,-3.36
196,196841,0.471164,0.036112,-0.8820601,2.0475,-2.555,-3.1675
197,196938,0.47555600000000003,0.038796,-0.883036,2.0825,-2.73,-3.115
198,197035,0.468724,0.040748,-0.8784,2.415,-3.0975,-2.9925
199,197132,0.47043199999999996,0.036356,-0.8847440999999999,2.275,-3.36,-2.835
200,197229,0.472628,0.03416,-0.886452,2.345,-3.6575,-2.59
201,197326,0.467504,0.030012,-0.8827921000000001,2.66,-3.8325,-2.2925
202,197423,0.419192,0.052216,-0.8632719999999999,2.6775,-4.2875,-1.8725
203,197520,0.40748,0.065148,-0.858392,2.6075,-4.0075,-0.9625
204,197617,0.416508,0.059048,-0.883524,2.8,-2.485,0.4025
205,197714,0.47360399999999997,0.045384,-0.9018241,5.6,-1.12,2.0125
206,197812,0.490928,0.02806,-0.8893800999999999,8.645,-1.0675,2.8525
207,197909,0.48214399999999996,0.02684,-0.886452,8.435,-1.8375,2.3275
208,198006,0.481412,0.0183,-0.885964,7.7875,-1.89,2.1875
209,198103,0.479216,0.007076001,-0.883036,6.9825,-2.1,1.1725
210,198200,0.487756,0.016347999999999998,-0.8874280999999999,5.9675,-2.7125,0.1225
211,198297,0.48312,0.00366,-0.885476,5.495,-3.71,-0.98
212,198394,0.467992,0.00244,-0.88328,5.005,-4.7075,-1.995
213,198491,0.484828,-0.002196,-0.8869401,3.8325,-5.145,-3.4125
214,198588,0.473116,0.002684,-0.8810841,2.5025,-5.4425,-4.69
215,198685,0.468236,-0.00122,-0.882548,1.225,-5.2325,-5.3725
216,198782,0.477264,0.02074,-0.888648,0.105,-4.655,-5.6875
217,198880,0.48922,0.036356,-0.892064,-0.35,-4.305,-6.0025
218,198977,0.49263599999999996,0.020496,-0.891576,-0.1925,-4.5325,-5.845
219,199074,0.492392,0.016592,-0.889136,-0.14,-5.11,-5.6875
220,199171,0.487512,0.018544,-0.8876719999999999,-0.2975,-5.775,-5.95
221,199268,0.457744,0.025863999999999998,-0.8718120999999999,-0.7875,-6.2475,-6.195
222,199365,0.44334799999999996,0.037088,-0.8769360999999999,-1.5925,-5.7925,-6.3875
223,199462,0.44993599999999995,0.02928,-0.879864,-2.345,-4.655,-6.3
224,199559,0.44554399999999994,0.032451999999999995,-0.8786440999999999,-3.115,-3.85,-5.915
225,199656,0.44993599999999995,0.028792,-0.882548,-3.8675,-3.0625,-5.6525
226,199753,0.45554799999999995,0.038551999999999996,-0.888648,-4.34,-2.4325,-5.1975
227,199850,0.45432799999999995,0.046848,-0.887184,-4.3925,-2.0475,-4.935
228,199947,0.457988,0.040748,-0.889624,-3.92,-1.0675,-4.3925
229,200044,0.46238,0.0427,-0.8908440999999999,-3.71,-0.1575,-3.8325
230,200142,0.466772,0.046604,-0.889868,-3.115,0.2625,-3.4475
231,200239,0.44993599999999995,0.05172801,-0.889624,-2.4325,0.385,-3.0975
232,200336,0.46774799999999994,0.043432,-0.895236,-1.75,0.8225,-2.45
233,200433,0.471408,0.046604,-0.89426,-0.8925,0.9275,-1.645
234,200530,0.47165200000000007,0.042212,-0.887184,-0.0525,0.6475,-1.0675
235,200627,0.468724,0.041236,-0.8874280999999999,0.7,0.315,-0.5075
236,200724,0.45603599999999994,0.043676,-0.8881600000000001,1.61,-0.21,0.035
237,200821,0.45457200000000003,0.049044,-0.889624,2.8875,-0.5075,0.77
238,200918,0.46457600000000004,0.04514,-0.8884040000000001,4.27,-0.7525,1.5225
239,201015,0.4594521,0.035624,-0.8857200999999999,5.3025,-1.05,1.96
240,201112,0.461404,0.038551999999999996,-0.8869401,6.055,-1.2425,2.415
241,201209,0.46042799999999995,0.042456,-0.8849879999999999,7.5425,-1.26,2.905
242,201306,0.467016,0.0366,-0.8813280000000001,8.015,-1.0325,3.3075
243,201404,0.4941,0.018056,-0.882548,7.7875,-0.5775,3.57
244,201501,0.452132,0.037332,-0.8740081000000001,6.09,-0.77,3.3775
245,201598,0.466528,0.031232,-0.8827921000000001,5.1275,-0.2275,3.395
246,201695,0.469944,0.020008,-0.8820601,5.075,0.21,3.57
247,201792,0.472628,0.024156,-0.883036,5.1275,0.105,3.5175
248,201889,0.46774799999999994,0.01708,-0.8788879999999999,5.1275,0.175,3.43
249,201986,0.47653199999999996,0.01952,-0.8805960999999999,4.3225,0.7525,3.0625
250,202083,0.477508,0.012931999999999999,-0.883036,3.5525,1.2775,2.4675
251,202180,0.472628,0.02074,-0.8874280999999999,2.975,1.68,1.225
252,202277,0.472628,0.017324000000000003,-0.8881600000000001,2.5375,2.6775,0.8925
253,202374,0.47043199999999996,0.015616,-0.8788879999999999,2.1,3.4125,0.63
254,202471,0.476288,0.01464,-0.876692,1.7675,4.095,0.4375
255,202568,0.462624,0.023180000000000003,-0.8769360999999999,1.1025,4.7075,0.175
256,202665,0.46433199999999997,0.025131999999999998,-0.874252,0.175,6.0375,-0.035
257,202763,0.46311199999999997,0.017568,-0.8781559999999999,-1.05,7.8925,0.035
258,202860,0.45579200000000003,0.027327999999999998,-0.8796200000000001,-2.45,9.6425,-0.0525
259,202957,0.45286400000000004,0.021716,-0.8893800999999999,-2.975,12.0225,-0.2975
260,203054,0.47165200000000007,0.027816000000000004,-0.8903561,-3.3075,14.7525,-0.315
261,203151,0.44286000000000003,0.034892,-0.89426,-3.2375,17.5875,-0.7
262,203248,0.456768,0.02806,-0.909632,-2.835,21.595,-1.4875
263,203345,0.43066000000000004,0.047824,-0.8918200000000001,-3.57,26.6525,-1.75
264,203442,0.45896400000000004,-0.01098,-0.882548,-4.8475,34.0025,-2.3975
265,203539,0.426512,-0.009028000999999999,-0.8998719999999999,-6.5625,41.8775,-2.9925
266,203636,0.429928,0.013175999999999998,-0.907436,-8.96,51.835,-3.5525
267,203733,0.43358800000000003,-0.00122,-0.8962120000000001,-10.3075,64.89,-4.4275
268,203830,0.45335200000000003,0.0122,-0.8954801,-11.9525,80.01,-3.9025
269,203927,0.444568,0.015372,-0.942084,-11.1125,97.5625,-1.9075
270,204024,0.453596,0.02074,-0.8996280999999999,-9.45,116.48,0.8225
271,204121,0.46457600000000004,0.028304000000000003,-0.903532,-7.9975,139.0025,4.3925
272,204218,0.47043199999999996,-0.012688,-0.9086559999999999,-2.345,161.77,9.065
273,204316,0.499468,0.025131999999999998,-0.9315921,-0.595,184.3975,13.5625
274,204413,0.502152,0.03538,-0.9433041,2.485,206.2025,18.515
275,204510,0.557052,0.122976,-1.00406,10.3075,228.235,25.305
276,204607,0.585356,0.123464,-1.041392,24.43,252.63,27.3175
277,204704,0.696376,0.231312,-1.13826,38.255,277.6725,28.2275
278,204801,0.7449321,0.26108000000000003,-1.108004,52.4125,300.3525,35.5425
279,204898,0.908168,0.155672,-1.128256,64.4,322.6475,45.36
280,204995,0.9415959999999999,-0.022692,-0.9943001,57.1375,342.8775,51.38
281,205092,0.907436,-0.013908000000000002,-1.065548,43.82,366.6075,54.0925
282,205189,1.3893360000000001,-0.080764,-1.540616,37.87,394.73,51.9925
283,205286,1.1272799999999998,-0.023424,-1.3847,21.0525,394.38,41.37
284,205383,1.2968600000000001,0.016104,-1.4879120000000001,4.7075,392.07,37.3275
285,205480,1.517192,0.394304,-1.7265439999999999,0.7175,384.37,39.5675
286,205577,1.0199200000000002,0.5248441,-1.423252,33.88,354.0075,52.36
287,205674,0.378932,0.434076,-1.142652,75.74,337.3125,66.15
288,205771,0.8261841000000001,0.316956,-2.527352,107.8,313.915,67.445
289,205868,3.036336,-0.21032800000000001,-4.6923639999999995,111.79,235.2,53.69
290,205966,0.735904,0.204228,-2.894084,30.2925,2.8525,33.46
291,206063,-0.016592,0.333548,-1.94956,-19.7575,-118.755,15.2425
292,206160,-0.459696,0.274988,-1.185108,-39.27,-162.015,12.4775
293,206257,-0.299388,0.232776,-1.0645719999999999,-49.455,-157.0975,14.1575
294,206354,-0.030256,0.18056,-1.17608,-61.04,-157.465,13.7375
295,206451,0.198128,0.225944,-1.303204,-78.9775,-176.4875,7.2625
296,206548,0.29987600000000003,0.322324,-1.305888,-92.61001,-209.755,-2.45
297,206645,0.30548800000000004,0.395524,-1.174372,-91.735,-244.7375,-11.655
298,206742,0.26156799999999997,0.381372,-0.9757561,-76.7725,-271.4425,-17.15
299,206839,0.24668400000000001,0.28157600000000005,-0.827892,-59.605,-284.9875,-19.3025
300,206936,0.293532,0.17202,-0.771528,-51.625,-288.085,-20.5975
301,207033,0.36087600000000003,0.09638,-0.787632,-57.89,-288.61,-24.5
302,207130,0.457988,0.08369201,-0.853756,-73.29,-289.0475,-31.395
303,207227,0.583648,0.1098,-0.964044,-89.2675,-290.6225,-39.515
304,207324,0.68686,0.131272,-1.041148,-97.8075,-295.2425,-45.815
305,207421,0.74542,0.09320801,-1.0687200000000001,-99.8375,-300.9125,-50.225
306,207519,0.805688,0.056608000000000006,-1.0765280000000002,-101.1675,-304.4125,-52.745
307,207616,0.8364321,0.049532,-1.060668,-104.545,-304.5,-54.6175
308,207713,0.8169121,0.086132,-1.008208,-108.2725,-299.495,-56.84
309,207810,0.8849879999999999,0.125172,-1.062864,-112.0175,-284.06,-61.39
310,207907,1.210972,0.25254,-1.397632,-114.695,-262.5875,-72.345
311,208004,1.59332,0.395768,-1.7385,-111.265,-253.4175,-90.52750999999999
312,208101,1.8231680000000001,0.4087,-1.8465919999999998,-94.51751,-263.4275,-114.3625
313,208198,1.993724,0.23058,-1.795352,-69.7725,-277.935,-142.205
314,208295,2.250656,0.034648000000000005,-1.736304,-51.695,-288.9425,-167.0375
315,208392,2.4809919999999996,-0.09223200000000001,-1.532564,-40.39,-300.685,-183.365
316,208489,2.5571200000000003,-0.08759601,-1.086044,-28.5775,-311.885,-189.805
317,208586,2.572248,-0.029524,-0.5131319999999999,-4.0775,-307.8775,-184.87
318,208683,2.580788,-0.22204000000000002,0.09540401,32.13,-281.3475,-169.8025
319,208780,2.621048,-0.6895439999999999,0.6080479999999999,53.585,-238.21,-149.625
320,208877,2.8748080000000003,-1.16388,0.9945440000000001,37.52,-187.9325,-126.0525
321,208974,3.044876,-1.238544,1.363228,-7.6825,-147.35,-94.65751
322,209071,3.004372,-1.070916,1.70312,-40.04,-111.055,-57.855
323,209169,2.769156,-0.749324,1.791204,-37.24,-65.835,-20.615
324,209266,2.54858,-0.43188000000000004,1.535004,-0.3675,-8.12,14.4025
325,209363,2.506368,-0.2562,1.021384,44.0825,47.565,45.0275
326,209460,2.435852,-0.051972000000000004,0.5368,65.0475,84.2975,68.005
327,209557,0.371612,0.50752,-0.5987760999999999,56.3325,101.2025,84.945
328,209654,-1.717516,2.09108,-3.0148639999999998,37.9225,155.4175,90.9825
329,209751,-0.37746799999999997,1.272948,-1.719712,92.68001,129.5175,87.6925
330,209848,0.43432,0.381372,0.749568,98.9975,151.13,46.2525
331,209945,1.300276,0.19983599999999999,-0.373564,82.355,214.305,-27.6325
332,210042,0.9972281,0.091988,-1.4125159999999999,43.0675,216.615,-88.76
333,210139,0.796416,-0.412116,-1.009916,28.8925,192.0975,-107.7475
334,210236,0.9740479999999999,-1.310524,-0.9506241,36.0325,190.2425,-78.55751
335,210333,2.691808,-0.6368401,-2.68522,32.62,192.115,-16.5725
336,210430,2.395348,-0.162992,-1.377868,57.3125,114.6775,39.305
337,210527,0.570472,0.6019479999999999,-0.774456,33.95,38.045,37.7475
338,210624,0.5673,-0.208864,-1.24806,51.625,48.5625,7.49
339,210722,0.6724640000000001,-0.239852,-1.067744,43.12,37.03,14.9275
340,210819,0.5368,0.5502199999999999,-1.01138,29.19,19.8975,20.58
341,210916,0.5958479999999999,0.050752,-1.047736,40.18,14.1225,8.085
342,211013,0.6109760000000001,-0.058072000000000006,-0.964776,35.8925,2.205,7.665
343,211110,0.528992,0.133468,-0.91012,22.085,-7.56,8.96
344,211207,0.47946000000000005,-0.030744,-0.9030440000000001,17.43,-7.1925,5.39
345,211304,0.481412,-0.02074,-0.904508,11.585,-5.2325,3.8325
346,211401,0.46042799999999995,0.008296000999999999,-0.89792,6.9825,-2.6425,1.5225
347,211498,0.472872,0.029036000000000003,-0.8910879999999999,5.2675,0.2975,-0.2975
348,211595,0.5016641,0.046116000000000004,-0.8918200000000001,3.99,2.7825,-1.47
349,211692,0.5023960999999999,0.07002799999999999,-0.8852321,2.66,3.4475,-2.135
350,211789,0.503128,0.066856,-0.8815719999999999,2.0475,3.9375,-2.1
351,211886,0.504592,0.069052,-0.8815719999999999,2.1,3.5525,-1.925
352,211984,0.500688,0.09540401,-0.8813280000000001,3.36,2.275,-1.4525
353,212081,0.512644,0.08344800000000001,-0.8893800999999999,6.4925,0.455,-0.5425
354,212178,0.51972,0.064172,-0.891576,8.96,-1.995,1.0325
355,212275,0.503128,0.0549,-0.882548,10.3425,-4.3225,2.9575
356,212372,0.478972,0.049044,-0.8791321,11.0075,-5.9675,4.7425
357,212469,0.47994799999999993,0.050263999999999996,-0.876692,11.9175,-6.58,6.5625
358,212566,0.476288,0.044896,-0.873276,11.8125,-6.545,7.14
359,212663,0.46945600000000004,0.05246,-0.8727879999999999,9.9925,-5.46,6.3875
360,212760,0.46603999999999995,0.039772,-0.868884,7.385,-3.8675,4.865
361,212857,0.47360399999999997,0.05368,-0.8805960999999999,4.6375,-0.98,2.835
362,212954,0.49141599999999996,0.029036000000000003,-0.874984,2.415,0.4375,1.6275
363,213051,0.465796,0.038551999999999996,-0.8866961,1.5575,0.8225,1.015
364,213148,0.467992,0.050508,-0.8840120000000001,3.2725,1.5225,1.645
365,213245,0.46433199999999997,0.06490399999999999,-0.8786440999999999,6.335,2.03,3.6575
366,213342,0.477264,0.06124401,-0.87718,8.715,2.5025,5.6875
367,213440,0.461892,0.05856,-0.8788879999999999,9.7125,2.4325,6.9825
368,213537,0.476288,0.07027201,-0.8735200000000001,9.135,2.4675,5.845
369,213634,0.473116,0.029768,-0.87108,7.9625,3.6925,6.5625
370,213731,0.47458,0.025131999999999998,-0.8718120999999999,5.5825,5.6175,6.0725
371,213828,0.459696,0.033184,-0.8757159999999999,3.3075,7.7175,5.4425
372,213925,0.471164,0.025863999999999998,-0.8757159999999999,1.9075,10.6925,4.9525
373,214022,0.483608,0.004148001,-0.868152,0.8225,14.1225,4.3225
374,214119,0.44505600000000006,0.027572000000000003,-0.8708360999999999,-0.7525,16.8175,3.29
375,214216,0.45871999999999996,-0.010736,-0.8676640999999999,-1.68,21.42,2.03
376,214313,0.493612,0.034892,-0.8849879999999999,-3.6925,25.9175,0.9625
377,214410,0.482388,0.007564001,-0.8723001,-3.99,29.225,-0.035
378,214507,0.48116800000000004,-0.014884,-0.8698601,-4.9175,32.865,-1.855
379,214604,0.480436,-0.002196,-0.8757159999999999,-6.615,38.4475,-4.655
380,214701,0.47336000000000006,-0.001952,-0.8813280000000001,-7.84,45.4125,-7.5425
381,214798,0.47043199999999996,-0.002684,-0.8725440999999999,-8.925,54.285,-9.275
382,214896,0.452376,-0.021716,-0.880352,-10.745,65.9225,-10.5875
383,214993,0.463844,-0.020008,-0.9030440000000001,-13.23,79.6075,-11.06
384,215090,0.453596,0.028548,-0.8720559999999999,-16.205,95.26999,-10.6575
385,215187,0.46726,0.013663999999999999,-0.8730319999999999,-16.765,114.7475,-8.8025
386,215284,0.464088,0.02196,-0.889624,-16.59,136.115,-5.075
387,215381,0.471164,0.009272001,-0.9110959999999999,-15.26,160.51,-1.5925
388,215478,0.45871999999999996,0.08174001,-0.9052401,-14.0175,188.8775,1.75
389,215575,0.468236,0.126392,-0.9059721,-12.355,221.025,9.835
390,215672,0.48653599999999997,0.223016,-0.9472079999999999,-6.79,253.68,22.3125
391,215769,0.5058121,0.1159,-0.9296399999999999,9.1875,288.0675,29.855
392,215866,0.582916,0.042944,-1.0018639999999999,20.37,321.895,33.8975
393,215963,0.955992,0.419192,-1.215852,25.6025,357.7175,36.2425
394,216060,0.7788480999999999,0.34038,-1.1446040000000002,46.0425,380.2575,44.1
395,216157,1.381772,-0.030256,-1.327116,56.8225,416.4825,55.4925
396,216255,1.076284,0.23692399999999997,-1.040416,35.735,445.235,68.0225
397,216352,1.9827439999999998,-0.027816000000000004,-1.8282919999999998,32.9875,495.2675,74.11251
398,216449,1.7646080000000002,0.06124401,-1.837076,5.81,491.26,70.0175
399,216546,2.174528,0.214964,-2.198196,-15.2775,460.74,63.385
400,216643,1.9820119999999999,0.638304,-2.3136080000000003,-13.44,414.785,74.0075
401,216740,0.490196,0.891576,-1.722884,25.9525,351.4175,98.07
402,216837,0.242048,-0.5738880000000001,-1.02114,40.3025,324.8875,83.2825
403,216934,3.343288,-0.033428,-4.521319999999999,25.305,338.3625,101.2725
404,217031,1.905152,0.462868,-3.559228,-27.0025,136.5525,89.53
405,217128,0.658312,0.7503,-2.693516,-47.4775,-42.8575,68.845
406,217225,0.05124001,0.619516,-1.741672,-28.9625,-126.42,61.845
407,217322,-0.339648,0.47458,-1.1468,-5.915,-157.78,58.205
408,217419,-0.34404,0.352092,-0.9235399999999999,0.7175,-159.8625,55.265
409,217516,-0.222284,0.267424,-0.9128040000000001,-4.375,-160.4575,49.4725
410,217613,-0.06270801,0.264252,-0.965996,-19.215,-170.0825,40.635
411,217711,0.081984,0.306952,-1.015772,-35.035,-188.2125,31.29
412,217808,0.193004,0.36136399999999996,-1.029436,-45.395,-211.61,23.4675
413,217905,0.264008,0.410652,-1.010404,-49.245,-236.46,17.0275
414,218002,0.364048,0.423584,-0.9969841,-48.4925,-259.2625,10.2025
415,218099,0.46726,0.41016400000000003,-0.9840521000000001,-48.2125,-280.035,1.3825
416,218196,0.571692,0.396012,-0.9813681000000001,-51.3275,-299.0925,-10.605
417,218293,0.678076,0.37990799999999997,-0.9730721,-58.0475,-317.065,-26.845
418,218390,0.729804,0.379664,-0.934276,-65.835,-333.48,-45.465
419,218487,0.7747001,0.37576,-0.9154880999999999,-70.7175,-344.4,-63.875
420,218584,0.8762040000000001,0.339892,-0.9562360999999999,-71.9775,-349.2125,-79.87
421,218681,0.9408639999999999,0.29158,-0.9757561,-71.015,-352.1175,-92.19001
422,218778,1.010648,0.23253200000000002,-1.022116,-71.3825,-352.555,-100.94
423,218875,1.0948280000000001,0.190564,-1.081652,-75.4425,-350.245,-106.61
424,218973,1.149728,0.156404,-1.110688,-82.53,-345.9925,-109.1825
425,219070,1.158268,0.153476,-1.0645719999999999,-91.7175,-338.7125,-109.375
426,219167,1.175348,0.200812,-1.0736,-97.335,-319.9875,-107.8175
427,219264,1.524512,0.24570799999999998,-1.444968,-95.515,-287.7525,-107.2225
428,219361,2.199904,0.2257,-1.9549279999999998,-92.71500999999999,-265.3,-114.31
429,219458,2.560292,0.199348,-2.061312,-87.7275,-279.265,-126.945
430,219555,2.80112,-0.07808001,-1.9532200000000002,-78.75,-307.2475,-140.5775
431,219652,2.97192,-0.355996,-1.6091799999999998,-77.735,-333.585,-151.655
432,219749,2.961916,-0.47213999999999995,-1.053348,-82.705,-354.41,-152.25
433,219846,3.018768,-0.5885281,-0.35502,-79.87,-354.9175,-141.12
434,219943,3.027308,-0.500444,0.05856,-78.2075,-333.76,-123.0775
435,220040,3.03048,-0.744444,0.659288,-63.56,-295.5575,-93.5725
436,220137,3.117832,-1.130452,1.2395200000000002,-56.945,-250.1275,-64.295
437,220235,3.351828,-1.60796,1.8892919999999997,-75.46,-201.425,-36.645
438,220332,3.4648,-1.548912,2.3607,-116.1825,-148.9075,-10.01
439,220429,3.184444,-0.9625799999999999,2.329468,-134.6275,-89.74,11.83
440,220526,2.814052,-0.423584,1.865868,-86.3625,-17.08,23.66
441,220623,2.6598439999999997,-0.260104,1.211216,5.425,55.825,30.66
442,220720,0.749324,0.8757159999999999,-0.66856,86.45,112.4375,45.7275
443,220817,-2.160132,2.125728,-2.82552,141.995,183.0325,78.4
444,220914,-0.60878,0.823744,-0.9484280999999999,193.655,211.2775,112.3325
445,221011,1.205848,-1.01626,1.485472,239.645,241.7625,72.695
446,221108,1.500844,-0.681492,-0.709064,126.7175,299.635,-26.6175
447,221205,1.5372,-1.0650600000000001,-1.9236959999999999,42.9275,288.3475,-85.54
448,221302,1.808284,-1.7575319999999999,-1.2841719999999999,48.8075,250.3375,-35.1575
449,221399,3.9589,-0.151036,-2.7237720000000003,63.035,221.8125,42.42
450,221496,1.260748,1.117764,-1.4154440000000001,63.2625,105.98,61.7225
451,221594,0.8849879999999999,-1.129476,-1.4452120000000002,96.0575,68.65250999999999,23.0825
452,221691,0.69906,-0.46042799999999995,-1.1829120000000002,48.5975,60.55,27.0725
453,221788,0.472872,0.823744,-1.143628,29.575,23.87,32.0775
454,221885,0.636108,-0.26108000000000003,-1.158756,46.55,31.325,3.3775
455,221982,0.582184,-0.005368,-0.944768,30.52,10.99,3.605
456,222079,0.5511961,0.11834000000000001,-0.9435479999999999,13.8075,5.565,4.375
457,222176,0.522648,-0.09125599999999999,-0.9284200999999999,14.2625,5.5475,-0.35
458,222273,0.49751599999999996,0.001952,-0.935008,6.195,4.3225,-1.295
459,222370,0.48214399999999996,0.007076001,-0.915976,2.94,6.545,-5.39
460,222467,0.484096,0.05172801,-0.9086559999999999,-0.0525,8.7325,-6.4225
461,222564,0.529968,0.02196,-0.9118280000000001,-0.315,11.2875,-8.26
462,222661,0.5172800999999999,0.079056,-0.9025559999999999,-2.59,11.2175,-8.1375
463,222759,0.5172800999999999,0.063196,-0.8971879999999999,-2.59,11.935,-7.175
464,222856,0.502884,0.069052,-0.8945040000000001,-2.4675,11.4275,-4.7425
465,222953,0.48824399999999996,0.055388,-0.8862081,-2.52,10.7275,-3.4825
466,223050,0.485804,0.05636401,-0.883524,-2.8175,10.4475,-3.0975
467,223147,0.479704,0.06661201,-0.88328,-2.5375,10.71,-2.905
468,223244,0.48385200000000006,0.067588,-0.879376,-2.1,10.7625,-2.6075
469,223341,0.472628,0.07710399999999999,-0.876692,-1.3475,10.57,-2.1875
470,223438,0.48922,0.07637200000000001,-0.879864,-0.245,10.675,-1.61
471,223535,0.5009319999999999,0.067344,-0.8769360999999999,0.4375,10.6225,-0.8575
472,223632,0.490684,0.06832001,-0.869616,0.56,9.59,-0.42
473,223729,0.49995600000000007,0.07027201,-0.8664440000000001,0.4725,9.3275,0.0
474,223826,0.502884,0.061975999999999996,-0.864492,0.63,8.6275,1.085
475,223923,0.504836,0.061488,-0.8540000000000001,0.35,7.7175,2.0475
476,224020,0.510204,0.064416,-0.858392,-0.245,6.8775,2.8175
477,224118,0.5016641,0.07002799999999999,-0.8552200000000001,-0.28,5.8275,3.5175
478,224215,0.49873599999999996,0.058072000000000006,-0.8479,0.035,5.285,3.9375
479,224312,0.49776000000000004,0.08662001,-0.8642481,0.245,4.9875,4.48
480,224409,0.49556400000000006,0.08100801,-0.850584,0.98,4.4625,5.4775
481,224506,0.48873199999999994,0.096624,-0.8491200000000001,1.785,4.2,7.14
482,224603,0.499224,0.0488,-0.8432639999999999,2.8,4.235,8.5225
483,224700,0.494588,0.063684,-0.8579041,1.47,5.145,8.0325
484,224797,0.47360399999999997,0.058803999999999995,-0.8518040000000001,0.315,6.65,7.4375
485,224894,0.470188,0.033184,-0.85644,-0.0875,9.8875,6.4575
486,224991,0.46726,0.034404000000000004,-0.863028,-1.7675,13.9125,3.9725
487,225088,0.49044,0.027083999999999997,-0.8813280000000001,-2.8175,19.1275,2.345
488,225186,0.492148,0.015616,-0.868152,-3.01,24.255,-0.0175
489,225283,0.503372,0.030256,-0.8632719999999999,-3.92,29.1725,-2.555
490,225380,0.499224,0.0305,-0.853756,-5.3375,34.65,-4.62
491,225477,0.492148,0.040992,-0.8479,-6.72,40.5475,-6.23
492,225574,0.48312,0.06636801,-0.8596120999999999,-7.315,47.495,-7.0
493,225671,0.46042799999999995,0.052703999999999994,-0.8730319999999999,-6.545,56.77,-6.72
494,225768,0.465796,0.01342,-0.8888921000000001,-6.3175,69.615,-5.705
495,225865,0.48531599999999997,0.015616,-0.87474,-7.735,84.8225,-5.145
496,225962,0.478728,-0.046360000000000005,-0.8608319999999999,-7.105,102.2875,-5.6875
497,226059,0.4941,-0.010736,-0.8718120999999999,-7.3675,121.205,-6.4925
498,226156,0.5104479999999999,0.013175999999999998,-0.879376,-9.275,141.3475,-5.8975
499,226253,0.490684,0.030744,-0.889136,-10.29,163.8,-3.6575
500,226351,0.49288000000000004,0.042456,-0.8759601,-9.73,190.47,-1.0325
501,226448,0.49776000000000004,0.156648,-0.8727879999999999,-9.66,219.415,4.34
502,226545,0.499712,0.277672,-0.8788879999999999,-6.6675,250.8975,13.93
503,226642,0.470188,0.032208,-0.8571719999999999,2.38,285.0575,18.095
504,226739,0.5665680000000001,0.02928,-0.8554641,1.995,321.5625,18.7075
505,226836,1.013576,0.482876,-1.2719719999999999,-5.88,365.015,12.53
506,226933,0.9964959999999999,0.305,-1.190476,11.0075,387.6075,21.6475
507,227030,1.126792,-0.110044,-0.9623360999999999,12.775,416.43,32.5325
508,227127,1.3029600000000001,0.122244,-1.069696,-13.685,460.2675,43.3125
509,227224,1.9883560000000002,0.190076,-1.870016,-25.2525,506.1525,55.3
510,227321,1.962248,0.319396,-1.938336,-41.1425,501.4625,50.1375
511,227418,2.0425240000000002,0.35624,-2.128412,-31.01,463.085,49.1575
512,227516,2.008364,0.635864,-2.262368,-6.65,419.335,68.46
513,227613,0.300852,0.515572,-1.587952,28.07,365.4525,89.6875
514,227710,0.0549,0.269864,-1.458144,9.6425,345.555,77.4375
515,227807,2.3077520000000002,0.06124401,-2.4795279999999997,1.855,344.715,77.77
516,227904,3.212016,0.6019479999999999,-4.753851999999999,-41.265,247.1875,62.16
517,228001,1.206336,0.8610761,-3.1756599999999997,-44.135,-18.2525,46.7775
518,228098,0.313784,0.798856,-2.1691599999999998,-25.3925,-133.1925,32.2175
519,228195,-0.10760399999999999,0.4575,-1.396656,11.48,-191.38,31.22
520,228292,-0.318664,0.311832,-0.96624,24.5,-201.985,35.35
521,228389,-0.20178800000000002,0.189832,-0.887184,22.82,-197.8725,37.3275
522,228486,0.013175999999999998,0.162992,-0.972828,6.4575,-199.605,34.0025
523,228584,0.2257,0.24131599999999997,-1.075552,-14.56,-214.9,27.825
524,228681,0.40016,0.35014,-1.150216,-28.98,-240.9575,21.315
525,228778,0.454084,0.47946000000000005,-1.113372,-29.8375,-273.28,17.01
526,228875,0.495076,0.5294800000000001,-1.041148,-16.87,-301.4025,15.9075
527,228972,0.5292359999999999,0.490928,-0.949892,1.12,-322.0,15.82
528,229069,0.6068279999999999,0.387472,-0.91012,10.4125,-335.9825,13.5625
529,229166,0.68198,0.307684,-0.8796200000000001,3.9025,-347.55,5.845
530,229263,0.721996,0.27889200000000003,-0.855708,-14.9275,-358.575,-7.595
531,229360,0.7515201,0.29768,-0.8459479999999999,-36.085,-365.6275,-23.7125
532,229457,0.7983680000000001,0.31842,-0.868884,-51.625,-367.5175,-38.78
533,229554,0.88328,0.318176,-0.9269561,-59.745,-365.1375,-50.715
534,229651,0.964776,0.292068,-0.9903959999999999,-63.8575,-361.97,-59.78
535,229748,1.0431,0.25864000000000004,-1.0589600000000001,-68.1625,-358.015,-66.64
536,229846,1.106784,0.223992,-1.092632,-75.8975,-353.22,-71.575
537,229943,1.146312,0.208132,-1.078724,-86.8875,-345.835,-75.04
538,230040,1.163392,0.24522,-1.108004,-98.5775,-330.365,-77.0
539,230137,1.408124,0.320128,-1.434232,-108.1675,-302.89,-79.94
540,230234,2.05936,0.388936,-1.9590759999999998,-115.4475,-278.7225,-90.58001
541,230331,2.497584,0.49532,-2.1225560000000003,-113.2425,-287.14,-108.395
542,230428,2.68522,0.46921199999999996,-1.9722520000000001,-94.6925,-313.67,-129.5
543,230525,2.791116,0.168848,-1.617964,-72.17,-335.9825,-152.2675
544,230622,2.8870080000000002,-0.141764,-1.16266,-62.0025,-346.2725,-174.86
545,230719,3.04146,-0.303292,-0.692472,-57.96,-342.44,-185.815
546,230816,3.19152,-0.441884,-0.17055599999999999,-43.47,-325.5,-176.82
547,230914,3.2156759999999998,-0.693204,0.423828,-20.09,-297.71,-151.9
548,231011,3.233732,-1.0911680000000001,1.12972,-4.095,-258.5975,-120.47
549,231108,3.4311279999999997,-1.53598,1.833172,-10.325,-209.2825,-84.5075
550,231205,3.626572,-1.7516759999999998,2.443416,-37.905,-153.79,-40.705
551,231302,3.342068,-1.3115,2.567368,-70.385,-90.37001,10.5175
552,231399,2.955816,-0.6856399999999999,2.128168,-63.9625,-12.4775,53.515
553,231496,2.8128319999999998,-0.24717199999999998,1.335656,-18.2,64.365,80.3425
554,231593,2.776964,0.037576,0.5355800999999999,30.6425,117.88,92.2425
555,231690,-0.053191999999999996,1.486204,-2.551752,55.3875,141.9075,98.9275
556,231787,-1.7821759999999998,2.5949400000000002,-3.817136,82.46,179.13,81.41001
557,231884,-0.934276,1.1211799999999998,-0.11736400000000001,139.9125,138.5825,88.865
558,231981,0.73444,-0.818376,2.3614319999999998,187.005,211.2775,20.37
559,232079,1.728984,-0.260104,-1.1265479999999999,74.13,317.2925,-66.57
560,232176,1.486936,-0.6451359999999999,-1.975668,12.005,287.3325,-116.2
561,232273,1.13826,-1.5189,-0.8127641,23.835,233.905,-74.7775
562,232370,2.955084,0.08466801,-2.822348,38.185,236.985,18.165
563,232467,2.789164,0.8127641,-1.713612,77.035,168.2275,66.3075
564,232564,0.7285841,-0.269376,-0.8698601,94.88501,69.2475,47.11
565,232661,0.9669721,-0.9701440999999998,-1.7082439999999999,89.53,76.335,29.645
566,232758,0.60512,0.252784,-0.9386681,53.6375,38.22,47.5125
567,232855,0.531676,0.49995600000000007,-1.17486,49.0175,20.685,36.085
568,232952,0.591212,-0.274988,-1.154364,62.615,22.155,16.2225
569,233049,0.5799880000000001,0.152988,-1.022604,45.0975,2.8525,21.455
570,233147,0.48116800000000004,0.06563601,-0.892308,34.8075,-4.445,16.59
571,233244,0.5267960999999999,-0.077592,-0.916464,29.61,-4.3225,12.67
572,233341,0.461892,0.003904,-0.9174399999999999,21.525,-5.3025,11.0425
573,233438,0.474092,-0.09540401,-0.9198799999999999,18.76,-1.9775,6.545
574,233535,0.519476,-0.015616,-0.9230520000000001,15.1725,1.4525,4.5675
575,233632,0.494832,-0.002684,-0.8913321,13.8775,1.505,3.99
576,233729,0.48824399999999996,0.030744,-0.8845,12.1275,2.1,2.7825
577,233826,0.500444,0.006344,-0.887916,9.135,3.36,0.945
578,233923,0.542168,-0.028548,-0.8940161,7.0,4.69,-0.7875
579,234020,0.48068,0.01952,-0.887184,4.06,3.99,-1.54
580,234118,0.5002,0.008296000999999999,-0.891576,3.0275,4.6375,-2.3625
581,234215,0.498004,0.019032,-0.893284,3.115,3.99,-2.5725
582,234312,0.49117200000000005,0.033428,-0.8903561,3.2725,2.8175,-2.6075
583,234409,0.485072,0.0305,-0.8847440999999999,3.115,2.0825,-2.45
584,234506,0.478728,0.032208,-0.8805960999999999,1.8725,2.24,-2.1875
585,234603,0.48165600000000003,0.029036000000000003,-0.8698601,0.4375,3.045,-2.135
586,234700,0.47653199999999996,0.042944,-0.877912,-0.945,4.13,-1.89
587,234797,0.48165600000000003,0.033184,-0.8823040000000001,-1.6625,5.0225,-1.295
588,234894,0.481412,0.029524,-0.8781559999999999,-1.8375,5.4775,-0.4025
589,234991,0.478484,0.025131999999999998,-0.877424,-1.9075,6.1425,0.42
590,235088,0.462868,0.033916,-0.8827921000000001,-1.7675,7.1225,1.0675
591,235186,0.465796,0.007564001,-0.87718,-1.575,9.38,1.645
592,235283,0.465796,0.011468,-0.8786440999999999,-2.3975,11.83,0.8925
593,235380,0.46311199999999997,0.011468,-0.876692,-3.0625,14.6475,0.8400001
594,235477,0.461892,0.01952,-0.869128,-3.5,17.2725,0.4025
595,235574,0.462624,-0.020496,-0.8549761,-3.8325,19.9675,-0.5425
596,235671,0.48653599999999997,0.022692,-0.8571719999999999,-5.285,21.8225,-1.4175
597,235768,0.48653599999999997,0.0305,-0.865956,-5.285,23.8,-1.96
598,235865,0.454816,0.021472,-0.868396,-5.4075,26.7575,-1.995
599,235962,0.484096,0.01342,-0.864492,-6.1775,32.095,-2.485
600,236059,0.508008,-0.007076001,-0.8671761,-6.895,37.7475,-3.6575
601,236156,0.5011760000000001,-0.014396,-0.8540000000000001,-8.3475,42.5075,-5.5125
602,236254,0.499468,-0.005612,-0.85156,-10.08,48.16,-7.5425
603,236351,0.490196,0.012444,-0.8491200000000001,-11.7775,54.3725,-9.415
604,236448,0.490684,-0.006344,-0.871568,-12.6,61.74,-10.3425
605,236545,0.459696,0.027327999999999998,-0.8740081000000001,-13.405,70.98001,-10.2725
606,236642,0.488,0.021228,-0.8632719999999999,-13.3,84.9975,-9.5375
607,236739,0.48678,0.021228,-0.855708,-13.3175,100.975,-7.525
608,236836,0.515328,-0.0427,-0.8601,-12.5825,116.1125,-6.2825
609,236933,0.527528,-0.045384,-0.8640040000000001,-12.075,132.02,-6.3525
610,237030,0.5246,0.0061,-0.85644,-11.8825,149.205,-6.2125
611,237127,0.53192,0.033916,-0.8483879999999999,-10.78,168.8225,-4.2525
612,237224,0.504836,0.047092,-0.8727879999999999,-9.5375,191.94,-0.0525
613,237321,0.532652,0.142496,-0.8849879999999999,-5.6175,220.3775,4.375
614,237419,0.51362,0.219356,-0.8796200000000001,3.7625,253.8025,7.91
615,237516,0.5119121,0.18104800000000001,-0.9023121,12.1275,289.59,15.26
616,237613,0.676612,0.233996,-1.080432,14.77,327.8275,25.13
617,237710,0.8988959999999999,0.24131599999999997,-1.06384,21.0175,364.3675,25.8825
618,237807,1.062132,0.21862399999999999,-1.253184,35.6475,394.765,31.08
619,237904,1.159,0.048068,-1.093608,40.5475,429.065,43.8025
620,238001,1.268312,0.042212,-1.199748,34.51,474.46,56.0875
621,238098,2.0557,0.072956,-1.9900639999999998,15.015,522.1475,53.515
622,238195,2.024956,0.2806,-1.9910400000000001,-16.73,501.375,40.215
623,238292,2.1179200000000002,0.111752,-2.24358,-20.3175,467.1275,39.97
624,238389,1.7875439999999998,0.542656,-2.245532,-12.11,423.43,55.475
625,238486,0.199348,0.62098,-1.5469600000000001,3.7625,375.13,73.325
626,238584,0.5160600000000001,-0.626104,-1.38714,-15.645,363.475,62.7375
627,238681,3.932548,-0.115656,-4.86902,-32.7075,348.565,93.5725
628,238778,2.404864,0.670512,-3.95036,-89.79251,127.3825,85.435
629,238875,0.8764481,0.771772,-2.782332,-88.655,-79.3625,71.2075
630,238972,0.288652,0.6602640000000001,-1.8756279999999999,-53.13,-171.1325,72.5375
631,239069,-0.07637200000000001,0.395768,-1.19316,-17.0275,-204.225,78.89
632,239166,-0.114192,0.27523200000000003,-0.9396440999999999,-6.3525,-211.3825,85.085
633,239263,-0.016347999999999998,0.181536,-0.8857200999999999,-12.4075,-214.6025,84.595
634,239360,0.18544000000000002,0.214964,-0.9730721,-29.3475,-225.225,77.54251
635,239457,0.298168,0.30548800000000004,-0.9818561,-43.61,-247.6075,69.685
636,239554,0.286456,0.374784,-0.9091440000000001,-46.83,-274.4875,64.2075
637,239651,0.22862800000000003,0.394548,-0.7808001,-42.805,-294.91,59.3075
638,239749,0.21374400000000002,0.37112399999999995,-0.71004,-38.99,-305.4275,53.4625
639,239846,0.24790399999999999,0.346724,-0.671732,-39.9525,-308.6475,45.0275
640,239943,0.31598000000000004,0.326716,-0.68076,-50.1375,-310.9225,30.7475
641,240040,0.41577600000000003,0.36112,-0.729316,-67.1125,-312.34,10.395
642,240137,0.526552,0.4209,-0.8115439999999999,-83.30001,-314.4225,-14.4025
643,240234,0.654896,0.46433199999999997,-0.927688,-92.2075,-317.1875,-40.915
644,240331,0.8020281,0.44505600000000006,-1.0384639999999998,-93.38,-321.3525,-66.955
645,240428,0.8954801,0.370148,-1.093852,-90.8425,-328.4225,-90.23001
646,240525,0.9291520000000001,0.26596,-1.0645719999999999,-89.5125,-334.3025,-109.9
647,240622,0.915976,0.182268,-0.9867360999999999,-91.77,-333.935,-125.545
648,240719,0.887184,0.1159,-0.8918200000000001,-96.98501,-322.5775,-136.955
649,240816,0.983564,0.11102000000000001,-1.005524,-100.8525,-297.4125,-144.1825
650,240913,1.500844,0.12395199999999999,-1.535248,-99.47001,-265.3175,-149.555
651,241010,1.9068599999999998,0.16714,-1.91418,-92.4525,-255.4125,-152.845
652,241108,2.093032,0.211792,-1.984452,-78.0675,-266.7,-154.8925
653,241205,2.301164,0.14566800000000002,-1.838296,-55.755,-276.255,-159.25
654,241302,2.6703360000000003,-0.23009200000000002,-1.63358,-33.18,-279.72,-167.125
655,241399,3.212504,-0.388936,-1.6972639999999999,-32.8125,-287.805,-171.5
656,241496,3.606564,-0.438712,-1.4661959999999998,-44.45,-311.4475,-163.9925
657,241593,3.43552,-0.37332,-0.7141881,-49.805,-347.5325,-148.225
658,241690,3.202256,-0.519964,0.1769,-42.0525,-354.8825,-131.11
659,241787,2.92312,-0.749324,1.106296,-40.88,-326.4625,-118.2125
660,241884,2.96948,-0.9186601000000001,1.6291879999999999,-51.345,-264.25,-106.6625
661,241981,3.331088,-1.023824,1.7753439999999998,-59.36,-190.5925,-90.66751
662,242078,3.4545519999999996,-1.02968,1.993968,-60.1125,-139.2125,-72.3625
663,242175,3.184444,-0.8842561,2.196732,-46.095,-95.41,-50.715
664,242273,2.84748,-0.698816,2.06546,-12.8625,-36.435,-24.5525
665,242370,2.7008360000000002,-0.529968,1.523048,29.5575,30.94,1.12
666,242467,0.458232,-0.9537959999999999,0.566812,60.1125,81.88251,24.1675
667,242564,-1.533052,1.036268,-2.4151119999999997,44.38,186.34,57.05
668,242661,-0.172752,0.9108521,-3.221044,71.68,203.98,99.27750999999999
669,242758,0.7361481,-0.211304,0.3843,125.965,238.2275,85.9425
670,242855,1.562088,-0.133468,0.363316,83.755,257.81,23.205
671,242952,1.240008,-0.01708,-1.49694,32.305,276.4475,-37.6425
672,243049,1.950048,-0.516304,-1.921012,28.0525,270.3575,-41.2475
673,243146,3.749792,-0.739564,-2.2753,68.95,219.5375,10.745
674,243243,1.577948,0.2196,-1.629432,69.755,115.9725,57.855
675,243340,0.868152,-0.5577840000000001,-1.241716,76.86,66.64,45.57
676,243438,0.733464,-0.105652,-1.256844,44.905,54.7925,35.5075
677,243535,0.752984,0.302804,-1.154852,48.65,25.9875,23.905
678,243632,0.69296,0.008296000999999999,-1.079456,42.315,16.8175,12.0925
679,243729,0.5887720000000001,-0.047580000000000004,-1.0079639999999999,34.58,1.7325,7.385
680,243826,0.521672,0.057828,-0.9198799999999999,20.475,-2.4325,4.1125
681,243923,0.4553041,0.017812,-0.9059721,12.39,-3.0625,1.1725
682,244020,0.48263199999999995,0.011956,-0.9018241,6.3175,-0.28,-0.105
683,244117,0.47702,0.013175999999999998,-0.897432,3.0275,1.8375,-1.3475
684,244214,0.492392,-0.01952,-0.90646,0.4375,3.3075,-3.4475
685,244311,0.5104479999999999,-0.00976,-0.91622,-2.205,5.18,-6.2475
686,244408,0.49556400000000006,0.027572000000000003,-0.9015799999999999,-3.85,5.6875,-8.2425
687,244505,0.509228,0.05977999999999999,-0.9103641,-4.34,6.3875,-8.855
688,244602,0.49898000000000003,0.042944,-0.8969440000000001,-3.3775,6.2825,-8.6975
689,244699,0.49776000000000004,0.05612,-0.8888921000000001,-2.9575,6.6325,-8.7325
690,244797,0.49044,0.0732,-0.89426,-1.8025,6.3875,-8.5925
691,244894,0.499224,0.063196,-0.8888921000000001,0.0,5.95,-8.0675
692,244991,0.492148,0.07222401,-0.8847440999999999,0.805,5.1625,-7.6125
693,245088,0.48678,0.06832001,-0.8813280000000001,0.77,4.97,-7.1225
694,245185,0.47994799999999993,0.06075601,-0.882548,-0.0525,5.0925,-6.72
695,245282,0.484584,0.06490399999999999,-0.87718,-0.63,4.9525,-6.335
696,245379,0.478972,0.061975999999999996,-0.877912,-0.98,4.76,-5.8625
697,245476,0.480192,0.066124,-0.874984,-1.2775,4.8825,-5.5475
698,245573,0.47360399999999997,0.066856,-0.8693719999999999,-1.435,4.935,-5.0925
699,245670,0.472628,0.07588400000000001,-0.8708360999999999,-1.505,5.355,-4.375
700,245767,0.49263599999999996,0.067344,-0.86864,-1.4175,5.915,-3.64
701,245864,0.499468,0.063196,-0.8674200000000001,-1.6275,6.1425,-2.73
702,245961,0.487756,0.056852,-0.8632719999999999,-1.96,5.81,-1.9425
703,246059,0.48678,0.067832,-0.865468,-2.4325,5.9675,-1.1025
704,246156,0.4697,0.06270801,-0.86498,-2.9925,6.335,0.035
705,246253,0.47506800000000005,0.057339999999999995,-0.8601,-3.4825,7.2975,0.98
706,246350,0.46896800000000005,0.06880801,-0.8586360000000001,-4.025,8.47,1.6975
707,246447,0.48263199999999995,0.08662001,-0.8632719999999999,-4.2,9.695,2.205
708,246544,0.45896400000000004,0.039284,-0.8510719999999999,-3.9725,10.955,2.17
709,246641,0.462624,0.05563200000000001,-0.8596120999999999,-5.53,14.1225,1.75
710,246738,0.44773999999999997,0.06344,-0.865956,-7.1925,17.9375,1.19
711,246835,0.47506800000000005,0.044896,-0.877668,-8.61,23.0825,0.5075
712,246932,0.46945600000000004,0.017812,-0.8637601,-9.6425,29.1025,-0.9275
713,247029,0.48653599999999997,0.047824,-0.883768,-11.375,35.7175,-3.15
714,247126,0.473116,0.022203999999999998,-0.8559521000000001,-12.425,43.33,-5.8625
715,247223,0.4743361,0.027083999999999997,-0.863516,-14.63,52.045,-8.575
716,247320,0.483364,0.028304000000000003,-0.8642481,-16.0475,62.44,-10.9725
717,247417,0.4575,0.034648000000000005,-0.8735200000000001,-17.4475,74.62,-13.0725
718,247515,0.45286400000000004,0.042212,-0.84424,-18.9525,88.37501,-14.315
719,247612,0.479704,-0.00122,-0.8544879999999999,-20.2125,104.8425,-14.6825
720,247709,0.49166000000000004,0.016592,-0.853512,-20.72,122.955,-14.77
721,247806,0.48116800000000004,0.033916,-0.85888,-20.0375,144.5675,-13.6675
722,247903,0.55388,-0.038551999999999996,-0.8447280999999999,-19.3725,167.9475,-12.1625
723,248000,0.465552,0.16811600000000002,-0.9093880999999999,-24.92,193.1825,-7.7875
724,248097,0.496784,0.07686,-0.8544879999999999,-16.2925,224.1925,-4.8475
725,248194,0.4697,0.18178,-0.8252079999999999,-15.47,259.9625,-2.6425
726,248291,0.45261999999999997,0.159332,-0.859368,-11.13,300.6325,0.63
727,248388,0.6158561,0.225944,-0.9494040000000001,-7.945,342.405,4.935
728,248485,0.8720559999999999,0.43188000000000004,-1.2012120000000002,1.5925,384.195,3.4125
729,248582,1.226832,0.29646,-1.398364,24.955,414.2425,10.3425
730,248679,0.981612,0.087108,-1.01504,28.07,441.245,22.7325
731,248777,1.48718,0.112972,-1.4154440000000001,17.395,494.515,34.2125
732,248874,1.909788,0.235704,-2.0937639999999997,7.105,531.3525,34.9475
733,248971,1.963468,0.35136,-2.0486240000000002,-1.715,513.2225,25.585
734,249068,1.951756,0.24912399999999998,-1.998604,6.3525,476.035,29.2425
735,249165,1.7265439999999999,0.132004,-2.1652560000000003,5.355,444.4475,32.445
736,249262,0.437492,-0.033672,-1.424472,-56.0525,400.085,18.4625
737,249359,0.212524,0.193004,-2.017636,-146.2825,387.1175,-3.0625
738,249456,3.217628,0.5231359999999999,-3.550932,-143.745,344.3475,24.4825
739,249553,3.203232,1.558916,-5.123512,-115.2375,196.8925,26.0925
740,249650,0.907192,0.9889319999999999,-2.916044,2.31,-87.29,43.1025
741,249747,0.121512,0.46116,-1.945656,74.7075,-187.1625,50.61
742,249844,-0.14396,-0.09613601,-1.168028,97.3175,-225.4525,64.015
743,249941,-0.255712,-0.32452,-0.7829961,64.4,-228.7075,76.1425
744,250039,-0.11541199999999999,-0.28181999999999996,-0.759572,1.5225,-225.7325,84.6475
745,250136,0.08564401,-0.045872,-0.8586360000000001,-60.095,-230.615,87.99
746,250233,0.27889200000000003,0.24497600000000003,-0.9708760000000001,-95.41,-245.3325,89.145
747,250330,0.40992,0.42895200000000006,-1.0018639999999999,-98.595,-266.98,90.44001
748,250427,0.471896,0.5294800000000001,-0.9711200999999999,-83.405,-291.935,92.40001
749,250524,0.50264,0.5587601,-0.9145120999999999,-63.0,-313.3375,91.21
750,250621,0.5314321,0.511424,-0.84546,-46.1125,-329.9275,84.525
751,250718,0.583648,0.44725200000000004,-0.791048,-42.7525,-342.1425,71.4
752,250815,0.6229319999999999,0.398208,-0.74298,-53.025,-350.8225,52.0975
753,250912,0.6480640000000001,0.398452,-0.714432,-71.225,-355.67,28.525
754,251009,0.678076,0.423096,-0.708088,-89.39,-355.3375,4.1825
755,251106,0.727364,0.42553599999999997,-0.718092,-102.9525,-349.58,-19.11
756,251204,0.79422,0.396988,-0.73932,-112.42,-340.34,-39.2875
757,251301,0.908168,0.354532,-0.7998321,-121.03,-327.1275,-56.8225
758,251398,0.9864921,0.373808,-0.8637601,-127.82,-312.9175,-72.205
759,251495,1.095072,0.40381999999999996,-0.998692,-131.8975,-296.065,-86.11751
760,251592,1.369084,0.462136,-1.345416,-134.155,-276.6575,-98.82251
761,251689,1.765584,0.4758,-1.6994599999999997,-132.93,-266.35,-113.085
762,251786,1.993968,0.49288000000000004,-1.7824200000000001,-124.4075,-273.8925,-130.34
763,251883,2.152568,0.5380199999999999,-1.7455759999999998,-107.835,-282.3975,-147.175
764,251980,2.513688,0.393084,-1.70068,-83.7025,-283.36,-160.7375
765,252077,2.828204,0.14566800000000002,-1.576484,-64.54,-291.9175,-175.7
766,252174,3.043412,-0.021716,-1.353712,-61.285,-311.5875,-191.52
767,252271,3.08416,-0.1708,-0.9511120000000001,-54.39,-327.8975,-203.875
768,252368,3.173464,-0.28328400000000004,-0.42212,-40.635,-331.31,-206.15
769,252465,3.192008,-0.41260399999999997,0.172752,-17.465,-319.27,-193.165
770,252562,3.140524,-0.6039,0.8047121,6.5975,-290.5875,-170.6775
771,252659,3.17688,-0.8703481,1.450336,19.635,-245.945,-145.7225
772,252756,3.370128,-1.181692,1.975912,16.4325,-191.4325,-117.9325
773,252853,3.4494279999999997,-1.42374,2.39242,-1.96,-134.19,-86.11751
774,252950,3.173952,-1.220244,2.430484,-29.6975,-71.89,-52.4125
775,253047,2.862852,-0.743224,2.014464,-34.2125,-0.4025,-22.26
776,253144,2.6266599999999998,0.40967600000000004,2.29604,5.3725,76.37001,12.67
777,253241,-2.216252,0.427976,0.272304,112.77,229.6525,60.445
778,253338,0.685396,0.8261841000000001,-4.214124,123.2175,315.665,107.45
779,253436,1.944192,-0.800076,-1.065304,164.8675,271.6175,88.04251
780,253533,1.424228,-0.49556400000000006,0.7522521,114.2925,220.6225,33.67
781,253630,1.162416,-0.488976,-1.531588,56.8225,251.3175,8.1725
782,253727,2.538088,-0.434076,-2.413404,41.2475,263.06,0.665
783,253824,3.473584,-0.20837600000000003,-1.979816,82.5825,183.015,37.2225
784,253921,0.819108,0.28621199999999997,-0.5489999999999999,101.8325,79.7475,58.8
785,254018,1.001376,-0.5653481,-1.719468,76.5625,91.91001,26.145
786,254115,0.568032,-0.5738880000000001,-0.9455,70.21,55.265,33.6525
787,254212,0.805688,0.5673,-1.1411879999999999,42.945,36.96,40.985
788,254309,0.664168,0.154452,-1.081896,49.875,18.235,26.3375
789,254406,0.61122,-0.19276,-1.061644,53.83,6.5975,18.7775
790,254503,0.577548,0.11224,-0.990884,37.1,-3.465,19.565
791,254600,0.5124001,-0.017812,-0.9396440999999999,30.0475,-8.9775,13.7725
792,254697,0.460916,0.006587999999999999,-0.9142680000000001,24.6225,-10.255,11.1125
793,254794,0.46116,0.040504000000000005,-0.9091440000000001,19.425,-8.0675,9.8175
794,254891,0.47458,-0.014396,-0.898408,16.555,-6.0025,7.7525
795,254988,0.46603999999999995,0.000732,-0.9032879999999999,12.81,-4.375,5.775
796,255085,0.49312399999999995,-0.015128,-0.9181720999999999,10.99,-2.7125,3.395
797,255182,0.47775200000000007,0.026595999999999998,-0.9057280999999999,9.7125,-1.925,2.345
798,255279,0.4553041,0.062464,-0.8840120000000001,9.2575,-1.785,2.3975
799,255376,0.470188,0.040260000000000004,-0.8862081,7.98,-0.245,1.05
800,255473,0.46921199999999996,0.038064,-0.8969440000000001,6.1075,0.4025,-1.4875
801,255570,0.476288,0.032695999999999996,-0.9057280999999999,5.74,-0.035,-3.5525
802,255667,0.49166000000000004,0.013175999999999998,-0.9106081,6.02,-0.35,-4.55
803,255764,0.468236,0.030012,-0.8969440000000001,4.725,-0.49,-4.9875
804,255862,0.44408000000000003,0.045627999999999995,-0.8874280999999999,3.185,0.28,-4.7425
805,255959,0.45164399999999993,0.024888,-0.8876719999999999,2.1875,1.9775,-4.305
806,256056,0.46335600000000005,0.020252000000000003,-0.8893800999999999,0.7,3.9025,-4.445
807,256153,0.46774799999999994,0.027327999999999998,-0.887916,-0.98,5.32,-4.97
808,256250,0.46457600000000004,0.041236,-0.886452,-2.1,6.265,-5.1625
809,256347,0.463844,0.051972000000000004,-0.8888921000000001,-1.995,6.7375,-4.515
810,256444,0.49532,0.035624,-0.887916,-2.03,7.4375,-3.36
811,256541,0.47092,0.04392,-0.8808401,-2.3275,6.8075,-2.135
812,256638,0.47482399999999997,0.04514,-0.877424,-2.1175,6.8775,-1.2425
813,256735,0.460916,0.033672,-0.8796200000000001,-1.8725,7.4025,-0.245
814,256832,0.46603999999999995,0.039528,-0.8813280000000001,-2.24,8.3125,0.2275
815,256929,0.46116,0.042212,-0.8866961,-2.5375,8.9425,0.8575
816,257026,0.467016,0.049532,-0.871568,-2.5375,10.15,1.785
817,257123,0.460916,0.035868000000000004,-0.8735200000000001,-2.1175,11.2525,2.66
818,257220,0.45628,0.037576,-0.8744960999999999,-2.0475,12.4075,3.01
819,257317,0.43188000000000004,0.04392,-0.877424,-2.555,15.0325,2.765
820,257414,0.45554799999999995,0.006587999999999999,-0.8744960999999999,-2.3975,18.9,3.325
821,257511,0.447984,0.01586,-0.8727879999999999,-3.64,22.925,2.065
822,257608,0.46945600000000004,0.01098,-0.871568,-5.0225,27.4575,0.35
823,257705,0.500444,0.007564001,-0.888648,-6.09,31.605,-1.295
824,257802,0.487756,0.010004,-0.862784,-6.65,35.0,-3.3425
825,257899,0.494588,0.028792,-0.8725440999999999,-7.63,39.0775,-5.425
826,257996,0.47555600000000003,0.030256,-0.8730319999999999,-7.7175,43.9425,-6.895
827,258093,0.46238,0.044896,-0.8740081000000001,-8.7675,51.065,-7.525
828,258191,0.452376,0.037576,-0.87474,-9.345,61.53,-7.4725
829,258288,0.47775200000000007,-0.02928,-0.889868,-9.9575,74.025,-6.79
830,258385,0.451888,-0.038551999999999996,-0.877424,-12.3025,87.8325,-7.35
831,258482,0.471408,-0.063196,-0.8740081000000001,-14.49,106.3125,-8.575
832,258579,0.47213999999999995,0.0034159999999999998,-0.891576,-16.2225,128.2575,-7.8575
833,258676,0.47823999999999994,0.017324000000000003,-0.8967,-17.325,152.32,-4.8125
834,258773,0.456524,0.014152000000000001,-0.9264680000000001,-17.115,178.99,-0.665
835,258870,0.472384,0.080276,-0.917684,-12.9325,208.95,3.6575
836,258967,0.46628400000000003,0.262788,-0.9006040999999999,-7.9625,243.005,11.7775
837,259064,0.477264,0.239608,-0.9320801,1.6975,281.715,22.4175
838,259161,0.458476,0.08174001,-0.909632,10.6225,317.5725,31.5875
839,259258,0.856196,0.30792800000000004,-1.146556,12.215,357.4725,35.8575
840,259355,0.8413120000000001,0.7929999999999999,-1.314184,26.845,390.0925,44.66
841,259452,1.237568,-0.11102000000000001,-1.236348,66.325,415.275,62.37
842,259549,1.122644,0.10223600000000001,-0.876692,34.895,455.525,76.685
843,259646,1.8480560000000001,0.07710399999999999,-1.597956,22.0675,508.305,88.76
844,259743,2.1059639999999997,0.193492,-2.053016,-4.025,530.74,86.29251
845,259840,1.945168,0.21301199999999998,-2.1886799999999997,-21.2275,489.8425,80.71
846,259937,1.978596,0.7190681,-2.650816,-20.9825,448.875,87.1675
847,260034,0.309392,0.9242720999999999,-1.984696,23.3975,386.155,112.9625
848,260131,-0.022203999999999998,0.520208,-1.291248,48.4925,362.88,115.36
849,260228,2.477332,0.0549,-2.573224,63.84,391.4925,121.975
850,260326,3.245688,0.24912399999999998,-4.877804,18.6375,281.8375,110.915
851,260423,1.44204,0.725412,-3.3859879999999998,-36.68,18.8125,73.2025
852,260520,0.32403200000000004,0.9059721,-2.2784720000000003,-38.4475,-117.6875,45.955
853,260617,-0.07832401,0.599264,-1.4635120000000001,-11.3225,-174.615,36.05
854,260714,-0.30622,0.452132,-0.989176,3.15,-187.6,29.9425
855,260811,-0.199104,0.329156,-0.8959681,3.29,-183.925,21.5425
856,260908,-0.05246,0.24766,-0.92232,-6.685,-187.215,9.0475
857,261005,0.119072,0.239364,-0.9884440000000001,-23.8875,-199.535,-5.81
858,261102,0.25302800000000003,0.274744,-1.029192,-38.43,-220.9725,-20.3
859,261199,0.317444,0.339404,-1.043344,-43.8725,-246.365,-31.78
860,261296,0.413336,0.37258800000000003,-1.044564,-38.9375,-269.9725,-39.1825
861,261393,0.486292,0.351116,-1.040904,-26.7225,-291.9,-44.6075
862,261490,0.5785241,0.28792,-1.0147959999999998,-15.715,-310.9575,-49.1925
863,261587,0.6527,0.215452,-0.9857600000000001,-12.4075,-329.875,-54.775
864,261684,0.715896,0.172508,-0.9415959999999999,-16.7125,-346.1325,-61.5475
865,261781,0.778604,0.159576,-0.9247601000000001,-24.745,-357.7,-68.425
866,261878,0.8437520000000001,0.149328,-0.9484280999999999,-32.13,-364.6125,-73.8325
867,261975,0.9464761,0.11760799999999999,-1.0126,-38.6925,-367.85,-76.9825
868,262072,1.059936,0.087108,-1.087752,-46.725,-371.105,-78.435
869,262169,1.118984,0.07978801,-1.086776,-57.2075,-375.095,-77.8575
870,262266,1.085312,0.061,-0.9916161,-69.93,-376.5125,-74.935
871,262363,1.0243120000000001,0.0549,-0.8359440999999999,-82.32,-365.26,-71.1375
872,262460,1.0208959999999998,0.13761600000000002,-0.8601,-89.705,-335.4225,-67.97
873,262558,1.511092,0.190808,-1.426424,-93.6425,-290.955,-65.6075
874,262655,2.169892,0.350628,-1.9829880000000002,-96.4425,-267.2775,-71.96
875,262752,2.451468,0.49898000000000003,-2.080588,-88.23501,-282.205,-83.2825
876,262849,2.720844,0.31890799999999997,-1.908812,-66.7625,-301.8925,-99.9425
877,262946,3.046584,-0.11467999999999999,-1.597956,-56.875,-318.675,-124.0225
878,263043,3.22934,-0.232044,-1.193648,-76.8075,-338.065,-144.2525
879,263140,3.1939599999999997,-0.219356,-0.60512,-94.5,-349.3,-156.38
880,263237,3.179564,-0.256688,-0.0122,-89.65250999999999,-338.9575,-157.01
881,263334,3.202988,-0.43554,0.52582,-68.53,-308.3325,-145.8275
882,263431,3.2156759999999998,-0.7224841,1.1094680000000001,-47.5825,-266.0175,-127.68
883,263528,3.280824,-1.0979999999999999,1.730692,-39.8825,-217.5425,-104.195
884,263625,3.3859879999999998,-1.371768,2.246264,-49.56,-161.6475,-73.745
885,263722,3.279604,-1.193648,2.41682,-69.2125,-99.27750999999999,-37.87
886,263819,2.943616,-0.7241920000000001,2.180872,-65.8175,-29.6625,-3.5875
887,263916,2.746952,-0.374784,1.575508,-21.035,44.7125,23.5025
888,264013,1.450092,0.30841599999999997,0.812276,38.395,105.385,48.9125
889,264110,-1.939068,0.952332,-1.411784,121.2925,219.03,85.015
890,264207,-0.016104,0.9547720999999999,-3.103192,154.945,259.9625,129.7275
891,264304,1.399096,-0.650016,-0.149572,184.205,258.02,111.3525
892,264401,1.6389479999999998,-0.407236,0.387716,137.585,257.39,33.81
893,264498,1.094096,-0.518744,-1.41764,42.3325,261.975,-36.05
894,264595,1.90442,-0.8640040000000001,-1.91662,22.4175,265.545,-51.3275
895,264692,4.051132,-0.58804,-2.4766,55.195,224.7,8.505
896,264789,1.8592799999999998,0.559248,-1.305156,73.4825,114.0125,65.1875
897,264886,0.5072760000000001,-0.271572,-1.089948,76.0725,61.1625,47.04
898,264983,0.9059721,-0.7183361,-1.5340280000000002,69.80751,67.235,24.6925
899,265081,0.532652,0.357948,-0.9589200999999999,45.3075,28.8925,34.58
900,265178,0.7476161,0.317688,-1.2383,44.485,17.92,17.6225
901,265275,0.620004,-0.33818400000000004,-1.011136,46.7075,2.94,6.7725
902,265372,0.580232,0.11126400000000002,-0.9586761,23.485,-8.1025,8.575
903,265469,0.45018,-0.020252000000000003,-0.901336,15.96,-8.9425,3.5
904,265566,0.477508,-0.025376,-0.9189040999999999,13.195,-6.58,1.4175
905,265663,0.480436,0.063928,-0.9023121,8.1725,-3.99,0.8400001
906,265760,0.4575,-0.008296000999999999,-0.898408,8.365,-2.5375,0.0525
907,265857,0.46774799999999994,-0.011712,-0.9118280000000001,6.72,0.245,-2.275
908,265954,0.476288,0.022936,-0.8967,3.535,2.94,-4.8125
909,266051,0.49556400000000006,0.057828,-0.90646,1.3475,5.6175,-5.88
910,266148,0.48531599999999997,0.045627999999999995,-0.897432,1.365,6.3875,-6.23
911,266245,0.506788,0.034404000000000004,-0.8996280999999999,1.5575,6.9475,-6.8775
912,266342,0.490928,0.045627999999999995,-0.897432,1.7675,6.2825,-7.245
913,266439,0.5011760000000001,0.045872,-0.903532,2.73,4.76,-6.72
914,266536,0.49434399999999995,0.0427,-0.894748,2.52,3.6225,-6.0025
915,266633,0.48116800000000004,0.057339999999999995,-0.888648,1.0325,3.115,-5.3375
916,266730,0.47775200000000007,0.05172801,-0.8849879999999999,-0.175,3.675,-4.6725
917,266827,0.47213999999999995,0.044896,-0.8842561,-1.015,4.305,-4.13
918,266925,0.467504,0.05172801,-0.8815719999999999,-1.995,5.4425,-3.99
919,267022,0.46945600000000004,0.043676,-0.8786440999999999,-2.45,6.475,-4.2
920,267119,0.47043199999999996,0.056608000000000006,-0.87718,-2.835,7.21,-4.4275
921,267216,0.46774799999999994,0.073688,-0.8786440999999999,-2.835,7.735,-4.4275
922,267313,0.469944,0.069052,-0.8703481,-2.2575,8.3475,-3.22
923,267410,0.47994799999999993,0.049288,-0.86864,-1.7675,9.1,-1.785
924,267507,0.48531599999999997,0.0427,-0.86864,-2.345,9.5025,-0.665
925,267604,0.468236,0.050752,-0.870592,-3.0625,9.6075,0.3325
926,267701,0.48068,0.055388,-0.8637601,-3.6575,10.3425,1.645
927,267798,0.45018,0.082472,-0.85156,-3.8325,11.0075,2.9575
928,267895,0.47946000000000005,0.0488,-0.8574161,-3.2725,12.565,3.955
929,267992,0.456524,0.05977999999999999,-0.8664440000000001,-3.535,13.895,4.2525
930,268089,0.451888,0.04514,-0.8652241,-4.165,16.4325,4.4975
931,268186,0.478728,0.024888,-0.8613200000000001,-4.9525,20.3525,4.025
932,268283,0.49117200000000005,0.02562,-0.8625401,-5.775,23.7825,2.415
933,268380,0.5070319999999999,0.008296000999999999,-0.87108,-6.2825,27.02,0.3675
934,268477,0.482876,0.038308,-0.864492,-7.63,30.2925,-1.8375
935,268574,0.49312399999999995,0.05002,-0.8559521000000001,-8.75,34.685,-3.255
936,268671,0.46311199999999997,0.057828,-0.86498,-9.7125,40.145,-4.06
937,268768,0.45432799999999995,0.062464,-0.8713241,-10.1325,47.285,-4.7425
938,268865,0.471408,0.023180000000000003,-0.8723001,-10.5,57.995,-5.39
939,268962,0.456768,0.002928,-0.879376,-11.76,71.015,-5.88
940,269059,0.465552,-0.023912,-0.840824,-13.51,86.17,-6.9475
941,269157,0.486292,-0.042212,-0.8784,-16.5725,103.7925,-8.96
942,269254,0.478484,-0.029768,-0.8513161,-16.8875,122.57,-10.15
943,269351,0.491904,-0.013663999999999999,-0.874984,-18.655,146.1075,-10.4825
944,269448,0.49849209999999994,0.058803999999999995,-0.8671761,-22.47,169.61,-8.505
945,269545,0.474092,0.050996,-0.8815719999999999,-22.5925,196.385,-4.935
946,269642,0.46726,0.047824,-0.8483879999999999,-21.8925,226.3275,0.07
947,269739,0.46116,0.164456,-0.8713241,-19.565,264.5825,2.87
948,269836,0.41016400000000003,0.101992,-0.8461921,-16.5375,304.9375,5.6
949,269933,0.49580799999999997,0.354044,-0.9042641,-20.6325,351.0675,7.7175
950,270030,0.8559521000000001,0.6675840000000001,-1.353712,-22.505,401.1875,13.6675
951,270127,1.145824,0.14884,-1.266848,4.655,426.055,32.305
952,270224,1.21024,-0.022448,-1.002108,-7.42,456.085,41.825
953,270321,1.588684,0.0671,-1.344196,-25.9175,510.3175,52.605
954,270418,2.1291439999999997,0.45115600000000006,-2.2479720000000003,-34.965,545.475,61.425
955,270515,2.202832,0.41382399999999997,-2.277252,-17.5,516.0575,55.8425
956,270612,1.9717639999999999,0.247416,-2.207712,6.475,464.8525,63.0
957,270709,1.146556,0.306708,-2.015196,11.375,423.955,68.6
958,270806,0.261812,0.37942,-1.380796,-31.815,389.0075,60.9875
959,270903,0.39967199999999997,-0.155428,-1.463268,-75.495,380.52,50.19
960,271000,4.1541,0.6771,-5.504884,-68.1975,344.7325,77.2625
961,271097,2.1703799999999998,1.003572,-3.8549559999999996,-53.2,101.5,65.59
962,271195,0.642696,0.805688,-2.693028,-6.9825,-109.1825,54.4075
963,271292,0.040748,0.44066400000000006,-1.617232,23.87,-198.135,47.9325
964,271389,-0.35697199999999996,0.17568,-0.918416,28.455,-223.51,46.8125
965,271486,-0.376736,0.108824,-0.6895439999999999,10.15,-215.0225,48.755
966,271583,-0.198372,0.08759601,-0.7329760000000001,-16.2575,-201.88,45.955
967,271680,0.11834000000000001,0.164456,-0.9455,-48.3175,-200.865,35.35
968,271777,0.327692,0.35892399999999997,-1.0948280000000001,-74.1475,-220.7625,18.9875
969,271874,0.405528,0.559736,-1.136552,-80.15,-253.12,2.8525
970,271971,0.458476,0.68198,-1.084336,-60.725,-283.185,-9.59
971,272068,0.485804,0.644892,-0.984296,-23.9575,-306.67,-16.73
972,272165,0.56608,0.5043479999999999,-0.9318360000000001,10.7625,-321.8425,-20.93
973,272262,0.6729520999999999,0.35892399999999997,-0.9186601000000001,27.0025,-334.1975,-26.635
974,272359,0.778116,0.27279200000000003,-0.9345201,22.715,-347.48,-36.2775
975,272456,0.86498,0.257664,-0.959408,6.405,-359.73,-48.37
976,272553,0.952332,0.296216,-0.9928360999999999,-10.43,-370.1425,-60.2175
977,272650,1.009428,0.31402800000000003,-1.010404,-20.335,-378.28,-68.4775
978,272747,1.038952,0.2867,-1.000156,-24.36,-383.075,-72.52
979,272844,1.0523719999999999,0.21813600000000002,-0.9638,-30.38,-382.2875,-73.465
980,272941,1.050908,0.17616800000000002,-0.9186601000000001,-44.835,-374.885,-72.6075
981,273038,1.116056,0.18056,-0.89426,-68.1975,-358.3125,-72.555
982,273135,1.214632,0.366976,-0.975512,-89.2325,-332.745,-75.6
983,273232,1.723616,0.750544,-1.5037719999999999,-99.5225,-298.5675,-82.355
984,273329,2.356064,1.125572,-1.963712,-90.72001,-282.1175,-97.58
985,273427,2.719868,1.467172,-2.044476,-47.8975,-298.3925,-123.1475
986,273524,3.058052,1.2566,-1.7336200000000002,16.975,-320.2675,-155.96
987,273621,3.1171,0.791048,-1.131428,59.5,-341.985,-198.3275
988,273718,3.109536,0.38918,-0.533384,54.7575,-348.285,-242.5325
989,273815,3.134424,0.377712,-0.036844,29.855,-330.0675,-275.2925
990,273912,3.2217759999999998,0.292312,0.303048,25.9875,-293.9475,-286.7725
991,274009,3.3008319999999998,-0.001952,0.6224441,43.1725,-254.3975,-279.2475
992,274106,3.312788,-0.51118,1.092632,56.2275,-217.49,-257.285
993,274203,3.56972,-1.101172,1.676768,44.135,-179.445,-223.09
994,274300,3.550444,-1.386652,2.2884759999999997,5.6,-141.0675,-168.7
995,274397,3.185664,-1.253672,2.5034400000000003,-39.6375,-90.35251,-95.9525
996,274494,2.800144,-0.7068681,2.13256,-63.385,-22.1375,-22.4
997,274591,2.626904,-0.10126,1.378356,-44.52,46.7075,39.585
998,274688,0.650016,0.45018,0.35624,1.05,93.0475,82.88
999,274785,-0.29768,0.853512,-2.149152,36.225,172.935,105.8225
1000,274882,-0.762012,1.220732,-2.175016,53.9525,181.615,105.07
1001,274979,-0.290116,1.1714440000000002,0.18446400000000002,55.3525,233.415,56.7
1002,275076,1.760948,0.371368,0.5429,77.9975,278.1275,-15.2425
1003,275173,1.850008,0.09125599999999999,-1.2017,35.63,312.7075,-75.8625
1004,275270,1.586244,-0.6832,-1.7807119999999999,26.2325,285.3375,-101.08
1005,275367,3.6360879999999995,-1.184864,-3.2757,60.2175,255.57,-38.71
1006,275465,2.828204,-0.751276,-2.109136,109.2175,149.7475,64.1025
1007,275562,0.3538,0.7500560000000001,-0.374296,81.18251,37.6075,85.7325
1008,275659,0.5565640000000001,0.42285200000000006,-1.356396,78.9425,66.675,41.265
1009,275756,0.838628,-0.833016,-1.339804,84.9975,59.255,23.9575
1010,275853,0.549732,0.465308,-1.058716,57.6625,17.57,38.9375
1011,275950,0.6178081,0.23521599999999998,-1.0316319999999999,51.3975,10.6225,23.1875
1012,276047,0.63318,-0.22326,-1.0230920000000001,47.5825,5.0925,13.4575
1013,276144,0.552172,0.167872,-0.9001161,28.3325,-6.51,15.4525
1014,276241,0.555832,-0.124928,-0.9106081,23.31,-5.1625,9.03
1015,276338,0.5267960999999999,0.025863999999999998,-0.9189040999999999,14.665,-5.1275,6.02
1016,276435,0.5072760000000001,0.008052001,-0.9174399999999999,10.3425,-3.1325,3.885
1017,276532,0.518988,0.028304000000000003,-0.9089001,9.695,-0.5425,3.5525
1018,276629,0.518012,0.028792,-0.901336,9.625,-0.9975,4.095
1019,276726,0.4941,0.023180000000000003,-0.892064,10.465,-1.505,4.9175
1020,276823,0.534848,0.036356,-0.90402,9.9575,-2.555,3.8675
1021,276920,0.50142,0.019764,-0.8935280999999999,9.38,-3.675,4.3225
1022,277017,0.48726800000000003,0.008296000999999999,-0.8888921000000001,7.4025,-4.4275,3.325
1023,277114,0.48214399999999996,0.021228,-0.89792,6.37,-3.4125,1.435
1024,277211,0.47165200000000007,0.006344,-0.891576,4.13,-2.485,0.035
1025,277309,0.465552,0.010736,-0.8866961,2.3625,-0.735,-0.77
1026,277405,0.464088,0.0244,-0.8903561,0.8400001,0.2625,-1.54
1027,277502,0.48214399999999996,0.010492,-0.8847440999999999,0.4375,1.2425,-2.1
1028,277599,0.47458,0.017568,-0.8762040000000001,0.1925,1.505,-2.38
1029,277696,0.47043199999999996,0.022203999999999998,-0.8796200000000001,-0.3675,1.715,-2.485
1030,277794,0.467992,0.025863999999999998,-0.8786440999999999,-0.49,2.17,-2.5025
1031,277891,0.468236,0.032208,-0.876692,-0.1575,2.695,-1.925
1032,277988,0.46848,0.02806,-0.8740081000000001,0.875,3.2375,-1.0325
1033,278085,0.47165200000000007,0.032695999999999996,-0.873764,2.1,3.29,-0.63
1034,278182,0.46896800000000005,0.036356,-0.874984,3.9025,3.15,1.015
1035,278279,0.47360399999999997,0.031964,-0.874252,5.7575,3.2725,1.8725
1036,278376,0.468236,0.02562,-0.8657120999999999,6.58,3.5175,2.9225
1037,278473,0.47067600000000004,0.011468,-0.861808,5.7225,5.0225,3.255
1038,278570,0.457988,0.026108,-0.868396,3.64,7.28,3.1675
1039,278667,0.462136,0.019764,-0.874252,2.345,9.9225,3.71
1040,278764,0.452376,0.015128,-0.87474,0.8400001,12.4775,4.1125
1041,278861,0.46896800000000005,-0.010248,-0.8764481,-0.0175,15.4175,3.9025
1042,278958,0.46238,-0.005856,-0.8781559999999999,-1.5925,18.375,3.0625
1043,279055,0.475312,-0.0051240009999999996,-0.8957241,-3.535,22.19,1.505
1044,279152,0.475312,0.000976,-0.8815719999999999,-4.8475,26.215,-0.3325
1045,279249,0.468724,-0.01464,-0.8805960999999999,-6.545,31.185,-2.24
1046,279346,0.44847200000000004,-0.0122,-0.8784,-8.61,37.1875,-4.165
1047,279443,0.443104,-0.01098,-0.892552,-10.2375,45.535,-5.8625
1048,279540,0.425048,-0.036356,-0.895236,-11.375,55.86,-7.735
1049,279637,0.441396,-0.057096,-0.883768,-13.3525,70.175,-10.3425
1050,279734,0.407724,-0.084912,-0.913292,-16.7125,86.9575,-11.7075
1051,279831,0.43676000000000004,-0.052703999999999994,-0.8815719999999999,-20.37,106.925,-11.6375
1052,279928,0.438712,-0.05612,-0.8849879999999999,-23.38,132.8425,-11.655
1053,280026,0.42456000000000005,-0.07002799999999999,-0.9067040000000001,-28.2625,160.72,-9.6075
1054,280123,0.40211199999999997,-0.063196,-0.9379360000000001,-32.795,191.4325,-6.7725
1055,280220,0.357216,0.08564401,-0.9496479999999999,-35.8225,226.73,-1.1375
1056,280317,0.36892800000000003,0.16811600000000002,-0.877668,-32.9175,273.07,2.1875
1057,280414,0.357704,0.484096,-1.07482,-26.2325,326.655,6.3175
1058,280511,0.45432799999999995,0.16592,-1.0687200000000001,5.635,378.7175,14.84
1059,280608,0.959408,0.251564,-1.357616,16.6425,428.2075,22.4525
1060,280705,0.913536,-0.094672,-1.359568,27.9125,463.19,18.55
1061,280802,1.3771360000000001,0.003904,-1.504016,12.145,502.8975,13.265
1062,280899,1.6328479999999999,0.11394800000000001,-1.9661520000000001,24.115,529.2875,29.47
1063,280996,2.121092,0.461404,-2.048868,53.9175,531.825,40.005
1064,281093,2.18014,0.467992,-2.089616,86.1,489.3,40.6875
1065,281190,1.8961240000000001,0.8937719999999999,-2.3546,122.535,443.7125,61.0925
1066,281287,0.3538,0.6202479999999999,-1.46766,176.435,385.175,75.11
1067,281384,-0.260104,0.630008,-1.662616,194.1625,376.25,56.8925
1068,281481,2.4805040000000003,0.22667600000000002,-3.2244599999999997,205.555,338.6775,45.185
1069,281578,2.89994,0.34111199999999997,-4.563288,185.535,217.8575,33.53
1070,281675,0.7373681,0.141276,-2.797704,165.13,-43.4875,34.58
1071,281772,0.06270801,0.07002799999999999,-1.835368,109.5325,-134.4525,35.7
1072,281869,-0.174704,0.046360000000000005,-1.2190239999999999,67.725,-176.26,54.4075
1073,281966,-0.178852,0.275476,-0.9964959999999999,32.4275,-181.4575,79.905
1074,282063,0.001464,0.50264,-1.059204,19.425,-182.7,103.0225
1075,282160,0.18788,0.6785640000000001,-1.1331360000000001,24.255,-193.9,117.2675
1076,282257,0.370148,0.7771399999999999,-1.162416,37.0475,-215.6175,123.6025
1077,282354,0.49751599999999996,0.9247601000000001,-1.148264,46.725,-246.085,123.4975
1078,282451,0.604876,1.08336,-1.111908,56.3675,-278.11,118.58
1079,282549,0.741028,1.2141440000000001,-1.068232,71.155,-307.4225,111.3875
1080,282646,0.8820601,1.29808,-1.0279719999999999,86.9575,-334.8975,102.0425
1081,282743,1.001132,1.3346799999999999,-0.9796600000000001,98.89251,-361.165,88.935
1082,282840,1.0797,1.3329719999999998,-0.903532,104.3525,-384.335,71.54
1083,282937,1.1631479999999998,1.331752,-0.826916,100.485,-402.7625,50.3475
1084,283034,1.220244,1.357616,-0.761524,87.7275,-415.4675,28.175
1085,283131,1.225368,1.381772,-0.707112,69.475,-420.6125,4.4975
1086,283228,1.268556,1.388116,-0.692472,44.695,-417.3925,-22.9775
1087,283325,1.3664,1.413492,-0.762744,13.51,-407.1025,-53.8125
1088,283422,1.4835200000000002,1.47498,-0.88328,-18.83,-393.7325,-86.94
1089,283519,1.6792080000000003,1.53598,-1.0643280000000002,-47.845,-379.1375,-121.625
1090,283616,1.9346759999999998,1.581852,-1.257088,-69.475,-367.395,-158.0775
1091,283713,2.168428,1.620892,-1.413492,-82.7575,-360.7275,-197.295
1092,283810,2.451712,1.669936,-1.539396,-87.29,-355.7575,-239.0675
1093,283908,2.774036,1.707756,-1.611376,-80.99,-352.3625,-281.4
1094,284005,3.070252,1.649684,-1.529392,-63.5775,-351.05,-318.465
1095,284102,3.3340160000000005,1.5164600000000001,-1.312964,-41.23,-349.65,-342.3
1096,284199,3.50262,1.331752,-0.9352520000000001,-22.575,-344.75,-349.965
1097,284296,3.5001800000000003,1.143384,-0.443592,-14.6825,-332.9375,-344.855
1098,284393,3.3279160000000005,0.9191481,0.01464,-21.2975,-307.1425,-334.0925
1099,284490,3.0561,0.6663640000000001,0.292556,-47.0575,-262.4825,-326.48
1100,284587,2.373144,-0.44822799999999996,1.0018639999999999,-87.71,-207.095,-342.93
1101,284684,2.7398759999999998,0.34257600000000005,0.8332601000000001,-179.3925,-126.035,-409.465
1102,284781,3.707092,0.39405999999999997,1.209508,-183.0325,-45.115,-475.965
1103,284878,4.292936,0.122732,1.38714,-95.725,13.4925,-496.3
1104,284975,3.6870839999999996,-0.465552,1.640168,13.9825,42.1225,-456.2075
1105,285073,2.8548,-0.73932,1.3651799999999998,77.805,83.23001,-379.6625
1106,285170,2.478796,-0.6463561,0.693692,101.2725,125.545,-297.2025
1107,285267,2.324344,-0.266692,-0.08174001,103.3025,146.825,-232.715
1108,285364,1.898564,-0.10516400000000001,-0.406016,107.6775,137.34,-193.3925
1109,285461,-0.427976,0.081984,-0.45457200000000003,102.83,122.395,-176.155
1110,285558,-1.7692439999999998,-0.325496,-1.2463520000000001,51.9575,190.61,-177.8
1111,285655,0.19764,-0.895236,-1.154852,-9.59,267.96,-204.2425
1112,285752,0.652456,-0.40894400000000003,-0.3294,-68.3025,346.3075,-222.145
1113,285849,2.250656,-0.517524,-0.94916,-40.5475,362.0225,-186.6025
1114,285946,3.4016040000000003,-1.6989720000000001,-2.64862,-1.855,345.275,-83.0725
1115,286043,5.13986,-1.600884,-4.231448,49.0875,234.3775,30.1525
1116,286140,1.13582,0.020496,-1.037976,59.99,16.415,90.055
1117,286238,-0.23546,1.181936,-0.409188,34.02,-5.9325,87.85
1118,286335,0.820572,0.7019880000000001,-0.8625401,37.0475,61.67,36.8375
1119,286432,0.521184,-0.387472,-1.143872,58.415,52.29,13.58
1120,286529,0.431148,0.109556,-1.028704,42.14,38.3425,24.885
1121,286626,0.40016,0.83936,-0.7661600000000001,42.1925,30.2925,33.6525
1122,286723,0.726876,0.418216,-1.057008,61.3025,33.6,25.7775
1123,286820,0.6292760000000001,0.032451999999999995,-0.9825879999999999,59.01,20.965,20.65
1124,286917,0.617564,0.21667199999999998,-0.9376921,40.1625,8.085,23.6075
1125,287014,0.599996,-0.059536,-0.9467200000000001,34.545,6.23,17.465
1126,287111,0.6009720000000001,-0.00244,-0.9459880999999999,25.445,2.24,15.435
1127,287208,0.604876,-0.027083999999999997,-0.9398880999999999,22.12,0.0,11.6025
1128,287305,0.634644,-0.023424,-0.9328120000000001,19.5125,-2.0475,9.94
1129,287403,0.5043479999999999,0.027816000000000004,-0.8937719999999999,17.5525,-4.025,7.98
1130,287500,0.5160600000000001,0.034648000000000005,-0.904752,17.15,-4.1125,6.5275
1131,287597,0.5282600000000001,0.044896,-0.916952,17.0275,-4.4275,5.5125
1132,287694,0.511668,0.017812,-0.8862081,17.01,-5.215,5.88
1133,287791,0.486292,-0.015128,-0.8713241,15.75,-5.565,5.075
1134,287888,0.47946000000000005,0.011712,-0.8820601,12.3725,-4.3575,2.8175
1135,287985,0.47653199999999996,0.000488,-0.880352,9.8525,-3.01,1.61
1136,288082,0.46774799999999994,-0.0017079999999999999,-0.8813280000000001,7.84,-1.2775,-0.0525
1137,288179,0.48068,0.00366,-0.8781559999999999,6.1425,0.3675,-1.4875
1138,288276,0.478728,-0.003904,-0.865468,4.9875,1.365,-2.66
1139,288373,0.464088,0.00976,-0.8693719999999999,3.5175,1.8375,-3.78
1140,288471,0.47165200000000007,0.0244,-0.8725440999999999,2.4675,2.5725,-4.76
1141,288568,0.46311199999999997,0.026595999999999998,-0.8713241,2.1525,3.045,-5.1625
1142,288665,0.480192,0.020252000000000003,-0.873764,1.9775,3.78,-5.2325
1143,288762,0.48385200000000006,0.030987999999999998,-0.870592,1.68,4.0075,-5.7225
1144,288859,0.490196,0.013908000000000002,-0.8620521000000001,1.715,3.9025,-6.125
1145,288956,0.48433999999999994,0.018544,-0.8632719999999999,1.5575,2.87,-6.8075
1146,289053,0.478728,0.036112,-0.8652241,2.03,1.9075,-7.4725
1147,289150,0.483364,0.03904,-0.86498,2.7825,1.4525,-7.35
1148,289247,0.47043199999999996,0.034648000000000005,-0.8662001,3.08,2.0825,-6.5275
1149,289344,0.48068,0.033428,-0.873764,2.695,3.78,-5.46
1150,289441,0.474092,0.022936,-0.871568,1.68,5.4075,-4.655
1151,289538,0.46774799999999994,-0.005856,-0.876692,-0.1225,7.5775,-4.585
1152,289635,0.465796,0.005612,-0.887184,-2.9925,11.1125,-5.6175
1153,289733,0.453108,0.0034159999999999998,-0.8903561,-5.9675,15.5925,-6.8425
1154,289830,0.439688,0.00488,-0.889136,-8.155,21.56,-8.015
1155,289927,0.44554399999999994,0.011712,-0.8945040000000001,-8.1725,27.8425,-9.31
1156,290024,0.46164799999999995,0.020496,-0.892552,-7.9275,34.7375,-10.045
1157,290121,0.462868,0.036356,-0.903532,-7.63,42.3675,-9.835
1158,290218,0.46164799999999995,-0.017812,-0.9006040999999999,-7.6825,50.5225,-9.3975
1159,290315,0.4819,-0.010492,-0.877668,-9.975,60.4975,-10.045
1160,290412,0.478728,-0.024156,-0.8752280000000001,-11.375,71.68,-10.99
1161,290509,0.48433999999999994,0.026108,-0.8752280000000001,-11.585,82.705,-11.585
1162,290606,0.4697,0.09028,-0.879376,-8.54,95.935,-10.675
1163,290703,0.47946000000000005,0.0244,-0.8518040000000001,-2.7825,111.2125,-8.26
1164,290800,0.47653199999999996,0.077836,-0.850584,-2.38,129.99,-4.48
1165,290898,0.44773999999999997,0.10858,-0.8971879999999999,-0.56,151.6025,0.91
1166,290995,0.38918,0.134444,-0.9150001,2.4325,176.3475,7.2275
1167,291092,0.40577199999999997,0.30036399999999996,-0.935008,10.1325,209.3875,15.3125
1168,291189,0.4697,0.354288,-0.9952761,27.9825,248.2725,23.1
1169,291286,0.50752,0.434076,-1.050908,51.9925,283.01,34.79
1170,291383,0.8727879999999999,0.528748,-1.3534680000000001,85.5225,318.0975,48.0025
1171,291480,0.868152,0.528748,-1.273436,130.9525,340.725,65.765
1172,291577,1.175348,0.5121560000000001,-1.442772,184.45,362.9325,88.2
1173,291674,1.497428,0.29133600000000004,-1.59576,252.63,385.1575,119.245
1174,291771,1.408124,0.142984,-1.379332,298.585,394.4325,153.79
1175,291868,2.282864,0.639768,-2.244068,333.4275,390.285,185.4125
1176,291965,2.113528,1.1241079999999999,-2.311412,355.285,346.0625,182.7525
1177,292063,1.247328,1.832928,-2.1945360000000003,426.405,299.4775,192.3425
1178,292160,-0.013175999999999998,1.8707479999999999,-1.5647719999999998,534.5375,250.7575,190.1375
1179,292257,0.403088,1.0079639999999999,-1.348588,573.0025,249.2875,146.685
1180,292354,3.01706,-0.471164,-3.952312,549.7975,230.475,62.72
1181,292451,1.396412,-0.2379,-2.86334,395.675,49.7525,-10.6575
1182,292548,0.503616,0.46457600000000004,-2.22894,209.16,-81.7075,-68.215
1183,292645,-0.031964,0.8620521000000001,-1.648464,131.3375,-138.25,-80.5175
1184,292742,-0.044407999999999996,0.961116,-1.436428,137.7425,-142.345,-64.7325
1185,292839,0.1647,0.8298440999999999,-1.477176,174.265,-143.4475,-40.705
1186,292936,0.35502,0.7605481,-1.5518399999999999,197.505,-161.5075,-22.6275
1187,293033,0.501908,0.7473721,-1.552084,200.06,-192.7975,-12.74
1188,293130,0.614636,0.853024,-1.464244,188.685,-230.0725,-5.88
1189,293227,0.6944241,0.9767321,-1.2932,175.1225,-265.3175,1.82
1190,293324,0.8252079999999999,1.101172,-1.166808,164.6225,-292.53,10.6575
1191,293421,0.9745360000000001,1.20902,-1.0797,153.9125,-315.2975,16.8525
1192,293519,1.134844,1.323212,-1.0279719999999999,139.545,-335.3,16.415
1193,293616,1.266604,1.441308,-0.9567241,124.0575,-355.8625,6.58
1194,293713,1.303936,1.4776639999999999,-0.81252,110.495,-373.8175,-9.0825
1195,293810,1.394216,1.507188,-0.696864,95.165,-385.7175,-26.6175
1196,293907,1.325164,1.508408,-0.518012,79.8525,-392.0875,-43.5575
1197,294004,1.354444,1.428864,-0.443592,60.3225,-386.82,-61.0925
1198,294101,1.313696,1.3207719999999998,-0.41406800000000005,31.6925,-374.0625,-78.54
1199,294198,1.2658719999999999,1.232932,-0.450424,-8.785,-356.58,-99.6275
1200,294295,1.26148,1.214632,-0.577548,-54.8275,-334.915,-124.1975
1201,294392,1.323944,1.186084,-0.76494,-94.60501,-312.41,-150.5525
1202,294489,1.390312,1.117276,-0.958432,-123.2875,-294.0525,-176.8025
1203,294587,1.464732,1.010648,-1.076284,-143.57,-280.2625,-202.44
1204,294684,1.6272360000000001,0.9525761,-1.21146,-157.5525,-268.2575,-225.715
1205,294781,1.9132040000000001,0.902068,-1.355908,-162.8725,-258.51,-245.6825
1206,294878,2.190876,0.853512,-1.475956,-155.2775,-256.27,-261.03
1207,294975,2.5512639999999998,0.72468,-1.58356,-138.1625,-258.825,-269.64
1208,295072,2.901648,0.565104,-1.547448,-119.0525,-268.8175,-267.435
1209,295169,3.15004,0.41577600000000003,-1.303692,-103.075,-283.2375,-250.355
1210,295266,2.916044,-0.492392,-0.536068,-93.8,-294.28,-223.2475
1211,295363,2.786724,-0.885476,-0.07198,-132.2125,-280.455,-218.435
1212,295460,3.206648,-0.9079241,0.282308,-199.0625,-236.6175,-219.835
1213,295557,3.6575599999999997,-0.6653880999999999,0.314272,-206.43,-202.545,-199.1675
1214,295654,3.684888,-0.565836,0.671244,-151.3575,-187.0925,-163.9225
1215,295751,3.4347879999999997,-0.893284,1.325408,-63.49,-172.2875,-120.61
1216,295849,3.250568,-1.300276,1.8873400000000002,1.0325,-136.815,-74.025
1217,295946,3.085624,-1.432036,2.08376,9.5375,-80.92,-28.2625
1218,296043,3.649996,0.612928,2.374364,4.795,5.4425,24.01
1219,296140,0.30792800000000004,-0.32696,3.418196,191.5725,149.1875,50.19
1220,296237,0.684664,-0.47165200000000007,-1.5340280000000002,280.4025,279.8075,39.5675
1221,296334,0.8003201,-0.246928,-3.379888,150.4475,330.26,-30.59
1222,296431,1.7294720000000001,-1.10166,-0.53314,100.9225,239.82,-112.56
1223,296528,1.1995040000000001,-1.940532,0.122976,82.32,230.0025,-102.4625
1224,296625,2.272616,-1.728984,-2.652036,49.9625,272.93,-25.6725
1225,296722,3.9806160000000004,-0.8762040000000001,-2.492216,76.02,207.9,54.88
1226,296819,0.7105279999999999,1.112152,-0.4575,92.26001,53.095,93.8525
1227,296916,0.7105279999999999,0.384544,-1.657736,87.6225,65.4675,43.89
1228,297014,0.9042641,-1.088484,-1.589416,93.31,57.7325,12.46
1229,297111,0.36209600000000003,0.450424,-0.984784,64.925,-2.8525,29.8025
1230,297208,0.686616,0.429928,-1.041148,40.3725,-7.7175,15.9075
1231,297305,0.542656,-0.28157600000000005,-0.9552601000000001,43.505,-13.895,6.58
1232,297402,0.558516,0.174704,-0.9128040000000001,24.6925,-14.7,14.5775
1233,297499,0.5314321,-0.118584,-0.9208561,25.27,-11.2,9.9575
1234,297596,0.45603599999999994,-0.106628,-0.90646,19.3025,-7.5075,6.195
1235,297693,0.5016641,-0.08052000000000001,-0.9259799999999999,10.1325,-1.6625,-1.435
1236,297790,0.44383599999999995,-0.015616,-0.90402,3.045,2.275,-6.7025
1237,297887,0.477508,-0.025863999999999998,-0.9089001,-1.6275,7.0525,-9.415
1238,297984,0.45628,0.015372,-0.9049959999999999,-5.565,9.975,-11.3575
1239,298081,0.489708,0.021716,-0.8910879999999999,-8.505,13.055,-13.265
1240,298178,0.484828,0.07076001,-0.8976761000000001,-9.8,14.1925,-14.105
1241,298275,0.48726800000000003,0.075396,-0.8991401,-8.2775,13.86,-13.615
1242,298373,0.490928,0.07686,-0.9025559999999999,-6.5625,12.18,-13.02
1243,298470,0.48995200000000005,0.082228,-0.888648,-5.8275,10.255,-11.8825
1244,298567,0.48263199999999995,0.09223200000000001,-0.885964,-5.8975,9.45,-9.5025
1245,298664,0.46603999999999995,0.07881200000000001,-0.8805960999999999,-5.1625,8.785,-6.5275
1246,298761,0.46335600000000005,0.066124,-0.8840120000000001,-4.7425,9.2575,-4.55
1247,298858,0.46164799999999995,0.07173600000000001,-0.883768,-4.235,10.4125,-3.5175
1248,298955,0.488,0.071492,-0.8842561,-3.64,11.445,-2.5375
1249,299052,0.47702,0.063928,-0.8735200000000001,-3.01,11.865,-1.33
1250,299149,0.48116800000000004,0.061488,-0.870592,-2.415,12.145,-0.49
1251,299246,0.46506400000000003,0.052703999999999994,-0.871568,-2.03,12.4425,0.455
1252,299343,0.47458,0.069052,-0.874252,-1.8375,13.3,1.8725
1253,299440,0.467504,0.10248,-0.865956,-1.0325,14.8925,3.71
1254,299538,0.483608,0.053191999999999996,-0.8640040000000001,1.0325,16.24,5.775
1255,299635,0.491904,0.050508,-0.8608319999999999,0.455,17.6925,6.65
1256,299732,0.487756,0.052216,-0.8632719999999999,-0.105,19.88,6.3
1257,299829,0.5002,0.057584,-0.8586360000000001,-0.9975,21.9975,6.16
1258,299926,0.486048,0.056852,-0.8586360000000001,-1.715,23.7825,6.51
1259,300023,0.49702799999999997,0.044407999999999996,-0.853024,-1.7325,26.1275,6.3875
1260,300120,0.50508,0.062952,-0.859368,-1.3825,27.9125,6.0375
1261,300217,0.49824799999999997,0.040016,-0.853756,-0.455,30.205,5.775
1262,300314,0.48922,0.036356,-0.8613200000000001,-0.9275,34.2825,5.145
1263,300411,0.49824799999999997,0.027083999999999997,-0.8605879999999999,-1.715,40.39,4.165
1264,300508,0.502152,0.008784,-0.856196,-2.66,46.9525,2.975
1265,300605,0.493856,0.018056,-0.853024,-3.535,54.3725,1.8725
1266,300703,0.5124001,0.042456,-0.8552200000000001,-3.5,63.175,1.26
1267,300800,0.5231359999999999,0.014152000000000001,-0.8388721,-2.1875,72.9225,1.26
1268,300897,0.509472,0.035868000000000004,-0.8383841000000001,-2.6075,83.30001,1.6625
1269,300994,0.5070319999999999,0.040992,-0.8461921,-1.8725,95.4275,2.38
1270,301091,0.517768,0.016836,-0.84424,-0.5425,109.4625,3.5875
1271,301188,0.528992,-0.018056,-0.8527800999999999,0.665,125.6325,4.9525
1272,301285,0.527528,-0.054167999999999994,-0.853756,1.085,143.605,5.5475
1273,301382,0.5170359999999999,-0.0244,-0.8540000000000001,-0.5075,163.485,6.0725
1274,301479,0.526552,0.11712,-0.853512,-0.8575,186.8475,8.19
1275,301576,0.489464,0.043676,-0.8730319999999999,4.2525,214.1825,10.3075
1276,301673,0.49532,0.14396,-0.8586360000000001,10.8675,246.54,10.465
1277,301770,0.50264,0.1708,-0.880352,23.1875,285.88,9.9575
1278,301867,0.5648601,0.19251600000000002,-0.9147559999999999,34.825,327.53,13.4925
1279,301964,0.984784,0.017812,-1.117032,42.385,375.48,18.3925
1280,302061,1.118252,0.364536,-1.208532,43.61,417.55,27.0375
1281,302159,1.563796,0.055388,-1.073112,71.78501,459.585,52.7275
1282,302256,1.547936,-0.06880801,-0.575596,75.2325,520.6075,70.2625
1283,302353,2.778916,-0.033428,-1.91052,36.6625,569.205,76.3875
1284,302450,2.55468,-0.246928,-2.131584,-18.6025,567.0175,56.0875
1285,302547,2.869684,0.644404,-3.0927,-58.065,525.4725,56.9625
1286,302644,1.580144,1.1794959999999999,-2.618608,-14.77,449.2075,107.6775
1287,302741,-0.7734800000000001,0.8935280999999999,-1.26148,42.385,379.3825,134.925
1288,302838,3.234952,0.029036000000000003,-2.525888,98.77,435.715,148.9775
1289,302935,3.5155519999999996,0.32086,-4.931972,73.78,344.3475,134.5925
1290,303032,1.944436,0.8522921,-3.9530440000000002,12.88,51.345,87.3425
1291,303129,0.613416,0.9274440999999999,-2.6449599999999998,-6.0725,-104.0725,49.42
1292,303226,0.052948,0.5875520000000001,-1.694824,17.3775,-182.5075,34.335
1293,303323,-0.30744,0.43724799999999997,-1.103612,23.0125,-202.7025,28.2275
1294,303420,-0.276452,0.284504,-0.9108521,18.7775,-200.2525,25.0075
1295,303518,-0.122976,0.174704,-0.8927959999999999,2.9225,-198.065,18.445
1296,303615,0.071248,0.165432,-0.9484280999999999,-21.735,-206.3075,8.4
1297,303712,0.23228800000000002,0.226188,-0.9964959999999999,-44.695,-224.9975,-2.345
1298,303809,0.267912,0.30988000000000004,-0.9828321,-57.015,-250.6875,-10.2725
1299,303906,0.31012399999999996,0.382104,-0.965996,-56.805,-274.5225,-14.9975
1300,304003,0.387716,0.41968,-0.9440360999999999,-46.7075,-294.07,-17.92
1301,304100,0.48165600000000003,0.401868,-0.9328120000000001,-32.9,-310.3275,-20.3875
1302,304197,0.5751081,0.33916,-0.9076799999999999,-23.4325,-324.9225,-24.885
1303,304294,0.6688041,0.27938,-0.8945040000000001,-24.78,-338.415,-34.02
1304,304391,0.7229720000000001,0.26156799999999997,-0.8823040000000001,-34.195,-350.2625,-46.725
1305,304489,0.800808,0.25424800000000003,-0.9103641,-45.5875,-357.5075,-60.76
1306,304586,0.8930401,0.251808,-0.9596520000000001,-55.3525,-361.62,-73.99
1307,304683,1.007476,0.24424400000000002,-1.034316,-62.335,-363.755,-84.9625
1308,304780,1.14314,0.2318,-1.129476,-68.1625,-365.9075,-93.7475
1309,304877,1.234884,0.24107199999999998,-1.210728,-74.06,-370.055,-100.6775
1310,304974,1.30174,0.24717199999999998,-1.242448,-79.625,-373.6775,-105.91
1311,305071,1.2822200000000001,0.217892,-1.185352,-86.04751,-374.0625,-109.935
1312,305168,1.284416,0.204716,-1.166808,-96.6175,-363.475,-113.645
1313,305265,1.4691239999999999,0.239852,-1.3542,-108.2725,-337.61,-119.1225
1314,305362,2.233332,0.339648,-1.9663959999999998,-120.75,-305.8825,-128.2575
1315,305459,2.850652,0.405528,-2.1899,-127.26,-308.98,-141.8025
1316,305556,3.069032,0.45286400000000004,-2.046916,-115.64,-342.3525,-158.76
1317,305654,3.0878200000000002,0.162992,-1.609668,-90.7375,-370.09,-177.87
1318,305751,3.157116,-0.190564,-1.106784,-69.1075,-377.825,-193.6025
1319,305848,3.365736,-0.46726,-0.588284,-57.225,-367.1675,-196.91
1320,305945,3.5258,-0.6109760000000001,-0.01586,-46.7425,-344.47,-182.7875
1321,306042,3.5672800000000002,-0.74542,0.6541640000000001,-30.905,-311.2375,-155.3825
1322,306139,3.654144,-1.147044,1.50426,-11.48,-267.7325,-119.875
1323,306236,4.035272,-1.710684,2.37656,-9.6425,-215.355,-76.615
1324,306333,3.898876,-1.7931560000000002,3.07928,-42.7175,-160.5275,-21.8575
1325,306430,3.2769199999999996,-1.236348,3.0512200000000003,-81.935,-85.8025,32.025
1326,306527,3.012424,-0.4819,2.142808,-84.0525,11.1475,66.2375
1327,306624,1.342244,0.5119121,1.077748,-45.5,83.335,90.0375
1328,306721,-2.1657439999999997,1.0316319999999999,-1.307596,36.1025,227.57,123.7775
1329,306818,0.22057600000000002,1.6857959999999999,-3.713924,68.18,259.35,158.445
1330,306916,1.40178,-0.271572,0.225212,176.89,286.055,145.6175
1331,307013,2.180384,-0.282796,0.221552,164.9375,279.37,86.7825
1332,307110,1.4576559999999998,-0.300608,-1.5706280000000001,79.94,286.4225,34.5625
1333,307207,2.66082,-0.34111199999999997,-2.1347560000000003,80.0275,283.57,17.885
1334,307304,3.355732,-0.5511961,-1.8175560000000002,135.9225,212.2575,55.8425
1335,307401,1.179008,-0.38503200000000004,-1.21024,135.03,119.875,76.37001
1336,307498,0.9886881,-0.393572,-1.633092,106.9075,105.6475,54.6875
1337,307595,0.803248,-0.17568,-1.303692,93.4675,60.48,54.67
1338,307692,0.726144,0.29133600000000004,-1.2609920000000001,82.4425,27.3175,40.3025
1339,307789,0.6973520000000001,-0.101016,-1.1977959999999999,77.0175,5.3375,24.78
1340,307886,0.5489999999999999,-0.07832401,-0.954528,51.5025,-17.1325,16.9575
1341,307984,0.489708,0.028304000000000003,-0.9340321,30.0825,-12.8275,11.2875
1342,308081,0.543144,-0.06832001,-0.9357401,25.375,-6.965,6.335
1343,308178,0.5455840000000001,-0.057584,-0.9030440000000001,20.3525,-2.8175,3.5875
1344,308275,0.467992,-0.084912,-0.9142680000000001,14.3675,-2.1875,-0.14
1345,308372,0.472384,-0.037332,-0.9208561,7.7525,3.185,-4.7425
1346,308469,0.494832,-0.01952,-0.9103641,2.0475,7.6125,-7.7875
1347,308566,0.5023960999999999,0.016104,-0.90646,-1.645,10.745,-8.9425
1348,308663,0.5124001,-0.007076001,-0.9103641,-3.99,11.795,-8.6275
1349,308760,0.49288000000000004,0.026595999999999998,-0.906948,-5.915,13.1425,-8.82
1350,308857,0.49776000000000004,0.047092,-0.9006040999999999,-6.5975,13.86,-8.96
1351,308954,0.5043479999999999,0.03782,-0.900848,-5.775,13.3175,-9.31
1352,309052,0.48824399999999996,0.057828,-0.8988959999999999,-4.935,11.3225,-9.5025
1353,309149,0.49141599999999996,0.06466001,-0.895236,-4.585,10.185,-9.03
1354,309246,0.48702399999999996,0.07076001,-0.8866961,-4.76,9.5725,-7.77
1355,309343,0.48263199999999995,0.066124,-0.8725440999999999,-4.5675,9.5375,-6.3525
1356,309440,0.49117200000000005,0.054655999999999996,-0.868152,-4.48,9.6075,-4.8125
1357,309537,0.48848800000000003,0.044652,-0.8642481,-4.69,9.6425,-3.5875
1358,309634,0.477264,0.039528,-0.865468,-5.25,9.6775,-2.87
1359,309731,0.477264,0.035136,-0.863028,-5.7575,10.3775,-2.5025
1360,309828,0.45457200000000003,0.048068,-0.8569280999999999,-6.2825,11.305,-2.6775
1361,309925,0.46726,0.038796,-0.8647360000000001,-6.51,13.5275,-3.2375
1362,310022,0.47482399999999997,0.026595999999999998,-0.868884,-6.7725,15.47,-3.6225
1363,310119,0.508008,0.02074,-0.8476561,-6.7025,16.975,-3.7975
1364,310217,0.48653599999999997,0.06954,-0.8605879999999999,-7.595,17.6575,-3.85
1365,310314,0.482876,0.100284,-0.8574161,-6.7375,18.2,-2.3975
1366,310411,0.48678,0.09613601,-0.8491200000000001,-5.705,19.39,0.6125
1367,310508,0.49580799999999997,0.082228,-0.8405800999999999,-4.725,20.0375,3.605
1368,310605,0.509228,0.076616,-0.84546,-3.57,19.5825,5.5475
1369,310702,0.471164,0.061975999999999996,-0.8591241,-2.065,18.935,6.685
1370,310799,0.482876,0.031964,-0.8522921,-1.6975,22.435,6.5975
1371,310896,0.502152,0.023424,-0.8532681000000001,-3.29,28.0175,5.7225
1372,310993,0.516304,-0.011224,-0.8486319999999999,-4.795,33.8625,3.5175
1373,311090,0.525088,-0.010736,-0.85034,-7.6125,40.25,0.245
1374,311187,0.5016641,-0.009028000999999999,-0.849608,-9.835,46.8825,-3.1675
1375,311284,0.49654,0.011712,-0.8574161,-11.9875,54.9325,-5.565
1376,311381,0.47702,0.018544,-0.8522921,-13.65,64.855,-7.21
1377,311478,0.472628,0.030987999999999998,-0.8632719999999999,-15.2775,77.84,-8.015
1378,311576,0.476288,0.08174001,-0.8679081,-14.4025,93.6775,-7.49
1379,311673,0.48165600000000003,0.020984,-0.8581479999999999,-10.7625,112.315,-5.075
1380,311770,0.514596,-0.014884,-0.8615640999999999,-9.7825,133.315,-2.31
1381,311867,0.516304,-0.019275999999999998,-0.8527800999999999,-9.8175,155.33,-1.1375
1382,311964,0.511668,0.023912,-0.846924,-11.0775,179.375,0.35
1383,312061,0.510692,0.067832,-0.830576,-11.165,205.3975,3.9375
1384,312158,0.490684,0.148596,-0.8949921000000001,-9.9925,235.865,8.785
1385,312255,0.48116800000000004,0.11248399999999999,-0.906948,-1.6975,272.79,9.17
1386,312352,0.459208,0.19251600000000002,-0.8764481,7.5775,313.32,9.9575
1387,312449,0.612684,0.181536,-0.9352520000000001,15.6275,359.9225,13.685
1388,312546,1.133624,0.45335200000000003,-1.3705479999999999,15.12,404.425,13.7375
1389,312643,1.057496,0.228384,-1.062376,25.06,431.9875,31.1675
1390,312740,1.3542,-0.17812,-0.7686,12.7225,474.075,49.2625
1391,312837,1.862696,0.022936,-1.5001120000000001,-28.56,537.7925,61.355
1392,312934,2.333616,0.2867,-2.212592,-72.205,560.175,50.0675
1393,313031,2.378268,0.325496,-2.435852,-88.62,516.25,40.04
1394,313129,2.1713560000000003,0.372344,-2.6415439999999997,-74.1475,458.5,60.235
1395,313226,0.785924,0.589504,-2.127924,-52.4125,400.9075,86.1
1396,313323,0.42065600000000003,0.8671761,-1.783884,-68.8625,368.5325,84.8925
1397,313420,1.422276,0.384056,-1.683112,-44.3625,350.28,86.20501
1398,313517,4.111644,0.9945440000000001,-6.012892,-21.7525,290.0625,81.235
1399,313614,1.4034879999999998,1.0765280000000002,-3.36964,-0.945,-6.79,63.6125
1400,313711,0.25986,0.854244,-2.3916880000000003,38.22,-141.05,41.335
1401,313808,-0.124196,0.43334399999999995,-1.4818120000000001,70.035,-198.45,37.03
1402,313905,-0.366244,0.24717199999999998,-0.995764,71.4175,-205.695,39.095
1403,314002,-0.243024,0.132492,-0.9167081,55.7725,-196.6125,42.0525
1404,314099,-0.029524,0.07978801,-0.9791719999999999,29.0675,-195.615,39.5325
1405,314196,0.195688,0.167384,-1.111664,-3.675,-208.9675,31.78
1406,314293,0.377224,0.28377199999999997,-1.190232,-28.735,-234.99,22.75
1407,314390,0.492148,0.40016,-1.198528,-40.215,-268.2925,14.7
1408,314488,0.571204,0.48433999999999994,-1.155584,-37.8875,-301.0175,8.5925
1409,314585,0.62098,0.491904,-1.05774,-26.4775,-328.3525,3.3075
1410,314682,0.684908,0.43334399999999995,-0.9845401,-14.455,-348.67,-2.6775
1411,314779,0.749324,0.36722,-0.9113399999999999,-10.2025,-363.16,-10.7275
1412,314876,0.7895840999999999,0.31524800000000003,-0.85034,-15.6625,-374.045,-21.315
1413,314973,0.8274040000000001,0.29402,-0.8291120999999999,-27.23,-379.19,-33.495
1414,315070,0.9174399999999999,0.287188,-0.889624,-40.5475,-377.965,-45.255
1415,315167,1.048468,0.265472,-0.989908,-54.11,-375.2175,-55.8775
1416,315264,1.178764,0.260104,-1.095072,-68.39,-374.885,-65.0125
1417,315361,1.254404,0.268156,-1.1148360000000002,-82.1275,-377.1775,-72.2925
1418,315458,1.259284,0.244488,-1.050908,-95.8475,-376.95,-77.8225
1419,315556,1.217316,0.239852,-0.9376921,-110.18,-366.9575,-82.005
1420,315653,1.1899879999999998,0.30988000000000004,-0.9408639999999999,-121.345,-341.3725,-86.9225
1421,315750,1.743868,0.449204,-1.5469600000000001,-128.1525,-297.3075,-96.3025
1422,315847,2.3616759999999997,0.536068,-1.913936,-129.2375,-275.6775,-114.205
1423,315944,2.632272,0.5653481,-1.8256080000000001,-112.1225,-289.5725,-137.97
1424,316041,2.947032,0.48214399999999996,-1.70068,-87.0975,-304.2725,-164.1325
1425,316138,3.199328,0.19764,-1.4088559999999999,-59.6225,-318.465,-188.195
1426,316235,3.3049800000000005,-0.082228,-0.9598959999999999,-38.3425,-333.585,-204.6625
1427,316332,3.3889160000000005,-0.304512,-0.379176,-20.0025,-337.05,-207.8475
1428,316429,3.32206,-0.469944,0.246196,0.945,-323.33,-193.9525
1429,316526,3.239832,-0.661972,0.826428,21.805,-290.3775,-166.74
1430,316623,3.183712,-0.965996,1.4496040000000001,34.3,-245.1225,-131.0925
1431,316720,3.366712,-1.416908,2.017636,26.215,-192.605,-87.4825
1432,316818,3.421124,-1.590148,2.446344,-12.04,-138.1625,-36.3825
1433,316915,3.0990439999999997,-1.176812,2.4888,-60.4625,-80.3775,15.05
1434,317012,2.785016,-0.5814520000000001,2.0461840000000002,-74.8125,-11.305,54.0925
1435,317109,2.74622,-0.06466001,1.264896,-43.75,57.12,78.41751
1436,317206,2.86578,0.251076,0.377712,7.6475,103.425,89.145
1437,317303,-0.10540799999999999,0.9989360999999999,-1.169736,45.85,108.6575,93.31
1438,317400,-2.1718439999999997,2.490996,-3.917664,69.405,175.0,83.09000999999999
1439,317497,-1.134112,1.169248,-1.222928,122.5175,161.6475,92.19001
1440,317594,0.9362280000000001,-1.383724,2.56078,186.0425,238.5775,40.635
1441,317691,2.106208,-0.299144,-1.059448,57.8375,337.7325,-35.385
1442,317788,2.3541119999999998,-0.712236,-2.71694,10.0275,318.4475,-64.715
1443,317885,3.5994879999999996,-0.149572,-2.887496,41.86,241.36,-6.79
1444,317983,2.251144,0.625616,-1.488156,92.75001,148.3475,59.0275
1445,318080,1.039684,-0.273524,-1.342488,84.6475,88.8825,39.4975
1446,318177,0.47775200000000007,-0.8486319999999999,-1.254648,85.435,69.7725,29.54
1447,318274,0.794952,0.174948,-1.119472,47.6175,55.9825,40.67
1448,318371,0.6612401,0.5165481,-1.074088,40.7925,31.465,37.1
1449,318468,0.7178479999999999,-0.188124,-1.092144,56.735,20.7725,21.91
1450,318565,0.642452,0.085888,-1.0260200000000002,43.0675,4.8825,21.805
1451,318662,0.533628,-0.028548,-0.9511120000000001,30.1175,-3.7275,13.7025
1452,318759,0.476288,0.019032,-0.942816,21.2625,-6.335,7.455
1453,318856,0.490928,0.04514,-0.9049959999999999,12.9325,-3.71,4.655
1454,318953,0.4758,0.009516001,-0.907436,9.625,-2.45,2.45
1455,319050,0.48116800000000004,0.007564001,-0.9137799999999999,5.3725,-0.105,0.2275
1456,319148,0.480192,0.002684,-0.9052401,1.995,2.7475,-3.115
1457,319245,0.478728,0.073688,-0.9028,-0.805,5.005,-4.7075
1458,319342,0.503616,0.045627999999999995,-0.9054840000000001,-0.21,6.51,-5.6525
1459,319439,0.48726800000000003,0.028792,-0.8906,1.0675,5.7225,-6.1775
1460,319536,0.5058121,0.05636401,-0.9006040999999999,1.785,5.4775,-7.1225
1461,319633,0.48995200000000005,0.061488,-0.9010921000000001,3.22,4.655,-7.1225
1462,319730,0.49166000000000004,0.053436000000000004,-0.8945040000000001,4.1125,4.76,-6.72
1463,319827,0.48848800000000003,0.090768,-0.8996280999999999,3.395,4.69,-6.615
1464,319924,0.48433999999999994,0.095648,-0.885476,3.22,4.6725,-4.7775
1465,320021,0.482876,0.08808401,-0.87718,3.15,4.4625,-3.185
1466,320118,0.483364,0.077348,-0.8740081000000001,3.0975,4.06,-1.6625
1467,320215,0.481412,0.072712,-0.865956,2.9225,3.78,-0.7
1468,320312,0.474092,0.065148,-0.8698601,2.415,3.7275,-0.28
1469,320410,0.480436,0.071004,-0.868884,2.2925,4.095,0.0
1470,320507,0.47555600000000003,0.064416,-0.87108,2.45,4.2,0.6825
1471,320604,0.47336000000000006,0.07027201,-0.8615640999999999,2.38,4.7075,1.68
1472,320701,0.473116,0.057584,-0.862784,2.2225,5.3375,2.765
1473,320798,0.505324,0.050263999999999996,-0.8769360999999999,1.6275,6.2825,3.955
1474,320895,0.4697,0.05246,-0.8647360000000001,0.28,6.755,4.7425
1475,320992,0.468236,0.062952,-0.8608319999999999,-1.155,8.295,5.565
1476,321089,0.465552,0.077836,-0.8676640999999999,-2.065,9.59,6.93
1477,321186,0.47482399999999997,0.045384,-0.8608319999999999,-2.0475,11.34,7.6125
1478,321283,0.465796,0.024644,-0.8608319999999999,-2.7825,13.58,7.1575
1479,321380,0.464088,0.037088,-0.8666879999999999,-3.5525,16.24,5.74
1480,321477,0.453596,0.033184,-0.859856,-4.55,19.8975,4.2175
1481,321574,0.47384799999999994,0.040504000000000005,-0.869128,-5.4775,24.4125,2.2925
1482,321672,0.488976,0.005856,-0.8730319999999999,-5.7225,29.4,0.525
1483,321769,0.5099600000000001,0.013663999999999999,-0.859856,-6.6325,33.845,-2.0475
1484,321866,0.49117200000000005,0.020984,-0.8591241,-8.1025,38.8675,-4.9875
1485,321963,0.47702,0.036112,-0.8735200000000001,-9.4675,44.7125,-7.2975
1486,322060,0.46018400000000004,0.03294,-0.8730319999999999,-10.4825,54.075,-8.925
1487,322157,0.447008,0.028792,-0.874252,-11.83,67.5675,-9.765
1488,322254,0.4636,-0.02074,-0.8718120999999999,-14.28,83.59751,-9.6775
1489,322351,0.46896800000000005,-0.041724000000000004,-0.8610761,-17.6575,100.5375,-10.6225
1490,322448,0.464088,-0.008296000999999999,-0.8720559999999999,-19.88,120.645,-12.39
1491,322545,0.480436,-0.019275999999999998,-0.8708360999999999,-19.845,143.36,-12.3375
1492,322642,0.482388,0.066124,-0.876692,-21.2625,168.7525,-9.555
1493,322739,0.47775200000000007,0.04148,-0.8988959999999999,-21.035,196.665,-4.7775
1494,322836,0.47092,0.10223600000000001,-0.870592,-17.43,229.285,0.0
1495,322933,0.43773599999999996,0.25424800000000003,-0.8579041,-12.8975,267.6625,6.1425
1496,323030,0.45457200000000003,0.18104800000000001,-0.97478,-3.01,313.0575,13.5625
1497,323127,0.48312,0.079544,-0.8959681,7.28,356.2475,19.11
1498,323225,0.9337880999999999,0.5170359999999999,-1.345904,5.6875,407.9075,16.59
1499,323322,1.143872,0.457988,-1.3139399999999999,17.78,439.1975,29.47
1500,323419,1.4457,-0.24156,-0.895236,24.0975,467.04,45.9725
1501,323516,1.69702,0.143716,-1.2038959999999999,-20.23,527.135,59.1325
1502,323613,2.525156,0.3782,-2.216984,-34.44,569.1875,69.615
1503,323710,2.358016,0.15274400000000002,-2.38022,-31.605,543.375,57.47
1504,323807,2.176236,0.547048,-2.869928,-22.8025,483.3675,66.395
1505,323904,0.7229720000000001,0.582184,-2.276032,9.3625,421.505,88.62
1506,324001,-0.35087199999999996,0.127856,-1.154852,-7.5775,381.08,86.20501
1507,324098,2.775256,0.204228,-2.406572,-24.57,429.275,94.88501
1508,324195,3.237636,0.8315520000000001,-4.996632,-32.9525,334.7575,92.82001
1509,324292,1.8602560000000001,1.0760399999999999,-3.980372,-25.7425,59.6575,69.51
1510,324389,0.485804,0.967216,-2.7847720000000002,4.9875,-106.3125,45.0275
1511,324486,-0.095648,0.533628,-1.7511880000000002,40.985,-191.1,31.8325
1512,324584,-0.40992,0.310612,-1.158268,44.8175,-215.53,25.445
1513,324681,-0.349896,0.162504,-0.9772200999999999,29.6275,-214.375,20.7725
1514,324778,-0.155428,0.079056,-0.9752681000000001,4.4975,-213.7275,13.1775
1515,324875,0.048556,0.11955999999999999,-1.042856,-25.4275,-222.88,3.815
1516,324972,0.21862399999999999,0.196908,-1.085312,-45.7275,-241.71,-3.8325
1517,325069,0.28548,0.273036,-1.0767719999999998,-51.6425,-265.7725,-7.6825
1518,325166,0.32403200000000004,0.29524,-1.053104,-44.2225,-287.49,-7.175
1519,325263,0.475312,0.258396,-1.075552,-32.27,-303.6425,-4.7775
1520,325360,0.613416,0.190564,-1.089216,-25.62,-320.845,-2.9225
1521,325457,0.72224,0.10906800000000001,-1.0687200000000001,-28.56,-339.9025,-4.1475
1522,325554,0.795928,0.054655999999999996,-1.016748,-42.455,-358.4175,-9.6775
1523,325651,0.813984,0.05368,-0.9552601000000001,-60.6375,-373.3275,-16.8875
1524,325748,0.85888,0.0671,-0.930616,-76.2125,-380.6775,-22.61
1525,325845,0.9408639999999999,0.09150001,-0.9686799999999999,-87.08,-380.9925,-25.6375
1526,325942,1.054812,0.109556,-1.057252,-94.81501,-378.3675,-26.81
1527,326039,1.1890120000000002,0.151036,-1.164124,-102.8475,-376.39,-28.56
1528,326137,1.255868,0.165432,-1.181448,-112.77,-376.53,-32.1125
1529,326234,1.2261,0.190808,-1.1065399999999999,-126.9625,-374.325,-38.0625
1530,326331,1.2019440000000001,0.274256,-1.049444,-140.6825,-359.0475,-45.9375
1531,326428,1.488888,0.492148,-1.3832360000000001,-150.045,-324.2225,-57.855
1532,326525,2.188924,0.641232,-1.850008,-151.8125,-288.12,-77.805
1533,326622,2.6535,0.668316,-1.821216,-136.745,-287.21,-109.6725
1534,326719,3.022184,0.5690081,-1.7519200000000001,-116.3925,-299.1975,-149.03
1535,326816,3.345972,0.207156,-1.493036,-100.24,-313.985,-192.6575
1536,326913,3.54776,-0.042212,-1.079212,-91.1225,-328.9125,-230.6675
1537,327010,3.675616,-0.165188,-0.4575,-71.4875,-335.58,-250.285
1538,327107,3.69294,-0.282552,0.271328,-25.235,-325.115,-240.975
1539,327204,3.6734199999999997,-0.5980439999999999,1.027484,35.3325,-294.245,-206.1325
1540,327301,3.661464,-1.0499319999999999,1.843664,76.6325,-251.4575,-158.41
1541,327398,3.7888319999999998,-1.518412,2.549312,72.24,-199.185,-105.28
1542,327495,3.721732,-1.6918959999999998,2.9487400000000004,20.895,-137.76,-50.0325
1543,327592,3.21714,-1.1529,2.852848,-47.67,-67.7425,-1.155
1544,327690,2.89994,-0.417972,2.147688,-73.29,16.3275,32.305
1545,327787,2.724504,0.17446,1.150216,-39.165,94.325,51.555
1546,327884,0.707356,1.539152,-1.898564,28.7175,160.72,67.83
1547,327981,-1.6853080000000003,1.7768080000000002,-2.5866439999999997,103.3725,214.41,71.6275
1548,328078,-0.30109600000000003,0.7327321,-0.374052,115.71,229.67,69.1775
1549,328175,1.7275200000000002,-1.399828,2.3921759999999996,203.9275,252.84,16.5725
1550,328272,2.024956,-0.579256,-1.5859999999999999,51.1,342.6675,-24.6925
1551,328369,2.234064,-0.774212,-2.561268,40.425,310.4325,-36.925
1552,328466,4.167764,-0.48873199999999994,-2.6010400000000002,83.52750999999999,241.8675,19.425
1553,328563,2.21552,0.542656,-1.0462719999999999,127.7675,135.6075,81.13
1554,328660,0.8066641,-0.625372,-1.317356,109.3925,89.5125,53.3925
1555,328757,0.9237841,-0.9189040999999999,-1.5074319999999999,95.9,75.81,41.0025
1556,328854,0.643428,0.503372,-0.9911281,51.765,41.3875,49.805
1557,328951,0.674416,0.312076,-1.214388,58.1,23.6075,28.21
1558,329048,0.654652,-0.24888000000000002,-1.067256,60.165,13.9475,14.875
1559,329145,0.61488,0.122976,-0.9962521000000001,35.49,-0.56,13.685
1560,329242,0.43163599999999996,0.046848,-0.8991401,25.1125,-6.58,7.6475
1561,329339,0.5429,-0.003904,-0.90646,16.555,-1.3125,3.6225
1562,329437,0.48824399999999996,0.064172,-0.899384,9.835,-2.52,2.555
1563,329534,0.44652,-0.015128,-0.9252481,8.225,-1.575,0.49
1564,329631,0.48726800000000003,0.019275999999999998,-0.9128040000000001,5.8275,3.5175,-2.1175
1565,329728,0.500688,0.05929201,-0.9113399999999999,2.7475,6.965,-4.025
1566,329825,0.51362,0.032451999999999995,-0.9028,2.2925,9.03,-5.53
1567,329922,0.514108,0.020496,-0.8998719999999999,0.7,9.6425,-6.965
1568,330019,0.50142,0.033184,-0.892308,-0.49,10.0625,-8.4175
1569,330116,0.48848800000000003,0.060267999999999995,-0.885964,-0.2625,9.415,-8.6975
1570,330213,0.500688,0.03782,-0.892308,1.2425,8.8375,-8.6275
1571,330310,0.48922,0.062952,-0.8910879999999999,1.505,7.9625,-8.085
1572,330407,0.49117200000000005,0.080764,-0.889868,1.19,7.9625,-7.4725
1573,330504,0.488976,0.08296,-0.8723001,0.9975,7.7525,-5.6525
1574,330601,0.48873199999999994,0.07442,-0.8703481,1.5925,7.2625,-3.4825
1575,330698,0.481412,0.077348,-0.8642481,2.1175,6.58,-1.4875
1576,330796,0.490684,0.063684,-0.861808,2.9225,6.2825,0.0875
1577,330893,0.518256,0.067832,-0.8664440000000001,2.9225,6.2125,1.155
1578,330990,0.49166000000000004,0.074664,-0.856196,3.01,5.04,2.2925
1579,331087,0.49117200000000005,0.089792,-0.858392,3.4125,4.2,4.1825
1580,331184,0.49580799999999997,0.06588,-0.8547319999999999,4.3225,2.9225,6.37
1581,331281,0.490928,0.076616,-0.8581479999999999,4.445,1.9775,8.0675
1582,331378,0.488,0.0732,-0.8579041,4.5325,1.5925,9.73
1583,331475,0.484096,0.048556,-0.856684,4.6375,2.6425,10.7975
1584,331572,0.468724,0.053191999999999996,-0.861808,3.9025,4.2875,11.4275
1585,331669,0.47506800000000005,0.041724000000000004,-0.8664440000000001,2.38,6.615,11.095
1586,331766,0.45018,0.035624,-0.862784,1.155,9.6425,9.9925
1587,331863,0.476288,0.0122,-0.862296,0.28,14.175,9.31
1588,331960,0.48531599999999997,-0.002684,-0.8664440000000001,-1.0325,18.095,7.175
1589,332057,0.47506800000000005,0.001464,-0.8723001,-3.535,22.4875,4.375
1590,332154,0.48726800000000003,0.006344,-0.877912,-5.4075,28.4725,1.645
1591,332251,0.48531599999999997,0.022203999999999998,-0.8662001,-6.2475,33.9675,-0.735
1592,332349,0.49312399999999995,0.01708,-0.8486319999999999,-7.4025,40.9325,-2.8
1593,332446,0.486048,0.01098,-0.8642481,-8.33,47.88,-4.655
1594,332543,0.482388,0.015372,-0.8554641,-9.5025,55.51,-6.5625
1595,332640,0.48312,-0.008784,-0.86864,-10.535,65.555,-8.9075
1596,332737,0.46506400000000003,-0.021472,-0.8784,-12.3025,78.5925,-10.6925
1597,332834,0.486048,0.040016,-0.8708360999999999,-15.89,94.4125,-11.235
1598,332931,0.47775200000000007,-0.040992,-0.8525360000000001,-16.1,113.05,-10.7275
1599,333028,0.49141599999999996,-0.014152000000000001,-0.8723001,-17.57,133.1575,-9.9575
1600,333125,0.500444,0.002928,-0.8669319999999999,-18.655,154.84,-8.6975
1601,333222,0.50752,0.044652,-0.8569280999999999,-19.18,178.395,-5.5125
1602,333319,0.473116,0.012931999999999999,-0.8698601,-18.97,205.205,-0.98
1603,333416,0.44822799999999996,0.079056,-0.8852321,-18.97,237.125,3.045
1604,333513,0.47823999999999994,0.264252,-0.9235399999999999,-11.4975,275.7125,5.495
1605,333610,0.438712,0.20447200000000001,-0.9015799999999999,4.97,319.375,10.78
1606,333707,0.662704,0.17763199999999998,-0.9171961,11.48,365.6975,19.4425
1607,333805,1.238788,0.563396,-1.4844959999999998,7.14,413.0175,21.525
1608,333902,1.1838879999999998,0.084912,-1.1533879999999999,29.015,434.385,38.5
1609,333999,1.38836,-0.03294,-0.9103641,7.7875,481.9325,50.1725
1610,334096,1.979816,0.05929201,-1.613328,-19.425,540.89,69.2475
1611,334193,2.44,0.361852,-2.3677759999999997,-44.345,565.635,66.8325
1612,334290,2.143296,0.353068,-2.52662,-49.035,519.68,60.025
1613,334387,1.919548,0.759328,-2.832596,-31.3425,461.5625,79.4675
1614,334484,0.044652,0.6075600999999999,-1.8695279999999999,4.34,402.2025,100.345
1615,334581,-0.022936,0.38552,-1.8295119999999998,-18.5675,393.225,90.37001
1616,334678,2.446344,0.0051240009999999996,-2.972408,-28.665,387.765,94.99
1617,334775,3.5258,0.702964,-5.732536,-82.74,265.895,78.9775
1618,334872,1.19194,1.015772,-3.7495480000000003,-97.07251,-43.8025,59.745
1619,334969,0.170068,0.9472079999999999,-2.655452,-73.465,-187.39,39.445
1620,335067,-0.273524,0.548024,-1.6506599999999998,-33.7925,-256.305,33.425
1621,335164,-0.396012,0.3782,-1.172908,-22.5575,-271.5825,33.075
1622,335261,-0.20618000000000003,0.22204000000000002,-1.062376,-26.565,-271.7575,31.3775
1623,335358,0.08857201,0.18666,-1.1155680000000001,-43.855,-279.7375,23.3975
1624,335455,0.33061999999999997,0.294752,-1.17974,-63.42,-299.81,11.9525
1625,335552,0.472628,0.40528400000000003,-1.174372,-69.3,-328.86,1.4175
1626,335649,0.48726800000000003,0.49434399999999995,-1.088484,-58.6775,-357.0875,-6.7375
1627,335746,0.572912,0.48873199999999994,-1.054324,-37.1175,-374.8325,-12.8625
1628,335843,0.682956,0.427976,-1.031876,-15.995,-385.805,-18.305
1629,335940,0.79178,0.335012,-1.016504,-7.0525,-395.885,-27.825
1630,336037,0.8657120999999999,0.28914,-0.9860040999999999,-11.13,-403.725,-42.0175
1631,336134,0.8906,0.27938,-0.9469641,-21.7525,-406.7525,-58.7825
1632,336231,0.9484280999999999,0.303292,-0.9699,-33.1625,-401.835,-74.48
1633,336328,1.042368,0.309148,-1.005524,-40.705,-391.93,-87.1675
1634,336425,1.105808,0.282796,-0.993812,-45.045,-379.925,-96.2325
1635,336523,1.12484,0.238144,-0.892552,-49.35,-363.685,-101.08
1636,336620,1.128744,0.272548,-0.9042641,-52.7975,-336.49,-100.9225
1637,336717,1.523536,0.281332,-1.3419999999999999,-57.785,-297.8325,-100.1875
1638,336814,2.051308,0.355752,-1.8302439999999998,-64.6625,-275.38,-105.805
1639,336911,2.215764,0.512888,-1.902956,-59.5,-285.215,-112.7175
1640,337008,2.348256,0.522404,-1.756068,-35.8925,-294.98,-117.4425
1641,337105,2.624464,0.193004,-1.474736,-6.4925,-295.9425,-121.87
1642,337202,2.836256,-0.20105599999999998,-1.282708,-3.5,-298.7425,-130.1475
1643,337299,3.094408,-0.468724,-1.056764,-38.6925,-305.7775,-141.0675
1644,337396,3.025112,-0.44505600000000006,-0.627812,-78.48751,-317.38,-149.065
1645,337493,2.9736279999999997,-0.457012,-0.128344,-94.325,-313.565,-150.1325
1646,337590,3.004616,-0.522404,0.344528,-83.4575,-290.5875,-141.435
1647,337687,3.144672,-0.733708,0.859856,-59.0975,-255.1325,-122.9375
1648,337785,3.410632,-1.005036,1.4884,-38.9025,-215.5825,-96.0225
1649,337882,3.5123800000000003,-1.1890120000000002,2.1447599999999998,-37.59,-174.0725,-60.0775
1650,337979,3.232512,-1.112396,2.523936,-53.48,-121.2925,-18.55
1651,338076,2.833572,-0.7239479999999999,2.3672880000000003,-68.5825,-49.4025,16.625
1652,338173,2.71084,-0.282796,1.6960439999999999,-56.8225,30.1525,38.255
1653,338270,2.7425599999999997,0.09345201,0.8949921000000001,-18.025,93.415,49.105
1654,338367,1.601128,1.057008,-0.132248,34.5625,138.25,62.0375
1655,338464,-1.836832,1.76046,-1.495476,108.4825,223.7725,83.2475
1656,338561,0.08052000000000001,0.738588,-2.109136,139.72,271.915,96.11
1657,338658,1.773148,-1.232444,0.8615640999999999,193.2525,262.605,50.3125
1658,338755,1.65798,-0.517768,-0.540948,83.44001,292.95,-11.795
1659,338852,1.7550919999999999,-0.815692,-2.051552,24.22,287.4725,-36.645
1660,338949,4.27122,-0.192028,-3.273016,42.455,257.495,3.8675
1661,339046,2.667408,0.3599,-1.247084,102.935,139.2125,77.875
1662,339143,0.4392,-0.052216,-0.9916161,93.135,62.44,70.105
1663,339241,0.948184,-1.039196,-1.6555400000000002,94.51751,76.6675,35.07
1664,339338,0.5612,0.232044,-0.9406200000000001,62.0375,32.3575,47.3025
1665,339435,0.65514,0.64782,-1.2014559999999999,52.8325,16.9575,35.8575
1666,339532,0.68198,-0.386008,-1.114592,70.805,8.6975,19.425
