,T,ax,ay,az,gx,gy,gz
0,172393,0.39967199999999997,-0.096624,-0.7278521,17.08,-16.8175,-16.4675
1,172547,0.42773199999999995,-0.085156,-0.8215481,81.34000999999999,-37.6775,-118.51
2,172643,0.444812,-0.10833599999999999,-0.8764481,43.19,-166.1975,-172.9875
3,172739,0.44676400000000005,-0.11126400000000002,-0.8769360999999999,47.67,-136.0625,-60.5675
4,172835,0.44725200000000004,-0.10931199999999999,-0.877424,3.8325,-9.9225,-6.1425
5,172931,0.44383599999999995,-0.10858,-0.8788879999999999,1.68,-3.6575,-3.5875
6,173028,0.44725200000000004,-0.108824,-0.8805960999999999,1.645,-3.71,-3.5175
7,173124,0.44773999999999997,-0.10833599999999999,-0.8810841,1.6625,-3.815,-3.5875
8,173220,0.44773999999999997,-0.10906800000000001,-0.8820601,1.6275,-3.9025,-3.57
9,173316,0.444812,-0.10931199999999999,-0.8788879999999999,1.68,-3.885,-3.605
10,173413,0.447008,-0.10931199999999999,-0.8823040000000001,1.645,-3.92,-3.5525
11,173509,0.44676400000000005,-0.107848,-0.8808401,1.645,-3.8675,-3.5175
12,173605,0.444324,-0.11102000000000001,-0.882548,1.68,-3.9025,-3.5
13,173701,0.445788,-0.10858,-0.8820601,1.7675,-3.885,-3.4825
14,173797,0.444568,-0.110776,-0.8805960999999999,1.7325,-3.8325,-3.4475
15,173894,0.44505600000000006,-0.10736,-0.879864,1.785,-3.9725,-3.4125
16,173990,0.446276,-0.10906800000000001,-0.8805960999999999,1.715,-3.9025,-3.3775
17,174086,0.446276,-0.107848,-0.8818159999999999,1.7325,-3.7975,-3.4475
18,174182,0.443592,-0.11102000000000001,-0.8810841,1.715,-3.7975,-3.465
19,174278,0.444568,-0.110044,-0.882548,1.8025,-3.7625,-3.5
20,174375,0.445788,-0.108824,-0.8801081000000001,1.785,-3.815,-3.4825
21,174471,0.446032,-0.109556,-0.8784,1.785,-3.7975,-3.465
22,174567,0.443104,-0.109556,-0.8813280000000001,1.7675,-3.815,-3.43
23,174663,0.44212799999999997,-0.110044,-0.879864,1.7325,-3.85,-3.5
24,174759,0.44676400000000005,-0.11028800000000001,-0.879864,1.6625,-3.78,-3.5175
25,174856,0.444812,-0.10736,-0.879376,1.645,-3.78,-3.5875
26,174952,0.444324,-0.10833599999999999,-0.8820601,1.68,-3.7975,-3.465
27,175048,0.444812,-0.109556,-0.8818159999999999,1.7325,-3.6575,-3.535
28,175144,0.4453,-0.10809200000000001,-0.8805960999999999,1.7325,-3.745,-3.5875
29,175240,0.445788,-0.10906800000000001,-0.8808401,1.7675,-3.675,-3.5175
30,175337,0.4453,-0.107848,-0.8796200000000001,1.785,-3.7275,-3.4475
31,175433,0.44725200000000004,-0.10858,-0.8810841,1.8025,-3.6575,-3.5
32,175529,0.44408000000000003,-0.108824,-0.8808401,1.68,-3.64,-3.5175
33,175625,0.444324,-0.109556,-0.8791321,1.7675,-3.7275,-3.57
34,175722,0.444812,-0.10760399999999999,-0.8805960999999999,1.785,-3.71,-3.57
35,175818,0.4453,-0.106628,-0.8791321,1.7325,-3.5175,-3.535
36,175914,0.444812,-0.11053199999999999,-0.8805960999999999,1.7325,-3.605,-3.5175
37,176010,0.4453,-0.11248399999999999,-0.882548,1.6625,-3.5875,-3.43
38,176106,0.444568,-0.11053199999999999,-0.8796200000000001,1.75,-3.6575,-3.4475
39,176203,0.446032,-0.109556,-0.880352,1.645,-3.57,-3.465
40,176299,0.444324,-0.11028800000000001,-0.8808401,1.75,-3.57,-3.605
41,176395,0.444812,-0.106628,-0.8801081000000001,1.715,-3.5525,-3.535
42,176491,0.44383599999999995,-0.11102000000000001,-0.879376,1.785,-3.5875,-3.57
43,176587,0.44505600000000006,-0.10760399999999999,-0.8796200000000001,1.6975,-3.395,-3.64
44,176684,0.444812,-0.108824,-0.879864,1.645,-3.3425,-3.605
45,176780,0.446276,-0.10931199999999999,-0.879864,1.7325,-3.4825,-3.675
46,176876,0.44676400000000005,-0.110044,-0.8791321,1.68,-3.5525,-3.7275
47,176972,0.44725200000000004,-0.10931199999999999,-0.8813280000000001,1.68,-3.5,-3.675
48,177068,0.44554399999999994,-0.10760399999999999,-0.880352,1.75,-3.4125,-3.6225
49,177165,0.449692,-0.10833599999999999,-0.8805960999999999,1.75,-3.57,-3.675
50,177261,0.44822799999999996,-0.10809200000000001,-0.8820601,1.715,-3.64,-3.5875
51,177357,0.44847200000000004,-0.10858,-0.880352,1.6625,-3.745,-3.535
52,177453,0.44725200000000004,-0.10906800000000001,-0.8815719999999999,1.7325,-3.7275,-3.535
53,177549,0.44725200000000004,-0.10809200000000001,-0.8818159999999999,1.68,-3.815,-3.5
54,177646,0.44505600000000006,-0.10833599999999999,-0.8788879999999999,1.6275,-3.9025,-3.5
55,177742,0.446276,-0.10906800000000001,-0.8813280000000001,1.68,-3.9375,-3.5175
56,177838,0.447008,-0.11053199999999999,-0.8784,1.68,-3.85,-3.395
57,177934,0.44676400000000005,-0.10833599999999999,-0.8796200000000001,1.785,-4.0075,-3.465
58,178031,0.44773999999999997,-0.11126400000000002,-0.8788879999999999,1.715,-4.0075,-3.395
59,178127,0.44554399999999994,-0.108824,-0.87718,1.6625,-4.0075,-3.3775
60,178223,0.44773999999999997,-0.10931199999999999,-0.8788879999999999,1.68,-4.0075,-3.3775
61,178319,0.44652,-0.1098,-0.8796200000000001,1.75,-4.0775,-3.395
62,178415,0.44652,-0.107848,-0.8791321,1.7325,-4.165,-3.36
63,178511,0.445788,-0.11028800000000001,-0.8813280000000001,1.68,-4.0775,-3.3075
64,178608,0.44505600000000006,-0.10614000000000001,-0.8791321,1.7675,-4.2,-3.325
65,178704,0.438712,-0.113704,-0.8810841,1.82,-4.1825,-3.3075
66,178800,0.445788,-0.106628,-0.8801081000000001,1.6275,-3.955,-3.3425
67,178896,0.444812,-0.10833599999999999,-0.877912,1.5925,-3.9725,-3.36
68,178993,0.446032,-0.109556,-0.8818159999999999,1.6625,-3.99,-3.395
69,179089,0.44554399999999994,-0.10809200000000001,-0.8801081000000001,1.61,-4.06,-3.36
70,179185,0.44383599999999995,-0.10687200000000001,-0.8786440999999999,1.5925,-4.095,-3.3775
71,179281,0.44334799999999996,-0.108824,-0.879376,1.61,-4.0775,-3.3775
72,179377,0.446276,-0.10931199999999999,-0.8820601,1.68,-4.2875,-3.4825
73,179474,0.44676400000000005,-0.10760399999999999,-0.8808401,1.7325,-4.2175,-3.5175
74,179570,0.443592,-0.10540799999999999,-0.8840120000000001,1.6275,-4.06,-3.5525
75,179666,0.444568,-0.110776,-0.8813280000000001,1.7325,-3.85,-3.535
76,179762,0.44847200000000004,-0.111752,-0.8784,1.6975,-4.025,-3.535
77,179858,0.44847200000000004,-0.10906800000000001,-0.8818159999999999,1.8725,-4.0425,-3.5525
78,179955,0.450424,-0.109556,-0.8801081000000001,1.8025,-4.165,-3.815
79,180051,0.45993999999999996,-0.105652,-0.8815719999999999,1.9775,-4.13,-3.9375
80,180147,0.43944399999999995,-0.099552,-0.874984,2.24,-4.62,-3.675
81,180243,0.44383599999999995,-0.10809200000000001,-0.8810841,2.4325,-4.585,-3.3775
82,180340,0.446032,-0.11321600000000001,-0.8823040000000001,2.625,-4.8825,-2.8175
83,180436,0.44408000000000003,-0.112972,-0.8857200999999999,2.87,-4.585,-3.2025
84,180532,0.444812,-0.11248399999999999,-0.885964,3.2725,-4.13,-3.675
85,180628,0.449204,-0.11224,-0.889868,4.06,-3.2725,-4.1125
86,180724,0.4392,-0.10906800000000001,-0.8852321,5.005,-2.905,-4.235
87,180821,0.443592,-0.111752,-0.877912,5.25,-2.555,-4.165
88,180917,0.435784,-0.111996,-0.877424,4.9875,-2.905,-4.0075
89,181013,0.435784,-0.11053199999999999,-0.8757159999999999,4.27,-3.0975,-3.7625
90,181109,0.439932,-0.1098,-0.8786440999999999,3.6575,-3.29,-3.7975
91,181205,0.44334799999999996,-0.10833599999999999,-0.8818159999999999,3.395,-3.29,-4.0075
92,181302,0.44773999999999997,-0.10248,-0.8906,3.7275,-3.2025,-4.0775
93,181398,0.44237200000000004,-0.10687200000000001,-0.8857200999999999,4.305,-2.9225,-3.9725
94,181494,0.438712,-0.114924,-0.8764481,4.5675,-2.94,-3.78
95,181590,0.438712,-0.11760799999999999,-0.874252,4.4275,-2.94,-3.5875
96,181686,0.439688,-0.118096,-0.8720559999999999,3.9025,-3.115,-3.6575
97,181783,0.43627200000000005,-0.122976,-0.8713241,3.3775,-3.3075,-3.78
98,181879,0.438712,-0.11541199999999999,-0.8735200000000001,2.7125,-3.4125,-3.8325
99,181975,0.44237200000000004,-0.11955999999999999,-0.876692,2.31,-3.5525,-4.06
100,182071,0.441396,-0.114436,-0.8764481,1.995,-3.675,-4.2
101,182168,0.44676400000000005,-0.11614400000000001,-0.8788879999999999,1.75,-3.745,-4.41
102,182264,0.443104,-0.115168,-0.879864,1.8725,-3.815,-4.655
103,182360,0.44115200000000004,-0.121268,-0.874984,1.89,-4.0775,-4.55
104,182456,0.4392,-0.114924,-0.8740081000000001,1.3825,-4.1475,-4.585
105,182552,0.4404201,-0.11345999999999999,-0.8735200000000001,0.875,-3.9375,-4.4625
106,182649,0.4404201,-0.114436,-0.8757159999999999,0.315,-4.13,-4.48
107,182745,0.442616,-0.115656,-0.8757159999999999,-0.0175,-4.13,-4.515
108,182841,0.44212799999999997,-0.107116,-0.8842561,-0.2275,-4.235,-4.5325
109,182937,0.44725200000000004,-0.11467999999999999,-0.8845,0.0525,-4.2525,-4.7075
110,183033,0.442616,-0.10736,-0.8847440999999999,0.4375,-4.2525,-4.585
111,183130,0.44944799999999996,-0.105652,-0.8820601,1.0675,-3.955,-4.515
112,183226,0.439932,-0.111508,-0.8784,1.61,-3.9725,-4.445
113,183322,0.444812,-0.11224,-0.8813280000000001,1.7325,-3.675,-4.235
114,183418,0.441396,-0.113704,-0.877912,1.715,-3.5875,-4.2
115,183515,0.44115200000000004,-0.112728,-0.87718,1.435,-3.5525,-4.2875
116,183611,0.441884,-0.11248399999999999,-0.8754719999999999,1.295,-3.5525,-4.3225
117,183707,0.44090799999999997,-0.121512,-0.8735200000000001,1.1025,-3.7625,-4.48
118,183803,0.43676000000000004,-0.11467999999999999,-0.873764,0.7,-3.8325,-4.655
119,183899,0.43334399999999995,-0.114436,-0.8759601,0.3325,-3.7275,-4.8825
120,183996,0.445788,-0.11614400000000001,-0.87718,0.07,-3.2375,-5.11
121,184092,0.44408000000000003,-0.110044,-0.8781559999999999,-0.105,-3.465,-5.2675
122,184188,0.447496,-0.11028800000000001,-0.877912,-0.2975,-3.745,-5.3375
123,184284,0.413336,-0.121512,-0.8586360000000001,-0.385,-4.165,-5.4425
124,184381,0.39528,-0.139812,-0.85644,-0.6475,-3.78,-5.845
125,184477,0.398696,-0.140544,-0.8620521000000001,-1.1375,-2.555,-6.7725
126,184573,0.41016400000000003,-0.150304,-0.8601,-1.225,-2.52,-8.89
127,184669,0.437004,-0.126636,-0.879864,-1.9425,-2.8,-11.095
128,184765,0.44164,-0.090036,-0.8784,-2.7475,-3.465,-12.1275
129,184862,0.452376,-0.076616,-0.8901120000000001,-2.8,-2.9575,-11.725
130,184958,0.431392,-0.08003201,-0.8840120000000001,-2.1525,-2.0825,-10.3425
131,185054,0.42773199999999995,-0.082472,-0.892064,-1.47,-0.5425,-9.2925
132,185150,0.42212,-0.08784,-0.894748,0.0525,1.645,-8.5225
133,185247,0.398696,-0.101748,-0.8893800999999999,2.3625,4.515,-8.1375
134,185343,0.407968,-0.09028,-0.90402,4.305,9.0125,-8.575
135,185439,0.39479200000000003,-0.050752,-0.921588,6.965,13.895,-9.905
136,185535,0.25864000000000004,-0.189832,-0.935984,11.7775,19.495,-13.6325
137,185631,0.268156,-0.07222401,-0.9613601,13.1075,33.53,-19.74
138,185728,0.398208,-0.086864,-0.9423280999999999,19.705,55.2825,-21.805
139,185824,0.278648,-0.16689600000000002,-0.9769760000000001,28.8575,71.2075,-21.5075
140,185920,0.305976,-0.23228800000000002,-0.924516,23.5025,97.4225,-24.4475
141,186016,0.331352,0.013908000000000002,-1.078968,10.4825,126.035,-28.0875
142,186113,0.332816,-0.188612,-0.9718521000000001,10.2725,153.2475,-31.9025
143,186209,0.37576,-0.10394400000000001,-0.9850280999999999,0.28,182.5425,-35.56
144,186305,0.495076,-0.21520799999999998,-1.041392,-7.385,211.365,-42.385
145,186401,0.543876,-0.27084,-1.140944,-8.925,232.785,-50.0675
146,186497,0.806908,0.130052,-1.492548,-1.19,240.66,-53.655
147,186594,0.5838920999999999,-0.546804,-0.86864,38.045,233.9225,-58.485
148,186690,0.7539600000000001,-0.48995200000000005,-0.8674200000000001,14.6125,227.1675,-68.72251
149,186786,0.830576,-0.360388,-1.152168,-17.2025,220.85,-80.57
150,186882,0.583404,-0.480436,-1.352492,-21.49,187.3375,-88.2875
151,186978,0.384544,-0.764208,-1.523292,-16.59,143.5175,-82.3725
152,187075,-0.102724,-0.784704,-1.397632,-36.6975,92.295,-73.09751
153,187171,0.20496,-0.39894,-1.806332,-60.34,54.2325,-69.93
154,187267,-0.099552,-0.312076,-1.55062,-33.985,6.2125,-57.925
155,187363,-0.25742,-0.39918400000000004,-1.381528,9.905,-38.7975,-42.1925
156,187459,-0.328424,-0.49849209999999994,-1.15778,40.6,-66.255,-29.925
157,187556,-0.272548,-0.514596,-1.120204,50.2425,-84.42,-19.88
158,187652,-0.199348,-0.46042799999999995,-1.116788,51.0475,-101.815,-9.87
159,187748,-0.127368,-0.400648,-1.1148360000000002,53.55,-118.16,1.47
160,187844,-0.057828,-0.357704,-1.1033680000000001,58.7475,-133.49,13.1425
161,187940,0.020008,-0.331108,-1.093608,63.9275,-146.23,23.975
162,188037,0.112972,-0.30841599999999997,-1.0882399999999999,66.5,-156.3275,33.5125
163,188133,0.217648,-0.287188,-1.0943399999999999,66.8325,-164.2025,41.6675
164,188229,0.315004,-0.263764,-1.093852,65.7825,-170.2575,49.1925
165,188325,0.39918400000000004,-0.24888000000000002,-1.086288,65.29251,-174.1425,56.7875
166,188422,0.503372,-0.25986,-1.1041,65.22251,-175.0875,63.8575
167,188518,0.641232,-0.252052,-1.164612,64.68,-174.0025,69.8425
168,188614,0.760792,-0.229848,-1.2014559999999999,66.0975,-174.8075,75.425
169,188710,0.833016,-0.21106,-1.186572,69.8425,-175.945,80.885
170,188806,0.864492,-0.19885999999999998,-1.124596,74.0775,-174.93,85.1025
171,188903,0.9084121,-0.202764,-1.055056,75.53,-168.945,88.62
172,188999,0.9764879999999999,-0.237656,-0.9921040999999999,72.1525,-158.3225,92.76751
173,189095,1.0401719999999999,-0.302804,-0.886452,61.7225,-145.3375,98.525
174,189191,1.154364,-0.404796,-0.7893399999999999,40.5125,-129.885,105.3325
175,189288,1.3359,-0.411384,-0.696132,6.0725,-113.7675,112.385
176,189384,1.506944,-0.29133600000000004,-0.652944,-34.195,-101.7625,119.2625
177,189480,1.689456,-0.083936,-0.599996,-64.085,-93.975,125.8425
178,189576,1.8412240000000002,0.10516400000000001,-0.523868,-73.08,-92.34751,132.58
179,189672,1.784128,0.27718400000000004,-0.311832,-64.27750999999999,-97.3175,138.67
180,189769,1.706048,0.45554799999999995,-0.06588,-46.8825,-97.3875,140.28
181,189865,1.6296760000000001,0.5077640999999999,0.166164,-29.575,-89.1625,131.81
182,189961,1.565016,0.5604680000000001,0.320372,-22.05,-74.305,112.14
183,190057,1.448628,0.619028,0.44090799999999997,-20.72,-54.3725,84.875
184,190154,1.38592,0.5997520000000001,0.47092,-18.445,-28.035,53.305
185,190250,1.39202,0.4758,0.386008,-15.19,1.1025,19.9675
186,190346,0.636596,0.413092,0.07710399999999999,-15.2425,26.3725,-12.74
187,190442,-0.35087199999999996,-0.5058121,-0.81862,-11.8825,69.80751,-51.0475
188,190538,0.140544,-0.475312,-1.949804,-43.785,102.1825,-89.65250999999999
189,190635,0.48433999999999994,-0.334768,-1.1594879999999999,-58.24,104.8075,-107.0825
190,190731,0.667096,-0.271816,-0.62464,-44.835,91.28,-92.225
191,190827,0.708576,-0.325008,-0.9699,-34.58,99.31251,-60.4625
192,190923,0.6097560000000001,-0.385764,-1.012844,-12.3725,103.18,-24.185
193,191020,0.548024,-0.315736,-0.8461921,4.8825,105.3675,2.8
194,191116,0.47336000000000006,-0.061,-0.879376,5.0225,109.2,10.8675
195,191212,0.4636,0.190564,-0.9740479999999999,1.925,110.6,2.8175
196,191308,0.7019880000000001,0.219112,-1.0911680000000001,0.42,105.0,-15.9425
197,191404,2.455616,-0.428464,-2.1825799999999997,0.21,90.86,-34.265
198,191501,0.7105279999999999,-0.45603599999999994,-0.638304,-10.01,10.7625,-34.79
199,191597,0.26156799999999997,0.062952,-1.0260200000000002,-30.5725,-4.165,-15.1025
200,191693,0.564128,0.000244,-1.022604,-22.995,9.17,-18.5675
201,191789,0.48653599999999997,-0.37454,-0.802272,-21.28,-6.86,-24.5875
202,191886,0.572912,-0.30378,-0.913536,-30.5375,-4.27,-20.895
203,191982,0.515328,-0.058072000000000006,-0.9577,-36.4,-6.93,-18.1475
204,192078,0.516792,-0.084912,-0.9494040000000001,-32.41,-10.2725,-19.95
205,192174,0.484584,-0.1098,-0.9076799999999999,-27.545,-14.07,-20.65
206,192270,0.46628400000000003,-0.079056,-0.913292,-25.445,-14.035,-20.1775
207,192367,0.49702799999999997,-0.09711201,-0.9201241,-22.6275,-13.5275,-20.055
208,192463,0.44676400000000005,-0.111508,-0.887184,-18.305,-15.68,-19.04
209,192559,0.4514,-0.11102000000000001,-0.893284,-14.2275,-14.8925,-17.5875
210,192655,0.46042799999999995,-0.09711201,-0.889624,-11.1475,-13.125,-15.7325
211,192751,0.4553041,-0.098576,-0.885964,-8.75,-11.445,-13.72
212,192848,0.45261999999999997,-0.101992,-0.887184,-6.7725,-10.2375,-12.0225
213,192944,0.441884,-0.10345599999999999,-0.8786440999999999,-5.6175,-9.0125,-10.2375
214,193040,0.434076,-0.125904,-0.865956,-5.6525,-8.365,-9.135
215,193136,0.444324,-0.121024,-0.8727879999999999,-6.6325,-8.33,-8.3475
216,193233,0.4636,-0.10418800000000002,-0.8927959999999999,-7.5075,-8.3825,-7.42
217,193329,0.472628,-0.100284,-0.898652,-6.755,-8.82,-6.825
218,193425,0.46042799999999995,-0.08417999999999999,-0.895236,-5.005,-9.695,-6.5975
219,193521,0.44286000000000003,-0.08369201,-0.8910879999999999,-3.6225,-9.59,-6.4575
220,193617,0.444568,-0.079056,-0.891576,-2.03,-8.645,-5.6875
221,193714,0.42944,-0.09223200000000001,-0.8852321,-0.21,-7.4725,-4.97
222,193810,0.44090799999999997,-0.085888,-0.8857200999999999,0.9625,-5.8275,-4.2175
223,193906,0.43944399999999995,-0.08442401,-0.8876719999999999,2.0825,-4.62,-3.64
224,194002,0.439688,-0.07612801,-0.8918200000000001,3.1325,-3.64,-3.2025
225,194099,0.44090799999999997,-0.08808401,-0.8842561,4.095,-2.9225,-2.7475
226,194195,0.4331,-0.09540401,-0.8784,4.6025,-2.3275,-2.5725
227,194291,0.429684,-0.0976,-0.8764481,4.76,-1.89,-2.8875
228,194387,0.42773199999999995,-0.10248,-0.8754719999999999,4.515,-1.505,-3.3075
229,194483,0.43163599999999996,-0.11712,-0.8769360999999999,4.305,-1.12,-3.8325
230,194580,0.43358800000000003,-0.114192,-0.8762040000000001,3.745,-0.945,-4.5675
231,194676,0.43041599999999997,-0.107848,-0.883036,2.52,-1.4175,-5.705
232,194772,0.43554,-0.110776,-0.871568,0.5775,-2.03,-7.4025
233,194868,0.452132,-0.08954801,-0.8840120000000001,-0.21,-2.2575,-8.6975
234,194964,0.43944399999999995,-0.083204,-0.87474,0.805,-2.5375,-9.2575
235,195061,0.430172,-0.08857201,-0.876692,2.17,-2.66,-8.89
236,195157,0.419192,-0.09272000000000001,-0.87718,3.2725,-1.96,-8.6975
237,195253,0.410408,-0.100284,-0.8752280000000001,4.34,-0.945,-8.855
238,195349,0.41577600000000003,-0.108824,-0.8754719999999999,5.285,0.4725,-9.4325
239,195446,0.43041599999999997,-0.1159,-0.8723001,5.8975,1.8375,-10.3075
240,195542,0.423828,-0.102968,-0.8718120999999999,6.09,3.185,-11.165
241,195638,0.42748800000000003,-0.114924,-0.8720559999999999,7.105,4.585,-11.83
242,195734,0.42456000000000005,-0.1037,-0.8786440999999999,7.6125,6.195,-12.0225
243,195830,0.458476,-0.105896,-0.8996280999999999,8.1725,8.47,-11.865
244,195927,0.42773199999999995,-0.101016,-0.8901120000000001,8.5575,10.5175,-11.3925
245,196023,0.404796,-0.1098,-0.898164,8.785,13.93,-11.305
246,196119,0.37746799999999997,-0.11028800000000001,-0.9028,8.855,18.8125,-11.3925
247,196215,0.358192,-0.108824,-0.9198799999999999,9.3625,26.915,-12.18
248,196312,0.372344,-0.138348,-0.8969440000000001,10.465,38.815,-13.2475
249,196408,0.36941599999999997,-0.077592,-0.916464,12.845,54.1975,-14.245
250,196504,0.347456,-0.01708,-0.94306,20.37,72.835,-14.3675
251,196600,0.335988,-0.077592,-0.9230520000000001,28.0,97.19501,-12.81
252,196697,0.32696,-0.20447200000000001,-0.9174399999999999,31.78,125.6325,-13.2125
253,196793,0.29792399999999997,-0.034892,-0.9906401,22.2775,156.6425,-19.39
254,196889,0.296216,-0.08466801,-0.8847440999999999,14.9975,188.58,-29.75
255,196985,0.32256799999999997,0.004148001,-0.9211,7.07,225.855,-37.38
256,197081,0.341356,0.003172,-0.886452,1.05,269.675,-40.88
257,197178,0.385764,-0.548024,-0.902068,-2.66,315.84,-47.88
258,197274,0.5987760999999999,-0.36575599999999997,-1.0521280000000002,-32.0425,357.8925,-63.91
259,197370,0.821304,-0.348432,-1.1209360000000002,-53.9525,395.9025,-78.9775
260,197466,1.0767719999999998,-0.2806,-1.430084,-60.83,424.095,-87.4475
261,197563,1.41642,-0.058803999999999995,-1.474004,-40.5475,447.825,-94.5
262,197659,1.238788,-0.24936799999999998,-1.116056,-11.095,467.8275,-107.065
263,197755,2.102304,-0.254736,-2.34362,-11.5325,506.415,-127.5575
264,197851,2.0984,-0.41358,-2.3189759999999997,8.1025,459.55,-132.2475
265,197948,1.5006,-0.6946681,-1.9602959999999998,13.825,395.955,-142.0475
266,198044,0.8906,-0.927932,-1.548912,1.995,350.805,-147.875
267,198140,-0.22789600000000002,-0.8042239999999999,-1.1509479999999999,-42.1225,321.86,-150.57
268,198236,2.8128319999999998,-0.077836,-2.8482119999999997,-87.2025,317.065,-150.4475
269,198333,2.388272,-0.540948,-3.9227879999999997,-25.2,233.03,-124.39
270,198429,1.033096,-0.936472,-2.673508,27.335,5.9325,-83.825
271,198525,0.073688,-0.9201241,-1.52134,32.2,-95.3925,-58.0825
272,198621,-0.529724,-0.7922680000000001,-0.800076,8.855,-138.8275,-49.8225
273,198717,-0.558272,-0.548024,-0.643184,-19.4075,-129.99,-47.5825
274,198814,-0.48214399999999996,-0.362584,-0.6954,-21.7,-119.5075,-39.7775
275,198910,-0.3416,-0.30012,-0.812032,3.885,-114.6425,-22.785
276,199006,-0.209108,-0.367708,-0.901336,40.5825,-119.875,-0.7
277,199102,-0.061975999999999996,-0.486292,-0.9796600000000001,68.1975,-132.86,21.875
278,199199,0.056852,-0.539484,-1.0467600000000001,76.7725,-153.2125,41.615
279,199295,0.15616,-0.49044,-1.08946,71.2775,-179.06,59.325
280,199391,0.226188,-0.382592,-1.080188,63.315,-207.2,76.335
281,199487,0.296704,-0.258152,-1.0492,60.445,-233.0825,93.135
282,199584,0.368196,-0.159576,-1.0023520000000001,62.7725,-255.0275,109.27
283,199680,0.431148,-0.09345201,-0.9564799999999999,66.92,-272.2825,123.3575
284,199776,0.48653599999999997,-0.029524,-0.9347639999999999,67.9875,-284.6725,133.07
285,199872,0.5726680000000001,0.038308,-0.9852719999999999,66.815,-291.9875,138.32
286,199969,0.686616,0.08442401,-1.066768,65.9225,-297.6575,139.6675
287,200065,0.774212,0.079544,-1.1455799999999998,65.15250999999999,-304.7625,137.9525
288,200161,0.8930401,0.056608000000000006,-1.276608,63.1925,-311.0975,134.54
289,200257,1.022116,0.025131999999999998,-1.4186159999999999,60.9525,-319.1125,131.25
290,200354,1.140944,-0.023668,-1.5318319999999999,59.8675,-329.7175,129.5175
291,200450,1.241228,-0.085156,-1.6165,59.7975,-339.71,130.445
292,200546,1.264652,-0.065148,-1.565016,66.1325,-344.8725,135.7475
293,200642,1.297592,-0.16811600000000002,-1.474004,78.82,-336.175,141.82
294,200738,1.815604,-0.349164,-1.74948,78.26,-308.6475,142.555
295,200835,2.463912,-0.366976,-1.99348,63.35,-289.625,139.37
296,200931,2.986316,-0.36648800000000004,-2.055456,44.8525,-297.36,138.7925
297,201027,3.424784,-0.401136,-1.8648919999999998,30.835,-318.85,136.15
298,201123,3.563864,-0.383812,-1.291492,18.6025,-346.71,129.92
299,201220,3.451868,-0.09345201,-0.47360399999999997,8.3825,-362.635,120.96
300,201316,3.3142519999999998,0.30109600000000003,0.333548,15.5925,-346.7975,112.63
301,201412,3.266428,0.6673399999999999,1.1385040000000002,43.1025,-301.3325,105.9975
302,201508,3.436984,1.0828719999999998,1.8361,74.375,-238.735,94.8325
303,201604,3.3874519999999997,1.31882,2.385344,101.5525,-174.44,72.8175
304,201701,2.980948,1.142652,2.605432,110.915,-106.47,40.25
305,201797,2.6388599999999998,0.653188,2.230892,74.9525,-25.2875,-2.5375
306,201893,2.593232,0.289628,1.3590799999999998,-4.34,49.49,-47.88
307,201989,1.5098719999999999,0.129564,0.17446,-78.295,115.8325,-99.5575
308,202086,-1.18706,-1.8390279999999999,-0.471896,-91.105,178.6925,-184.8
309,202182,0.6878361,-0.438956,-1.604056,-198.065,249.2175,-240.3625
310,202278,1.5403719999999999,-0.16104000000000002,-0.443592,-173.4425,225.715,-196.105
311,202374,1.518656,0.036844,-0.84546,-128.31,236.3025,-87.85
312,202471,1.2900280000000002,0.09906401,-1.549156,-34.8775,241.5525,-7.21
313,202567,1.133624,0.8852321,-1.3327280000000001,-24.57,224.84,6.265
314,202663,1.1838879999999998,0.9391560999999999,-1.530856,-26.5125,195.5975,-36.89
315,202759,4.02844,-0.527528,-3.05976,-3.045,166.5475,-70.63
316,202855,0.9274440999999999,-1.344196,-0.289628,-2.8175,48.3,-67.095
317,202952,0.22423600000000002,0.30866,-1.12484,-75.8975,9.45,-27.895
318,203048,1.138992,0.26596,-1.73728,-66.4825,56.21,-19.3725
319,203144,0.5219159999999999,-0.553148,-0.74298,-50.68,-8.2775,-23.0125
320,203240,0.538996,-0.00366,-1.069696,-43.4875,2.765,-5.635
321,203337,0.605364,0.07808001,-1.051884,-34.7375,2.765,-5.1625
322,203433,0.526552,-0.137128,-0.912316,-16.03,-3.395,-6.2825
323,203529,0.48873199999999994,-0.05172801,-0.9230520000000001,-9.6775,-2.66,-3.5175
324,203625,0.517768,-0.099552,-0.9315921,-4.55,0.14,-1.8375
325,203722,0.48653599999999997,-0.09589201,-0.9057280999999999,0.8575,2.3625,1.295
326,203818,0.46164799999999995,-0.114192,-0.8884040000000001,4.795,5.18,4.1125
327,203914,0.467504,-0.12566,-0.8820601,6.9125,7.6825,5.355
328,204010,0.48922,-0.1403,-0.889136,7.875,9.415,5.5125
329,204107,0.48702399999999996,-0.15982000000000002,-0.8671761,8.225,9.625,4.0775
330,204203,0.493612,-0.166164,-0.8698601,7.1925,9.0475,2.7125
331,204299,0.47165200000000007,-0.156404,-0.8605879999999999,6.2475,7.7525,1.1375
332,204395,0.47482399999999997,-0.137372,-0.863028,5.7225,6.86,0.1575
333,204492,0.482388,-0.136884,-0.868396,5.5475,6.16,-0.665
334,204588,0.482876,-0.121024,-0.8730319999999999,5.9675,5.985,-1.2775
335,204684,0.46628400000000003,-0.12444000000000001,-0.864492,7.035,6.3875,-1.0675
336,204780,0.46726,-0.12688,-0.8652241,7.4025,7.4375,-0.3675
337,204877,0.467504,-0.14884,-0.8554641,7.63,8.1025,0.0175
338,204973,0.465308,-0.14762,-0.8459479999999999,7.735,8.5225,-0.385
339,205069,0.465796,-0.168848,-0.8418,7.2625,8.1375,-1.5225
340,205165,0.462136,-0.170068,-0.8400921,6.79,7.6125,-3.045
341,205261,0.4636,-0.174216,-0.8322841000000001,6.405,6.6675,-5.53
342,205358,0.482876,-0.17616800000000002,-0.8310639999999999,6.09,5.9325,-7.525
343,205454,0.484096,-0.173728,-0.8335040000000001,5.7925,4.48,-9.17
344,205550,0.47604399999999997,-0.184952,-0.820084,5.285,2.905,-10.815
345,205646,0.48433999999999994,-0.145912,-0.8413120000000001,4.165,2.2225,-11.585
346,205743,0.478972,-0.168604,-0.8364321,4.1825,2.03,-12.0225
347,205839,0.48556000000000005,-0.146644,-0.850096,3.78,2.415,-12.32
348,205935,0.478484,-0.10931199999999999,-0.856196,4.2525,3.5875,-12.18
349,206031,0.484584,-0.126148,-0.8554641,5.6,5.0575,-11.83
350,206128,0.490684,-0.127856,-0.8459479999999999,6.6325,6.7025,-10.8325
351,206224,0.489708,-0.13859200000000002,-0.8315520000000001,7.5775,7.945,-9.8175
352,206320,0.47677600000000003,-0.14518,-0.826428,7.98,8.7675,-8.75
353,206416,0.48385200000000006,-0.141032,-0.830332,8.2775,9.765,-8.12
354,206512,0.490928,-0.142984,-0.830576,9.5725,12.215,-7.77
355,206609,0.467992,-0.135176,-0.830332,10.115,13.615,-7.5425
356,206705,0.47506800000000005,-0.13176,-0.833016,10.745,17.36,-6.825
357,206801,0.4575,-0.12566,-0.8400921,11.2,21.98,-5.845
358,206897,0.466772,-0.133224,-0.853512,13.1425,29.435,-4.4975
359,206994,0.477508,-0.126392,-0.8554641,15.1025,38.2375,-3.605
360,207090,0.46921199999999996,-0.133956,-0.8596120999999999,17.535,48.7025,-3.185
361,207186,0.454816,-0.14566800000000002,-0.863028,21.28,61.985,-3.325
362,207282,0.442616,-0.205448,-0.850584,25.0075,78.12,-5.04
363,207378,0.42163199999999995,-0.194956,-0.8413120000000001,27.09,97.12501,-8.9075
364,207475,0.44993599999999995,-0.15982000000000002,-0.8813280000000001,30.59,117.6875,-13.6675
365,207571,0.370148,-0.10760399999999999,-0.904508,36.9075,140.735,-17.3425
366,207667,0.349164,-0.167872,-0.8903561,41.0725,174.3,-21.0525
367,207763,0.309392,-0.282796,-0.8176439999999999,36.575,219.485,-30.6425
368,207860,0.291824,-0.377956,-0.9250040999999999,27.2475,276.7275,-43.5225
369,207956,0.395524,-0.255712,-0.9940559999999999,11.4975,326.9175,-55.6325
370,208052,0.720532,-0.45554799999999995,-1.220488,4.235,372.575,-63.77
371,208148,1.079212,0.007320001,-1.640412,-2.625,404.88,-57.0675
372,208244,1.345416,-0.050263999999999996,-1.4835200000000002,19.355,418.705,-76.3875
373,208341,1.215852,-0.449692,-1.21756,88.18251,475.1775,-106.12
374,208437,1.705316,-0.770308,-1.7672919999999999,57.3475,532.0525,-122.78
375,208533,2.080832,-0.5499761,-2.421456,-12.9325,520.625,-104.51
376,208629,1.77266,-0.547292,-2.064484,-58.6775,431.655,-105.56
377,208725,1.535004,-0.500444,-2.101084,-58.135,409.3075,-130.9875
378,208822,0.336964,-0.4941,-1.7692439999999998,-38.7275,374.325,-121.065
379,208918,0.0305,-0.191052,-1.0016200000000002,-7.4375,343.28,-97.5275
380,209014,3.418196,-0.8520479999999999,-4.3432,-30.3975,367.4825,-104.475
381,209110,2.165012,-0.8342360000000001,-3.612908,-28.7,177.3625,-93.2925
382,209207,1.02236,-0.58194,-2.972164,-44.3625,-28.4025,-81.0775
383,209303,0.013175999999999998,-0.258152,-1.648952,-45.78,-144.935,-68.215
384,209399,-0.3904,-0.091012,-1.02236,-30.485,-189.035,-68.11
385,209495,-0.43212399999999995,-0.10052799999999999,-0.672708,-10.745,-193.34,-76.405
386,209592,-0.324276,-0.23253200000000002,-0.568764,2.0475,-188.16,-85.19
387,209688,-0.13298,-0.345016,-0.615124,-0.5775,-187.6875,-90.70251
388,209784,-0.011712,-0.4404201,-0.648552,-12.74,-196.42,-92.9425
389,209880,0.044652,-0.47458,-0.683932,-28.385,-210.525,-91.91001
390,209976,0.09418401,-0.456768,-0.733708,-39.585,-223.545,-86.835
391,210073,0.22496799999999997,-0.424804,-0.8554641,-39.2525,-234.71,-76.72
392,210169,0.396744,-0.40992,-0.965996,-25.1125,-249.3575,-61.4775
393,210265,0.5441199999999999,-0.401624,-1.005768,-0.525,-269.8325,-41.685
394,210361,0.6304960000000001,-0.417972,-0.9562360999999999,28.0875,-292.6175,-17.6925
395,210457,0.6634359999999999,-0.45457200000000003,-0.8510719999999999,53.7425,-312.55,8.19
396,210554,0.6663640000000001,-0.479704,-0.7439560000000001,68.81,-325.08,32.0425
397,210650,0.709064,-0.467504,-0.72102,72.24,-329.105,51.38
398,210746,0.7759199999999999,-0.43432,-0.7661600000000001,69.23,-327.6875,65.8525
399,210842,0.892064,-0.397964,-0.889136,64.785,-324.1,75.74
400,210939,1.031144,-0.377712,-1.05164,63.035,-322.56,82.215
401,211035,1.153144,-0.377956,-1.186328,64.9075,-325.6225,86.9925
402,211131,1.233176,-0.398208,-1.282708,69.65,-331.6425,91.8225
403,211227,1.2282959999999998,-0.393084,-1.272704,75.6875,-336.42,97.0375
404,211323,1.151924,-0.35233600000000004,-1.1751040000000001,85.85501,-331.6075,102.1125
405,211420,1.209752,-0.30109600000000003,-1.222928,99.26001,-308.21,105.7875
406,211516,1.7221520000000001,-0.279136,-1.641144,111.895,-272.9825,108.815
407,211612,2.299212,-0.365512,-1.998604,119.6825,-257.88,112.0525
408,211708,2.7166959999999998,-0.353312,-2.12036,117.46,-272.6675,114.17
409,211805,2.9929040000000002,-0.259372,-1.9768880000000002,112.4375,-300.335,116.9175
410,211901,3.037312,-0.075396,-1.538176,114.415,-328.335,125.0025
411,211997,3.0207200000000003,0.038551999999999996,-0.9340321,124.04,-339.815,138.9675
412,212093,3.073912,0.177144,-0.346724,126.8925,-327.145,153.65
413,212190,3.185908,0.30402399999999996,0.263276,117.705,-295.4525,170.0825
414,212286,3.3654919999999997,0.485804,1.029436,92.33001,-254.275,184.835
415,212382,3.685376,1.2104840000000001,1.785104,47.5125,-209.7375,182.4725
416,212478,3.6331599999999997,2.0474040000000002,2.482212,26.1625,-162.0675,152.635
417,212574,3.015352,2.0230040000000002,2.776964,48.72,-96.91501,94.79751
418,212671,2.583228,1.2312239999999999,2.3489880000000003,56.0175,-2.31,25.1125
419,212767,0.284748,0.9140241,1.384456,1.1725,82.2325,-38.85
420,212863,-2.0276400000000003,-0.5516840000000001,-1.186572,-68.075,200.7075,-113.19
421,212959,-0.359168,-0.6080479999999999,-2.193072,-120.4175,250.88,-199.57
422,213055,1.667984,0.040016,-0.785924,-168.7875,307.7025,-215.39
423,213152,2.394616,0.305,-0.8540000000000001,-118.195,285.425,-125.65
424,213248,1.606008,-0.187148,-1.507676,-21.945,252.6825,-43.3825
425,213344,1.2756319999999999,0.06075601,-1.381284,1.0675,236.845,-8.645
426,213440,1.316624,0.530212,-1.375672,-12.0225,212.4325,-22.5575
427,213537,1.8290240000000002,0.304512,-1.7399639999999998,-9.7125,185.64,-48.5975
428,213633,3.0514639999999997,-1.017968,-2.0291040000000002,6.755,131.7575,-62.9475
429,213729,0.080276,-0.291092,-0.194712,-44.38,1.155,-54.46
430,213825,0.7793359999999999,0.147376,-1.624064,-66.46500999999999,47.215,-32.9525
431,213921,0.832528,-0.173728,-1.103856,-67.375,20.965,-36.75
432,214018,0.621468,-0.469944,-0.9459880999999999,-56.6125,-6.79,-30.7125
433,214114,0.618784,0.2074,-1.1538760000000001,-53.2875,-0.6125,-15.4875
434,214210,0.659776,0.000244,-1.000888,-32.795,-10.6925,-17.5875
435,214306,0.5043479999999999,-0.10223600000000001,-0.9137799999999999,-16.8875,-17.185,-14.5425
436,214403,0.48848800000000003,-0.026108,-0.9328120000000001,-12.7925,-11.655,-9.2225
437,214499,0.46481999999999996,-0.09247601,-0.8991401,-7.84,-9.625,-7.2275
438,214595,0.452132,-0.060267999999999995,-0.8988959999999999,-5.285,-6.09,-4.4275
439,214691,0.47946000000000005,-0.08100801,-0.897432,-2.94,-4.1825,-2.6425
440,214787,0.44066400000000006,-0.104676,-0.8801081000000001,-0.5775,-3.2375,-0.945
441,214884,0.44676400000000005,-0.108824,-0.8820601,0.8225,-1.2425,0.63
442,214980,0.457988,-0.139324,-0.8744960999999999,1.995,0.42,0.9975
443,215076,0.45628,-0.148596,-0.8671761,2.17,0.245,-0.315
444,215172,0.477996,-0.12980799999999998,-0.8718120999999999,0.9625,-0.4025,-2.8875
445,215269,0.47336000000000006,-0.11345999999999999,-0.8713241,0.0525,-2.695,-4.9525
446,215365,0.464088,-0.11614400000000001,-0.8759601,-0.42,-4.4275,-5.355
447,215461,0.46238,-0.11102000000000001,-0.8852321,-0.9625,-5.74,-4.7775
448,215557,0.45579200000000003,-0.10760399999999999,-0.8827921000000001,-0.455,-6.335,-4.27
449,215653,0.45018,-0.107848,-0.883524,0.8225,-6.2825,-3.9375
450,215750,0.434808,-0.12175599999999999,-0.8762040000000001,1.995,-5.9325,-3.99
451,215846,0.44334799999999996,-0.12444000000000001,-0.8720559999999999,2.4325,-5.0575,-4.3925
452,215942,0.44652,-0.13078399999999998,-0.8669319999999999,2.5375,-4.6725,-5.25
453,216038,0.44896,-0.132736,-0.8640040000000001,2.45,-4.585,-6.4925
454,216135,0.44822799999999996,-0.13078399999999998,-0.8640040000000001,2.1875,-4.6725,-7.6825
455,216231,0.44408000000000003,-0.131028,-0.8632719999999999,1.9075,-4.9175,-8.6975
456,216327,0.44896,-0.119804,-0.86864,1.505,-4.7425,-9.87
457,216423,0.449204,-0.11394800000000001,-0.871568,1.575,-4.6725,-11.06
458,216519,0.444568,-0.114436,-0.869616,1.8725,-4.1825,-11.7075
459,216616,0.43334399999999995,-0.10492,-0.871568,2.31,-3.36,-11.7775
460,216712,0.43627200000000005,-0.104676,-0.877912,3.1325,-2.03,-11.55
461,216808,0.441884,-0.10833599999999999,-0.873276,4.165,-0.21,-11.3575
462,216904,0.472872,-0.08808401,-0.876692,5.355,1.225,-11.0075
463,217001,0.43066000000000004,-0.09930800000000001,-0.87474,7.1575,1.0325,-10.3075
464,217097,0.432856,-0.115168,-0.865956,8.5575,2.7475,-10.08
465,217193,0.435296,-0.119804,-0.8625401,9.3625,4.025,-10.4125
466,217289,0.43554,-0.110044,-0.868884,10.2375,6.23,-10.7975
467,217385,0.43163599999999996,-0.118584,-0.8657120999999999,10.955,8.2075,-10.885
468,217482,0.449692,-0.13176,-0.8786440999999999,11.6375,10.99,-10.8325
469,217578,0.4331,-0.119316,-0.874984,11.4625,13.8425,-10.6575
470,217674,0.416264,-0.10614000000000001,-0.8852321,11.3925,18.4625,-10.08
471,217770,0.409188,-0.094672,-0.8827921000000001,12.075,25.55,-8.295
472,217867,0.42602399999999996,-0.137128,-0.870592,14.35,35.56,-6.79
473,217963,0.372344,-0.101016,-0.9128040000000001,15.785,47.0225,-6.0725
474,218059,0.38918,-0.08784,-0.8908440999999999,18.655,63.07,-6.3
475,218155,0.37454,-0.08662001,-0.8823040000000001,22.085,82.8625,-8.3825
476,218251,0.384788,-0.077348,-0.873764,26.32,105.1225,-11.3225
477,218348,0.369172,-0.10858,-0.883768,29.9075,130.585,-16.065
478,218444,0.3538,-0.142984,-0.9289081,27.8425,160.7725,-22.015
479,218540,0.321836,-0.171532,-0.919392,19.2675,193.13,-29.2775
480,218636,0.295484,-0.205936,-0.8725440999999999,13.3,232.4,-39.3225
481,218733,0.379176,-0.111996,-0.8674200000000001,6.7375,276.185,-48.0025
482,218829,0.4023561,-0.011468,-0.860344,-2.5375,320.845,-42.3325
483,218925,0.505324,-0.566812,-0.9254921,-18.8125,372.4875,-58.485
484,219021,1.0321200000000001,-0.168604,-1.37372,-40.39,410.515,-71.295
485,219117,1.007232,-0.19251600000000002,-1.3407799999999999,-29.9775,436.7475,-85.1725
486,219214,1.40788,0.085156,-1.423008,11.6025,471.9575,-85.0325
487,219310,1.501576,-0.33305999999999997,-1.4398440000000001,53.69,510.4925,-92.3825
488,219406,2.245288,-0.50752,-2.387784,38.6925,543.3575,-106.645
489,219502,2.163304,-0.567056,-2.429264,17.1675,487.2875,-101.885
490,219599,1.7165400000000002,-0.786412,-2.115236,-12.1975,414.68,-125.4575
491,219695,0.812032,-0.8893800999999999,-1.735816,-41.2825,368.165,-142.0125
492,219791,-0.538508,-0.5936520000000001,-1.015284,-65.345,341.8625,-131.6525
493,219887,3.011448,-0.3172,-2.968016,-97.5275,382.795,-134.1025
494,219983,2.584936,-0.57218,-4.221687999999999,-48.7025,291.375,-116.13
495,220080,1.377624,-0.8361879999999999,-3.3806199999999995,1.1725,58.52,-81.34000999999999
496,220176,0.28011199999999997,-0.7329760000000001,-2.199172,16.8175,-75.2325,-53.13
497,220272,-0.42431599999999997,-0.62952,-1.343464,10.7275,-145.9675,-44.2575
498,220368,-0.57706,-0.5070319999999999,-0.9391560999999999,4.585,-156.4325,-43.9775
499,220465,-0.47604399999999997,-0.43651599999999996,-0.8769360999999999,0.5425,-153.09,-45.15
500,220561,-0.264984,-0.39528,-0.951844,4.13,-153.8775,-40.32
501,220657,-0.06636801,-0.42602399999999996,-1.030412,15.68,-165.0425,-28.42
502,220753,0.061975999999999996,-0.490196,-1.064816,26.32,-185.5875,-12.9675
503,220849,0.15420799999999998,-0.521672,-1.067744,30.065,-209.86,2.03
504,220946,0.2074,-0.5060560000000001,-1.059692,27.8775,-235.06,15.785
505,221042,0.292312,-0.424804,-1.063108,25.5675,-257.985,28.7175
506,221138,0.396988,-0.321836,-1.055544,29.995,-279.1425,42.3325
507,221234,0.504104,-0.233508,-1.047248,42.28,-298.2175,56.5425
508,221331,0.6109760000000001,-0.16348,-1.036756,59.0625,-314.4225,69.86
509,221427,0.720288,-0.12932000000000002,-1.04554,75.1975,-328.0375,81.0775
510,221523,0.8108121,-0.117852,-1.0565200000000001,88.1475,-339.675,89.005
511,221619,0.892308,-0.13176,-1.0784799999999999,96.21500999999999,-349.09,93.4325
512,221715,0.9638,-0.15006,-1.116788,98.77,-355.8625,94.53501
513,221812,1.058716,-0.181536,-1.2012120000000002,97.685,-360.1675,93.205
514,221908,1.184376,-0.23887600000000003,-1.3163799999999999,95.13,-363.4225,90.58001
515,222004,1.30784,-0.313784,-1.434476,92.225,-367.0625,89.53
516,222100,1.397632,-0.366976,-1.555256,90.125,-370.1075,92.295
517,222197,1.475468,-0.364048,-1.626016,92.0325,-368.935,99.6625
518,222293,1.561356,-0.313784,-1.610644,103.1625,-358.9075,109.2175
519,222389,2.054968,-0.337452,-1.8165799999999999,120.7325,-333.1825,117.845
520,222485,2.732068,-0.477264,-2.011048,133.84,-314.02,124.6175
521,222581,3.2920480000000003,-0.5655920999999999,-2.0069,130.6025,-320.425,130.8475
522,222678,3.649996,-0.53314,-1.71288,115.2025,-342.6325,138.5825
523,222774,3.7756559999999997,-0.401624,-1.0321200000000001,98.07,-364.6475,146.2125
524,222870,3.6534120000000003,-0.086864,-0.15420799999999998,84.15751,-368.9,153.2475
525,222966,3.493836,0.27205999999999997,0.682956,80.9375,-338.3625,165.7075
526,223062,3.534096,0.43212399999999995,1.5020639999999998,86.66,-275.7825,186.1475
527,223159,3.8369,0.7732359999999999,2.204784,72.3625,-200.165,199.0275
528,223255,3.997208,1.47986,2.5937200000000002,43.96,-131.145,188.23
529,223351,3.4667519999999996,1.653832,2.760128,50.12,-64.9425,155.6975
530,223447,2.9262919999999997,1.119716,2.428532,63.6125,18.3225,107.555
531,223543,2.726456,0.4392,1.57746,29.4175,102.865,50.1025
532,223640,-0.022936,-0.627568,0.503616,-45.1675,153.3175,-9.66
533,223736,-2.309704,-0.758108,-1.4898639999999999,-164.815,250.81,-90.16001
534,223832,0.10394400000000001,0.4404201,-1.513776,-199.255,284.41,-178.0975
535,223928,1.980304,1.903688,-0.13639600000000002,-216.8075,296.765,-173.3025
536,224025,2.229916,1.122156,-1.5018200000000002,-130.2175,289.205,-131.25
537,224121,1.585024,0.460916,-2.0154400000000003,-35.5425,266.42,-88.2
538,224217,1.318088,0.381128,-0.951844,-17.08,225.575,-72.5375
539,224313,2.303604,-0.24888000000000002,-1.8461040000000002,-23.6075,221.1125,-86.20501
540,224409,3.9935480000000005,-1.123132,-2.2082,-23.205,166.4425,-79.73001
541,224506,-0.02074,0.152256,-0.423584,-80.90250999999999,6.8075,-61.2325
542,224602,0.8640040000000001,0.372832,-1.8873400000000002,-79.135,57.5575,-35.805
543,224698,0.8615640999999999,-0.480192,-1.006744,-71.155,23.205,-35.9975
544,224794,0.452132,-0.47823999999999994,-0.9752681000000001,-68.88,-2.4675,-22.3125
545,224891,0.6082920999999999,0.211304,-1.17364,-63.21,12.5825,-10.0975
546,224987,0.622688,-0.120048,-1.0145520000000001,-37.135,-5.9675,-16.7125
547,225083,0.47482399999999997,-0.106628,-0.883768,-21.28,-10.4475,-14.8225
548,225179,0.538508,-0.0732,-0.9232961,-17.045,-8.75,-14.035
549,225276,0.484828,-0.06929600000000001,-0.9103641,-14.2975,-8.9775,-12.95
550,225372,0.45896400000000004,-0.077836,-0.9042641,-11.445,-6.8775,-10.29
551,225468,0.480192,-0.090036,-0.9049959999999999,-8.1025,-3.1325,-7.5075
552,225564,0.45871999999999996,-0.09906401,-0.8949921000000001,-5.2675,-1.19,-5.565
553,225661,0.47775200000000007,-0.08857201,-0.8940161,-3.1325,0.9975,-4.025
554,225757,0.48702399999999996,-0.09345201,-0.8937719999999999,-1.4,2.03,-3.2725
555,225853,0.493856,-0.09711201,-0.886452,-0.3675,1.435,-4.0425
556,225949,0.49312399999999995,-0.10052799999999999,-0.880352,0.0525,-0.6825,-5.18
557,226045,0.486048,-0.10809200000000001,-0.8796200000000001,0.315,-2.9225,-5.04
558,226142,0.47482399999999997,-0.104432,-0.883768,0.735,-4.69,-4.5675
559,226238,0.457988,-0.09418401,-0.8820601,1.8725,-5.5475,-4.13
560,226334,0.447984,-0.09711201,-0.880352,3.7975,-4.6375,-3.43
561,226430,0.43944399999999995,-0.0976,-0.879376,5.4775,-3.01,-2.485
562,226527,0.44408000000000003,-0.11224,-0.8744960999999999,6.7025,-1.19,-1.715
563,226623,0.444568,-0.125904,-0.8727879999999999,7.1575,0.0875,-1.8725
564,226719,0.44773999999999997,-0.13542,-0.865468,6.8775,0.98,-2.9225
565,226815,0.46726,-0.133956,-0.864492,6.055,0.9275,-4.62
566,226911,0.462624,-0.134444,-0.856196,5.5475,-0.2275,-6.3875
567,227008,0.465308,-0.128832,-0.859368,4.9875,-1.9775,-8.0675
568,227104,0.45871999999999996,-0.12395199999999999,-0.8615640999999999,3.85,-3.36,-9.7475
569,227200,0.45432799999999995,-0.121512,-0.8642481,3.395,-4.2525,-11.0425
570,227296,0.44822799999999996,-0.114924,-0.865468,3.3075,-4.1825,-12.1625
571,227393,0.44286000000000003,-0.110776,-0.8671761,3.9725,-3.3075,-12.88
572,227489,0.44896,-0.105652,-0.871568,5.145,-1.7325,-13.37
573,227585,0.4453,-0.096868,-0.8671761,6.44,-0.14,-13.4925
574,227681,0.43651599999999996,-0.10858,-0.8605879999999999,6.965,1.4,-13.5975
575,227778,0.443592,-0.105896,-0.8615640999999999,6.37,2.695,-13.7375
576,227874,0.443592,-0.11760799999999999,-0.8605879999999999,6.09,4.0425,-13.755
577,227970,0.45603599999999994,-0.123464,-0.8632719999999999,6.09,5.8975,-13.7375
578,228066,0.434808,-0.121024,-0.8652241,6.335,7.945,-13.86
579,228163,0.44237200000000004,-0.11345999999999999,-0.8720559999999999,6.6325,11.5325,-13.4925
580,228259,0.432856,-0.118584,-0.8701040000000001,7.91,15.5225,-12.5825
581,228355,0.426756,-0.10540799999999999,-0.876692,8.47,20.8425,-11.48
582,228451,0.396256,-0.0793,-0.887184,9.5725,28.945,-9.0825
583,228547,0.39894,-0.08808401,-0.892552,11.7775,39.5675,-6.405
584,228644,0.412116,-0.08564401,-0.879376,14.21,52.57,-5.1275
585,228740,0.39161999999999997,-0.086864,-0.8857200999999999,17.675,68.95,-5.0225
586,228836,0.383324,-0.133224,-0.868396,21.63,87.395,-6.8775
587,228932,0.39284,-0.12688,-0.8820601,23.66,108.885,-10.395
588,229029,0.376492,-0.143228,-0.9450120000000001,22.085,132.055,-16.3625
589,229125,0.35502,-0.11712,-0.906216,15.4175,157.605,-26.2325
590,229221,0.325984,-0.126636,-0.889868,10.675,193.4275,-34.02
591,229317,0.28987199999999996,-0.036356,-0.8759601,4.375,237.125,-41.3
592,229414,0.28938400000000003,-0.349164,-0.9389120000000001,4.7075,292.6875,-50.19
593,229510,0.355508,-0.49873599999999996,-0.871568,-2.94,344.5225,-67.095
594,229606,0.638548,-0.13785999999999998,-0.9259799999999999,-32.3925,393.1025,-83.16001
595,229702,1.1289879999999999,-0.24644000000000002,-1.378112,-29.54,439.775,-92.54001
596,229798,1.2134120000000002,-0.155184,-1.624064,-18.165,464.3975,-105.8575
597,229895,1.3607879999999999,-0.08759601,-1.129232,27.3175,508.725,-105.315
598,229991,1.974204,-0.205936,-1.9102759999999999,50.54,549.6575,-121.765
599,230087,2.494168,-0.543144,-2.6888799999999997,48.93,556.6575,-128.695
600,230183,1.897832,-0.520208,-2.32532,37.4675,476.0525,-120.6625
601,230280,1.248792,-0.6058520000000001,-2.03496,16.2925,404.0575,-137.0425
602,230376,-0.27279200000000003,-0.803736,-1.2214639999999999,-2.52,356.1775,-143.36
603,230472,0.05612,-0.190564,-1.041392,-41.72,369.635,-141.54
604,230568,3.580944,-0.411872,-4.093344,-57.9775,418.0925,-146.195
605,230664,2.675948,-0.7517640999999999,-4.178744,-6.58,234.255,-124.635
606,230761,1.43838,-0.919636,-3.399164,25.41,-9.345,-90.1075
607,230857,0.255712,-0.738344,-1.8817279999999998,21.455,-159.005,-63.77
608,230953,-0.405528,-0.589504,-1.0145520000000001,10.99,-219.905,-53.235
609,231049,-0.5380199999999999,-0.444568,-0.577548,4.2875,-220.465,-49.77
610,231146,-0.465308,-0.381128,-0.5121560000000001,2.5025,-205.415,-46.725
611,231242,-0.27571999999999997,-0.325496,-0.5838920999999999,9.66,-192.1325,-36.7325
612,231338,-0.03294,-0.339404,-0.740296,24.29,-188.055,-21.7175
613,231434,0.13078399999999998,-0.411384,-0.8552200000000001,37.625,-197.89,-6.4575
614,231531,0.239608,-0.467992,-0.931348,43.1025,-215.8975,6.3175
615,231627,0.317932,-0.472628,-0.987956,40.6875,-237.825,17.0275
616,231723,0.450668,-0.429684,-1.056276,38.01,-260.3825,27.02
617,231819,0.624396,-0.367708,-1.111176,40.9675,-284.4975,38.57
618,231916,0.7376119999999999,-0.31354,-1.083116,51.065,-311.115,51.9225
619,232012,0.7861680999999999,-0.2806,-0.9906401,63.8925,-335.265,65.4675
620,232108,0.799588,-0.260836,-0.9028,75.0575,-351.6975,77.665
621,232204,0.837408,-0.25790799999999997,-0.8586360000000001,81.81251,-359.31,87.3075
622,232300,0.898652,-0.271328,-0.876692,84.4375,-360.6225,93.31
623,232397,0.9911281,-0.300608,-0.950868,84.1225,-358.365,95.935
624,232493,1.122644,-0.35038400000000003,-1.082384,82.46,-355.075,97.19501
625,232589,1.23708,-0.39405999999999997,-1.1934040000000001,81.515,-353.9725,99.2075
626,232685,1.2622120000000001,-0.42700000000000005,-1.215608,83.72001,-353.85,103.1275
627,232782,1.169248,-0.411872,-1.081408,90.16001,-346.78,108.325
628,232878,1.15046,-0.395524,-1.083604,100.3275,-318.99,112.945
629,232974,1.765828,-0.358192,-1.570384,112.7175,-271.565,119.3675
630,233070,2.403644,-0.5343600000000001,-1.927112,126.805,-245.9275,130.2525
631,233167,2.924584,-0.6292760000000001,-2.1047439999999997,122.36,-255.5175,139.2825
632,233263,3.313764,-0.518988,-2.0496,102.1825,-282.1175,144.7075
633,233359,3.470656,-0.291824,-1.615768,88.70749,-317.7125,148.505
634,233455,3.293512,-0.033672,-0.8481440999999998,92.5925,-344.9425,154.035
635,233551,3.036336,0.185196,-0.050263999999999996,106.505,-341.67,161.6125
636,233648,2.979972,0.42602399999999996,0.5231359999999999,115.885,-300.3175,172.3575
637,233744,3.1812720000000003,0.508984,1.075308,113.995,-240.3625,186.62
638,233840,3.579236,0.9059721,1.617476,81.095,-183.2075,190.47
639,233936,3.7405199999999996,1.624064,2.127436,37.695,-140.35,169.9075
640,234033,3.167364,1.968592,2.581276,28.9625,-97.5275,124.25
641,234129,2.651548,1.542324,2.4026680000000002,40.005,-20.65,64.41751
642,234225,2.54126,0.8310639999999999,1.461316,21.14,67.97,6.79
643,234321,0.6019479999999999,-1.0972680000000001,0.41284799999999994,-62.055,147.735,-54.705
644,234417,-1.096536,-0.863028,-1.029924,-279.3525,240.695,-143.675
645,234514,0.9745360000000001,1.0643280000000002,-1.6814040000000001,-254.66,333.3925,-178.185
646,234610,2.1774560000000003,1.5616,-0.6661201,-201.7575,291.3925,-107.7125
647,234706,1.542568,1.23708,-1.204872,-65.43251,274.995,-26.67
648,234802,1.6226,1.210972,-1.924916,0.455,273.6125,-10.2725
649,234899,1.6714,0.7171161,-1.61406,-4.41,230.895,-61.88
650,234995,4.53718,-1.365668,-3.029016,12.2675,188.055,-99.0675
651,235091,1.0431,-1.545496,-0.28694400000000003,-1.8725,63.385,-60.13
652,235187,0.179584,0.73444,-1.32126,-99.0675,24.4475,-27.4925
653,235283,1.23586,0.317688,-1.8770919999999998,-87.5875,65.29251,-31.605
654,235380,0.53314,-0.8547319999999999,-0.5856,-59.5,-15.12,-40.53
655,235476,0.800808,0.387472,-1.47498,-58.5375,-0.5075,-19.5825
656,235572,0.555832,-0.08344800000000001,-0.859856,-30.6775,-20.825,-25.1825
657,235668,0.527772,-0.146156,-0.91012,-16.9225,-22.435,-22.6275
658,235765,0.478728,-0.025863999999999998,-0.922076,-17.8325,-16.3625,-16.73
659,235861,0.479216,-0.11394800000000001,-0.888648,-12.9325,-14.2975,-16.17
660,235957,0.47458,-0.028548,-0.9113399999999999,-11.095,-11.2525,-13.7025
661,236053,0.46481999999999996,-0.06588,-0.9023121,-7.035,-9.695,-11.2
662,236149,0.457988,-0.039528,-0.9089001,-4.3925,-6.3,-7.42
663,236246,0.480192,-0.07637200000000001,-0.8959681,-1.365,-2.8525,-4.095
664,236342,0.4743361,-0.09247601,-0.8847440999999999,0.5775,-1.3125,-2.2225
665,236438,0.47360399999999997,-0.093696,-0.8840120000000001,1.33,-1.0675,-2.03
666,236534,0.48531599999999997,-0.095648,-0.8827921000000001,1.47,-1.785,-2.695
667,236631,0.480436,-0.09735601,-0.885476,1.225,-3.7625,-2.835
668,236727,0.47092,-0.098332,-0.889136,1.645,-5.67,-2.24
669,236823,0.45725600000000005,-0.10052799999999999,-0.883768,2.5725,-5.95,-1.8375
670,236919,0.45018,-0.098088,-0.879864,3.43,-5.145,-2.1
671,237015,0.44408000000000003,-0.09028,-0.8805960999999999,4.165,-3.675,-2.5025
672,237112,0.44896,-0.08759601,-0.8801081000000001,5.04,-2.2225,-2.59
673,237208,0.44773999999999997,-0.08564401,-0.8796200000000001,5.915,-0.63,-2.17
674,237304,0.45457200000000003,-0.087352,-0.874984,6.685,0.5075,-1.8025
675,237400,0.456524,-0.09028,-0.874252,7.2625,0.945,-1.61
676,237497,0.450424,-0.10248,-0.8662001,7.5425,1.0675,-1.6275
677,237593,0.450424,-0.10858,-0.8701040000000001,7.595,1.12,-1.855
678,237689,0.45164399999999993,-0.114436,-0.8669319999999999,7.4725,0.9975,-2.59
679,237785,0.44652,-0.11053199999999999,-0.8720559999999999,7.315,0.6825,-3.43
680,237882,0.44652,-0.10614000000000001,-0.8701040000000001,7.4375,0.595,-4.445
681,237978,0.450912,-0.09125599999999999,-0.8701040000000001,7.5775,0.9625,-5.11
682,238074,0.446032,-0.09735601,-0.8647360000000001,8.1375,1.0675,-5.5825
683,238170,0.4514,-0.09540401,-0.863028,8.505,1.2075,-5.915
684,238266,0.45164399999999993,-0.100772,-0.858392,8.855,1.2075,-6.2125
685,238363,0.44725200000000004,-0.11467999999999999,-0.8569280999999999,8.75,0.7875,-6.7725
686,238459,0.44896,-0.125904,-0.855708,8.155,0.28,-7.5075
687,238555,0.43163599999999996,-0.13151600000000002,-0.853024,7.4375,0.175,-8.61
688,238651,0.427976,-0.131272,-0.8554641,6.9825,0.56,-10.2025
689,238748,0.4404201,-0.118096,-0.8596120999999999,6.3525,1.855,-11.34
690,238844,0.438956,-0.115656,-0.8713241,6.5275,3.9375,-11.3925
691,238940,0.44115200000000004,-0.118584,-0.886452,6.86,7.1575,-11.1825
692,239036,0.398696,-0.116876,-0.8820601,7.175,11.55,-11.1825
693,239133,0.393816,-0.125172,-0.891576,8.33,18.4275,-11.1125
694,239229,0.39479200000000003,-0.07198,-0.8962120000000001,9.45,27.755,-10.745
695,239325,0.371612,-0.108824,-0.908168,12.81,40.67,-9.73
696,239421,0.3599,-0.0793,-0.8964561,14.735,56.28,-9.03
697,239517,0.36722,-0.060267999999999995,-0.907192,18.935,77.175,-8.575
698,239614,0.35087199999999996,-0.0366,-0.913292,23.695,99.41751,-9.38
699,239710,0.377956,-0.07417601,-0.8962120000000001,27.965,127.82,-12.1275
700,239806,0.330376,-0.21716,-0.9745360000000001,25.2525,159.3025,-18.2875
701,239902,0.271816,-0.181292,-0.8967,12.1975,190.3825,-30.66
702,239999,0.285968,-0.027572000000000003,-0.889624,3.2725,233.31,-44.6775
703,240095,0.30841599999999997,-0.281332,-0.9394,-1.89,289.0825,-51.45
704,240191,0.296948,-0.486292,-0.9154880999999999,-13.1775,343.4375,-63.8225
705,240287,0.525332,-0.187636,-1.023336,-43.715,394.1875,-79.275
706,240384,1.110444,-0.30475599999999997,-1.334924,-51.1,445.6725,-87.7625
707,240480,1.178032,-0.194224,-1.6621279999999998,-53.2875,470.05,-97.825
708,240576,1.3268719999999998,-0.077348,-1.18584,-12.7575,507.325,-96.56501
709,240672,1.868308,-0.099552,-1.7160520000000001,13.405,545.1775,-109.655
710,240768,2.511736,-0.388448,-2.7389,22.47,561.5925,-113.61
711,240865,1.94346,-0.46945600000000004,-2.394616,27.1425,486.9725,-103.32
712,240961,1.1660760000000001,-0.664412,-2.000068,13.195,411.1275,-118.5275
713,241057,-0.25742,-0.822768,-1.260016,-7.77,365.8375,-126.0525
714,241153,0.36282800000000004,-0.003904,-1.180228,-45.85,380.2575,-128.905
715,241249,3.58924,-0.343064,-4.5506,-48.825,419.475,-136.29
716,241346,2.523692,-0.7078439999999999,-4.2334,11.27,209.3,-110.355
717,241442,1.211216,-0.887184,-3.3652480000000002,51.0475,-22.085,-78.225
718,241538,-0.047824,-0.7449321,-1.795596,47.7575,-159.6875,-59.815
719,241634,-0.585112,-0.551928,-1.072136,35.4375,-203.7875,-55.6325
720,241731,-0.632448,-0.428464,-0.734928,29.6625,-197.12,-55.7025
721,241827,-0.496784,-0.345748,-0.720532,32.41,-182.5075,-51.6425
722,241923,-0.231312,-0.323056,-0.8486319999999999,47.2675,-173.74,-38.9725
723,242019,-0.000732,-0.37942,-0.9764879999999999,66.395,-177.7125,-20.44
724,242116,0.18666,-0.467992,-1.08336,78.0325,-193.3575,-1.5225
725,242212,0.30182800000000004,-0.49434399999999995,-1.159244,77.84,-217.6475,14.035
726,242308,0.393328,-0.4392,-1.212924,71.365,-245.385,27.2125
727,242404,0.4819,-0.343796,-1.21512,68.4425,-273.8225,40.6
728,242500,0.56852,-0.253272,-1.1599760000000001,73.7275,-300.475,55.4925
729,242597,0.640744,-0.18446400000000002,-1.072136,84.6475,-322.5075,71.365
730,242693,0.68076,-0.143228,-0.9764879999999999,95.865,-338.5725,85.6625
731,242789,0.73078,-0.12053599999999999,-0.9352520000000001,103.67,-347.025,97.05501
732,242885,0.8020281,-0.11321600000000001,-0.9577,106.47,-349.3875,105.1575
733,242982,0.8888921000000001,-0.11467999999999999,-1.027484,105.0875,-348.915,108.64
734,243078,1.021384,-0.14274,-1.159244,101.6225,-348.285,108.325
735,243174,1.166564,-0.204228,-1.3005200000000001,96.91501,-350.0,106.26
736,243270,1.295152,-0.28426,-1.4234959999999999,92.645,-354.4275,105.2625
737,243366,1.3851879999999999,-0.34648,-1.50914,90.055,-359.3625,108.71
738,243463,1.392508,-0.35746,-1.495476,91.14,-360.64,117.4425
739,243559,1.389092,-0.281088,-1.3886040000000002,100.835,-349.2475,129.0275
740,243655,1.778028,-0.256932,-1.536712,116.7775,-315.8225,139.51
741,243751,2.4029119999999997,-0.355508,-1.7733919999999999,126.035,-283.1325,146.965
742,243848,3.028772,-0.418704,-1.945168,119.1925,-273.8225,152.04
743,243944,3.5221400000000003,-0.24717199999999998,-1.907836,101.6575,-286.9475,158.0075
744,244040,3.8005440000000004,-0.057096,-1.4945,89.88,-315.3325,167.0025
745,244136,3.7944440000000004,0.052703999999999994,-0.638304,85.69751,-339.9025,177.7125
746,244233,3.6795199999999997,0.193004,0.334768,74.235,-337.9775,188.1775
747,244329,3.6285239999999996,0.37576,1.2871,50.155,-301.6125,196.735
748,244425,3.782976,0.775188,2.126216,15.1025,-241.92,196.28
749,244521,3.9506040000000002,1.458632,2.64984,-10.01,-175.2275,174.1075
750,244617,3.52702,1.826096,2.908236,8.89,-105.735,134.855
751,244714,3.00486,1.3834799999999998,2.657648,54.0575,-18.1125,91.8575
752,244810,2.8077080000000003,0.6351319999999999,1.838296,57.4175,74.9875,48.58
753,244906,0.242048,-0.07344400000000001,0.203252,2.2575,141.1025,4.69
754,245002,-2.374852,-1.319796,-4.140680000000001,-106.3475,200.0075,-56.84
755,245099,-1.566236,-0.38966799999999996,-1.90198,-200.34,217.8925,-148.5225
756,245195,1.16144,1.81902,0.29524,-200.8125,297.08,-191.87
757,245291,2.431704,1.205848,-1.124596,-180.53,308.1575,-149.38
758,245387,2.031788,0.624884,-2.2936,-43.0675,287.315,-88.39251
759,245483,1.057252,0.176656,-0.8910879999999999,-10.22,223.6325,-60.69
760,245580,1.40422,-0.1098,-1.255868,-10.7975,218.435,-69.93
761,245676,4.212904,-0.6734399999999999,-2.95728,-10.36,206.4475,-72.87
762,245772,1.405196,-0.7176041,-1.00406,-8.715,95.8125,-58.1875
763,245868,0.05977999999999999,0.5751081,-1.0911680000000001,-80.8675,8.9775,-39.8125
764,245965,1.2846600000000001,0.00366,-1.885144,-70.175,69.16,-31.2025
765,246061,0.489708,-0.678076,-0.6109760000000001,-57.645,-7.4725,-31.3075
766,246157,0.6709999999999999,0.085888,-1.2900280000000002,-53.27,5.39,-15.3475
767,246253,0.656848,0.05563200000000001,-0.964776,-34.685,-7.1925,-19.4075
768,246349,0.548756,-0.23082399999999997,-0.873764,-17.325,-19.145,-21.735
769,246446,0.504592,-0.032451999999999995,-0.9179280000000001,-17.5875,-14.245,-16.415
770,246542,0.512644,-0.101748,-0.8996280999999999,-13.755,-14.42,-16.135
771,246638,0.459208,-0.060024,-0.9137799999999999,-11.3575,-11.9525,-12.5825
772,246734,0.47482399999999997,-0.05856,-0.908168,-7.98,-8.2775,-9.4675
773,246831,0.47994799999999993,-0.053924,-0.9093880999999999,-4.27,-5.215,-6.16
774,246927,0.467992,-0.08662001,-0.889624,-1.435,-2.8525,-3.0275
775,247023,0.4697,-0.08808401,-0.8913321,0.42,-1.2075,-1.435
776,247119,0.475312,-0.101992,-0.883768,1.505,-0.805,-1.5575
777,247216,0.467992,-0.11614400000000001,-0.8730319999999999,2.0475,-1.3125,-2.1175
778,247312,0.46726,-0.115656,-0.8723001,1.8025,-2.065,-2.275
779,247408,0.465308,-0.11614400000000001,-0.8796200000000001,1.3125,-3.4125,-2.0825
780,247504,0.46481999999999996,-0.11224,-0.883524,1.26,-4.6375,-1.68
781,247600,0.45115600000000006,-0.11467999999999999,-0.8769360999999999,2.205,-5.075,-1.54
782,247697,0.44725200000000004,-0.111996,-0.8788879999999999,3.0275,-4.4275,-1.645
783,247793,0.442616,-0.110044,-0.874984,3.8675,-3.5,-1.5925
784,247889,0.450912,-0.11712,-0.8727879999999999,4.3925,-2.345,-1.47
785,247985,0.44896,-0.12053599999999999,-0.87108,4.62,-1.6275,-1.855
786,248082,0.450668,-0.1281,-0.8674200000000001,4.5675,-1.54,-2.5725
787,248178,0.456524,-0.133712,-0.861808,3.9375,-1.68,-3.675
788,248274,0.452376,-0.13176,-0.8613200000000001,3.1675,-2.485,-5.18
789,248370,0.44944799999999996,-0.132492,-0.8591241,2.4325,-3.1325,-6.6675
790,248467,0.44383599999999995,-0.122244,-0.86498,1.75,-3.8675,-8.155
791,248563,0.447008,-0.11126400000000002,-0.8713241,1.6275,-4.375,-9.2925
792,248659,0.47067600000000004,-0.098576,-0.8784,1.925,-4.2525,-9.765
793,248755,0.44212799999999997,-0.096868,-0.8718120999999999,3.08,-4.025,-9.4675
794,248852,0.43798000000000004,-0.09735601,-0.8720559999999999,4.2875,-2.6775,-9.0125
795,248948,0.447496,-0.091988,-0.876692,5.88,-0.735,-8.2775
796,249044,0.4404201,-0.09784401,-0.8647360000000001,7.63,0.6125,-7.8575
797,249140,0.438712,-0.09711201,-0.8669319999999999,8.3825,1.2775,-7.595
798,249236,0.447984,-0.106628,-0.865956,9.135,2.205,-7.105
799,249333,0.42895200000000006,-0.11834000000000001,-0.863516,9.94,3.605,-6.895
800,249429,0.422364,-0.115656,-0.8713241,10.6225,5.2325,-7.4025
801,249525,0.449692,-0.126636,-0.8718120999999999,11.1825,7.6825,-7.875
802,249621,0.438468,-0.100772,-0.8849879999999999,11.1125,10.045,-7.6475
803,249718,0.40894400000000003,-0.095648,-0.8866961,12.04,13.9125,-6.4575
804,249814,0.38552,-0.089304,-0.8876719999999999,13.9475,21.07,-5.0575
805,249910,0.41358,-0.140544,-0.8823040000000001,16.8525,31.0275,-4.2175
806,250006,0.362584,-0.09735601,-0.8847440999999999,19.145,41.615,-4.8125
807,250103,0.351848,-0.136884,-0.8959681,22.4,56.9625,-5.7925
808,250199,0.334524,-0.105652,-0.883768,23.5025,75.39,-8.9075
809,250295,0.368684,-0.104676,-0.8723001,27.02,99.17251,-13.65
810,250391,0.335012,-0.05612,-0.8910879999999999,31.325,126.105,-18.9525
811,250487,0.352092,-0.033672,-0.9379360000000001,34.055,159.0925,-23.7125
812,250584,0.28181999999999996,-0.2318,-0.8937719999999999,32.3225,194.8975,-30.6775
813,250680,0.344528,-0.05636401,-0.8913321,23.625,238.0525,-39.7425
814,250776,0.280844,-0.42138809999999993,-0.8847440999999999,22.575,288.575,-45.675
815,250872,0.345016,-0.20788800000000002,-0.8105680000000001,2.9225,335.5625,-50.6625
816,250969,0.48873199999999994,-0.513376,-0.9684360999999999,-39.2175,380.275,-66.78
817,251065,1.0023520000000001,-0.091744,-1.48596,-49.0525,425.6175,-79.135
818,251161,1.055544,-0.29597199999999996,-1.42984,-53.48,457.2225,-91.4375
819,251257,1.536224,-0.021472,-1.4400879999999998,-21.84,496.0725,-96.21500999999999
820,251353,1.577216,-0.31354,-1.350784,2.7475,541.0125,-104.755
821,251450,2.546872,-0.429684,-2.5876200000000003,-16.45,568.4525,-118.8775
822,251546,2.29238,-0.434808,-2.599576,-23.415,506.9575,-101.43
823,251642,1.41276,-0.625372,-2.195024,-22.3825,420.7,-109.9
824,251738,0.038064,-0.7044279999999999,-1.494256,-34.335,372.2425,-114.9575
825,251835,-0.15616,-0.186416,-1.130696,-47.8975,377.1425,-107.835
826,251931,3.339872,-0.450668,-3.578992,-46.76,427.6475,-118.3525
827,252027,2.8313759999999997,-0.826916,-4.4134720000000005,-0.8400001,284.76,-105.7175
828,252123,1.5201200000000001,-1.036268,-3.630232,14.0,20.5975,-80.01
829,252219,0.258884,-0.72956,-2.18624,-1.505,-137.865,-60.025
830,252316,-0.44237200000000004,-0.5543680000000001,-1.312232,-16.0825,-210.6475,-57.33
831,252412,-0.648552,-0.388448,-0.794708,-16.52,-222.1275,-60.34
832,252508,-0.555832,-0.304512,-0.7166279999999999,-8.0675,-212.59,-62.7025
833,252604,-0.3477,-0.29158,-0.75884,10.6575,-204.2425,-58.8525
834,252701,-0.086864,-0.365512,-0.874984,33.39,-204.645,-48.79
835,252797,0.107116,-0.484096,-0.9608721,50.1025,-218.085,-37.0825
836,252893,0.235948,-0.549732,-1.00406,54.145,-239.3125,-26.0925
837,252989,0.29768,-0.533872,-1.021628,50.3475,-264.215,-15.6625
838,253086,0.381128,-0.473116,-1.0321200000000001,48.2475,-287.525,-4.445
839,253182,0.50752,-0.393328,-1.02968,54.005,-307.6675,9.1
840,253278,0.618052,-0.325252,-0.9857600000000001,67.97,-325.7975,24.4825
841,253374,0.7044279999999999,-0.30134,-0.9272,85.0675,-339.605,40.11
842,253471,0.781532,-0.291824,-0.904752,99.12001,-348.25,54.32
843,253567,0.856684,-0.288896,-0.9106081,107.2925,-352.66,65.2575
844,253663,0.935008,-0.284748,-0.966484,110.6875,-353.9725,72.45
845,253759,1.040416,-0.287188,-1.073112,112.525,-353.22,76.65
846,253856,1.1812040000000001,-0.323056,-1.21024,115.01,-352.4675,79.2225
847,253952,1.308816,-0.38064000000000003,-1.356152,118.0025,-353.9025,81.97001
848,254048,1.398608,-0.401868,-1.486204,121.275,-356.4225,87.53501
849,254144,1.443016,-0.354288,-1.497184,127.9075,-355.8275,95.83
850,254240,1.452776,-0.24424400000000002,-1.3766479999999999,144.865,-344.0325,104.825
851,254337,1.808772,-0.17519200000000001,-1.4959639999999998,169.2775,-311.5175,113.1725
852,254433,2.46928,-0.254736,-1.7692439999999998,190.9775,-278.2325,121.59
853,254529,3.083428,-0.380396,-1.90442,196.175,-271.88,129.1325
854,254625,3.574844,-0.359656,-1.777296,178.92,-287.6825,136.7275
855,254722,3.711728,-0.114192,-1.280268,152.11,-315.4025,147.315
856,254818,3.561668,0.27718400000000004,-0.503372,133.56,-331.4675,163.3625
857,254914,3.345972,0.6993041,0.289628,128.695,-315.3675,183.26
858,255010,3.281068,0.802272,0.9696561,129.0625,-266.4375,201.9675
859,255107,3.4282,0.781532,1.653344,100.415,-204.5575,206.71
860,255203,3.6900120000000003,1.268068,2.1106,27.0725,-145.285,182.6475
861,255299,3.57216,1.9010040000000001,2.341668,-29.3475,-92.4525,132.0025
862,255395,3.124176,1.8883159999999999,2.265784,-18.0075,-30.065,74.7075
863,255492,2.790384,1.21268,1.779004,16.1875,46.865,27.1425
864,255588,2.572736,0.499224,0.889136,7.7525,117.04,-7.7525
865,255684,-1.25294,-2.4270680000000002,-2.652524,-69.3,162.33,-46.48
866,255780,-2.145248,-0.759084,-2.2579759999999998,-291.27,207.6375,-111.44
867,255877,0.336964,1.5225600000000001,0.41504399999999997,-226.7825,264.845,-154.5775
868,255973,1.719468,1.85684,-0.068076,-224.735,289.7825,-111.125
869,256069,2.142564,1.2724600000000001,-2.261636,-66.9025,315.5775,-52.9375
870,256165,1.404952,0.7993439999999999,-1.398608,-19.6525,251.1075,-47.67
871,256262,1.618696,0.231312,-1.2634319999999999,-26.39,213.6225,-86.765
872,256358,4.84462,-1.34322,-2.940688,-1.0675,197.7675,-89.67
873,256454,0.322324,-0.64782,-0.245952,-48.09,32.9175,-57.96
874,256550,0.5934081,0.7178479999999999,-1.981036,-109.0075,39.9875,-38.36
875,256646,1.185108,-0.0854,-1.355176,-77.945,43.925,-37.6425
876,256743,0.444568,-0.636596,-0.8420440999999999,-55.5625,-16.17,-31.9725
877,256839,0.748836,0.49312399999999995,-1.312476,-52.9725,1.8375,-13.4575
878,256935,0.550708,-0.305976,-0.846924,-23.8525,-22.0325,-22.435
879,257031,0.509228,-0.0034159999999999998,-0.9433041,-18.935,-15.365,-14.4725
880,257128,0.511668,-0.07173600000000001,-0.917684,-15.925,-13.895,-12.6875
881,257224,0.4636,-0.07442,-0.9042641,-11.2525,-13.1075,-10.745
882,257320,0.46603999999999995,-0.047580000000000004,-0.9142680000000001,-8.6975,-9.87,-7.945
883,257416,0.449204,-0.09247601,-0.898408,-4.6725,-7.7175,-5.4775
884,257513,0.438224,-0.08759601,-0.8918200000000001,-2.1,-4.6375,-2.59
885,257609,0.42773199999999995,-0.104676,-0.8827921000000001,0.0875,-2.2925,-0.42
886,257705,0.4514,-0.11102000000000001,-0.883768,1.4,0.455,1.26
887,257801,0.4594521,-0.130052,-0.8813280000000001,2.135,1.33,1.4
888,257898,0.46116,-0.12468399999999999,-0.8762040000000001,1.96,0.49,0.07
889,257994,0.46896800000000005,-0.1159,-0.883524,1.12,-1.0325,-1.1725
890,258090,0.46896800000000005,-0.119316,-0.8903561,0.5425,-3.29,-1.3125
891,258186,0.46896800000000005,-0.104676,-0.8964561,0.8925,-5.11,-0.91
892,258283,0.457744,-0.10638399999999999,-0.889624,2.2925,-5.8625,-0.63
893,258379,0.453596,-0.09930800000000001,-0.8881600000000001,3.5,-5.0925,-0.35
894,258475,0.44066400000000006,-0.10394400000000001,-0.8781559999999999,4.865,-4.165,-0.07
895,258571,0.44066400000000006,-0.10906800000000001,-0.877668,5.915,-2.8875,0.49
896,258667,0.445788,-0.11394800000000001,-0.8764481,6.4575,-1.7325,0.63
897,258764,0.44676400000000005,-0.118828,-0.8744960999999999,6.7375,-1.12,0.2625
898,258860,0.45018,-0.12444000000000001,-0.8703481,6.65,-1.2075,-0.3675
899,258956,0.4404201,-0.131028,-0.868396,6.3875,-1.5575,-1.05
900,259052,0.430172,-0.134688,-0.8669319999999999,6.02,-1.8725,-2.135
901,259149,0.43066000000000004,-0.1281,-0.869128,5.81,-1.925,-3.465
902,259245,0.432612,-0.11053199999999999,-0.8723001,5.635,-1.855,-4.55
903,259341,0.425292,-0.10418800000000002,-0.8730319999999999,5.915,-1.54,-5.3375
904,259437,0.42285200000000006,-0.114192,-0.870592,6.2475,-0.9625,-5.915
905,259534,0.41968,-0.132492,-0.8615640999999999,6.1075,-0.4725,-6.8075
906,259630,0.434076,-0.134688,-0.858392,5.495,-0.3325,-8.05
907,259726,0.448716,-0.139324,-0.864492,4.9,-0.91,-9.135
908,259822,0.435784,-0.14518,-0.8532681000000001,5.2325,-1.4875,-9.66
909,259918,0.4209,-0.158112,-0.859856,5.32,-2.345,-10.535
910,260015,0.42187600000000003,-0.143716,-0.8657120999999999,4.865,-1.5225,-12.04
911,260111,0.4453,-0.12029200000000001,-0.8813280000000001,4.9875,-0.1575,-12.88
912,260207,0.44212799999999997,-0.11712,-0.882548,5.8275,1.8375,-12.32
913,260303,0.42748800000000003,-0.125416,-0.8815719999999999,6.7725,4.235,-11.5325
914,260400,0.43505200000000005,-0.11712,-0.9001161,7.2975,6.86,-11.27
915,260496,0.407236,-0.1159,-0.8991401,7.945,10.71,-10.9375
916,260592,0.377712,-0.101748,-0.9108521,8.6975,16.905,-10.9375
917,260688,0.344528,-0.116876,-0.90036,10.92,26.32,-11.865
918,260785,0.37332,-0.123708,-0.9259799999999999,13.37,40.495,-11.7075
919,260881,0.294508,-0.13785999999999998,-0.8971879999999999,16.4675,57.6625,-11.97
920,260977,0.319884,-0.087352,-0.924516,20.125,80.5875,-14.0525
921,261073,0.31232,-0.055388,-0.921344,26.635,108.71,-15.925
922,261169,0.30353600000000003,-0.16592,-0.942816,31.5525,141.5925,-19.8625
923,261266,0.25424800000000003,-0.111996,-0.9655081,23.8525,175.63,-30.3625
924,261362,0.27571999999999997,-0.009028000999999999,-0.904752,11.62,213.3775,-43.2075
925,261458,0.21716,-0.30256,-0.9203680000000001,10.395,269.01,-51.38
926,261554,0.267424,-0.336964,-0.9384239999999999,-0.7525,328.93,-63.805
927,261651,0.409432,-0.242536,-0.9284200999999999,-21.8225,386.0325,-79.6775
928,261747,0.9120720999999999,-0.324764,-1.282708,-31.78,445.655,-92.5225
929,261843,1.122156,-0.410652,-1.55062,-31.4825,487.4275,-103.285
930,261939,1.543788,-0.152256,-1.589904,-3.9725,512.505,-116.515
931,262036,1.438136,-0.29597199999999996,-1.3266280000000001,25.375,535.4475,-135.065
932,262132,2.534916,-0.5734,-2.897256,38.1675,562.73,-152.9325
933,262228,2.121336,-0.7041841,-2.612752,57.7325,488.7225,-151.3575
934,262324,1.077504,-0.708088,-1.830976,53.48,403.9175,-164.3775
935,262421,-0.05636401,-1.0206520000000001,-1.253428,36.365,366.6425,-178.2375
936,262517,0.111996,-0.44066400000000006,-1.4034879999999998,-21.9275,366.5725,-189.105
937,262613,3.4865160000000004,-0.33916,-4.811923999999999,-46.1475,373.975,-199.115
938,262709,2.013,-0.761524,-4.074312,41.8075,165.9175,-171.6225
939,262806,0.8457040000000001,-1.02358,-3.0863560000000003,99.0675,-59.5875,-134.9075
940,262902,-0.273768,-0.972828,-1.527684,116.0075,-181.1075,-108.955
941,262998,-0.8752280000000001,-1.031144,-0.605364,111.44,-217.245,-92.2075
942,263094,-0.6902761,-0.7795801,-0.5697399999999999,85.19,-193.2175,-77.2975
943,263191,-0.441884,-0.5694961,-0.7044279999999999,79.52,-174.8075,-55.0025
944,263287,-0.149816,-0.42578,-0.9564799999999999,103.3725,-169.2425,-20.9475
945,263383,0.08564401,-0.450912,-1.129476,142.1175,-180.4425,19.6525
946,263479,0.186172,-0.518256,-1.176568,167.58,-205.3275,57.855
947,263575,0.205448,-0.454084,-1.1599760000000001,165.025,-235.06,86.24
948,263672,0.246196,-0.219356,-1.158512,147.2625,-261.7125,103.985
949,263768,0.31842,0.060267999999999995,-1.152656,136.115,-284.3925,115.605
950,263864,0.378444,0.29597199999999996,-1.1289879999999999,142.1175,-302.6625,122.3425
951,263960,0.48702399999999996,0.42724399999999996,-1.17852,157.955,-315.7,124.565
952,264057,0.6097560000000001,0.538508,-1.2700200000000001,173.2675,-326.2175,121.5025
953,264153,0.7241920000000001,0.649284,-1.383724,183.715,-336.945,112.5075
954,264249,0.793488,0.743712,-1.467172,192.815,-348.39,98.7175
955,264345,0.85034,0.8113001,-1.545984,202.0375,-357.56,81.76001
956,264442,0.8862081,0.8581479999999999,-1.582584,211.4875,-364.035,63.1575
957,264538,0.821304,0.9638,-1.48474,222.53,-364.805,44.3275
958,264634,0.839116,1.0614,-1.3954360000000001,237.7025,-348.7575,26.39
959,264730,1.036024,1.0208959999999998,-1.52378,251.2125,-317.03,7.4375
960,264826,1.6582240000000001,0.9018241,-2.156716,257.5125,-282.2225,-9.4325
961,264923,2.3955919999999997,0.8164239999999999,-2.6947360000000002,252.0525,-276.5875,-16.555
962,265019,2.5866439999999997,0.798856,-2.364848,239.505,-316.855,-15.75
963,265115,2.55956,1.022848,-1.818532,227.22,-349.4925,-15.0675
964,265211,2.697664,1.127524,-1.315648,225.785,-350.35,-11.27
965,265308,2.931416,1.065304,-0.889624,225.0675,-330.33,-6.265
966,265404,2.923608,1.096048,-0.221308,203.5775,-306.145,-2.7125
967,265500,2.88164,1.172908,0.468236,161.1925,-268.3625,0.035
968,265596,2.944836,1.376892,0.9274440999999999,104.5975,-214.76,3.6575
969,265692,3.1873720000000003,1.749724,1.2383,53.69,-162.3125,7.7525
970,265789,3.120028,1.732156,1.7385,24.5525,-120.8725,-2.8175
971,265885,2.805268,1.64212,1.9068599999999998,-6.02,-70.385,-32.27
972,265981,1.791204,1.130208,1.247328,-29.4525,-3.255,-67.9
973,266077,-0.010004,0.13078399999999998,1.041636,-134.96,97.9125,-128.415
974,266174,0.9152440000000001,-0.707356,-3.365004,-351.4875,188.8075,-243.5125
975,266270,0.26156799999999997,0.597312,-2.258464,-316.05,155.645,-243.5475
976,266366,-0.28157600000000005,0.518256,1.173152,-205.415,113.82,-143.4125
977,266462,1.00894,0.549244,-0.957944,-152.0225,224.4025,-66.78
978,266558,2.202588,0.9206120000000001,-2.434144,-87.8675,258.3175,-39.0775
979,266655,2.147932,0.8471681000000001,-1.597712,-68.565,181.16,-55.055
980,266751,3.037312,-0.8591241,-2.121824,-29.5225,118.2125,-71.47
981,266847,0.01342,-0.042456,-0.51972,-44.31,9.1,-35.14
982,266943,0.503616,0.679784,-1.601128,-75.81,42.6125,-21.6825
983,267039,0.8713241,-0.21618400000000002,-1.072624,-60.1475,24.5525,-39.3925
984,267136,0.554856,-0.5206960999999999,-0.8971879999999999,-43.8025,-1.085,-34.2825
985,267232,0.7571321,0.390156,-1.279292,-49.0875,4.375,-19.9675
986,267328,0.463844,-0.1647,-0.85644,-22.6975,-14.21,-27.02
987,267424,0.484584,-0.185196,-0.8910879999999999,-13.965,-12.285,-24.5525
988,267521,0.514352,-0.015128,-0.9259799999999999,-16.24,-7.42,-20.685
989,267617,0.48263199999999995,-0.09247601,-0.9010921000000001,-13.0375,-7.2975,-18.6375
990,267713,0.47092,-0.023912,-0.9206120000000001,-12.3025,-4.1125,-14.3675
991,267809,0.47458,-0.06636801,-0.9067040000000001,-9.975,-1.085,-11.2
992,267906,0.456768,-0.0732,-0.893284,-6.8425,1.3475,-8.5225
993,268002,0.45603599999999994,-0.100284,-0.882548,-4.0775,3.465,-7.35
994,268098,0.564128,-0.06344,-0.9120720999999999,-2.275,5.3375,-6.79
995,268194,0.48678,-0.11224,-0.8869401,0.875,3.535,-6.8425
996,268290,0.493856,-0.11248399999999999,-0.8757159999999999,0.9975,3.605,-7.84
997,268387,0.49263599999999996,-0.104676,-0.879864,0.2975,1.9775,-8.8025
998,268483,0.485072,-0.11028800000000001,-0.8720559999999999,0.7875,0.7175,-8.54
999,268579,0.479704,-0.11614400000000001,-0.8740081000000001,1.7325,0.455,-7.875
1000,268675,0.473116,-0.10687200000000001,-0.8757159999999999,2.5725,1.3825,-7.035
1001,268772,0.47213999999999995,-0.10516400000000001,-0.86864,3.3775,2.38,-6.3
1002,268868,0.47336000000000006,-0.105896,-0.870592,4.13,3.115,-5.9325
1003,268964,0.47043199999999996,-0.0976,-0.8725440999999999,4.935,3.6925,-5.39
1004,269060,0.46945600000000004,-0.10248,-0.8723001,5.845,4.34,-5.1975
1005,269157,0.47067600000000004,-0.11028800000000001,-0.8666879999999999,6.58,5.005,-5.18
1006,269253,0.46506400000000003,-0.12468399999999999,-0.8669319999999999,7.105,5.6875,-5.3375
1007,269349,0.477264,-0.12029200000000001,-0.86498,7.0175,6.4225,-5.8975
1008,269445,0.4819,-0.11760799999999999,-0.8642481,6.965,6.8075,-6.44
1009,269542,0.4819,-0.11955999999999999,-0.859368,7.105,7.105,-6.755
1010,269638,0.484584,-0.12566,-0.858392,6.965,7.14,-6.6325
1011,269734,0.47702,-0.13176,-0.8559521000000001,6.37,7.245,-6.3525
1012,269830,0.48068,-0.130296,-0.8549761,5.915,7.8925,-6.3175
1013,269926,0.478972,-0.12322000000000001,-0.8527800999999999,5.88,8.5575,-6.755
1014,270023,0.470188,-0.098576,-0.8576601,5.7225,9.24,-6.6675
1015,270119,0.47604399999999997,-0.091744,-0.8740081000000001,6.825,11.3225,-5.8625
1016,270215,0.465552,-0.117852,-0.853024,9.3625,13.86,-4.865
1017,270311,0.48116800000000004,-0.091744,-0.859856,9.275,16.8875,-5.1625
1018,270408,0.46848,-0.121512,-0.8525360000000001,10.64,19.4775,-4.725
1019,270504,0.48433999999999994,-0.112972,-0.8518040000000001,12.0225,23.24,-4.9
1020,270601,0.499224,-0.120048,-0.829356,13.58,26.8625,-5.11
1021,270696,0.509716,-0.1281,-0.82594,14.7875,28.9625,-5.3375
1022,270793,0.496296,-0.133956,-0.8298440999999999,14.9975,30.17,-5.6525
1023,270889,0.477264,-0.150792,-0.8364321,14.98,33.4425,-5.1975
1024,270985,0.46848,-0.16835999999999998,-0.8317960999999999,15.015,39.4625,-6.3875
1025,271081,0.479216,-0.175924,-0.8254520000000001,15.0325,47.1975,-10.15
1026,271178,0.4933681,-0.17202,-0.829356,14.455,55.4575,-14.315
1027,271274,0.486292,-0.195688,-0.8418,12.04,64.085,-18.3225
1028,271370,0.482876,-0.14078800000000002,-0.85156,6.16,74.62,-22.3825
1029,271466,0.492148,-0.1037,-0.8752280000000001,2.94,88.11251,-26.565
1030,271563,0.49141599999999996,-0.101504,-0.8666879999999999,1.435,103.075,-30.835
1031,271659,0.466528,-0.07002799999999999,-0.8971879999999999,-0.0525,123.935,-35.6825
1032,271755,0.4209,-0.148108,-0.9376921,-0.7175,151.0775,-41.475
1033,271851,0.492392,-0.14786400000000002,-0.934276,-5.5125,182.665,-49.1575
1034,271947,0.515328,-0.15274400000000002,-0.9298841,-7.4025,215.9675,-59.15
1035,272044,0.49702799999999997,-0.22935999999999998,-0.9289081,2.94,252.175,-71.7675
1036,272140,0.634156,-0.279624,-1.062864,22.5925,297.115,-85.3825
1037,272236,0.9247601000000001,-0.284016,-1.424472,54.2325,343.42,-97.37
1038,272332,1.077992,-0.242048,-1.3827479999999999,106.3825,378.2625,-107.0475
1039,272429,0.8464360000000001,-0.034404000000000004,-1.4069040000000002,154.5775,395.4825,-123.5325
1040,272525,1.395924,-0.674416,-1.611132,206.115,423.7625,-144.375
1041,272621,1.3388280000000001,-0.510936,-1.355908,215.6,397.81,-166.005
1042,272717,1.208532,-0.41284799999999994,-1.365668,197.2775,375.6725,-184.625
1043,272814,0.9572120999999999,-0.15274400000000002,-1.4295959999999999,204.155,350.21,-191.2575
1044,272910,0.8547319999999999,0.10248,-1.282952,262.535,315.455,-186.585
1045,273006,0.671732,0.049776,-2.043988,333.6375,277.97,-187.32
1046,273102,2.2543159999999998,-0.213256,-2.745244,371.8925,187.67,-210.49
1047,273199,1.420568,-1.429352,-2.952644,375.83,44.4325,-231.9625
1048,273295,0.39528,-1.476444,-1.6628599999999998,302.365,-121.2925,-220.4125
1049,273391,-0.24082800000000001,-0.863516,-1.071648,204.19,-172.48,-187.845
1050,273487,-0.4087,-0.227408,-0.894748,185.1675,-175.9625,-131.7575
1051,273583,-0.440176,0.0122,-0.80886,236.4425,-159.215,-63.35
1052,273680,-0.404552,-0.029768,-0.8532681000000001,296.275,-144.9525,0.945
1053,273776,-0.312564,0.05977999999999999,-1.057008,309.8025,-135.7125,47.0925
1054,273872,-0.12980799999999998,0.453596,-1.45668,283.2725,-137.1125,72.1175
1055,273968,0.028792,0.9557479999999999,-1.771196,256.6375,-155.295,80.0275
1056,274065,0.099552,1.30418,-1.849764,252.105,-187.0575,74.025
1057,274161,0.077592,1.5013319999999999,-1.7345959999999998,259.6125,-220.85,57.435
1058,274257,0.07076001,1.6731080000000003,-1.6023479999999999,262.92,-245.5775,33.215
1059,274353,0.11224,1.809504,-1.536224,262.6225,-260.575,3.2025
1060,274450,0.23424,1.8304880000000001,-1.5584280000000001,264.88,-270.1125,-28.56
1061,274546,0.36112,1.7324,-1.619428,268.2575,-279.79,-57.8375
1062,274642,0.468724,1.62504,-1.668716,268.03,-292.53,-82.0225
1063,274738,0.47336000000000006,1.530856,-1.580144,266.28,-307.615,-99.9775
1064,274834,0.40967600000000004,1.461804,-1.389092,266.4025,-318.08,-112.3325
1065,274931,0.43798000000000004,1.4130040000000001,-1.3022280000000002,267.645,-314.9125,-120.855
1066,275027,0.522404,1.361276,-1.297836,268.9575,-303.6425,-127.6975
1067,275123,0.641232,1.2261,-1.365424,266.245,-289.695,-137.27
1068,275219,0.797148,1.1163,-1.499868,258.4575,-275.87,-148.12
1069,275316,1.110932,1.0858,-1.699948,256.795,-263.655,-152.2675
1070,275412,1.4417959999999999,1.036512,-1.800964,266.2275,-260.0675,-145.7225
1071,275508,1.683356,1.04798,-1.7699759999999998,270.7075,-265.9825,-134.015
1072,275604,1.839272,1.186816,-1.628944,262.6225,-274.19,-124.2675
1073,275701,1.9236959999999999,1.344196,-1.417152,248.7975,-281.05,-118.86
1074,275797,1.955416,1.481568,-1.074576,233.1175,-283.08,-118.51
1075,275893,2.013732,1.491084,-0.6795401,213.1675,-275.5725,-122.045
1076,275989,2.149396,1.1916959999999999,-0.15420799999999998,181.6675,-259.21,-129.955
1077,276086,2.296284,1.16388,0.266448,131.775,-233.17,-142.1525
1078,276182,2.437072,1.037976,0.6058520000000001,93.4675,-193.62,-147.945
1079,276278,2.537112,0.8054439999999999,0.815936,69.87751,-150.185,-141.5225
1080,276374,2.506368,0.638548,0.9557479999999999,43.19,-107.6775,-121.905
1081,276470,2.359236,0.5826720000000001,0.950868,7.42,-62.72,-92.61001
1082,276567,2.222352,0.68076,0.7034521,-34.5625,-16.345,-59.15
1083,276663,2.102548,0.876692,0.337208,-72.975,23.485,-32.4275
1084,276759,1.060668,1.4701,-0.06075601,-99.9425,50.61,-22.6625
1085,276855,-0.5307,-2.061068,-3.118808,-67.3575,75.95,-76.0375
1086,276952,-1.175836,-1.538664,-2.850896,-53.095,28.035,-181.265
1087,277048,-0.743224,-1.2378120000000001,0.8254520000000001,-135.905,14.175,-238.84
1088,277144,0.124196,-0.508252,-0.084912,-136.36,83.93001,-206.9025
1089,277240,0.9825879999999999,-0.647576,-1.211948,-118.0725,147.4725,-124.7575
1090,277337,1.169736,-0.116388,-0.6329359999999999,-85.6625,127.3825,-62.9125
1091,277433,1.7699759999999998,0.268888,-1.55672,-67.9525,124.46,-48.2125
1092,277529,2.502464,0.471896,-2.340936,-41.3525,82.8275,-37.4325
1093,277625,-0.166652,0.1952,-0.8239880999999999,-30.8,-14.3325,-34.3175
1094,277721,0.30475599999999997,0.31354,-1.227808,-40.6875,10.6925,-23.695
1095,277818,0.8422879999999999,-0.275476,-0.9952761,-22.4,16.8,-29.75
1096,277914,0.384788,-0.248392,-0.8203280000000001,-23.4675,2.17,-22.6625
1097,278010,0.617564,0.192272,-1.092144,-28.1925,8.575,-15.0675
1098,278106,0.658556,-0.15738,-0.959408,-17.395,-1.2425,-22.995
1099,278203,0.5119121,-0.141032,-0.9337880999999999,-14.385,-9.31,-20.51
1100,278299,0.46774799999999994,-0.009028000999999999,-0.9642879999999999,-12.9325,-8.365,-16.45
1101,278395,0.47604399999999997,-0.118096,-0.9106081,-6.195,-8.3825,-16.31
1102,278491,0.45506,-0.08808401,-0.9142680000000001,-3.675,-5.8975,-13.02
1103,278588,0.46018400000000004,-0.10004,-0.9006040999999999,-1.9425,-2.9925,-10.0275
1104,278684,0.45286400000000004,-0.094672,-0.8940161,-0.4725,-0.455,-7.665
1105,278780,0.45725600000000005,-0.10760399999999999,-0.8815719999999999,0.14,1.5925,-6.755
1106,278876,0.459208,-0.10223600000000001,-0.8759601,0.2975,2.4325,-6.2475
1107,278973,0.487512,-0.11053199999999999,-0.883768,-0.2275,2.345,-5.53
1108,279069,0.48214399999999996,-0.125172,-0.8827921000000001,-0.5775,1.085,-4.8475
1109,279165,0.47360399999999997,-0.1403,-0.8815719999999999,-0.77,-0.175,-4.4275
1110,279261,0.472628,-0.12712400000000001,-0.883768,-0.8925,-0.945,-4.5675
1111,279357,0.46628400000000003,-0.12029200000000001,-0.8849879999999999,-0.3325,-1.4875,-4.8125
1112,279454,0.462624,-0.11760799999999999,-0.8820601,0.6475,-1.54,-4.7425
1113,279550,0.46433199999999997,-0.112728,-0.879376,1.7675,-1.26,-4.41
1114,279646,0.46335600000000005,-0.118096,-0.8764481,2.765,-1.19,-4.2175
1115,279742,0.451888,-0.111508,-0.874984,3.6575,-1.365,-4.3225
1116,279839,0.44993599999999995,-0.123464,-0.873764,4.375,-0.8400001,-4.2525
1117,279935,0.437004,-0.143228,-0.862296,4.725,-0.315,-4.165
1118,280031,0.437492,-0.138348,-0.8664440000000001,4.515,0.4375,-4.8125
1119,280127,0.43212399999999995,-0.157868,-0.8554641,4.34,0.6475,-6.0375
1120,280224,0.43554,-0.15054800000000002,-0.8544879999999999,3.675,1.0325,-7.3675
1121,280320,0.434076,-0.15274400000000002,-0.8547319999999999,2.8175,1.225,-9.205
1122,280416,0.4331,-0.133956,-0.860344,2.03,1.4875,-11.2175
1123,280512,0.43505200000000005,-0.122732,-0.8632719999999999,2.0825,1.89,-13.1425
1124,280609,0.43651599999999996,-0.104676,-0.865956,2.87,2.5725,-14.8225
1125,280705,0.444324,-0.09979600000000001,-0.869128,4.4625,3.185,-16.7125
1126,280801,0.441396,-0.095648,-0.8554641,6.545,3.5525,-19.0225
1127,280897,0.488976,-0.128344,-0.8666879999999999,8.75,3.745,-22.2775
1128,280993,0.448716,-0.135908,-0.8344801,10.7975,3.5525,-24.1675
1129,281090,0.4514,-0.161528,-0.859856,10.6225,2.4325,-23.905
1130,281186,0.444812,-0.124928,-0.8676640999999999,9.205,5.145,-22.26
1131,281282,0.43188000000000004,-0.10809200000000001,-0.8937719999999999,8.7675,8.5575,-20.58
1132,281378,0.43066000000000004,-0.124928,-0.8866961,10.64,14.9275,-18.76
1133,281475,0.407236,-0.08954801,-0.8937719999999999,12.39,22.3475,-17.4825
1134,281571,0.43066000000000004,-0.07881200000000001,-0.8884040000000001,15.1725,32.7425,-15.54
1135,281667,0.382836,-0.096868,-0.894748,17.745,45.535,-12.075
1136,281763,0.39967199999999997,-0.074664,-0.882548,18.62,60.34,-8.5925
1137,281860,0.394548,-0.046848,-0.8852321,21.9275,80.675,-5.53
1138,281956,0.374052,-0.05929201,-0.8427761,26.0925,103.2675,-3.815
1139,282052,0.354532,-0.08466801,-0.861808,29.3475,132.5275,-4.0775
1140,282148,0.36966,-0.16226,-0.983564,27.4575,163.8525,-6.23
1141,282244,0.319396,0.07710399999999999,-0.879376,17.045,190.47,-8.26
1142,282341,0.343552,-0.203252,-0.8845,13.6325,228.9875,-23.0475
1143,282437,0.333548,-0.167628,-0.856196,5.7925,270.9175,-33.5125
1144,282533,0.416508,-0.247416,-0.898164,-1.365,317.415,-41.86
1145,282629,0.476288,-0.19983599999999999,-0.9769760000000001,-15.6975,363.6675,-46.095
1146,282726,0.8893800999999999,-0.24424400000000002,-1.3668879999999999,-20.825,409.185,-51.5025
1147,282822,1.063352,-0.39918400000000004,-1.349808,-8.1725,440.37,-67.165
1148,282918,1.642852,-0.048312,-1.464,25.0425,482.5625,-80.6925
1149,283014,1.5286600000000001,-0.407724,-1.022848,77.105,537.5475,-88.39251
1150,283110,2.3480119999999998,-0.300852,-2.1752599999999997,80.6925,572.25,-92.85501
1151,283207,2.397056,-0.129564,-2.6532560000000003,95.1125,553.28,-61.7225
1152,283303,2.141588,-0.5499761,-2.755004,93.695,470.0675,-83.1075
1153,283399,1.313452,-0.650748,-2.633736,66.60501,401.135,-117.3375
1154,283495,-1.038952,-0.062220000000000004,-0.9564799999999999,70.7525,324.555,-103.145
1155,283591,3.239344,-0.54168,-3.893996,55.545,370.8425,-118.1075
1156,283688,2.526376,-0.9686799999999999,-4.150440000000001,99.505,256.445,-103.88
1157,283784,1.267336,-1.112152,-3.2891199999999996,68.6,2.8525,-92.085
1158,283880,0.137372,-0.765672,-1.9849400000000001,32.97,-119.8575,-74.2175
1159,283976,-0.5653481,-0.546804,-1.188524,5.6,-176.4175,-69.02
1160,284073,-0.624152,-0.28328400000000004,-0.88328,-6.055,-174.58,-67.48001
1161,284169,-0.48922,-0.153476,-0.892308,2.5375,-163.9925,-64.4
1162,284265,-0.30036399999999996,-0.115168,-0.9403761,27.545,-161.9275,-54.6525
1163,284361,-0.140544,-0.180072,-0.9874681000000001,55.4575,-169.96,-42.35
1164,284457,0.00244,-0.28157600000000005,-1.0147959999999998,72.765,-186.2,-30.625
1165,284554,0.07881200000000001,-0.36575599999999997,-1.0138200000000002,74.8125,-207.97,-20.8075
1166,284650,0.159088,-0.388448,-1.015528,65.87,-230.7725,-11.865
1167,284746,0.252296,-0.355752,-1.01504,55.0025,-252.105,-0.8575
1168,284842,0.372344,-0.299388,-1.025044,50.1725,-271.1625,13.5625
1169,284939,0.48433999999999994,-0.24424400000000002,-1.0187,54.04,-288.855,31.3775
1170,285035,0.610488,-0.212036,-1.028948,63.07,-304.2025,50.435
1171,285131,0.7041841,-0.175924,-1.021872,72.7475,-318.605,68.4075
1172,285227,0.774944,-0.146644,-1.014308,80.045,-330.715,83.2125
1173,285323,0.8403360000000001,-0.11712,-1.0462719999999999,85.48751,-339.0275,94.37751
1174,285420,0.934276,-0.102968,-1.116056,90.125,-344.12,101.9375
1175,285516,1.059204,-0.122,-1.24074,93.52,-348.565,105.875
1176,285612,1.198772,-0.159576,-1.3644479999999999,94.6225,-355.5125,107.2225
1177,285708,1.291004,-0.18251199999999998,-1.460584,93.0125,-365.0325,107.24
1178,285805,1.311256,-0.158356,-1.460828,92.1375,-373.205,107.59
1179,285901,1.23708,-0.10345599999999999,-1.3466360000000002,97.6325,-372.505,108.1325
1180,285997,1.268312,-0.09638,-1.316136,111.5975,-351.295,108.0975
1181,286093,1.91052,-0.225944,-1.782664,124.8625,-311.5175,107.87
1182,286189,2.7145,-0.394548,-2.18014,128.4325,-290.045,111.3
1183,286286,3.052684,-0.273036,-2.167208,111.2825,-314.825,117.67
1184,286382,3.26594,0.02074,-1.9215,94.115,-345.5025,125.8775
1185,286478,3.355732,0.20642399999999997,-1.348832,95.41,-366.485,132.79
1186,286574,3.476024,0.263276,-0.599996,98.47251,-368.8125,134.7675
1187,286671,3.55996,0.309148,0.248392,81.585,-349.6325,129.5
1188,286767,3.593632,0.493612,1.1324040000000002,42.6825,-310.1875,119.49
1189,286863,3.71978,0.93086,1.99348,-4.095,-254.24,103.11
1190,286959,3.8918,1.5164600000000001,2.573468,-32.62,-187.2325,74.095
1191,287055,3.61364,1.694824,2.89262,-19.495,-113.505,33.3725
1192,287152,3.1476,1.19316,2.7398759999999998,8.9775,-24.99,-4.305
1193,287248,2.052772,0.593164,1.689456,-3.3775,68.705,-33.6875
1194,287344,-1.0582280000000002,-0.386984,-1.097024,-61.4775,188.23,-85.3825
1195,287440,-0.645868,-1.591856,-2.582496,-124.3725,271.6,-178.045
1196,287537,1.8585479999999999,0.683932,-1.9727400000000002,-224.945,337.68,-219.345
1197,287633,1.8756279999999999,0.9145120999999999,0.229848,-174.195,258.1775,-149.87
1198,287729,1.4691239999999999,0.331352,-1.521584,-59.4125,275.4325,-70.1925
1199,287825,1.8827040000000002,0.614636,-1.855376,-8.5575,284.0075,-22.33
1200,287921,2.215764,0.909632,-1.8934400000000002,-14.7175,233.0475,-50.2075
1201,288018,4.14312,-1.326384,-2.369728,27.02,175.1925,-81.25251
1202,288114,0.00366,-0.9635560999999999,0.033184,-44.6775,16.94,-63.0
1203,288210,0.69052,0.7378560000000001,-1.9412639999999999,-97.5975,57.2775,-26.1625
1204,288306,1.1263040000000002,-0.077348,-1.3510280000000001,-83.44001,43.89,-33.495
1205,288402,0.527284,-0.6168319999999999,-0.8071520000000001,-54.845,-12.6525,-34.51
1206,288499,0.759084,0.519476,-1.373964,-56.0175,4.55,-14.07
1207,288595,0.567056,-0.255712,-0.8510719999999999,-23.6775,-16.17,-20.475
1208,288691,0.499468,-0.05977999999999999,-0.9323239999999999,-15.6975,-14.2975,-13.965
1209,288787,0.510204,-0.059048,-0.9284200999999999,-14.035,-10.3075,-10.7975
1210,288883,0.47482399999999997,-0.086864,-0.8959681,-8.715,-9.9225,-9.7125
1211,288980,0.465552,-0.05124001,-0.91012,-6.8075,-6.1775,-6.5275
1212,289076,0.445788,-0.08857201,-0.89426,-3.2375,-3.5525,-3.7275
1213,289172,0.453596,-0.077348,-0.8967,-1.0675,-0.07,-0.7525
1214,289268,0.46628400000000003,-0.102968,-0.8820601,0.8925,1.995,0.56
1215,289365,0.4636,-0.118828,-0.871568,1.75,2.4325,0.3675
1216,289461,0.468724,-0.101748,-0.879376,1.1725,1.085,-0.7875
1217,289557,0.47677600000000003,-0.09540401,-0.8893800999999999,1.085,-0.7875,-0.4375
1218,289653,0.45993999999999996,-0.12053599999999999,-0.879864,2.7125,-1.8025,0.9275
1219,289749,0.450668,-0.115656,-0.8801081000000001,4.41,-1.1025,1.12
1220,289846,0.44725200000000004,-0.1098,-0.8805960999999999,5.81,0.1225,0.2975
1221,289942,0.43773599999999996,-0.109556,-0.8735200000000001,6.7725,1.4,-0.4025
1222,290038,0.44773999999999997,-0.11834000000000001,-0.8752280000000001,7.525,2.8175,-0.98
1223,290134,0.445788,-0.11224,-0.8744960999999999,7.63,3.815,-1.75
1224,290231,0.450668,-0.122732,-0.873764,7.5075,4.5325,-2.695
1225,290327,0.44773999999999997,-0.135664,-0.8657120999999999,7.0875,4.655,-4.2175
1226,290423,0.44993599999999995,-0.142984,-0.8579041,5.8275,4.2875,-6.5975
1227,290519,0.45457200000000003,-0.137128,-0.8596120999999999,4.375,3.78,-9.205
1228,290615,0.46848,-0.12444000000000001,-0.8605879999999999,3.22,3.045,-11.585
1229,290712,0.47702,-0.106628,-0.8640040000000001,2.975,1.9425,-13.8775
1230,290808,0.461404,-0.101016,-0.8720559999999999,3.5,0.14,-15.1375
1231,290904,0.44944799999999996,-0.116632,-0.863028,4.0075,0.1925,-16.24
1232,291000,0.43334399999999995,-0.12688,-0.863516,4.3225,0.6825,-17.78
1233,291096,0.44993599999999995,-0.11248399999999999,-0.8610761,5.145,2.8,-19.495
1234,291193,0.44408000000000003,-0.11394800000000001,-0.8601,6.545,5.1625,-20.16
1235,291289,0.430904,-0.098088,-0.8569280999999999,7.595,7.5075,-20.825
1236,291385,0.452376,-0.082716,-0.8615640999999999,9.2575,10.955,-20.8425
1237,291481,0.473116,-0.091744,-0.8674200000000001,9.0125,14.455,-19.74
1238,291578,0.461404,-0.101748,-0.8549761,9.4325,17.0975,-17.5175
1239,291674,0.461892,-0.08564401,-0.863028,9.66,20.475,-14.9275
1240,291770,0.472628,-0.118828,-0.8427761,10.01,24.01,-11.9875
1241,291866,0.438224,-0.09638,-0.8647360000000001,9.8175,28.4025,-9.45
1242,291962,0.429684,-0.09223200000000001,-0.879864,10.2025,35.175,-7.28
1243,292059,0.43505200000000005,-0.094916,-0.873764,11.97,45.9375,-5.7925
1244,292155,0.400404,-0.07490801,-0.8842561,14.8225,60.1825,-5.53
1245,292251,0.391376,-0.090036,-0.887916,19.005,77.805,-6.0375
1246,292347,0.397476,-0.080276,-0.8664440000000001,22.2075,99.03251,-7.7
1247,292444,0.368196,-0.116632,-0.9254921,22.1375,124.1275,-12.285
1248,292540,0.321592,-0.063684,-0.9391560999999999,17.0275,149.345,-19.845
1249,292636,0.330864,-0.17763199999999998,-0.8862081,15.1025,182.805,-28.49
1250,292732,0.31842,-0.21106,-0.8708360999999999,0.455,227.5875,-35.8575
1251,292828,0.280356,-0.123708,-0.8976761000000001,-13.685,279.825,-44.9925
1252,292925,0.396988,-0.460672,-0.9010921000000001,-21.0875,337.75,-57.9425
1253,293021,0.522404,-0.540948,-0.9501360999999999,-39.7775,397.3375,-79.065
1254,293117,1.142164,-0.303292,-1.457168,-69.335,445.585,-101.3075
1255,293213,1.160464,-0.216428,-1.2038959999999999,-60.7425,474.635,-121.6075
1256,293310,1.89222,0.135908,-1.372256,-35.5775,530.7225,-130.76
1257,293406,1.969324,-0.10248,-1.3620079999999999,-7.8575,566.265,-143.6575
1258,293502,2.9553279999999997,-0.05856,-2.863096,4.0075,572.5125,-149.625
1259,293598,2.5171040000000002,-0.492392,-2.678876,32.3575,522.795,-140.455
1260,293694,1.546716,-0.9650200999999999,-2.302628,22.1375,435.645,-159.4075
1261,293791,-0.5458281,-0.9152440000000001,-1.215608,-23.5375,365.12,-168.8225
1262,293887,2.589084,-0.08417999999999999,-1.3607879999999999,-96.18,382.3225,-172.41
1263,293983,3.791272,-0.603168,-5.5431919999999995,-63.6475,380.695,-155.8725
1264,294079,1.884168,-1.103612,-3.6314519999999995,-16.5375,80.4125,-114.1525
1265,294176,0.659044,-0.9511120000000001,-2.602992,-17.0625,-78.34751,-78.925
1266,294272,-0.42724399999999996,-0.6802720999999999,-1.2517200000000002,-32.4975,-171.92,-66.60501
1267,294368,-0.654652,-0.500444,-0.7929999999999999,-37.38,-171.115,-63.2975
1268,294464,-0.552904,-0.37990799999999997,-0.728096,-35.7,-157.78,-60.4275
1269,294561,-0.36356,-0.30744,-0.792024,-15.96,-146.4925,-49.1575
1270,294657,-0.150792,-0.357216,-0.9052401,12.635,-149.1525,-31.7625
1271,294753,-0.011956,-0.462624,-0.9572120999999999,35.5425,-164.605,-13.265
1272,294849,0.05172801,-0.5392399999999999,-0.965752,42.7875,-187.495,2.0825
1273,294945,0.11467999999999999,-0.5233800000000001,-0.989908,36.4,-211.05,13.8425
1274,295042,0.22277199999999997,-0.45018,-1.017724,28.7525,-233.5725,24.4125
1275,295138,0.354532,-0.357216,-1.034316,29.155,-256.76,36.2775
1276,295234,0.501908,-0.283528,-1.026752,39.515,-279.8775,49.91
1277,295330,0.5934081,-0.256932,-0.9738041,54.5475,-302.8375,63.9625
1278,295427,0.669048,-0.259372,-0.9174399999999999,67.235,-321.9125,76.2475
1279,295523,0.769088,-0.267424,-0.907436,74.515,-334.9325,85.3125
1280,295619,0.85888,-0.280356,-0.917684,76.5625,-344.2075,90.8075
1281,295715,0.9403761,-0.282064,-0.94916,75.7575,-351.0325,92.89001
1282,295811,1.036024,-0.28548,-1.026752,74.935,-354.8825,92.5225
1283,295908,1.1387479999999999,-0.299388,-1.1131280000000001,77.0525,-357.91,91.735
1284,296004,1.242936,-0.33428,-1.215608,83.37001,-360.4475,92.3825
1285,296100,1.35054,-0.393572,-1.331752,92.6625,-362.4075,95.5675
1286,296196,1.446676,-0.431148,-1.424716,103.845,-362.8625,102.025
1287,296292,1.423252,-0.43188000000000004,-1.3825040000000002,117.3025,-360.9375,111.0725
1288,296389,1.51158,-0.388692,-1.3908,135.0125,-344.2425,121.6775
1289,296485,1.9459,-0.393816,-1.694336,148.575,-315.1575,132.09
1290,296581,2.639104,-0.430904,-2.114016,160.72,-296.4325,142.9575
1291,296677,3.123688,-0.456768,-2.192584,167.125,-310.485,153.09
1292,296774,3.221044,-0.20861999999999997,-1.7877880000000002,161.21,-341.39,161.385
1293,296870,3.132228,0.112728,-1.1873040000000001,159.46,-359.73,174.3525
1294,296966,3.272284,0.269864,-0.590968,162.7325,-348.985,188.1425
1295,297062,3.5014,0.33184,0.002928,152.8625,-319.1825,194.5475
1296,297158,3.631696,0.42724399999999996,0.711992,118.7725,-280.735,195.8425
1297,297255,3.670736,0.5917,1.601616,64.785,-236.0575,188.44
1298,297351,3.728076,1.1953559999999999,2.274812,0.77,-179.7075,161.2975
1299,297447,3.673176,1.921012,2.5559,-23.94,-110.705,117.775
1300,297543,3.3218160000000005,1.7882759999999998,2.503684,22.7675,-29.1375,75.3725
1301,297640,3.060004,1.061888,2.024468,54.705,56.98,36.9425
1302,297736,2.9811919999999996,0.4941,1.114592,10.465,129.9025,-0.1925
1303,297832,0.050996,-1.1004399999999999,-1.9480959999999998,-74.6025,169.3125,-44.1525
1304,297928,-2.296284,-0.9455,-2.143052,-164.9375,227.99,-109.76
1305,298024,0.548512,0.984784,0.040504000000000005,-158.9,274.925,-168.9275
1306,298121,1.8573279999999999,1.8168240000000002,0.293044,-221.69,281.295,-149.7125
1307,298217,2.1884360000000003,0.869128,-2.28628,-58.065,321.79,-92.41751
1308,298313,1.470588,0.41382399999999997,-1.311988,-9.6075,268.9575,-65.6775
1309,298409,1.510604,0.154696,-1.22122,-11.8475,236.2325,-83.86001
1310,298506,4.45666,-1.001132,-2.781356,-6.4925,223.37,-90.3875
1311,298602,1.412028,-1.331996,-0.76982,-26.0225,97.2475,-73.885
1312,298698,0.255468,0.674416,-1.348588,-104.125,29.3125,-41.2125
1313,298794,1.286612,0.13664,-1.8004759999999997,-87.7625,74.0075,-33.6
1314,298890,0.417972,-0.791536,-0.679784,-74.13,-5.425,-35.0875
1315,298987,0.7893399999999999,0.319396,-1.474248,-68.79251,18.025,-14.105
1316,299083,0.642696,-0.050263999999999996,-0.9140241,-37.6075,-6.6325,-19.9325
1317,299179,0.5648601,-0.180804,-0.9086559999999999,-18.8825,-15.26,-19.2675
1318,299275,0.54656,-0.007808001,-0.9347639999999999,-20.3,-9.0825,-13.65
1319,299371,0.543388,-0.07076001,-0.9247601000000001,-14.5425,-10.2375,-12.6525
1320,299468,0.49263599999999996,-0.039528,-0.9230520000000001,-11.095,-7.735,-8.54
1321,299564,0.48995200000000005,-0.075396,-0.9059721,-6.0375,-4.83,-5.2675
1322,299660,0.48678,-0.063196,-0.902068,-2.695,-1.645,-2.2225
1323,299756,0.467992,-0.087352,-0.8842561,0.6475,0.6825,0.385
1324,299853,0.4758,-0.09150001,-0.8842561,2.8525,2.59,1.785
1325,299949,0.47555600000000003,-0.114436,-0.8769360999999999,4.55,3.08,1.6975
1326,300045,0.472384,-0.12053599999999999,-0.8679081,4.97,2.3975,0.56
1327,300141,0.47458,-0.122,-0.865956,4.6725,1.75,-0.07
1328,300237,0.47384799999999994,-0.127856,-0.8708360999999999,4.06,0.7525,-0.28
1329,300334,0.476288,-0.12029200000000001,-0.877668,3.3425,-0.8225,-0.7525
1330,300430,0.4636,-0.118584,-0.873276,3.5,-2.275,-1.2775
1331,300526,0.46603999999999995,-0.119316,-0.869128,3.8675,-2.975,-2.205
1332,300622,0.461892,-0.129564,-0.8669319999999999,4.1125,-3.255,-3.045
1333,300718,0.462624,-0.13761600000000002,-0.8610761,4.2175,-3.2375,-3.8325
1334,300815,0.460672,-0.138836,-0.859368,3.64,-3.4825,-4.9875
1335,300911,0.45871999999999996,-0.145424,-0.8554641,2.8175,-4.165,-6.7375
1336,301007,0.46042799999999995,-0.13542,-0.85644,1.8375,-4.6375,-8.8375
1337,301103,0.4553041,-0.134932,-0.8552200000000001,0.7875,-5.6175,-11.0775
1338,301200,0.493856,-0.110776,-0.8679081,-0.2975,-6.1775,-13.3525
1339,301296,0.452132,-0.115168,-0.859368,-0.07,-7.56,-14.5075
1340,301392,0.461892,-0.11760799999999999,-0.85888,0.2625,-7.315,-14.9625
1341,301488,0.461892,-0.1037,-0.8608319999999999,0.7175,-6.8775,-15.4875
1342,301584,0.450424,-0.10492,-0.853024,2.135,-6.72,-16.0475
1343,301681,0.46116,-0.10687200000000001,-0.8605879999999999,2.9225,-6.195,-16.31
1344,301777,0.44725200000000004,-0.09784401,-0.8601,4.025,-5.425,-15.96
1345,301873,0.441396,-0.09906401,-0.8640040000000001,4.655,-4.3575,-15.5575
1346,301969,0.457744,-0.09882,-0.85644,4.9525,-2.9925,-15.085
1347,302065,0.449692,-0.118096,-0.8471681000000001,3.36,-2.0825,-14.35
1348,302162,0.47092,-0.13151600000000002,-0.8713241,2.905,0.035,-13.3
1349,302258,0.424804,-0.130052,-0.8769360999999999,3.0625,1.4875,-12.95
1350,302354,0.41846000000000005,-0.13859200000000002,-0.8881600000000001,3.57,6.02,-13.1075
1351,302450,0.387472,-0.129076,-0.883524,4.515,12.46,-13.93
1352,302547,0.36136399999999996,-0.1281,-0.8913321,5.2325,21.7,-15.1375
1353,302643,0.365512,-0.10126,-0.8976761000000001,5.1975,35.5075,-15.1375
1354,302739,0.332084,-0.033184,-0.9054840000000001,6.9475,54.005,-13.7725
1355,302835,0.351848,-0.029768,-0.9237841,12.11,76.72,-12.145
1356,302932,0.339648,-0.040260000000000004,-0.913292,18.69,101.3425,-10.6575
1357,303028,0.367464,-0.122244,-0.921344,25.2175,130.235,-12.6
1358,303124,0.32403200000000004,-0.014396,-1.008208,23.0125,160.545,-19.7225
1359,303220,0.323544,-0.10540799999999999,-0.913536,20.7375,192.1325,-28.14
1360,303316,0.26766799999999996,-0.07002799999999999,-0.8615640999999999,15.05,233.7125,-36.4875
1361,303413,0.251808,-0.524112,-0.9125601000000001,2.45,293.02,-49.595
1362,303509,0.327692,-0.388936,-0.87718,-24.6925,349.5975,-71.82
1363,303605,0.605608,-0.23546,-0.8698601,-53.1125,406.175,-92.9775
1364,303701,1.065792,-0.38503200000000004,-1.295396,-59.6225,465.2025,-108.36
1365,303798,1.2456200000000002,-0.159332,-1.216584,-71.0325,494.7425,-124.565
1366,303894,2.013488,0.165188,-1.3973879999999999,-50.715,549.22,-133.0175
1367,303990,2.039596,0.055144000000000006,-1.358104,-26.0225,572.3025,-141.0325
1368,304086,3.125152,0.035624,-2.977776,13.7725,573.02,-135.905
1369,304182,2.602504,-0.492392,-2.8299119999999998,67.3575,526.995,-123.375
1370,304279,1.154608,-0.904752,-2.116212,62.055,432.1975,-141.75
1371,304375,-0.987224,-0.8918200000000001,-0.873276,13.16,374.3775,-156.275
1372,304471,2.92678,-0.376736,-1.87758,-79.66001,426.615,-171.675
1373,304567,3.588996,-0.8010520000000001,-5.242584,-69.52750999999999,396.935,-155.575
1374,304664,1.88612,-1.063596,-3.8366559999999996,-42.805,92.5925,-114.3625
1375,304760,0.625616,-0.8657120999999999,-2.73768,-42.63,-75.25,-73.885
1376,304856,-0.375272,-0.6178081,-1.5403719999999999,-42.9975,-174.685,-54.1275
1377,304952,-0.711016,-0.47336000000000006,-0.9142680000000001,-33.0925,-190.19,-45.0275
1378,305049,-0.65514,-0.38552,-0.7808001,-21.315,-177.66,-40.4075
1379,305145,-0.44896,-0.34038,-0.8327720999999999,-4.5675,-166.04,-31.185
1380,305241,-0.193492,-0.349408,-0.960384,16.8175,-165.9525,-15.5925
1381,305337,0.001464,-0.39723200000000003,-1.053104,36.12,-178.85,2.5375
1382,305433,0.12175599999999999,-0.440176,-1.094584,45.5875,-200.62,19.285
1383,305530,0.179828,-0.41016400000000003,-1.106052,44.87,-226.03,32.4275
1384,305626,0.26913200000000004,-0.329644,-1.126792,41.6325,-249.9525,42.2625
1385,305722,0.416508,-0.238144,-1.154852,43.7325,-272.9475,50.9775
1386,305818,0.541924,-0.159576,-1.124352,53.9175,-296.59,60.3225
1387,305915,0.6344,-0.10809200000000001,-1.0736,68.9675,-318.08,69.9825
1388,306011,0.745664,-0.08466801,-1.0467600000000001,84.3675,-334.215,78.995
1389,306107,0.8176439999999999,-0.09735601,-1.0084520000000001,96.6,-347.3925,86.51999
1390,306203,0.8918200000000001,-0.128832,-1.0065,102.655,-356.5975,91.175
1391,306300,0.9860040999999999,-0.155672,-1.0584719999999999,101.99,-362.4075,92.505
1392,306396,1.107272,-0.188612,-1.151924,97.8075,-366.9575,91.14
1393,306492,1.2383,-0.244732,-1.251232,93.6775,-372.5575,88.97
1394,306588,1.344684,-0.320128,-1.342488,91.175,-379.225,88.76
1395,306684,1.428376,-0.395768,-1.432036,90.8775,-384.5625,92.8725
1396,306781,1.453508,-0.43358800000000003,-1.44814,94.16751,-385.9975,101.045
1397,306877,1.423008,-0.321348,-1.297836,103.985,-376.8625,112.0175
1398,306973,1.685064,-0.223016,-1.342732,124.6525,-345.2225,123.34
1399,307069,2.513688,-0.33794,-1.7909599999999999,146.685,-303.73,132.685
1400,307165,3.264232,-0.49532,-2.0234919999999996,156.1,-296.1,140.805
1401,307262,3.61974,-0.359656,-1.863184,143.395,-322.9275,151.0775
1402,307358,3.6224239999999996,-0.072712,-1.287344,128.625,-352.4325,166.1975
1403,307454,3.6390160000000003,0.127368,-0.542168,122.045,-358.05,182.175
1404,307550,3.6260839999999996,0.262056,0.273524,112.6825,-336.5425,192.1675
1405,307647,3.597536,0.381372,1.100196,89.705,-289.9225,194.8275
1406,307743,3.58924,0.5577840000000001,1.981036,50.05,-226.8175,186.1125
1407,307839,3.6451160000000002,1.098976,2.531256,-0.2625,-152.5125,156.8175
1408,307935,3.5284839999999997,1.7345959999999998,2.677168,-15.2075,-74.83,112.14
1409,308031,3.2593520000000002,1.640412,2.463912,27.7025,6.7375,69.965
1410,308128,3.02926,0.9318360000000001,1.9083240000000001,59.9025,85.54,35.28
1411,308224,0.560956,0.0427,0.6097560000000001,21.455,142.625,0.315
1412,308320,-2.6776560000000003,-0.321348,-3.589972,-109.095,217.1575,-59.4825
1413,308416,-0.48848800000000003,-0.359656,-2.541016,-197.3825,259.28,-147.875
1414,308512,1.6738400000000002,2.095472,-0.183976,-219.1175,288.3125,-194.495
1415,308609,2.013976,1.5201200000000001,-0.8876719999999999,-170.38,268.1875,-164.78
1416,308705,1.788032,0.6290319999999999,-2.162816,-30.695,275.73,-101.5875
1417,308801,1.737768,0.074664,-1.24806,-2.0125,241.1675,-78.82
1418,308897,4.341248,-0.6378159999999999,-2.751832,-6.1775,209.72,-90.1075
1419,308994,1.601372,-1.529392,-1.039928,-5.845,96.3375,-66.71
1420,309090,0.14713199999999999,0.486292,-1.3266280000000001,-107.8,22.3475,-39.9525
1421,309186,1.391044,0.546072,-2.051796,-91.0175,76.615,-20.895
1422,309282,0.4697,-0.918416,-0.514108,-42.77,-14.035,-36.19
1423,309378,0.777384,0.40528400000000003,-1.373964,-46.4975,3.0275,-14.77
1424,309475,0.57218,-0.165188,-0.8610761,-24.5875,-17.3075,-22.855
1425,309571,0.5038600000000001,-0.09516001,-0.921588,-15.295,-16.6775,-18.2175
1426,309667,0.492392,-0.069052,-0.9198799999999999,-15.155,-12.8975,-13.93
1427,309763,0.502884,-0.09711201,-0.8996280999999999,-11.0075,-12.005,-13.195
1428,309860,0.46335600000000005,-0.047336,-0.916464,-9.1,-10.4475,-10.5875
1429,309956,0.46116,-0.07027201,-0.9079241,-5.2325,-8.4875,-8.155
1430,310052,0.458476,-0.071492,-0.903532,-2.3625,-4.9525,-4.9525
1431,310148,0.457012,-0.09418401,-0.8935280999999999,0.14,-2.5725,-2.625
1432,310244,0.465308,-0.09589201,-0.8901120000000001,1.435,-0.6475,-1.2075
1433,310341,0.471896,-0.0976,-0.8869401,2.1175,-0.2275,-1.0675
1434,310437,0.46921199999999996,-0.112972,-0.8823040000000001,2.5025,-1.4525,-1.5575
1435,310533,0.469944,-0.0976,-0.8888921000000001,2.4675,-3.15,-1.9425
1436,310629,0.46116,-0.100284,-0.889136,3.08,-4.7075,-1.9075
1437,310726,0.446276,-0.101504,-0.8810841,4.1125,-4.97,-1.6275
1438,310822,0.434808,-0.09125599999999999,-0.883524,5.18,-4.095,-1.6975
1439,310918,0.430172,-0.09516001,-0.88328,6.2825,-2.2925,-1.6625
1440,311014,0.43041599999999997,-0.09882,-0.8801081000000001,7.07,-0.35,-1.33
1441,311110,0.43602799999999997,-0.10614000000000001,-0.8805960999999999,7.385,1.12,-1.015
1442,311207,0.4331,-0.121024,-0.8701040000000001,7.3675,2.17,-1.2775
1443,311303,0.442616,-0.125172,-0.870592,6.965,2.765,-2.17
1444,311399,0.44554399999999994,-0.127856,-0.8662001,6.0725,2.5025,-3.6575
1445,311495,0.454084,-0.12980799999999998,-0.8647360000000001,4.6025,1.8375,-5.495
1446,311592,0.459208,-0.12078,-0.8647360000000001,3.4475,0.6475,-7.4375
1447,311688,0.44847200000000004,-0.116388,-0.86864,2.9575,-1.0675,-9.2225
1448,311784,0.4392,-0.11126400000000002,-0.8664440000000001,2.2225,-1.75,-11.025
1449,311880,0.4453,-0.10931199999999999,-0.8647360000000001,2.1525,-2.1175,-12.775
1450,311977,0.43066000000000004,-0.11541199999999999,-0.863516,2.7825,-2.38,-14.105
1451,312073,0.422364,-0.120048,-0.862784,3.3075,-2.0475,-15.6975
1452,312169,0.419436,-0.121512,-0.8657120999999999,3.71,-0.735,-17.6225
1453,312265,0.40357600000000005,-0.114924,-0.86498,4.095,0.98,-19.145
1454,312361,0.419192,-0.09638,-0.8637601,4.9,4.165,-20.0375
1455,312458,0.47823999999999994,-0.08881599,-0.88328,5.7575,7.1925,-19.285
1456,312554,0.45335200000000003,-0.07198,-0.8754719999999999,6.37,9.03,-16.765
1457,312650,0.4404201,-0.095648,-0.8805960999999999,7.0175,11.76,-13.2475
1458,312746,0.410652,-0.111508,-0.8893800999999999,7.28,15.61,-10.7975
1459,312843,0.41846000000000005,-0.1037,-0.891576,6.4925,21.0525,-9.555
1460,312939,0.402844,-0.11053199999999999,-0.8866961,6.4575,29.05,-8.505
1461,313035,0.383324,-0.09930800000000001,-0.8949921000000001,7.385,38.9375,-8.5225
1462,313131,0.400648,-0.071492,-0.90036,9.905,52.6925,-8.365
1463,313228,0.355996,-0.044164,-0.9142680000000001,15.2075,69.4575,-7.6125
1464,313324,0.36478,-0.06929600000000001,-0.899384,22.3825,91.07,-7.0
1465,313420,0.363072,-0.110044,-0.9142680000000001,27.475,116.935,-8.785
1466,313516,0.29987600000000003,-0.07710399999999999,-0.983808,26.2325,145.5825,-14.5425
1467,313612,0.309148,-0.12029200000000001,-0.9057280999999999,21.2275,176.715,-23.6775
1468,313709,0.293288,-0.13859200000000002,-0.898408,13.265,217.8575,-32.3575
1469,313805,0.266448,-0.08881599,-0.8488761,-0.315,269.7975,-40.5475
1470,313901,0.219844,-0.506788,-1.005768,-8.4175,329.49,-54.2325
1471,313997,0.3294,-0.39894,-0.8713241,-36.435,383.4775,-80.0275
1472,314094,0.996008,-0.23253200000000002,-1.27978,-65.555,449.5925,-97.28251
1473,314190,0.976,-0.323056,-1.1916959999999999,-54.7225,487.515,-116.095
1474,314286,2.205028,0.159576,-1.9773759999999998,-38.29,531.965,-129.7625
1475,314382,1.615524,-0.212524,-0.9345201,2.345,569.135,-140.35
1476,314479,3.06098,-0.307196,-2.917996,-2.9225,573.265,-158.2175
1477,314575,2.704008,-0.666608,-2.9370279999999998,7.385,533.26,-152.355
1478,314671,1.39446,-0.9330560999999999,-2.3258080000000003,-3.605,433.0375,-166.3025
1479,314767,-0.591212,-1.092388,-1.227076,-39.305,370.79,-181.4925
1480,314863,1.324676,-0.070516,-0.8274040000000001,-122.535,389.9,-192.85
1481,314960,3.897412,-0.221308,-5.662996,-111.93,427.2275,-183.6275
1482,315056,2.160132,-0.819108,-3.9920839999999997,-20.4575,149.2575,-138.565
1483,315152,0.9086559999999999,-1.017968,-3.038532,26.3025,-45.885,-96.32
1484,315248,-0.252052,-0.8744960999999999,-1.494988,25.795,-163.205,-76.02
1485,315345,-0.682712,-0.756888,-0.822768,13.685,-187.845,-69.09
1486,315441,-0.659776,-0.629764,-0.593164,-2.5025,-174.265,-65.7475
1487,315537,-0.45432799999999995,-0.49702799999999997,-0.670268,-8.2075,-157.465,-55.93
1488,315633,-0.199104,-0.424072,-0.8222799999999999,5.4775,-152.005,-35.595
1489,315729,-0.0122,-0.453108,-0.931348,30.4325,-160.965,-9.555
1490,315826,0.101504,-0.525576,-0.978684,50.015,-179.9,15.82
1491,315922,0.180316,-0.540216,-1.0255319999999999,55.1425,-202.475,36.3825
1492,316018,0.26766799999999996,-0.46774799999999994,-1.06628,50.155,-227.0625,51.73
1493,316114,0.398696,-0.34794400000000003,-1.099708,46.445,-252.0875,64.7325
1494,316211,0.5294800000000001,-0.233996,-1.104832,50.7325,-277.2525,77.5075
1495,316307,0.62342,-0.143716,-1.067744,62.79,-301.3325,90.3175
1496,316403,0.6883239999999999,-0.100772,-1.005036,77.7,-320.845,101.885
1497,316499,0.774456,-0.08100801,-0.9799041,90.58001,-333.935,110.6875
1498,316596,0.8359440999999999,-0.087352,-0.9762440999999998,98.56,-342.2125,116.025
1499,316692,0.93086,-0.081252,-1.036756,100.59,-346.85,117.075
1500,316788,1.03334,-0.082228,-1.123376,99.75,-350.49,114.8175
1501,316884,1.132892,-0.122732,-1.208776,99.6275,-355.005,111.3875
1502,316980,1.23464,-0.20008,-1.3024719999999999,99.225,-359.5025,108.885
1503,317077,1.343464,-0.28767600000000004,-1.416176,97.0375,-363.2125,109.305
1504,317173,1.442772,-0.36087600000000003,-1.536712,94.6925,-366.45,114.24
1505,317269,1.4823,-0.368684,-1.562576,94.4125,-366.695,123.13
1506,317365,1.531588,-0.280356,-1.49328,101.4825,-355.1625,134.0675
1507,317461,1.93858,-0.236436,-1.640168,115.745,-324.6775,143.99
1508,317558,2.776232,-0.317444,-1.96298,127.47,-294.5425,151.025
1509,317654,3.3977,-0.39528,-1.9551720000000001,125.335,-298.7075,156.0125
1510,317750,3.6407239999999996,-0.243024,-1.567944,108.185,-325.5525,161.4725
1511,317846,3.6585360000000002,0.026351999999999997,-0.892552,93.2225,-345.3975,170.17
1512,317943,3.593632,0.35136,-0.121268,89.3025,-341.25,182.945
1513,318039,3.5994879999999996,0.5941401,0.585112,89.6,-307.9475,197.995
1514,318135,3.6941599999999997,0.6514800000000001,1.311012,78.1725,-256.2175,210.1925
1515,318231,3.91132,0.891576,2.050576,33.46,-199.64,206.6925
1516,318327,3.865936,1.4781520000000001,2.5573639999999997,-14.2625,-144.9,176.1025
1517,318424,3.3611,1.905152,2.780868,-24.5,-79.3275,120.785
1518,318520,2.9880240000000002,1.5342719999999999,2.3485,6.7725,9.345,60.7775
1519,318616,2.8369880000000003,0.838628,1.50304,25.97,95.655,11.0075
1520,318712,-0.382592,-0.054655999999999996,-0.19276,7.49,152.2325,-31.29
1521,318808,-2.5817639999999997,-1.15778,-4.400052,-63.035,202.2825,-82.95
1522,318905,-1.278316,-0.5614439999999999,-1.662616,-126.175,217.2275,-143.92
1523,319001,0.9801479999999999,0.955016,1.0147959999999998,-100.555,302.12,-148.6625
1524,319097,2.430972,0.5636399999999999,-1.170224,-116.6025,335.475,-87.29
1525,319193,1.9888439999999998,0.213988,-2.173308,-0.315,320.3725,-29.7325
1526,319290,1.2444,0.713212,-0.9262239999999999,-14.5775,244.44,-41.79
1527,319386,2.903844,0.032451999999999995,-2.113528,-27.51,228.7075,-88.4275
1528,319482,3.4057519999999997,-1.585512,-1.958832,-18.34,154.7525,-99.47001
1529,319578,-0.21813600000000002,0.360388,-0.42456000000000005,-116.6025,-20.1075,-71.4525
1530,319675,1.4600959999999998,0.229604,-2.486848,-115.08,68.355,-46.6725
1531,319771,0.5185,-0.388204,-0.633668,-81.25251,-10.395,-41.7375
1532,319867,0.7822640000000001,0.16104000000000002,-1.371524,-52.2725,-9.0825,-22.33
1533,319963,0.5011760000000001,-0.112972,-0.863516,-28.735,-19.39,-20.475
1534,320060,0.540948,-0.122976,-0.9296399999999999,-17.71,-14.91,-15.3475
1535,320156,0.503128,-0.06954,-0.91622,-16.24,-11.55,-11.445
1536,320252,0.518012,-0.090768,-0.9154880999999999,-11.725,-9.6425,-9.8875
1537,320348,0.465796,-0.07612801,-0.9023121,-8.1025,-8.4175,-7.315
1538,320444,0.45383999999999997,-0.091988,-0.9032879999999999,-4.445,-5.81,-4.8825
1539,320541,0.46481999999999996,-0.098088,-0.8957241,-1.645,-2.415,-2.555
1540,320637,0.46921199999999996,-0.114192,-0.8842561,0.4025,0.245,-0.7175
1541,320733,0.463844,-0.12688,-0.8784,1.505,1.12,-0.385
1542,320829,0.478484,-0.11712,-0.8827921000000001,1.7325,1.575,-1.085
1543,320926,0.480192,-0.117852,-0.8805960999999999,1.715,0.6125,-2.275
1544,321022,0.478484,-0.118096,-0.8827921000000001,1.4525,-1.2775,-3.22
1545,321118,0.47506800000000005,-0.10736,-0.8849879999999999,0.98,-3.64,-3.325
1546,321214,0.474092,-0.10394400000000001,-0.8827921000000001,1.575,-5.0925,-3.22
1547,321310,0.4636,-0.08954801,-0.8805960999999999,2.9225,-5.4075,-2.9225
1548,321407,0.44652,-0.079544,-0.882548,4.76,-4.4625,-2.1525
1549,321503,0.44286000000000003,-0.0976,-0.87474,6.72,-2.555,-0.805
1550,321599,0.44505600000000006,-0.109556,-0.870592,7.98,-0.3675,0.4725
1551,321695,0.438956,-0.1342,-0.8657120999999999,8.435,0.945,0.945
1552,321792,0.444324,-0.146644,-0.8640040000000001,8.155,1.575,-0.0525
1553,321888,0.467992,-0.135176,-0.8657120999999999,7.4025,1.3825,-1.82
1554,321984,0.45896400000000004,-0.14493599999999998,-0.8574161,6.825,0.1925,-3.465
1555,322080,0.45457200000000003,-0.15372,-0.8544879999999999,6.0375,-0.77,-5.355
1556,322177,0.449692,-0.13639600000000002,-0.8586360000000001,4.7775,-1.8375,-7.8925
1557,322273,0.442616,-0.12078,-0.8601,3.8325,-2.6775,-10.0975
1558,322369,0.447984,-0.11541199999999999,-0.8596120999999999,3.57,-2.835,-11.62
1559,322465,0.4392,-0.10760399999999999,-0.8613200000000001,3.4475,-2.59,-12.6
1560,322561,0.446032,-0.1281,-0.855708,3.4475,-2.555,-13.615
1561,322658,0.42822,-0.118584,-0.8642481,4.3925,-1.61,-14.3325
1562,322754,0.418216,-0.134932,-0.863516,6.265,0.2975,-14.6475
1563,322850,0.43773599999999996,-0.116876,-0.8647360000000001,6.3175,2.17,-15.2075
1564,322946,0.450912,-0.132248,-0.8703481,6.0375,4.305,-14.805
1565,323043,0.444324,-0.108824,-0.8866961,6.3175,6.8775,-13.9125
1566,323139,0.430172,-0.116632,-0.8784,7.91,10.4125,-12.5475
1567,323235,0.42773199999999995,-0.119316,-0.8840120000000001,8.995,15.61,-11.0425
1568,323331,0.4023561,-0.087108,-0.8996280999999999,9.905,23.275,-8.995
1569,323428,0.378444,-0.10638399999999999,-0.9128040000000001,12.7575,34.125,-7.1925
1570,323524,0.395036,-0.085888,-0.8976761000000001,14.6825,48.2825,-6.2125
1571,323620,0.358192,-0.056852,-0.903532,19.5825,67.025,-5.0225
1572,323716,0.36234,-0.07490801,-0.8971879999999999,25.655,88.41001,-3.78
1573,323812,0.384056,-0.073688,-0.8757159999999999,31.0625,113.015,-3.6925
1574,323909,0.35136,-0.13176,-0.9232961,33.81,140.56,-8.435
1575,324005,0.312076,-0.15616,-0.9252481,26.7575,170.6075,-16.66
1576,324101,0.303292,-0.20837600000000003,-0.889136,16.73,205.2925,-26.8275
1577,324197,0.29133600000000004,-0.16958,-0.85156,7.6125,249.2875,-38.71
1578,324294,0.315736,0.024644,-0.85156,-0.4025,300.755,-48.72
1579,324390,0.36112,-0.6075600999999999,-0.9174399999999999,3.3775,358.4175,-55.125
1580,324486,0.583648,-0.299388,-1.053348,-22.82,409.78,-67.515
1581,324582,1.1094680000000001,-0.21447600000000003,-1.468636,-40.04,447.125,-81.2175
1582,324679,1.51158,-0.208864,-1.8180439999999998,-24.3425,474.845,-99.365
1583,324775,1.3534680000000001,-0.16689600000000002,-0.958432,14.7,525.21,-95.935
1584,324871,2.275788,-0.22643200000000002,-1.9117400000000002,20.51,564.41,-114.4325
1585,324967,2.728652,-0.35746,-2.8299119999999998,14.7875,567.07,-110.6175
1586,325064,2.0112919999999996,-0.5516840000000001,-2.377048,11.725,494.48,-104.9125
1587,325160,1.040416,-0.68808,-2.007876,-7.2625,422.8,-130.1125
1588,325256,-0.8735200000000001,-0.382348,-1.00406,-19.2325,388.2375,-130.9175
1589,325352,2.142564,-0.019275999999999998,-1.1951120000000002,-33.0575,451.29,-143.92
1590,325448,3.8186,-0.558516,-5.225016,-1.2425,467.985,-138.495
1591,325545,2.611288,-1.188768,-4.337587999999999,39.235,169.085,-111.4225
1592,325641,1.072624,-1.1102,-3.216652,35.315,-52.64,-75.04
1593,325737,-0.163968,-0.749812,-1.74338,5.2325,-189.35,-56.21
1594,325833,-0.673928,-0.471164,-1.033584,-6.9125,-222.95,-51.7125
1595,325930,-0.6895439999999999,-0.275964,-0.774944,-4.4275,-215.4775,-52.4125
1596,326026,-0.571936,-0.177876,-0.7256560000000001,17.9375,-199.0975,-47.39
1597,326122,-0.29743600000000003,-0.180316,-0.847412,48.5625,-187.6,-34.195
1598,326218,-0.032208,-0.29402,-0.9655081,76.9125,-189.42,-17.0275
1599,326314,0.12395199999999999,-0.42724399999999996,-1.0199200000000002,88.8825,-205.45,-2.2225
1600,326411,0.188368,-0.463844,-1.053592,81.88251,-227.885,8.3125
1601,326507,0.25376,-0.382104,-1.099708,66.4475,-251.0025,15.855
1602,326603,0.386008,-0.26108000000000003,-1.166808,58.1175,-272.3875,24.0275
1603,326699,0.564372,-0.149816,-1.217804,64.1375,-294.455,35.0175
1604,326796,0.70394,-0.085156,-1.1960879999999998,81.95251,-318.5175,49.2275
1605,326892,0.7539600000000001,-0.060512,-1.0967799999999999,101.6575,-341.1975,64.155
1606,326988,0.767868,-0.056608000000000006,-0.9989360999999999,115.4825,-356.615,76.72
1607,327084,0.8071520000000001,-0.058803999999999995,-0.965996,121.4325,-363.16,85.34751
1608,327180,0.882548,-0.067588,-1.007232,121.1525,-363.5975,90.00251
1609,327277,0.9977159999999999,-0.098332,-1.110932,117.7925,-361.7775,91.56
1610,327373,1.160708,-0.170068,-1.262456,112.5075,-360.815,91.2275
1611,327469,1.298324,-0.25254,-1.416664,105.595,-363.4225,91.77
1612,327565,1.4039760000000001,-0.315736,-1.580388,98.9975,-368.165,96.075
1613,327662,1.54208,-0.35892399999999997,-1.737036,94.86751,-370.7725,105.98
1614,327758,1.7280080000000002,-0.29377600000000004,-1.759972,95.62,-369.8975,119.8225
1615,327854,2.012512,-0.242292,-1.766804,106.7325,-361.6025,134.645
1616,327950,2.5927439999999997,-0.274744,-1.8605,121.73,-344.7675,147.6125
1617,328046,3.224948,-0.32866799999999996,-1.869284,125.37,-338.03,158.515
1618,328143,3.8137199999999996,-0.319152,-1.7202,113.5925,-347.1475,169.2075
1619,328239,4.1541,-0.258152,-1.13704,94.74501,-366.03,176.2775
1620,328335,4.19802,-0.09345201,-0.15616,73.8675,-376.005,179.865
1621,328431,3.992328,0.254492,0.9862479999999999,53.83,-355.5825,183.715
1622,328528,3.8295800000000004,0.48922,2.084004,43.82,-294.665,188.895
1623,328624,3.939624,0.7883640000000001,2.821616,30.205,-203.77,183.785
1624,328720,3.939868,1.279292,3.039752,16.4325,-110.285,161.4025
1625,328816,3.608272,1.436672,2.840648,29.19,-20.4225,132.405
1626,328912,3.235928,1.0206520000000001,2.301164,49.2275,66.3075,102.165
1627,329009,0.887916,-0.473116,2.60958,30.52,135.1525,56.9975
1628,329105,-2.60958,0.047580000000000004,-0.526552,-135.45,284.55,-31.1675
1629,329201,0.465552,0.37454,-2.892864,-196.245,359.905,-150.5875
1630,329297,2.56688,2.338252,-1.168272,-197.1375,346.3075,-164.29
1631,329394,2.13256,1.603324,-0.7046720999999999,-114.135,283.6225,-128.03
1632,329490,1.909056,0.6497721,-2.220644,-21.7,277.095,-109.8475
1633,329586,2.002508,-0.23228800000000002,-1.369328,-2.1875,242.27,-99.68
1634,329682,4.864383999999999,-1.558184,-2.9077479999999998,-3.0625,204.82,-94.92
1635,329779,0.696376,-0.6912520000000001,-0.454816,-49.98,61.39,-64.855
1636,329875,0.342088,0.82594,-1.68238,-115.6925,35.035,-43.855
1637,329971,1.41276,-0.09223200000000001,-1.7460639999999998,-91.9275,61.18,-41.685
1638,330067,0.388204,-0.646844,-0.602436,-60.4975,-21.91,-35.0175
1639,330163,0.8615640999999999,0.42748800000000003,-1.4513120000000002,-59.185,3.8675,-17.3075
1640,330260,0.543632,-0.204228,-0.8447280999999999,-27.37,-23.0825,-24.2375
1641,330356,0.519964,-0.07222401,-0.9376921,-17.745,-17.08,-15.785
1642,330452,0.5104479999999999,-0.07027201,-0.9247601000000001,-16.135,-13.755,-12.215
1643,330548,0.484584,-0.07856801,-0.907192,-11.0775,-12.4425,-10.4825
1644,330645,0.480436,-0.048312,-0.9154880999999999,-7.8575,-9.5725,-7.525
1645,330741,0.45725600000000005,-0.060024,-0.907436,-3.5,-7.2275,-4.235
1646,330837,0.458232,-0.076616,-0.9030440000000001,-0.105,-3.3425,-0.6475
1647,330933,0.472628,-0.0976,-0.8901120000000001,2.8875,-0.385,1.5225
1648,331029,0.46726,-0.101504,-0.8862081,4.13,0.8575,2.415
1649,331126,0.465308,-0.106628,-0.8818159999999999,4.6025,0.6125,2.415
1650,331222,0.46481999999999996,-0.1098,-0.8847440999999999,4.865,0.1575,2.8875
