,T,ax,ay,az,gx,gy,gz
0,1533607,0.345016,-0.08759601,-0.7722600000000001,17.71,-16.8525,-15.6975
1,1533755,0.3843,-0.080276,-0.8796200000000001,-3.6225,-0.42,-183.015
2,1533853,0.43627200000000005,-0.07856801,-0.9291520000000001,-16.2925,-98.0875,-359.275
3,1533951,0.444568,-0.06344,-0.944524,26.2675,-104.65,-87.7975
4,1534049,0.450424,-0.0549,-0.936472,4.27,-8.505,-10.01
5,1534147,0.444568,-0.068564,-0.9272,10.5175,-8.015,-8.1725
6,1534246,0.424072,-0.070516,-0.9415959999999999,14.91,-7.945,-7.7175
7,1534344,0.43041599999999997,-0.08808401,-0.9459880999999999,21.175,-6.3,-7.2275
8,1534442,0.448716,-0.053924,-0.978684,24.71,-3.045,-6.23
9,1534540,0.5294800000000001,-0.05929201,-0.9340321,33.425,-0.6475,-3.5875
10,1534638,1.322236,-0.532896,-0.700036,33.1625,-7.0175,0.5425
11,1534736,0.182024,0.07856801,-0.667828,-26.145,-41.7025,-3.1325
12,1534834,0.417728,-0.12932000000000002,-0.8757159999999999,-1.6975,-13.265,-6.5625
13,1534932,0.43236800000000003,-0.07637200000000001,-0.8805960999999999,-0.6475,-10.2025,-6.825
14,1535030,0.425292,-0.09589201,-0.9001161,0.14,-8.785,-6.9825
15,1535128,0.43432,-0.08296,-0.891576,0.0875,-8.2425,-7.1925
16,1535226,0.430904,-0.08466801,-0.8969440000000001,0.49,-7.6125,-7.2275
17,1535324,0.43163599999999996,-0.0854,-0.8930401,0.63,-7.1925,-6.93
18,1535422,0.431392,-0.08954801,-0.894748,0.8400001,-6.8775,-6.7025
19,1535520,0.4331,-0.084912,-0.8969440000000001,0.8575,-6.4925,-6.7725
20,1535618,0.432612,-0.088328,-0.8949921000000001,0.91,-6.1775,-6.7375
21,1535716,0.430904,-0.08784,-0.8964561,0.91,-6.0025,-6.685
22,1535815,0.43188000000000004,-0.089792,-0.894748,0.91,-6.0725,-6.79
23,1535913,0.43163599999999996,-0.09028,-0.8935280999999999,0.8925,-6.125,-6.79
24,1536011,0.430172,-0.090768,-0.897432,0.77,-6.125,-6.7375
25,1536109,0.43041599999999997,-0.08954801,-0.8976761000000001,0.8400001,-6.0375,-6.8075
26,1536207,0.430172,-0.090768,-0.897432,0.8225,-6.0725,-6.79
27,1536305,0.432612,-0.089792,-0.8967,0.7,-6.0725,-6.79
28,1536403,0.43212399999999995,-0.088328,-0.8967,0.6125,-6.0375,-6.93
29,1536501,0.430172,-0.089792,-0.8967,0.665,-6.055,-6.9825
30,1536599,0.429928,-0.09052401,-0.8954801,0.595,-6.02,-6.9125
31,1536697,0.430904,-0.08906,-0.8967,0.5425,-6.0725,-6.9475
32,1536795,0.43236800000000003,-0.08784,-0.8954801,0.5075,-6.1425,-7.0175
33,1536893,0.431148,-0.08759601,-0.8976761000000001,0.49,-6.1775,-7.14
34,1536991,0.43041599999999997,-0.08784,-0.898164,0.56,-6.1075,-7.07
35,1537089,0.43212399999999995,-0.0854,-0.8967,0.455,-6.0725,-7.0525
36,1537187,0.42944,-0.08857201,-0.89792,0.42,-6.125,-7.0525
37,1537286,0.42602399999999996,-0.09150001,-0.8940161,0.385,-6.2125,-6.9825
38,1537384,0.42944,-0.08808401,-0.8954801,0.4725,-6.2475,-7.035
39,1537482,0.42822,-0.08881599,-0.8957241,0.5425,-6.2825,-7.14
40,1537580,0.431392,-0.087108,-0.8954801,0.4725,-6.3175,-7.21
41,1537678,0.428464,-0.089792,-0.8969440000000001,0.525,-6.2475,-7.1225
42,1537776,0.42895200000000006,-0.087352,-0.8949921000000001,0.56,-6.0025,-7.1925
43,1537874,0.429684,-0.089304,-0.8962120000000001,0.595,-5.7925,-7.07
44,1537972,0.42944,-0.087352,-0.8971879999999999,0.49,-5.88,-7.21
45,1538070,0.426512,-0.08954801,-0.89426,0.5075,-5.915,-7.28
46,1538168,0.427976,-0.091988,-0.8959681,0.5075,-6.16,-7.3675
47,1538266,0.430172,-0.085156,-0.898652,0.49,-6.3,-7.4375
48,1538364,0.43163599999999996,-0.09052401,-0.892552,0.5425,-6.3525,-7.2975
49,1538462,0.43212399999999995,-0.08881599,-0.8945040000000001,0.6475,-6.3525,-7.35
50,1538560,0.431392,-0.08637601,-0.8959681,0.665,-6.335,-7.4025
51,1538658,0.431148,-0.08344800000000001,-0.89426,0.8225,-6.37,-7.3325
52,1538756,0.428708,-0.083936,-0.8957241,0.7,-6.4225,-7.2275
53,1538854,0.431392,-0.084912,-0.8957241,0.7875,-6.475,-7.2275
54,1538952,0.431392,-0.085888,-0.8949921000000001,0.805,-6.44,-7.0175
55,1539050,0.42578,-0.090036,-0.8940161,0.9275,-6.44,-6.93
56,1539148,0.428464,-0.089304,-0.895236,0.945,-6.65,-7.105
57,1539247,0.428464,-0.08784,-0.8930401,0.9275,-6.6675,-7.1575
58,1539345,0.43188000000000004,-0.085888,-0.8954801,0.9275,-6.615,-7.2275
59,1539443,0.43212399999999995,-0.085888,-0.8940161,0.8400001,-6.58,-7.2275
60,1539541,0.42822,-0.08857201,-0.8957241,0.77,-6.615,-7.105
61,1539639,0.429684,-0.08344800000000001,-0.895236,0.77,-6.8075,-7.1575
62,1539737,0.429928,-0.08759601,-0.8971879999999999,0.91,-6.7725,-7.1225
63,1539835,0.42626800000000004,-0.09150001,-0.898164,0.7525,-6.7725,-7.105
64,1539933,0.42431599999999997,-0.08637601,-0.8967,0.6475,-6.7725,-7.385
65,1540031,0.42700000000000005,-0.08662001,-0.898408,0.6125,-6.72,-7.525
66,1540129,0.428708,-0.09223200000000001,-0.89426,0.665,-6.755,-7.49
67,1540227,0.426512,-0.088328,-0.8957241,0.63,-6.8775,-7.6825
68,1540325,0.430904,-0.08417999999999999,-0.8959681,0.6475,-6.755,-7.665
69,1540423,0.43358800000000003,-0.08466801,-0.8959681,0.8225,-6.6675,-7.5775
70,1540521,0.431148,-0.086864,-0.8988959999999999,0.91,-6.5625,-7.3325
71,1540619,0.42895200000000006,-0.0854,-0.8976761000000001,0.8575,-6.3,-7.28
72,1540717,0.43066000000000004,-0.084912,-0.8967,0.7875,-6.1075,-7.0525
73,1540815,0.426512,-0.0854,-0.89792,0.7525,-5.88,-6.895
74,1540913,0.42822,-0.088328,-0.898408,0.8400001,-5.6875,-6.8075
75,1541012,0.428708,-0.087352,-0.897432,0.805,-5.5475,-6.825
76,1541110,0.42822,-0.08881599,-0.8959681,0.7875,-5.565,-6.755
77,1541208,0.42773199999999995,-0.08906,-0.8945040000000001,0.7175,-5.5125,-6.86
78,1541306,0.426756,-0.085156,-0.898652,0.7,-5.4075,-6.965
79,1541404,0.42553599999999997,-0.08857201,-0.8957241,0.7525,-5.2675,-6.965
80,1541502,0.42822,-0.08954801,-0.8949921000000001,0.735,-5.0925,-7.07
81,1541600,0.432612,-0.088328,-0.8996280999999999,0.5775,-4.865,-7.105
82,1541698,0.43358800000000003,-0.084912,-0.9037761000000001,0.7,-4.2175,-7.1575
83,1541796,0.42431599999999997,-0.09638,-0.906948,0.7525,-3.045,-7.4725
84,1541894,0.431148,-0.09906401,-0.895236,0.175,-2.45,-8.4875
85,1541992,0.431148,-0.086864,-0.89426,-0.5775,-2.2925,-8.995
86,1542090,0.44090799999999997,-0.08296,-0.898164,-1.155,-2.415,-9.205
87,1542188,0.430172,-0.09272000000000001,-0.8927959999999999,-1.6975,-2.3275,-9.5375
88,1542286,0.4331,-0.08662001,-0.89426,-2.275,-2.2925,-9.94
89,1542384,0.434076,-0.08296,-0.8927959999999999,-2.6425,-2.31,-9.975
90,1542482,0.431148,-0.08052000000000001,-0.895236,-3.0275,-2.4325,-9.9575
91,1542580,0.43188000000000004,-0.082228,-0.892308,-3.08,-2.7825,-9.905
92,1542678,0.43236800000000003,-0.0793,-0.8906,-3.01,-2.975,-9.8175
93,1542776,0.43212399999999995,-0.077836,-0.8910879999999999,-2.835,-3.2025,-9.52
94,1542874,0.435296,-0.07637200000000001,-0.8910879999999999,-2.5375,-3.4475,-9.31
95,1542973,0.435296,-0.07710399999999999,-0.8901120000000001,-2.45,-3.6575,-9.065
96,1543071,0.43163599999999996,-0.0793,-0.885476,-2.2225,-4.025,-8.8725
97,1543169,0.431148,-0.077592,-0.889868,-1.96,-4.5325,-8.82
98,1543267,0.432612,-0.08174001,-0.885964,-1.6975,-4.8125,-8.855
99,1543365,0.434564,-0.072712,-0.8849879999999999,-1.575,-4.9175,-8.9425
100,1543463,0.42626800000000004,-0.072712,-0.8818159999999999,-1.365,-5.2675,-8.68
101,1543561,0.43724799999999997,-0.061975999999999996,-0.8967,-0.63,-5.8275,-8.4175
102,1543659,0.434076,-0.083936,-0.880352,0.1225,-6.0725,-7.77
103,1543757,0.446032,-0.074664,-0.8908440999999999,0.5075,-5.6875,-7.595
104,1543855,0.4404201,-0.06929600000000001,-0.887916,1.085,-5.6175,-7.245
105,1543953,0.44212799999999997,-0.08003201,-0.900848,0.7525,-5.425,-7.175
106,1544051,0.438956,-0.081252,-0.8976761000000001,0.4025,-4.97,-7.3675
107,1544149,0.438468,-0.08369201,-0.89426,-0.2625,-4.69,-7.8225
108,1544247,0.43773599999999996,-0.07686,-0.8884040000000001,-0.5425,-4.8125,-8.2425
109,1544345,0.435784,-0.07588400000000001,-0.892308,-0.6825,-4.9,-8.4525
110,1544443,0.438224,-0.07173600000000001,-0.889136,-0.8225,-5.1625,-8.47
111,1544541,0.438224,-0.070516,-0.8918200000000001,-0.8575,-5.32,-8.26
112,1544640,0.439688,-0.067832,-0.8881600000000001,-0.8925,-5.53,-7.91
113,1544738,0.44090799999999997,-0.06466001,-0.8930401,-1.0675,-5.635,-7.5425
114,1544836,0.4404201,-0.07246799999999999,-0.8918200000000001,-0.56,-5.8625,-7.245
115,1544934,0.43602799999999997,-0.07076001,-0.8908440999999999,-0.315,-6.1775,-7.175
116,1545032,0.440176,-0.071004,-0.8913321,-0.2625,-6.58,-7.1575
117,1545130,0.44066400000000006,-0.06588,-0.888648,-0.1225,-6.895,-6.9825
118,1545228,0.437004,-0.06661201,-0.892552,0.14,-7.2275,-6.8775
119,1545326,0.43627200000000005,-0.07198,-0.8908440999999999,0.385,-7.315,-6.7375
120,1545424,0.43358800000000003,-0.068076,-0.893284,0.665,-7.2975,-6.545
121,1545522,0.434564,-0.06929600000000001,-0.8935280999999999,0.8925,-7.21,-6.335
122,1545620,0.434076,-0.07076001,-0.8937719999999999,1.085,-7.0525,-6.2125
123,1545718,0.43505200000000005,-0.07393200000000001,-0.891576,1.155,-6.9825,-6.23
124,1545816,0.43627200000000005,-0.075396,-0.8908440999999999,1.2425,-6.825,-6.2825
125,1545914,0.43602799999999997,-0.07637200000000001,-0.889136,1.155,-6.79,-6.475
126,1546012,0.437004,-0.073688,-0.8913321,1.05,-6.755,-6.5625
127,1546110,0.43651599999999996,-0.06929600000000001,-0.892308,1.2075,-6.825,-6.51
128,1546208,0.438224,-0.07198,-0.8930401,1.365,-6.895,-6.4225
129,1546306,0.43651599999999996,-0.07564,-0.889624,1.4175,-6.8775,-6.37
130,1546404,0.434076,-0.074664,-0.8927959999999999,1.2425,-6.9475,-6.405
131,1546502,0.434564,-0.07002799999999999,-0.8913321,1.295,-7.1225,-6.3875
132,1546600,0.4331,-0.076616,-0.893284,1.4,-7.1225,-6.3175
133,1546698,0.430172,-0.07637200000000001,-0.892064,1.3825,-6.895,-6.3175
134,1546797,0.43358800000000003,-0.07856801,-0.8998719999999999,1.2425,-6.4225,-6.51
135,1546895,0.43212399999999995,-0.079544,-0.8967,1.05,-5.8275,-6.7725
136,1546993,0.43066000000000004,-0.082716,-0.898164,0.665,-5.215,-7.21
137,1547091,0.43554,-0.08003201,-0.891576,0.245,-5.0225,-7.8925
138,1547189,0.43554,-0.07490801,-0.892064,-0.14,-5.11,-8.2775
139,1547287,0.43236800000000003,-0.07564,-0.8918200000000001,-0.4375,-5.145,-8.365
140,1547385,0.434076,-0.07515201,-0.888648,-0.5775,-5.1275,-8.505
141,1547483,0.43432,-0.06929600000000001,-0.8910879999999999,-0.595,-5.18,-8.4525
142,1547581,0.434076,-0.067344,-0.8908440999999999,-0.28,-5.3025,-8.365
143,1547679,0.434808,-0.071004,-0.8884040000000001,0.0175,-5.3375,-8.225
144,1547777,0.43724799999999997,-0.07246799999999999,-0.8930401,0.0,-5.3725,-7.9625
145,1547875,0.438468,-0.07808001,-0.9084121,-0.0875,-5.075,-8.0675
146,1547973,0.434808,-0.07856801,-0.9093880999999999,-0.56,-4.13,-8.8025
147,1548071,0.437004,-0.090036,-0.8906,-1.3125,-3.5175,-9.9575
148,1548169,0.43334399999999995,-0.077836,-0.8881600000000001,-2.1,-3.3775,-10.71
149,1548267,0.429196,-0.072956,-0.889624,-2.5375,-3.43,-11.27
150,1548365,0.43163599999999996,-0.071004,-0.8918200000000001,-2.66,-3.395,-11.4275
151,1548463,0.43773599999999996,-0.06588,-0.885964,-2.8175,-3.3775,-11.515
152,1548562,0.44090799999999997,-0.061,-0.8869401,-2.625,-3.7275,-11.305
153,1548660,0.43676000000000004,-0.05563200000000001,-0.887184,-2.345,-3.9025,-10.605
154,1548758,0.437004,-0.05636401,-0.889136,-1.995,-4.025,-9.975
155,1548856,0.438712,-0.058072000000000006,-0.8893800999999999,-1.6275,-4.095,-9.38
156,1548954,0.439932,-0.056852,-0.892064,-1.2775,-4.2875,-8.925
157,1549052,0.44090799999999997,-0.056852,-0.892064,-0.91,-4.2875,-8.505
158,1549150,0.4404201,-0.063684,-0.889136,-0.77,-4.515,-8.2425
159,1549248,0.44090799999999997,-0.058803999999999995,-0.8869401,-0.77,-4.7775,-7.98
160,1549346,0.438468,-0.06270801,-0.889136,-0.63,-5.075,-7.875
161,1549444,0.44237200000000004,-0.059536,-0.889624,-0.6125,-5.215,-7.805
162,1549542,0.440176,-0.057339999999999995,-0.889136,-0.63,-5.3725,-7.7175
163,1549640,0.440176,-0.06466001,-0.8927959999999999,-0.4725,-5.4075,-7.7525
164,1549738,0.4404201,-0.065148,-0.8906,-0.5075,-5.3025,-7.875
165,1549836,0.441884,-0.067832,-0.887916,-0.9975,-5.075,-7.91
166,1549934,0.4392,-0.064172,-0.8908440999999999,-1.3125,-4.865,-8.2075
167,1550032,0.438224,-0.063196,-0.8964561,-1.4525,-4.4275,-8.435
168,1550130,0.44725200000000004,-0.06466001,-0.90036,-1.6275,-3.675,-8.8725
169,1550228,0.451888,-0.047580000000000004,-0.894748,-1.6275,-2.5375,-9.45
170,1550327,0.444812,-0.039284,-0.889868,-0.2975,-2.1,-10.5875
171,1550425,0.44115200000000004,-0.05636401,-0.8940161,1.995,-2.1,-12.0575
172,1550523,0.429928,-0.071004,-0.892064,3.3425,-2.2225,-13.7025
173,1550621,0.43163599999999996,-0.067832,-0.889624,3.3425,-1.925,-15.12
174,1550719,0.435296,-0.063196,-0.8862081,3.0625,-1.6975,-15.82
175,1550817,0.43773599999999996,-0.056852,-0.882548,3.395,-1.54,-16.38
176,1550915,0.44383599999999995,-0.053191999999999996,-0.8820601,4.025,-1.575,-16.6775
177,1551013,0.444568,-0.0488,-0.8820601,4.935,-1.645,-16.9575
178,1551111,0.450424,-0.052948,-0.8808401,6.2125,-1.995,-17.08
179,1551209,0.44725200000000004,-0.061,-0.8786440999999999,7.1925,-2.6075,-17.1675
180,1551307,0.450668,-0.058803999999999995,-0.8842561,7.1925,-3.15,-16.9225
181,1551405,0.450912,-0.06563601,-0.883036,6.7725,-3.745,-16.9225
182,1551503,0.45335200000000003,-0.06490399999999999,-0.8823040000000001,5.88,-4.27,-16.5375
183,1551601,0.45286400000000004,-0.056608000000000006,-0.882548,4.8125,-4.9175,-16.1175
184,1551699,0.450668,-0.050508,-0.8805960999999999,4.2525,-5.565,-15.365
185,1551797,0.451888,-0.048312,-0.8788879999999999,4.165,-6.1425,-14.42
186,1551895,0.45579200000000003,-0.054655999999999996,-0.8862081,4.06,-6.6325,-13.5275
187,1551993,0.45335200000000003,-0.049776,-0.885964,3.535,-6.9125,-12.67
188,1552092,0.452132,-0.050996,-0.8874280999999999,3.045,-7.28,-11.6025
189,1552190,0.450424,-0.054412,-0.8845,2.695,-7.63,-10.29
190,1552288,0.449692,-0.05856,-0.8840120000000001,1.9425,-7.805,-9.0475
191,1552386,0.44554399999999994,-0.055144000000000006,-0.889624,1.05,-7.875,-7.7525
192,1552484,0.44408000000000003,-0.042944,-0.8884040000000001,0.5425,-7.6825,-6.72
193,1552582,0.44676400000000005,-0.050508,-0.889624,1.12,-7.28,-5.705
194,1552680,0.444568,-0.058803999999999995,-0.887916,1.5575,-6.86,-5.215
195,1552778,0.443592,-0.060512,-0.8857200999999999,1.4,-6.44,-5.1975
196,1552876,0.446276,-0.060024,-0.8849879999999999,1.3475,-6.3525,-5.425
197,1552974,0.44847200000000004,-0.062952,-0.8866961,1.365,-6.3175,-5.6875
198,1553072,0.446276,-0.062220000000000004,-0.8876719999999999,1.19,-6.3,-6.02
199,1553170,0.44896,-0.062952,-0.887916,1.1375,-6.265,-6.4925
200,1553268,0.45628,-0.06466001,-0.895236,1.085,-6.0375,-6.65
201,1553366,0.46116,-0.06954,-0.904508,0.77,-5.53,-6.9825
202,1553464,0.457988,-0.07246799999999999,-0.9006040999999999,-0.6125,-4.83,-7.455
203,1553562,0.45432799999999995,-0.07076001,-0.902068,-2.555,-4.095,-8.0325
204,1553660,0.46433199999999997,-0.075396,-0.8893800999999999,-4.97,-3.8325,-9.275
205,1553758,0.46774799999999994,-0.08100801,-0.883036,-6.5625,-4.025,-11.025
206,1553857,0.471408,-0.071492,-0.8552200000000001,-6.7375,-3.3075,-12.8625
207,1553955,0.48214399999999996,-0.063196,-0.8637601,-5.4425,-1.1375,-14.525
208,1554053,0.477996,-0.07637200000000001,-0.8640040000000001,-3.8325,0.6125,-15.61
209,1554151,0.46945600000000004,-0.077348,-0.864492,-3.535,1.995,-16.555
210,1554249,0.4636,-0.06539201,-0.864492,-3.29,3.2025,-16.87
211,1554347,0.457012,-0.054167999999999994,-0.8693719999999999,-2.03,4.0075,-16.5725
212,1554445,0.44164,-0.037332,-0.8818159999999999,-0.385,4.5325,-16.3625
213,1554543,0.42700000000000005,-0.026595999999999998,-0.9001161,0.07,4.2875,-17.045
214,1554641,0.397476,-0.022692,-0.9057280999999999,-1.1025,2.975,-18.9525
215,1554739,0.380396,0.000976,-0.916464,-1.995,1.505,-21.0175
216,1554837,0.4023561,-0.01464,-0.8713241,-0.3325,0.0,-22.225
217,1554935,0.458476,-0.014152000000000001,-0.8637601,3.08,-0.0175,-21.4725
218,1555033,0.474092,-0.010492,-0.865956,5.53,-0.5075,-19.4425
219,1555131,0.466528,-0.012688,-0.85156,6.44,-1.8725,-16.9575
220,1555229,0.44652,-0.009272001,-0.8464360000000001,7.385,-3.325,-14.8575
221,1555327,0.468724,-0.000732,-0.8752280000000001,10.3425,-4.025,-12.845
222,1555425,0.478484,-0.023180000000000003,-0.8698601,12.9675,-5.0925,-9.6775
223,1555524,0.49873599999999996,-0.048312,-0.880352,12.2325,-6.09,-6.545
224,1555622,0.47823999999999994,-0.026351999999999997,-0.8752280000000001,9.03,-7.4725,-3.4825
225,1555720,0.468236,-0.00488,-0.882548,8.785,-8.3475,-0.8400001
226,1555818,0.467504,-0.04514,-0.8849879999999999,10.7975,-8.82,1.2425
227,1555916,0.46457600000000004,-0.07612801,-0.8852321,10.29,-9.45,2.31
228,1556014,0.466772,-0.0732,-0.8827921000000001,8.19,-9.975,2.205
229,1556112,0.46726,-0.07246799999999999,-0.877424,6.44,-10.3075,1.5925
230,1556210,0.466772,-0.067344,-0.8805960999999999,5.6175,-10.57,0.7
231,1556308,0.466528,-0.06270801,-0.8840120000000001,5.215,-10.43,-0.42
232,1556406,0.4636,-0.07027201,-0.8866961,5.005,-10.22,-1.505
233,1556504,0.45725600000000005,-0.077348,-0.888648,4.3225,-9.8,-2.5025
234,1556602,0.46238,-0.063928,-0.8827921000000001,3.045,-9.485,-3.2725
235,1556700,0.461892,-0.063684,-0.8847440999999999,2.8,-9.31,-4.025
236,1556798,0.45871999999999996,-0.073688,-0.8847440999999999,2.9225,-9.135,-4.7425
237,1556896,0.46042799999999995,-0.06954,-0.885476,2.5025,-8.61,-5.4775
238,1556994,0.45993999999999996,-0.06588,-0.883036,2.2925,-8.26,-5.8975
239,1557092,0.458232,-0.064172,-0.8813280000000001,1.995,-8.0675,-6.0375
240,1557190,0.45725600000000005,-0.063196,-0.8827921000000001,1.61,-7.9975,-6.1425
241,1557288,0.45286400000000004,-0.05977999999999999,-0.8827921000000001,1.365,-7.805,-5.9325
242,1557387,0.449204,-0.060267999999999995,-0.8808401,1.12,-7.7525,-6.02
243,1557485,0.448716,-0.061732,-0.883036,1.0675,-7.63,-6.265
244,1557583,0.450912,-0.064172,-0.8813280000000001,1.26,-7.6125,-6.4575
245,1557681,0.451888,-0.060512,-0.8791321,1.3825,-7.6125,-6.6675
246,1557779,0.45457200000000003,-0.059048,-0.8788879999999999,1.295,-7.8225,-6.685
247,1557877,0.453596,-0.060512,-0.8769360999999999,1.3125,-8.12,-6.6325
248,1557975,0.45286400000000004,-0.060267999999999995,-0.8786440999999999,1.295,-8.4525,-6.475
249,1558073,0.450668,-0.060512,-0.88328,1.295,-8.8375,-6.3175
250,1558171,0.44847200000000004,-0.06075601,-0.883524,1.4,-9.065,-6.23
251,1558269,0.449692,-0.05929201,-0.8842561,1.3125,-9.03,-5.985
252,1558367,0.452376,-0.062952,-0.8869401,1.19,-8.8375,-5.915
253,1558465,0.44773999999999997,-0.068076,-0.8840120000000001,1.2775,-8.4,-5.7925
254,1558563,0.44554399999999994,-0.072712,-0.8903561,0.9975,-7.7525,-6.0025
255,1558661,0.44554399999999994,-0.07515201,-0.8893800999999999,0.7,-6.895,-6.5625
256,1558759,0.441396,-0.07173600000000001,-0.8884040000000001,0.35,-5.8625,-7.175
257,1558857,0.44383599999999995,-0.066856,-0.8906,-0.0525,-4.8475,-7.595
258,1558955,0.44676400000000005,-0.06124401,-0.8862081,-0.28,-4.025,-7.9625
259,1559053,0.44944799999999996,-0.061975999999999996,-0.8840120000000001,-0.2275,-3.255,-8.1025
260,1559152,0.45018,-0.05929201,-0.8842561,-0.2275,-2.87,-8.0325
261,1559250,0.453596,-0.061,-0.8815719999999999,-0.175,-2.4675,-7.8925
262,1559348,0.451888,-0.057339999999999995,-0.8818159999999999,-0.035,-2.38,-7.7525
263,1559446,0.4553041,-0.05587601,-0.8862081,0.1575,-2.2225,-7.42
264,1559544,0.45554799999999995,-0.059048,-0.887916,0.1575,-1.715,-6.9825
265,1559642,0.45579200000000003,-0.06929600000000001,-0.8937719999999999,0.0525,-1.12,-6.86
266,1559740,0.45993999999999996,-0.07002799999999999,-0.892552,-0.42,-0.3325,-7.07
267,1559838,0.457988,-0.07442,-0.8881600000000001,-1.2775,0.245,-7.5775
268,1559936,0.45871999999999996,-0.076616,-0.8842561,-2.1,0.6475,-8.2425
269,1560034,0.45603599999999994,-0.071492,-0.8820601,-3.1675,0.63,-9.0475
270,1560132,0.45335200000000003,-0.065148,-0.8781559999999999,-4.095,0.63,-9.9225
271,1560230,0.449692,-0.059048,-0.873276,-4.165,0.6125,-10.5
272,1560328,0.442616,-0.062952,-0.8640040000000001,-3.675,0.49,-10.955
273,1560426,0.44676400000000005,-0.046116000000000004,-0.863516,-2.6075,0.175,-11.305
274,1560524,0.46457600000000004,-0.033672,-0.8698601,-0.7525,-0.35,-11.2875
275,1560622,0.471896,-0.035868000000000004,-0.865468,0.77,-0.9625,-10.3775
276,1560720,0.47506800000000005,-0.036844,-0.863028,1.505,-1.89,-8.925
277,1560818,0.47213999999999995,-0.029768,-0.873276,2.17,-3.08,-7.0525
278,1560917,0.47067600000000004,-0.036844,-0.8725440999999999,3.1325,-4.2,-5.1625
279,1561015,0.472628,-0.053191999999999996,-0.8698601,3.5525,-5.0225,-3.6225
280,1561113,0.4697,-0.056852,-0.8757159999999999,3.4475,-5.6,-2.9575
281,1561211,0.46774799999999994,-0.0793,-0.8735200000000001,3.1675,-5.985,-2.905
282,1561309,0.47165200000000007,-0.060267999999999995,-0.874984,2.17,-6.4925,-3.15
283,1561407,0.47213999999999995,-0.05587601,-0.8723001,2.0125,-7.0175,-3.3775
284,1561505,0.47165200000000007,-0.06636801,-0.8759601,2.52,-7.35,-3.8675
285,1561603,0.4697,-0.07417601,-0.8757159999999999,2.6775,-7.6475,-4.5325
286,1561701,0.472384,-0.06588,-0.8764481,2.1525,-7.7175,-5.425
287,1561799,0.468724,-0.065148,-0.879376,1.8375,-7.945,-5.8975
288,1561897,0.46457600000000004,-0.06539201,-0.8762040000000001,1.3475,-8.155,-6.335
289,1561995,0.463844,-0.056852,-0.8754719999999999,1.0325,-8.4175,-6.5625
290,1562093,0.461892,-0.057828,-0.873276,1.1375,-8.6975,-6.685
291,1562191,0.460916,-0.057096,-0.8762040000000001,1.4525,-8.925,-6.5975
292,1562289,0.462624,-0.05856,-0.87718,1.7325,-9.1,-6.44
293,1562387,0.46042799999999995,-0.061732,-0.8764481,1.8025,-9.0825,-6.3525
294,1562485,0.46116,-0.05977999999999999,-0.8813280000000001,1.785,-9.065,-6.405
295,1562583,0.46311199999999997,-0.061488,-0.880352,1.8375,-9.1175,-6.335
296,1562681,0.46238,-0.062464,-0.8813280000000001,1.75,-9.1,-6.3875
297,1562779,0.459696,-0.06466001,-0.8810841,1.5925,-9.1175,-6.51
298,1562878,0.460916,-0.062952,-0.883036,1.435,-9.1525,-6.615
299,1562976,0.45993999999999996,-0.06075601,-0.8813280000000001,1.4,-9.135,-6.5975
300,1563074,0.46018400000000004,-0.061732,-0.879864,1.365,-9.1,-6.615
301,1563172,0.459696,-0.060267999999999995,-0.8801081000000001,1.2775,-9.1525,-6.51
302,1563270,0.4575,-0.060024,-0.8827921000000001,1.19,-9.205,-6.44
303,1563368,0.456768,-0.06270801,-0.8840120000000001,1.085,-9.0475,-6.2825
304,1563466,0.456768,-0.06344,-0.885964,1.0675,-8.855,-6.37
305,1563564,0.453108,-0.062220000000000004,-0.8852321,0.8575,-8.47,-6.51
306,1563662,0.451888,-0.06124401,-0.8849879999999999,0.63,-7.98,-6.615
307,1563760,0.4514,-0.062952,-0.883524,0.49,-7.56,-6.685
308,1563858,0.45018,-0.061488,-0.88328,0.5075,-7.3675,-6.7725
309,1563956,0.450912,-0.062464,-0.8818159999999999,0.595,-7.175,-6.825
310,1564054,0.450424,-0.063684,-0.8820601,0.6475,-7.035,-6.8075
311,1564152,0.449204,-0.06466001,-0.879864,0.5775,-6.9475,-6.7375
312,1564250,0.44896,-0.063196,-0.882548,0.63,-6.7725,-6.93
313,1564348,0.452376,-0.06490399999999999,-0.8823040000000001,0.56,-6.615,-6.8425
314,1564446,0.452376,-0.063928,-0.8818159999999999,0.5075,-6.7025,-6.8775
315,1564545,0.45335200000000003,-0.063684,-0.8784,0.5075,-6.9825,-6.86
316,1564643,0.452132,-0.062220000000000004,-0.8805960999999999,0.3675,-7.315,-7.0
317,1564741,0.45383999999999997,-0.06466001,-0.882548,0.4025,-7.665,-7.07
318,1564839,0.4514,-0.067344,-0.8815719999999999,0.3675,-7.98,-7.175
319,1564937,0.45164399999999993,-0.06539201,-0.883036,0.28,-8.1025,-7.42
320,1565035,0.452132,-0.06636801,-0.8823040000000001,0.3675,-8.2075,-7.7875
321,1565133,0.44993599999999995,-0.06490399999999999,-0.8852321,0.3675,-8.26,-8.015
322,1565231,0.44725200000000004,-0.061,-0.883768,0.2625,-8.0675,-8.19
323,1565329,0.449204,-0.06124401,-0.8852321,0.3675,-7.91,-8.26
324,1565427,0.445788,-0.059536,-0.8876719999999999,0.385,-7.7175,-8.12
325,1565525,0.44554399999999994,-0.060024,-0.8847440999999999,0.28,-7.5775,-7.9625
326,1565623,0.44993599999999995,-0.060267999999999995,-0.8823040000000001,0.21,-7.3325,-7.8925
327,1565721,0.446276,-0.05929201,-0.883524,0.28,-7.0875,-7.7525
328,1565819,0.446276,-0.060267999999999995,-0.8823040000000001,0.3675,-6.7725,-7.63
329,1565917,0.447984,-0.057584,-0.8847440999999999,0.4375,-6.58,-7.49
330,1566015,0.447008,-0.058316,-0.8842561,0.49,-6.44,-7.245
331,1566113,0.449692,-0.05929201,-0.8823040000000001,0.6125,-6.3,-7.0525
332,1566211,0.449692,-0.059048,-0.8813280000000001,0.735,-6.335,-7.0875
333,1566310,0.44822799999999996,-0.058072000000000006,-0.8842561,0.8575,-6.335,-6.8775
334,1566408,0.45018,-0.058072000000000006,-0.8845,0.9975,-6.23,-6.58
335,1566506,0.45115600000000006,-0.060267999999999995,-0.8827921000000001,1.0675,-6.265,-6.58
336,1566604,0.4514,-0.06075601,-0.8842561,1.085,-6.16,-6.58
337,1566702,0.450912,-0.058803999999999995,-0.8847440999999999,1.085,-6.2125,-6.5975
338,1566800,0.44822799999999996,-0.056608000000000006,-0.8820601,1.19,-6.44,-6.5625
339,1566898,0.4514,-0.05856,-0.88328,1.3125,-6.685,-6.335
340,1566996,0.448716,-0.05929201,-0.880352,1.3825,-6.9825,-6.1775
341,1567094,0.45018,-0.057828,-0.8827921000000001,1.54,-7.56,-6.09
342,1567192,0.448716,-0.05977999999999999,-0.8815719999999999,1.68,-7.9275,-5.95
343,1567290,0.447984,-0.063196,-0.8874280999999999,1.89,-8.2425,-5.845
344,1567388,0.449692,-0.06344,-0.887184,1.9075,-8.5575,-5.7925
345,1567486,0.44847200000000004,-0.06344,-0.8869401,1.785,-8.6275,-6.1075
346,1567584,0.44505600000000006,-0.062464,-0.887184,1.5225,-8.4,-6.3
347,1567682,0.44237200000000004,-0.06490399999999999,-0.8881600000000001,1.4175,-8.0675,-6.4225
348,1567780,0.443104,-0.06490399999999999,-0.889624,1.26,-7.77,-6.5975
349,1567879,0.444568,-0.063928,-0.8869401,1.225,-7.5425,-6.615
350,1567977,0.444812,-0.060512,-0.8857200999999999,1.085,-7.42,-6.58
351,1568075,0.44554399999999994,-0.061975999999999996,-0.8862081,1.12,-7.35,-6.58
352,1568173,0.443104,-0.06124401,-0.8840120000000001,1.33,-7.525,-6.615
353,1568271,0.44164,-0.061975999999999996,-0.8866961,1.4175,-7.7175,-6.6325
354,1568369,0.441884,-0.06270801,-0.8876719999999999,1.645,-7.84,-6.65
355,1568467,0.4404201,-0.062464,-0.8874280999999999,1.715,-7.91,-6.7025
356,1568565,0.44286000000000003,-0.064416,-0.8857200999999999,1.6975,-7.6825,-6.7375
357,1568663,0.4404201,-0.06466001,-0.889868,1.7325,-7.6475,-6.86
358,1568761,0.43944399999999995,-0.065148,-0.8881600000000001,1.8025,-7.5775,-6.8775
359,1568859,0.438712,-0.06832001,-0.883524,1.575,-7.525,-7.1225
360,1568957,0.439932,-0.06466001,-0.886452,1.54,-7.5075,-7.385
361,1569055,0.44212799999999997,-0.061732,-0.8881600000000001,1.575,-7.455,-7.2975
362,1569153,0.44115200000000004,-0.063684,-0.8913321,1.61,-7.4375,-7.3325
363,1569251,0.44066400000000006,-0.06636801,-0.8876719999999999,1.6975,-7.385,-7.28
364,1569349,0.439688,-0.062464,-0.8903561,1.4875,-7.21,-7.0875
365,1569447,0.440176,-0.06344,-0.892552,1.3125,-7.0175,-6.9825
366,1569546,0.43676000000000004,-0.061975999999999996,-0.8910879999999999,1.365,-6.7375,-6.86
367,1569644,0.439688,-0.058316,-0.8881600000000001,1.435,-6.7375,-6.72
368,1569742,0.43627200000000005,-0.05856,-0.888648,1.575,-6.545,-6.475
369,1569840,0.434564,-0.066124,-0.887916,1.61,-6.37,-6.2825
370,1569938,0.438224,-0.068564,-0.889868,1.785,-6.1775,-6.23
371,1570036,0.437492,-0.07173600000000001,-0.8906,1.6275,-5.9675,-6.4225
372,1570134,0.439688,-0.069052,-0.889136,1.54,-5.7925,-6.685
373,1570232,0.44066400000000006,-0.07002799999999999,-0.8901120000000001,1.33,-5.7575,-6.9125
374,1570330,0.438956,-0.06954,-0.889136,1.12,-5.67,-7.175
375,1570428,0.44212799999999997,-0.068564,-0.887916,0.91,-5.775,-7.35
376,1570526,0.440176,-0.06563601,-0.8910879999999999,0.77,-5.705,-7.5425
377,1570624,0.439688,-0.065148,-0.8913321,0.6125,-5.67,-7.63
378,1570722,0.44090799999999997,-0.061975999999999996,-0.8884040000000001,0.735,-5.6525,-7.5425
379,1570820,0.44164,-0.061488,-0.8869401,0.63,-5.81,-7.42
380,1570918,0.440176,-0.063928,-0.8903561,0.6475,-5.88,-7.1925
381,1571016,0.4392,-0.059048,-0.889136,0.8225,-5.915,-7.0175
382,1571114,0.4392,-0.062952,-0.892064,0.9975,-5.8275,-6.7725
383,1571213,0.43676000000000004,-0.064416,-0.8908440999999999,1.015,-5.705,-6.5975
384,1571311,0.438468,-0.066124,-0.887916,0.9975,-5.6175,-6.6675
385,1571409,0.440176,-0.064172,-0.889624,0.945,-5.5825,-6.79
386,1571507,0.44115200000000004,-0.061975999999999996,-0.8930401,0.91,-5.53,-6.86
387,1571605,0.44066400000000006,-0.063196,-0.8903561,0.91,-5.53,-6.7025
388,1571703,0.4392,-0.06539201,-0.8903561,0.8925,-5.5825,-6.545
389,1571801,0.437004,-0.063928,-0.8903561,0.9275,-5.67,-6.5275
390,1571899,0.440176,-0.067832,-0.8862081,0.91,-5.6875,-6.5975
391,1571997,0.4404201,-0.06563601,-0.8874280999999999,0.805,-5.6525,-6.755
392,1572095,0.437004,-0.06588,-0.8888921000000001,0.735,-5.8275,-6.93
393,1572193,0.439688,-0.06466001,-0.8881600000000001,0.77,-5.9325,-6.965
394,1572291,0.4392,-0.064172,-0.888648,0.77,-6.1075,-6.9125
395,1572389,0.440176,-0.06270801,-0.889624,0.8225,-6.265,-7.0525
396,1572487,0.43798000000000004,-0.064172,-0.8888921000000001,0.8225,-6.2825,-7.0525
397,1572585,0.43798000000000004,-0.06563601,-0.889868,0.805,-6.265,-6.965
398,1572683,0.43944399999999995,-0.066856,-0.889136,0.77,-6.2475,-7.035
399,1572782,0.44090799999999997,-0.064416,-0.892308,0.7,-5.9675,-7.1225
400,1572880,0.43773599999999996,-0.064416,-0.891576,0.7175,-5.985,-7.0525
401,1572978,0.43944399999999995,-0.06466001,-0.8906,0.77,-5.8625,-7.0
402,1573076,0.4392,-0.063928,-0.8901120000000001,0.8925,-5.845,-7.0525
403,1573174,0.438224,-0.063928,-0.892552,0.8225,-5.7225,-7.035
404,1573272,0.43944399999999995,-0.06490399999999999,-0.892308,0.7525,-5.635,-6.965
405,1573370,0.44066400000000006,-0.06636801,-0.8913321,0.77,-5.4775,-6.9825
406,1573468,0.439932,-0.06344,-0.889136,0.7,-5.1975,-7.0525
407,1573566,0.438468,-0.063684,-0.8913321,0.63,-5.0925,-7.1225
408,1573664,0.44090799999999997,-0.067588,-0.8884040000000001,0.63,-5.075,-7.21
409,1573762,0.438956,-0.06539201,-0.887916,0.5425,-5.1625,-7.245
410,1573860,0.438712,-0.063928,-0.8884040000000001,0.4725,-5.1975,-7.28
411,1573958,0.4392,-0.062220000000000004,-0.888648,0.4725,-5.3725,-7.315
412,1574056,0.440176,-0.06344,-0.887916,0.5425,-5.565,-7.245
413,1574155,0.44212799999999997,-0.064416,-0.8866961,0.595,-5.565,-7.245
414,1574253,0.438224,-0.05929201,-0.889624,0.6125,-5.5475,-7.1575
415,1574351,0.442616,-0.061975999999999996,-0.8876719999999999,0.5775,-5.5125,-7.0875
416,1574449,0.44286000000000003,-0.062464,-0.891576,0.8925,-5.25,-6.79
417,1574547,0.447008,-0.07027201,-0.9015799999999999,1.015,-4.55,-6.7025
418,1574645,0.438956,-0.07978801,-0.9006040999999999,0.385,-3.5525,-7.14
419,1574743,0.441884,-0.072712,-0.8935280999999999,-0.665,-2.7825,-8.1375
420,1574841,0.438224,-0.07442,-0.8884040000000001,-1.75,-2.59,-9.1525
421,1574939,0.43602799999999997,-0.068076,-0.8866961,-2.275,-2.2925,-9.7825
422,1575037,0.44090799999999997,-0.064172,-0.8842561,-2.6075,-1.925,-10.185
423,1575135,0.43724799999999997,-0.06563601,-0.8866961,-2.8175,-1.365,-10.7975
424,1575233,0.435784,-0.051484,-0.889136,-2.6075,-0.805,-11.0075
425,1575331,0.431392,-0.045384,-0.8869401,-1.5925,-0.2625,-11.0775
426,1575429,0.432856,-0.06954,-0.887184,-0.455,0.21,-11.095
427,1575527,0.44115200000000004,-0.06344,-0.8823040000000001,-0.8225,0.6475,-10.5525
428,1575625,0.43773599999999996,-0.04392,-0.8781559999999999,-1.61,0.7175,-9.975
429,1575723,0.434564,-0.043676,-0.879864,-0.8225,0.735,-8.9075
430,1575822,0.441884,-0.050752,-0.8823040000000001,0.4375,1.015,-8.155
431,1575920,0.45018,-0.049044,-0.8852321,0.8225,1.54,-7.5075
432,1576018,0.45725600000000005,-0.050263999999999996,-0.8849879999999999,1.085,2.205,-6.8075
433,1576116,0.45725600000000005,-0.058072000000000006,-0.8869401,1.505,2.87,-6.2825
434,1576214,0.456768,-0.067344,-0.900848,1.4875,4.1825,-6.0725
435,1576312,0.454084,-0.074664,-0.904752,0.98,6.4225,-6.7375
436,1576410,0.450668,-0.082472,-0.9076799999999999,-0.21,9.205,-7.9275
437,1576508,0.44408000000000003,-0.093696,-0.9230520000000001,-2.065,12.6175,-8.89
438,1576606,0.442616,-0.099552,-0.9333,-4.5675,16.31,-10.535
439,1576704,0.43944399999999995,-0.111508,-0.94916,-7.77,20.09,-12.355
440,1576802,0.42456000000000005,-0.130052,-0.9738041,-11.2525,24.29,-14.0175
441,1576900,0.45579200000000003,-0.13078399999999998,-0.965752,-15.015,26.88,-15.1725
442,1576998,0.393572,-0.326472,-0.972828,-16.3625,30.38,-13.3875
443,1577096,0.356484,-0.46311199999999997,-0.9894200000000001,-15.1375,32.0425,-2.4675
444,1577194,0.320616,-0.48824399999999996,-1.0060120000000001,-16.0825,32.795,12.775
445,1577293,0.36502399999999996,-0.35746,-1.130452,-18.445,31.2375,28.0
446,1577391,0.32452,-0.21447600000000003,-1.203408,-17.955,23.9925,38.605
447,1577489,0.23472800000000002,-0.070516,-1.149972,-17.675,11.7425,41.72
448,1577587,0.171044,0.05172801,-1.083848,-18.1125,2.1,37.24
449,1577685,0.16201600000000002,0.135908,-1.059936,-16.8875,-4.2175,28.0175
450,1577783,0.177876,0.166652,-1.044808,-11.9175,-9.87,17.1675
451,1577881,0.194224,0.14884,-1.023336,-5.8275,-15.61,6.265
452,1577979,0.21374400000000002,0.122,-1.00406,-1.155,-21.0525,-4.0425
453,1578077,0.250832,0.09052401,-0.9860040999999999,2.5025,-26.0575,-13.4925
454,1578175,0.298412,0.046360000000000005,-0.941108,6.4575,-30.59,-21.595
455,1578273,0.345748,-0.004636001,-0.8901120000000001,10.9025,-33.88,-27.4225
456,1578371,0.394548,-0.063928,-0.817156,15.4,-35.2975,-31.0275
457,1578469,0.43773599999999996,-0.119316,-0.7571321,18.0425,-34.16,-31.9025
458,1578567,0.47775200000000007,-0.15054800000000002,-0.7117479999999999,18.4975,-30.5725,-29.3125
459,1578665,0.499712,-0.16835999999999998,-0.6763680000000001,17.36,-25.8475,-23.6075
460,1578764,0.517768,-0.17324,-0.6634359999999999,14.385,-19.7925,-16.0125
461,1578862,0.5429,-0.16958,-0.687592,9.6775,-12.6175,-7.8575
462,1578960,0.5797441,-0.166408,-0.742004,5.88,-6.3875,0.6125
463,1579058,0.5997520000000001,-0.162504,-0.7883640000000001,3.7975,-2.8525,9.66
464,1579156,0.59658,-0.156404,-0.8015399999999999,1.8375,-1.68,18.34
465,1579254,0.5743761,-0.135176,-0.79666,-1.26,-1.1725,25.2
466,1579352,0.554124,-0.116876,-0.80276,-4.8825,-0.3675,29.925
467,1579450,0.543388,-0.10321199999999998,-0.8239880999999999,-6.93,0.7525,33.5475
468,1579548,0.5219159999999999,-0.108824,-0.8466800999999999,-7.245,1.89,36.7675
469,1579646,0.488,-0.122244,-0.8640040000000001,-7.945,2.765,39.4625
470,1579744,0.457988,-0.107116,-0.8935280999999999,-10.2025,3.745,41.65
471,1579842,0.42944,-0.07881200000000001,-0.9237841,-12.4075,4.4975,43.015
472,1579940,0.41236000000000006,-0.040016,-0.9530641,-12.67,4.6025,43.295
473,1580039,0.404064,-0.002196,-0.978928,-10.815,3.745,42.2975
474,1580137,0.397964,0.029768,-0.9889319999999999,-7.9975,1.7675,39.3575
475,1580235,0.39967199999999997,0.044896,-0.99308,-5.5825,-1.1025,34.2825
476,1580333,0.40992,0.0488,-0.9903959999999999,-3.92,-4.55,27.58
477,1580431,0.418216,0.045384,-0.9850280999999999,-2.4325,-8.4525,20.1775
478,1580529,0.43041599999999997,0.031476,-0.9706319999999999,-0.6125,-12.81,12.8625
479,1580627,0.441884,0.014396,-0.954528,2.205,-17.395,6.335
480,1580725,0.451888,-0.001464,-0.9335440999999999,5.425,-21.7525,0.4725
481,1580823,0.45871999999999996,-0.013175999999999998,-0.906948,9.1525,-26.005,-4.515
482,1580921,0.462868,-0.025863999999999998,-0.8820601,13.615,-29.5225,-8.6625
483,1581019,0.46603999999999995,-0.043432,-0.8547319999999999,18.1125,-31.6575,-12.075
484,1581117,0.466772,-0.057828,-0.8342360000000001,21.49,-32.4975,-14.77
485,1581215,0.462868,-0.07344400000000001,-0.8220360000000001,23.73,-32.375,-16.5725
486,1581313,0.48556000000000005,-0.082716,-0.832528,24.64,-31.6925,-17.5525
487,1581411,0.504104,-0.091988,-0.8547319999999999,24.3075,-31.36,-17.9025
488,1581510,0.510204,-0.09272000000000001,-0.859368,22.6275,-32.13,-17.7975
489,1581608,0.50264,-0.08784,-0.844484,20.3175,-33.3375,-17.115
490,1581706,0.49849209999999994,-0.077348,-0.8291120999999999,17.15,-33.39,-16.52
491,1581804,0.477996,-0.07856801,-0.812276,14.4375,-32.655,-15.75
492,1581902,0.470188,-0.09784401,-0.807884,12.1625,-30.6425,-14.7175
493,1582000,0.4819,-0.12175599999999999,-0.8256960999999999,8.925,-27.7025,-13.125
494,1582098,0.49288000000000004,-0.140544,-0.854244,5.32,-25.2175,-10.5875
495,1582196,0.5077640999999999,-0.155428,-0.8845,1.3475,-23.8175,-7.0875
496,1582294,0.5231359999999999,-0.165676,-0.916464,-2.905,-23.765,-3.185
497,1582392,0.522892,-0.174948,-0.9228081,-7.3325,-25.3575,0.77
498,1582490,0.502152,-0.180804,-0.9018241,-12.0575,-27.16,4.1825
499,1582588,0.469944,-0.185928,-0.8676640999999999,-16.4675,-27.5975,7.1225
500,1582686,0.44334799999999996,-0.17202,-0.8476561,-19.565,-25.795,9.625
501,1582784,0.410652,-0.17519200000000001,-0.8427761,-20.755,-22.5225,12.005
502,1582882,0.39161999999999997,-0.171532,-0.85644,-20.8775,-18.3225,13.825
503,1582980,0.376736,-0.155428,-0.876692,-20.3875,-14.7875,15.0675
504,1583079,0.357704,-0.126148,-0.888648,-18.5675,-12.6,15.1725
505,1583177,0.33916,-0.09906401,-0.8959681,-16.24,-10.955,14.07
506,1583275,0.334768,-0.061975999999999996,-0.9125601000000001,-13.7725,-9.765,11.375
507,1583373,0.335256,-0.0366,-0.9318360000000001,-10.2725,-9.6075,7.6125
508,1583471,0.340624,-0.027083999999999997,-0.944524,-5.32,-10.9025,3.395
509,1583569,0.345992,-0.025131999999999998,-0.9394,-0.21,-13.265,-1.3825
510,1583667,0.342088,-0.023668,-0.9174399999999999,3.1325,-15.925,-6.37
511,1583765,0.343796,-0.033916,-0.89426,5.74,-17.9725,-11.3925
512,1583863,0.3599,-0.049288,-0.869616,8.2425,-19.18,-15.6625
513,1583961,0.380152,-0.06832001,-0.8418,10.8325,-20.055,-18.375
514,1584059,0.40138,-0.08906,-0.8142281,13.02,-20.685,-19.845
515,1584157,0.423584,-0.10760399999999999,-0.7788480999999999,14.28,-20.685,-20.8775
516,1584255,0.43212399999999995,-0.118828,-0.743712,14.56,-19.8625,-21.49
517,1584353,0.44896,-0.127368,-0.7044279999999999,13.9125,-17.15,-21.49
518,1584451,0.46848,-0.138348,-0.6763680000000001,12.81,-13.0375,-21.07
519,1584549,0.49312399999999995,-0.15054800000000002,-0.6836880999999999,10.57,-8.015,-20.3
520,1584648,0.522648,-0.17055599999999999,-0.706136,7.8225,-3.955,-18.8475
521,1584746,0.544608,-0.185196,-0.721996,4.235,-0.4375,-16.52
522,1584844,0.5511961,-0.186416,-0.74908,-0.0175,2.485,-13.6325
523,1584942,0.557052,-0.177876,-0.7661600000000001,-5.18,4.025,-10.85
524,1585040,0.553636,-0.159332,-0.753228,-10.955,4.48,-8.4875
525,1585138,0.5690081,-0.131028,-0.771528,-17.815,5.4775,-7.315
526,1585236,0.625616,-0.094916,-0.8025161,-24.955,5.32,-8.2075
527,1585334,0.6439159999999999,-0.06539201,-0.792512,-28.035,1.435,-9.345
528,1585432,0.633668,-0.036112,-0.71492,-25.2525,-3.36,-9.555
529,1585530,0.635376,-0.020984,-0.63318,-19.88,-5.1975,-9.7125
530,1585628,0.66246,-0.007564001,-0.580232,-14.5775,-3.5,-10.2375
531,1585726,0.695156,0.0017079999999999999,-0.5392399999999999,-9.275,-0.28,-9.8525
532,1585824,0.721508,0.010736,-0.5063,-4.3225,3.045,-8.925
533,1585922,0.7473721,0.022448,-0.48678,-1.155,6.2825,-7.7
534,1586020,0.7829961,0.0244,-0.47677600000000003,0.49,8.8025,-6.3875
535,1586118,0.313296,-0.131028,-0.621224,0.2625,10.4475,-4.69
536,1586217,0.135908,-0.02562,-0.6197600000000001,-22.8375,19.8625,-4.725
537,1586315,-1.105564,-0.410652,-2.454152,-27.685,42.105,1.1375
538,1586413,0.62952,0.666608,-3.910832,-48.9125,36.89,2.45
539,1586511,0.08954801,-0.21057199999999998,0.36722,18.76,-1.68,-24.185
540,1586609,1.9715200000000002,0.387716,-1.468636,-5.075,18.6025,-27.16
541,1586707,0.313784,0.182024,-0.877424,0.3325,-4.5325,-2.1875
542,1586805,0.163236,-0.049288,-0.9440360999999999,9.835,-7.735,0.77
543,1586903,0.531188,0.00244,-0.8840120000000001,14.6475,-3.325,0.385
544,1587001,0.490684,0.013663999999999999,-0.887916,18.1475,-4.3225,4.935
545,1587099,0.38503200000000004,-0.023180000000000003,-0.922076,22.2425,-7.3675,10.0975
546,1587197,0.368196,-0.1586,-0.9274440999999999,24.045,-8.085,11.235
547,1587295,0.423828,-0.285968,-0.8718120999999999,21.315,-8.4525,5.11
548,1587393,0.447008,-0.228384,-0.864492,11.6025,-8.505,-2.5375
549,1587491,0.42138809999999993,-0.131028,-0.8823040000000001,3.7975,-9.52,-7.8225
550,1587590,0.392596,-0.081496,-0.9028,2.38,-11.585,-10.2375
551,1587688,0.38356799999999996,-0.09052401,-0.9098761000000001,4.2525,-13.3525,-10.8325
552,1587786,0.40992,-0.094916,-0.9084121,5.3025,-13.51,-11.7075
553,1587884,0.43676000000000004,-0.060267999999999995,-0.8954801,5.845,-13.1425,-11.515
554,1587982,0.40504,-0.051972000000000004,-0.9108521,6.2825,-12.88,-9.5025
555,1588080,0.40577199999999997,-0.071248,-0.9142680000000001,7.8925,-12.74,-7.42
556,1588178,0.41113999999999995,-0.100284,-0.8967,8.54,-12.3725,-6.3
557,1588276,0.39161999999999997,-0.112972,-0.9067040000000001,8.5575,-12.32,-6.8425
558,1588374,0.40211199999999997,-0.120048,-0.8957241,9.1525,-12.565,-7.5075
559,1588472,0.392352,-0.114436,-0.9010921000000001,8.82,-12.5125,-8.0325
560,1588570,0.403332,-0.11541199999999999,-0.90036,9.3275,-12.6,-8.995
561,1588668,0.407724,-0.104432,-0.906948,9.3975,-12.7925,-9.4325
562,1588766,0.40381999999999996,-0.113704,-0.9025559999999999,9.1875,-13.0725,-9.625
563,1588864,0.413092,-0.104432,-0.906948,8.9775,-13.0025,-10.0275
564,1588963,0.416508,-0.10126,-0.9037761000000001,8.1725,-12.495,-9.345
565,1589061,0.396256,-0.099552,-0.9089001,7.56,-12.18,-8.7325
566,1589159,0.40577199999999997,-0.094672,-0.906216,7.2625,-12.1275,-8.7325
567,1589257,0.404064,-0.10345599999999999,-0.9076799999999999,6.825,-11.5675,-8.3475
568,1589355,0.398696,-0.098576,-0.9089001,6.335,-10.9375,-8.12
569,1589453,0.40016,-0.101504,-0.909632,5.9675,-10.4825,-7.77
570,1589551,0.403088,-0.10248,-0.9052401,5.4425,-9.52,-7.2275
571,1589649,0.40016,-0.115168,-0.903532,4.7075,-8.855,-6.65
572,1589747,0.399916,-0.112728,-0.9113399999999999,4.2175,-8.085,-6.545
573,1589845,0.40357600000000005,-0.11224,-0.9054840000000001,3.4475,-7.315,-6.8075
574,1589943,0.39723200000000003,-0.118828,-0.91012,2.59,-6.5975,-6.9125
575,1590041,0.404308,-0.110776,-0.9086559999999999,2.1525,-6.0725,-6.9825
576,1590139,0.392596,-0.10516400000000001,-0.9208561,1.505,-5.53,-6.895
577,1590237,0.399916,-0.10760399999999999,-0.9106081,1.6275,-5.145,-6.6675
578,1590335,0.396012,-0.10126,-0.919392,1.12,-4.6375,-6.615
579,1590433,0.39771999999999996,-0.113704,-0.906948,1.505,-4.34,-6.2125
580,1590531,0.4023561,-0.10492,-0.9093880999999999,1.0325,-4.095,-6.65
581,1590629,0.392108,-0.13151600000000002,-0.8976761000000001,1.12,-4.375,-6.23
582,1590727,0.394548,-0.111508,-0.907192,0.77,-4.6025,-6.965
583,1590826,0.393816,-0.122244,-0.9028,0.6125,-5.1275,-7.4375
584,1590924,0.396012,-0.12053599999999999,-0.9025559999999999,0.3675,-5.7925,-7.77
585,1591022,0.395036,-0.114436,-0.907192,0.07,-6.23,-8.2775
586,1591120,0.39113200000000004,-0.11394800000000001,-0.9057280999999999,0.0875,-6.6325,-8.505
587,1591218,0.396256,-0.110044,-0.90402,-0.035,-6.965,-8.75
588,1591316,0.396744,-0.106628,-0.90402,-0.0875,-7.0525,-8.8375
589,1591414,0.393328,-0.10638399999999999,-0.9052401,-0.0525,-7.0,-8.505
590,1591512,0.394304,-0.098088,-0.9052401,0.0525,-7.14,-8.2075
591,1591610,0.393328,-0.105896,-0.9030440000000001,0.3675,-7.2975,-7.63
592,1591708,0.39113200000000004,-0.10394400000000001,-0.906216,0.3675,-7.14,-7.315
593,1591806,0.397964,-0.10760399999999999,-0.903532,0.42,-7.2275,-7.0525
594,1591904,0.3904,-0.1037,-0.9076799999999999,0.4025,-7.245,-6.93
595,1592002,0.38308000000000003,-0.11028800000000001,-0.9079241,0.665,-7.21,-6.65
596,1592100,0.392596,-0.107116,-0.9067040000000001,0.5425,-6.8425,-6.86
597,1592198,0.38795999999999997,-0.10736,-0.9057280999999999,0.665,-6.8075,-6.9825
598,1592296,0.3904,-0.10760399999999999,-0.9054840000000001,0.805,-6.965,-7.14
599,1592394,0.40211199999999997,-0.101504,-0.9049959999999999,1.1725,-7.2275,-7.2975
600,1592492,0.382592,-0.1098,-0.9054840000000001,1.5925,-7.315,-6.965
601,1592591,0.387472,-0.114436,-0.8998719999999999,1.4,-7.0875,-7.4025
602,1592689,0.39894,-0.122976,-0.8908440999999999,0.56,-5.9675,-7.4725
603,1592787,0.359656,-0.14469200000000002,-0.887184,0.595,-6.44,-5.8275
604,1592885,0.416508,-0.091988,-0.876692,1.68,-6.37,-5.0575
605,1592983,0.361608,-0.123464,-0.9150001,0.1225,-5.215,-6.8075
606,1593081,0.407968,-0.08906,-0.935984,0.105,-4.69,-7.0
607,1593179,0.417972,-0.07710399999999999,-0.8808401,0.9625,-4.235,-6.5275
608,1593277,0.368196,-0.11394800000000001,-0.9018241,0.5775,-3.43,-6.93
609,1593375,0.37576,-0.13298,-0.8847440999999999,0.9625,-2.5375,-6.9825
610,1593473,0.367708,-0.123464,-0.913048,1.2075,-1.68,-6.8075
611,1593571,0.40211199999999997,-0.071248,-0.931348,1.5575,-0.2975,-7.07
612,1593669,0.3965,-0.1464,-0.899384,1.4175,1.295,-6.86
613,1593767,0.384788,-0.113704,-0.9203680000000001,0.7525,2.625,-8.0325
614,1593865,0.389424,-0.088328,-0.9252481,1.47,4.3575,-8.365
615,1593963,0.385764,-0.11736400000000001,-0.90402,0.42,7.1925,-9.135
616,1594061,0.382104,-0.10833599999999999,-0.9171961,0.525,10.4475,-9.065
617,1594159,0.36209600000000003,-0.090768,-0.954284,0.595,15.33,-8.715
618,1594257,0.304268,-0.122,-0.978928,0.7,24.045,-7.595
619,1594356,0.3599,-0.162748,-0.945256,0.6475,37.415,-8.5225
620,1594454,0.364048,-0.130296,-0.9540401,-0.8575,51.975,-11.69
621,1594552,0.369904,-0.093696,-0.9652639999999999,-3.36,66.0625,-13.0725
622,1594650,0.362584,-0.093696,-0.9840521000000001,-4.48,79.7825,-11.83
623,1594748,0.330864,-0.082716,-1.0060120000000001,-6.51,91.9275,-10.2375
624,1594846,0.40821199999999996,-0.08564401,-0.9982040000000001,-7.3325,103.8275,-8.96
625,1594944,0.41968,-0.107116,-1.0255319999999999,-4.865,121.24,-9.485
626,1595042,0.329156,-0.09735601,-1.044564,-4.2525,134.435,-10.7975
627,1595140,0.487512,-0.12053599999999999,-0.9828321,-8.9075,139.4575,-12.495
628,1595238,0.43602799999999997,-0.132248,-1.022604,-3.43,156.7825,-15.155
629,1595336,0.379176,-0.13639600000000002,-0.954528,1.26,174.93,-19.6875
630,1595434,0.44237200000000004,-0.161772,-1.047736,-5.8975,193.935,-27.8075
631,1595532,0.60634,-0.206668,-1.0126,-3.5525,219.1525,-40.4075
632,1595630,0.592188,-0.15201199999999998,-1.1714440000000002,-9.24,237.965,-49.5425
633,1595728,0.876692,-0.29036,-1.238788,3.15,250.11,-52.5
634,1595826,0.8488761,-0.307196,-1.253428,2.24,266.665,-52.465
635,1595924,0.7571321,-0.277672,-1.194868,4.55,272.4575,-51.5025
636,1596023,0.79056,-0.15738,-1.158512,14.8925,271.9675,-53.7425
637,1596121,0.8115439999999999,-0.126636,-1.0797,26.775,268.135,-54.005
638,1596219,1.3205280000000001,-0.196664,-1.232932,37.7825,271.8975,-48.4225
639,1596317,0.7861680999999999,0.114436,-2.046916,57.7325,286.2475,-38.4825
640,1596415,-0.096624,-0.182268,-2.3555759999999997,74.4975,244.93,-61.3025
641,1596513,-0.31524800000000003,-0.9459880999999999,-1.9361400000000002,48.79,154.9975,-86.5375
642,1596611,-0.3294,-0.6317159999999999,-2.053016,-2.66,54.6525,-79.8
643,1596709,-0.43188000000000004,-0.6763680000000001,-1.6555400000000002,-24.3425,-12.215,-66.53501
644,1596807,-0.5185,-0.661972,-1.438868,-34.2825,-56.4725,-53.935
645,1596905,-0.420412,-0.6502600000000001,-1.46522,-38.465,-87.5525,-42.0875
646,1597003,-0.305244,-0.642696,-1.448872,-36.19,-121.835,-27.7025
647,1597101,-0.223504,-0.644648,-1.358104,-33.005,-157.6925,-13.4575
648,1597199,-0.14469200000000002,-0.585356,-1.2444,-35.9975,-190.8375,-1.4875
649,1597297,-0.03294,-0.531676,-1.154852,-39.0425,-218.3825,6.1425
650,1597395,0.085888,-0.503616,-1.075308,-36.4875,-240.87,12.81
651,1597493,0.167872,-0.5158159999999999,-0.9762440999999998,-29.26,-259.0,21.28
652,1597591,0.237656,-0.531676,-0.8510719999999999,-20.3525,-270.55,31.7625
653,1597689,0.35868,-0.5392399999999999,-0.805688,-11.935,-273.2975,43.61
654,1597788,0.5294800000000001,-0.56852,-0.8071520000000001,-2.2925,-270.1125,57.2075
655,1597886,0.673928,-0.590724,-0.784216,8.4875,-264.915,74.6025
656,1597984,0.785924,-0.5072760000000001,-0.793488,15.2775,-258.405,94.90250999999999
657,1598082,0.8720559999999999,-0.355752,-0.8727879999999999,18.0425,-247.5375,109.1125
658,1598180,0.9537959999999999,-0.207644,-0.9547720999999999,17.7625,-238.77,113.75
659,1598278,0.9618481,-0.06466001,-0.9067040000000001,16.3625,-232.7325,110.81
660,1598376,0.961116,0.12053599999999999,-0.787876,16.1525,-221.095,99.995
661,1598474,0.9496479999999999,0.26961999999999997,-0.795928,16.73,-199.5,80.2375
662,1598572,1.129232,0.33184,-1.134356,18.865,-176.05,50.5575
663,1598670,1.306132,0.30012,-1.407148,25.9175,-168.3675,17.0625
664,1598768,1.29198,0.141276,-1.175836,31.22,-178.5525,-13.9475
665,1598866,1.14314,0.12248800000000001,-0.793488,24.045,-181.265,-44.625
666,1598964,1.206824,0.18666,-0.630984,16.1875,-167.8425,-73.15
667,1599062,1.4398440000000001,0.20691199999999998,-0.6878361,28.42,-147.385,-93.17
668,1599160,1.517436,0.045384,-0.6080479999999999,57.9775,-132.37,-98.61251
669,1599258,1.464976,-0.15372,-0.366732,74.4975,-120.785,-91.875
670,1599357,1.4374040000000001,-0.188368,-0.30622,63.77,-101.85,-80.2725
671,1599455,1.532564,-0.12175599999999999,-0.351848,48.335,-79.66001,-64.645
672,1599553,1.5906360000000002,-0.056852,-0.288896,42.5425,-61.6175,-44.0825
673,1599651,1.594052,0.12980799999999998,-0.353312,37.4675,-45.395,-23.52
674,1599749,1.6582240000000001,0.320128,-0.33818400000000004,34.93,-35.315,-7.0175
675,1599847,1.5603799999999999,0.42944,-0.16348,30.66,-28.2625,5.3725
676,1599945,1.6443159999999999,0.517768,-0.13151600000000002,14.8225,-19.775,13.125
677,1600043,1.6226,0.526552,-0.0366,-0.945,-9.695,18.41
678,1600141,1.637484,0.48556000000000005,0.076616,-14.6825,0.7,23.275
679,1600239,1.694824,0.381616,0.127368,-23.9925,16.7125,29.61
680,1600337,1.624064,0.160796,0.06661201,-27.02,35.2275,39.34
681,1600435,1.49938,-0.021228,0.41675200000000007,-47.6,62.2125,45.92
682,1600533,0.5843801,0.040016,-0.976,-70.6125,92.645,64.2075
683,1600631,-1.083116,-0.692228,-2.375828,-30.485,108.29,60.4625
684,1600729,-0.07222401,0.3843,-1.593076,-61.4775,120.6275,28.175
685,1600827,1.537688,1.7399639999999998,-2.0996200000000003,-119.0,136.255,-13.4225
686,1600925,1.060668,1.109224,-1.2073120000000002,-99.54,93.4325,-22.9075
687,1601023,0.57462,0.081496,-1.3200399999999999,-34.335,43.5575,-16.695
688,1601122,0.471408,-0.09442801,-1.115324,-6.72,23.135,-7.8575
689,1601220,0.5463161,0.361608,-1.156316,-6.7375,21.6475,2.695
690,1601318,0.499468,-0.145912,-0.9982040000000001,12.39,6.895,8.33
691,1601416,0.418704,-0.34428400000000003,-0.9042641,15.3475,0.525,8.05
692,1601514,0.47067600000000004,-0.267912,-0.889136,5.53,-1.47,-1.89
693,1601612,0.43554,-0.17641199999999999,-0.8935280999999999,-0.1925,-5.5475,-10.6925
694,1601710,0.389912,-0.11467999999999999,-0.92232,-2.7125,-9.03,-13.9825
695,1601808,0.42700000000000005,-0.076616,-0.9057280999999999,-0.98,-9.1875,-14.0175
696,1601906,0.410408,-0.02928,-0.913536,1.1375,-9.345,-12.3025
697,1602004,0.380152,-0.031964,-0.9328120000000001,4.585,-9.205,-9.1875
698,1602102,0.389912,-0.06563601,-0.927932,7.5075,-7.1575,-5.25
699,1602200,0.377712,-0.07686,-0.9174399999999999,8.19,-6.16,-4.13
700,1602298,0.392352,-0.08857201,-0.9108521,9.6425,-6.3175,-4.655
701,1602396,0.40381999999999996,-0.095648,-0.9086559999999999,9.0825,-6.475,-4.76
702,1602495,0.39771999999999996,-0.11321600000000001,-0.9086559999999999,7.98,-6.4925,-4.7775
703,1602593,0.393084,-0.112728,-0.913536,7.595,-6.3875,-5.355
704,1602691,0.396012,-0.11224,-0.9086559999999999,7.7,-6.2125,-6.055
705,1602789,0.39113200000000004,-0.10614000000000001,-0.913536,6.72,-5.32,-6.16
706,1602887,0.39161999999999997,-0.090768,-0.9208561,6.055,-4.725,-6.3875
707,1602985,0.401624,-0.101748,-0.908168,5.9675,-4.375,-6.055
708,1603083,0.395768,-0.10492,-0.903532,5.635,-4.2875,-5.88
709,1603181,0.395524,-0.113704,-0.906216,5.6,-4.41,-5.7575
710,1603279,0.38966799999999996,-0.114436,-0.8988959999999999,4.9525,-4.0425,-6.09
711,1603377,0.380152,-0.13298,-0.8976761000000001,4.4975,-4.1825,-6.65
712,1603475,0.384544,-0.08808401,-0.9247601000000001,4.34,-4.0775,-6.86
713,1603573,0.401624,-0.082228,-0.921832,4.34,-3.8325,-6.7725
714,1603671,0.406992,-0.139568,-0.879864,4.445,-3.535,-6.4225
715,1603770,0.370392,-0.11224,-0.908168,4.48,-3.29,-6.3525
716,1603868,0.3965,-0.05929201,-0.936716,5.7575,-3.395,-6.09
717,1603966,0.411872,-0.13298,-0.8752280000000001,7.105,-3.5175,-5.355
718,1604064,0.368684,-0.13639600000000002,-0.898652,6.3,-3.465,-5.635
719,1604162,0.395768,-0.08662001,-0.9340321,5.2675,-3.7275,-6.6325
720,1604260,0.410652,-0.14884,-0.8876719999999999,4.41,-3.4825,-7.4025
721,1604358,0.374784,-0.125172,-0.9147559999999999,3.3425,-3.4825,-8.6975
722,1604456,0.41260399999999997,-0.112728,-0.8937719999999999,3.7625,-3.6925,-9.2575
723,1604554,0.389424,-0.12175599999999999,-0.9152440000000001,2.2925,-3.3425,-9.835
724,1604652,0.38674000000000003,-0.11126400000000002,-0.8964561,2.31,-3.045,-9.73
725,1604750,0.384544,-0.136884,-0.9025559999999999,0.9625,-2.905,-9.5725
726,1604848,0.386984,-0.10394400000000001,-0.9232961,-0.21,-2.5375,-10.08
727,1604946,0.404308,-0.13761600000000002,-0.8906,-0.91,-1.9775,-10.6225
728,1605044,0.396256,-0.11760799999999999,-0.899384,-2.8,-1.12,-11.585
729,1605143,0.395036,-0.10809200000000001,-0.9203680000000001,-2.73,-0.3675,-11.725
730,1605241,0.38552,-0.09394001,-0.921588,-3.08,0.735,-11.795
731,1605339,0.384788,-0.098576,-0.9167081,-2.52,2.2575,-11.305
732,1605437,0.39771999999999996,-0.10004,-0.913292,-2.695,4.8125,-10.395
733,1605535,0.378932,-0.096624,-0.9228081,-2.3975,7.56,-9.8525
734,1605633,0.382592,-0.10126,-0.930616,-2.6425,11.165,-9.5025
735,1605731,0.351116,-0.09589201,-0.93086,-2.555,15.9775,-9.17
736,1605829,0.376248,-0.11126400000000002,-0.9298841,-2.59,21.5775,-9.1875
737,1605927,0.36844,-0.09882,-0.937448,-3.4475,28.1925,-9.38
738,1606025,0.37576,-0.102968,-0.9301280000000001,-3.8325,34.9475,-9.3275
739,1606123,0.35697199999999996,-0.08344800000000001,-0.9501360999999999,-3.6575,42.4375,-9.6425
740,1606221,0.393816,-0.08003201,-0.9713639999999999,-3.8325,52.2725,-9.38
741,1606319,0.352092,-0.06344,-1.025776,-2.625,67.655,-8.26
742,1606417,0.274744,-0.07442,-1.09922,-2.345,86.13501,-6.6325
743,1606515,0.302072,-0.138104,-1.112396,-4.165,105.91,-5.3375
744,1606614,0.37551599999999996,-0.187392,-1.1033680000000001,-6.5275,125.65,-9.835
745,1606712,0.271572,-0.14762,-1.17486,-10.5875,152.985,-16.1525
746,1606810,0.112728,-0.15176800000000001,-1.236348,-14.0175,181.44,-20.5625
747,1606908,0.37258800000000003,-0.17446,-1.146556,-14.0525,210.9275,-28.7875
748,1607006,0.187148,-0.212036,-1.258308,-17.0275,254.0475,-42.6475
749,1607104,0.5043479999999999,-0.132736,-1.190476,-33.46,286.93,-56.5075
750,1607202,0.538752,-0.142008,-1.519144,-39.27,325.5525,-59.745
751,1607300,0.9943001,-0.09320801,-1.557208,-34.5625,336.28,-49.1575
752,1607398,0.8142281,-0.024644,-1.41764,2.9925,371.7525,-34.09
753,1607496,0.815448,-0.21520799999999998,-1.420324,25.9,378.8575,-25.3575
754,1607594,1.013576,-0.110776,-1.424716,56.665,366.94,-31.01
755,1607692,1.701412,-0.06880801,-2.107428,85.61,380.065,-35.8925
756,1607790,0.388692,0.211792,-3.17932,119.28,404.7225,-37.0125
757,1607888,-0.6954,-0.20837600000000003,-2.454396,101.1325,296.415,-63.455
758,1607986,-0.08052000000000001,-0.5553441,-2.606164,52.0625,121.03,-98.54251
759,1608084,-0.477508,-0.5463161,-2.338984,-12.67,-11.13,-87.6925
760,1608183,-0.858392,-0.6202479999999999,-1.6552959999999999,-30.555,-84.8925,-75.0225
761,1608281,-0.803492,-0.625616,-1.461316,-46.55,-117.6875,-63.315
762,1608379,-0.680516,-0.5104479999999999,-1.534516,-56.35,-143.9725,-48.1425
763,1608477,-0.55388,-0.48824399999999996,-1.4701,-43.8375,-177.45,-30.9225
764,1608575,-0.45115600000000006,-0.45432799999999995,-1.369816,-30.38,-211.5225,-15.26
765,1608673,-0.345016,-0.406992,-1.267824,-24.29,-242.27,-3.745
766,1608771,-0.207156,-0.36844,-1.212924,-22.995,-267.3125,3.465
767,1608869,-0.05587601,-0.321348,-1.200236,-21.4375,-288.2425,9.6775
768,1608967,0.096868,-0.299632,-1.172176,-14.35,-306.565,16.24
769,1609065,0.24766,-0.29377600000000004,-1.14436,-3.78,-320.39,24.255
770,1609163,0.447496,-0.312076,-1.1599760000000001,6.86,-328.825,32.375
771,1609261,0.666852,-0.325008,-1.204628,14.98,-333.3925,40.74
772,1609359,0.8762040000000001,-0.328424,-1.2397639999999999,20.9475,-335.1775,49.9625
773,1609457,1.020408,-0.34477199999999997,-1.200724,24.6225,-335.09,59.5
774,1609555,1.102636,-0.32256799999999997,-1.086288,24.0975,-330.0675,68.8625
775,1609653,1.144116,-0.002196,-0.7820199999999999,24.7625,-315.1225,78.61
776,1609752,1.0401719999999999,0.41992399999999996,-0.5221600000000001,34.5625,-286.055,84.5775
777,1609850,1.363716,0.750544,-1.043588,48.335,-235.1475,68.6875
778,1609948,1.993968,0.8610761,-1.645048,63.14,-199.64,40.5475
779,1610046,2.268956,0.780312,-1.48474,67.27,-207.5325,9.6775
780,1610144,2.2421159999999998,0.69418,-0.7705521,43.4175,-221.585,-24.675
781,1610242,2.327516,0.554856,-0.23424,11.2175,-209.9475,-57.8725
782,1610340,2.477332,0.248148,0.07637200000000001,-7.4025,-178.5175,-76.02
783,1610438,2.442684,-0.0671,0.319152,-10.08,-140.805,-72.6425
784,1610536,2.3841240000000004,-0.208864,0.42822,-10.045,-101.9375,-51.59
785,1610634,2.293844,-0.21057199999999998,0.360144,-13.895,-66.115,-21.91
786,1610732,2.287256,-0.012931999999999999,0.142008,-22.6275,-39.0775,6.6675
787,1610830,2.166232,0.244488,0.032451999999999995,-28.77,-24.57,27.9825
788,1610928,1.87392,0.40894400000000003,0.134932,-35.875,-20.3,35.2975
789,1611026,1.637484,0.48848800000000003,0.164212,-49.7,-11.9875,26.6
790,1611124,1.521828,0.9928360999999999,0.036356,-54.8275,1.6275,11.795
791,1611222,2.167696,0.40748,0.9740479999999999,8.365,32.7425,-3.4825
792,1611321,0.8547319999999999,-0.38918,0.8308200000000001,59.22,97.685,-18.4975
793,1611419,0.620004,-0.8271601000000001,-1.9951880000000002,65.6425,165.7425,3.57
794,1611517,1.114348,-1.017968,-2.5878639999999997,23.4325,172.4625,3.0625
795,1611615,2.018856,-0.47653199999999996,-3.108804,-35.175,128.7825,1.9425
796,1611713,0.20496,0.6168319999999999,-0.20178800000000002,-82.6,56.35,-5.9675
797,1611811,0.540704,0.767868,-1.4966959999999998,-3.885,36.9775,-10.0275
798,1611909,0.22789600000000002,-0.08637601,-0.8849879999999999,27.51,29.4175,-11.27
799,1612007,0.779824,0.20984,-0.9598959999999999,29.645,34.9125,-1.4525
800,1612105,0.42944,-0.003172,-1.018944,31.2025,15.645,10.8325
801,1612203,0.285968,-0.048068,-1.034316,33.32,-0.1225,13.895
802,1612301,0.453596,-0.22862800000000003,-0.9389120000000001,35.28,-3.1675,12.6875
803,1612399,0.47506800000000005,-0.252296,-0.8857200999999999,26.495,-2.5725,3.6925
804,1612497,0.38552,-0.12712400000000001,-0.945744,14.2275,-4.3575,-3.7275
805,1612595,0.399428,-0.17397200000000002,-0.9115840000000001,11.865,-6.86,-5.3375
806,1612693,0.382592,-0.081252,-0.9181720999999999,8.8725,-7.84,-5.3025
807,1612791,0.380152,-0.07002799999999999,-0.9345201,7.4725,-8.995,-6.755
808,1612889,0.366976,-0.107116,-0.921344,8.4525,-8.6975,-5.32
809,1612987,0.363804,-0.11760799999999999,-0.9242720999999999,8.5575,-8.8725,-5.4075
810,1613086,0.381372,-0.086132,-0.9284200999999999,7.7525,-8.3825,-5.25
811,1613184,0.38186,-0.109556,-0.9174399999999999,7.0175,-7.735,-4.6025
812,1613282,0.36892800000000003,-0.108824,-0.92232,6.16,-7.6125,-4.2525
813,1613380,0.371612,-0.095648,-0.9203680000000001,6.125,-7.875,-4.1825
814,1613478,0.360388,-0.133956,-0.9250040999999999,5.8975,-7.8225,-3.85
815,1613576,0.372344,-0.141032,-0.916464,5.04,-7.7175,-4.7075
816,1613674,0.378688,-0.133468,-0.9145120999999999,2.8525,-7.665,-5.8625
817,1613772,0.374784,-0.121512,-0.9147559999999999,1.435,-7.455,-6.6675
818,1613870,0.353312,-0.10418800000000002,-0.92232,0.455,-7.8225,-7.2625
819,1613968,0.363316,-0.109556,-0.924516,0.4025,-7.7875,-7.49
820,1614066,0.364536,-0.12029200000000001,-0.9179280000000001,1.33,-8.1375,-7.7175
821,1614164,0.35892399999999997,-0.111996,-0.9211,0.56,-7.35,-7.91
822,1614262,0.36478,-0.11394800000000001,-0.919636,0.875,-7.0175,-8.1375
823,1614360,0.36478,-0.10321199999999998,-0.921588,0.9625,-6.7725,-8.2425
824,1614458,0.36648800000000004,-0.101748,-0.9225639999999999,0.8400001,-6.0725,-7.7525
825,1614556,0.366732,-0.11102000000000001,-0.92232,0.56,-5.6525,-7.7
826,1614655,0.360388,-0.114436,-0.9167081,0.63,-5.6875,-7.98
827,1614753,0.369172,-0.110044,-0.919392,0.175,-5.6,-8.1725
828,1614851,0.363072,-0.111752,-0.9186601000000001,-0.28,-6.1075,-8.4
829,1614949,0.361852,-0.111996,-0.916952,-0.8575,-6.2825,-8.6975
830,1615047,0.361852,-0.109556,-0.9228081,-0.6825,-6.51,-9.1875
831,1615145,0.366976,-0.08564401,-0.9293961,-1.26,-6.09,-9.3975
832,1615243,0.36892800000000003,-0.094672,-0.9201241,-1.925,-6.3175,-8.785
833,1615341,0.35624,-0.102724,-0.917684,-1.96,-6.5975,-8.1725
834,1615439,0.33379200000000003,-0.12444000000000001,-0.9103641,-1.47,-7.1925,-8.4
835,1615537,0.36234,-0.10418800000000002,-0.9206120000000001,-1.0675,-7.3675,-9.38
836,1615635,0.35746,-0.10833599999999999,-0.9125601000000001,-0.2975,-7.2975,-9.695
837,1615733,0.359168,-0.102724,-0.9125601000000001,0.455,-6.615,-10.045
838,1615831,0.34794400000000003,-0.101992,-0.9140241,0.525,-5.915,-9.9925
839,1615929,0.36209600000000003,-0.11126400000000002,-0.8937719999999999,0.875,-4.865,-10.0625
840,1616027,0.35160399999999997,-0.119072,-0.8988959999999999,1.7675,-4.095,-9.3975
841,1616125,0.357704,-0.07515201,-0.9113399999999999,3.71,-2.835,-8.1375
842,1616224,0.349896,-0.09125599999999999,-0.9098761000000001,5.2325,-1.4,-7.175
843,1616322,0.366732,-0.111752,-0.927688,4.6725,0.0525,-6.44
844,1616420,0.370148,-0.122732,-0.9186601000000001,2.8525,1.4875,-7.3325
845,1616518,0.3721,-0.125416,-0.916464,1.575,2.8525,-8.995
846,1616616,0.36478,-0.126636,-0.9252481,-0.49,5.0575,-10.465
847,1616714,0.359656,-0.119316,-0.9318360000000001,-1.855,8.1375,-12.11
848,1616812,0.332816,-0.111996,-0.958432,-2.9225,12.8975,-13.51
849,1616910,0.270352,-0.128588,-0.9633120999999999,-2.205,19.2675,-14.385
850,1617008,0.32403200000000004,-0.07442,-0.9825879999999999,-2.2225,29.0675,-14.6475
851,1617106,0.276208,-0.06539201,-1.020408,0.6825,42.6475,-13.0375
852,1617204,0.28548,-0.102724,-1.035536,2.3625,62.7025,-10.3425
853,1617302,0.321592,-0.135908,-1.016016,2.66,87.60501,-11.06
854,1617400,0.263764,-0.05172801,-1.0767719999999998,-1.4175,111.5625,-14.8575
855,1617498,0.314272,-0.031232,-1.1089799999999999,-4.4975,129.7975,-14.175
856,1617597,0.273768,-0.07832401,-1.175592,-2.2225,146.195,-10.57
857,1617695,0.327692,-0.1281,-1.1777879999999998,0.0525,165.4275,-9.555
858,1617793,0.18056,-0.182268,-1.252208,0.4375,193.13,-13.1075
859,1617891,0.435296,-0.21228000000000002,-1.110688,-3.5525,218.2075,-22.645
860,1617989,0.19959200000000002,-0.21862399999999999,-1.1977959999999999,-11.5325,259.8925,-37.1175
861,1618087,0.5648601,-0.153232,-1.19316,-30.94,291.7075,-54.845
862,1618185,0.6763680000000001,-0.37576,-1.48718,-36.82,317.2575,-67.6725
863,1618283,1.000888,-0.260592,-1.4691239999999999,-43.085,336.105,-66.395
864,1618381,0.773724,-0.15176800000000001,-1.493768,-10.4475,363.2125,-57.4875
865,1618479,0.9115840000000001,-0.24497600000000003,-1.4896200000000002,19.635,366.135,-49.91
866,1618577,1.7450880000000002,-0.21838000000000002,-1.2282959999999998,53.34,353.29,-45.745
867,1618675,1.30784,-0.041236,-2.226744,76.4575,387.345,-33.81
868,1618773,0.27816,0.212036,-3.2471520000000003,79.415,381.7275,-44.17
869,1618871,-0.215452,-0.8735200000000001,-2.252364,63.1925,244.4225,-77.5775
870,1618969,-0.041968,-0.5543680000000001,-2.4278,16.765,88.2,-83.3175
871,1619067,-0.428708,-0.540704,-1.81292,-31.36,0.735,-71.1375
872,1619165,-0.6734399999999999,-0.5158159999999999,-1.3346799999999999,-47.3375,-50.6625,-63.4025
873,1619264,-0.562176,-0.45603599999999994,-1.3468799999999999,-56.805,-74.6725,-56.1925
874,1619362,-0.480192,-0.46164799999999995,-1.369084,-49.1575,-104.5275,-43.19
875,1619460,-0.441884,-0.51362,-1.2761200000000001,-37.45,-140.5775,-30.2225
876,1619558,-0.391864,-0.486048,-1.156316,-35.7,-174.2825,-20.0725
877,1619656,-0.35892399999999997,-0.40528400000000003,-1.019432,-37.1875,-202.44,-12.355
878,1619754,-0.311344,-0.316712,-0.9079241,-33.9325,-223.5975,-7.525
879,1619852,-0.233752,-0.26108000000000003,-0.8554641,-23.905,-238.07,-4.4975
880,1619950,-0.11467999999999999,-0.24644000000000002,-0.8823040000000001,-6.2125,-248.0275,-0.9625
881,1620048,0.0061,-0.264252,-0.9591639999999999,14.5425,-256.585,4.6375
882,1620146,0.204228,-0.2806,-1.05164,31.71,-265.7375,11.62
883,1620244,0.383812,-0.31598000000000004,-1.084824,43.9775,-276.1675,19.0225
884,1620342,0.54656,-0.335988,-1.06384,48.79,-285.53,27.615
885,1620440,0.709064,-0.316224,-1.044564,49.7525,-289.73,37.45
886,1620538,0.81984,-0.288896,-1.053592,52.8675,-288.4525,49.525
887,1620636,0.915732,-0.316712,-1.01138,56.28,-284.13,63.7
888,1620734,0.9711200999999999,-0.367708,-0.9969841,55.4575,-275.1875,78.96
889,1620832,1.131916,-0.36087600000000003,-1.117032,49.245,-260.505,94.01
890,1620931,1.36396,-0.112728,-1.218292,41.65,-247.7125,107.1525
891,1621029,1.46156,0.536068,-1.235616,39.795,-239.26,113.8375
892,1621127,1.671156,0.9291520000000001,-1.048468,46.095,-232.2075,94.115
893,1621225,1.8282919999999998,1.1509479999999999,-0.815936,39.06,-218.5575,49.21
894,1621323,2.09108,1.053348,-0.62098,29.365,-196.9625,-5.3725
895,1621421,2.243824,0.64904,-0.372344,19.2325,-171.22,-50.925
896,1621519,2.353868,0.22496799999999997,-0.13054000000000002,4.0775,-144.4625,-77.1225
897,1621617,2.4151119999999997,-0.11224,0.15762400000000001,-5.95,-116.8125,-81.865
898,1621715,2.506368,-0.262788,0.325984,-7.1225,-88.02501,-66.6575
899,1621813,2.469036,-0.27889200000000003,0.396744,0.9625,-59.535,-37.345
900,1621911,2.3907119999999997,-0.2074,0.398696,7.9275,-35.77,-3.36
901,1622009,2.231624,0.063928,0.364048,0.2975,-15.015,26.53
902,1622107,2.161352,0.393816,0.282796,-21.1225,1.0325,43.54
903,1622205,1.932236,0.5934081,0.242536,-42.28,14.455,45.1675
904,1622304,1.693604,0.652456,0.17812,-60.4975,27.02,33.74
905,1622402,0.46164799999999995,0.579012,0.040748,-59.6575,43.9075,17.8675
906,1622500,-0.5543680000000001,0.5726680000000001,-1.199016,-16.1,82.3375,-4.865
907,1622598,-0.5321640000000001,0.058072000000000006,-2.060092,23.2575,133.3675,-32.6375
908,1622696,3.024624,-1.8580599999999998,-4.664548,27.5975,161.91,-57.015
909,1622794,0.447008,0.07686,0.599264,-56.7175,63.175,-32.515
910,1622892,1.179008,1.090436,-2.38632,-14.8575,37.6775,-10.6225
911,1622990,-0.0427,-0.243756,-0.8113001,21.7175,11.8825,-12.32
912,1623088,0.612928,0.01708,-0.960628,24.2725,30.485,-6.7725
913,1623186,0.635376,0.010248,-0.8723001,24.185,22.645,3.885
914,1623284,0.42333999999999994,-0.23058,-0.886452,25.06,11.025,12.775
915,1623382,0.35258,-0.200568,-0.987712,19.145,5.285,10.745
916,1623480,0.33623200000000003,-0.124196,-0.9857600000000001,15.715,3.465,4.725
917,1623578,0.368684,-0.083936,-0.950868,13.7025,-0.4025,1.4875
918,1623676,0.35892399999999997,-0.09052401,-0.924516,15.4,-2.2575,2.0825
919,1623774,0.384788,-0.10760399999999999,-0.9150001,18.305,-5.075,1.295
920,1623872,0.37576,-0.05587601,-0.9347639999999999,19.3725,-6.51,1.225
921,1623971,0.34111199999999997,-0.07515201,-0.9472079999999999,20.93,-6.6325,2.59
922,1624069,0.34892,-0.10760399999999999,-0.9354959999999999,22.75,-5.705,3.15
923,1624167,0.36941599999999997,-0.133712,-0.919636,23.24,-4.935,2.1875
924,1624265,0.37990799999999997,-0.12444000000000001,-0.9140241,22.435,-4.5675,0.9625
925,1624363,0.367708,-0.148596,-0.9098761000000001,21.0875,-4.5675,0.5425
926,1624461,0.376736,-0.188856,-0.9030440000000001,19.53,-5.04,-1.7675
927,1624559,0.382348,-0.17616800000000002,-0.906948,16.9575,-4.9875,-4.025
928,1624657,0.3782,-0.16811600000000002,-0.909632,14.35,-4.83,-6.0725
929,1624755,0.382592,-0.16201600000000002,-0.912316,12.5125,-4.69,-7.175
930,1624853,0.37990799999999997,-0.133468,-0.9186601000000001,10.5175,-4.165,-7.2975
931,1624951,0.382592,-0.13761600000000002,-0.9128040000000001,9.8525,-4.13,-6.895
932,1625049,0.376004,-0.146156,-0.91012,9.0475,-3.9725,-5.9675
933,1625147,0.370636,-0.15372,-0.9145120999999999,8.2425,-4.2175,-5.5825
934,1625245,0.380884,-0.160552,-0.9186601000000001,6.9125,-4.1475,-5.9325
935,1625343,0.38064000000000003,-0.164456,-0.9152440000000001,5.3725,-4.1475,-6.055
936,1625442,0.377224,-0.162992,-0.9084121,3.745,-4.2875,-5.915
937,1625540,0.36722,-0.149328,-0.90402,3.0275,-4.655,-6.3
938,1625638,0.366,-0.14493599999999998,-0.9067040000000001,2.4675,-4.97,-6.6675
939,1625736,0.367952,-0.148596,-0.9057280999999999,2.835,-5.2675,-6.545
940,1625834,0.35892399999999997,-0.13859200000000002,-0.9120720999999999,2.4325,-5.4425,-6.545
941,1625932,0.366976,-0.14713199999999999,-0.9089001,2.205,-5.845,-6.93
942,1626030,0.36502399999999996,-0.157868,-0.9025559999999999,2.0125,-6.51,-7.1925
943,1626128,0.367464,-0.1647,-0.894748,0.77,-7.14,-7.9625
944,1626226,0.363316,-0.150792,-0.9084121,-0.6825,-8.1025,-8.75
945,1626324,0.371856,-0.163724,-0.902068,-1.1025,-8.9425,-9.52
946,1626422,0.363072,-0.15201199999999998,-0.907192,-2.7125,-9.0125,-9.73
947,1626520,0.368684,-0.16201600000000002,-0.8962120000000001,-4.0775,-9.73,-10.745
948,1626618,0.36502399999999996,-0.166408,-0.903532,-7.4725,-10.815,-11.8125
949,1626716,0.36234,-0.184952,-0.89792,-10.15,-12.6875,-13.1075
950,1626814,0.353068,-0.1586,-0.921832,-12.95,-14.1225,-14.42
951,1626913,0.35892399999999997,-0.164944,-0.913048,-13.1425,-14.175,-15.0325
952,1627011,0.3538,-0.14274,-0.9232961,-12.9325,-13.4925,-16.2925
953,1627109,0.35624,-0.11834000000000001,-0.9208561,-11.235,-12.46,-16.5375
954,1627207,0.35746,-0.11321600000000001,-0.921832,-9.8525,-11.13,-16.31
955,1627305,0.35624,-0.099552,-0.921832,-8.505,-9.8,-15.155
956,1627403,0.35843600000000003,-0.11541199999999999,-0.9203680000000001,-6.86,-8.33,-13.475
957,1627501,0.35672800000000005,-0.10540799999999999,-0.9228081,-5.8625,-6.93,-12.53
958,1627599,0.36234,-0.10052799999999999,-0.9211,-4.48,-5.32,-10.7275
959,1627697,0.373076,-0.10394400000000001,-0.912316,-3.43,-3.5,-9.555
960,1627795,0.36575599999999997,-0.1159,-0.9145120999999999,-2.2925,-1.82,-7.9625
961,1627893,0.35038400000000003,-0.11467999999999999,-0.9262239999999999,-1.2075,-0.0875,-7.0175
962,1627991,0.35624,-0.111996,-0.9296399999999999,-0.4375,1.6975,-6.965
963,1628089,0.359656,-0.126392,-0.9269561,0.035,3.6925,-7.1225
964,1628187,0.36087600000000003,-0.11102000000000001,-0.9291520000000001,0.2625,5.915,-7.63
965,1628285,0.34867600000000004,-0.110044,-0.9354959999999999,0.4375,9.45,-7.6825
966,1628384,0.343064,-0.118828,-0.9511120000000001,0.9625,14.3675,-7.4025
967,1628482,0.29792399999999997,-0.114192,-0.9901521000000001,1.5575,22.0325,-7.0875
968,1628580,0.255712,-0.140544,-1.008208,3.6575,35.4025,-7.6825
969,1628678,0.261324,-0.187148,-0.9967401,5.7925,54.7225,-10.36
970,1628776,0.266448,-0.141032,-1.025776,4.97,77.9975,-15.61
971,1628874,0.237168,-0.077592,-1.086288,2.8525,102.305,-19.0925
972,1628972,0.223748,-0.068564,-1.1775440000000001,1.1725,124.5825,-19.32
973,1629070,0.366244,-0.10492,-1.194624,6.545,144.165,-19.39
974,1629168,0.205448,-0.116388,-1.240008,14.63,172.0775,-19.635
975,1629266,0.09638,-0.155428,-1.264896,22.3125,199.9375,-20.9125
976,1629364,0.21081599999999998,-0.19983599999999999,-1.214632,20.8075,225.33,-28.21
977,1629462,0.306464,-0.279136,-1.20048,21.105,258.37,-45.1675
978,1629560,0.518744,-0.334524,-1.4600959999999998,16.24,295.505,-60.1475
979,1629658,1.051152,-0.35477600000000004,-1.472784,22.19,326.8125,-64.2075
980,1629756,0.6605081,-0.346236,-1.662616,29.4,358.19,-62.3875
981,1629855,0.7283400999999999,-0.43041599999999997,-1.52378,54.985,364.42,-65.0125
982,1629953,1.6328479999999999,-0.559736,-1.005036,61.355,351.2075,-74.235
983,1630051,1.277828,-0.23301999999999998,-1.575996,69.0375,387.1175,-58.0125
984,1630149,0.38356799999999996,-0.020008,-2.724504,74.7075,393.2075,-64.3825
985,1630247,-0.703696,-0.778116,-2.231624,84.35,293.09,-93.66
986,1630345,-0.092964,-1.099708,-2.069852,37.3275,129.3425,-92.33001
987,1630443,-0.7200439999999999,-0.9289081,-1.908812,-40.005,32.13,-57.9775
988,1630541,-0.949892,-0.6954,-1.307352,-64.05,-24.535,-40.6
989,1630639,-0.8608319999999999,-0.583648,-1.316136,-71.085,-48.6675,-27.8775
990,1630737,-0.711016,-0.5631520000000001,-1.453752,-58.835,-75.5475,-13.895
991,1630835,-0.6141479999999999,-0.638548,-1.443748,-43.575,-111.86,-0.1575
992,1630933,-0.516304,-0.623908,-1.380796,-43.3825,-149.625,10.185
993,1631031,-0.40577199999999997,-0.5565640000000001,-1.2883200000000001,-52.36,-184.1525,16.415
994,1631129,-0.27571999999999997,-0.47043199999999996,-1.1956,-58.52,-214.3575,20.895
995,1631227,-0.16201600000000002,-0.394548,-1.128012,-56.1225,-239.225,24.7975
996,1631325,-0.015372,-0.35233600000000004,-1.099708,-44.5375,-258.6675,28.1225
997,1631423,0.17543599999999998,-0.349652,-1.098732,-27.6675,-274.3125,31.535
998,1631521,0.386984,-0.394304,-1.129964,-10.92,-286.93,35.84
999,1631619,0.6058520000000001,-0.4209,-1.170224,-0.2625,-298.0075,40.9325
1000,1631718,0.7832399999999999,-0.42163199999999995,-1.169492,6.65,-306.67,46.655
1001,1631816,0.934276,-0.394304,-1.1087360000000002,10.9025,-311.3075,53.0075
1002,1631914,1.0279719999999999,-0.346724,-0.9674601,14.735,-310.205,58.2225
1003,1632012,1.059204,-0.08344800000000001,-0.781532,19.5125,-298.795,62.86
1004,1632110,1.1087360000000002,0.071248,-0.7388319999999999,33.6,-272.335,62.58
1005,1632208,1.357372,0.184952,-1.125328,52.3425,-237.6675,55.02
1006,1632306,1.73606,0.221308,-1.5318319999999999,73.395,-217.5075,46.5675
1007,1632404,1.9053959999999999,0.22472399999999998,-1.4459440000000001,82.7225,-221.8125,37.5025
1008,1632502,1.917352,0.31354,-0.9813681000000001,67.4275,-228.725,19.5125
1009,1632600,1.88002,0.42065600000000003,-0.493856,42.07,-218.12,-6.79
1010,1632698,1.911984,0.373076,-0.203496,24.4825,-189.63,-32.445
1011,1632796,1.963224,0.20374,-0.071004,14.77,-153.7725,-51.24
1012,1632894,2.039108,0.037332,-0.040016,6.1775,-120.575,-58.6425
1013,1632992,2.144272,-0.06636801,0.01098,4.2525,-91.3325,-53.2
1014,1633090,2.1655,-0.111508,0.12029200000000001,4.305,-69.09,-36.0325
1015,1633188,2.168672,-0.07710399999999999,0.237656,-5.4425,-49.77,-14.56
1016,1633286,2.129632,0.06832001,0.178852,-24.045,-27.8425,5.565
1017,1633385,2.052284,0.242536,0.067832,-39.41,-8.0325,24.08
1018,1633483,1.9351639999999999,0.390888,0.086864,-51.765,1.6975,39.235
1019,1633581,1.77388,0.506544,0.08808401,-66.4125,10.43,48.4925
1020,1633679,1.503528,0.5887720000000001,0.057828,-79.695,18.06,51.4325
1021,1633777,1.5318319999999999,1.000644,0.623908,-84.98,44.765,38.605
1022,1633875,-0.31842,0.502152,-0.726876,-38.64,89.6175,8.0675
1023,1633973,0.039528,0.087352,-2.566636,-29.6975,136.99,-42.5775
1024,1634071,1.759972,-0.457744,-1.9339439999999999,-10.955,134.4,-70.42
1025,1634169,1.8168240000000002,-0.514108,-1.5738,-8.505,104.7025,-20.335
1026,1634267,0.8857200999999999,0.8054439999999999,-1.59576,-85.62751,61.7575,7.91
1027,1634365,0.036356,0.046604,-0.8117880000000001,-15.6275,20.685,-14.4725
1028,1634463,0.461404,-0.10052799999999999,-1.043344,3.0975,25.3225,-18.62
1029,1634561,0.5917,0.048312,-0.9540401,8.61,28.105,-10.85
1030,1634659,0.5514399999999999,-0.193736,-0.9381801,14.2275,17.8325,-3.605
1031,1634757,0.364292,-0.22814,-0.9472079999999999,15.925,9.485,0.5425
1032,1634856,0.38918,-0.168604,-0.9821,8.155,9.59,-3.5525
1033,1634954,0.3965,-0.066124,-0.93696,2.8175,6.79,-5.46
1034,1635052,0.342088,-0.09930800000000001,-0.909632,2.66,4.025,-4.0425
1035,1635150,0.371368,-0.115656,-0.868884,3.955,2.5725,-3.78
1036,1635248,0.384544,-0.077348,-0.9142680000000001,5.005,3.22,-3.605
1037,1635346,0.374784,-0.051484,-0.9442801,8.8725,6.2475,-1.925
1038,1635444,0.34526,0.0061,-0.9638,12.4775,4.76,-0.21
1039,1635542,0.360632,-0.040504000000000005,-0.9520881,16.5725,-0.1225,0.14
1040,1635640,0.3904,-0.05002,-0.9413520000000001,19.355,-1.8025,1.68
1041,1635738,0.40357600000000005,-0.080276,-0.9254921,20.44,-2.765,3.185
1042,1635836,0.373808,-0.102724,-0.9237841,17.9375,-3.325,2.765
1043,1635934,0.40967600000000004,-0.145424,-0.9110959999999999,15.75,-4.55,1.015
1044,1636032,0.393084,-0.198128,-0.8969440000000001,12.7575,-5.81,-2.555
1045,1636130,0.389912,-0.15982000000000002,-0.9032879999999999,8.1725,-6.195,-5.53
1046,1636229,0.386008,-0.12688,-0.9079241,6.685,-6.4925,-7.35
1047,1636327,0.382836,-0.122244,-0.9145120999999999,5.3725,-6.405,-7.945
1048,1636425,0.39918400000000004,-0.105652,-0.917684,3.885,-6.4225,-7.875
1049,1636523,0.387228,-0.12932000000000002,-0.9089001,3.22,-6.6675,-7.63
1050,1636621,0.38186,-0.13151600000000002,-0.9154880999999999,1.68,-6.65,-8.2425
1051,1636719,0.393328,-0.144448,-0.9049959999999999,1.1375,-7.1225,-8.68
1052,1636817,0.388204,-0.141032,-0.9093880999999999,-0.1225,-7.4025,-9.065
1053,1636915,0.383812,-0.12029200000000001,-0.9145120999999999,-1.0325,-7.945,-9.6425
1054,1637013,0.38308000000000003,-0.126636,-0.9189040999999999,-1.365,-8.365,-10.0975
1055,1637111,0.37502800000000003,-0.1281,-0.907436,-0.595,-8.645,-10.4825
1056,1637209,0.3721,-0.134932,-0.9052401,-0.0525,-8.855,-10.605
1057,1637307,0.374784,-0.123464,-0.907192,-0.21,-8.925,-11.2525
1058,1637405,0.378688,-0.12248800000000001,-0.908168,-0.5075,-8.6625,-11.3575
1059,1637503,0.3782,-0.11345999999999999,-0.9110959999999999,-0.8225,-8.19,-11.34
1060,1637601,0.378688,-0.10858,-0.9152440000000001,-0.35,-7.91,-11.0075
1061,1637700,0.381372,-0.111752,-0.9142680000000001,-0.56,-7.7,-10.78
1062,1637798,0.385276,-0.105896,-0.913536,-1.7675,-7.105,-10.605
1063,1637896,0.37332,-0.104432,-0.9150001,-1.505,-7.4025,-10.325
1064,1637994,0.36575599999999997,-0.112728,-0.9115840000000001,-0.385,-8.1375,-10.3075
1065,1638092,0.367708,-0.114192,-0.915732,-0.105,-8.0325,-10.57
1066,1638190,0.37454,-0.101016,-0.9093880999999999,0.35,-7.56,-10.64
1067,1638288,0.381372,-0.104432,-0.9150001,0.7525,-7.1225,-10.4125
1068,1638386,0.380396,-0.10760399999999999,-0.9142680000000001,0.3325,-6.825,-10.1325
1069,1638484,0.369904,-0.101504,-0.9098761000000001,0.315,-6.3875,-10.0625
1070,1638582,0.366,-0.10345599999999999,-0.90646,0.5425,-6.1075,-9.7125
1071,1638680,0.364536,-0.113704,-0.9030440000000001,0.7875,-5.7575,-9.415
1072,1638778,0.364048,-0.121268,-0.9128040000000001,0.805,-5.1275,-9.415
1073,1638876,0.359168,-0.09247601,-0.9259799999999999,1.0325,-4.4275,-9.695
1074,1638974,0.3843,-0.091012,-0.921344,1.96,-3.1325,-9.5025
1075,1639072,0.378444,-0.098088,-0.912316,1.33,-1.365,-8.82
1076,1639171,0.373564,-0.1037,-0.9023121,2.905,-0.525,-7.8225
1077,1639269,0.376492,-0.09906401,-0.9150001,3.85,0.4725,-7.1225
1078,1639367,0.38064000000000003,-0.09052401,-0.9206120000000001,4.9875,2.0475,-6.1425
1079,1639465,0.374784,-0.11712,-0.9167081,6.51,3.6575,-5.7225
1080,1639563,0.37454,-0.116388,-0.92232,6.2125,6.8425,-6.615
1081,1639661,0.363316,-0.107848,-0.9372040999999999,6.0025,11.27,-6.9125
1082,1639759,0.3599,-0.120048,-0.945256,4.76,17.9375,-7.0525
1083,1639857,0.319152,-0.12566,-0.989176,5.4775,26.5125,-7.595
1084,1639955,0.242536,-0.094672,-1.042856,6.0375,41.2825,-8.33
1085,1640053,0.24863600000000002,-0.1769,-1.050176,8.82,64.1375,-9.135
1086,1640151,0.244732,-0.19959200000000002,-1.06994,8.2075,93.4325,-13.5625
1087,1640249,0.239364,-0.098088,-1.1289879999999999,2.4675,123.025,-20.545
1088,1640347,0.25058800000000003,-0.07002799999999999,-1.2153639999999999,3.5875,148.26,-24.535
1089,1640445,0.251076,-0.09223200000000001,-1.272948,13.3,178.01,-25.2525
1090,1640543,0.132004,-0.17812,-1.31516,23.59,212.9925,-27.37
1091,1640641,0.355996,-0.18422,-1.172908,19.74,240.0475,-35.4375
1092,1640739,0.035136,-0.24082800000000001,-1.367132,18.97,287.28,-48.965
1093,1640838,0.625616,-0.34428400000000003,-1.28344,15.1725,322.84,-66.6225
1094,1640936,0.787144,-0.172996,-1.444236,11.27,356.7725,-72.6425
1095,1641034,0.7571321,-0.562664,-1.593564,21.5075,383.915,-65.275
1096,1641132,0.8662001,-0.378688,-1.470344,49.6125,400.6625,-69.59751
1097,1641230,1.152168,-0.336964,-1.40788,59.8675,381.605,-81.81251
1098,1641328,1.743868,-0.414312,-1.915644,80.3775,396.0775,-67.2175
1099,1641426,0.359168,-0.166652,-3.209332,110.775,415.905,-52.885
1100,1641524,-0.67588,-0.9791719999999999,-2.35338,85.4525,288.715,-74.4975
1101,1641622,-0.014152000000000001,-1.081896,-2.156228,26.0575,104.79,-79.485
1102,1641720,-0.510936,-0.7417600000000001,-1.977132,-61.6875,9.6425,-51.24
1103,1641818,-0.8427761,-0.528992,-1.297104,-79.9225,-55.5975,-37.31
1104,1641916,-0.8025161,-0.42212,-1.16266,-79.7475,-77.47251,-32.725
1105,1642014,-0.6263479999999999,-0.400648,-1.278804,-66.29,-95.6025,-27.58
1106,1642112,-0.510692,-0.49166000000000004,-1.292712,-45.2375,-124.005,-19.285
1107,1642210,-0.41113999999999995,-0.5690081,-1.225368,-35.4025,-156.1525,-10.8675
1108,1642308,-0.294752,-0.5565640000000001,-1.1629040000000002,-38.605,-185.675,-3.08
1109,1642406,-0.140544,-0.52094,-1.1211799999999998,-43.33,-211.2425,4.69
1110,1642505,-0.027572000000000003,-0.457744,-1.07482,-45.605,-235.34,12.4775
1111,1642603,0.10736,-0.35526399999999997,-1.038708,-40.3725,-255.745,20.0025
1112,1642701,0.189588,-0.282552,-0.975024,-26.95,-272.055,27.1075
1113,1642799,0.3111,-0.2379,-0.9337880999999999,-12.04,-283.185,31.3425
1114,1642897,0.474092,-0.24082800000000001,-0.936716,1.3475,-288.505,32.865
1115,1642995,0.668316,-0.315492,-0.9933241,13.265,-290.85,35.49
1116,1643093,0.818376,-0.443104,-0.993812,21.455,-292.7225,43.3125
1117,1643191,0.9335440999999999,-0.5551,-0.958432,20.3525,-292.4075,55.895
1118,1643289,1.030168,-0.550952,-0.9028,13.1075,-287.595,73.22
1119,1643387,1.017724,-0.375272,-0.7259001,7.4725,-276.605,93.415
1120,1643485,1.041636,0.01952,-0.700036,5.495,-254.975,105.91
1121,1643583,1.32736,0.43066000000000004,-0.9962521000000001,15.2425,-226.66,100.975
1122,1643681,1.6169879999999999,0.6661201,-1.18828,32.2175,-210.8225,82.67
1123,1643779,1.838784,0.796416,-0.9862479999999999,36.26,-209.9125,50.5225
1124,1643877,1.9959200000000001,0.855708,-0.680516,19.3025,-204.0675,5.25
1125,1643975,2.202344,0.6749041,-0.366244,-0.3325,-188.0725,-43.015
1126,1644074,2.348744,0.37088000000000004,-0.164456,-10.36,-164.0975,-80.78
1127,1644172,2.42536,-0.039772,0.13639600000000002,-2.9925,-135.8875,-96.4425
1128,1644270,2.48148,-0.384788,0.41358,10.535,-105.8225,-86.51999
1129,1644368,2.42292,-0.44334799999999996,0.54168,23.975,-73.15,-54.88
1130,1644466,2.43024,-0.312808,0.486292,30.24,-43.5225,-13.23
1131,1644564,2.4087680000000002,0.010492,0.266204,23.0475,-20.0725,24.78
1132,1644662,2.274568,0.365268,0.19885999999999998,6.8075,-8.2425,50.0675
1133,1644760,2.038864,0.6514800000000001,0.254004,-17.5,-2.0125,57.9775
1134,1644858,1.7992560000000002,0.68686,0.320616,-38.29,9.03,51.24
1135,1644956,1.321992,0.6258600000000001,1.323456,-49.7875,50.715,23.625
1136,1645054,-0.7390760000000001,0.43188000000000004,-1.354444,-32.935,129.115,-9.0125
1137,1645152,2.769156,-1.198528,-6.438184,-51.9225,185.78,-47.18
1138,1645250,0.264496,0.194712,1.2634319999999999,-95.83,74.04251,-55.7375
1139,1645348,2.4146240000000003,1.286124,-3.09758,-16.6075,58.3975,-25.9
1140,1645446,-0.286456,-0.15176800000000001,-0.838628,8.2775,18.34,-8.3825
1141,1645544,0.4941,0.0122,-0.97356,25.1475,30.03,-5.0225
1142,1645642,0.709064,0.165432,-0.906948,19.1625,22.05,0.1925
1143,1645741,0.395524,-0.017812,-0.9464761,25.4275,8.155,12.0925
1144,1645839,0.388204,-0.353312,-0.9564799999999999,28.1925,-5.95,11.7425
1145,1645937,0.37088000000000004,-0.43651599999999996,-0.9384239999999999,20.4225,-8.505,0.49
1146,1646035,0.431392,-0.242536,-0.8866961,4.725,-5.7925,-9.8
1147,1646133,0.43724799999999997,-0.038796,-0.9076799999999999,-4.1125,-6.405,-15.8025
1148,1646231,0.37088000000000004,-0.04514,-0.9247601000000001,-1.9075,-9.555,-12.915
1149,1646329,0.370392,-0.018056,-0.9301280000000001,0.7875,-10.4125,-9.415
1150,1646427,0.37576,-0.020252000000000003,-0.921344,4.2175,-10.4825,-6.5975
1151,1646525,0.352092,-0.06344,-0.9301280000000001,7.175,-9.275,-4.0775
1152,1646623,0.380884,-0.10614000000000001,-0.9247601000000001,8.61,-7.2275,-2.73
1153,1646721,0.386252,-0.128588,-0.917684,7.8575,-6.8775,-2.45
1154,1646819,0.383812,-0.141764,-0.913292,6.3525,-7.0875,-3.15
1155,1646917,0.384788,-0.1342,-0.906948,4.83,-7.5075,-4.5675
1156,1647015,0.377712,-0.128588,-0.915976,3.29,-7.2975,-5.2675
1157,1647113,0.374052,-0.1037,-0.9225639999999999,3.1325,-7.0525,-5.8975
1158,1647211,0.38064000000000003,-0.11760799999999999,-0.9186601000000001,2.5375,-6.4575,-5.88
1159,1647309,0.37332,-0.10809200000000001,-0.9154880999999999,1.4525,-5.6,-5.46
1160,1647407,0.36844,-0.12053599999999999,-0.9140241,1.3125,-5.81,-5.81
1161,1647505,0.374296,-0.1159,-0.9167081,0.6825,-6.0725,-6.3875
1162,1647604,0.37576,-0.122732,-0.912316,0.56,-6.16,-6.8075
1163,1647702,0.36892800000000003,-0.10540799999999999,-0.915976,0.1575,-6.4925,-7.455
1164,1647800,0.36722,-0.11248399999999999,-0.91622,0.6475,-6.8075,-7.7175
1165,1647898,0.363072,-0.09418401,-0.913536,1.4525,-6.9125,-8.12
1166,1647996,0.36648800000000004,-0.114436,-0.9054840000000001,2.2575,-6.9125,-8.12
1167,1648094,0.3599,-0.09320801,-0.915732,2.1525,-6.72,-8.2075
1168,1648192,0.373076,-0.13298,-0.8967,2.8875,-6.5275,-8.5575
1169,1648290,0.357216,-0.138348,-0.9018241,2.31,-6.37,-9.5375
1170,1648388,0.360388,-0.083936,-0.9267120000000001,2.3275,-6.265,-10.85
1171,1648486,0.37332,-0.11736400000000001,-0.8998719999999999,2.2925,-5.7575,-11.1125
1172,1648584,0.366,-0.116876,-0.9079241,2.24,-5.25,-11.3925
1173,1648682,0.371368,-0.04514,-0.9474520000000001,2.485,-4.9175,-11.4275
1174,1648780,0.3965,-0.144204,-0.8762040000000001,2.905,-4.2875,-10.7275
1175,1648878,0.370392,-0.133468,-0.9110959999999999,1.5225,-3.6925,-10.9375
1176,1648976,0.364536,-0.047336,-0.9699,2.2575,-3.5,-10.955
1177,1649074,0.380152,-0.13859200000000002,-0.8752280000000001,1.89,-2.695,-11.165
1178,1649172,0.378444,-0.135664,-0.8945040000000001,0.5775,-1.6975,-12.075
1179,1649270,0.374784,-0.107116,-0.9059721,1.1025,-0.49,-12.4075
1180,1649368,0.379664,-0.10760399999999999,-0.9191481,-0.28,1.4875,-13.5275
1181,1649467,0.375272,-0.09735601,-0.9228081,-0.175,3.045,-13.1425
1182,1649565,0.372344,-0.106628,-0.93086,-0.035,4.935,-12.1275
1183,1649663,0.366976,-0.110044,-0.9345201,-0.6825,8.54,-11.7425
1184,1649761,0.298412,-0.122732,-0.981612,-0.5425,13.5975,-11.6375
1185,1649859,0.33623200000000003,-0.112728,-0.9440360999999999,0.105,21.63,-13.72
1186,1649957,0.33305999999999997,-0.1037,-0.9525761,0.6475,31.08,-14.5075
1187,1650055,0.332572,-0.063684,-0.97234,2.73,41.23,-14.2975
1188,1650153,0.34038,-0.071492,-0.9628241,4.9875,52.045,-13.5975
1189,1650251,0.33428,-0.029524,-0.992348,5.46,63.945,-11.7425
1190,1650349,0.29426399999999997,-0.006587999999999999,-1.080676,7.4025,77.525,-7.77
1191,1650447,0.31476,-0.067344,-1.14802,9.94,98.9975,-2.9925
1192,1650545,0.168604,-0.196176,-1.216828,12.6875,127.7325,-2.4675
1193,1650643,0.2196,-0.231312,-1.166564,9.975,154.875,-8.3125
1194,1650741,0.14518,-0.300852,-1.289296,6.9825,187.95,-23.52
1195,1650839,0.23424,-0.271572,-1.2282959999999998,-4.6375,217.385,-42.5775
1196,1650938,0.149328,-0.29572800000000005,-1.396168,-24.2725,260.5925,-61.39
1197,1651036,0.604144,-0.293044,-1.396412,-40.215,303.94,-81.77750999999999
1198,1651134,0.9974719999999999,-0.412116,-1.583072,-46.9,349.615,-88.39251
1199,1651232,0.612684,-0.274988,-1.8180439999999998,-29.54,389.9,-83.2825
1200,1651330,0.591212,-0.275964,-1.586488,14.2625,403.3575,-75.0575
1201,1651428,1.3590799999999998,-0.367464,-1.091412,50.96,397.6875,-68.6
1202,1651526,1.1228879999999999,-0.271816,-1.855864,68.635,426.58,-52.64
1203,1651624,0.8076399999999999,-0.149572,-2.780624,75.0925,423.885,-56.9275
1204,1651722,-0.698816,-0.363316,-2.89262,99.295,334.075,-77.42
1205,1651820,-0.198372,-1.365668,-2.4439040000000003,88.83,153.3875,-82.67
1206,1651918,-0.8220360000000001,-0.9869800999999999,-2.166476,-0.21,34.4225,-44.17
1207,1652016,-1.029436,-0.640012,-1.362496,-57.26,-31.045,-22.995
1208,1652114,-0.793488,-0.36234,-1.480836,-70.945,-54.8625,-13.3
1209,1652212,-0.60268,-0.401136,-1.647488,-50.3475,-84.84,-2.1175
1210,1652310,-0.506788,-0.544852,-1.597468,-27.9125,-127.12,9.7825
1211,1652408,-0.38966799999999996,-0.552904,-1.502796,-32.4625,-167.0375,17.5525
1212,1652507,-0.193492,-0.43188000000000004,-1.408124,-50.505,-200.6375,20.9125
1213,1652605,0.028304000000000003,-0.283528,-1.27978,-58.4325,-228.8825,22.225
1214,1652703,0.203496,-0.17738800000000002,-1.143872,-52.605,-251.335,21.4025
1215,1652801,0.35282399999999997,-0.17324,-1.010404,-36.855,-266.525,17.465
1216,1652899,0.457988,-0.24131599999999997,-0.9247601000000001,-18.235,-274.575,14.315
1217,1652997,0.568276,-0.269376,-0.8708360999999999,-2.0475,-276.9725,16.5375
1218,1653095,0.685396,-0.225944,-0.8513161,13.2475,-275.1,23.2225
1219,1653193,0.806908,-0.19959200000000002,-0.8669319999999999,28.2975,-271.495,29.4
1220,1653291,0.8964561,-0.22691999999999998,-0.8810841,40.005,-267.75,33.7575
1221,1653389,0.9189040999999999,-0.270352,-0.844972,46.1475,-264.0575,37.625
1222,1653487,0.9408639999999999,-0.29426399999999997,-0.8261841000000001,48.3875,-257.4425,43.5225
1223,1653585,0.9186601000000001,-0.253272,-0.831308,51.59,-248.29,52.0625
1224,1653683,0.9396440999999999,-0.10809200000000001,-0.8701040000000001,56.8575,-237.7025,60.4275
1225,1653781,1.060912,0.1525,-1.012844,67.2175,-227.29,64.155
1226,1653879,1.206092,0.38795999999999997,-1.055544,81.32251,-223.545,58.5375
1227,1653977,1.294664,0.579012,-0.88328,90.49251,-225.1375,42.35
1228,1654075,1.45546,0.759572,-0.7056479999999999,88.13,-220.115,17.115
1229,1654173,1.7158080000000002,0.8491200000000001,-0.636596,79.905,-208.0575,-11.2525
1230,1654272,1.88002,0.763232,-0.5665680000000001,71.435,-195.755,-37.52
1231,1654370,2.20454,0.501908,-0.5016641,56.1925,-185.5875,-58.6775
1232,1654468,2.309216,0.16592,-0.29036,40.635,-174.405,-69.80751
1233,1654566,2.446588,-0.17202,-0.081496,28.07,-160.1775,-64.89
1234,1654664,2.571516,-0.481412,0.21594000000000002,22.3475,-142.345,-43.5225
1235,1654762,2.5756639999999997,-0.657824,0.5702281,21.7,-119.1575,-7.3675
1236,1654860,2.589084,-0.647332,0.8188641,18.795,-85.99501,36.26
1237,1654958,2.605432,-0.445788,0.9189040999999999,9.625,-45.7975,79.2225
1238,1655056,2.549312,-0.11467999999999999,0.9089001,-2.485,-4.375,113.015
1239,1655154,2.501488,0.25742,0.661972,-17.36,36.2775,128.1525
1240,1655252,2.4282880000000002,0.55388,0.353068,-30.8875,65.835,121.3975
1241,1655350,1.009916,0.12566,-0.49776000000000004,-37.87,80.2375,94.09751
1242,1655448,0.132248,-0.196664,-0.378688,-65.9225,95.3225,59.29
1243,1655546,-3.9798839999999998,-0.517768,-4.016483999999999,-107.17,171.0975,14.315
1244,1655644,0.760304,0.6470880999999999,-1.8226799999999999,-101.9025,204.8025,-39.865
1245,1655742,2.8835919999999997,0.156404,-0.578036,-14.455,205.73,-45.5525
1246,1655840,2.747928,2.638372,-4.184356,-215.2325,154.455,14.63
1247,1655939,-0.880352,-0.54778,-0.083936,-31.675,5.6875,-23.0475
1248,1656037,1.0760399999999999,0.08954801,-1.996896,-37.2575,35.56,-16.1875
1249,1656135,0.508252,0.540216,-0.972828,-30.87,19.11,4.0075
1250,1656233,0.483608,-0.22789600000000002,-0.9913719999999999,22.155,-7.7875,14.63
1251,1656331,0.44944799999999996,-0.65758,-0.9232961,26.9325,-10.0275,11.305
1252,1656429,0.38186,-0.41992399999999996,-0.8796200000000001,15.96,-6.5625,-3.815
1253,1656527,0.496296,-0.18446400000000002,-0.8884040000000001,1.295,-6.475,-14.6125
1254,1656625,0.4148,-0.024156,-0.954528,0.9275,-9.415,-15.365
1255,1656723,0.325008,-0.026351999999999997,-0.9711200999999999,3.57,-9.52,-9.1525
1256,1656821,0.392108,-0.049776,-0.9379360000000001,7.175,-6.545,-8.33
1257,1656919,0.380884,-0.024888,-0.9381801,7.7,-5.145,-4.34
1258,1657017,0.361608,-0.109556,-0.9333,11.62,-3.64,-0.385
1259,1657115,0.367464,-0.16592,-0.918416,12.6875,-2.4675,0.35
1260,1657213,0.36234,-0.158844,-0.9098761000000001,11.6025,-1.9425,-0.8225
1261,1657311,0.374784,-0.150792,-0.912316,10.64,-2.87,-2.59
1262,1657409,0.375272,-0.146644,-0.913536,9.975,-2.765,-3.5
1263,1657507,0.373076,-0.133712,-0.915732,9.52,-2.3275,-3.78
1264,1657605,0.378932,-0.126392,-0.91622,9.24,-1.9775,-3.2725
1265,1657703,0.376004,-0.135908,-0.9145120999999999,8.6275,-1.75,-2.59
1266,1657802,0.372344,-0.144448,-0.9140241,7.7,-1.4875,-2.7125
1267,1657900,0.375272,-0.153232,-0.9076799999999999,7.0525,-1.75,-3.535
1268,1657998,0.3782,-0.162504,-0.899384,6.2825,-2.135,-4.5325
1269,1658096,0.36648800000000004,-0.153232,-0.9076799999999999,5.5125,-2.625,-5.425
1270,1658194,0.376004,-0.14469200000000002,-0.906948,5.4075,-3.01,-6.51
1271,1658292,0.378932,-0.129564,-0.903532,4.83,-3.395,-6.65
1272,1658390,0.37746799999999997,-0.132492,-0.903532,4.6725,-4.165,-6.16
1273,1658488,0.370148,-0.12029200000000001,-0.9171961,3.8675,-4.3925,-5.6175
1274,1658586,0.380884,-0.14786400000000002,-0.900848,3.71,-5.2325,-5.495
1275,1658684,0.37576,-0.158844,-0.9023121,2.1,-5.4425,-5.9325
1276,1658782,0.378444,-0.167384,-0.8967,-0.3675,-5.67,-6.8075
1277,1658880,0.38186,-0.16689600000000002,-0.899384,-2.66,-6.9475,-8.54
1278,1658978,0.3782,-0.167384,-0.8866961,-4.3925,-8.6275,-10.395
1279,1659076,0.37502800000000003,-0.17568,-0.8959681,-6.335,-10.08,-12.1625
1280,1659174,0.372832,-0.16104000000000002,-0.903532,-8.4175,-10.9725,-14.5075
1281,1659272,0.380396,-0.158112,-0.9042641,-10.2025,-11.165,-16.7125
1282,1659370,0.36722,-0.154452,-0.91012,-10.92,-11.7775,-18.305
1283,1659469,0.376004,-0.134444,-0.916464,-12.705,-11.095,-19.565
1284,1659567,0.370148,-0.11248399999999999,-0.9298841,-11.7775,-10.29,-19.565
1285,1659665,0.368684,-0.115656,-0.9211,-10.5525,-8.47,-18.725
1286,1659763,0.371368,-0.102724,-0.930372,-9.87,-5.6175,-17.605
1287,1659861,0.370636,-0.113704,-0.9203680000000001,-9.17,-2.6425,-16.5725
1288,1659959,0.38308000000000003,-0.11102000000000001,-0.9237841,-9.1525,0.1925,-16.0475
1289,1660057,0.381616,-0.10931199999999999,-0.9230520000000001,-8.295,3.1325,-15.4
1290,1660155,0.374296,-0.104676,-0.935984,-6.6675,6.755,-14.9625
1291,1660253,0.368684,-0.108824,-0.9315921,-6.335,11.9525,-13.895
1292,1660351,0.343308,-0.09418401,-0.948184,-4.83,18.0425,-12.3375
1293,1660449,0.297192,-0.09150001,-0.9591639999999999,-2.6425,25.62,-10.1325
1294,1660547,0.34281999999999996,-0.083204,-0.9618481,-0.3675,35.315,-8.5925
1295,1660645,0.348188,-0.07344400000000001,-0.9677040000000001,1.89,46.0425,-7.735
1296,1660743,0.32208000000000003,-0.06661201,-0.9845401,3.5175,57.7325,-6.335
1297,1660841,0.30841599999999997,-0.062220000000000004,-1.0187,4.83,68.0575,-4.0075
1298,1660939,0.38308000000000003,-0.06636801,-1.0262639999999998,5.9325,79.7125,-1.855
1299,1661037,0.24644000000000002,-0.05587601,-1.15168,13.37,98.47251,-1.26
1300,1661135,0.30475599999999997,-0.158356,-1.1892559999999999,19.95,119.7175,-2.2225
1301,1661233,0.211548,-0.194956,-1.1812040000000001,23.275,142.4675,-6.755
1302,1661332,0.24570799999999998,-0.133468,-1.173152,17.9025,161.385,-14.35
1303,1661430,0.130052,-0.16714,-1.247572,24.675,193.7425,-22.225
1304,1661528,0.244732,-0.171532,-1.231468,29.4,232.26,-32.3575
1305,1661626,0.006344,-0.15982000000000002,-1.5018200000000002,34.79,276.395,-44.135
1306,1661724,0.9638,-0.183976,-1.3285799999999999,26.6525,309.3475,-50.435
1307,1661822,0.9467200000000001,-0.387716,-1.897832,63.07,382.97,-46.9525
1308,1661920,0.725412,-0.309392,-1.8766040000000002,73.605,424.305,-40.4075
1309,1662018,0.936472,-0.4026,-1.8717240000000002,81.11251,418.6875,-40.53
1310,1662116,2.21552,-0.47165200000000007,-2.05448,82.495,431.1125,-39.3225
1311,1662214,0.8940161,0.09052401,-2.6654560000000003,103.005,488.075,-32.97
1312,1662312,0.139812,0.12468399999999999,-3.27936,121.8,429.7125,-68.915
1313,1662410,0.31842,-0.656116,-2.472452,84.63,218.4875,-105.2275
1314,1662508,-0.42724399999999996,-0.739808,-2.411696,8.0325,83.825,-104.0025
1315,1662606,-0.844484,-0.656848,-1.493768,-25.865,8.2425,-99.6975
1316,1662704,-0.8671761,-0.58316,-1.342976,-61.005,-22.6975,-92.96
1317,1662802,-0.640744,-0.655384,-1.601372,-54.11,-45.7975,-77.7875
1318,1662901,-0.588284,-0.8113001,-1.6479759999999999,-41.2825,-89.3725,-52.535
1319,1662999,-0.604876,-0.844972,-1.494256,-47.6875,-140.9625,-29.085
1320,1663097,-0.57584,-0.694912,-1.353712,-72.59,-185.7275,-13.51
1321,1663195,-0.514596,-0.484584,-1.199016,-90.79,-223.335,-4.34
1322,1663293,-0.434564,-0.29572800000000005,-1.03944,-90.30001,-254.24,1.645
1323,1663391,-0.346968,-0.20788800000000002,-0.912316,-73.29,-277.235,4.0775
1324,1663489,-0.205448,-0.20374,-0.8820601,-49.63,-293.09,4.235
1325,1663587,-0.050263999999999996,-0.227408,-0.9015799999999999,-26.6875,-304.2725,4.0425
1326,1663685,0.11345999999999999,-0.28767600000000004,-0.931348,-8.295,-314.125,4.69
1327,1663783,0.321104,-0.356484,-1.009428,4.0425,-323.33,8.5575
1328,1663881,0.5192319999999999,-0.453596,-1.087752,14.5075,-331.135,17.85
1329,1663979,0.679296,-0.496784,-1.1009280000000001,19.425,-338.5025,33.6175
1330,1664077,0.7998321,-0.478972,-1.0582280000000002,18.025,-342.86,51.6075
1331,1664175,0.844484,-0.39894,-1.0025959999999998,14.7,-340.7425,68.88
1332,1664273,0.9154880999999999,-0.29768,-0.887184,15.1725,-328.615,82.7925
1333,1664371,0.9296399999999999,-0.221552,-0.7227279999999999,17.4475,-307.2475,90.00251
1334,1664469,1.4337440000000001,0.14884,-1.2702639999999998,24.92,-269.36,89.86251
1335,1664567,1.8949040000000001,0.41577600000000003,-1.648952,51.4675,-247.9925,88.76
1336,1664665,2.1228,0.399916,-1.41886,66.15,-251.3,70.4025
1337,1664764,2.31678,0.42163199999999995,-1.131428,43.5225,-245.0,33.67
1338,1664862,2.569808,0.36722,-0.7539600000000001,14.7875,-224.2275,-6.5975
1339,1664960,2.774036,0.129076,-0.30378,1.7675,-197.05,-38.43
1340,1665058,2.939468,-0.14274,0.11028800000000001,0.7175,-162.89,-57.3125
1341,1665156,2.99632,-0.283528,0.397476,12.9675,-124.0225,-58.0125
1342,1665254,3.062932,-0.26766799999999996,0.47092,32.095,-87.0275,-41.895
1343,1665352,2.948252,-0.188612,0.573156,44.9925,-58.4325,-15.89
1344,1665450,2.883836,-0.063928,0.674416,26.075,-32.27,5.915
1345,1665548,2.668872,0.233996,0.748836,-8.575,0.7,16.205
1346,1665646,2.542724,0.37454,0.6368401,-27.755,34.685,16.975
1347,1665744,1.8663560000000001,-0.286456,0.557052,-20.4225,62.9125,11.585
1348,1665842,1.77998,0.26913200000000004,-0.565836,-53.55,104.2475,22.925
1349,1665940,-0.9230520000000001,-0.554124,-1.530368,-36.2775,142.8175,38.8325
1350,1666038,-1.044076,0.763232,-2.959964,-45.745,188.2125,58.135
1351,1666136,1.206092,0.84424,-0.7903161,-24.57,195.965,27.02
1352,1666234,3.2122599999999997,1.19682,-3.2339759999999997,-39.3225,191.31,19.705
1353,1666332,0.3477,1.110932,-0.70028,-118.51,84.10501,-8.925
1354,1666430,0.489708,-0.775676,-1.513044,27.9825,33.425,-20.37
1355,1666528,0.579256,0.395036,-1.089948,-14.21,44.1525,-3.3075
1356,1666627,0.50752,-0.081984,-1.068964,17.885,26.1625,7.0
1357,1666725,0.48726800000000003,-0.5363121,-0.9298841,25.2175,1.68,1.9075
1358,1666823,0.42748800000000003,-0.356484,-0.8788879999999999,11.2175,-4.7075,-7.28
1359,1666921,0.5043479999999999,-0.107116,-0.930616,-0.1225,-6.9825,-14.595
1360,1667019,0.382104,-0.10223600000000001,-0.959408,0.21,-9.9225,-12.845
1361,1667117,0.37698000000000004,-0.098088,-0.9413520000000001,-0.2625,-9.275,-11.2525
1362,1667215,0.39161999999999997,-0.040748,-0.9250040999999999,-1.0325,-8.1375,-10.36
1363,1667313,0.377224,-0.014884,-0.9408639999999999,-0.49,-8.715,-7.595
1364,1667411,0.343552,-0.06466001,-0.952332,1.6625,-8.3475,-4.3925
1365,1667509,0.364048,-0.10516400000000001,-0.9323239999999999,3.57,-7.2975,-4.69
1366,1667607,0.368196,-0.107116,-0.9225639999999999,2.8175,-6.755,-4.585
1367,1667705,0.36502399999999996,-0.112728,-0.9274440999999999,3.08,-6.7725,-4.515
1368,1667803,0.376736,-0.125172,-0.917684,2.7125,-6.7725,-5.25
1369,1667901,0.36478,-0.10004,-0.93086,1.2075,-6.44,-5.4075
1370,1667999,0.365512,-0.122976,-0.9201241,0.91,-6.4575,-5.9675
1371,1668097,0.365512,-0.116876,-0.91622,-0.105,-5.88,-6.0375
1372,1668195,0.36502399999999996,-0.1098,-0.9315921,-0.4375,-5.5475,-5.7225
1373,1668293,0.382348,-0.1098,-0.922076,-0.9975,-5.25,-6.265
1374,1668391,0.367952,-0.11760799999999999,-0.9118280000000001,-1.5925,-5.7575,-6.93
1375,1668489,0.36892800000000003,-0.113704,-0.913536,-2.065,-6.4225,-7.2625
1376,1668587,0.36087600000000003,-0.100284,-0.918416,-2.1525,-7.2275,-8.1375
1377,1668685,0.36575599999999997,-0.098332,-0.9181720999999999,-1.61,-7.63,-9.065
1378,1668783,0.361608,-0.100284,-0.9181720999999999,-1.3825,-7.2975,-8.785
1379,1668882,0.36209600000000003,-0.08906,-0.918416,-1.4175,-6.9475,-8.645
1380,1668980,0.35697199999999996,-0.098576,-0.9174399999999999,-0.7175,-6.9825,-8.7675
1381,1669078,0.35526399999999997,-0.098088,-0.9108521,-0.2275,-7.07,-8.96
1382,1669176,0.35697199999999996,-0.087352,-0.9167081,-0.175,-7.0525,-9.4325
1383,1669274,0.355508,-0.11028800000000001,-0.9154880999999999,0.6125,-7.245,-9.9225
1384,1669372,0.35477600000000004,-0.100772,-0.9079241,0.3675,-7.28,-11.2875
1385,1669470,0.372832,-0.100772,-0.9115840000000001,0.2975,-7.2275,-12.25
1386,1669568,0.346236,-0.10126,-0.9225639999999999,0.14,-7.5775,-12.7225
1387,1669666,0.36575599999999997,-0.091012,-0.9291520000000001,0.3325,-6.895,-13.405
1388,1669764,0.36648800000000004,-0.104432,-0.921588,0.4375,-6.475,-13.51
1389,1669862,0.370392,-0.09882,-0.913292,-0.14,-5.8275,-13.9125
1390,1669960,0.363072,-0.10321199999999998,-0.9103641,-0.4725,-4.97,-14.5425
1391,1670058,0.35868,-0.10492,-0.91622,-0.42,-4.1475,-15.33
1392,1670156,0.340624,-0.11028800000000001,-0.9232961,-0.6825,-2.59,-15.96
1393,1670254,0.376736,-0.10858,-0.9089001,-1.2425,-0.245,-17.2375
1394,1670352,0.36282800000000004,-0.11834000000000001,-0.907192,-1.4175,1.82,-18.165
1395,1670450,0.369904,-0.100284,-0.9232961,-2.0125,3.7625,-19.8625
1396,1670548,0.366,-0.135908,-0.9225639999999999,-1.1025,5.495,-19.8975
1397,1670646,0.350628,-0.13542,-0.9154880999999999,-2.695,9.2225,-19.7575
1398,1670744,0.35868,-0.152988,-0.9203680000000001,-4.2875,14.98,-22.0675
1399,1670842,0.32574000000000003,-0.06661201,-0.981612,-6.6675,23.905,-24.7975
1400,1670941,0.2196,-0.016104,-1.0499319999999999,-6.7025,40.215,-24.955
1401,1671039,0.21008400000000002,-0.12322000000000001,-1.079212,-2.9225,68.6875,-26.2675
1402,1671137,0.241804,-0.09979600000000001,-1.111664,-10.7975,103.6875,-28.6475
1403,1671235,0.300608,-0.0183,-1.1709559999999999,-16.135,135.6425,-34.9825
1404,1671333,0.260348,-0.081984,-1.325164,-13.8075,168.105,-42.9625
1405,1671431,0.244,-0.164456,-1.34932,-9.1525,202.3,-48.4575
1406,1671529,0.10638399999999999,-0.23472800000000002,-1.479128,-13.405,243.145,-58.695
1407,1671627,0.28914,-0.30792800000000004,-1.4757120000000001,-23.0475,280.14,-80.5875
1408,1671725,0.098088,-0.394548,-1.4844959999999998,-45.325,323.3825,-105.07
1409,1671821,0.721264,-0.531188,-1.6567599999999998,-49.7875,357.21,-122.815
1410,1671919,0.8317960999999999,-0.16201600000000002,-1.7812,-25.1475,395.045,-125.125
1411,1672017,0.843508,-0.370392,-1.901248,10.045,406.63,-115.3075
1412,1672115,1.985184,-0.36941599999999997,-1.4010479999999998,40.8975,373.2925,-107.1
1413,1672213,1.277584,-0.2379,-2.75842,63.175,384.44,-85.225
1414,1672311,-0.209108,-0.047092,-2.608604,49.4025,322.3675,-80.2375
1415,1672409,0.27694,-1.2871,-2.35948,66.7625,159.6175,-74.305
1416,1672507,-0.7722600000000001,-1.200236,-1.464244,41.65,36.96,-29.5575
1417,1672606,-1.039928,-0.748104,-0.708088,-18.585,7.91,5.145
1418,1672704,-0.8491200000000001,-0.36087600000000003,-1.004792,-24.3425,13.0375,25.13
1419,1672802,-0.658556,-0.23448400000000003,-1.446432,-0.6475,-0.7175,45.185
1420,1672900,-0.66856,-0.178852,-1.526952,21.9975,-42.4375,57.0325
1421,1672998,-0.745908,-0.101504,-1.40056,20.44,-89.74,56.455
1422,1673096,-0.6895439999999999,0.01586,-1.237568,5.8275,-128.275,47.6
1423,1673194,-0.613416,0.104432,-1.16632,-5.0575,-158.0775,36.9425
1424,1673292,-0.50508,0.126636,-1.100196,-5.215,-187.215,29.225
1425,1673390,-0.41553199999999996,0.09930800000000001,-1.0858,-0.7,-211.785,23.8875
1426,1673488,-0.271572,0.056608000000000006,-1.095316,4.025,-234.045,22.2075
1427,1673586,-0.1281,-0.015372,-1.1263040000000002,6.6325,-253.33,24.675
1428,1673684,0.024644,-0.10394400000000001,-1.1407,5.88,-270.3225,31.605
1429,1673782,0.22033200000000003,-0.141764,-1.170224,4.1825,-283.71,42.4025
1430,1673880,0.378932,-0.172752,-1.20536,2.135,-292.81,55.195
1431,1673978,0.542656,-0.171532,-1.103856,-4.7425,-299.7225,66.3775
1432,1674076,0.628788,-0.1098,-0.9015799999999999,-10.8675,-298.2175,73.97251
1433,1674174,0.818376,-0.0017079999999999999,-0.9860040999999999,-10.57,-279.37,77.0
1434,1674273,1.240984,0.27571999999999997,-1.414224,2.555,-255.29,79.1525
1435,1674371,1.583072,0.41113999999999995,-1.574044,25.3225,-248.4825,76.4925
1436,1674469,1.760216,0.510204,-1.305156,28.945,-251.1775,60.34
1437,1674567,2.0356919999999996,0.61854,-1.005524,14.49,-241.7275,33.1275
1438,1674665,2.3199520000000002,0.5636399999999999,-0.789828,2.135,-217.6475,1.4175
1439,1674763,2.4992919999999996,0.443592,-0.524112,0.385,-188.755,-24.5175
1440,1674861,2.79502,0.165188,-0.178852,4.9875,-164.15,-39.41
1441,1674959,2.960208,-0.065148,0.008052001,4.8825,-138.635,-42.6125
1442,1675057,2.9219,-0.200812,0.23058,1.61,-115.29,-34.3175
1443,1675155,2.724748,-0.22326,0.416264,-3.955,-93.52,-15.2425
1444,1675253,2.538088,-0.162748,0.539484,-13.7725,-69.72,9.275
1445,1675351,2.3541119999999998,-0.061,0.530212,-30.415,-44.2225,29.68
1446,1675449,2.074,0.040748,0.45896400000000004,-48.58,-21.4025,42.2625
1447,1675547,1.6670080000000003,0.55998,0.43651599999999996,-55.3875,-3.0625,47.25
1448,1675645,2.214544,0.509472,0.9586761,2.5025,39.165,40.915
1449,1675743,0.6036560999999999,0.011956,0.33305999999999997,44.5025,108.9025,35.385
1450,1675841,0.5353359999999999,0.059048,-3.153212,33.1975,188.37,27.8425
1451,1675939,3.99306,0.6124400999999999,-4.845596,-39.06,147.175,-8.2425
1452,1676037,-0.627568,-0.12029200000000001,0.44993599999999995,-6.2825,40.9675,-36.05
1453,1676135,0.348432,0.178608,-0.9137799999999999,-25.0075,63.2975,-20.4575
1454,1676234,0.392352,-0.005856,-1.283196,17.71,22.645,-6.5275
1455,1676332,0.593164,0.049776,-0.868152,26.95,25.9525,-4.5675
1456,1676430,0.639524,-0.020496,-0.9337880999999999,27.4575,13.72,0.9975
1457,1676528,0.32452,-0.02684,-1.028216,25.445,1.3125,6.23
1458,1676626,0.383324,-0.22716399999999998,-0.9696561,23.415,-4.7775,1.19
1459,1676724,0.380396,-0.24863600000000002,-0.9320801,17.36,-4.1825,-2.9925
1460,1676822,0.417484,-0.118584,-0.908168,8.68,-3.4475,-7.1575
1461,1676920,0.390156,-0.062464,-0.9186601000000001,4.41,-5.4075,-7.5075
1462,1677018,0.35697199999999996,-0.122244,-0.9291520000000001,4.8475,-7.28,-5.985
1463,1677116,0.366,-0.108824,-0.928176,3.7625,-7.2275,-5.635
1464,1677214,0.370636,-0.098088,-0.9293961,2.3975,-6.8775,-5.46
1465,1677312,0.36112,-0.106628,-0.92232,2.17,-7.0,-5.46
1466,1677410,0.35892399999999997,-0.10736,-0.922076,2.2925,-6.9825,-5.6
1467,1677508,0.36892800000000003,-0.102724,-0.9240280000000001,2.59,-6.895,-5.88
1468,1677606,0.37088000000000004,-0.089792,-0.9228081,2.1875,-6.545,-5.635
1469,1677704,0.372344,-0.110044,-0.9191481,2.2575,-6.3175,-5.0925
1470,1677802,0.35892399999999997,-0.11712,-0.9142680000000001,1.75,-6.37,-5.215
1471,1677901,0.360632,-0.127856,-0.9154880999999999,2.3275,-6.8775,-5.845
1472,1677999,0.365268,-0.123708,-0.9174399999999999,2.0475,-7.1925,-6.825
1473,1678097,0.37088000000000004,-0.11712,-0.9198799999999999,0.9275,-6.825,-7.1925
1474,1678195,0.36941599999999997,-0.1098,-0.9191481,0.035,-6.825,-7.28
1475,1678293,0.366244,-0.104676,-0.9191481,-0.42,-7.035,-7.6825
1476,1678391,0.35843600000000003,-0.110044,-0.9208561,-0.63,-7.035,-7.665
1477,1678489,0.35477600000000004,-0.105896,-0.9150001,-0.735,-6.65,-7.8575
1478,1678587,0.354044,-0.0976,-0.913536,-0.4025,-6.8775,-7.7525
1479,1678685,0.35502,-0.10321199999999998,-0.9125601000000001,0.91,-7.49,-7.84
1480,1678783,0.36112,-0.09735601,-0.9203680000000001,1.505,-7.4025,-7.8925
1481,1678881,0.357704,-0.10809200000000001,-0.9171961,1.785,-7.245,-8.085
1482,1678979,0.354532,-0.11224,-0.9198799999999999,1.785,-6.9825,-8.4
1483,1679077,0.35868,-0.10223600000000001,-0.9186601000000001,1.3825,-6.86,-8.855
1484,1679175,0.354532,-0.105652,-0.9171961,1.05,-6.615,-9.065
1485,1679273,0.35697199999999996,-0.10004,-0.9174399999999999,1.365,-6.72,-9.7125
1486,1679371,0.35526399999999997,-0.105652,-0.9091440000000001,1.5225,-6.8775,-10.2375
1487,1679469,0.360388,-0.101748,-0.9208561,1.575,-7.105,-10.4825
1488,1679568,0.352092,-0.10858,-0.913048,2.24,-7.21,-10.5
1489,1679666,0.354288,-0.11102000000000001,-0.9103641,2.3625,-6.6325,-10.8675
1490,1679764,0.35624,-0.10687200000000001,-0.907436,2.7825,-5.7925,-10.92
1491,1679862,0.35258,-0.08857201,-0.9269561,3.5175,-4.76,-10.745
1492,1679960,0.361852,-0.07490801,-0.9320801,4.025,-3.36,-10.2375
1493,1680058,0.36087600000000003,-0.10492,-0.916464,3.7275,-1.7675,-9.5375
1494,1680156,0.368684,-0.09125599999999999,-0.9113399999999999,3.71,-0.9975,-9.765
1495,1680254,0.363072,-0.107116,-0.9115840000000001,4.3225,-0.7875,-8.8025
1496,1680352,0.37088000000000004,-0.101992,-0.9098761000000001,4.9875,-0.3675,-8.365
1497,1680450,0.366,-0.118828,-0.9174399999999999,5.145,0.8575,-8.5925
1498,1680548,0.36356,-0.099552,-0.9235399999999999,4.585,2.73,-9.03
1499,1680646,0.36844,-0.11712,-0.9325680000000001,5.6175,4.6725,-9.0475
1500,1680744,0.37746799999999997,-0.114924,-0.9272,4.76,7.1225,-9.52
1501,1680842,0.37088000000000004,-0.112972,-0.935008,3.395,10.43,-9.94
1502,1680940,0.34526,-0.117852,-0.936716,2.59,14.8225,-9.975
1503,1681038,0.259372,-0.134932,-0.9618481,2.5375,21.4725,-11.2175
1504,1681136,0.327692,-0.117852,-0.964532,2.5025,30.73,-13.6325
1505,1681234,0.31451599999999996,-0.082472,-0.9950319999999999,3.36,41.9825,-14.7175
1506,1681332,0.29572800000000005,-0.050508,-1.0279719999999999,5.8975,57.75,-13.895
1507,1681430,0.283528,-0.086132,-1.041392,7.3325,77.98,-11.4625
1508,1681528,0.277916,-0.076616,-1.050664,7.8225,97.14251,-10.9725
1509,1681627,0.392108,-0.071492,-1.098976,10.185,113.89,-11.34
1510,1681725,0.399916,-0.07710399999999999,-1.077992,17.57,132.3,-10.2025
1511,1681823,0.205204,-0.07076001,-1.109712,24.85,152.1275,-7.9625
1512,1681921,0.21813600000000002,-0.144448,-1.170468,26.53,168.2625,-8.995
1513,1682019,0.370148,-0.214232,-1.109956,27.475,192.2375,-14.28
1514,1682117,0.19154000000000002,-0.22472399999999998,-1.117032,25.4975,230.475,-26.1975
1515,1682215,0.258396,-0.22252800000000003,-1.212924,12.775,264.81,-42.735
1516,1682313,0.22935999999999998,-0.22643200000000002,-1.366156,-4.2875,300.7025,-56.7525
1517,1682411,0.8396040000000001,-0.331352,-1.460584,-19.6175,320.8275,-62.5625
1518,1682509,1.08092,-0.246196,-1.4835200000000002,-1.2425,369.495,-58.9925
1519,1682607,0.8471681000000001,-0.395768,-1.549156,11.9875,402.255,-46.76
1520,1682705,0.9608721,-0.31402800000000003,-1.568188,26.5475,403.06,-45.01
1521,1682803,2.227476,-0.520208,-1.3834799999999998,31.1325,395.2375,-43.4875
1522,1682901,1.2134120000000002,-0.115656,-2.650816,49.21,442.9425,-31.0275
1523,1682999,0.211548,-0.015372,-3.1232,67.9175,394.625,-44.2925
1524,1683097,-0.038551999999999996,-0.8998719999999999,-2.479772,48.02,220.7975,-70.8575
1525,1683195,-0.162504,-0.576328,-2.496852,-15.8725,74.0075,-69.7025
1526,1683293,-0.49166000000000004,-0.5392399999999999,-1.7448439999999998,-44.7825,-10.395,-56.8575
1527,1683391,-0.7415161,-0.444324,-1.310036,-65.3275,-54.355,-49.28
1528,1683490,-0.680516,-0.404064,-1.270508,-69.3525,-73.9375,-46.7075
1529,1683588,-0.500688,-0.38918,-1.343952,-59.99,-98.8575,-37.4675
1530,1683686,-0.425048,-0.45115600000000006,-1.300032,-43.82,-134.365,-26.32
1531,1683784,-0.396744,-0.48092399999999996,-1.1712,-37.94,-170.765,-17.5175
1532,1683882,-0.359168,-0.43651599999999996,-1.0079639999999999,-43.155,-201.1975,-12.3375
1533,1683980,-0.272304,-0.355752,-0.9147559999999999,-49.4025,-223.4225,-10.115
1534,1684078,-0.14396,-0.288408,-0.8847440999999999,-46.8125,-240.9925,-8.3825
1535,1684176,-0.037088,-0.266936,-0.8786440999999999,-33.5825,-257.39,-5.5475
1536,1684274,0.07588400000000001,-0.266936,-0.900848,-15.8025,-271.9675,-1.085
1537,1684372,0.262544,-0.284748,-0.9501360999999999,1.155,-286.1775,3.9375
1538,1684470,0.41284799999999994,-0.34794400000000003,-0.964532,16.45,-299.6,10.185
1539,1684568,0.57218,-0.406748,-0.9801479999999999,25.4625,-310.3625,18.69
1540,1684666,0.734928,-0.461404,-1.020408,31.3425,-317.5375,30.9925
1541,1684764,0.8866961,-0.55632,-1.0504200000000001,34.6325,-323.05,46.5325
1542,1684862,1.039196,-0.650748,-1.015284,33.0575,-325.57,65.8525
1543,1684960,1.154364,-0.7259001,-0.873276,28.6125,-321.51,88.725
1544,1685058,1.294664,-0.6409881,-0.592188,20.5975,-307.02,113.75
1545,1685156,1.434476,0.188124,-0.7451760000000001,14.07,-273.6825,137.3925
1546,1685254,2.008852,0.73932,-1.186572,35.735,-235.48,131.67
1547,1685353,2.416576,1.159,-1.484008,56.9975,-220.0625,90.125
1548,1685451,2.643984,1.19194,-1.1651,68.18,-229.0575,25.48
1549,1685549,2.615924,1.042368,-0.559736,56.315,-232.3475,-49.735
1550,1685647,2.614704,0.577548,0.018544,42.2975,-213.5175,-114.3275
1551,1685745,2.594208,0.00366,0.43676000000000004,37.8875,-179.6725,-150.92
1552,1685843,2.585424,-0.48068,0.67588,43.6625,-137.5325,-152.2325
1553,1685941,2.472452,-0.6944241,0.757376,54.005,-91.455,-121.4675
1554,1686039,2.454152,-0.594384,0.446276,57.1025,-48.79,-74.305
1555,1686137,2.411696,-0.30402399999999996,0.26913200000000004,53.48,-21.7525,-25.62
1556,1686235,2.1520799999999998,0.09613601,0.21057199999999998,33.5125,-6.44,11.655
1557,1686333,1.9373599999999997,0.42138809999999993,0.117852,3.7625,9.8525,31.99
1558,1686431,1.735328,0.568276,-0.059536,-29.3475,24.78,38.535
1559,1686529,1.511336,0.553148,-0.226188,-58.73,32.2875,37.7825
1560,1686627,0.359168,0.46506400000000003,-0.426756,-88.30501,35.4375,29.8725
1561,1686725,-1.47864,0.624152,-1.710684,-93.66,69.1075,13.5975
1562,1686824,-0.508984,-0.060512,-1.927112,-34.475,125.58,-35.42
1563,1686922,2.908236,-0.7439560000000001,-3.118076,-58.345,171.29,-58.17
1564,1687020,1.3834799999999998,0.733708,-0.6600201,-125.9475,88.13,-8.1375
1565,1687118,0.5504641,1.323456,-2.260904,-46.235,28.98,14.35
1566,1687216,-0.231068,-0.162992,-0.664412,-10.255,11.62,-14.9625
1567,1687314,0.711992,-0.1891,-1.041636,7.21,24.99,-11.725
1568,1687412,0.511424,0.125416,-0.9325680000000001,1.82,18.585,-2.24
1569,1687510,0.38308000000000003,-0.1281,-0.9150001,12.845,8.225,2.905
1570,1687608,0.349896,-0.24570799999999998,-0.9769760000000001,15.26,3.71,3.22
1571,1687706,0.341844,-0.126148,-0.989908,10.045,1.645,-3.22
1572,1687804,0.39967199999999997,-0.10540799999999999,-0.9296399999999999,8.26,-0.595,-7.5075
1573,1687902,0.441884,-0.139324,-0.8913321,7.0,-4.095,-9.31
1574,1688000,0.357216,-0.090768,-0.903532,4.4975,-8.19,-10.395
1575,1688098,0.349408,-0.005368,-0.94306,3.85,-9.9575,-10.0975
1576,1688196,0.34721199999999997,-0.024888,-0.9413520000000001,8.295,-9.275,-6.8075
1577,1688294,0.36502399999999996,-0.025863999999999998,-0.9450120000000001,11.515,-7.5075,-4.0075
1578,1688393,0.355752,-0.050263999999999996,-0.9372040999999999,14.1225,-6.0725,-2.2925
1579,1688491,0.356484,-0.085156,-0.9320801,15.4,-5.705,-1.8025
1580,1688589,0.376736,-0.10394400000000001,-0.9237841,14.98,-5.0925,-1.9775
1581,1688687,0.380396,-0.13298,-0.919392,14.4725,-5.1975,-1.995
1582,1688785,0.371612,-0.13664,-0.913292,12.2675,-5.8625,-2.9225
1583,1688883,0.36502399999999996,-0.114436,-0.922076,10.325,-6.3175,-3.9725
1584,1688981,0.361608,-0.133468,-0.9242720999999999,9.5725,-6.405,-4.725
1585,1689079,0.36575599999999997,-0.10931199999999999,-0.9240280000000001,8.4875,-5.8275,-5.0925
1586,1689177,0.36892800000000003,-0.126636,-0.9142680000000001,8.0325,-5.8275,-5.39
1587,1689275,0.357704,-0.100772,-0.93086,7.315,-6.125,-5.565
1588,1689373,0.37088000000000004,-0.147376,-0.9174399999999999,6.8425,-6.3875,-6.265
1589,1689471,0.36648800000000004,-0.09638,-0.9333,3.57,-5.7225,-6.5975
1590,1689569,0.370148,-0.14469200000000002,-0.9167081,3.3425,-6.51,-6.8075
1591,1689667,0.35624,-0.109556,-0.9152440000000001,1.645,-6.125,-7.2975
1592,1689765,0.357948,-0.114192,-0.9179280000000001,1.8025,-6.265,-7.455
1593,1689863,0.352092,-0.102968,-0.9286639999999999,1.645,-6.1425,-7.4025
1594,1689961,0.363804,-0.12395199999999999,-0.9150001,2.1,-5.88,-7.6475
1595,1690059,0.35160399999999997,-0.09345201,-0.9284200999999999,1.4525,-5.81,-7.84
1596,1690157,0.35672800000000005,-0.12444000000000001,-0.9140241,2.5725,-6.3,-8.19
1597,1690255,0.36502399999999996,-0.11467999999999999,-0.9084121,1.785,-6.265,-8.9425
1598,1690353,0.353556,-0.128588,-0.916464,1.6625,-6.545,-9.0475
1599,1690452,0.358192,-0.09613601,-0.9211,1.61,-6.5275,-9.5375
1600,1690550,0.35892399999999997,-0.119072,-0.9186601000000001,2.1875,-6.44,-8.9075
1601,1690648,0.35282399999999997,-0.09735601,-0.9379360000000001,1.785,-6.3,-9.065
1602,1690746,0.361852,-0.123464,-0.9137799999999999,2.3275,-6.265,-8.925
1603,1690844,0.356484,-0.09320801,-0.915732,1.995,-6.055,-9.4325
1604,1690942,0.357704,-0.139812,-0.900848,2.6425,-6.125,-8.785
1605,1691040,0.369172,-0.0732,-0.9372040999999999,2.4325,-5.6875,-9.24
1606,1691138,0.35868,-0.164944,-0.8954801,3.675,-5.7575,-8.19
1607,1691236,0.34428400000000003,-0.10345599999999999,-0.9442801,1.6975,-4.585,-9.135
1608,1691334,0.363072,-0.10223600000000001,-0.9203680000000001,0.8575,-3.9725,-9.38
1609,1691432,0.36966,-0.160064,-0.8945040000000001,-0.98,-3.2375,-10.8675
1610,1691530,0.35136,-0.10736,-0.9311040999999999,-1.68,-2.4675,-11.6725
1611,1691628,0.350628,-0.081252,-0.957456,-1.015,-1.4525,-11.62
1612,1691726,0.3599,-0.10540799999999999,-0.9296399999999999,-0.7875,-0.3675,-11.865
1613,1691824,0.359412,-0.10809200000000001,-0.9228081,-0.4725,1.96,-11.235
1614,1691922,0.363072,-0.101504,-0.9325680000000001,0.7175,4.375,-10.3425
1615,1692020,0.366244,-0.098576,-0.9345201,1.1025,7.875,-9.87
1616,1692118,0.3538,-0.09125599999999999,-0.942084,0.8225,12.3025,-8.5575
1617,1692216,0.331352,-0.10223600000000001,-0.9618481,3.6225,17.43,-6.7725
1618,1692314,0.30134,-0.11712,-0.9564799999999999,5.4075,25.62,-6.335
1619,1692412,0.315492,-0.09394001,-0.978684,6.7725,36.785,-7.4725
1620,1692511,0.274012,-0.071248,-1.030168,9.5375,52.115,-7.8925
1621,1692609,0.188612,-0.11053199999999999,-1.122156,12.635,76.265,-6.1425
1622,1692707,0.21813600000000002,-0.196664,-1.128744,12.6525,107.03,-7.8575
1623,1692805,0.19739600000000002,-0.17543599999999998,-1.242448,15.75,140.1225,-17.7975
1624,1692903,0.23058,-0.14469200000000002,-1.301984,22.6275,174.23,-27.6675
1625,1693001,0.06954,-0.15738,-1.3832360000000001,23.0475,209.79,-33.11
1626,1693099,0.319152,-0.20496,-1.250256,20.7025,241.885,-39.4625
1627,1693197,-0.104432,-0.192028,-1.43594,21.5425,298.55,-50.645
1628,1693295,0.168604,-0.34038,-1.495232,11.9875,339.885,-71.4525
1629,1693393,0.9703879999999999,-0.312076,-1.435208,1.96,365.75,-86.8
1630,1693491,0.8605879999999999,-0.509228,-1.851472,12.2325,406.21,-77.54251
1631,1693589,0.894748,-0.447008,-1.693116,55.58,431.8475,-70.665
1632,1693687,1.895148,-0.457012,-1.393484,58.38,404.0225,-75.1275
1633,1693785,1.4713200000000002,-0.26718000000000003,-2.273836,68.915,423.43,-53.515
1634,1693883,0.194712,0.012931999999999999,-3.330112,60.41,386.435,-55.2475
1635,1693981,-0.476288,-1.279048,-2.45098,61.8625,214.0425,-84.7525
1636,1694079,-0.50142,-0.5936520000000001,-1.9956759999999998,-17.78,67.6375,-80.4475
1637,1694177,-0.894748,-0.523624,-1.125084,-46.9,6.72,-62.825
1638,1694275,-0.931348,-0.413092,-0.9562360999999999,-57.19,-13.51,-51.9925
1639,1694373,-0.702232,-0.450424,-1.2261,-43.75,-24.9725,-40.5125
1640,1694471,-0.57706,-0.60146,-1.3908,-23.9925,-54.8625,-23.5025
1641,1694570,-0.531676,-0.693692,-1.3473680000000001,-21.6125,-96.3025,-5.915
1642,1694668,-0.474092,-0.62464,-1.220976,-36.9775,-135.3975,8.4875
1643,1694766,-0.369172,-0.500444,-1.103612,-53.375,-167.8775,18.8825
1644,1694864,-0.266448,-0.382836,-1.004792,-58.625,-194.6,26.0925
1645,1694962,-0.154696,-0.311344,-0.9254921,-51.73,-217.5425,31.465
1646,1695060,-0.025131999999999998,-0.2745,-0.9125601000000001,-37.6775,-235.095,35.63
1647,1695158,0.133956,-0.256932,-0.9677040000000001,-22.645,-249.9875,37.835
1648,1695256,0.30988000000000004,-0.25058800000000003,-1.024556,-11.9875,-265.7725,38.255
1649,1695354,0.492392,-0.25498000000000004,-1.0565200000000001,-4.69,-281.4175,37.4675
1650,1695452,0.656116,-0.287432,-1.048224,-0.5775,-295.7675,37.1
1651,1695550,0.8020281,-0.314272,-1.04798,1.0325,-306.25,38.1325
1652,1695648,0.9286639999999999,-0.32452,-0.9989360999999999,3.8675,-312.55,42.315
1653,1695746,0.9972281,-0.21520799999999998,-0.8723001,10.36,-313.32,51.03
1654,1695845,0.9625799999999999,-0.04148,-0.725168,21.84,-303.6075,61.145
1655,1695943,1.083604,0.251076,-0.7381001,30.0125,-281.33,63.63
1656,1696041,1.450092,0.562908,-1.101904,38.01,-253.89,53.9175
