,T,ax,ay,az,gx,gy,gz
0,1535261,0.36722,0.25376,-0.773968,18.9875,-18.235,-16.555
1,1535411,0.39284,0.25522399999999995,-0.8613200000000001,99.155,-121.73,-39.2175
2,1535509,0.40016,0.247416,-0.9030440000000001,70.245,-131.985,43.47
3,1535607,0.399916,0.253272,-0.90036,51.275,-113.5925,-15.2075
4,1535705,0.404796,0.23546,-0.89792,6.7725,-5.0575,-3.3075
5,1535803,0.406504,0.24034,-0.904752,3.7975,-2.415,-3.045
6,1535901,0.407236,0.247416,-0.902068,2.0125,-3.395,-3.325
7,1535999,0.406992,0.243024,-0.9067040000000001,1.2775,-3.5875,-3.2025
8,1536097,0.408456,0.24790399999999999,-0.9120720999999999,0.42,-3.3775,-3.15
9,1536195,0.41236000000000006,0.247416,-0.91622,0.175,-3.78,-3.0275
10,1536293,0.431392,0.26156799999999997,-0.958432,0.525,-6.4925,-3.4125
11,1536391,0.39161999999999997,0.24278000000000002,-0.9098761000000001,2.6075,-7.805,-2.87
12,1536489,0.38552,0.22691999999999998,-0.889624,3.6225,2.7825,-1.715
13,1536588,0.40138,0.25254,-0.8549761,2.135,8.05,-1.5575
14,1536686,0.424072,0.237168,-0.879376,6.475,4.3925,-3.5175
15,1536784,0.417728,0.233996,-0.8657120999999999,4.48,-6.09,-6.8425
16,1536882,0.427976,0.23887600000000003,-0.8476561,4.0775,-14.3325,-7.8925
17,1536980,0.40626,0.23058,-0.8601,2.45,-18.4975,-5.8275
18,1537078,0.393816,0.21276799999999998,-0.8427761,-1.8375,-18.5675,-4.6025
19,1537176,0.370392,0.2501,-0.8801081000000001,-2.8,-14.245,-3.78
20,1537274,0.401624,0.239608,-0.8845,2.135,-6.65,-3.675
21,1537372,0.39771999999999996,0.24326799999999998,-0.8884040000000001,2.03,-6.3175,-3.6925
22,1537470,0.400404,0.24351199999999998,-0.8874280999999999,2.135,-5.9325,-3.6925
23,1537568,0.39894,0.236436,-0.886452,2.24,-5.6,-3.4825
24,1537666,0.39918400000000004,0.23838800000000002,-0.8903561,2.24,-5.25,-3.57
25,1537764,0.39894,0.239608,-0.891576,2.2925,-5.075,-3.6225
26,1537862,0.398208,0.23692399999999997,-0.8903561,2.135,-4.9525,-3.675
27,1537961,0.40016,0.238632,-0.892064,2.0825,-4.7075,-3.7275
28,1538059,0.399916,0.23741199999999998,-0.8893800999999999,2.1,-4.655,-3.8325
29,1538157,0.399916,0.23911999999999997,-0.8918200000000001,1.9775,-4.585,-3.9375
30,1538255,0.399428,0.23911999999999997,-0.8910879999999999,1.96,-4.445,-3.9375
31,1538353,0.39723200000000003,0.24107199999999998,-0.887184,1.995,-4.48,-3.92
32,1538451,0.396012,0.239608,-0.889624,1.8025,-4.48,-3.9375
33,1538549,0.398208,0.23838800000000002,-0.889136,1.8025,-4.4975,-3.955
34,1538647,0.39528,0.238632,-0.889136,1.75,-4.55,-3.99
35,1538745,0.394548,0.240096,-0.8893800999999999,1.645,-4.515,-3.9375
36,1538843,0.396012,0.241804,-0.8901120000000001,1.5925,-4.6725,-3.9725
37,1538941,0.398208,0.24156,-0.8888921000000001,1.6275,-4.62,-3.885
38,1539039,0.39771999999999996,0.24107199999999998,-0.8893800999999999,1.575,-4.7425,-3.78
39,1539137,0.399428,0.23741199999999998,-0.889868,1.5925,-4.7425,-3.675
40,1539236,0.396744,0.239852,-0.8884040000000001,1.4875,-4.6725,-3.675
41,1539334,0.397476,0.238632,-0.8913321,1.4525,-4.62,-3.64
42,1539432,0.395524,0.23887600000000003,-0.887184,1.54,-4.655,-3.7275
43,1539530,0.39771999999999996,0.23911999999999997,-0.8901120000000001,1.4525,-4.585,-3.71
44,1539628,0.39918400000000004,0.23887600000000003,-0.8913321,1.4175,-4.5675,-3.7625
45,1539726,0.398696,0.239608,-0.8908440999999999,1.365,-4.6025,-3.7975
46,1539824,0.399428,0.239852,-0.8913321,1.4,-4.5325,-3.8325
47,1539922,0.400404,0.238144,-0.8906,1.365,-4.585,-3.815
48,1540020,0.39894,0.238632,-0.8906,1.33,-4.5325,-3.7975
49,1540118,0.3965,0.24034,-0.888648,1.2775,-4.515,-3.9025
50,1540216,0.397964,0.23741199999999998,-0.889136,1.2075,-4.4625,-3.9375
51,1540314,0.397964,0.240096,-0.8903561,1.155,-4.4975,-3.955
52,1540413,0.39528,0.242292,-0.8913321,1.1375,-4.445,-3.99
53,1540511,0.3965,0.24082800000000001,-0.8881600000000001,1.12,-4.4625,-3.955
54,1540609,0.39918400000000004,0.23887600000000003,-0.8901120000000001,1.19,-4.4975,-3.8675
55,1540707,0.39528,0.23887600000000003,-0.8874280999999999,1.225,-4.4625,-3.815
56,1540805,0.39918400000000004,0.242048,-0.887916,1.225,-4.48,-3.7625
57,1540903,0.398208,0.242292,-0.8881600000000001,1.2425,-4.515,-3.7975
58,1541001,0.398208,0.239852,-0.888648,1.3125,-4.48,-3.7275
59,1541099,0.397476,0.24131599999999997,-0.888648,1.4175,-4.4975,-3.7625
60,1541197,0.39894,0.242292,-0.885964,1.4525,-4.6375,-3.85
61,1541295,0.398208,0.24326799999999998,-0.889136,1.4875,-4.55,-3.8325
62,1541393,0.397476,0.24351199999999998,-0.889136,1.5225,-4.5325,-3.78
63,1541491,0.394548,0.238632,-0.8884040000000001,1.61,-4.655,-3.64
64,1541589,0.396988,0.242292,-0.885964,1.4875,-4.6725,-3.71
65,1541687,0.398452,0.242536,-0.8849879999999999,1.505,-4.725,-3.6225
66,1541786,0.398452,0.240096,-0.889136,1.6275,-4.83,-3.6225
67,1541884,0.398208,0.24034,-0.889868,1.715,-4.8125,-3.6225
68,1541982,0.398452,0.242048,-0.8876719999999999,1.68,-4.76,-3.71
69,1542080,0.399916,0.240096,-0.889136,1.68,-4.6725,-3.7275
70,1542178,0.396988,0.242048,-0.887916,1.61,-4.585,-3.78
71,1542276,0.39528,0.24058400000000002,-0.8884040000000001,1.5925,-4.655,-3.7625
72,1542374,0.396256,0.23838800000000002,-0.8881600000000001,1.5575,-4.655,-3.7625
73,1542472,0.398452,0.242292,-0.8893800999999999,1.6625,-4.6375,-3.7275
74,1542570,0.399916,0.24131599999999997,-0.8881600000000001,1.5575,-4.5325,-3.7625
75,1542668,0.39723200000000003,0.23887600000000003,-0.8876719999999999,1.645,-4.5325,-3.7975
76,1542766,0.398208,0.243024,-0.889624,1.645,-4.515,-3.885
77,1542864,0.39771999999999996,0.24107199999999998,-0.886452,1.61,-4.48,-3.85
78,1542963,0.395036,0.24058400000000002,-0.8862081,1.61,-4.585,-3.71
79,1543061,0.396256,0.24107199999999998,-0.886452,1.6975,-4.515,-3.71
80,1543159,0.39405999999999997,0.24156,-0.889136,1.75,-4.62,-3.64
81,1543257,0.3965,0.24082800000000001,-0.886452,1.68,-4.6375,-3.6225
82,1543355,0.396744,0.23911999999999997,-0.8881600000000001,1.61,-4.7425,-3.71
83,1543453,0.396988,0.240096,-0.887916,1.6275,-4.7075,-3.745
84,1543551,0.39894,0.23741199999999998,-0.889624,1.575,-4.83,-3.78
85,1543649,0.398452,0.23838800000000002,-0.8888921000000001,1.4525,-4.9,-3.7975
86,1543747,0.393572,0.23887600000000003,-0.887184,1.4,-4.8125,-3.8675
87,1543845,0.393084,0.24082800000000001,-0.888648,1.4,-4.8125,-3.7625
88,1543943,0.397476,0.241804,-0.8866961,1.365,-4.8125,-3.8675
89,1544041,0.397476,0.241804,-0.887916,1.3125,-4.9175,-3.92
90,1544139,0.396988,0.24326799999999998,-0.8869401,1.435,-5.005,-3.9025
91,1544238,0.395768,0.242292,-0.889136,1.365,-4.8825,-3.85
92,1544336,0.39405999999999997,0.240096,-0.8884040000000001,1.3475,-4.8125,-3.7625
93,1544434,0.394304,0.233508,-0.8869401,1.295,-4.7075,-3.78
94,1544532,0.393816,0.24082800000000001,-0.887916,1.0325,-4.725,-3.99
95,1544630,0.392596,0.24131599999999997,-0.889624,0.945,-4.69,-3.885
96,1544728,0.397476,0.239852,-0.8845,0.805,-4.655,-3.92
97,1544826,0.397476,0.24497600000000003,-0.8881600000000001,0.735,-4.55,-3.92
98,1544924,0.39771999999999996,0.24156,-0.8874280999999999,0.7,-4.5675,-3.9025
99,1545022,0.398696,0.24156,-0.8866961,0.8225,-4.4975,-3.9375
100,1545120,0.396012,0.24107199999999998,-0.887184,0.91,-4.3925,-3.7975
101,1545218,0.400648,0.237656,-0.889624,0.945,-4.3575,-3.8675
102,1545317,0.398208,0.242292,-0.8862081,0.9275,-4.2525,-3.9725
103,1545415,0.397476,0.24082800000000001,-0.883524,0.9975,-4.2175,-3.955
104,1545513,0.3965,0.24424400000000002,-0.8874280999999999,0.9975,-4.1825,-4.06
105,1545611,0.396012,0.243756,-0.8881600000000001,1.12,-4.305,-3.9375
106,1545709,0.39771999999999996,0.24351199999999998,-0.887184,1.225,-4.445,-3.8325
107,1545807,0.396988,0.243756,-0.886452,1.295,-4.4975,-3.78
108,1545905,0.393328,0.242292,-0.8857200999999999,1.435,-4.585,-3.71
109,1546003,0.39528,0.24156,-0.8857200999999999,1.435,-4.62,-3.745
110,1546101,0.397964,0.24107199999999998,-0.8862081,1.4875,-4.62,-3.8325
111,1546199,0.39479200000000003,0.242536,-0.887916,1.365,-4.7075,-3.7625
112,1546297,0.394304,0.24034,-0.886452,1.26,-4.7075,-3.815
113,1546395,0.39479200000000003,0.242536,-0.8888921000000001,1.295,-4.69,-3.815
114,1546493,0.393328,0.242292,-0.8852321,1.2425,-4.76,-3.8675
115,1546592,0.39528,0.24082800000000001,-0.885964,1.3125,-4.97,-3.815
116,1546690,0.3965,0.242048,-0.8869401,1.2075,-5.04,-3.78
117,1546788,0.396744,0.245464,-0.8869401,1.3475,-4.935,-3.6925
118,1546886,0.3965,0.24278000000000002,-0.8869401,1.3475,-4.9875,-3.71
119,1546984,0.39723200000000003,0.24326799999999998,-0.8866961,1.2775,-5.005,-3.605
120,1547082,0.393084,0.242292,-0.8888921000000001,1.3475,-5.0225,-3.6225
121,1547180,0.39405999999999997,0.24326799999999998,-0.8881600000000001,1.2075,-5.005,-3.7275
122,1547278,0.391376,0.24082800000000001,-0.891576,1.12,-5.1625,-3.78
123,1547376,0.395524,0.24156,-0.8869401,1.12,-5.0575,-3.745
124,1547474,0.396012,0.244,-0.887916,0.98,-5.04,-3.7275
125,1547572,0.394548,0.243024,-0.887184,0.9975,-5.18,-3.64
126,1547670,0.39528,0.244488,-0.8884040000000001,1.1725,-5.3375,-3.4475
127,1547769,0.396012,0.24278000000000002,-0.885476,1.4,-5.4425,-3.535
128,1547867,0.39479200000000003,0.243024,-0.8869401,1.3825,-5.495,-3.5175
129,1547965,0.396744,0.243024,-0.889136,1.4,-5.425,-3.5
130,1548063,0.398208,0.242048,-0.8869401,1.47,-5.565,-3.6225
131,1548161,0.396744,0.236436,-0.892552,1.19,-5.3375,-3.745
132,1548259,0.39479200000000003,0.243756,-0.8903561,0.8225,-5.1275,-4.0075
133,1548357,0.392596,0.239852,-0.8884040000000001,0.7175,-4.9875,-4.06
134,1548455,0.393084,0.242048,-0.8884040000000001,0.7525,-4.8475,-4.235
135,1548553,0.393328,0.244,-0.8849879999999999,0.805,-4.7075,-4.2525
136,1548651,0.39161999999999997,0.242048,-0.8852321,0.9275,-4.935,-4.2525
137,1548749,0.39161999999999997,0.24107199999999998,-0.887916,0.9625,-4.935,-4.2525
138,1548847,0.3904,0.244,-0.8876719999999999,0.9275,-4.935,-4.27
139,1548946,0.393084,0.24278000000000002,-0.8869401,0.91,-4.97,-4.3225
140,1549044,0.39161999999999997,0.243756,-0.887184,0.9625,-5.0225,-4.3925
141,1549142,0.391864,0.24082800000000001,-0.8884040000000001,0.8400001,-4.935,-4.4625
142,1549240,0.393084,0.241804,-0.8866961,0.875,-4.795,-4.515
143,1549338,0.38795999999999997,0.24107199999999998,-0.8881600000000001,0.8575,-4.9175,-4.3925
144,1549436,0.386496,0.246928,-0.8874280999999999,0.5425,-4.725,-4.4275
145,1549534,0.388692,0.24497600000000003,-0.8869401,0.525,-4.7075,-4.3575
146,1549632,0.392352,0.24668400000000001,-0.8869401,0.455,-4.62,-4.375
147,1549730,0.391376,0.246928,-0.8881600000000001,0.42,-4.585,-4.2525
148,1549828,0.389424,0.249856,-0.8862081,0.5425,-4.7075,-4.235
149,1549926,0.388936,0.249856,-0.8874280999999999,0.5775,-4.8475,-4.0775
150,1550024,0.38918,0.248148,-0.887184,0.6125,-4.62,-3.955
151,1550123,0.394548,0.245464,-0.885964,0.4725,-4.3575,-3.8675
152,1550221,0.397476,0.24278000000000002,-0.8876719999999999,0.5075,-4.1475,-4.0775
153,1550319,0.393572,0.248392,-0.886452,0.35,-4.0075,-4.3225
154,1550417,0.39161999999999997,0.24570799999999998,-0.8840120000000001,0.1575,-3.78,-4.2
155,1550515,0.392596,0.251076,-0.889136,0.035,-3.7275,-4.165
156,1550613,0.394548,0.242536,-0.892552,0.0875,-3.6225,-4.1475
157,1550711,0.39528,0.25058800000000003,-0.8908440999999999,0.1225,-3.7275,-4.2525
158,1550809,0.394304,0.244732,-0.8857200999999999,0.35,-3.4475,-4.1125
159,1550907,0.393328,0.24717199999999998,-0.8866961,0.315,-3.43,-4.0775
160,1551005,0.396012,0.24790399999999999,-0.885476,0.28,-3.3075,-4.305
161,1551103,0.391376,0.246196,-0.8862081,0.28,-3.2375,-4.41
162,1551201,0.393572,0.24351199999999998,-0.885964,0.2975,-3.0975,-4.375
163,1551299,0.396012,0.252052,-0.8842561,0.2975,-3.185,-4.5675
164,1551398,0.4026,0.255956,-0.8893800999999999,0.49,-3.2725,-4.4275
165,1551496,0.39113200000000004,0.258152,-0.8823040000000001,0.5775,-3.5525,-4.2525
166,1551594,0.395036,0.250832,-0.8845,0.7175,-3.5,-3.9025
167,1551692,0.393572,0.24863600000000002,-0.8869401,0.77,-3.5875,-3.6925
168,1551790,0.397964,0.250832,-0.8857200999999999,0.8400001,-3.71,-3.7625
169,1551888,0.39723200000000003,0.245464,-0.8876719999999999,1.015,-3.6925,-3.6575
170,1551986,0.387716,0.24644000000000002,-0.8847440999999999,1.085,-3.6925,-3.78
171,1552084,0.39479200000000003,0.25132,-0.8849879999999999,1.0325,-3.7275,-3.745
172,1552182,0.395524,0.25302800000000003,-0.883036,1.295,-3.955,-3.43
173,1552280,0.39528,0.25132,-0.8857200999999999,1.505,-4.13,-3.3425
174,1552378,0.396012,0.253272,-0.8827921000000001,1.68,-4.3225,-3.2375
175,1552476,0.396012,0.251808,-0.885476,1.9075,-4.515,-3.1675
176,1552575,0.395036,0.249856,-0.8849879999999999,2.0825,-4.795,-3.0975
177,1552673,0.39479200000000003,0.24790399999999999,-0.883768,2.135,-4.97,-3.045
178,1552771,0.395036,0.24912399999999998,-0.8869401,2.17,-5.1275,-3.15
179,1552869,0.393572,0.24570799999999998,-0.8866961,2.205,-5.1625,-3.15
180,1552967,0.396012,0.247416,-0.883524,2.2225,-5.215,-3.29
181,1553065,0.39284,0.24912399999999998,-0.887184,2.135,-5.25,-3.465
182,1553163,0.392352,0.244488,-0.883524,2.0825,-5.2675,-3.535
183,1553261,0.394304,0.245952,-0.8847440999999999,1.995,-5.1625,-3.6925
184,1553359,0.392352,0.244732,-0.88328,1.925,-5.1275,-3.7625
185,1553457,0.393084,0.24717199999999998,-0.8845,1.715,-5.0925,-3.9375
186,1553555,0.39161999999999997,0.24278000000000002,-0.885476,1.5575,-4.795,-3.955
187,1553654,0.39284,0.244488,-0.8866961,1.3825,-4.6375,-4.0425
188,1553752,0.393328,0.24326799999999998,-0.886452,1.33,-4.375,-4.1125
189,1553850,0.391864,0.24912399999999998,-0.8876719999999999,1.19,-4.0425,-4.2175
190,1553948,0.392108,0.248148,-0.8874280999999999,1.3475,-3.885,-4.1825
191,1554046,0.394548,0.25522399999999995,-0.8840120000000001,1.365,-4.025,-4.165
192,1554144,0.394304,0.24863600000000002,-0.8852321,1.6275,-4.34,-4.13
193,1554242,0.393572,0.251564,-0.883768,1.61,-4.515,-4.0075
194,1554340,0.392596,0.248392,-0.8845,1.645,-4.6025,-4.095
195,1554438,0.39161999999999997,0.24912399999999998,-0.8866961,1.645,-4.6025,-4.095
196,1554536,0.396256,0.24790399999999999,-0.8845,1.645,-4.4275,-3.955
197,1554634,0.393084,0.24644000000000002,-0.8842561,1.61,-4.48,-3.99
198,1554733,0.391864,0.248392,-0.8884040000000001,1.4,-4.4975,-4.0775
199,1554831,0.392596,0.24570799999999998,-0.88328,1.47,-4.4625,-4.0425
200,1554929,0.395036,0.247416,-0.8842561,1.5225,-4.41,-4.0075
201,1555027,0.39528,0.24790399999999999,-0.8862081,1.505,-4.48,-4.0075
202,1555125,0.39405999999999997,0.24936799999999998,-0.885964,1.505,-4.4975,-4.095
203,1555223,0.39528,0.248392,-0.8847440999999999,1.505,-4.4975,-4.13
204,1555321,0.396988,0.24888000000000002,-0.8840120000000001,1.505,-4.2875,-4.025
205,1555419,0.394304,0.248148,-0.8847440999999999,1.5575,-4.3575,-4.06
206,1555517,0.393084,0.24863600000000002,-0.8869401,1.505,-4.41,-3.955
207,1555615,0.393084,0.244732,-0.885476,1.4875,-4.3575,-3.9025
208,1555713,0.39405999999999997,0.24717199999999998,-0.8852321,1.4525,-4.3225,-3.9375
209,1555811,0.39284,0.24497600000000003,-0.8847440999999999,1.505,-4.305,-4.025
210,1555910,0.393328,0.249612,-0.885964,1.4525,-4.3925,-4.0775
211,1556008,0.390644,0.250344,-0.8849879999999999,1.4525,-4.48,-4.1475
212,1556106,0.391376,0.24522,-0.8842561,1.5225,-4.515,-4.0075
213,1556204,0.393084,0.24766,-0.8847440999999999,1.2075,-4.3575,-4.0425
214,1556302,0.39284,0.24936799999999998,-0.8852321,1.12,-4.2175,-4.165
215,1556400,0.395036,0.24863600000000002,-0.885964,1.2075,-4.305,-4.0775
216,1556498,0.395768,0.24912399999999998,-0.8852321,1.225,-4.34,-4.2175
217,1556596,0.392596,0.251076,-0.88328,1.295,-4.3925,-4.1825
218,1556694,0.39405999999999997,0.24936799999999998,-0.8857200999999999,1.2775,-4.3575,-3.99
219,1556792,0.394548,0.248392,-0.8847440999999999,1.2775,-4.3925,-3.9725
220,1556890,0.393816,0.24668400000000001,-0.8840120000000001,1.2425,-4.305,-4.0775
221,1556989,0.392108,0.246196,-0.8840120000000001,1.155,-4.2875,-4.2175
222,1557087,0.388692,0.251076,-0.8857200999999999,1.0325,-4.27,-4.2
223,1557185,0.39113200000000004,0.251076,-0.8827921000000001,1.0675,-4.1825,-4.13
224,1557283,0.388936,0.252296,-0.8845,1.05,-4.165,-3.9725
225,1557381,0.39161999999999997,0.24936799999999998,-0.88328,1.12,-4.1475,-3.92
226,1557479,0.39479200000000003,0.252052,-0.883768,1.1375,-4.235,-3.955
227,1557577,0.393328,0.247416,-0.8852321,1.1725,-4.1825,-3.9375
228,1557675,0.393328,0.248392,-0.885476,1.1725,-4.1125,-3.99
229,1557773,0.392352,0.24936799999999998,-0.8862081,1.1025,-4.025,-4.0425
230,1557871,0.39528,0.24888000000000002,-0.8847440999999999,1.015,-3.9025,-3.955
231,1557969,0.39405999999999997,0.249856,-0.8869401,1.1375,-3.8675,-4.0075
232,1558068,0.394548,0.24888000000000002,-0.8852321,1.085,-3.85,-4.0425
233,1558166,0.394304,0.24912399999999998,-0.8852321,1.2075,-3.92,-3.9725
234,1558264,0.393084,0.25132,-0.882548,1.295,-4.165,-3.955
235,1558362,0.39113200000000004,0.249612,-0.8823040000000001,1.295,-4.165,-3.9725
236,1558460,0.39284,0.251076,-0.883768,1.3475,-4.1825,-3.92
237,1558558,0.3965,0.25522399999999995,-0.8845,1.4175,-4.41,-3.745
238,1558656,0.393816,0.251076,-0.8862081,1.645,-4.48,-3.675
239,1558754,0.39284,0.2501,-0.8842561,1.645,-4.5325,-3.7975
240,1558852,0.395768,0.24888000000000002,-0.8845,1.6625,-4.5325,-3.6925
241,1558950,0.392108,0.25132,-0.883768,1.68,-4.55,-3.7625
242,1559048,0.39479200000000003,0.252052,-0.8815719999999999,1.715,-4.55,-3.7625
243,1559146,0.38966799999999996,0.248148,-0.8815719999999999,1.6275,-4.515,-3.7975
244,1559245,0.393572,0.24936799999999998,-0.8847440999999999,1.5575,-4.445,-3.7625
245,1559343,0.395036,0.249856,-0.8842561,1.5925,-4.445,-3.7975
246,1559441,0.39528,0.25302800000000003,-0.8840120000000001,1.645,-4.445,-3.885
247,1559539,0.396012,0.25351599999999996,-0.8823040000000001,1.5925,-4.445,-3.85
248,1559637,0.396988,0.251808,-0.8876719999999999,1.8025,-4.6375,-3.7275
249,1559735,0.395524,0.24863600000000002,-0.8845,1.8725,-4.8475,-3.71
250,1559833,0.39479200000000003,0.24766,-0.8862081,1.575,-4.865,-3.815
251,1559931,0.392108,0.250832,-0.883768,1.3125,-4.83,-3.8675
252,1560029,0.39405999999999997,0.251564,-0.8840120000000001,1.3825,-4.7775,-3.815
253,1560127,0.393084,0.24717199999999998,-0.8852321,1.5225,-4.8475,-3.85
254,1560225,0.395036,0.247416,-0.8847440999999999,1.645,-4.795,-3.92
255,1560323,0.395036,0.25254,-0.88328,1.6975,-4.62,-4.0775
256,1560422,0.393572,0.248148,-0.885964,1.7675,-4.5325,-4.0775
257,1560520,0.391864,0.25058800000000003,-0.8857200999999999,1.715,-4.515,-4.0425
258,1560618,0.39284,0.247416,-0.8827921000000001,1.7325,-4.34,-4.0425
259,1560716,0.392108,0.25058800000000003,-0.8840120000000001,1.6975,-4.1825,-3.99
260,1560814,0.38795999999999997,0.250344,-0.8847440999999999,1.6975,-4.2875,-3.9725
261,1560912,0.38795999999999997,0.25254,-0.8849879999999999,1.6975,-4.27,-3.885
262,1561010,0.388204,0.252296,-0.885476,1.785,-4.3575,-3.78
263,1561108,0.391864,0.250344,-0.8866961,1.75,-4.375,-3.71
264,1561206,0.39284,0.245464,-0.8849879999999999,1.8025,-4.375,-3.71
265,1561304,0.39284,0.247416,-0.8845,1.7325,-4.3575,-3.71
266,1561402,0.389912,0.24863600000000002,-0.882548,1.715,-4.375,-3.6575
267,1561501,0.391376,0.251808,-0.887916,1.785,-4.5325,-3.6225
268,1561599,0.39405999999999997,0.250832,-0.887184,2.1175,-4.3925,-3.4825
269,1561697,0.39284,0.248148,-0.8849879999999999,2.5725,-4.0775,-3.2725
270,1561795,0.395036,0.252784,-0.883768,2.45,-4.375,-3.2375
271,1561893,0.39479200000000003,0.24936799999999998,-0.8847440999999999,2.52,-4.3925,-3.0975
272,1561991,0.39528,0.25058800000000003,-0.8849879999999999,2.2925,-4.4275,-3.1675
273,1562089,0.395768,0.24912399999999998,-0.8842561,2.1875,-4.5325,-3.1325
274,1562187,0.39405999999999997,0.246928,-0.8840120000000001,2.1175,-4.3575,-3.325
275,1562285,0.3904,0.24790399999999999,-0.8876719999999999,1.89,-4.3575,-3.43
276,1562383,0.39284,0.2501,-0.8847440999999999,1.5925,-4.235,-3.465
277,1562481,0.39528,0.247416,-0.8849879999999999,1.435,-4.095,-3.5175
278,1562579,0.395524,0.245952,-0.8842561,1.3125,-4.0775,-3.605
279,1562678,0.394548,0.24790399999999999,-0.883768,1.19,-4.0775,-3.85
280,1562776,0.3965,0.249856,-0.8862081,1.155,-3.92,-3.9025
281,1562874,0.395036,0.251076,-0.8849879999999999,1.225,-3.99,-3.92
282,1562972,0.39528,0.254492,-0.883524,1.365,-4.1125,-3.955
283,1563070,0.395036,0.250832,-0.883524,1.505,-4.2525,-3.9025
284,1563168,0.395524,0.24717199999999998,-0.8847440999999999,1.6275,-4.48,-3.9025
285,1563266,0.395036,0.249856,-0.885964,1.365,-4.48,-3.9725
286,1563364,0.3965,0.24790399999999999,-0.8847440999999999,1.3125,-4.41,-3.92
287,1563462,0.394304,0.249612,-0.885964,1.4175,-4.4625,-4.025
288,1563560,0.3904,0.25132,-0.8842561,1.575,-4.4275,-4.235
289,1563658,0.395036,0.24863600000000002,-0.8852321,1.6975,-4.3575,-4.235
290,1563756,0.393816,0.248392,-0.885476,1.5925,-4.41,-4.095
291,1563855,0.39113200000000004,0.24888000000000002,-0.8820601,1.61,-4.41,-4.1125
292,1563953,0.39161999999999997,0.248392,-0.8847440999999999,1.645,-4.5325,-4.0775
293,1564051,0.390156,0.25302800000000003,-0.8842561,1.715,-4.5325,-3.99
294,1564149,0.39113200000000004,0.250344,-0.8847440999999999,1.8375,-4.655,-3.9375
295,1564247,0.390644,0.251076,-0.8842561,2.0475,-4.725,-3.6925
296,1564345,0.393572,0.246928,-0.8845,2.205,-5.0225,-3.64
297,1564443,0.392108,0.24668400000000001,-0.885964,2.2575,-5.075,-3.6925
298,1564541,0.390888,0.24863600000000002,-0.8857200999999999,2.345,-5.11,-3.6925
299,1564639,0.394304,0.24522,-0.8845,2.3625,-5.0575,-3.745
300,1564737,0.394548,0.24644000000000002,-0.8847440999999999,2.3275,-4.8825,-3.78
301,1564835,0.393816,0.244488,-0.8840120000000001,2.3625,-4.8125,-3.7625
302,1564934,0.39405999999999997,0.242292,-0.8849879999999999,2.2575,-4.725,-3.815
303,1565032,0.392108,0.248148,-0.8845,1.89,-4.48,-3.9375
304,1565130,0.390644,0.24668400000000001,-0.8857200999999999,1.8025,-4.5675,-4.0075
305,1565228,0.39161999999999997,0.24644000000000002,-0.8862081,1.7325,-4.4275,-3.885
306,1565326,0.39113200000000004,0.24936799999999998,-0.8845,1.6975,-4.375,-3.85
307,1565424,0.39161999999999997,0.24570799999999998,-0.8840120000000001,1.7325,-4.3225,-3.885
308,1565522,0.392108,0.244488,-0.88328,1.785,-4.4625,-3.7975
309,1565620,0.393572,0.24570799999999998,-0.8827921000000001,1.8375,-4.375,-3.9725
310,1565718,0.394304,0.248148,-0.883768,1.8725,-4.3925,-4.0075
311,1565816,0.395036,0.24644000000000002,-0.883768,1.8725,-4.34,-3.9725
312,1565914,0.394548,0.24912399999999998,-0.886452,1.8375,-4.3925,-3.92
313,1566012,0.393816,0.24790399999999999,-0.8847440999999999,1.855,-4.4275,-3.955
314,1566111,0.393084,0.247416,-0.8852321,1.7675,-4.3225,-3.9375
315,1566209,0.389912,0.246928,-0.883768,1.715,-4.3575,-3.9725
316,1566307,0.386984,0.246196,-0.8818159999999999,1.6975,-4.4975,-3.99
317,1566405,0.386984,0.24522,-0.8840120000000001,1.6975,-4.5675,-3.8675
318,1566503,0.38918,0.24497600000000003,-0.8866961,1.6275,-4.585,-3.885
319,1566601,0.389424,0.24863600000000002,-0.8862081,1.505,-4.48,-3.99
320,1566699,0.388692,0.244732,-0.887184,1.645,-4.48,-3.92
321,1566797,0.389912,0.251808,-0.883768,1.855,-4.515,-3.85
322,1566895,0.390888,0.24863600000000002,-0.88328,1.9425,-4.5675,-3.5875
323,1566993,0.393084,0.24668400000000001,-0.8818159999999999,1.9425,-4.7075,-3.395
324,1567091,0.392108,0.24497600000000003,-0.8852321,1.9075,-4.8125,-3.2725
325,1567189,0.39405999999999997,0.24863600000000002,-0.8862081,1.7675,-4.725,-3.325
326,1567288,0.394548,0.245952,-0.8845,1.6275,-4.62,-3.36
327,1567386,0.39479200000000003,0.24717199999999998,-0.88328,1.6625,-4.6025,-3.4125
328,1567484,0.390888,0.246928,-0.8866961,1.5925,-4.725,-3.3425
329,1567582,0.393084,0.244488,-0.8849879999999999,1.47,-4.55,-3.3425
330,1567680,0.394304,0.24424400000000002,-0.8869401,1.3825,-4.3925,-3.36
331,1567778,0.395036,0.242536,-0.8862081,1.4175,-4.2875,-3.5525
332,1567876,0.394304,0.244488,-0.8849879999999999,1.225,-4.1825,-3.78
333,1567974,0.396256,0.24766,-0.885476,1.155,-3.9025,-3.85
334,1568072,0.3965,0.24790399999999999,-0.8852321,1.19,-3.99,-3.9025
335,1568170,0.394304,0.24717199999999998,-0.8847440999999999,1.3125,-4.0425,-3.85
336,1568268,0.38966799999999996,0.24717199999999998,-0.8874280999999999,1.295,-4.1475,-3.885
337,1568367,0.392108,0.244488,-0.8847440999999999,1.19,-4.0075,-3.885
338,1568465,0.392108,0.24766,-0.8869401,1.0675,-4.0425,-3.8675
339,1568563,0.393328,0.24522,-0.883768,1.0675,-4.0425,-3.955
340,1568661,0.393816,0.24668400000000001,-0.883524,1.155,-4.06,-4.0075
341,1568759,0.39405999999999997,0.24863600000000002,-0.8857200999999999,1.1375,-4.13,-3.9025
342,1568857,0.393328,0.24863600000000002,-0.886452,1.2075,-4.2525,-3.9375
343,1568955,0.393328,0.2501,-0.8866961,1.3125,-4.4275,-3.955
344,1569054,0.39405999999999997,0.248148,-0.885476,1.4,-4.375,-3.815
345,1569151,0.39479200000000003,0.24522,-0.886452,1.54,-4.48,-3.78
346,1569249,0.394304,0.24790399999999999,-0.8845,1.435,-4.4275,-3.71
347,1569347,0.38966799999999996,0.24912399999999998,-0.8840120000000001,1.435,-4.48,-3.71
348,1569446,0.391864,0.244732,-0.8845,1.5225,-4.62,-3.71
349,1569544,0.392596,0.246928,-0.8862081,1.6275,-4.6725,-3.7975
350,1569642,0.39161999999999997,0.24790399999999999,-0.887184,1.6975,-4.585,-3.885
351,1569740,0.39405999999999997,0.24668400000000001,-0.8849879999999999,1.645,-4.445,-3.9025
352,1569838,0.393816,0.24668400000000001,-0.8857200999999999,1.645,-4.445,-3.955
353,1569936,0.393328,0.24863600000000002,-0.8874280999999999,1.6975,-4.41,-3.9725
354,1570034,0.390888,0.24717199999999998,-0.885964,1.68,-4.3575,-3.85
355,1570132,0.392352,0.243756,-0.88328,1.7675,-4.3575,-3.9025
356,1570230,0.39161999999999997,0.24424400000000002,-0.8852321,1.75,-4.305,-3.92
357,1570328,0.392352,0.244732,-0.8845,1.785,-4.2525,-3.885
358,1570427,0.393328,0.245464,-0.88328,1.75,-4.2175,-4.025
359,1570525,0.39113200000000004,0.245952,-0.8849879999999999,1.645,-4.1825,-4.0075
360,1570623,0.393084,0.246196,-0.883524,1.715,-4.1475,-4.0075
361,1570721,0.390888,0.24570799999999998,-0.885476,1.5925,-4.2525,-3.92
362,1570819,0.38966799999999996,0.244732,-0.8842561,1.505,-4.305,-3.9375
363,1570917,0.388448,0.24717199999999998,-0.8869401,1.3825,-4.2875,-3.9725
364,1571015,0.395524,0.24717199999999998,-0.8842561,1.4525,-4.2875,-3.99
365,1571113,0.393328,0.2501,-0.8849879999999999,1.505,-4.34,-4.025
366,1571211,0.393816,0.24936799999999998,-0.888648,1.575,-4.4275,-4.06
367,1571309,0.392596,0.24570799999999998,-0.8840120000000001,1.6625,-4.3925,-3.955
368,1571407,0.391864,0.244,-0.8845,1.68,-4.3925,-3.92
369,1571505,0.39284,0.245464,-0.8849879999999999,1.6275,-4.3225,-3.9375
370,1571604,0.39405999999999997,0.24790399999999999,-0.885476,1.6975,-4.2875,-3.99
371,1571702,0.39161999999999997,0.24863600000000002,-0.8874280999999999,1.61,-4.2,-4.0075
372,1571800,0.393328,0.24790399999999999,-0.887916,1.6275,-4.2525,-4.0075
373,1571898,0.392596,0.248148,-0.886452,1.6625,-4.4275,-4.0425
374,1571996,0.394304,0.24522,-0.8842561,1.715,-4.3925,-3.85
375,1572094,0.393572,0.248148,-0.8869401,1.7325,-4.375,-3.8325
376,1572192,0.392596,0.245464,-0.8840120000000001,1.8375,-4.445,-3.8325
377,1572290,0.392596,0.248148,-0.8869401,1.8025,-4.4625,-3.78
378,1572388,0.391864,0.246928,-0.885476,1.785,-4.4625,-3.71
379,1572486,0.392596,0.244732,-0.88328,1.68,-4.48,-3.7275
380,1572584,0.39161999999999997,0.24668400000000001,-0.885964,1.68,-4.4625,-3.8325
381,1572683,0.393328,0.245952,-0.885476,1.575,-4.375,-3.85
382,1572781,0.394548,0.24863600000000002,-0.8847440999999999,1.505,-4.2875,-3.8325
383,1572879,0.392352,0.246928,-0.8869401,1.5575,-4.1825,-3.7625
384,1572977,0.394304,0.246928,-0.8849879999999999,1.575,-4.2,-3.7625
385,1573075,0.393328,0.24570799999999998,-0.8840120000000001,1.575,-4.27,-3.675
386,1573173,0.393816,0.246928,-0.8845,1.54,-4.34,-3.71
387,1573271,0.391864,0.24717199999999998,-0.8842561,1.645,-4.4275,-3.6575
388,1573369,0.39113200000000004,0.248148,-0.8866961,1.575,-4.3925,-3.6225
389,1573467,0.392108,0.24497600000000003,-0.8849879999999999,1.61,-4.4275,-3.5875
390,1573565,0.394548,0.247416,-0.8847440999999999,1.61,-4.4275,-3.6925
391,1573663,0.39405999999999997,0.24497600000000003,-0.883768,1.645,-4.55,-3.71
392,1573762,0.392596,0.24766,-0.8869401,1.5925,-4.4275,-3.675
393,1573860,0.394304,0.245952,-0.885476,1.61,-4.3925,-3.675
394,1573958,0.39113200000000004,0.24644000000000002,-0.8857200999999999,1.6275,-4.41,-3.6575
395,1574056,0.392108,0.24644000000000002,-0.8862081,1.5575,-4.305,-3.7975
396,1574154,0.392108,0.245952,-0.8840120000000001,1.54,-4.3225,-3.85
397,1574252,0.393084,0.24424400000000002,-0.8823040000000001,1.505,-4.27,-3.815
398,1574350,0.39284,0.24570799999999998,-0.883524,1.435,-4.375,-3.92
399,1574448,0.390644,0.24717199999999998,-0.885476,1.4175,-4.34,-3.9025
400,1574546,0.39284,0.245464,-0.8842561,1.4175,-4.305,-3.7975
401,1574644,0.393816,0.24766,-0.883036,1.4175,-4.34,-3.7275
402,1574742,0.392108,0.245952,-0.8847440999999999,1.505,-4.515,-3.745
403,1574840,0.390156,0.24766,-0.8862081,1.575,-4.48,-3.6575
404,1574939,0.395036,0.24717199999999998,-0.8847440999999999,1.54,-4.4275,-3.7275
405,1575037,0.393328,0.245464,-0.8827921000000001,1.5925,-4.4275,-3.5875
406,1575135,0.391376,0.24717199999999998,-0.8852321,1.5925,-4.4625,-3.64
407,1575233,0.39161999999999997,0.244732,-0.8842561,1.4875,-4.5325,-3.57
408,1575331,0.393084,0.24644000000000002,-0.8845,1.575,-4.515,-3.4825
409,1575429,0.392352,0.248148,-0.887916,1.575,-4.55,-3.5175
410,1575527,0.396012,0.24790399999999999,-0.8847440999999999,1.645,-4.5675,-3.5
411,1575625,0.393816,0.24497600000000003,-0.883524,1.5575,-4.5675,-3.605
412,1575723,0.392108,0.245464,-0.8842561,1.5925,-4.5325,-3.5525
413,1575821,0.390888,0.247416,-0.8857200999999999,1.5225,-4.5675,-3.57
414,1575919,0.392108,0.24668400000000001,-0.8857200999999999,1.575,-4.585,-3.6575
415,1576017,0.391864,0.24644000000000002,-0.8849879999999999,1.47,-4.5325,-3.605
416,1576115,0.390888,0.244732,-0.8847440999999999,1.4,-4.4975,-3.605
417,1576214,0.392596,0.24351199999999998,-0.8840120000000001,1.33,-4.4975,-3.6925
418,1576312,0.391864,0.24326799999999998,-0.883768,1.295,-4.4275,-3.8675
419,1576410,0.392352,0.24644000000000002,-0.8852321,1.26,-4.3925,-3.885
420,1576508,0.393328,0.244488,-0.8849879999999999,1.26,-4.2875,-3.8675
421,1576606,0.395036,0.24790399999999999,-0.8845,1.26,-4.41,-3.7975
422,1576704,0.394304,0.24497600000000003,-0.885476,1.4,-4.3225,-3.7275
423,1576802,0.395768,0.24717199999999998,-0.8840120000000001,1.4525,-4.34,-3.8675
424,1576900,0.391864,0.246196,-0.885476,1.4175,-4.34,-3.9025
425,1576998,0.391376,0.24766,-0.8845,1.4875,-4.3225,-3.8675
426,1577096,0.393572,0.24668400000000001,-0.885476,1.575,-4.445,-3.8675
427,1577194,0.39405999999999997,0.24766,-0.883524,1.6275,-4.4275,-3.85
428,1577292,0.391864,0.246928,-0.887184,1.6275,-4.445,-3.78
429,1577391,0.395036,0.24717199999999998,-0.8857200999999999,1.645,-4.3925,-3.9025
430,1577489,0.395036,0.248392,-0.8852321,1.6625,-4.3925,-3.9375
431,1577587,0.392596,0.24717199999999998,-0.8866961,1.5925,-4.48,-3.955
432,1577685,0.390888,0.244,-0.883768,1.715,-4.4275,-3.955
433,1577783,0.39405999999999997,0.245952,-0.883524,1.6975,-4.4625,-3.92
434,1577881,0.39161999999999997,0.24668400000000001,-0.8862081,1.6625,-4.375,-3.85
435,1577979,0.39113200000000004,0.24790399999999999,-0.886452,1.61,-4.305,-3.92
436,1578077,0.393084,0.247416,-0.8862081,1.645,-4.3575,-3.955
437,1578175,0.392352,0.247416,-0.8862081,1.68,-4.375,-3.8675
438,1578273,0.39113200000000004,0.247416,-0.8852321,1.6625,-4.515,-3.78
439,1578372,0.39113200000000004,0.24522,-0.8852321,1.6625,-4.515,-3.7275
440,1578470,0.39284,0.248148,-0.8874280999999999,1.575,-4.375,-3.6575
441,1578568,0.393572,0.24668400000000001,-0.8857200999999999,1.5225,-4.375,-3.78
442,1578666,0.39284,0.24522,-0.883768,1.5225,-4.48,-3.85
443,1578764,0.391376,0.245464,-0.8849879999999999,1.61,-4.3925,-3.8675
444,1578862,0.39284,0.24497600000000003,-0.8842561,1.54,-4.3575,-3.815
445,1578960,0.392108,0.246196,-0.8847440999999999,1.505,-4.445,-3.78
446,1579058,0.392352,0.244488,-0.883524,1.5925,-4.4625,-3.6925
447,1579156,0.393084,0.245464,-0.8842561,1.47,-4.3575,-3.7625
448,1579254,0.392108,0.245464,-0.8849879999999999,1.505,-4.445,-3.7625
449,1579352,0.391864,0.243756,-0.88328,1.4875,-4.48,-3.8675
450,1579451,0.39161999999999997,0.242292,-0.8845,1.4875,-4.3925,-3.8675
451,1579549,0.392108,0.244,-0.88328,1.4525,-4.305,-3.955
452,1579647,0.392596,0.243756,-0.8852321,1.4,-4.2525,-4.0425
453,1579745,0.393816,0.246928,-0.8845,1.4175,-4.2525,-4.025
454,1579843,0.394548,0.245464,-0.883524,1.4525,-4.235,-3.955
455,1579941,0.392352,0.24668400000000001,-0.8852321,1.3825,-4.305,-4.095
456,1580039,0.390888,0.246196,-0.8857200999999999,1.435,-4.235,-4.0425
457,1580137,0.394304,0.24522,-0.883036,1.4875,-4.3225,-4.025
458,1580235,0.393084,0.245464,-0.8840120000000001,1.4525,-4.2875,-3.9025
459,1580333,0.39405999999999997,0.246928,-0.883768,1.575,-4.41,-3.78
460,1580431,0.39528,0.248148,-0.8849879999999999,1.6625,-4.41,-3.745
461,1580530,0.393572,0.24156,-0.8842561,1.785,-4.445,-3.8325
462,1580628,0.393816,0.24424400000000002,-0.8847440999999999,1.82,-4.4275,-4.025
463,1580726,0.394304,0.245952,-0.8852321,1.6975,-4.3925,-4.2
464,1580824,0.392596,0.24790399999999999,-0.882548,1.6975,-4.3925,-4.1125
465,1580922,0.391376,0.247416,-0.8862081,1.645,-4.3925,-4.1125
466,1581020,0.388692,0.2501,-0.8849879999999999,1.7675,-4.6025,-4.0775
467,1581118,0.3904,0.242536,-0.882548,1.9425,-4.6725,-3.9025
468,1581216,0.3904,0.242292,-0.883524,1.96,-4.725,-3.85
469,1581314,0.3904,0.24131599999999997,-0.8820601,1.75,-4.62,-4.0075
470,1581412,0.388936,0.24717199999999998,-0.885476,1.6625,-4.515,-4.1125
471,1581510,0.388692,0.24717199999999998,-0.8847440999999999,1.54,-4.69,-4.1125
472,1581609,0.388936,0.2501,-0.8842561,1.5225,-4.585,-4.0425
473,1581707,0.390644,0.248148,-0.8849879999999999,1.4525,-4.6375,-4.0775
474,1581805,0.3904,0.245952,-0.886452,1.47,-4.62,-3.885
475,1581903,0.392352,0.24936799999999998,-0.8840120000000001,1.54,-4.725,-3.9025
476,1582001,0.391864,0.243756,-0.8852321,1.61,-4.865,-3.7275
477,1582099,0.393328,0.245464,-0.882548,1.6625,-4.8475,-3.64
478,1582197,0.39161999999999997,0.24351199999999998,-0.8857200999999999,1.6275,-4.9175,-3.6575
479,1582295,0.39113200000000004,0.24522,-0.8862081,1.575,-4.8825,-3.675
480,1582393,0.39479200000000003,0.24424400000000002,-0.886452,1.4,-4.935,-3.71
481,1582491,0.392596,0.244,-0.883768,1.4,-4.8475,-3.85
482,1582589,0.395768,0.24766,-0.8847440999999999,1.3125,-4.8125,-3.815
483,1582687,0.395768,0.248148,-0.88328,1.33,-4.7075,-3.92
484,1582786,0.394548,0.24497600000000003,-0.885964,1.4,-4.69,-4.06
485,1582884,0.39528,0.242048,-0.885476,1.1375,-4.6025,-4.165
486,1582982,0.393572,0.24058400000000002,-0.888648,0.3675,-4.27,-4.3225
487,1583080,0.39113200000000004,0.246196,-0.887916,-0.0875,-3.9025,-4.6025
488,1583178,0.390644,0.245952,-0.885476,-0.0875,-3.7975,-4.69
489,1583276,0.388204,0.24522,-0.8852321,-0.4025,-3.8675,-4.585
490,1583374,0.38552,0.244732,-0.8869401,-0.3675,-3.92,-4.4975
491,1583472,0.387472,0.24790399999999999,-0.8893800999999999,0.3325,-3.7625,-4.375
492,1583570,0.39161999999999997,0.254492,-0.8852321,1.47,-3.4125,-4.1475
493,1583668,0.3904,0.250344,-0.88328,1.75,-3.5875,-3.885
494,1583766,0.392596,0.254004,-0.883036,1.75,-3.85,-3.85
495,1583864,0.393816,0.2501,-0.8847440999999999,1.925,-4.0075,-3.64
496,1583963,0.39284,0.24766,-0.883768,1.9425,-4.27,-3.4825
497,1584061,0.3904,0.24790399999999999,-0.8823040000000001,1.9775,-4.445,-3.4825
498,1584159,0.386008,0.24912399999999998,-0.886452,2.0825,-4.725,-3.4125
499,1584257,0.384788,0.245464,-0.8842561,2.94,-5.005,-3.2375
500,1584355,0.386496,0.255468,-0.8874280999999999,3.955,-5.1975,-3.045
501,1584453,0.393816,0.2501,-0.8857200999999999,4.3925,-5.32,-2.5375
502,1584551,0.39479200000000003,0.24912399999999998,-0.8840120000000001,4.34,-5.6,-2.415
503,1584649,0.39479200000000003,0.24570799999999998,-0.88328,4.2525,-5.67,-2.45
504,1584747,0.396256,0.24156,-0.8852321,3.92,-5.53,-2.45
505,1584845,0.39723200000000003,0.23692399999999997,-0.8874280999999999,3.395,-5.3375,-2.6775
506,1584943,0.396012,0.242292,-0.8847440999999999,3.0625,-5.0225,-3.08
507,1585041,0.395036,0.23741199999999998,-0.8874280999999999,2.835,-4.7425,-3.3075
508,1585140,0.396988,0.239852,-0.8866961,2.345,-4.375,-3.535
509,1585238,0.396012,0.242048,-0.8866961,1.68,-4.13,-3.7275
510,1585336,0.39161999999999997,0.242536,-0.8845,1.33,-4.0425,-3.92
511,1585434,0.39113200000000004,0.24058400000000002,-0.8876719999999999,1.085,-4.06,-4.0075
512,1585532,0.39479200000000003,0.239364,-0.8857200999999999,1.085,-4.095,-4.1475
513,1585630,0.39479200000000003,0.24156,-0.887184,0.7875,-4.1825,-4.5325
514,1585728,0.39528,0.241804,-0.887184,0.3675,-4.0075,-4.795
515,1585826,0.39405999999999997,0.242048,-0.8876719999999999,-0.175,-3.815,-4.935
516,1585924,0.3965,0.24863600000000002,-0.885964,-1.155,-3.955,-5.0225
517,1586022,0.396012,0.247416,-0.8849879999999999,-1.9075,-4.41,-5.005
518,1586120,0.393572,0.249612,-0.8876719999999999,-2.31,-4.725,-4.9525
519,1586219,0.395524,0.251564,-0.889136,-2.24,-4.655,-4.83
520,1586317,0.396988,0.24936799999999998,-0.887184,-1.8375,-4.6025,-4.76
521,1586415,0.39771999999999996,0.2501,-0.887916,-1.4875,-4.6025,-4.7075
522,1586513,0.39967199999999997,0.25302800000000003,-0.886452,-1.1375,-4.5675,-4.655
523,1586611,0.3965,0.254492,-0.885964,-0.525,-4.62,-4.4625
524,1586709,0.394304,0.25498000000000004,-0.8818159999999999,0.42,-4.9875,-4.1825
525,1586807,0.384788,0.260348,-0.874252,1.1375,-5.32,-3.7625
526,1586905,0.373076,0.250344,-0.88328,1.89,-6.1775,-3.325
527,1587003,0.381128,0.244732,-0.8852321,2.625,-6.3,-3.115
528,1587101,0.38552,0.242292,-0.88328,2.73,-5.915,-3.255
529,1587199,0.386252,0.24570799999999998,-0.883524,2.415,-5.915,-3.465
530,1587298,0.38795999999999997,0.248148,-0.8852321,2.275,-5.9325,-3.64
531,1587396,0.390644,0.248148,-0.8840120000000001,2.3275,-5.5825,-3.57
532,1587494,0.388448,0.244,-0.8847440999999999,2.31,-5.635,-3.57
533,1587592,0.387228,0.24668400000000001,-0.885476,2.24,-5.6525,-3.6925
534,1587690,0.384056,0.24326799999999998,-0.8852321,2.0825,-5.67,-3.71
535,1587788,0.384056,0.244488,-0.883524,1.8025,-5.3375,-3.6575
536,1587886,0.386496,0.24326799999999998,-0.885964,1.5575,-5.32,-3.78
537,1587984,0.386252,0.24351199999999998,-0.8857200999999999,1.5225,-5.2675,-3.675
538,1588082,0.39113200000000004,0.24790399999999999,-0.8869401,1.435,-4.9875,-3.7625
539,1588180,0.389424,0.24790399999999999,-0.8869401,1.4875,-4.9525,-3.7975
540,1588278,0.389424,0.25302800000000003,-0.8857200999999999,1.6275,-5.04,-3.815
541,1588377,0.39113200000000004,0.25058800000000003,-0.8845,1.89,-5.2325,-3.605
542,1588475,0.390156,0.2501,-0.885964,1.89,-5.3375,-3.36
543,1588573,0.391864,0.24570799999999998,-0.889868,1.8725,-5.355,-3.3075
544,1588671,0.389424,0.247416,-0.889624,1.6975,-5.25,-3.395
545,1588769,0.392596,0.24424400000000002,-0.8866961,1.26,-5.215,-3.4475
546,1588867,0.389912,0.24668400000000001,-0.888648,0.8225,-5.425,-3.4475
547,1588965,0.390156,0.246928,-0.887184,0.6125,-5.46,-3.605
548,1589063,0.386984,0.24668400000000001,-0.887184,0.63,-5.3725,-3.7625
549,1589161,0.384544,0.248392,-0.8876719999999999,0.7875,-5.3375,-3.7625
550,1589259,0.389424,0.24790399999999999,-0.886452,0.7875,-5.005,-3.7275
551,1589357,0.386984,0.248148,-0.8842561,0.8225,-4.9525,-3.9025
552,1589456,0.386008,0.246196,-0.885964,0.875,-4.8125,-4.06
553,1589554,0.385276,0.25058800000000003,-0.885964,0.8400001,-4.655,-4.0775
554,1589652,0.385276,0.249612,-0.885964,0.875,-4.62,-4.13
555,1589750,0.386008,0.24790399999999999,-0.8857200999999999,0.9275,-4.6025,-4.1125
556,1589848,0.3843,0.25424800000000003,-0.8862081,1.12,-4.55,-4.06
557,1589946,0.38552,0.248392,-0.888648,1.0675,-4.4275,-3.9375
558,1590044,0.383812,0.2501,-0.8820601,1.1375,-4.4625,-3.9375
559,1590142,0.382348,0.24497600000000003,-0.8852321,1.225,-4.655,-3.8325
560,1590240,0.385276,0.244732,-0.886452,1.2425,-4.6375,-3.78
561,1590338,0.38552,0.248392,-0.8869401,1.365,-4.48,-3.815
562,1590436,0.38552,0.248148,-0.8884040000000001,1.3475,-4.48,-3.85
563,1590535,0.38918,0.249856,-0.8862081,1.2425,-4.2875,-3.7275
564,1590633,0.38674000000000003,0.24497600000000003,-0.8869401,1.5575,-4.4275,-3.5875
565,1590731,0.386252,0.24888000000000002,-0.8842561,1.6975,-4.5325,-3.71
566,1590829,0.3904,0.251564,-0.8857200999999999,1.855,-4.375,-3.7275
567,1590927,0.380396,0.238144,-0.8910879999999999,2.1175,-4.4275,-3.99
568,1591025,0.398208,0.239852,-0.8796200000000001,1.645,-4.48,-3.6575
569,1591123,0.387716,0.255956,-0.8962120000000001,1.9075,-4.2175,-3.64
570,1591221,0.39113200000000004,0.23887600000000003,-0.889868,1.68,-4.2525,-3.325
571,1591319,0.385276,0.25058800000000003,-0.8913321,1.365,-3.8325,-3.395
572,1591417,0.384788,0.246928,-0.886452,1.2775,-3.675,-3.2375
573,1591516,0.40016,0.246928,-0.883036,0.9975,-2.975,-3.15
574,1591614,0.39479200000000003,0.243756,-0.8908440999999999,0.6825,-2.59,-3.255
575,1591712,0.396988,0.233752,-0.889624,0.28,-1.8375,-3.4475
576,1591810,0.390888,0.24863600000000002,-0.8906,-0.14,-1.19,-3.4825
577,1591908,0.39161999999999997,0.246196,-0.8935280999999999,-0.3675,-0.21,-3.3075
578,1592006,0.385276,0.233264,-0.8857200999999999,-0.7175,0.4375,-3.5875
579,1592104,0.395768,0.23838800000000002,-0.892308,-1.505,1.5925,-3.325
580,1592202,0.39405999999999997,0.248148,-0.8884040000000001,-1.96,2.38,-3.2725
581,1592300,0.38503200000000004,0.23472800000000002,-0.893284,-2.8875,3.4825,-3.045
582,1592398,0.38064000000000003,0.236192,-0.90036,-4.2875,5.6525,-3.185
583,1592496,0.33818400000000004,0.284016,-0.906216,-6.4575,9.625,-3.7275
584,1592595,0.367464,0.271084,-0.898408,-8.645,15.3475,-1.9775
585,1592693,0.378688,0.30402399999999996,-0.895236,-11.655,22.6625,2.0825
586,1592791,0.3965,0.2196,-0.90402,-11.5325,28.9625,6.58
587,1592889,0.399916,0.197884,-0.903532,-12.2325,34.055,5.6875
588,1592987,0.406992,0.22691999999999998,-0.8964561,-11.97,37.6425,3.1325
589,1593085,0.40528400000000003,0.21057199999999998,-0.9023121,-10.0975,42.4725,1.575
590,1593183,0.416508,0.22472399999999998,-0.887916,-7.5075,45.64,0.7175
591,1593281,0.47092,0.30256,-0.8547319999999999,-3.78,50.0675,0.2275
592,1593379,0.43334399999999995,0.25742,-0.8708360999999999,-5.95,53.2175,-1.3475
593,1593477,0.460916,0.29158,-0.8625401,-5.3025,55.265,-0.6475
594,1593575,0.449204,0.266692,-0.8669319999999999,-4.3575,57.5925,0.175
595,1593674,0.42333999999999994,0.264252,-0.887184,-1.715,60.41,1.0675
596,1593772,0.42553599999999997,0.271572,-0.8552200000000001,1.3125,63.455,4.1825
597,1593870,0.568276,0.360632,-0.85034,2.415,70.385,6.4225
598,1593968,0.4209,0.26303200000000004,-0.8815719999999999,-4.8825,79.31,9.52
599,1594066,0.523624,0.323056,-0.858392,-2.625,88.2175,14.9625
600,1594164,0.400892,0.24790399999999999,-0.8718120999999999,-2.9225,100.6775,18.55
601,1594262,0.489464,0.253272,-0.9001161,0.9625,114.38,20.8425
602,1594360,0.45335200000000003,0.264252,-0.8998719999999999,5.18,131.11,22.89
603,1594458,0.57218,0.310856,-0.892064,10.43,150.2025,24.9725
604,1594556,0.684664,0.326472,-0.8637601,13.37,174.72,31.255
605,1594654,0.6414761,0.325984,-0.957944,10.045,204.1025,41.405
606,1594753,0.694912,0.304512,-1.043588,13.685,229.3725,48.125
607,1594851,0.74054,0.266448,-1.133868,21.0,246.96,49.3675
608,1594949,0.782508,0.268156,-1.1514360000000001,18.3575,249.4625,39.165
609,1595047,0.8549761,0.24790399999999999,-1.097024,8.4525,235.1825,25.34
610,1595145,0.8698601,0.187392,-1.047004,10.4825,218.785,12.11
611,1595243,0.9376921,0.101504,-0.9850280999999999,14.9975,209.1075,-0.175
612,1595341,0.809836,0.185928,-1.33102,21.0525,192.7275,0.945
613,1595439,0.37576,-0.00244,-1.943948,2.8,152.53,-2.4325
614,1595537,0.11736400000000001,-0.23668000000000003,-1.7165400000000002,1.2775,82.6,-21.455
615,1595635,0.51484,0.678808,-1.890268,21.385,39.8125,-24.745
616,1595734,-0.334524,0.16714,-1.7514319999999999,31.2375,12.0925,26.4425
617,1595832,-0.516304,0.366976,-1.38226,35.1575,-11.655,32.305
618,1595930,-0.534848,0.4743361,-1.39324,47.495,-26.39,26.425
619,1596028,-0.476288,0.46945600000000004,-1.519876,55.5975,-40.565,24.22
620,1596126,-0.44237200000000004,0.47458,-1.550132,56.49,-68.0225,12.355
621,1596224,-0.42285200000000006,0.44408000000000003,-1.4654639999999999,52.7975,-100.59,-0.875
622,1596322,-0.370636,0.411628,-1.358104,48.475,-130.2175,-12.6875
623,1596420,-0.28304,0.367708,-1.284416,45.85,-154.455,-21.5425
624,1596518,-0.166652,0.31964000000000004,-1.256356,42.9275,-175.175,-28.315
625,1596616,-0.05246,0.270596,-1.2139,39.4975,-194.53,-33.81
626,1596715,0.04392,0.24131599999999997,-1.162172,35.9975,-212.205,-37.5375
627,1596813,0.145424,0.232776,-1.109712,32.97,-226.1525,-40.0225
628,1596911,0.25424800000000003,0.287432,-1.102148,30.8875,-236.355,-42.8225
629,1597009,0.360388,0.343552,-1.080676,32.4625,-241.1675,-46.4275
630,1597107,0.463844,0.423584,-1.057252,35.5075,-242.515,-52.395
631,1597205,0.5343600000000001,0.3965,-0.9333,40.0925,-238.6475,-60.025
632,1597303,0.605364,0.149816,-0.7324881,39.515,-227.2375,-67.375
633,1597401,0.803736,-0.06075601,-0.803492,27.09,-206.01,-68.4425
634,1597499,1.0828719999999998,-0.132248,-1.110688,10.57,-185.4475,-57.4
635,1597597,1.186572,-0.1525,-1.2038959999999999,-1.3125,-179.1125,-38.675
636,1597696,1.1934040000000001,-0.126636,-1.010404,-4.795,-178.675,-15.5225
637,1597794,1.169492,-0.10809200000000001,-0.7468840999999999,-7.0525,-165.795,13.7375
638,1597892,1.1773,0.01708,-0.580476,-16.1,-144.2175,37.38
639,1597990,1.26148,0.254004,-0.581208,-32.585,-119.5775,49.6475
640,1598088,1.349808,0.47213999999999995,-0.663192,-50.4875,-98.945,50.4
641,1598186,1.409832,0.689056,-0.746396,-63.07,-88.55,39.6025
642,1598284,1.503528,0.706624,-0.720776,-64.365,-83.86001,23.9575
643,1598382,1.541592,0.696376,-0.625616,-63.1925,-79.6075,8.6625
644,1598480,1.617964,0.608536,-0.5565640000000001,-56.63,-75.4425,-6.755
645,1598578,1.719468,0.5099600000000001,-0.5309441,-49.3325,-72.4675,-18.83
646,1598677,1.796084,0.385276,-0.57218,-40.5125,-73.09751,-25.7775
647,1598775,1.72508,0.24717199999999998,-0.43236800000000003,-29.225,-81.725,-28.0
648,1598873,1.58356,0.09589201,-0.09784401,-19.4775,-86.3625,-25.8475
649,1598971,1.491084,0.029524,0.126392,-18.2875,-77.63,-20.72
650,1599069,1.440332,0.07588400000000001,0.191296,-22.155,-59.2725,-15.925
651,1599167,1.40178,0.205936,0.108824,-26.2325,-38.2025,-13.7025
652,1599265,1.3644479999999999,0.31158800000000003,0.011956,-25.585,-20.3175,-16.555
653,1599363,1.246108,0.336964,0.030012,-19.215,-5.495,-23.38
654,1599461,1.151192,0.305732,0.043432,-12.7225,11.2875,-31.255
655,1599559,1.11752,0.29133600000000004,-0.07344400000000001,-9.73,29.4875,-39.7425
656,1599658,1.063108,0.27205999999999997,-0.19764,-8.75,42.07,-49.035
657,1599756,0.74542,0.528016,-0.6675840000000001,-3.36,50.61,-58.3275
658,1599854,1.0208959999999998,0.19642,-0.7712840999999999,37.0125,68.355,-63.6825
659,1599952,-0.33061999999999997,1.525244,-2.664968,30.3975,60.0075,-74.9525
660,1600050,0.66856,-0.5292359999999999,-1.719224,220.22,58.8875,-86.17
661,1600148,-0.3843,-1.7409400000000002,-1.9532200000000002,107.555,47.11,49.84
662,1600246,-0.195688,0.777384,-0.7549359999999999,9.45,17.675,74.445
663,1600344,1.299056,1.089948,-1.3886040000000002,40.74,56.2975,31.0275
664,1600442,0.9208561,-0.9250040999999999,-1.01016,77.6125,62.3875,15.33
665,1600540,0.5214281,-0.383812,-0.9598959999999999,8.8025,18.375,3.9725
666,1600638,0.528504,0.313784,-0.9730721,-14.07,-7.1925,-8.61
667,1600737,0.401868,-0.163968,-0.9179280000000001,-7.8925,-0.5425,-14.4025
668,1600835,0.237168,0.043432,-0.9464761,-14.0875,-3.4125,-23.17
669,1600933,0.285968,0.5016641,-0.946232,-18.445,-1.47,-26.285
670,1601031,0.441396,0.56852,-0.8901120000000001,-7.8225,2.9925,-15.68
671,1601129,0.330864,0.26766799999999996,-0.9054840000000001,2.1175,-1.015,1.54
672,1601227,0.323788,0.155428,-0.913292,1.3475,-6.1425,8.4525
673,1601325,0.390888,0.19154000000000002,-0.9093880999999999,-2.38,-2.7825,2.5025
674,1601423,0.348432,0.161772,-0.9237841,-4.1475,-4.97,0.5425
675,1601521,0.354288,0.166408,-0.9206120000000001,-6.6675,-3.85,-1.26
676,1601619,0.366244,0.199348,-0.9174399999999999,-7.91,-1.4175,-4.55
677,1601718,0.370392,0.24034,-0.9106081,-8.225,-4.4275,-5.9325
678,1601816,0.361852,0.22448,-0.9125601000000001,-7.8575,-5.0225,-5.4075
679,1601914,0.361608,0.221308,-0.9120720999999999,-7.5425,-5.04,-5.1275
680,1602012,0.371612,0.22691999999999998,-0.9093880999999999,-7.175,-4.865,-5.74
681,1602110,0.368196,0.22716399999999998,-0.9115840000000001,-6.5975,-5.8975,-6.09
682,1602208,0.361608,0.22789600000000002,-0.9091440000000001,-5.9325,-5.9325,-6.615
683,1602306,0.35892399999999997,0.254736,-0.9079241,-5.985,-5.7925,-7.3325
684,1602404,0.35868,0.24888000000000002,-0.908168,-6.02,-5.8275,-7.56
685,1602502,0.352092,0.24497600000000003,-0.9093880999999999,-6.37,-5.985,-7.0175
686,1602600,0.34794400000000003,0.242536,-0.9059721,-6.335,-5.81,-6.5975
687,1602699,0.35868,0.236436,-0.9110959999999999,-6.6675,-5.2675,-6.6675
688,1602797,0.351116,0.238144,-0.9108521,-6.5625,-5.005,-6.615
689,1602895,0.35258,0.24497600000000003,-0.90402,-6.335,-4.76,-6.615
690,1602993,0.35258,0.254004,-0.9093880999999999,-6.02,-4.515,-6.2125
691,1603091,0.34257600000000005,0.24278000000000002,-0.902068,-5.1975,-5.1975,-5.5825
692,1603189,0.342088,0.26303200000000004,-0.907436,-4.795,-5.4425,-5.5125
693,1603287,0.34038,0.25864000000000004,-0.8998719999999999,-4.2,-6.3525,-5.1975
694,1603385,0.345504,0.262056,-0.9052401,-3.4475,-6.2825,-4.3575
695,1603483,0.338672,0.25986,-0.902068,-2.7125,-6.335,-3.3425
696,1603581,0.349164,0.2562,-0.9089001,-2.24,-6.3175,-2.7825
697,1603680,0.341844,0.253272,-0.90402,-1.2775,-7.245,-2.52
698,1603778,0.343796,0.24668400000000001,-0.9067040000000001,-1.2775,-6.6325,-2.8175
699,1603876,0.35014,0.250832,-0.9076799999999999,-0.8225,-6.58,-2.625
700,1603974,0.3477,0.24570799999999998,-0.90036,-0.595,-6.37,-2.66
701,1604072,0.348188,0.24522,-0.9086559999999999,-0.56,-5.88,-3.15
702,1604170,0.34892,0.244488,-0.908168,-0.4725,-5.565,-3.325
703,1604268,0.3538,0.261324,-0.90402,-0.28,-5.6175,-3.22
704,1604366,0.338428,0.261812,-0.8988959999999999,0.525,-6.0025,-3.2025
705,1604464,0.347456,0.245952,-0.90646,0.805,-6.5275,-2.94
706,1604562,0.34257600000000005,0.25864000000000004,-0.9067040000000001,1.4175,-6.685,-2.73
707,1604661,0.342088,0.244,-0.90036,1.505,-6.65,-2.17
708,1604759,0.340868,0.22472399999999998,-0.90646,1.47,-6.44,-2.415
709,1604857,0.346236,0.22691999999999998,-0.9086559999999999,0.8925,-5.8625,-2.625
710,1604955,0.332816,0.2257,-0.9108521,0.315,-4.2525,-3.6575
711,1605053,0.357704,0.23228800000000002,-0.9086559999999999,-0.7875,-3.5,-4.1825
712,1605151,0.33818400000000004,0.232776,-0.9103641,-1.4875,-2.0125,-4.515
713,1605249,0.345748,0.245952,-0.9054840000000001,-1.8025,-0.6475,-5.1275
714,1605347,0.319396,0.24107199999999998,-0.900848,-1.995,0.6125,-5.67
715,1605445,0.338672,0.225456,-0.9110959999999999,-2.94,2.24,-5.9325
716,1605544,0.345748,0.24717199999999998,-0.9189040999999999,-3.8675,4.8125,-6.44
717,1605642,0.339648,0.242048,-0.9103641,-4.585,7.4375,-6.475
718,1605740,0.33305999999999997,0.24278000000000002,-0.9106081,-5.775,10.3775,-6.055
719,1605838,0.31524800000000003,0.285236,-0.906948,-7.1925,14.0525,-5.565
720,1605936,0.313784,0.203008,-0.906216,-7.595,16.9925,-5.1975
721,1606034,0.34648,0.271816,-0.9103641,-10.0625,22.155,-5.635
722,1606132,0.349408,0.256688,-0.906948,-11.3225,26.11,-4.445
723,1606230,0.355996,0.258152,-0.9110959999999999,-14.105,31.43,-4.0075
724,1606328,0.370392,0.254736,-0.9037761000000001,-16.135,37.7475,-3.815
725,1606427,0.365268,0.26913200000000004,-0.907436,-18.375,41.475,-4.375
726,1606525,0.385276,0.26474000000000003,-0.9293961,-18.9,44.6775,-4.06
727,1606623,0.27718400000000004,0.1891,-0.899384,-19.8275,43.47,-4.865
728,1606721,0.29426399999999997,0.281088,-0.952332,-28.42,59.185,-5.1975
729,1606819,0.26352,0.2318,-0.9913719999999999,-29.12,88.0075,-6.93
730,1606917,0.321104,0.255712,-0.9552601000000001,-23.9575,105.0,-6.6675
731,1607015,0.33818400000000004,0.205448,-0.9489161,-22.085,121.94,-5.2325
732,1607113,0.405528,0.257176,-0.9479401,-23.8,137.48,-7.1225
733,1607211,0.42626800000000004,0.253272,-0.9520881,-30.4675,154.77,-7.8225
734,1607309,0.6182960999999999,0.33794,-0.9254921,-37.4325,177.52,-7.0525
735,1607408,0.377712,0.25986,-1.0821399999999999,-47.81,213.9725,-5.215
736,1607506,0.61732,0.423584,-1.0584719999999999,-33.285,260.015,-5.25
737,1607604,0.24863600000000002,0.11712,-1.225368,-22.2775,318.15,2.065
738,1607702,0.590724,0.27523200000000003,-1.11264,-43.7325,369.95,-3.255
739,1607800,0.596092,0.180316,-1.430572,-63.5075,395.255,-9.03
740,1607898,1.020408,0.434076,-1.265628,-51.3275,357.0175,-28.3325
741,1607996,1.18218,0.389912,-1.331508,-50.085,286.37,-39.8125
742,1608094,0.9486720999999999,0.18324400000000002,-1.420324,-46.795,235.095,-45.185
743,1608192,0.869128,-0.122244,-2.243336,-60.0075,184.765,-31.5525
744,1608291,0.356484,-0.742004,-2.30458,-87.92,106.715,4.97
745,1608389,0.9528200000000001,-1.6684720000000002,-3.081476,-108.815,38.6225,41.335
746,1608487,-0.27205999999999997,-0.538996,-2.425116,4.1475,-7.8575,156.3275
747,1608585,-0.726144,-0.039772,-2.0220279999999997,27.265,-41.0025,213.71
748,1608683,-0.7517640999999999,0.925736,-1.8292680000000001,44.2575,-70.91001,212.065
749,1608781,-0.8679081,1.199992,-1.7565560000000002,79.765,-85.0675,195.86
750,1608879,-0.882548,1.3383399999999999,-1.616012,101.15,-105.9975,159.0225
751,1608977,-0.8574161,1.272948,-1.4152,117.145,-131.425,105.7175
752,1609075,-0.7734800000000001,1.126792,-1.2566,123.9525,-155.225,53.34
753,1609174,-0.621468,0.8991401,-1.1570479999999999,123.97,-177.135,6.58
754,1609272,-0.394304,0.711504,-1.1899879999999998,117.5475,-196.4025,-29.715
755,1609370,-0.168604,0.522648,-1.2397639999999999,110.1975,-216.2825,-54.32
756,1609468,0.053191999999999996,0.39479200000000003,-1.288564,102.69,-238.0,-68.1275
757,1609566,0.23472800000000002,0.346968,-1.269288,95.9875,-260.0675,-73.8325
758,1609664,0.381616,0.343064,-1.1709559999999999,91.91001,-278.425,-75.075
759,1609762,0.493612,0.380152,-1.038952,90.42251,-288.33,-74.4975
760,1609860,0.5631520000000001,0.36087600000000003,-0.9001161,90.09000999999999,-287.21,-73.395
761,1609958,0.658068,0.279136,-0.7483479999999999,85.3825,-276.3075,-72.275
762,1610056,0.74054,0.09613601,-0.6558721,73.255,-257.915,-69.545
763,1610155,0.84546,0.020008,-0.61,54.67,-231.6825,-58.7825
764,1610253,1.050664,0.125172,-1.0248,30.8875,-202.0025,-38.3075
765,1610351,1.385432,0.364292,-1.611376,7.2625,-187.04,-17.535
766,1610449,1.402512,0.5504641,-1.470588,-5.215,-200.4625,-3.7975
767,1610547,1.214876,0.553148,-0.758352,-8.54,-208.6875,6.9125
768,1610645,1.178764,0.45432799999999995,-0.26156799999999997,-17.0625,-184.2225,18.3225
769,1610743,1.307108,0.48653599999999997,-0.11712,-37.4325,-145.8975,17.5175
770,1610841,1.372744,0.67832,-0.283528,-63.2275,-111.3,16.5025
771,1610939,1.492792,0.8176439999999999,-0.567788,-83.2825,-87.81501,12.3725
772,1611037,1.6443159999999999,0.89426,-0.694912,-86.695,-78.0325,1.015
773,1611136,1.833904,0.780556,-0.7176041,-75.7925,-74.515,-7.4725
774,1611234,1.939556,0.53314,-0.579256,-70.0,-78.505,-11.55
775,1611332,1.95566,0.304268,-0.252784,-76.23001,-87.4825,-14.2625
776,1611430,1.8636720000000002,0.12688,0.072956,-86.66,-89.79251,-10.745
777,1611528,1.856108,0.164212,0.080276,-93.0125,-76.685,-3.3075
778,1611626,1.868552,0.305732,0.06929600000000001,-84.6475,-59.3075,1.5925
779,1611724,1.60674,0.300608,0.721508,-55.6675,-33.81,1.225
780,1611822,1.8519599999999998,0.294508,0.104676,-22.2075,7.28,-7.6825
781,1611920,1.8768479999999998,0.326228,0.306708,-3.535,21.735,-25.375
782,1612018,2.053504,0.199104,1.003572,29.645,69.195,-29.2075
783,1612117,0.944768,0.415288,-0.562664,75.145,167.3525,-7.28
784,1612215,3.304736,-1.320284,-4.242184,221.1825,171.395,-19.215
785,1612313,-0.571936,-1.770464,-0.5543680000000001,15.5925,62.7725,52.3775
786,1612411,0.711992,1.1958440000000001,-1.986648,9.695,74.6725,-1.0325
787,1612509,0.8862081,-0.54168,-1.065548,31.6575,55.2125,-8.5925
788,1612607,0.662216,0.223992,-0.7983680000000001,-17.5,53.4975,5.355
789,1612705,0.5614439999999999,-0.015128,-0.9867360999999999,-25.13,24.115,-10.5
790,1612803,0.256688,0.343552,-0.9943001,-25.9875,-4.235,-13.1775
791,1612901,0.402844,0.6021920000000001,-0.969412,-20.16,13.65,-13.9825
792,1612999,0.447008,0.288408,-0.946232,-5.145,14.0525,2.3625
793,1613098,0.378932,0.098332,-0.9203680000000001,-0.595,0.42,6.5975
794,1613196,0.36234,0.192272,-0.953308,-1.68,-6.02,-0.8225
795,1613294,0.343796,0.182268,-0.9247601000000001,1.5925,-9.3275,-2.8
796,1613392,0.323544,0.194468,-0.936472,1.2775,-5.495,-3.5875
797,1613490,0.336476,0.221308,-0.925736,0.49,-7.1575,-5.0225
798,1613588,0.337696,0.17934,-0.930372,0.7175,-6.965,-4.4975
799,1613686,0.342332,0.235948,-0.931348,0.7175,-7.385,-4.9175
800,1613784,0.326228,0.22496799999999997,-0.9108521,1.7675,-8.4,-4.935
801,1613882,0.329888,0.24790399999999999,-0.921344,1.96,-7.84,-4.4975
802,1613981,0.326716,0.243756,-0.921344,1.9425,-8.12,-4.27
803,1614079,0.320372,0.23253200000000002,-0.9154880999999999,2.1,-8.4175,-3.6225
804,1614177,0.326228,0.220088,-0.9189040999999999,1.365,-6.79,-3.5875
805,1614275,0.322324,0.2196,-0.9171961,1.12,-6.1075,-4.0425
806,1614373,0.325008,0.20984,-0.9154880999999999,0.77,-5.39,-4.5675
807,1614471,0.32696,0.211792,-0.921832,-0.035,-5.32,-4.8825
808,1614569,0.330376,0.214232,-0.925736,-0.49,-5.6,-4.7775
809,1614667,0.329888,0.225212,-0.9252481,-0.4375,-5.39,-4.3925
810,1614765,0.32256799999999997,0.238144,-0.919636,0.1925,-5.39,-4.235
811,1614863,0.322324,0.216428,-0.919636,0.4375,-6.2475,-3.92
812,1614962,0.32403200000000004,0.23424,-0.922076,0.5775,-6.9825,-3.4475
813,1615060,0.325496,0.200324,-0.928176,0.9625,-7.1575,-3.2375
814,1615158,0.32818,0.23546,-0.924516,0.63,-7.5775,-3.2375
815,1615256,0.31890799999999997,0.22472399999999998,-0.9201241,1.225,-7.21,-1.96
816,1615354,0.306952,0.22472399999999998,-0.913536,1.645,-6.4575,-2.94
817,1615452,0.315004,0.220088,-0.9232961,1.995,-7.035,-2.765
818,1615550,0.334036,0.197884,-0.9347639999999999,2.7125,-6.0375,-2.555
819,1615648,0.324276,0.22667600000000002,-0.9291520000000001,2.765,-7.0525,-2.5725
820,1615746,0.319396,0.2196,-0.9206120000000001,3.36,-7.1225,-2.0475
821,1615844,0.318176,0.22691999999999998,-0.9242720999999999,3.64,-6.7725,-2.1525
822,1615942,0.320616,0.22057600000000002,-0.9254921,4.2175,-7.77,-2.03
823,1616041,0.328424,0.227652,-0.9147559999999999,4.7075,-7.91,-2.065
824,1616139,0.308904,0.227652,-0.9137799999999999,4.76,-8.75,-2.3625
825,1616237,0.311344,0.231312,-0.908168,4.41,-8.015,-1.2075
826,1616335,0.311344,0.2318,-0.907436,4.1825,-6.58,-0.875
827,1616433,0.30109600000000003,0.221552,-0.9203680000000001,3.255,-5.67,-0.42
828,1616531,0.305,0.22082,-0.9272,2.485,-3.5525,-0.2625
829,1616629,0.303048,0.21862399999999999,-0.9232961,1.6975,-1.085,-0.6475
830,1616727,0.279136,0.22935999999999998,-0.9318360000000001,0.6475,0.9975,-0.1225
831,1616825,0.279868,0.14396,-0.9142680000000001,-0.0175,4.4625,0.175
832,1616923,0.302316,0.203984,-0.9455,-4.1125,10.605,2.17
833,1617022,0.28987199999999996,0.202276,-0.9252481,-6.23,19.145,4.4275
834,1617120,0.296704,0.19276,-0.9345201,-9.24,30.7475,6.4575
835,1617218,0.31646799999999997,0.20788800000000002,-0.9484280999999999,-10.71,39.69,7.175
836,1617316,0.307196,0.209108,-0.945744,-12.0225,44.3275,6.58
837,1617414,0.321836,0.237656,-0.960628,-14.77,58.065,6.7025
838,1617512,0.32574000000000003,0.264008,-0.967216,-16.135,73.535,6.72
839,1617610,0.42456000000000005,0.272548,-0.992348,-15.2425,88.70749,10.465
840,1617708,0.240096,0.21106,-0.9772200999999999,-13.23,92.155,11.445
841,1617806,0.355996,0.22862800000000003,-0.9945440000000001,-16.5725,119.7875,11.235
842,1617904,0.29987600000000003,0.22691999999999998,-1.0140639999999999,-12.6525,144.1475,15.085
843,1618002,0.251076,0.26108000000000003,-1.048712,-7.805,163.4325,18.1825
844,1618101,0.4331,0.28914,-1.040904,1.4875,189.8575,24.185
845,1618199,0.40894400000000003,0.321348,-1.095316,1.9075,220.3775,37.8175
846,1618297,0.538996,0.376736,-1.1575360000000001,11.2175,258.3,59.0975
847,1618395,0.585112,0.30841599999999997,-1.16022,27.7375,307.825,83.2825
848,1618493,0.53192,0.327204,-1.373476,48.9825,369.005,95.6025
849,1618591,0.51118,0.191296,-1.477908,72.1875,418.2325,94.30751
850,1618689,0.5875520000000001,0.236192,-1.4654639999999999,67.725,428.155,77.1925
851,1618787,0.9633120999999999,0.18324400000000002,-1.451068,57.5575,394.6425,45.7275
852,1618885,1.069208,0.302072,-1.453508,57.3125,342.055,9.7125
853,1618983,0.8525360000000001,0.30744,-1.868308,64.5925,294.175,-1.505
854,1619081,0.235704,0.2379,-2.880664,51.6775,224.28,-0.9275
855,1619179,-0.168848,-0.28938400000000003,-1.96176,41.02,112.28,-14.8225
856,1619278,0.653188,0.393572,-1.873432,56.28,50.575,-21.84
857,1619376,-0.9179280000000001,-0.17616800000000002,-1.9807919999999999,50.12,10.1675,-11.0425
858,1619474,-0.741028,-0.11834000000000001,-1.5067,50.505,-7.875,2.7825
859,1619572,-0.87474,-0.063684,-1.7326439999999999,35.595,-39.585,13.7375
860,1619670,-0.796904,0.099552,-1.7751,30.3975,-74.025,21.7875
861,1619768,-0.718092,0.223748,-1.778028,31.4125,-112.35,24.535
862,1619866,-0.638548,0.256932,-1.68238,36.9775,-151.585,21.6125
863,1619964,-0.527772,0.228872,-1.525,39.515,-188.2825,12.2675
864,1620062,-0.353068,0.165676,-1.419348,38.2025,-219.9225,2.7125
865,1620160,-0.152988,0.10614000000000001,-1.386408,32.655,-247.695,-5.285
866,1620258,0.018056,0.074664,-1.36396,25.0775,-274.435,-11.2
867,1620357,0.17934,0.094916,-1.3090600000000001,18.9525,-297.605,-15.8725
868,1620455,0.34428400000000003,0.124196,-1.3054,16.205,-313.775,-20.545
869,1620553,0.48433999999999994,0.15616,-1.2878319999999999,15.365,-325.99,-27.1775
870,1620651,0.5934081,0.180316,-1.162172,17.57,-333.655,-35.35
871,1620749,0.648552,0.1464,-0.9596520000000001,16.975,-331.3975,-42.0875
872,1620847,0.77104,-0.06661201,-0.7732359999999999,8.4175,-313.565,-51.4325
873,1620945,0.983808,-0.410408,-0.658068,-12.2325,-286.125,-57.1725
874,1621043,1.311744,-0.545096,-0.9762440999999998,-37.695,-252.21,-45.7625
875,1621141,1.6552959999999999,-0.548268,-1.4940120000000001,-48.685,-227.395,-17.92
876,1621239,1.832928,-0.366244,-1.509628,-57.1025,-224.7,16.555
877,1621337,1.831464,-0.17738800000000002,-0.9286639999999999,-56.28,-224.8925,46.795
878,1621436,1.801696,0.129564,-0.41968,-59.815,-202.65,64.05
879,1621534,1.8458599999999998,0.57462,-0.156892,-66.60501,-164.64,61.32
880,1621632,1.923452,0.9340321,-0.23887600000000003,-67.935,-124.7575,39.305
881,1621730,2.148664,1.068964,-0.5892601,-68.1625,-97.0375,9.87
882,1621828,2.152324,0.9120720999999999,-0.59048,-63.245,-93.0475,-24.15
883,1621926,2.070096,0.534848,-0.167628,-53.3225,-96.0925,-50.2425
884,1622024,2.0032400000000004,0.229604,0.199104,-43.4525,-84.35,-57.6625
885,1622122,1.97518,0.09930800000000001,0.254004,-36.995,-61.7575,-47.81
886,1622220,1.9415080000000002,0.14469200000000002,0.082716,-38.5175,-42.77,-31.885
887,1622318,1.962004,0.209352,0.147376,-45.1325,-35.07,-16.9225
888,1622417,1.685552,0.360632,0.395524,-50.82,-18.935,-7.6475
889,1622515,1.43716,0.36478,0.142984,-48.055,-0.035,-2.3275
890,1622613,1.438136,0.4594521,0.14078800000000002,-33.04,15.5575,-4.3225
891,1622711,1.641876,0.611952,0.799588,-2.66,59.0275,-11.865
892,1622809,1.722884,1.0736,-4.181184,107.1875,159.565,-26.2325
893,1622907,2.7206,-2.585424,-1.764364,215.145,168.5425,4.5675
894,1623005,-0.64904,0.8701040000000001,-0.428708,-73.02750999999999,65.45,31.7625
895,1623103,0.13176,0.390156,-1.8107240000000002,28.875,42.4025,-14.735
896,1623201,0.673196,-0.55632,-0.8637601,19.3375,66.6575,7.9625
897,1623299,0.7332201,0.256444,-1.002108,-24.78,46.48,-3.7275
898,1623398,0.336476,-0.00976,-0.959408,-17.71,0.8400001,-11.1125
899,1623496,0.310856,0.32574000000000003,-0.96014,-21.84,-0.665,-12.425
900,1623594,0.369172,0.413092,-0.9921040999999999,-17.2725,17.9025,-9.2225
901,1623692,0.387716,0.2562,-0.9489161,-6.5625,7.77,2.415
902,1623790,0.422364,0.136152,-0.93086,-1.12,7.2975,4.3575
903,1623888,0.355996,0.194224,-0.945256,-1.0675,-1.505,-0.455
904,1623986,0.329156,0.1891,-0.9269561,-0.98,-12.0925,-2.695
905,1624084,0.331108,0.163968,-0.930372,-0.6825,-6.93,-2.4675
906,1624182,0.35160399999999997,0.233752,-0.9320801,-1.47,-6.5275,-4.41
907,1624280,0.317688,0.19861600000000001,-0.921832,0.035,-11.865,-3.675
908,1624379,0.323544,0.18324400000000002,-0.924516,0.6475,-9.835,-3.0975
909,1624477,0.346236,0.2074,-0.9242720999999999,0.07,-8.54,-4.6725
910,1624575,0.32866799999999996,0.193004,-0.9211,0.6125,-9.4675,-4.655
911,1624673,0.32256799999999997,0.193004,-0.93086,0.3675,-9.17,-5.3375
912,1624771,0.32574000000000003,0.209596,-0.9274440999999999,0.07,-8.295,-5.705
913,1624869,0.319152,0.21618400000000002,-0.9174399999999999,-0.0175,-7.21,-6.02
914,1624967,0.319152,0.217404,-0.9181720999999999,-0.595,-6.93,-5.81
915,1625065,0.323544,0.21081599999999998,-0.9252481,-1.2775,-6.1425,-5.6875
916,1625163,0.326228,0.21008400000000002,-0.9264680000000001,-1.6275,-5.7575,-5.67
917,1625261,0.328912,0.209352,-0.9298841,-1.9075,-5.775,-5.6175
918,1625360,0.321104,0.19861600000000001,-0.9228081,-1.9075,-5.7575,-5.39
919,1625458,0.32256799999999997,0.203984,-0.9203680000000001,-2.8,-5.32,-5.5125
920,1625556,0.32256799999999997,0.198372,-0.9198799999999999,-4.1125,-4.62,-5.74
921,1625654,0.325496,0.18788,-0.9291520000000001,-5.5825,-4.3575,-6.0025
922,1625752,0.321348,0.219844,-0.9242720999999999,-6.2125,-4.305,-6.3525
923,1625850,0.320128,0.2074,-0.935984,-5.81,-4.095,-6.86
924,1625948,0.32256799999999997,0.248392,-0.9335440999999999,-4.1825,-4.2,-6.3875
925,1626046,0.320372,0.239608,-0.9315921,-1.5575,-4.445,-5.11
926,1626144,0.324764,0.232776,-0.928176,0.8925,-5.18,-3.78
927,1626242,0.318176,0.225212,-0.9152440000000001,2.765,-5.845,-3.0275
928,1626340,0.302072,0.205204,-0.9152440000000001,3.71,-7.49,-2.66
929,1626439,0.30182800000000004,0.21447600000000003,-0.92232,3.5875,-8.505,-2.6775
930,1626537,0.30622,0.20105599999999998,-0.9181720999999999,3.6575,-8.365,-2.485
931,1626635,0.312564,0.209596,-0.9152440000000001,3.3075,-8.26,-2.7475
932,1626733,0.310612,0.20252,-0.919392,2.8525,-8.925,-2.8175
933,1626831,0.31158800000000003,0.209108,-0.921588,2.8175,-8.9425,-2.87
934,1626929,0.309392,0.20691199999999998,-0.9232961,2.9575,-8.785,-3.0275
935,1627027,0.313296,0.211548,-0.924516,3.045,-8.82,-3.0625
936,1627125,0.306952,0.215696,-0.921588,3.045,-8.82,-2.975
937,1627223,0.298656,0.21838000000000002,-0.9262239999999999,2.9925,-9.065,-3.08
938,1627321,0.301584,0.221796,-0.9189040999999999,2.8,-8.4,-2.8175
939,1627420,0.306464,0.198128,-0.92232,2.2225,-7.4025,-2.485
940,1627518,0.309392,0.194468,-0.9272,1.2425,-6.755,-2.6425
941,1627616,0.308904,0.204228,-0.9274440999999999,0.5775,-5.6175,-2.835
942,1627714,0.304512,0.205448,-0.9274440999999999,0.42,-4.34,-2.695
943,1627812,0.295484,0.21228000000000002,-0.9315921,0.3325,-2.6775,-2.45
944,1627910,0.296948,0.219844,-0.9345201,-0.0525,-0.525,-2.17
945,1628008,0.28377199999999997,0.2257,-0.9328120000000001,-0.1925,1.6625,-1.855
946,1628106,0.266936,0.125172,-0.9267120000000001,-0.805,4.62,-1.6275
947,1628204,0.28938400000000003,0.205448,-0.9572120999999999,-5.005,10.01,1.26
948,1628302,0.27694,0.186904,-0.9484280999999999,-6.86,20.685,3.78
949,1628400,0.251076,0.150304,-0.954528,-10.22,31.9725,5.74
950,1628499,0.256444,0.22423600000000002,-1.005768,-15.8025,50.295,6.58
951,1628597,0.321836,0.27571999999999997,-0.9764879999999999,-18.725,71.54,6.3525
952,1628695,0.320372,0.239364,-0.9972281,-18.3225,88.30501,13.8075
953,1628793,0.322812,0.21008400000000002,-1.016748,-16.555,113.54,16.275
954,1628891,0.3233,0.22448,-1.031876,-18.62,139.405,16.2575
955,1628989,0.27523200000000003,0.2379,-1.088484,-19.5475,166.3725,19.3375
956,1629087,0.216428,0.278404,-1.148508,-14.63,197.89,25.725
957,1629185,0.36575599999999997,0.345016,-1.143872,-3.43,234.8325,37.8525
958,1629283,0.44725200000000004,0.382104,-1.250744,3.745,280.63,59.6575
959,1629381,0.46848,0.39967199999999997,-1.288808,24.08,333.1475,87.4475
960,1629480,0.6080479999999999,0.43358800000000003,-1.503528,57.61,390.6175,109.305
961,1629578,0.5121560000000001,0.342088,-1.45302,78.715,426.16,106.9075
962,1629676,0.699792,0.22082,-1.5701399999999999,57.05,394.835,75.8975
963,1629774,0.9718521000000001,0.15616,-1.493768,47.32,323.8725,38.0275
964,1629872,0.85156,0.010248,-1.565992,53.235,257.005,19.005
965,1629970,-0.1586,-0.41016400000000003,-2.1752599999999997,19.9325,175.1925,25.9525
966,1630068,1.363716,0.089304,-1.518656,-2.275,88.55,32.55
967,1630166,-0.558516,-0.101016,-1.509384,14.2275,60.4275,51.5375
968,1630264,-0.548512,0.248148,-1.341024,-8.2075,28.945,43.3125
969,1630362,-0.6541640000000001,0.514596,-1.2702639999999998,-10.0975,6.65,30.6775
970,1630461,-0.6663640000000001,0.5753520000000001,-1.357372,2.1525,-10.7625,21.07
971,1630559,-0.624884,0.54656,-1.424472,15.015,-32.06,2.835
972,1630657,-0.580232,0.43627200000000005,-1.414468,24.2725,-59.15,-15.435
973,1630755,-0.508984,0.32086,-1.375184,26.4775,-88.9525,-30.0475
974,1630853,-0.41675200000000007,0.223748,-1.331508,28.28,-116.83,-37.59
975,1630951,-0.310612,0.142984,-1.300764,30.1,-142.3975,-38.29
976,1631049,-0.20837600000000003,0.06466001,-1.265628,31.22,-166.075,-34.265
977,1631147,-0.093696,0.021228,-1.2343959999999998,28.8925,-188.02,-28.8225
978,1631245,0.009272001,0.014396,-1.20658,25.3925,-207.5325,-22.4525
979,1631343,0.130296,0.05246,-1.209508,21.5425,-224.525,-16.5375
980,1631442,0.24131599999999997,0.1525,-1.2395200000000002,17.325,-239.2425,-14.35
981,1631540,0.331596,0.27084,-1.239276,16.0475,-250.6875,-17.4125
982,1631638,0.42578,0.320128,-1.2141440000000001,18.76,-258.37,-25.375
983,1631736,0.50874,0.254736,-1.167052,22.96,-262.255,-37.0475
984,1631834,0.612684,0.11224,-1.107272,26.7925,-261.0475,-46.515
985,1631932,0.66978,0.000244,-1.011868,25.3925,-254.2225,-49.14
986,1632030,0.7439560000000001,-0.074664,-0.957456,21.21,-240.94,-45.465
987,1632128,0.8552200000000001,-0.11028800000000001,-1.016016,13.65,-222.81,-36.365
988,1632226,0.97478,-0.126148,-1.158268,2.0125,-205.275,-24.0275
989,1632324,0.99918,-0.11614400000000001,-1.0687200000000001,-13.44,-193.8825,-11.1475
990,1632422,0.9911281,-0.050508,-0.768844,-29.26,-178.22,1.225
991,1632521,0.9208561,-0.007320001,-0.5453399999999999,-47.1275,-150.045,11.2525
992,1632619,1.085068,0.19154000000000002,-0.535824,-62.9475,-116.025,18.48
993,1632717,1.220488,0.39723200000000003,-0.659288,-76.58,-86.7475,16.7825
994,1632815,1.4069040000000002,0.5814520000000001,-0.859856,-81.90001,-66.7625,4.935
995,1632913,1.6548080000000003,0.657824,-1.164368,-69.9475,-58.4325,-9.87
996,1633011,1.91052,0.5614439999999999,-1.32126,-38.2025,-66.885,-23.4325
997,1633109,1.899784,0.225456,-1.048224,-7.49,-90.3875,-29.715
998,1633207,1.933212,-0.018544,-0.5843801,1.4525,-107.0825,-28.175
999,1633305,1.827804,-0.10492,-0.016347999999999998,-6.9475,-115.64,-22.9425
1000,1633403,1.73118,0.017324000000000003,0.34867600000000004,-24.15,-106.2775,-18.375
1001,1633502,1.8104799999999999,0.28548,0.484584,-33.7225,-76.615,-17.7275
1002,1633600,1.87148,0.59292,0.429928,-28.0175,-32.0425,-20.4575
1003,1633698,1.67018,0.639524,0.28767600000000004,-20.615,2.5025,-29.5575
1004,1633796,1.6806720000000002,0.8193521,0.182756,-22.89,23.0475,-53.2175
1005,1633894,1.575508,0.800076,0.30256,-16.3625,44.38,-74.8825
1006,1633992,1.731668,0.773724,0.453108,-3.15,81.865,-89.6875
1007,1634090,0.195444,1.7519200000000001,-2.887984,46.0425,139.755,-98.28
1008,1634188,2.5800560000000003,-2.669116,-1.47498,242.585,161.0525,-66.0625
1009,1634286,-0.44286000000000003,-2.534672,-0.715896,-81.84751,81.74251,29.3125
1010,1634384,0.565104,1.077992,-2.155984,-7.07,55.475,-12.1275
1011,1634483,0.853756,-0.019032,-0.8693719999999999,-19.1975,55.5975,-17.71
1012,1634581,0.751276,0.123708,-0.9821,-7.5775,41.93,5.9675
1013,1634679,0.384544,0.09052401,-0.964044,-17.01,1.9075,-4.97
1014,1634777,0.348432,0.09052401,-0.9703879999999999,-12.495,-1.9425,-7.595
1015,1634875,0.308172,0.426512,-0.9699,-14.3675,10.2025,-13.125
1016,1634973,0.3416,0.517524,-0.9823440999999999,-11.76,1.5925,-7.14
1017,1635071,0.387716,0.153232,-0.9113399999999999,-1.4525,4.795,6.2475
1018,1635169,0.367952,0.0976,-0.9376921,-1.1725,3.675,5.6175
1019,1635267,0.31646799999999997,0.21106,-0.950868,-3.3775,-7.98,-1.575
1020,1635365,0.3111,0.17446,-0.9228081,-1.5225,-8.085,-2.695
1021,1635464,0.325252,0.19251600000000002,-0.9372040999999999,-1.89,-2.59,-3.22
1022,1635562,0.3172,0.21301199999999998,-0.9325680000000001,-2.415,-6.335,-4.97
1023,1635660,0.315736,0.170068,-0.9242720999999999,-2.0475,-6.2825,-4.6725
1024,1635758,0.329644,0.173728,-0.9296399999999999,-2.7475,-3.6225,-5.67
1025,1635856,0.323544,0.180316,-0.9198799999999999,-3.3075,-5.145,-7.315
1026,1635954,0.320372,0.19397999999999999,-0.9247601000000001,-3.9375,-5.5125,-8.4875
1027,1636052,0.318664,0.22277199999999997,-0.9345201,-4.3575,-4.7425,-9.0475
1028,1636150,0.311832,0.229848,-0.9298841,-4.0075,-4.7775,-8.5925
1029,1636248,0.31524800000000003,0.229116,-0.9235399999999999,-3.885,-3.9375,-7.63
1030,1636346,0.31158800000000003,0.20788800000000002,-0.9225639999999999,-3.9025,-4.3225,-6.65
1031,1636444,0.319884,0.21667199999999998,-0.915732,-4.69,-4.795,-6.4925
1032,1636543,0.311344,0.21032800000000001,-0.9171961,-5.7575,-5.075,-6.1075
1033,1636641,0.31842,0.194956,-0.924516,-6.93,-5.25,-5.915
1034,1636739,0.317444,0.207644,-0.9323239999999999,-7.805,-4.9875,-6.16
1035,1636837,0.316712,0.20618000000000003,-0.9237841,-7.77,-5.2325,-6.3875
1036,1636935,0.315736,0.229116,-0.9247601000000001,-7.805,-5.3025,-6.4225
1037,1637033,0.31354,0.22935999999999998,-0.9267120000000001,-7.0,-5.67,-6.0725
1038,1637131,0.310612,0.22814,-0.927932,-6.3,-5.88,-5.6875
1039,1637229,0.312808,0.230336,-0.93086,-5.5825,-6.51,-5.3725
1040,1637327,0.312076,0.24570799999999998,-0.9259799999999999,-4.3225,-6.8775,-4.4975
1041,1637425,0.31012399999999996,0.23253200000000002,-0.9206120000000001,-2.59,-7.385,-3.885
1042,1637523,0.304512,0.232044,-0.9262239999999999,-1.3475,-8.19,-3.71
1043,1637622,0.306464,0.227652,-0.9252481,-0.35,-8.2425,-3.5
1044,1637720,0.309148,0.21813600000000002,-0.9235399999999999,0.4725,-8.33,-3.4475
1045,1637818,0.309392,0.23424,-0.9179280000000001,0.8575,-8.435,-3.605
1046,1637916,0.30622,0.21886799999999998,-0.917684,1.2775,-8.26,-3.8325
1047,1638014,0.301584,0.225944,-0.918416,1.5925,-9.87,-3.9725
1048,1638112,0.30182800000000004,0.227408,-0.9240280000000001,1.785,-9.87,-3.8675
1049,1638210,0.30475599999999997,0.22448,-0.9201241,2.0825,-9.31,-3.7625
1050,1638308,0.29133600000000004,0.225212,-0.9240280000000001,1.96,-8.7325,-4.2
1051,1638406,0.30353600000000003,0.211548,-0.9267120000000001,1.82,-8.435,-4.13
1052,1638505,0.307684,0.24888000000000002,-0.9098761000000001,1.68,-7.6125,-3.9375
1053,1638603,0.317688,0.223748,-0.8991401,1.8025,-6.755,-4.1825
1054,1638701,0.297192,0.24131599999999997,-0.913292,1.61,-7.35,-4.3925
1055,1638799,0.29768,0.227652,-0.9252481,2.4325,-6.055,-4.3575
1056,1638897,0.295484,0.230336,-0.9333,2.4675,-4.4625,-3.6925
1057,1638995,0.291824,0.22033200000000003,-0.930616,2.52,-4.1475,-3.185
1058,1639093,0.293288,0.206668,-0.93086,1.68,-0.875,-3.15
1059,1639191,0.28548,0.19764,-0.9286639999999999,0.35,3.675,-3.185
1060,1639289,0.29987600000000003,0.198372,-0.940132,-1.54,9.9225,-2.6075
1061,1639387,0.246928,0.267912,-0.921588,-2.345,10.535,-2.1175
1062,1639485,0.26718000000000003,0.194712,-0.9323239999999999,-4.83,15.82,0.525
1063,1639584,0.27571999999999997,0.237656,-0.9433041,-8.6625,27.335,2.2575
1064,1639682,0.28304,0.21228000000000002,-0.968192,-11.7075,36.4175,5.635
1065,1639780,0.275964,0.223504,-0.9686799999999999,-15.68,51.45,5.5825
1066,1639878,0.312808,0.260348,-0.975512,-18.375,68.95,5.81
1067,1639976,0.317688,0.21838000000000002,-0.9850280999999999,-20.9475,88.34000999999999,7.8225
1068,1640074,0.32574000000000003,0.19861600000000001,-1.031144,-25.725,113.96,8.0325
1069,1640172,0.2928,0.17836400000000002,-1.0377319999999999,-29.6625,136.4475,7.6825
1070,1640270,0.320128,0.228384,-1.036512,-30.4675,154.9625,9.73
1071,1640368,0.378932,0.299632,-1.047492,-32.27,176.68,13.6325
1072,1640466,0.332328,0.277916,-1.069452,-32.06,205.765,25.235
1073,1640564,0.447984,0.379664,-1.13094,-21.245,244.8775,40.18
1074,1640661,0.47775200000000007,0.3721,-1.158756,1.26,298.2525,57.54
1075,1640759,0.45871999999999996,0.263764,-1.2104840000000001,19.5125,361.025,71.89
1076,1640857,0.332084,0.264008,-1.273924,20.195,415.905,80.4475
1077,1640955,0.496296,0.198128,-1.375428,2.7475,434.84,84.735
1078,1641053,0.9150001,0.19642,-1.2561120000000001,-11.4625,403.2525,58.3975
1079,1641151,1.130452,0.293288,-1.256844,-19.985,336.1225,10.85
1080,1641249,0.807396,0.1342,-1.619916,-3.2375,275.8875,-12.7575
1081,1641347,0.54168,-0.263276,-2.212348,0.7,206.71,-6.755
1082,1641446,0.011468,-0.641964,-2.208444,-46.0075,105.5425,19.6175
1083,1641544,0.10052799999999999,-1.093364,-1.974204,-66.29,16.52,55.23
1084,1641642,0.5158159999999999,0.009272001,-2.123532,-46.2175,-19.285,104.0375
1085,1641740,-0.8042239999999999,0.020252000000000003,-1.939312,-15.3825,-47.8275,125.4575
1086,1641838,-0.8518040000000001,0.511424,-1.6918959999999998,-5.2675,-69.66751,129.3075
1087,1641936,-0.8300879999999999,0.9511120000000001,-1.569164,12.88,-91.7,103.3725
1088,1642034,-0.8976761000000001,0.964532,-1.538908,37.3275,-107.94,75.39
1089,1642132,-0.7854361,0.9779521000000001,-1.529148,53.0075,-128.1525,35.0
1090,1642230,-0.640744,0.751276,-1.478884,66.3075,-150.045,-6.0025
1091,1642328,-0.493856,0.4594521,-1.395924,71.8725,-174.4925,-40.3025
1092,1642427,-0.309392,0.183,-1.322724,71.505,-198.5725,-62.2125
1093,1642525,-0.131272,-0.039772,-1.298568,68.46,-219.9225,-69.335
1094,1642623,0.031232,-0.158844,-1.2932,63.9625,-239.1725,-64.7325
1095,1642721,0.202276,-0.14518,-1.328336,57.8725,-256.2175,-54.215
1096,1642819,0.34404,-0.031476,-1.348344,52.6575,-272.1775,-44.6425
1097,1642917,0.487756,0.10418800000000002,-1.375428,50.085,-285.5475,-39.445
1098,1643015,0.601704,0.20008,-1.279536,48.4225,-295.05,-39.795
1099,1643113,0.64294,0.25351599999999996,-1.090436,44.87,-297.8325,-46.4275
1100,1643211,0.7861680999999999,0.05977999999999999,-0.8827921000000001,39.9525,-289.17,-54.25
1101,1643309,0.9403761,-0.23155599999999998,-0.8115439999999999,26.1625,-268.8,-54.845
1102,1643407,1.17242,-0.33184,-1.041392,9.31,-242.2,-38.7625
1103,1643506,1.366644,-0.343552,-1.380064,-6.825,-220.7975,-10.4475
1104,1643604,1.528904,-0.172996,-1.3542,-28.805,-215.6875,21.5425
1105,1643702,1.498404,0.028548,-0.902068,-49.84,-213.815,47.7925
1106,1643800,1.535492,0.335256,-0.537532,-70.7875,-194.25,59.99
1107,1643898,1.5701399999999999,0.6661201,-0.33061999999999997,-84.5075,-161.595,56.2975
1108,1643996,1.7094639999999999,0.992592,-0.46238,-83.195,-128.2925,49.21
1109,1644094,1.8114560000000002,1.003328,-0.6107319999999999,-65.6425,-105.8225,30.4675
1110,1644192,2.069852,0.81862,-0.820816,-48.3175,-92.85501,8.54
1111,1644290,2.168184,0.47067600000000004,-0.6019479999999999,-38.6925,-98.0175,-11.7775
1112,1644388,2.097668,0.15396400000000002,-0.045627999999999995,-30.7125,-105.28,-22.295
1113,1644487,2.02032,0.039772,0.35233600000000004,-27.4225,-90.9125,-20.02
1114,1644585,2.032032,0.18178,0.358192,-26.7925,-61.5125,-14.14
1115,1644683,1.9776200000000002,0.385764,0.275964,-24.78,-33.6,-10.7625
1116,1644781,1.8656240000000002,0.523624,0.23546,-23.17,-11.13,-12.95
1117,1644879,1.6623720000000002,0.5946279999999999,0.263276,-24.0275,8.4175,-19.5825
1118,1644977,1.45424,0.64904,0.18178,-29.7325,27.4225,-28.9975
1119,1645075,1.3176,0.6600201,-0.040992,-40.11,42.5075,-41.545
1120,1645173,0.8544879999999999,0.9850280999999999,-0.31476,-51.695,50.2425,-58.2575
1121,1645271,0.978684,1.0309,-0.537776,-17.8325,78.05,-97.0375
1122,1645369,0.38795999999999997,0.60878,-0.8042239999999999,21.9625,91.4025,-110.2325
1123,1645467,-1.2785600000000001,1.000156,-2.2008799999999997,56.525,118.1075,-117.635
1124,1645565,1.824876,-3.3735440000000003,-2.77794,231.07,181.5625,-75.1275
1125,1645664,0.9023121,-2.603236,-0.892552,-49.7,139.685,68.46
1126,1645762,1.621868,2.3433759999999997,-1.463268,-13.755,82.215,-49.49
1127,1645860,0.44090799999999997,-0.6326921,-0.861808,28.7525,20.72,-19.8625
1128,1645958,0.285236,0.027327999999999998,-1.057496,-17.6925,38.8325,12.6
1129,1646056,0.636352,0.15006,-0.9381801,-25.305,26.4075,-13.79
1130,1646154,0.422608,-0.016104,-0.9372040999999999,-18.5675,17.57,-14.175
1131,1646252,0.208132,0.360632,-0.985516,-25.8825,1.61,-19.0225
1132,1646350,0.298656,0.554856,-0.9418401,-17.85,0.77,-15.5225
1133,1646448,0.412116,0.325496,-0.9179280000000001,-4.5675,14.105,-3.22
1134,1646546,0.372832,0.14786400000000002,-0.907192,3.255,10.15,3.815
1135,1646644,0.321592,0.282552,-0.93696,1.015,-2.6075,-0.91
1136,1646743,0.324276,0.233752,-0.9330560999999999,1.5925,-5.7925,-0.7525
1137,1646841,0.34892,0.17738800000000002,-0.9186601000000001,1.68,-0.7175,0.35
1138,1646939,0.335012,0.18104800000000001,-0.9357401,-0.21,-3.185,-1.3825
1139,1647037,0.337696,0.188124,-0.93086,-1.2075,-4.3575,-3.535
1140,1647135,0.335988,0.178852,-0.9247601000000001,-1.4875,-3.325,-5.0575
1141,1647233,0.336964,0.20008,-0.9225639999999999,-2.31,-4.1475,-6.6325
1142,1647331,0.331108,0.22082,-0.9191481,-2.8175,-4.1475,-7.77
1143,1647429,0.332328,0.24668400000000001,-0.9208561,-3.4475,-4.9525,-7.84
1144,1647527,0.326472,0.243024,-0.9154880999999999,-3.43,-5.2675,-7.14
1145,1647625,0.324764,0.24034,-0.9115840000000001,-3.0275,-5.39,-6.4575
1146,1647723,0.325984,0.244488,-0.915732,-3.6925,-5.635,-6.16
1147,1647821,0.330864,0.232044,-0.9140241,-4.0075,-6.405,-5.5475
1148,1647920,0.326716,0.225456,-0.9128040000000001,-4.655,-7.4025,-4.9
1149,1648018,0.328424,0.221552,-0.924516,-5.3375,-8.155,-4.5325
1150,1648116,0.3294,0.20861999999999997,-0.921344,-5.3725,-8.1375,-4.725
1151,1648214,0.329156,0.22252800000000003,-0.9240280000000001,-5.565,-7.8925,-5.4775
1152,1648312,0.324764,0.230336,-0.927932,-4.655,-7.595,-5.6525
1153,1648410,0.321836,0.251564,-0.9167081,-1.68,-6.615,-5.2325
1154,1648508,0.321104,0.2562,-0.9171961,0.035,-6.685,-4.1825
1155,1648606,0.3172,0.2562,-0.915732,1.2775,-7.63,-3.325
1156,1648704,0.327936,0.24326799999999998,-0.9198799999999999,1.785,-8.295,-2.66
1157,1648802,0.32256799999999997,0.237656,-0.921344,2.24,-9.0475,-2.065
1158,1648901,0.321104,0.205936,-0.9189040999999999,2.2225,-8.0675,-2.1525
1159,1648999,0.326472,0.20984,-0.9259799999999999,0.9275,-7.5075,-2.695
1160,1649097,0.319884,0.226188,-0.916952,0.63,-6.4925,-2.9925
1161,1649195,0.321592,0.21667199999999998,-0.915732,-0.105,-4.9525,-3.36
1162,1649293,0.317932,0.223504,-0.9206120000000001,-0.9275,-4.9,-3.8675
1163,1649391,0.31524800000000003,0.235948,-0.921344,-0.8400001,-3.15,-4.0075
1164,1649489,0.312808,0.23009200000000002,-0.9208561,-0.8575,-3.01,-3.5875
1165,1649587,0.316712,0.23692399999999997,-0.916464,-0.8225,-1.8025,-3.5
1166,1649685,0.310368,0.22472399999999998,-0.9240280000000001,-1.3475,-0.9625,-3.08
1167,1649783,0.310368,0.223992,-0.9203680000000001,-2.1525,0.7875,-2.52
1168,1649881,0.307684,0.226188,-0.9206120000000001,-3.5175,3.7975,-1.4175
1169,1649980,0.26156799999999997,0.25058800000000003,-0.930616,-5.5125,7.3325,0.4375
1170,1650078,0.298656,0.21032800000000001,-0.931348,-6.72,11.305,0.8225
1171,1650176,0.30378,0.222284,-0.928176,-8.155,17.395,1.54
1172,1650274,0.3111,0.214964,-0.9328120000000001,-9.4325,22.4175,2.7825
1173,1650372,0.312564,0.229848,-0.924516,-11.2175,30.9575,3.115
1174,1650470,0.322324,0.23887600000000003,-0.9354959999999999,-12.9325,39.97,3.4125
1175,1650568,0.332084,0.240096,-0.9474520000000001,-15.4875,50.435,3.71
1176,1650666,0.329644,0.228384,-0.9437921,-17.465,61.9675,3.3775
1177,1650764,0.326472,0.197152,-0.9799041,-21.8225,76.195,2.7825
1178,1650862,0.315736,0.225212,-0.99308,-27.5275,98.9275,1.5225
1179,1650960,0.319396,0.312076,-1.028704,-32.55,120.8025,2.7475
1180,1651059,0.335744,0.28426,-1.031144,-31.78,147.56,11.62
1181,1651157,0.36966,0.276452,-1.0279719999999999,-30.555,173.67,21.3675
1182,1651255,0.393084,0.246196,-1.053592,-29.715,201.6,30.415
1183,1651353,0.47994799999999993,0.36112,-1.124352,-22.3475,241.6925,39.55
1184,1651451,0.40821199999999996,0.2989,-1.217804,-6.3525,300.09,53.585
1185,1651549,0.388448,0.302804,-1.300032,7.035,370.8775,64.9075
1186,1651647,0.317444,0.18251199999999998,-1.254648,9.2225,438.3225,78.8025
1187,1651745,0.5380199999999999,0.21618400000000002,-1.411784,-22.575,463.4,75.35501
1188,1651843,0.9328120000000001,0.154696,-1.3083280000000002,-34.335,435.3825,47.46
1189,1651941,1.107516,0.47653199999999996,-1.473028,-35.9275,361.5675,-4.095
1190,1652039,0.715896,0.205936,-2.13256,4.3575,300.2125,-23.45
1191,1652138,0.553636,-0.1098,-2.756224,26.705,222.635,-24.4125
1192,1652236,-0.09638,-0.5131319999999999,-2.42292,-30.415,102.55,-10.605
1193,1652334,0.8679081,-0.8364321,-2.389736,-46.06,12.2675,7.35
1194,1652432,-0.133468,0.071248,-2.230404,19.9675,-12.075,57.6625
1195,1652530,-0.8335040000000001,-0.15982000000000002,-2.0996200000000003,42.525,-34.8425,99.12001
1196,1652628,-0.916464,0.450424,-1.886364,36.8725,-56.4375,98.525
1197,1652726,-0.9596520000000001,0.6734399999999999,-1.800232,56.8575,-82.915,83.0725
1198,1652824,-0.9608721,0.715896,-1.803404,69.7725,-108.115,57.1725
1199,1652922,-0.8508280999999999,0.6451359999999999,-1.730936,82.915,-138.705,21.28
1200,1653020,-0.735416,0.37332,-1.5669680000000001,93.4675,-171.08,-10.9725
1201,1653118,-0.580476,0.090036,-1.444968,97.37,-200.5675,-33.5475
1202,1653216,-0.41260399999999997,-0.179096,-1.3664,95.6375,-227.99,-41.755
1203,1653315,-0.255956,-0.320128,-1.309792,87.115,-254.8875,-39.3575
1204,1653413,-0.154452,-0.324276,-1.278804,73.90250999999999,-279.5975,-30.2575
1205,1653511,0.038308,-0.16909200000000002,-1.322236,60.27,-298.6375,-21.2275
1206,1653609,0.230336,0.023180000000000003,-1.327848,54.915,-314.4575,-15.96
1207,1653707,0.368196,0.193248,-1.291736,54.3025,-326.3225,-16.7125
1208,1653805,0.5292359999999999,0.335256,-1.114592,53.3575,-332.3075,-25.55
1209,1653903,0.6409881,0.37942,-0.895236,43.0675,-325.85,-42.0
1210,1654001,0.9296399999999999,0.27718400000000004,-0.8552200000000001,27.0025,-302.645,-59.7625
1211,1654099,1.293444,0.149816,-1.2336639999999999,17.395,-269.64,-65.485
1212,1654197,1.572092,-0.0244,-1.6352879999999999,10.1675,-245.1925,-48.4925
1213,1654296,1.765828,-0.005612,-1.478884,-6.5975,-239.6975,-18.48
1214,1654394,1.8356119999999998,0.242048,-1.07726,-28.4725,-234.8325,8.61
1215,1654492,1.9490720000000001,0.50264,-0.563884,-47.495,-215.3025,19.7575
1216,1654590,2.059116,0.9506241,-0.284992,-62.055,-182.3325,31.9025
1217,1654688,2.164768,1.2749,-0.18666,-67.6725,-145.425,28.7
1218,1654786,2.3982759999999996,1.43472,-0.40577199999999997,-66.6925,-120.7675,16.5375
1219,1654884,2.422432,1.12362,-0.4026,-58.8525,-115.1325,0.2975
1220,1654982,2.430972,0.644404,0.03904,-53.0775,-114.4325,-14.6825
1221,1655080,2.3602119999999998,0.251564,0.505324,-53.725,-104.195,-14.6825
1222,1655178,2.320928,0.160552,0.570716,-58.0125,-78.715,-2.3975
1223,1655277,2.224792,0.29036,0.349164,-57.2075,-54.25,10.71
1224,1655375,1.9959200000000001,0.457012,0.29133600000000004,-48.65,-38.185,13.6675
1225,1655473,1.695068,0.54656,0.522404,-33.11,-21.525,6.1075
1226,1655571,1.8241439999999998,0.588284,0.731268,-24.5,4.935,-7.6125
1227,1655669,2.019344,1.118496,0.022936,-25.7425,49.6475,-38.43
1228,1655767,1.3542,0.57462,0.71248,-4.2,76.72,-62.4575
1229,1655865,-0.18788,0.158844,-0.467992,28.875,154.4375,-59.0975
1230,1655963,2.434388,-0.730536,-7.990512,128.94,250.81,-7.28
1231,1656061,1.368108,-2.133292,0.257664,97.3525,170.1875,22.6975
1232,1656159,2.424384,1.5020639999999998,-2.4683040000000003,-20.895,138.215,-0.735
1233,1656257,-0.625128,-0.6895439999999999,-0.403088,7.2625,-30.94,-11.3925
1234,1656355,0.820084,0.118828,-1.245376,-32.585,65.5725,9.485
1235,1656454,0.7617681,0.02196,-0.7812880999999999,-32.6025,70.2275,-20.965
1236,1656552,0.223748,0.438224,-0.9994241,-34.8775,7.4375,-22.785
1237,1656650,0.374784,0.7500560000000001,-1.027484,-33.46,-3.7625,-17.395
1238,1656748,0.45164399999999993,0.11467999999999999,-0.9289081,-5.3725,27.4575,1.5225
1239,1656846,0.402844,0.2135,-0.9455,-2.695,11.7425,0.9975
1240,1656944,0.332816,0.23521599999999998,-0.9469641,0.56,-10.0625,-3.85
1241,1657042,0.335012,0.16348,-0.918416,4.6025,-5.11,-2.8
1242,1657140,0.34721199999999997,0.217404,-0.946232,3.0975,-0.49,-4.9875
1243,1657238,0.312564,0.229116,-0.9240280000000001,3.99,-7.595,-5.425
1244,1657336,0.34526,0.217648,-0.9330560999999999,4.7075,-3.29,-4.76
1245,1657434,0.327204,0.24058400000000002,-0.9320801,4.8825,-6.7025,-4.795
1246,1657533,0.323788,0.231312,-0.918416,5.425,-8.26,-4.0775
1247,1657631,0.327448,0.22326,-0.921832,5.1275,-6.4225,-3.325
1248,1657729,0.325008,0.223992,-0.917684,4.55,-7.385,-3.2725
1249,1657827,0.32208000000000003,0.219844,-0.9181720999999999,4.3225,-7.6125,-3.3075
1250,1657925,0.316712,0.22862800000000003,-0.9206120000000001,3.8675,-8.26,-3.2375
1251,1658023,0.317688,0.216916,-0.916464,3.7625,-8.295,-3.0275
1252,1658121,0.321104,0.22326,-0.919392,3.4125,-7.6825,-3.0625
1253,1658219,0.315004,0.203496,-0.91622,3.29,-8.365,-2.695
1254,1658317,0.32086,0.205448,-0.9230520000000001,2.695,-7.91,-3.185
1255,1658415,0.322324,0.19885999999999998,-0.918416,2.3625,-7.595,-3.5
1256,1658513,0.32256799999999997,0.21008400000000002,-0.92232,1.82,-7.385,-3.885
1257,1658611,0.31354,0.212036,-0.915732,1.365,-7.4375,-4.13
1258,1658710,0.313052,0.228872,-0.9206120000000001,0.7,-7.0525,-4.095
1259,1658808,0.303292,0.20984,-0.9118280000000001,0.0175,-7.035,-3.6575
1260,1658906,0.318176,0.192272,-0.9311040999999999,-1.0325,-6.58,-3.7975
1261,1659004,0.32696,0.203008,-0.9301280000000001,-1.4875,-6.16,-3.745
1262,1659102,0.3172,0.23155599999999998,-0.92232,-1.6275,-6.16,-3.7275
1263,1659200,0.312076,0.221308,-0.9154880999999999,-1.785,-5.7225,-3.78
1264,1659298,0.30841599999999997,0.196908,-0.913536,-2.8,-5.4775,-3.955
1265,1659396,0.329644,0.19764,-0.922076,-4.3225,-5.8275,-4.3225
1266,1659494,0.325984,0.223992,-0.9198799999999999,-5.6875,-6.3875,-4.1475
1267,1659592,0.3111,0.233508,-0.9037761000000001,-6.6325,-7.14,-4.445
1268,1659690,0.300608,0.221796,-0.9125601000000001,-7.21,-7.4375,-4.62
1269,1659789,0.307684,0.22033200000000003,-0.936472,-7.07,-6.6675,-4.48
1270,1659887,0.30256,0.24131599999999997,-0.928176,-5.5125,-4.8825,-4.5675
1271,1659985,0.303292,0.250344,-0.924516,-3.8325,-3.71,-3.9375
1272,1660083,0.305976,0.24497600000000003,-0.9286639999999999,-2.7825,-2.45,-3.0275
1273,1660181,0.296948,0.215452,-0.9254921,-2.3975,-1.12,-2.1525
1274,1660279,0.301584,0.205936,-0.9267120000000001,-2.835,1.6625,-1.6975
1275,1660377,0.253272,0.22423600000000002,-0.937448,-4.41,4.8125,0.0175
1276,1660475,0.299144,0.19959200000000002,-0.9347639999999999,-6.16,8.7325,0.5075
1277,1660573,0.300852,0.20252,-0.9347639999999999,-8.33,14.455,0.4025
1278,1660671,0.305976,0.2135,-0.9403761,-9.5725,20.7725,1.47
1279,1660769,0.307196,0.20642399999999997,-0.935008,-11.13,28.3325,1.61
1280,1660868,0.320616,0.22448,-0.941108,-13.0025,37.17,1.9775
1281,1660966,0.330376,0.227652,-0.9398880999999999,-15.085,46.9175,1.8375
1282,1661064,0.324276,0.223748,-0.9537959999999999,-17.4125,57.2425,1.8725
1283,1661162,0.312564,0.217404,-0.9903959999999999,-21.5075,74.165,1.47
1284,1661260,0.29572800000000005,0.305,-1.007232,-28.3325,99.295,1.085
1285,1661358,0.306952,0.349408,-1.0438319999999999,-33.145,128.9225,8.6975
1286,1661456,0.30841599999999997,0.28694400000000003,-1.087996,-31.4825,160.58,24.535
1287,1661554,0.24351199999999998,0.251808,-1.1636360000000001,-27.335,199.045,37.38
1288,1661652,0.296216,0.33184,-1.251476,-23.695,243.7925,49.9275
1289,1661750,0.489464,0.43651599999999996,-1.26636,-5.2675,307.615,70.7875
1290,1661848,0.36575599999999997,0.364292,-1.443992,21.175,389.2525,95.07751
1291,1661947,0.337208,0.29646,-1.557208,37.905,472.36,115.64
1292,1662045,0.296704,0.205448,-1.521096,18.8125,511.735,113.4
1293,1662143,0.9633120999999999,0.155184,-1.70312,-29.505,454.58,69.7025
1294,1662241,1.067256,0.316712,-1.8602560000000001,-26.0575,359.345,9.625
1295,1662339,0.4636,-0.22496799999999997,-2.8665119999999997,3.5875,266.3675,-2.1
1296,1662437,-0.21276799999999998,-0.46433199999999997,-2.339472,-48.0025,121.975,24.9025
1297,1662535,1.454728,-0.23692399999999997,-1.8092599999999999,-71.82,43.4875,47.0925
1298,1662633,-0.74664,-0.10638399999999999,-1.596004,6.16,22.4525,95.26999
1299,1662731,-0.8178880999999999,0.19764,-1.469856,-1.925,4.3225,115.4825
1300,1662829,-0.92232,0.8113001,-1.449848,-11.375,-14.595,99.24251
1301,1662927,-0.9718521000000001,1.0145520000000001,-1.50548,10.64,-38.255,77.6825
1302,1663025,-0.898652,1.125572,-1.497184,29.575,-62.23,36.2075
1303,1663124,-0.777872,0.9171961,-1.447164,49.7175,-87.5525,-8.1725
1304,1663222,-0.616344,0.5934081,-1.398608,63.735,-114.66,-44.695
1305,1663320,-0.41968,0.266692,-1.2932,69.2825,-143.5875,-67.06
1306,1663418,-0.252296,-0.0017079999999999999,-1.208288,68.565,-170.94,-72.345
1307,1663516,-0.07027201,-0.15128,-1.199992,63.84,-194.53,-63.4725
1308,1663614,0.101992,-0.181292,-1.2404959999999998,56.7175,-217.8925,-46.13
1309,1663712,0.261812,-0.12566,-1.286124,48.8425,-241.325,-27.23
1310,1663810,0.384788,0.00122,-1.300032,41.23,-264.3375,-11.8475
1311,1663908,0.44652,0.120048,-1.24806,36.3475,-284.27,-3.2375
1312,1664006,0.5675439999999999,0.20984,-1.204628,34.265,-298.515,-2.45
1313,1664104,0.612928,0.176656,-1.1224,34.2825,-304.3425,-8.3125
1314,1664203,0.6824680000000001,0.017812,-1.042368,32.1825,-303.7825,-16.1175
1315,1664301,0.815692,-0.15372,-1.063596,28.455,-295.33,-21.35
1316,1664399,0.9049959999999999,-0.313296,-1.0060120000000001,22.6625,-283.045,-17.85
1317,1664497,0.906948,-0.4392,-0.8518040000000001,11.13,-265.1425,-7.1925
1318,1664595,1.061888,-0.386252,-0.960384,-4.305,-239.3475,8.2425
1319,1664693,1.214632,-0.215452,-1.298568,-15.26,-216.23,24.78
1320,1664791,1.292224,-0.051972000000000004,-1.323212,-26.3025,-207.795,40.74
1321,1664889,1.258308,0.12029200000000001,-0.9264680000000001,-42.3675,-199.7625,44.94
1322,1664987,1.3322399999999999,0.3843,-0.49312399999999995,-61.705,-179.095,36.1725
1323,1665085,1.311988,0.45115600000000006,-0.260348,-77.84,-142.975,12.775
1324,1665183,1.438624,0.6675840000000001,-0.233752,-82.005,-104.475,-0.14
1325,1665281,1.591856,0.76494,-0.380884,-73.535,-70.875,-16.3975
1326,1665380,1.7746119999999999,0.749812,-0.5919439999999999,-60.935,-48.825,-32.3925
1327,1665478,2.107672,0.636596,-1.011136,-47.9325,-40.985,-47.565
1328,1665576,2.236748,0.38966799999999996,-0.909632,-28.6125,-55.3875,-56.9625
1329,1665674,2.19722,0.139324,-0.292312,-12.005,-75.1975,-53.62
1330,1665772,1.7687560000000002,-0.11126400000000002,0.8235001000000001,-8.2425,-65.555,-38.0625
1331,1665870,2.1779439999999997,0.388448,0.729804,-16.1175,-25.2525,-26.6175
1332,1665968,2.1472,0.9240280000000001,0.471164,-30.5025,2.2575,-26.9675
1333,1666066,1.998116,1.277096,0.467016,-33.6175,30.6425,-46.13
1334,1666164,1.985184,1.305644,0.684176,-20.5625,68.4775,-71.1725
1335,1666262,1.985184,1.174128,0.7556681,-1.155,122.045,-93.9925
1336,1666360,1.605032,1.592832,-5.8194,77.3675,174.02,-126.105
1337,1666459,1.821216,-3.680252,-0.42773199999999995,225.8725,161.6125,-68.8275
1338,1666557,-0.738344,-2.228696,-0.49312399999999995,-128.275,98.75251,-5.8275
1339,1666655,1.526952,0.9328120000000001,-2.584448,-10.675,64.5575,-25.095
1340,1666753,0.5404601,0.22862800000000003,-0.4575,-26.4775,44.52,-19.95
1341,1666851,0.853024,0.011956,-1.0882399999999999,-25.97,67.8125,-0.8225
1342,1666949,0.388204,0.14518,-0.9562360999999999,-23.59,8.925,-10.1325
1343,1667047,0.25058800000000003,0.5958479999999999,-0.9945440000000001,-25.2,-8.225,-16.1525
1344,1667145,0.404308,0.41894799999999993,-0.954284,-11.935,13.3875,-9.205
1345,1667243,0.40821199999999996,0.172508,-0.942816,-0.2625,10.6225,3.4825
1346,1667342,0.35672800000000005,0.255712,-0.955016,-0.385,-5.1975,-0.8400001
1347,1667439,0.325984,0.21447600000000003,-0.9352520000000001,1.9775,-13.685,-3.2375
1348,1667537,0.3172,0.21057199999999998,-0.9325680000000001,3.3075,-10.57,-2.9575
1349,1667636,0.313296,0.2379,-0.9274440999999999,2.1875,-11.025,-4.445
1350,1667734,0.31232,0.20691199999999998,-0.9320801,2.03,-9.7475,-4.2875
1351,1667832,0.322324,0.209108,-0.9208561,1.4875,-8.3125,-4.585
1352,1667930,0.319396,0.21228000000000002,-0.921832,0.5075,-7.9975,-5.81
1353,1668028,0.321592,0.21057199999999998,-0.925736,-0.245,-6.3875,-6.685
1354,1668126,0.317932,0.2257,-0.9228081,-1.05,-5.3725,-6.7375
1355,1668224,0.3172,0.23082399999999997,-0.9179280000000001,-2.2225,-4.2,-6.3525
1356,1668322,0.311832,0.233508,-0.921344,-3.29,-3.85,-5.9325
1357,1668420,0.32086,0.229848,-0.921588,-3.4825,-2.8525,-5.6
1358,1668518,0.315004,0.23228800000000002,-0.921832,-3.7975,-2.7125,-5.6875
1359,1668616,0.319396,0.24570799999999998,-0.9191481,-3.7975,-2.66,-5.5475
1360,1668714,0.311832,0.233264,-0.9189040999999999,-3.675,-2.835,-4.935
1361,1668813,0.321348,0.225456,-0.9262239999999999,-3.7275,-1.925,-4.655
1362,1668911,0.315492,0.2318,-0.9171961,-4.5675,-3.1325,-5.1275
1363,1669009,0.313784,0.228872,-0.921588,-4.9875,-2.94,-4.865
1364,1669107,0.320128,0.23155599999999998,-0.9225639999999999,-5.53,-2.87,-4.865
1365,1669205,0.311832,0.229116,-0.9289081,-5.46,-3.2725,-4.6725
1366,1669303,0.3111,0.22862800000000003,-0.935008,-4.27,-2.8525,-4.865
1367,1669401,0.309148,0.253272,-0.9247601000000001,-2.275,-1.855,-4.9
1368,1669499,0.315736,0.25742,-0.918416,-0.665,-1.47,-3.9725
1369,1669597,0.318176,0.25376,-0.9171961,0.7,-2.31,-2.765
1370,1669695,0.308904,0.23741199999999998,-0.9198799999999999,1.3125,-3.815,-1.82
1371,1669793,0.315736,0.236192,-0.9181720999999999,1.2425,-3.92,-1.435
1372,1669891,0.31354,0.229848,-0.916464,1.1725,-4.0775,-1.26
1373,1669990,0.29743600000000003,0.225456,-0.9186601000000001,0.6825,-4.4275,-1.54
1374,1670088,0.31012399999999996,0.22423600000000002,-0.9191481,0.0,-2.905,-2.135
1375,1670186,0.311832,0.21594000000000002,-0.921588,-1.1375,-1.435,-2.135
1376,1670284,0.305,0.217648,-0.9230520000000001,-2.3275,1.26,-2.1
1377,1670382,0.306952,0.219356,-0.924516,-3.675,4.3575,-1.995
1378,1670480,0.30256,0.22691999999999998,-0.9301280000000001,-5.285,7.7525,-1.435
1379,1670578,0.29792399999999997,0.231312,-0.9293961,-6.79,12.3375,-0.455
1380,1670676,0.296704,0.246928,-0.930372,-8.3825,18.4625,0.4375
1381,1670774,0.309636,0.236436,-0.9206120000000001,-9.345,25.0075,1.61
1382,1670872,0.317932,0.22935999999999998,-0.9267120000000001,-10.2025,32.6725,2.0125
1383,1670970,0.325496,0.217892,-0.931348,-11.305,39.8475,1.8025
1384,1671068,0.343064,0.23448400000000003,-0.9298841,-13.2125,49.315,0.0525
1385,1671167,0.35087199999999996,0.238632,-0.9301280000000001,-15.0675,57.3125,-0.8925
1386,1671265,0.35233600000000004,0.24058400000000002,-0.9201241,-18.6725,64.12,-0.5775
1387,1671363,0.3599,0.24131599999999997,-0.942572,-19.9675,71.82,0.5775
1388,1671461,0.36087600000000003,0.233264,-0.9494040000000001,-20.9825,80.15,1.7325
1389,1671559,0.335256,0.235704,-0.9862479999999999,-22.4175,92.1725,2.7125
1390,1671657,0.364048,0.32574000000000003,-1.0084520000000001,-24.5525,112.0175,3.675
1391,1671755,0.367708,0.354532,-1.002108,-27.6325,136.36,11.8125
1392,1671853,0.371856,0.312808,-1.0589600000000001,-24.2725,168.175,26.3375
1393,1671951,0.431392,0.34526,-1.088484,-20.265,208.4775,40.7225
1394,1672049,0.47482399999999997,0.346968,-1.1289879999999999,-8.715,259.175,55.265
1395,1672147,0.42285200000000006,0.254736,-1.2190239999999999,3.0625,325.36,70.7175
1396,1672245,0.397476,0.28792,-1.3205280000000001,8.1725,400.925,82.6525
1397,1672344,0.344528,0.11126400000000002,-1.3712799999999998,-13.5975,475.09,98.805
1398,1672442,0.625128,0.049288,-1.226588,-63.9975,522.6725,98.82251
1399,1672540,0.8903561,0.190076,-1.240008,-91.735,500.64,47.25
1400,1672638,1.301496,0.5594920999999999,-1.477176,-104.2825,395.8325,-11.97
1401,1672736,0.7666480999999999,0.50508,-2.79746,-65.905,301.21,-27.335
1402,1672834,0.27694,0.14713199999999999,-3.1522360000000003,-16.4675,189.8575,-30.5025
1403,1672932,-0.098088,-0.5502199999999999,-2.74012,-37.415,61.6525,-23.31
1404,1673030,0.5787680000000001,-0.706136,-2.740364,-46.515,-31.7625,-27.195
1405,1673128,-0.075396,0.31354,-2.322392,20.65,-45.395,6.5975
1406,1673226,-1.1777879999999998,-0.57828,-2.166964,54.3725,-55.545,76.4225
1407,1673324,-1.006744,0.189588,-2.13988,26.95,-88.02501,90.16001
1408,1673422,-1.024556,0.486292,-2.08376,34.5625,-129.2025,79.6075
1409,1673521,-0.9950319999999999,0.611952,-1.9727400000000002,52.22,-165.375,57.4
1410,1673619,-0.8076399999999999,0.589992,-1.770952,72.06501,-197.9425,25.3225
1411,1673717,-0.584868,0.36209600000000003,-1.616744,90.56251,-225.7675,-3.29
1412,1673815,-0.3904,0.09320801,-1.492548,101.115,-252.315,-25.2
1413,1673913,-0.196908,-0.07173600000000001,-1.407148,100.73,-278.6,-38.5175
1414,1674011,0.024888,-0.163724,-1.413492,95.04251,-301.63,-42.63
1415,1674109,0.26108000000000003,-0.11541199999999999,-1.485472,85.55751,-325.0975,-41.895
1416,1674207,0.417484,-0.030744,-1.463268,77.6825,-346.5525,-41.055
1417,1674305,0.52704,0.08442401,-1.2900280000000002,69.895,-363.7025,-42.9975
1418,1674403,0.6368401,0.082228,-0.9437921,62.3875,-369.9675,-49.49
1419,1674501,0.9018241,-0.007076001,-0.8327720999999999,53.06,-355.81,-60.6725
1420,1674600,1.285392,-0.105896,-0.9203680000000001,47.46,-326.97,-58.8875
1421,1674698,1.471076,-0.20837600000000003,-0.9860040999999999,36.96,-293.16,-43.3125
1422,1674796,1.849276,-0.024888,-1.429108,32.445,-264.565,-21.49
1423,1674894,2.093276,0.133224,-1.502308,30.9575,-252.63,7.6825
1424,1674992,2.07766,0.468236,-0.8203280000000001,20.0375,-247.1175,27.6675
1425,1675090,2.190632,0.743224,-0.085156,1.6275,-217.525,21.14
1426,1675188,2.302628,1.138016,0.24131599999999997,-22.4175,-169.6625,8.925
1427,1675286,2.638372,1.554524,-0.227652,-36.0325,-126.9275,-6.4575
1428,1675384,2.7069360000000002,1.284904,-0.544608,-19.39,-111.79,-24.5175
1429,1675482,2.623488,0.8095920999999999,0.08052000000000001,6.4225,-105.735,-45.6225
1430,1675580,2.553704,0.29524,0.7327321,21.21,-81.69001,-47.915
1431,1675678,2.556632,0.225456,0.5614439999999999,12.1275,-50.6975,-34.2825
1432,1675777,2.359968,0.403088,0.29426399999999997,1.9075,-33.8975,-20.405
1433,1675875,2.350696,0.270352,0.79666,2.4675,-20.3875,-10.01
1434,1675973,2.224548,1.013332,0.370148,-33.1275,9.3625,-14.0875
1435,1676071,1.422032,1.0201639999999998,0.49312399999999995,-46.2525,17.815,-26.2675
1436,1676169,1.977132,0.231068,1.583804,-18.1825,61.005,-32.725
1437,1676267,-0.183488,1.5262200000000001,-3.598756,-49.0525,170.135,-16.7475
1438,1676365,4.040152,-0.47384799999999994,-1.279292,113.365,198.24,-41.1425
1439,1676463,-1.250988,1.2080440000000001,-1.140212,-112.105,133.035,57.82
1440,1676561,0.445788,-0.9150001,-1.3085719999999998,33.32,39.3925,0.8400001
1441,1676659,0.5799880000000001,0.260836,-1.220244,-43.68,49.9275,3.5525
1442,1676757,0.7241920000000001,0.313296,-0.8547319999999999,-44.8525,65.485,-10.115
1443,1676856,0.5453399999999999,0.085888,-0.989908,-27.405,22.8025,-6.9475
1444,1676954,0.34038,0.262056,-0.9977159999999999,-27.9125,11.62,-12.495
1445,1677052,0.33013200000000004,0.300852,-0.9913719999999999,-21.175,7.1925,-10.92
1446,1677150,0.363316,0.251076,-0.9628241,-13.44,6.195,-7.1925
1447,1677248,0.361852,0.15372,-0.9254921,-8.225,3.9025,-5.705
1448,1677346,0.31890799999999997,0.147376,-0.9225639999999999,-7.805,-1.925,-7.21
1449,1677444,0.290604,0.13078399999999998,-0.9208561,-10.08,-7.8575,-8.82
1450,1677542,0.29646,0.13054000000000002,-0.9311040999999999,-12.3025,-3.01,-10.5525
1451,1677640,0.292068,0.200324,-0.935984,-15.015,-0.91,-13.0025
1452,1677738,0.31012399999999996,0.24351199999999998,-0.9352520000000001,-15.1025,-2.135,-13.125
1453,1677836,0.31158800000000003,0.23887600000000003,-0.9272,-12.915,-1.0675,-11.515
1454,1677934,0.305244,0.23082399999999997,-0.9272,-11.5675,-2.3975,-10.4475
1455,1678033,0.299388,0.238144,-0.9247601000000001,-10.5525,-3.4125,-9.625
1456,1678131,0.30182800000000004,0.22057600000000002,-0.9254921,-9.4325,-4.0425,-8.5925
1457,1678229,0.30988000000000004,0.233508,-0.924516,-9.1875,-4.1825,-8.225
1458,1678327,0.30622,0.254004,-0.9237841,-8.5575,-4.795,-8.155
1459,1678425,0.321348,0.255956,-0.9189040999999999,-7.3675,-4.9175,-7.5775
1460,1678523,0.306952,0.23911999999999997,-0.9198799999999999,-6.1775,-5.775,-6.2825
1461,1678621,0.305732,0.23838800000000002,-0.9230520000000001,-5.11,-6.93,-5.6
1462,1678719,0.29646,0.256688,-0.928176,-2.9575,-6.755,-4.865
1463,1678817,0.31451599999999996,0.264252,-0.922076,0.6825,-6.965,-4.2525
1464,1678915,0.313296,0.26108000000000003,-0.9203680000000001,3.325,-7.28,-2.905
1465,1679013,0.31012399999999996,0.266448,-0.922076,4.655,-8.96,-1.96
1466,1679111,0.305976,0.25522399999999995,-0.9186601000000001,5.5125,-10.115,-1.19
1467,1679210,0.30378,0.230336,-0.9267120000000001,5.8975,-10.7975,-0.77
1468,1679308,0.313784,0.255956,-0.931348,6.6675,-12.25,-0.2275
1469,1679406,0.305244,0.24058400000000002,-0.928176,8.855,-12.67,0.0875
1470,1679504,0.31524800000000003,0.258152,-0.9267120000000001,10.29,-13.1075,0.7525
1471,1679602,0.3111,0.22814,-0.9269561,11.2,-12.5125,1.4175
1472,1679700,0.305732,0.21057199999999998,-0.9296399999999999,11.305,-13.0025,1.2425
1473,1679798,0.302072,0.21008400000000002,-0.9237841,10.9375,-12.32,0.7875
1474,1679896,0.29572800000000005,0.198128,-0.9250040999999999,9.8875,-11.27,0.3325
1475,1679994,0.29036,0.20008,-0.9269561,8.5225,-11.025,-0.595
1476,1680092,0.28767600000000004,0.208132,-0.928176,7.0525,-10.2025,-1.47
1477,1680190,0.293044,0.223992,-0.9291520000000001,6.0375,-8.89,-1.785
1478,1680288,0.293044,0.219112,-0.9298841,5.46,-8.5575,-1.4
1479,1680387,0.29133600000000004,0.22667600000000002,-0.9323239999999999,4.9,-7.56,-0.9975
1480,1680485,0.288652,0.22789600000000002,-0.9237841,4.655,-7.8225,-0.8575
1481,1680583,0.294996,0.217404,-0.9179280000000001,4.0075,-6.685,-0.42
1482,1680681,0.2928,0.219112,-0.9284200999999999,2.485,-3.885,-0.7875
1483,1680779,0.296704,0.20447200000000001,-0.913536,1.8025,-3.325,-0.7525
1484,1680877,0.285236,0.235948,-0.917684,0.0875,-2.6075,-1.75
1485,1680975,0.25742,0.249856,-0.9340321,-2.31,2.59,-0.14
1486,1681073,0.26766799999999996,0.133712,-0.9511120000000001,-2.9225,9.3625,2.6425
1487,1681171,0.208864,0.244488,-0.9857600000000001,-7.4725,17.9375,9.9225
1488,1681269,0.194468,0.173728,-0.9564799999999999,-12.635,38.9375,15.5925
1489,1681367,0.248148,0.22423600000000002,-1.032608,-19.845,67.865,20.1775
1490,1681465,0.290848,0.251564,-1.0169920000000001,-20.7725,92.90751,21.4025
1491,1681563,0.251564,0.205936,-1.050176,-21.455,119.2275,25.69
1492,1681662,0.287188,0.237656,-1.0906799999999999,-24.7625,162.2425,27.2825
1493,1681760,0.22862800000000003,0.215452,-1.178764,-23.7475,197.505,30.7825
1494,1681858,0.238632,0.268888,-1.236104,-17.115,238.8925,36.2425
1495,1681956,0.306708,0.287432,-1.280512,-2.9925,288.5925,49.2975
1496,1682054,0.376004,0.360144,-1.247816,11.865,337.4525,70.56
1497,1682152,0.59536,0.33671999999999996,-1.323212,34.8425,404.1625,93.9225
1498,1682250,0.413092,0.29133600000000004,-1.475468,46.9,474.0925,101.7975
1499,1682348,0.310612,0.11102000000000001,-1.39446,67.0075,516.2325,99.96
1500,1682446,0.663924,0.233996,-1.51158,71.6975,500.8675,56.5425
1501,1682544,1.052616,0.316224,-1.416176,73.02750999999999,437.0625,7.735
1502,1682642,0.671976,0.10004,-2.3201959999999997,70.07,350.315,-17.15
1503,1682741,0.321592,-0.06636801,-3.418684,56.315,225.995,-25.7075
1504,1682839,-0.6602640000000001,-0.514596,-2.085468,5.635,61.18,-7.84
1505,1682937,1.400316,-0.12688,-1.7397200000000002,-13.7375,-29.05,30.3975
1506,1683035,-0.7956840999999999,-0.263764,-1.713124,23.485,-46.935,37.3625
1507,1683133,-0.8322841000000001,-0.454816,-1.561844,29.89,-62.86,55.1425
1508,1683231,-0.794708,0.14078800000000002,-1.424228,-4.6375,-90.9125,59.43
1509,1683329,-0.8361879999999999,0.294752,-1.5584280000000001,-3.5,-113.68,61.04
1510,1683427,-0.6895439999999999,0.522892,-1.6506599999999998,5.495,-136.4125,51.73
1511,1683525,-0.5690081,0.5192319999999999,-1.6206479999999999,14.1925,-166.6525,29.2425
1512,1683623,-0.465552,0.36892800000000003,-1.516948,17.2725,-199.29,-1.3475
1513,1683721,-0.370148,0.18324400000000002,-1.416664,16.87,-228.83,-30.9575
1514,1683819,-0.134932,-0.008052001,-1.378844,21.35,-253.1725,-48.7375
1515,1683918,0.055144000000000006,-0.191296,-1.386896,26.7925,-273.07,-55.685
1516,1684016,0.21276799999999998,-0.30256,-1.368596,33.8975,-290.92,-53.9175
1517,1684114,0.318176,-0.33428,-1.3261399999999999,38.2025,-306.67,-46.5675
1518,1684212,0.42724399999999996,-0.25742,-1.304668,37.38,-318.9725,-41.02
1519,1684310,0.536556,-0.230336,-1.223904,36.1375,-327.7575,-37.8175
1520,1684408,0.7093081,-0.29572800000000005,-1.060424,29.0675,-331.3275,-33.0225
1521,1684506,0.8574161,-0.41846000000000005,-0.844484,6.055,-327.6875,-29.8025
1522,1684604,0.9977159999999999,-0.46774799999999994,-0.789828,-25.27,-311.395,-24.605
1523,1684702,1.286124,-0.29792399999999997,-1.069208,-48.475,-285.915,-13.5275
1524,1684800,1.426668,-0.024888,-1.3790879999999999,-53.83,-263.41,3.0975
1525,1684898,1.589172,0.16835999999999998,-1.441308,-52.3425,-247.205,24.22
1526,1684997,1.806332,0.49776000000000004,-1.33346,-55.51,-236.5125,35.9275
1527,1685095,1.909544,0.7327321,-0.9423280999999999,-50.435,-224.7875,35.0525
1528,1685193,1.9190599999999998,0.8559521000000001,-0.411872,-42.2625,-202.3175,27.475
1529,1685291,1.9720080000000002,0.9028,-0.188612,-38.6925,-167.1775,18.48
1530,1685389,2.0813200000000003,0.868884,-0.357216,-38.43,-135.03,12.39
1531,1685487,2.0935200000000003,0.724924,-0.313784,-41.9125,-117.67,2.625
1532,1685585,2.078636,0.545096,-0.050996,-43.155,-103.88,-2.9575
1533,1685683,2.0876639999999997,0.416264,0.09028,-41.265,-85.8025,0.875
1534,1685781,2.04228,0.36502399999999996,0.173728,-39.305,-65.8175,10.5175
1535,1685879,1.9337,0.360388,0.248148,-41.93,-45.36,20.5275
1536,1685977,1.7748560000000002,0.465796,0.259372,-49.595,-24.5,26.775
1537,1686075,1.572336,0.555588,0.12932000000000002,-56.9275,-4.1825,26.6525
1538,1686173,1.341024,0.633912,0.008296000999999999,-59.85,13.02,17.6225
1539,1686272,0.7171161,0.636352,0.388692,-55.5975,35.07,-4.55
1540,1686370,1.27978,0.6722199999999999,-0.548024,-18.8825,72.9925,-35.1925
1541,1686468,0.7388319999999999,0.6009720000000001,0.1464,10.22,85.1725,-66.92
1542,1686566,-0.040992,-0.004148001,-0.7808001,56.1925,156.8,-63.84
1543,1686664,-0.496784,-0.22667600000000002,-5.4821919999999995,99.9075,232.0675,-11.725
1544,1686762,2.4270680000000002,-1.9175959999999999,-0.9730721,193.6375,183.365,-10.99
1545,1686860,0.861808,0.9552601000000001,-0.12248800000000001,-11.76,122.78,-4.8825
1546,1686958,0.204716,-0.00244,-1.6609080000000003,71.75,78.9425,-23.2225
1547,1687056,-0.24326799999999998,-0.15006,-0.9955200000000001,12.1975,75.4775,-5.6175
1548,1687154,1.1004399999999999,-0.33623200000000003,-1.20292,-19.5125,90.1775,-17.29
1549,1687252,0.529968,-0.331108,-0.784216,-22.855,62.615,-14.35
1550,1687351,0.24131599999999997,0.6724640000000001,-1.171932,-51.835,6.5975,-19.635
1551,1687449,0.448716,0.335256,-0.9572120999999999,-29.295,15.575,-4.2
1552,1687547,0.5058121,0.01342,-0.9562360999999999,-13.1775,52.045,6.79
1553,1687645,0.374784,0.162992,-0.9635560999999999,-14.875,12.81,-0.28
1554,1687743,0.39723200000000003,0.244,-0.960628,-14.1225,-8.0325,-6.895
1555,1687841,0.327448,0.166408,-0.9323239999999999,-7.665,-0.6825,-4.515
1556,1687939,0.35892399999999997,0.24888000000000002,-0.94916,-8.1725,-1.1375,-6.3525
1557,1688037,0.321348,0.197884,-0.9337880999999999,-5.5825,-7.9625,-4.9875
1558,1688135,0.347456,0.189588,-0.9293961,-3.57,-6.58,-4.55
1559,1688233,0.34281999999999996,0.214232,-0.9311040999999999,-3.3075,-8.05,-5.8625
1560,1688331,0.32574000000000003,0.196664,-0.9296399999999999,-2.4325,-10.4825,-5.845
1561,1688430,0.33379200000000003,0.193248,-0.9315921,-2.0825,-7.2275,-6.055
1562,1688528,0.33184,0.203252,-0.9267120000000001,-1.82,-6.9125,-6.8425
1563,1688626,0.320128,0.213256,-0.922076,-1.6625,-7.42,-6.825
1564,1688724,0.31964000000000004,0.222284,-0.921344,-1.68,-7.0,-6.475
1565,1688822,0.327692,0.21276799999999998,-0.9181720999999999,-1.8025,-5.88,-5.985
1566,1688920,0.326716,0.219844,-0.9247601000000001,-2.4675,-5.1625,-5.915
1567,1689018,0.319884,0.203252,-0.9225639999999999,-2.5725,-5.3025,-5.67
1568,1689116,0.32403200000000004,0.199104,-0.9242720999999999,-2.975,-4.865,-5.8975
1569,1689214,0.324276,0.198128,-0.9242720999999999,-2.7125,-4.4975,-6.16
1570,1689312,0.321348,0.214964,-0.9237841,-2.73,-4.3925,-6.2825
1571,1689410,0.31964000000000004,0.20837600000000003,-0.9186601000000001,-2.66,-4.34,-5.9675
1572,1689508,0.322324,0.204228,-0.9259799999999999,-3.3425,-4.5325,-5.67
1573,1689607,0.327204,0.193248,-0.931348,-3.6925,-5.285,-5.1275
1574,1689705,0.3294,0.22082,-0.9345201,-3.43,-5.11,-5.075
1575,1689803,0.321348,0.23253200000000002,-0.9230520000000001,-2.17,-5.3725,-4.55
1576,1689901,0.31646799999999997,0.22277199999999997,-0.9267120000000001,-1.47,-5.4775,-3.9725
1577,1689999,0.3172,0.220088,-0.925736,-1.0325,-6.545,-3.4475
1578,1690097,0.324276,0.211792,-0.9228081,-0.7525,-6.475,-3.045
1579,1690195,0.321348,0.21032800000000001,-0.9152440000000001,-0.6125,-6.895,-3.2025
1580,1690293,0.313784,0.21838000000000002,-0.9186601000000001,-1.1025,-7.0875,-3.955
1581,1690391,0.316224,0.203252,-0.916464,-1.785,-7.28,-3.8325
1582,1690489,0.32574000000000003,0.205936,-0.915976,-2.59,-7.1925,-3.675
1583,1690587,0.312808,0.21618400000000002,-0.9171961,-3.885,-7.7525,-4.1125
1584,1690685,0.320128,0.198372,-0.9152440000000001,-4.55,-8.575,-4.025
1585,1690784,0.320128,0.204716,-0.9171961,-4.6025,-8.575,-4.6375
1586,1690882,0.302316,0.21106,-0.921588,-5.39,-9.7475,-5.9675
1587,1690980,0.308904,0.216428,-0.9272,-5.3025,-6.4575,-5.9675
1588,1691078,0.30548800000000004,0.223992,-0.9284200999999999,-5.6,-4.1125,-5.285
1589,1691176,0.300852,0.21594000000000002,-0.9289081,-6.0025,-2.1,-4.445
1590,1691274,0.305,0.197152,-0.9311040999999999,-6.125,0.8225,-4.06
1591,1691372,0.2928,0.196908,-0.9301280000000001,-5.95,5.4425,-3.8325
1592,1691470,0.269864,0.236436,-0.9455,-6.2825,10.8675,-3.535
1593,1691568,0.294996,0.195932,-0.9254921,-6.51,13.51,-3.4125
1594,1691666,0.316956,0.219844,-0.9347639999999999,-8.295,18.3925,-2.94
1595,1691764,0.30475599999999997,0.2074,-0.9320801,-8.0325,18.795,-1.54
1596,1691863,0.315004,0.22789600000000002,-0.9403761,-9.6425,25.97,-1.2425
1597,1691961,0.314272,0.23692399999999997,-0.936472,-10.325,32.2,-0.735
1598,1692059,0.310368,0.23058,-0.9398880999999999,-12.005,40.9675,0.5775
1599,1692157,0.310368,0.195688,-0.964776,-14.6825,58.03,1.89
1600,1692255,0.28304,0.254492,-0.987224,-20.5275,78.8725,0.4725
1601,1692353,0.337696,0.32256799999999997,-1.013332,-26.2325,104.86,3.885
1602,1692451,0.311832,0.23424,-1.035048,-27.72,130.4975,14.28
1603,1692549,0.332328,0.183732,-1.007232,-25.5325,152.11,20.79
1604,1692647,0.44090799999999997,0.233996,-0.9745360000000001,-23.555,166.32,20.5275
1605,1692745,0.40381999999999996,0.21081599999999998,-1.010892,-23.135,183.82,22.82
1606,1692843,0.379176,0.229604,-0.9886881,-15.6275,207.83,25.34
1607,1692941,0.518012,0.35233600000000004,-1.03578,-5.8975,242.2875,33.04
1608,1693039,0.44847200000000004,0.30988000000000004,-1.1350879999999999,0.8225,292.0225,49.6125
1609,1693138,0.422364,0.343064,-1.2134120000000002,5.46,350.2275,66.5875
1610,1693236,0.355508,0.20252,-1.090436,-1.5225,401.975,84.5775
1611,1693334,0.5607121,0.144448,-1.261724,-28.6825,404.145,80.1675
1612,1693432,1.036512,0.342088,-1.3832360000000001,-36.225,360.1325,44.065
1613,1693530,1.1326479999999999,0.395768,-1.49206,-24.9725,293.16,4.69
1614,1693628,0.7005239999999999,0.057584,-2.033008,10.4475,229.8625,-8.3475
1615,1693726,0.582428,-0.49702799999999997,-2.2357720000000003,-8.435,145.7925,5.9325
1616,1693824,0.239364,-0.7239479999999999,-1.8175560000000002,-79.3625,47.95,35.9625
1617,1693922,1.694824,-0.208132,-1.9266240000000001,-80.01,10.85,75.11
1618,1694020,-0.35233600000000004,0.10223600000000001,-1.91052,-10.57,-10.92,125.6325
1619,1694118,-0.669048,0.37332,-1.63358,-7.5425,-27.3525,143.6225
1620,1694216,-0.582916,0.9620920000000001,-1.4720520000000001,1.085,-44.205,116.7425
1621,1694314,-0.7232161,1.0065,-1.46766,28.245,-56.8225,88.725
1622,1694413,-0.658068,0.94916,-1.49206,49.2975,-71.5225,50.785
1623,1694511,-0.5978,0.6836880999999999,-1.4330120000000002,65.36251,-93.94,8.855
1624,1694609,-0.50752,0.371856,-1.3529799999999998,72.1875,-120.6275,-23.485
1625,1694707,-0.387716,0.07222401,-1.289784,72.1875,-146.16,-42.0
1626,1694805,-0.259128,-0.157868,-1.285148,66.43,-171.115,-45.955
1627,1694903,-0.164212,-0.262788,-1.27978,54.565,-197.855,-41.8075
1628,1695001,-0.115168,-0.24863600000000002,-1.211948,42.4725,-224.3675,-34.1075
1629,1695099,-0.079056,-0.15494000000000002,-1.13826,34.965,-244.8425,-25.3925
1630,1695197,0.053436000000000004,-0.014396,-1.13582,32.62,-256.55,-19.6525
1631,1695295,0.132248,0.141276,-1.160952,32.4625,-265.58,-21.5075
1632,1695393,0.280356,0.291092,-1.212924,39.235,-274.3475,-28.5775
1633,1695491,0.386496,0.363804,-1.223904,45.1325,-280.2975,-40.145
1634,1695590,0.47458,0.40016,-1.162172,49.6475,-283.5175,-55.37
1635,1695688,0.535824,0.300608,-0.9230520000000001,49.1925,-279.545,-69.055
1636,1695786,0.678076,0.047092,-0.663924,39.0775,-264.4775,-77.385
1637,1695884,0.9479401,-0.060024,-0.7500560000000001,21.21,-238.8575,-74.935
1638,1695982,1.1538760000000001,-0.101748,-1.168272,5.25,-211.47,-58.065
1639,1696080,1.330288,-0.007564001,-1.3832360000000001,-21.5075,-195.37,-33.915
1640,1696178,1.409832,0.24424400000000002,-1.1838879999999998,-42.9975,-189.3675,-12.32
1641,1696276,1.479616,0.393816,-0.8730319999999999,-55.4575,-175.21,-3.1325
1642,1696374,1.637728,0.7378560000000001,-0.652456,-62.405,-156.625,6.7375
1643,1696472,1.8824599999999998,1.055544,-0.6824680000000001,-60.55,-137.13,9.8
1644,1696570,1.9075919999999997,1.102148,-0.637084,-41.755,-126.7875,7.665
1645,1696668,1.9522439999999999,0.945744,-0.473116,-25.8125,-120.2775,-1.295
1646,1696767,2.000556,0.682712,-0.22691999999999998,-23.6425,-113.505,-14.0875
1647,1696865,2.043256,0.41236000000000006,0.055388,-25.4625,-105.0,-23.5375
1648,1696963,2.105476,0.22423600000000002,0.237168,-27.055,-87.6225,-24.885
1649,1697061,2.132316,0.172752,0.280844,-27.93,-65.345,-20.2125
1650,1697159,2.044232,0.300608,0.3294,-27.5975,-43.05,-16.38
1651,1697257,1.847568,0.5489999999999999,0.363072,-25.7425,-21.175,-19.81
1652,1697355,1.8461040000000002,0.719312,0.395768,-22.7325,2.6425,-30.6775
1653,1697453,1.4598520000000001,0.8754719999999999,0.660996,-27.265,38.22,-51.905
1654,1697551,1.481324,0.749324,0.025863999999999998,-15.0675,71.96,-72.5375
1655,1697649,0.6273241,0.777872,0.493856,1.4525,102.6375,-97.3175
1656,1697747,0.045872,-0.105652,-6.423056,59.0975,191.0825,-83.8425
1657,1697845,2.904332,-3.9369400000000003,-0.677588,172.5675,215.5125,-11.06
1658,1697943,0.100284,0.39284,-0.10321199999999998,-180.0225,112.665,5.145
1659,1698042,1.164856,1.0208959999999998,-2.652524,21.735,5.635,-59.535
1660,1698140,0.050996,-0.482388,-0.636352,12.8275,59.4825,12.1275
1661,1698238,0.666852,0.21520799999999998,-0.9650200999999999,-25.34,53.4975,-11.2525
1662,1698336,0.49312399999999995,0.244,-0.954284,-17.71,10.7625,-16.5025
1663,1698434,0.236192,0.39894,-0.960628,-17.78,13.51,-15.435
1664,1698532,0.282308,0.534848,-0.9725841000000001,-15.9425,5.6175,-8.295
1665,1698630,0.398208,0.232044,-0.934276,-6.055,14.5425,3.255
1666,1698728,0.418704,0.067832,-0.9250040999999999,-3.78,13.4575,4.4975
1667,1698826,0.341844,0.162504,-0.9418401,-6.8775,-1.785,-4.8125
1668,1698924,0.309392,0.18666,-0.935008,-7.385,-6.7725,-7.98
1669,1699022,0.321104,0.19739600000000002,-0.944524,-7.1925,-1.365,-8.9425
1670,1699121,0.3233,0.20642399999999997,-0.931348,-6.8425,-1.5575,-9.87
1671,1699219,0.32452,0.21594000000000002,-0.927688,-6.3175,-2.38,-9.87
1672,1699317,0.32818,0.24424400000000002,-0.92232,-5.705,-2.87,-9.9225
1673,1699415,0.312564,0.252784,-0.9211,-5.5825,-4.83,-9.1175
1674,1699513,0.32866799999999996,0.244732,-0.9225639999999999,-5.32,-4.3925,-7.8575
1675,1699611,0.321348,0.254004,-0.921344,-5.0925,-4.62,-6.58
1676,1699709,0.320128,0.253272,-0.915976,-5.0225,-5.425,-5.915
1677,1699807,0.318664,0.245464,-0.9152440000000001,-4.76,-5.53,-5.2675
