,T,ax,ay,az,gx,gy,gz
0,177376,0.9025559999999999,0.061854,-0.06539201,19.11,-18.48,-18.41
1,177520,0.9211,0.067588,-0.135542,-34.58,-38.1325,-85.55751
2,177616,0.9840521000000001,0.074786,-0.147254,-58.5025,-74.8125,-125.5975
3,177713,0.984418,0.07564,-0.14762,24.01,-101.64,-50.5575
4,177810,0.9827101,0.07588400000000001,-0.150792,0.4725,-8.365,-4.55
5,177906,0.9827101,0.07527400000000001,-0.15067,-0.105,-5.7925,-3.3775
6,178003,0.9825879999999999,0.07503,-0.149572,-0.105,-5.6875,-3.2725
7,178100,0.9834421,0.07527400000000001,-0.149572,-0.0525,-5.6525,-3.36
8,178197,0.986614,0.07564,-0.148108,-0.0175,-5.5825,-3.3425
9,178293,0.987224,0.07442,-0.14823,-0.035,-5.39,-3.325
10,178390,0.9890540000000001,0.07442,-0.151402,-0.035,-5.2325,-3.2725
11,178487,0.9894200000000001,0.07344400000000001,-0.151524,-0.035,-5.1275,-3.15
12,178584,0.9911281,0.074664,-0.151158,-0.0175,-4.9875,-3.2025
13,178680,0.9890540000000001,0.07344400000000001,-0.15274400000000002,0.0,-4.9875,-3.22
14,178777,0.987956,0.073688,-0.152622,-0.1225,-5.005,-3.1325
15,178874,0.9853940999999999,0.07442,-0.153598,-0.14,-5.215,-3.22
16,178971,0.9845401,0.075762,-0.153598,-0.1225,-5.4075,-3.22
17,179067,0.9836860999999999,0.076494,-0.153476,-0.1925,-5.4775,-3.185
18,179164,0.98393,0.07600599999999999,-0.15433,-0.2625,-5.6,-3.2025
19,179261,0.984784,0.07612801,-0.155672,-0.2625,-5.635,-3.1675
20,179357,0.9834421,0.07588400000000001,-0.15433,-0.1925,-5.6,-3.0275
21,179454,0.9846620999999999,0.07515201,-0.155916,-0.14,-5.67,-3.0625
22,179551,0.9858819999999999,0.07344400000000001,-0.154452,0.0175,-5.565,-3.0275
23,179648,0.9862479999999999,0.0732,-0.154696,0.245,-5.4775,-3.185
24,179744,0.9873460999999999,0.07381001,-0.152988,0.2275,-5.4425,-3.22
25,179841,0.9864921,0.073688,-0.15311,0.1925,-5.425,-3.2025
26,179938,0.9857600000000001,0.074542,-0.153232,0.14,-5.32,-3.185
27,180035,0.984784,0.072956,-0.15237799999999999,0.0525,-5.145,-3.2725
28,180131,0.984418,0.07259,-0.153354,-0.0175,-5.11,-3.22
29,180228,0.983564,0.072102,-0.15176800000000001,-0.07,-5.145,-3.185
30,180325,0.984784,0.07356601,-0.15189,-0.14,-5.0925,-3.1675
31,180421,0.9840521000000001,0.07246799999999999,-0.153842,-0.14,-5.18,-3.2375
32,180518,0.9860040999999999,0.074542,-0.153232,-0.245,-5.0925,-3.15
33,180615,0.9884440000000001,0.074542,-0.151036,-0.3325,-5.005,-3.22
34,180712,0.9873460999999999,0.073688,-0.151524,-0.28,-5.0575,-3.185
35,180808,0.9867360999999999,0.07564,-0.152622,-0.1225,-4.97,-3.1325
36,180905,0.9888101,0.07625,-0.1525,0.0175,-5.005,-3.185
37,181002,0.9878341,0.07612801,-0.15420799999999998,0.0,-5.075,-3.0975
38,181099,0.9886881,0.07564,-0.15054800000000002,-0.0525,-5.215,-3.0625
39,181195,0.9869800999999999,0.075396,-0.15201199999999998,-0.0525,-5.145,-3.1325
40,181292,0.9864921,0.07442,-0.15189,-0.0175,-5.25,-3.185
41,181389,0.984906,0.07417601,-0.15274400000000002,0.0175,-5.3375,-3.15
42,181486,0.984906,0.072956,-0.15237799999999999,0.035,-5.39,-3.22
43,181582,0.984784,0.07222401,-0.151036,0.0525,-5.3375,-3.2025
44,181679,0.9856379999999999,0.071858,-0.15091400000000002,0.0175,-5.425,-3.2375
45,181776,0.9869800999999999,0.07173600000000001,-0.15054800000000002,0.14,-5.2675,-3.325
46,181873,0.98759,0.071858,-0.14945,0.1925,-5.32,-3.2725
47,181969,0.9867360999999999,0.072102,-0.149816,0.14,-5.285,-3.3775
48,182066,0.9864921,0.074786,-0.14871800000000002,0.1225,-5.2325,-3.3075
49,182163,0.9861260000000001,0.07600599999999999,-0.149084,0.0175,-5.2675,-3.29
50,182259,0.9862479999999999,0.07625,-0.149694,-0.14,-5.04,-3.255
51,182356,0.9864921,0.07637200000000001,-0.149816,-0.1925,-5.04,-3.3075
52,182453,0.9867360999999999,0.07527400000000001,-0.15067,-0.1225,-4.865,-3.3425
53,182550,0.988078,0.07344400000000001,-0.153476,-0.0875,-4.935,-3.3075
54,182646,0.9862479999999999,0.07417601,-0.152622,-0.1225,-4.9175,-3.3425
55,182743,0.9857600000000001,0.07332201,-0.1525,-0.0525,-4.9525,-3.395
56,182840,0.984296,0.07283401,-0.154086,0.0875,-4.9175,-3.465
57,182937,0.984784,0.07234600000000001,-0.153354,0.0875,-5.1625,-3.5
58,183033,0.986858,0.074298,-0.15128,0.245,-5.1975,-3.5875
59,183130,0.9860040999999999,0.07490801,-0.15237799999999999,0.2975,-5.25,-3.605
60,183227,0.9845401,0.074786,-0.15054800000000002,0.315,-5.285,-3.5875
61,183323,0.984418,0.07356601,-0.15006,0.28,-5.3025,-3.6225
62,183420,0.9850280999999999,0.07356601,-0.149084,0.2625,-5.2325,-3.57
63,183517,0.983808,0.07344400000000001,-0.149206,0.105,-5.285,-3.4475
64,183614,0.981978,0.07344400000000001,-0.148108,0.07,-5.18,-3.4125
65,183710,0.9831981,0.074054,-0.14823,-0.0525,-5.0225,-3.3775
66,183807,0.9840521000000001,0.074298,-0.147254,-0.1575,-4.9,-3.325
67,183904,0.984784,0.07600599999999999,-0.14871800000000002,-0.245,-4.7775,-3.185
68,184000,0.9862479999999999,0.07600599999999999,-0.150426,-0.2625,-4.69,-3.22
69,184097,0.9864921,0.075762,-0.1525,-0.1925,-4.7775,-3.2375
70,184194,0.985516,0.074786,-0.152866,-0.1575,-4.9,-3.22
71,184291,0.9864921,0.07527400000000001,-0.15372,-0.105,-5.0925,-3.22
72,184387,0.9874681000000001,0.07356601,-0.154452,-0.07,-5.3025,-3.3775
73,184484,0.9853940999999999,0.07332201,-0.151646,-0.0525,-5.2675,-3.325
74,184581,0.984418,0.073688,-0.15128,-0.0525,-5.46,-3.3775
75,184678,0.9836860999999999,0.075762,-0.149816,-0.0175,-5.4425,-3.36
76,184774,0.9830760000000001,0.076494,-0.147498,-0.0175,-5.4775,-3.29
77,184871,0.9817341,0.07588400000000001,-0.146644,-0.07,-5.3375,-3.3075
78,184968,0.9851501,0.076494,-0.14457,-0.0875,-5.25,-3.255
79,185064,0.986614,0.07600599999999999,-0.14701,-0.21,-5.25,-3.255
80,185161,0.9869800999999999,0.074054,-0.14518,-0.21,-5.075,-3.3075
81,185258,0.9884440000000001,0.07417601,-0.14469200000000002,-0.2625,-5.04,-3.29
82,185355,0.9886881,0.07381001,-0.147376,-0.2275,-4.935,-3.2725
83,185451,0.9897860999999999,0.07381001,-0.14701,-0.245,-4.9,-3.22
84,185548,0.9889319999999999,0.074542,-0.149328,-0.2625,-4.9,-3.22
85,185645,0.987102,0.076616,-0.14945,-0.28,-4.795,-3.2025
86,185742,0.9861260000000001,0.07832401,-0.151158,-0.21,-4.7425,-3.1325
87,185838,0.9857600000000001,0.077958,-0.150426,-0.175,-4.7775,-3.08
88,185935,0.9851501,0.077714,-0.14945,-0.0875,-4.9,-3.115
89,186032,0.9833200000000001,0.077714,-0.15018199999999998,-0.0175,-4.935,-3.08
90,186128,0.985516,0.076738,-0.148352,-0.035,-4.865,-3.0975
91,186225,0.9851501,0.07442,-0.14786400000000002,0.0,-4.9,-3.22
92,186322,0.984906,0.073688,-0.14701,0.0,-5.0575,-3.1325
93,186419,0.98759,0.07259,-0.148108,0.07,-4.9,-3.0975
94,186515,0.9883221,0.07222401,-0.145058,0.07,-4.795,-3.15
95,186612,0.987102,0.07332201,-0.145912,0.0,-4.865,-3.2375
96,186709,0.9863700000000001,0.07246799999999999,-0.14579,-0.0525,-4.8825,-3.255
97,186806,0.9863700000000001,0.07356601,-0.146034,-0.175,-4.8825,-3.22
98,186902,0.9863700000000001,0.07442,-0.147254,-0.315,-4.83,-3.1325
99,186999,0.9873460999999999,0.07417601,-0.147254,-0.385,-4.9525,-3.22
100,187096,0.9862479999999999,0.07381001,-0.14871800000000002,-0.4375,-4.9,-3.1675
101,187192,0.9883221,0.07198,-0.14823,-0.3675,-4.97,-3.1675
102,187289,0.9883221,0.07246799999999999,-0.14786400000000002,-0.42,-4.9525,-3.2025
103,187386,0.9883221,0.07283401,-0.14896199999999998,-0.315,-4.9875,-3.115
104,187483,0.987956,0.07307801,-0.14823,-0.2625,-5.25,-3.1325
105,187579,0.9884440000000001,0.074542,-0.14798599999999998,-0.245,-5.355,-3.1675
106,187676,0.987102,0.073688,-0.148108,-0.1575,-5.39,-3.045
107,187773,0.9863700000000001,0.074298,-0.14798599999999998,-0.1925,-5.4775,-3.115
108,187870,0.986858,0.074664,-0.146766,-0.14,-5.4775,-3.2375
109,187966,0.9850280999999999,0.07490801,-0.147254,-0.21,-5.425,-3.15
110,188063,0.9862479999999999,0.07625,-0.145912,-0.315,-5.39,-3.115
111,188160,0.9862479999999999,0.074298,-0.1464,-0.2975,-5.3725,-3.22
112,188256,0.9850280999999999,0.07503,-0.147498,-0.21,-5.215,-3.29
113,188353,0.986614,0.07381001,-0.14688800000000002,-0.14,-5.0925,-3.36
114,188450,0.9862479999999999,0.0732,-0.147254,-0.1575,-5.18,-3.2725
115,188547,0.988566,0.074664,-0.147254,-0.105,-5.25,-3.22
116,188643,0.9895421,0.07442,-0.148596,0.0,-5.32,-3.22
117,188740,0.9884440000000001,0.0732,-0.148108,0.0175,-5.1975,-3.2025
118,188837,0.9869800999999999,0.07381001,-0.146156,0.0875,-5.3375,-3.2375
119,188934,0.9860040999999999,0.07417601,-0.14518,0.035,-5.3725,-3.29
120,189030,0.985516,0.07417601,-0.145058,0.0175,-5.2325,-3.325
121,189127,0.9864921,0.074664,-0.144204,0.0,-5.215,-3.2725
122,189224,0.987224,0.07442,-0.14396,0.07,-5.2675,-3.3425
123,189320,0.987102,0.07503,-0.145302,0.035,-5.425,-3.43
124,189417,0.9874681000000001,0.074054,-0.14396,-0.07,-5.3725,-3.4125
125,189514,0.9873460999999999,0.07490801,-0.14469200000000002,-0.0875,-5.3375,-3.43
126,189611,0.987224,0.07588400000000001,-0.145912,-0.0525,-5.25,-3.4125
127,189707,0.9861260000000001,0.07515201,-0.146522,-0.1225,-5.18,-3.4475
128,189804,0.9850280999999999,0.077714,-0.14762,0.0,-5.11,-3.465
129,189901,0.9852719999999999,0.077714,-0.14713199999999999,-0.0525,-5.0575,-3.43
130,189998,0.984296,0.077836,-0.149084,-0.0525,-5.075,-3.5175
131,190094,0.9831981,0.076494,-0.148108,0.0525,-5.0225,-3.5175
132,190191,0.98393,0.07490801,-0.148474,0.0875,-5.1975,-3.43
133,190288,0.9856379999999999,0.07503,-0.148352,0.21,-5.1275,-3.3425
134,190385,0.9853940999999999,0.074054,-0.148108,0.21,-5.11,-3.325
135,190481,0.986858,0.074298,-0.146522,0.315,-5.25,-3.255
136,190578,0.9860040999999999,0.07259,-0.14713199999999999,0.2275,-5.46,-3.3075
137,190675,0.9861260000000001,0.07283401,-0.14566800000000002,0.175,-5.5475,-3.22
138,190772,0.9869800999999999,0.072956,-0.14701,0.14,-5.5125,-3.22
139,190869,0.9878341,0.071492,-0.14579,0.0875,-5.46,-3.2025
140,190965,0.9886881,0.07198,-0.144326,0.105,-5.355,-3.2375
141,191062,0.986614,0.072102,-0.1464,0.105,-5.53,-3.2725
142,191159,0.9864921,0.07356601,-0.144448,-0.07,-5.74,-3.29
143,191256,0.987102,0.07515201,-0.14518,-0.2275,-5.67,-3.2725
144,191353,0.9860040999999999,0.074664,-0.14469200000000002,-0.35,-5.6175,-3.22
145,191449,0.984906,0.075762,-0.144814,-0.3325,-5.5475,-3.29
146,191546,0.9856379999999999,0.07381001,-0.14518,-0.35,-5.355,-3.3775
147,191643,0.9858819999999999,0.07332201,-0.145302,-0.35,-5.25,-3.4125
148,191740,0.9853940999999999,0.07417601,-0.14579,-0.2975,-5.0925,-3.3775
149,191836,0.9857600000000001,0.07564,-0.144448,-0.2275,-5.0575,-3.36
150,191933,0.987712,0.07625,-0.146644,-0.2625,-5.2675,-3.3775
151,192030,0.988566,0.07600599999999999,-0.14579,-0.2275,-5.3025,-3.395
152,192127,0.988078,0.07612801,-0.146522,-0.21,-5.3725,-3.29
153,192224,0.9894200000000001,0.076738,-0.146034,-0.21,-5.32,-3.2025
154,192320,0.9882001,0.074298,-0.145302,-0.035,-5.2325,-3.22
155,192417,0.989176,0.07417601,-0.14579,0.0175,-5.25,-3.3075
156,192514,0.9873460999999999,0.07356601,-0.14579,-0.035,-5.4425,-3.325
157,192611,0.985516,0.074664,-0.145912,0.0,-5.425,-3.395
158,192708,0.985516,0.07637200000000001,-0.144326,-0.0175,-5.285,-3.4125
159,192804,0.985516,0.076616,-0.145058,0.0,-5.4075,-3.4125
160,192901,0.9846620999999999,0.07625,-0.14579,-0.1225,-5.32,-3.3425
161,192998,0.983808,0.076616,-0.14786400000000002,-0.1575,-5.285,-3.43
162,193095,0.9850280999999999,0.075396,-0.147498,-0.175,-5.25,-3.2725
163,193192,0.9840521000000001,0.07503,-0.146034,-0.21,-5.215,-3.2375
164,193288,0.9852719999999999,0.074786,-0.14762,-0.1925,-5.2325,-3.3425
165,193385,0.9852719999999999,0.074054,-0.147376,-0.1575,-5.2675,-3.3425
166,193482,0.9863700000000001,0.07417601,-0.14798599999999998,-0.105,-5.285,-3.3775
167,193579,0.9860040999999999,0.074298,-0.146278,-0.14,-5.32,-3.36
168,193676,0.9862479999999999,0.074054,-0.14823,-0.035,-5.3725,-3.4475
169,193772,0.9873460999999999,0.07393200000000001,-0.14579,0.0875,-5.355,-3.4125
170,193869,0.989176,0.07283401,-0.14579,0.2275,-5.3025,-3.3775
171,193966,0.9884440000000001,0.07381001,-0.14713199999999999,0.2275,-5.4075,-3.4475
172,194063,0.9883221,0.07503,-0.142984,0.1925,-5.46,-3.395
173,194159,0.987712,0.07588400000000001,-0.14396,0.21,-5.5125,-3.36
174,194256,0.9863700000000001,0.07637200000000001,-0.14469200000000002,0.1225,-5.53,-3.325
175,194353,0.9860040999999999,0.07600599999999999,-0.14383800000000002,0.035,-5.4775,-3.3075
176,194450,0.984784,0.07600599999999999,-0.14493599999999998,0.0175,-5.3725,-3.29
177,194547,0.9829540000000001,0.07612801,-0.14566800000000002,-0.07,-5.3375,-3.2725
178,194643,0.9853940999999999,0.074542,-0.147376,-0.0525,-5.3375,-3.2725
179,194740,0.984784,0.07503,-0.145424,-0.07,-5.355,-3.255
180,194837,0.986858,0.07564,-0.147254,-0.1225,-5.4075,-3.2025
181,194934,0.986614,0.07625,-0.145912,-0.245,-5.3725,-3.115
182,195031,0.9867360999999999,0.075762,-0.146644,-0.3325,-5.3725,-3.0625
183,195127,0.9864921,0.07808001,-0.1464,-0.3675,-5.3375,-3.01
184,195224,0.9850280999999999,0.07600599999999999,-0.14701,-0.315,-5.25,-3.0625
185,195321,0.9850280999999999,0.07503,-0.146156,-0.1925,-5.2675,-3.0975
186,195418,0.9869800999999999,0.07490801,-0.14762,-0.1225,-5.39,-3.0975
187,195515,0.98759,0.075396,-0.147376,-0.0525,-5.425,-3.045
188,195611,0.989176,0.076494,-0.146278,-0.0175,-5.5475,-3.08
189,195708,0.98759,0.07710399999999999,-0.146034,0.035,-5.5125,-3.08
190,195805,0.986858,0.074664,-0.143716,0.035,-5.6,-3.1675
191,195902,0.9853940999999999,0.074298,-0.144326,0.0525,-5.4425,-3.185
192,195999,0.9850280999999999,0.07234600000000001,-0.145546,-0.035,-5.5475,-3.185
193,196095,0.988566,0.071492,-0.145058,-0.0525,-5.5825,-3.2375
194,196192,0.987956,0.07259,-0.145424,-0.0525,-5.46,-3.255
195,196289,0.98759,0.07344400000000001,-0.145424,-0.1225,-5.4075,-3.2375
196,196386,0.9886881,0.074786,-0.14383800000000002,-0.21,-5.39,-3.2725
197,196483,0.9860040999999999,0.07515201,-0.145546,-0.315,-5.3375,-3.22
198,196579,0.984906,0.07503,-0.146156,-0.35,-5.18,-3.29
199,196676,0.9851501,0.07490801,-0.147742,-0.4025,-4.9875,-3.2725
200,196773,0.987956,0.07442,-0.146522,-0.3325,-4.76,-3.2725
201,196870,0.986858,0.07600599999999999,-0.146766,-0.14,-4.8825,-3.395
202,196967,0.9884440000000001,0.07588400000000001,-0.14713199999999999,-0.0875,-4.9,-3.395
203,197063,0.9886881,0.07503,-0.14713199999999999,0.035,-5.0575,-3.29
204,197160,0.988078,0.07527400000000001,-0.146278,0.0875,-5.32,-3.22
205,197257,0.9873460999999999,0.07637200000000001,-0.147498,0.14,-5.32,-3.185
206,197354,0.9853940999999999,0.07625,-0.145424,0.1225,-5.39,-3.115
207,197451,0.9845401,0.07490801,-0.145546,0.0,-5.3725,-3.1675
208,197547,0.9836860999999999,0.07503,-0.145302,0.0875,-5.32,-3.0975
209,197644,0.984906,0.07442,-0.14493599999999998,0.07,-5.355,-3.0975
210,197741,0.983808,0.07442,-0.14469200000000002,0.0175,-5.355,-3.1325
211,197838,0.9846620999999999,0.07332201,-0.145424,-0.0525,-5.3375,-3.115
212,197935,0.9857600000000001,0.07039400000000001,-0.14701,-0.105,-5.25,-3.22
213,198031,0.9861260000000001,0.071004,-0.14762,-0.21,-5.355,-3.2725
214,198128,0.986614,0.071248,-0.146766,-0.315,-5.215,-3.29
215,198225,0.9883221,0.07222401,-0.14701,-0.4375,-5.0575,-3.2725
216,198322,0.987224,0.07198,-0.14713199999999999,-0.35,-5.145,-3.36
217,198419,0.9845401,0.07234600000000001,-0.147254,-0.1925,-5.18,-3.2725
218,198515,0.9864921,0.074054,-0.147254,-0.1225,-5.1625,-3.36
219,198612,0.985516,0.07588400000000001,-0.14469200000000002,-0.1925,-5.11,-3.3075
220,198709,0.986858,0.077714,-0.14579,-0.105,-5.3025,-3.3425
221,198806,0.9867360999999999,0.07710399999999999,-0.145912,-0.07,-5.39,-3.3425
222,198903,0.988078,0.07856801,-0.144082,-0.035,-5.3025,-3.395
223,198999,0.9874681000000001,0.07710399999999999,-0.14457,0.0,-5.2675,-3.325
224,199096,0.987102,0.07722601,-0.144448,-0.0525,-5.39,-3.255
225,199193,0.986614,0.07722601,-0.142496,-0.1225,-5.39,-3.255
226,199290,0.9867360999999999,0.07344400000000001,-0.144326,-0.245,-5.1975,-3.255
227,199386,0.9860040999999999,0.07307801,-0.14566800000000002,-0.245,-5.1625,-3.3425
228,199483,0.984784,0.071858,-0.14493599999999998,-0.2625,-5.075,-3.325
229,199580,0.9860040999999999,0.072956,-0.145424,-0.14,-5.0225,-3.3775
230,199677,0.9861260000000001,0.07381001,-0.144326,-0.1575,-4.9,-3.325
231,199774,0.9869800999999999,0.07442,-0.144448,-0.0175,-4.8825,-3.325
232,199870,0.987224,0.076616,-0.146278,0.0,-4.9875,-3.3075
233,199967,0.9874681000000001,0.07503,-0.14493599999999998,-0.07,-4.935,-3.2725
234,200064,0.9864921,0.07612801,-0.146278,-0.175,-4.9525,-3.325
235,200161,0.9869800999999999,0.076494,-0.145546,-0.21,-4.9175,-3.36
236,200257,0.9867360999999999,0.07747001,-0.14579,-0.2975,-4.9175,-3.36
237,200354,0.9857600000000001,0.077348,-0.147498,-0.2975,-5.075,-3.3425
238,200451,0.9862479999999999,0.076616,-0.146766,-0.0875,-5.1975,-3.395
239,200548,0.987956,0.077592,-0.146278,0.0,-5.215,-3.3775
240,200645,0.987102,0.07564,-0.145912,0.175,-5.355,-3.4825
241,200741,0.9861260000000001,0.07356601,-0.143228,0.245,-5.425,-3.3775
242,200838,0.9857600000000001,0.07332201,-0.14347200000000002,0.2625,-5.3725,-3.3425
243,200935,0.9840521000000001,0.07381001,-0.143228,0.245,-5.4075,-3.3075
244,201032,0.9845401,0.0732,-0.143228,0.0175,-5.3025,-3.22
245,201129,0.987102,0.07246799999999999,-0.145302,0.035,-5.32,-3.29
246,201225,0.9867360999999999,0.07442,-0.142862,-0.1225,-5.145,-3.29
247,201322,0.9874681000000001,0.07527400000000001,-0.14335,-0.175,-5.0925,-3.3075
248,201419,0.9861260000000001,0.074786,-0.145546,-0.4025,-5.0925,-3.2725
249,201516,0.9863700000000001,0.07490801,-0.147254,-0.3325,-5.0575,-3.255
250,201613,0.9857600000000001,0.07625,-0.146522,-0.2975,-4.8825,-3.1325
251,201709,0.987712,0.07527400000000001,-0.147254,-0.1225,-4.97,-3.255
252,201806,0.9863700000000001,0.07588400000000001,-0.147376,-0.0875,-5.0575,-3.2725
253,201903,0.986858,0.07710399999999999,-0.146766,-0.1225,-5.215,-3.2375
254,202000,0.9861260000000001,0.077836,-0.14713199999999999,-0.2625,-5.3025,-3.15
255,202097,0.9862479999999999,0.077592,-0.145302,-0.2275,-5.495,-3.0975
256,202193,0.9846620999999999,0.07710399999999999,-0.146644,-0.2275,-5.5825,-3.0625
257,202290,0.9862479999999999,0.077348,-0.14457,-0.175,-5.4775,-3.0975
258,202387,0.9878341,0.07503,-0.144082,-0.0525,-5.565,-3.115
259,202484,0.987956,0.07527400000000001,-0.142618,0.07,-5.7575,-3.1325
260,202581,0.9890540000000001,0.074786,-0.14188599999999998,0.0525,-5.8275,-3.15
261,202677,0.9892981,0.07332201,-0.141764,-0.0175,-5.775,-3.1675
262,202774,0.9890540000000001,0.071614,-0.142496,-0.0175,-5.7925,-3.2375
263,202871,0.9874681000000001,0.0732,-0.14274,-0.1575,-5.7225,-3.325
264,202968,0.9874681000000001,0.0732,-0.144082,-0.385,-5.5475,-3.29
265,203065,0.9890540000000001,0.07551801,-0.144204,-0.4375,-5.4775,-3.185
266,203161,0.986858,0.076738,-0.14579,-0.5075,-5.3725,-3.185
267,203258,0.9878341,0.07551801,-0.145424,-0.56,-5.32,-3.1325
268,203355,0.987102,0.074664,-0.14469200000000002,-0.5075,-5.46,-3.08
269,203452,0.9874681000000001,0.075762,-0.14383800000000002,-0.35,-5.5125,-3.1325
270,203549,0.9864921,0.07686,-0.14566800000000002,-0.2275,-5.495,-3.2725
271,203645,0.984296,0.07527400000000001,-0.14579,-0.2975,-5.5825,-3.2375
272,203742,0.984906,0.07442,-0.14688800000000002,-0.21,-5.635,-3.185
273,203839,0.9851501,0.07527400000000001,-0.144448,-0.1225,-5.5825,-3.2725
274,203936,0.9856379999999999,0.07600599999999999,-0.14493599999999998,-0.175,-5.4775,-3.3075
275,204033,0.984906,0.07564,-0.144448,-0.2625,-5.495,-3.2375
276,204129,0.9834421,0.07527400000000001,-0.146156,-0.1575,-5.53,-3.15
277,204226,0.984906,0.074542,-0.146278,-0.245,-5.46,-3.0975
278,204323,0.9862479999999999,0.074054,-0.14762,-0.2625,-5.4075,-3.22
279,204420,0.985516,0.074664,-0.147376,-0.28,-5.32,-3.2025
280,204517,0.9850280999999999,0.07356601,-0.148596,-0.245,-5.3375,-3.2025
281,204613,0.984784,0.074054,-0.14762,-0.28,-5.215,-3.29
282,204710,0.9845401,0.07259,-0.1464,-0.315,-5.215,-3.3075
283,204807,0.9856379999999999,0.07246799999999999,-0.145302,-0.21,-5.0925,-3.3425
284,204904,0.9845401,0.072712,-0.147254,-0.14,-5.145,-3.2725
285,205001,0.9863700000000001,0.074664,-0.14786400000000002,-0.1925,-5.215,-3.3775
286,205097,0.9851501,0.072956,-0.146644,-0.2275,-5.145,-3.325
287,205194,0.985516,0.07503,-0.14579,-0.245,-5.075,-3.3425
288,205291,0.985516,0.07442,-0.146034,-0.1575,-5.0925,-3.3775
289,205388,0.9863700000000001,0.07503,-0.14579,-0.0875,-5.0925,-3.3425
290,205485,0.987956,0.07344400000000001,-0.145424,0.0,-5.075,-3.3775
291,205581,0.9863700000000001,0.074664,-0.144204,-0.1225,-5.2325,-3.465
292,205678,0.987956,0.07259,-0.144326,-0.0525,-5.18,-3.465
293,205775,0.9886881,0.07173600000000001,-0.14457,-0.1225,-5.04,-3.4125
294,205872,0.9883221,0.0732,-0.143716,-0.245,-5.0925,-3.4825
295,205968,0.988566,0.074542,-0.14347200000000002,-0.4025,-5.005,-3.4475
296,206065,0.9863700000000001,0.07356601,-0.14347200000000002,-0.49,-4.8825,-3.325
297,206162,0.9863700000000001,0.07588400000000001,-0.14383800000000002,-0.4725,-4.655,-3.3075
298,206259,0.9867360999999999,0.07625,-0.14457,-0.42,-4.515,-3.465
299,206356,0.984174,0.077714,-0.145302,-0.35,-4.3925,-3.43
300,206453,0.981978,0.07869,-0.145912,-0.35,-4.5325,-3.395
301,206549,0.9840521000000001,0.077958,-0.145058,-0.28,-4.445,-3.395
302,206646,0.984784,0.077592,-0.146156,-0.14,-4.515,-3.36
303,206743,0.9852719999999999,0.07856801,-0.14713199999999999,-0.105,-4.6375,-3.3775
304,206840,0.9856379999999999,0.07808001,-0.146522,-0.0525,-4.7075,-3.395
305,206936,0.9873460999999999,0.077958,-0.146156,0.0,-4.7775,-3.3775
306,207033,0.9869800999999999,0.07637200000000001,-0.145912,0.07,-4.9875,-3.29
307,207130,0.9873460999999999,0.07637200000000001,-0.14518,0.07,-5.11,-3.29
308,207227,0.987712,0.07747001,-0.142008,0.0525,-5.18,-3.29
309,207324,0.9873460999999999,0.07686,-0.14347200000000002,0.0,-5.11,-3.3425
310,207420,0.9867360999999999,0.076738,-0.141398,-0.035,-5.0925,-3.2375
311,207517,0.9867360999999999,0.07625,-0.140422,-0.0875,-5.005,-3.255
312,207614,0.9860040999999999,0.076494,-0.13969,-0.0175,-4.9875,-3.36
313,207711,0.986614,0.07686,-0.14090999999999998,0.035,-5.0925,-3.43
314,207808,0.9864921,0.076494,-0.14188599999999998,0.0,-5.005,-3.4825
315,207904,0.9852719999999999,0.074786,-0.142252,-0.07,-4.8825,-3.43
316,208001,0.986614,0.07564,-0.142984,-0.035,-5.04,-3.4125
317,208098,0.9864921,0.076616,-0.141764,-0.07,-4.9175,-3.395
318,208195,0.987712,0.075396,-0.142984,-0.1225,-4.9175,-3.395
319,208292,0.9882001,0.074542,-0.142252,-0.14,-4.9525,-3.325
320,208388,0.9867360999999999,0.075762,-0.146034,-0.035,-5.075,-3.255
321,208485,0.9861260000000001,0.07490801,-0.145302,-0.0875,-5.0925,-3.22
322,208582,0.9864921,0.073688,-0.145302,-0.035,-5.1625,-3.2025
323,208679,0.9851501,0.07234600000000001,-0.146156,-0.14,-5.3025,-3.255
324,208776,0.9864921,0.07307801,-0.146278,-0.14,-5.355,-3.1675
325,208872,0.984418,0.07527400000000001,-0.14579,-0.2275,-5.4775,-3.1325
326,208969,0.984174,0.07698201,-0.146156,-0.3325,-5.67,-3.1325
327,209066,0.9823440999999999,0.077958,-0.14457,-0.35,-5.74,-3.0975
328,209163,0.980758,0.07747001,-0.14383800000000002,-0.2975,-5.775,-3.08
329,209260,0.9829540000000001,0.077836,-0.14213,-0.1925,-5.7925,-3.08
330,209356,0.9853940999999999,0.07600599999999999,-0.14152,-0.14,-5.8625,-3.08
331,209453,0.988078,0.07417601,-0.141032,-0.1225,-5.9325,-3.0625
332,209550,0.9910059999999999,0.0732,-0.140422,0.035,-5.88,-3.1675
333,209647,0.9924700000000001,0.07198,-0.140544,0.0525,-5.845,-3.22
334,209744,0.9924700000000001,0.07222401,-0.139568,-0.0175,-5.88,-3.29
335,209840,0.9916161,0.072712,-0.13969,-0.245,-5.495,-3.3075
336,209937,0.9886881,0.07344400000000001,-0.141398,-0.2275,-5.25,-3.36
337,210034,0.9883221,0.07417601,-0.142252,-0.21,-5.0225,-3.2375
338,210131,0.987224,0.07625,-0.144204,-0.175,-4.83,-3.2725
339,210228,0.986858,0.078446,-0.144448,-0.2275,-4.7775,-3.2025
340,210325,0.984906,0.077958,-0.146034,-0.2275,-4.865,-3.2375
341,210421,0.9852719999999999,0.077592,-0.1464,-0.1575,-4.9,-3.2375
342,210518,0.9845401,0.07625,-0.14566800000000002,-0.105,-4.9875,-3.2375
343,210615,0.9850280999999999,0.07503,-0.1464,-0.105,-5.1275,-3.2725
344,210712,0.983564,0.07381001,-0.14457,-0.07,-5.425,-3.2375
345,210809,0.985516,0.074298,-0.146034,-0.0525,-5.5475,-3.325
346,210905,0.984784,0.07490801,-0.145546,0.0175,-5.6875,-3.3075
347,211002,0.984906,0.073688,-0.14518,0.035,-5.845,-3.255
348,211099,0.984784,0.074298,-0.142862,-0.035,-5.8975,-3.29
349,211196,0.9836860999999999,0.07515201,-0.142374,0.0,-5.9325,-3.36
350,211293,0.985516,0.07588400000000001,-0.14383800000000002,0.1225,-5.9325,-3.2375
351,211389,0.987102,0.076494,-0.14347200000000002,0.0175,-5.915,-3.2025
352,211486,0.9890540000000001,0.07417601,-0.14310599999999998,-0.0175,-5.5825,-3.29
353,211583,0.9895421,0.07612801,-0.141398,0.0,-5.4075,-3.22
354,211680,0.989664,0.07612801,-0.141154,-0.105,-5.145,-3.2725
355,211777,0.98759,0.075396,-0.142374,-0.0525,-5.215,-3.255
356,211873,0.98759,0.07625,-0.142984,-0.14,-5.3025,-3.2725
357,211970,0.98759,0.07832401,-0.144448,-0.1225,-5.3725,-3.22
358,212067,0.987712,0.077836,-0.144814,-0.07,-5.25,-3.1325
359,212164,0.9864921,0.07747001,-0.14469200000000002,-0.0875,-5.1275,-3.15
360,212261,0.983808,0.077348,-0.14396,0.0,-5.3725,-3.15
361,212357,0.9817341,0.07722601,-0.14396,-0.035,-5.53,-3.22
362,212454,0.9833200000000001,0.07600599999999999,-0.14347200000000002,-0.035,-5.4075,-3.2725
363,212551,0.9834421,0.07564,-0.144082,-0.0175,-5.425,-3.36
364,212648,0.9851501,0.076616,-0.143594,-0.14,-5.46,-3.325
365,212745,0.9886881,0.07503,-0.14347200000000002,-0.1575,-5.4425,-3.2725
366,212841,0.988566,0.074786,-0.145302,-0.175,-5.4075,-3.1675
367,212938,0.9895421,0.07503,-0.144326,-0.245,-5.3375,-3.115
368,213035,0.989664,0.07551801,-0.145302,-0.2275,-5.25,-3.1325
369,213132,0.9888101,0.07625,-0.145302,-0.1925,-5.1975,-3.1325
370,213229,0.987224,0.076616,-0.14579,-0.0525,-5.0925,-3.0625
371,213325,0.9846620999999999,0.077836,-0.14579,0.0525,-5.145,-3.115
372,213422,0.983564,0.077714,-0.144326,0.14,-5.1625,-3.1675
373,213519,0.981978,0.079422,-0.146034,0.245,-5.1625,-3.185
374,213616,0.9828321,0.079056,-0.144082,0.3325,-5.285,-3.255
375,213713,0.98393,0.077348,-0.146278,0.3675,-5.2325,-3.255
376,213809,0.9845401,0.07612801,-0.14493599999999998,0.35,-5.3025,-3.2725
377,213906,0.986614,0.074542,-0.14383800000000002,0.245,-5.3725,-3.2725
378,214003,0.985516,0.074542,-0.145424,0.21,-5.3725,-3.2375
379,214100,0.9860040999999999,0.07344400000000001,-0.144326,0.1575,-5.285,-3.2375
380,214197,0.987224,0.071004,-0.14493599999999998,0.1575,-5.285,-3.2725
381,214293,0.988566,0.072712,-0.144448,0.0175,-5.215,-3.29
382,214390,0.989176,0.07137001,-0.145058,0.0175,-5.18,-3.2725
383,214487,0.9892981,0.072712,-0.144448,-0.0175,-5.11,-3.29
384,214584,0.9897860999999999,0.07259,-0.145058,0.0875,-5.145,-3.3425
385,214681,0.9886881,0.074786,-0.14335,0.0525,-5.25,-3.255
386,214777,0.9883221,0.075396,-0.143716,0.105,-5.355,-3.2025
387,214874,0.9869800999999999,0.07551801,-0.14310599999999998,0.105,-5.46,-3.22
388,214971,0.9862479999999999,0.075396,-0.142618,0.0525,-5.4425,-3.2025
389,215068,0.984906,0.07515201,-0.14188599999999998,0.105,-5.3025,-3.2375
390,215165,0.9857600000000001,0.074664,-0.142618,0.14,-5.3025,-3.255
391,215262,0.9846620999999999,0.074664,-0.141032,0.1225,-5.285,-3.3075
392,215358,0.9863700000000001,0.075762,-0.14274,0.0,-5.2675,-3.3075
393,215455,0.986614,0.075396,-0.14274,0.0,-5.32,-3.185
394,215552,0.987102,0.074786,-0.143228,-0.0875,-5.2325,-3.1675
395,215649,0.988566,0.07442,-0.143716,-0.175,-5.145,-3.2375
396,215746,0.9890540000000001,0.074054,-0.14518,-0.28,-5.005,-3.255
397,215842,0.9882001,0.074054,-0.145058,-0.2975,-5.005,-3.15
398,215939,0.9860040999999999,0.07503,-0.14518,-0.2975,-5.11,-3.3075
399,216036,0.9857600000000001,0.07490801,-0.145546,-0.245,-5.075,-3.36
400,216133,0.9863700000000001,0.07490801,-0.144204,-0.0175,-5.11,-3.3075
401,216230,0.9874681000000001,0.07625,-0.143716,0.1575,-5.32,-3.3425
402,216326,0.9884440000000001,0.077836,-0.143228,0.1925,-5.39,-3.325
403,216423,0.988566,0.07747001,-0.143228,0.2625,-5.4425,-3.325
404,216520,0.987712,0.077836,-0.142252,0.3325,-5.705,-3.325
405,216617,0.986614,0.07710399999999999,-0.1403,0.105,-5.635,-3.325
406,216714,0.9862479999999999,0.076494,-0.141398,0.105,-5.4425,-3.325
407,216810,0.9851501,0.074786,-0.143228,-0.035,-5.32,-3.29
408,216907,0.9863700000000001,0.07600599999999999,-0.144326,-0.21,-5.1975,-3.2025
409,217004,0.9863700000000001,0.07503,-0.146644,-0.105,-5.0925,-3.185
410,217101,0.9862479999999999,0.07503,-0.145912,-0.105,-5.145,-3.1675
411,217198,0.986858,0.07588400000000001,-0.146644,0.0175,-5.215,-3.2725
412,217294,0.9869800999999999,0.07637200000000001,-0.145302,0.07,-5.18,-3.2025
413,217391,0.9852719999999999,0.07527400000000001,-0.146034,0.07,-5.2675,-3.3075
414,217488,0.9853940999999999,0.07625,-0.14469200000000002,0.0875,-5.2675,-3.3775
415,217585,0.9856379999999999,0.07612801,-0.144814,0.14,-5.18,-3.3775
416,217682,0.9852719999999999,0.075762,-0.14518,0.0875,-5.285,-3.3425
417,217778,0.9857600000000001,0.07527400000000001,-0.14457,0.1225,-5.32,-3.3075
418,217875,0.9852719999999999,0.074664,-0.14469200000000002,0.1225,-5.32,-3.36
419,217972,0.9858819999999999,0.07442,-0.144814,0.1225,-5.25,-3.3075
420,218069,0.987224,0.07442,-0.142374,0.07,-5.285,-3.325
421,218166,0.986858,0.07612801,-0.14152,0.14,-5.39,-3.2375
422,218262,0.9867360999999999,0.07637200000000001,-0.142618,0.0,-5.4075,-3.1325
423,218359,0.986858,0.07503,-0.143716,-0.0525,-5.2325,-2.9925
424,218456,0.9863700000000001,0.07515201,-0.142252,-0.035,-4.97,-3.0975
425,218553,0.98759,0.07527400000000001,-0.14188599999999998,-0.1225,-5.005,-3.115
426,218650,0.9869800999999999,0.07515201,-0.142496,-0.0875,-5.005,-3.115
427,218746,0.9869800999999999,0.07332201,-0.144326,-0.07,-4.97,-3.115
428,218843,0.9869800999999999,0.073688,-0.14518,-0.14,-5.1275,-3.08
429,218940,0.987956,0.074786,-0.14310599999999998,-0.1225,-5.1625,-3.15
430,219037,0.9874681000000001,0.074298,-0.14383800000000002,-0.175,-5.0225,-3.045
431,219134,0.9864921,0.074054,-0.14310599999999998,-0.175,-5.0925,-3.0975
432,219230,0.9873460999999999,0.07564,-0.144326,-0.175,-5.1625,-3.22
433,219327,0.9851501,0.075396,-0.141398,-0.14,-5.215,-3.22
434,219424,0.983808,0.075762,-0.142252,-0.14,-5.425,-3.185
435,219521,0.9853940999999999,0.075762,-0.14005599999999999,-0.14,-5.4425,-3.15
436,219618,0.987956,0.074542,-0.14274,-0.1925,-5.32,-3.115
437,219714,0.9886881,0.074664,-0.143228,-0.1225,-5.425,-3.08
438,219811,0.989176,0.074298,-0.142496,-0.0525,-5.285,-3.0625
439,219908,0.989176,0.07515201,-0.142496,-0.0525,-5.39,-3.08
440,220005,0.9890540000000001,0.076738,-0.141398,0.0,-5.3375,-3.115
441,220102,0.988566,0.07588400000000001,-0.142862,-0.07,-5.25,-3.0625
442,220198,0.9863700000000001,0.07698201,-0.142496,-0.175,-5.2325,-3.115
443,220295,0.987102,0.07625,-0.143716,-0.105,-5.145,-3.08
444,220392,0.9860040999999999,0.07515201,-0.14347200000000002,-0.1575,-5.005,-3.1675
445,220489,0.9851501,0.07417601,-0.143228,-0.21,-5.005,-3.255
446,220586,0.9846620999999999,0.0732,-0.14335,-0.1225,-5.005,-3.2375
447,220683,0.9851501,0.07332201,-0.14347200000000002,-0.14,-5.11,-3.2025
448,220779,0.9850280999999999,0.07393200000000001,-0.144326,-0.1575,-5.11,-3.2375
449,220876,0.9853940999999999,0.0732,-0.14383800000000002,-0.21,-5.11,-3.255
450,220973,0.987712,0.072956,-0.14164200000000002,-0.2275,-5.0925,-3.1675
451,221070,0.9864921,0.07503,-0.141764,-0.175,-5.0925,-3.22
452,221167,0.987956,0.075396,-0.141764,-0.1575,-5.11,-3.255
453,221263,0.989176,0.075396,-0.14188599999999998,-0.175,-5.11,-3.22
454,221360,0.988078,0.076494,-0.144448,-0.1575,-5.1975,-3.185
455,221457,0.9890540000000001,0.076616,-0.144204,-0.1225,-5.18,-3.22
456,221554,0.987712,0.07637200000000001,-0.14518,-0.0875,-5.1275,-3.15
457,221650,0.987712,0.07515201,-0.14383800000000002,0.0525,-5.1975,-3.2025
458,221747,0.987102,0.075396,-0.143228,-0.0175,-5.1975,-3.2025
459,221844,0.986858,0.07381001,-0.142984,0.105,-5.2675,-3.2375
460,221941,0.985516,0.07173600000000001,-0.142496,0.175,-5.1975,-3.255
461,222038,0.9856379999999999,0.07222401,-0.142008,0.1225,-5.0225,-3.22
462,222135,0.9846620999999999,0.07356601,-0.142984,0.105,-5.0575,-3.22
463,222231,0.9846620999999999,0.07417601,-0.141398,0.0,-5.2325,-3.36
464,222328,0.9864921,0.074664,-0.139812,0.105,-5.215,-3.325
465,222425,0.9862479999999999,0.074298,-0.14152,0.035,-5.11,-3.3075
466,222522,0.98759,0.07527400000000001,-0.141276,-0.1225,-5.3375,-3.2725
467,222618,0.988566,0.07417601,-0.141398,-0.2275,-5.355,-3.2025
468,222715,0.9883221,0.074664,-0.142008,-0.28,-5.4425,-3.1325
469,222812,0.9888101,0.075396,-0.142862,-0.3675,-5.53,-3.22
470,222909,0.9901521000000001,0.07417601,-0.143716,-0.35,-5.39,-3.3425
471,223006,0.9888101,0.07698201,-0.14383800000000002,-0.28,-5.285,-3.2725
472,223103,0.987712,0.07551801,-0.14396,-0.1575,-5.46,-3.15
473,223199,0.989664,0.078202,-0.14383800000000002,-0.0175,-5.53,-3.1325
474,223296,0.9882001,0.07722601,-0.144204,0.0875,-5.3375,-3.045
475,223393,0.986614,0.07527400000000001,-0.142252,0.1925,-5.3375,-3.115
476,223490,0.9827101,0.073688,-0.140666,0.2975,-5.4425,-3.255
477,223587,0.9840521000000001,0.07307801,-0.14078800000000002,0.2975,-5.1975,-3.3075
478,223683,0.9858819999999999,0.07417601,-0.13908,0.0875,-5.11,-3.3075
479,223780,0.9858819999999999,0.07173600000000001,-0.141398,0.0525,-5.11,-3.3425
480,223877,0.9874681000000001,0.07246799999999999,-0.141764,0.0875,-5.0575,-3.36
481,223974,0.9883221,0.071858,-0.14213,-0.0525,-5.1275,-3.29
482,224071,0.989176,0.07393200000000001,-0.141398,-0.1925,-5.32,-3.2375
483,224167,0.9867360999999999,0.07381001,-0.140544,-0.4025,-5.425,-3.15
484,224264,0.9861260000000001,0.074298,-0.144082,-0.5775,-5.3725,-3.2025
485,224361,0.9853940999999999,0.074786,-0.145424,-0.5075,-5.3025,-3.255
486,224458,0.9864921,0.07564,-0.146034,-0.42,-5.2325,-3.325
487,224555,0.986614,0.076738,-0.14566800000000002,-0.245,-5.2675,-3.325
488,224651,0.9857600000000001,0.076738,-0.1464,-0.035,-5.355,-3.36
489,224748,0.9857600000000001,0.077958,-0.145424,0.105,-5.5125,-3.395
490,224845,0.9867360999999999,0.07710399999999999,-0.14518,0.28,-5.4425,-3.325
491,224942,0.9858819999999999,0.076616,-0.142374,0.315,-5.5125,-3.2725
492,225039,0.9852719999999999,0.074664,-0.142496,0.315,-5.53,-3.2725
493,225135,0.984296,0.07356601,-0.142496,0.3675,-5.39,-3.2025
494,225232,0.9840521000000001,0.0732,-0.142252,0.2275,-5.39,-3.2725
495,225329,0.984296,0.07173600000000001,-0.141032,0.035,-5.25,-3.2725
496,225426,0.984784,0.072712,-0.1403,-0.0525,-5.11,-3.3075
497,225523,0.9853940999999999,0.071248,-0.14164200000000002,-0.1225,-5.0225,-3.3075
498,225619,0.987712,0.071858,-0.14347200000000002,-0.14,-5.0575,-3.3075
499,225716,0.9874681000000001,0.072102,-0.142862,-0.2625,-5.0225,-3.255
500,225813,0.987102,0.07393200000000001,-0.144082,-0.4025,-5.18,-3.22
501,225910,0.9888101,0.074054,-0.147376,-0.4725,-5.3375,-3.22
502,226007,0.9873460999999999,0.074542,-0.147254,-0.56,-5.39,-3.2375
503,226103,0.986614,0.07588400000000001,-0.147376,-0.4025,-5.2325,-3.22
504,226200,0.9860040999999999,0.077836,-0.146156,-0.2625,-5.25,-3.255
505,226297,0.98393,0.078202,-0.144448,-0.105,-5.355,-3.255
506,226394,0.984174,0.077836,-0.144326,0.105,-5.25,-3.22
507,226491,0.986614,0.076616,-0.142496,0.2275,-5.215,-3.3425
508,226587,0.986614,0.07503,-0.14310599999999998,0.3675,-5.25,-3.3775
509,226684,0.9884440000000001,0.07417601,-0.139812,0.4025,-5.215,-3.36
510,226781,0.9889319999999999,0.07356601,-0.13969,0.315,-5.1625,-3.395
511,226878,0.9882001,0.07173600000000001,-0.137372,0.1925,-5.1275,-3.3775
512,226975,0.9882001,0.072712,-0.138958,0.0,-5.145,-3.3425
513,227071,0.98759,0.07234600000000001,-0.140178,-0.0875,-5.04,-3.2725
514,227168,0.9884440000000001,0.071858,-0.14090999999999998,-0.28,-4.8825,-3.2725
515,227265,0.987712,0.074298,-0.139202,-0.385,-4.76,-3.255
516,227362,0.9861260000000001,0.07503,-0.142008,-0.2975,-4.725,-3.22
517,227459,0.9861260000000001,0.07722601,-0.14274,-0.3325,-4.83,-3.2375
518,227555,0.9867360999999999,0.07698201,-0.14383800000000002,-0.2975,-4.5675,-3.2375
519,227652,0.987224,0.076494,-0.14383800000000002,-0.105,-4.69,-3.1675
520,227749,0.9869800999999999,0.07722601,-0.14457,0.0175,-4.8475,-3.22
521,227846,0.9858819999999999,0.077348,-0.143228,0.0525,-4.9175,-3.08
522,227943,0.9852719999999999,0.07747001,-0.144326,0.0525,-4.9,-3.045
523,228039,0.986614,0.075762,-0.144326,0.1225,-5.075,-3.045
524,228136,0.9860040999999999,0.07490801,-0.14274,0.0875,-5.145,-3.115
525,228233,0.986614,0.07344400000000001,-0.140544,0.105,-5.1625,-3.1675
526,228330,0.9862479999999999,0.072956,-0.141032,-0.035,-5.355,-3.1675
527,228427,0.9861260000000001,0.072956,-0.140178,-0.21,-5.495,-3.185
528,228524,0.9862479999999999,0.073688,-0.140544,-0.245,-5.32,-3.185
529,228620,0.9860040999999999,0.07344400000000001,-0.139324,-0.2975,-5.215,-3.2025
530,228717,0.9857600000000001,0.07259,-0.13969,-0.315,-5.1625,-3.2025
531,228814,0.9850280999999999,0.07307801,-0.138714,-0.2975,-5.1275,-3.22
532,228911,0.98759,0.07246799999999999,-0.142008,-0.1925,-4.8475,-3.255
533,229008,0.988566,0.073688,-0.142496,-0.245,-4.585,-3.1675
534,229104,0.9894200000000001,0.07527400000000001,-0.142618,-0.2275,-4.76,-3.1325
535,229201,0.9884440000000001,0.07490801,-0.141154,-0.175,-4.9175,-2.9925
536,229298,0.98759,0.077592,-0.142252,-0.1575,-4.97,-2.975
537,229395,0.9886881,0.07612801,-0.14396,-0.07,-5.1625,-2.975
538,229492,0.9874681000000001,0.07600599999999999,-0.142984,-0.2275,-5.1625,-2.94
539,229588,0.987224,0.07600599999999999,-0.14310599999999998,-0.2275,-5.11,-2.9575
540,229685,0.9864921,0.076494,-0.14347200000000002,-0.315,-5.1625,-3.0275
541,229782,0.9860040999999999,0.075396,-0.141276,-0.385,-5.3725,-3.0975
542,229879,0.9867360999999999,0.07393200000000001,-0.139324,-0.28,-5.3725,-3.045
543,229976,0.9864921,0.07344400000000001,-0.13908,-0.1925,-5.285,-2.9925
544,230072,0.986858,0.074786,-0.138958,-0.175,-5.4425,-3.0975
545,230169,0.9897860999999999,0.073688,-0.138714,-0.245,-5.3725,-3.0625
546,230266,0.9890540000000001,0.074298,-0.138836,-0.175,-5.425,-3.01
547,230363,0.9878341,0.072102,-0.138226,-0.1225,-5.3375,-3.0625
548,230460,0.9890540000000001,0.07027201,-0.138226,0.0,-5.355,-3.0975
549,230556,0.9894200000000001,0.07112601,-0.139934,-0.07,-5.1975,-3.2025
550,230653,0.98759,0.07076001,-0.140666,0.0,-5.11,-3.29
551,230750,0.988078,0.07259,-0.140422,-0.0175,-5.0575,-3.325
552,230847,0.989176,0.074786,-0.140666,0.0,-4.9875,-3.325
553,230944,0.986858,0.074054,-0.140544,-0.175,-5.075,-3.255
554,231041,0.9863700000000001,0.074298,-0.142374,-0.245,-5.285,-3.1675
555,231137,0.9862479999999999,0.0732,-0.141764,-0.3325,-5.285,-3.1325
556,231234,0.984784,0.07234600000000001,-0.14164200000000002,-0.4725,-5.145,-3.22
557,231331,0.9850280999999999,0.07259,-0.1403,-0.455,-5.075,-3.3075
558,231428,0.9869800999999999,0.07173600000000001,-0.142862,-0.49,-5.2325,-3.3775
559,231525,0.9861260000000001,0.074542,-0.14213,-0.49,-5.1975,-3.43
560,231621,0.9867360999999999,0.07612801,-0.14188599999999998,-0.35,-5.18,-3.465
561,231718,0.987102,0.076616,-0.14188599999999998,-0.1925,-5.3025,-3.4475
562,231815,0.987956,0.07625,-0.141154,-0.0175,-5.1975,-3.4825
563,231912,0.9862479999999999,0.07808001,-0.141398,0.07,-5.11,-3.465
564,232009,0.987956,0.076738,-0.140422,0.1925,-5.075,-3.325
565,232105,0.9860040999999999,0.07600599999999999,-0.139812,0.105,-5.0925,-3.36
566,232202,0.9863700000000001,0.07393200000000001,-0.13859200000000002,0.175,-5.1625,-3.3425
567,232299,0.984906,0.071614,-0.13859200000000002,0.0175,-5.3025,-3.395
568,232396,0.9863700000000001,0.070882,-0.138714,-0.07,-5.46,-3.465
569,232493,0.9869800999999999,0.071858,-0.139324,-0.1925,-5.425,-3.5175
570,232590,0.9884440000000001,0.070882,-0.139202,-0.21,-5.5125,-3.4825
571,232686,0.9889319999999999,0.06941801,-0.140666,-0.3325,-5.6525,-3.4125
572,232783,0.9903959999999999,0.071858,-0.140544,-0.385,-5.74,-3.325
573,232880,0.990274,0.07234600000000001,-0.138226,-0.4025,-5.7225,-3.36
574,232977,0.990884,0.07381001,-0.13847,-0.525,-5.8275,-3.4475
575,233074,0.9900300999999999,0.072712,-0.137494,-0.595,-5.9325,-3.36
576,233170,0.988078,0.07344400000000001,-0.13944600000000001,-0.4725,-5.81,-3.4125
577,233267,0.9889319999999999,0.07527400000000001,-0.139812,-0.315,-5.9325,-3.465
578,233364,0.989664,0.077348,-0.14090999999999998,-0.2275,-5.985,-3.4125
579,233461,0.988566,0.07869,-0.140422,-0.245,-5.845,-3.395
580,233558,0.9864921,0.0793,-0.142496,-0.0875,-5.775,-3.4475
581,233654,0.9858819999999999,0.079056,-0.14213,-0.0875,-5.81,-3.3425
582,233751,0.9867360999999999,0.07869,-0.142984,0.035,-5.845,-3.3775
583,233848,0.9862479999999999,0.07564,-0.14347200000000002,0.0,-5.81,-3.255
584,233945,0.9857600000000001,0.07503,-0.144814,-0.14,-5.7575,-3.2375
585,234042,0.984784,0.07381001,-0.144814,-0.2625,-5.565,-3.29
586,234138,0.984174,0.07344400000000001,-0.145058,-0.49,-5.4775,-3.3075
587,234235,0.9829540000000001,0.074054,-0.145058,-0.4025,-5.5125,-3.3075
588,234332,0.984906,0.07344400000000001,-0.144326,-0.3325,-5.4075,-3.325
589,234429,0.9852719999999999,0.07442,-0.14310599999999998,-0.1225,-5.285,-3.29
590,234526,0.9863700000000001,0.07564,-0.14213,0.07,-5.3025,-3.255
591,234622,0.9873460999999999,0.07527400000000001,-0.14078800000000002,0.1575,-5.3025,-3.3075
592,234719,0.988566,0.07625,-0.139934,0.1925,-5.215,-3.36
593,234816,0.9889319999999999,0.07600599999999999,-0.138958,0.1925,-5.2675,-3.325
594,234913,0.9888101,0.077714,-0.13944600000000001,0.175,-5.4075,-3.255
595,235010,0.988078,0.077836,-0.14090999999999998,-0.035,-5.5125,-3.2375
596,235106,0.9882001,0.07710399999999999,-0.14188599999999998,-0.105,-5.6175,-3.255
597,235203,0.9863700000000001,0.078446,-0.141764,-0.315,-5.53,-3.2725
598,235300,0.984784,0.076738,-0.142374,-0.42,-5.5475,-3.22
599,235397,0.9836860999999999,0.07588400000000001,-0.143228,-0.4375,-5.5125,-3.2025
600,235494,0.983808,0.07344400000000001,-0.14469200000000002,-0.3675,-5.4775,-3.185
601,235590,0.984784,0.07246799999999999,-0.14469200000000002,-0.245,-5.3025,-3.22
602,235687,0.9830760000000001,0.071004,-0.14518,-0.175,-5.2325,-3.29
603,235784,0.98393,0.071248,-0.145424,-0.1575,-5.18,-3.22
604,235881,0.9856379999999999,0.07112601,-0.14383800000000002,-0.0875,-5.11,-3.3075
605,235978,0.986614,0.07381001,-0.142862,0.035,-5.075,-3.29
606,236074,0.987712,0.07381001,-0.142252,0.0,-5.04,-3.3075
607,236171,0.988566,0.074054,-0.142496,-0.0175,-5.11,-3.3075
608,236268,0.9886881,0.07417601,-0.141032,-0.0525,-5.215,-3.185
609,236365,0.9883221,0.07234600000000001,-0.14152,-0.21,-5.3025,-3.255
610,236462,0.9874681000000001,0.07222401,-0.142496,-0.5425,-5.4075,-3.3075
611,236558,0.9861260000000001,0.07393200000000001,-0.14188599999999998,-0.5775,-5.46,-3.29
612,236655,0.9858819999999999,0.07417601,-0.14164200000000002,-0.56,-5.425,-3.3075
613,236752,0.9873460999999999,0.076616,-0.142374,-0.6825,-5.425,-3.3075
614,236849,0.986614,0.07722601,-0.142374,-0.595,-5.25,-3.36
615,236946,0.9862479999999999,0.07637200000000001,-0.142984,-0.4375,-5.32,-3.3425
616,237042,0.9883221,0.077714,-0.14383800000000002,-0.245,-5.3375,-3.3425
617,237139,0.9889319999999999,0.077592,-0.14396,-0.035,-5.3025,-3.22
618,237236,0.990518,0.07698201,-0.142618,-0.035,-5.32,-3.22
619,237333,0.9890540000000001,0.07344400000000001,-0.142252,0.0175,-5.32,-3.2025
620,237430,0.9897860999999999,0.07344400000000001,-0.141032,0.035,-5.3375,-3.3075
621,237526,0.988078,0.071858,-0.138836,-0.07,-5.3025,-3.2375
622,237623,0.9862479999999999,0.071614,-0.13908,-0.1225,-5.3725,-3.3075
623,237720,0.9878341,0.07222401,-0.13944600000000001,-0.315,-5.215,-3.3775
624,237817,0.98759,0.07283401,-0.139812,-0.4025,-5.1625,-3.3425
625,237914,0.9878341,0.07503,-0.13944600000000001,-0.42,-5.215,-3.3425
626,238010,0.985516,0.07612801,-0.138958,-0.4725,-5.1975,-3.36
627,238107,0.9867360999999999,0.07832401,-0.14213,-0.2975,-5.04,-3.2725
628,238204,0.987102,0.08052000000000001,-0.141032,-0.28,-4.8825,-3.325
629,238301,0.9856379999999999,0.080398,-0.139812,-0.21,-4.795,-3.3425
630,238398,0.9853940999999999,0.080276,-0.142374,-0.14,-4.83,-3.325
631,238494,0.9861260000000001,0.07856801,-0.142984,-0.07,-4.795,-3.3775
632,238591,0.9851501,0.077592,-0.145546,-0.0875,-4.6725,-3.3425
633,238688,0.9864921,0.07698201,-0.145302,0.0525,-4.7425,-3.3775
634,238785,0.9851501,0.075396,-0.143228,0.175,-4.9175,-3.36
635,238882,0.9856379999999999,0.07588400000000001,-0.143594,0.035,-4.97,-3.3775
636,238978,0.9856379999999999,0.07490801,-0.14274,0.105,-5.1625,-3.36
637,239075,0.9863700000000001,0.074054,-0.14213,-0.0175,-5.32,-3.325
638,239172,0.98759,0.073688,-0.141764,-0.0875,-5.355,-3.325
639,239269,0.9861260000000001,0.074054,-0.14152,-0.0175,-5.53,-3.2725
640,239366,0.987102,0.0732,-0.141764,0.0,-5.6,-3.2375
641,239462,0.9853940999999999,0.0732,-0.139324,0.0175,-5.4075,-3.3075
642,239559,0.9869800999999999,0.07490801,-0.139812,0.0,-5.3025,-3.2725
643,239656,0.987102,0.07490801,-0.140666,-0.0875,-5.425,-3.2025
644,239753,0.9867360999999999,0.07564,-0.141032,-0.07,-5.39,-3.22
645,239850,0.988566,0.075762,-0.140666,-0.1225,-5.1625,-3.3075
646,239947,0.988078,0.07551801,-0.138958,-0.1225,-4.9875,-3.36
647,240043,0.98759,0.07600599999999999,-0.140544,-0.0875,-4.9525,-3.395
648,240140,0.9883221,0.075762,-0.139324,-0.14,-4.8825,-3.4125
649,240237,0.987102,0.07490801,-0.139568,-0.1225,-4.97,-3.43
650,240334,0.98759,0.07393200000000001,-0.14164200000000002,-0.175,-4.9525,-3.325
651,240431,0.9895421,0.07307801,-0.14164200000000002,-0.21,-5.11,-3.29
652,240527,0.9886881,0.07222401,-0.14090999999999998,-0.28,-4.9525,-3.3075
653,240624,0.9874681000000001,0.07442,-0.14005599999999999,-0.315,-5.0575,-3.2375
654,240721,0.98759,0.07344400000000001,-0.141398,-0.385,-5.04,-3.185
655,240818,0.986614,0.07393200000000001,-0.139568,-0.385,-5.1275,-3.115
656,240915,0.9863700000000001,0.07588400000000001,-0.141276,-0.42,-5.2325,-3.08
657,241011,0.9853940999999999,0.075396,-0.139934,-0.4375,-5.3025,-3.2375
658,241108,0.984784,0.07612801,-0.138714,-0.385,-5.3025,-3.2725
659,241205,0.9861260000000001,0.07612801,-0.139202,-0.245,-5.39,-3.2375
660,241302,0.9858819999999999,0.07600599999999999,-0.138958,-0.14,-5.3375,-3.3075
661,241399,0.9863700000000001,0.07612801,-0.13969,-0.0875,-5.25,-3.36
662,241495,0.9883221,0.07588400000000001,-0.139934,-0.0175,-5.215,-3.3775
663,241592,0.9895421,0.07832401,-0.14090999999999998,0.0175,-4.935,-3.3425
664,241689,0.9888101,0.077348,-0.14164200000000002,0.0,-4.9175,-3.325
665,241786,0.9882001,0.07747001,-0.142496,-0.14,-4.9,-3.2725
666,241883,0.9878341,0.076494,-0.142984,-0.0875,-5.0225,-3.2725
667,241980,0.986858,0.075762,-0.143228,-0.035,-5.04,-3.2375
668,242076,0.986858,0.07710399999999999,-0.14347200000000002,0.0875,-5.3025,-3.2375
669,242173,0.987224,0.07710399999999999,-0.14310599999999998,0.1225,-5.285,-3.29
670,242270,0.9858819999999999,0.07588400000000001,-0.142374,0.1925,-5.46,-3.2375
671,242367,0.9853940999999999,0.07490801,-0.14090999999999998,0.1925,-5.6,-3.185
672,242464,0.9853940999999999,0.074786,-0.140666,0.1225,-5.67,-3.1675
673,242561,0.985516,0.074786,-0.140544,0.07,-5.6525,-3.255
674,242657,0.9856379999999999,0.07344400000000001,-0.13969,-0.0175,-5.6525,-3.3075
675,242754,0.984906,0.074664,-0.13944600000000001,-0.0875,-5.5125,-3.3425
676,242851,0.985516,0.07503,-0.139812,-0.0525,-5.3025,-3.325
677,242948,0.9874681000000001,0.07551801,-0.140544,-0.035,-5.215,-3.255
678,243045,0.9853940999999999,0.07637200000000001,-0.139934,-0.0525,-5.04,-3.15
679,243141,0.9863700000000001,0.07564,-0.142374,0.0175,-4.935,-3.2025
680,243238,0.987712,0.07442,-0.14152,0.0175,-4.8475,-3.255
681,243335,0.9883221,0.07417601,-0.14188599999999998,0.035,-4.795,-3.22
682,243432,0.9894200000000001,0.07417601,-0.14188599999999998,-0.035,-4.8475,-3.2725
683,243529,0.9901521000000001,0.07551801,-0.143228,-0.07,-4.935,-3.185
684,243625,0.9883221,0.07808001,-0.143228,-0.1575,-5.1975,-3.115
685,243722,0.9853940999999999,0.07808001,-0.141398,-0.1925,-5.39,-3.1325
686,243819,0.9851501,0.076616,-0.14188599999999998,-0.14,-5.46,-3.08
687,243916,0.984906,0.07698201,-0.14078800000000002,0.0,-5.53,-3.1675
688,244013,0.9846620999999999,0.07564,-0.138836,0.0875,-5.775,-3.115
689,244110,0.985516,0.074664,-0.138714,0.0875,-5.845,-3.0625
690,244206,0.9883221,0.07490801,-0.13761600000000002,0.0875,-5.74,-3.0975
691,244303,0.9883221,0.0732,-0.138348,0.1575,-5.74,-3.2025
692,244400,0.9892981,0.070882,-0.13859200000000002,0.035,-5.6175,-3.2375
693,244497,0.9890540000000001,0.071248,-0.137982,-0.105,-5.32,-3.1675
694,244594,0.9900300999999999,0.071614,-0.139934,-0.21,-5.0575,-3.22
695,244690,0.9890540000000001,0.07344400000000001,-0.1403,-0.245,-4.935,-3.2725
696,244787,0.9903959999999999,0.074786,-0.139934,-0.175,-4.8125,-3.185
697,244884,0.9900300999999999,0.076494,-0.139568,-0.21,-4.83,-3.29
698,244981,0.9901521000000001,0.077836,-0.141154,-0.1225,-4.9175,-3.255
699,245078,0.9889319999999999,0.077836,-0.14213,-0.07,-5.0575,-3.2725
700,245175,0.9888101,0.07710399999999999,-0.13969,0.07,-5.1625,-3.29
701,245271,0.9883221,0.07722601,-0.1403,0.035,-5.3375,-3.325
702,245368,0.9873460999999999,0.07722601,-0.139934,-0.0175,-5.46,-3.3075
703,245465,0.987102,0.075762,-0.140544,-0.0175,-5.5475,-3.36
704,245562,0.984906,0.07588400000000001,-0.139324,0.0175,-5.425,-3.36
705,245659,0.983808,0.07551801,-0.139568,0.035,-5.3375,-3.3075
706,245756,0.9828321,0.07564,-0.139812,0.035,-5.3025,-3.255
707,245852,0.985516,0.07490801,-0.13944600000000001,0.14,-5.1975,-3.255
708,245949,0.9867360999999999,0.07490801,-0.14152,0.035,-5.2325,-3.2375
709,246046,0.9873460999999999,0.07198,-0.14335,0.0175,-5.11,-3.22
710,246143,0.9883221,0.07173600000000001,-0.14188599999999998,0.1575,-5.04,-3.36
711,246240,0.9894200000000001,0.07137001,-0.14164200000000002,0.1225,-5.075,-3.3075
712,246337,0.9890540000000001,0.07234600000000001,-0.14090999999999998,0.21,-5.1625,-3.3775
713,246433,0.9884440000000001,0.0732,-0.142008,0.175,-5.3025,-3.4125
714,246530,0.9878341,0.07381001,-0.141276,0.0875,-5.6,-3.29
715,246627,0.987224,0.07710399999999999,-0.14213,-0.0875,-5.845,-3.1675
716,246724,0.9857600000000001,0.077592,-0.140422,-0.105,-5.8625,-3.185
717,246821,0.984784,0.077958,-0.14090999999999998,-0.07,-5.7925,-3.2025
718,246917,0.9860040999999999,0.077714,-0.14005599999999999,-0.14,-5.74,-3.185
719,247014,0.9845401,0.076616,-0.14005599999999999,-0.14,-5.775,-3.2375
720,247111,0.9856379999999999,0.07551801,-0.13969,-0.1925,-5.5825,-3.255
721,247208,0.9856379999999999,0.07637200000000001,-0.14005599999999999,-0.14,-5.635,-3.2025
722,247305,0.9850280999999999,0.07612801,-0.139812,-0.175,-5.4425,-3.2725
723,247401,0.9863700000000001,0.075396,-0.14188599999999998,-0.0875,-5.18,-3.2375
724,247498,0.9873460999999999,0.0732,-0.141764,-0.1225,-5.145,-3.2725
725,247595,0.990518,0.074054,-0.142008,-0.0525,-4.97,-3.2725
726,247692,0.9892981,0.074664,-0.14164200000000002,0.0175,-4.865,-3.2375
727,247789,0.9917379999999999,0.07503,-0.142496,-0.035,-4.9,-3.185
728,247886,0.9906401,0.07564,-0.141276,-0.0175,-4.8825,-3.1675
729,247982,0.9892981,0.077836,-0.140178,-0.105,-5.1275,-3.185
730,248079,0.9874681000000001,0.07551801,-0.141276,-0.0875,-5.3025,-3.08
731,248176,0.9863700000000001,0.07588400000000001,-0.139202,-0.0875,-5.425,-3.0625
732,248273,0.985516,0.075396,-0.139812,-0.0175,-5.6,-3.1675
733,248370,0.9853940999999999,0.074542,-0.139324,-0.105,-5.6175,-3.22
734,248466,0.984784,0.07564,-0.138836,-0.21,-5.4425,-3.2025
735,248563,0.9867360999999999,0.07551801,-0.139202,-0.2625,-5.495,-3.2725
736,248660,0.986614,0.07588400000000001,-0.137372,-0.28,-5.3025,-3.22
737,248757,0.9864921,0.075396,-0.140666,-0.315,-5.2675,-3.255
738,248853,0.9878341,0.074664,-0.14005599999999999,-0.28,-5.145,-3.185
739,248950,0.9888101,0.074786,-0.140666,-0.315,-5.11,-3.185
740,249047,0.9883221,0.07381001,-0.140544,-0.3325,-5.04,-3.185
741,249144,0.9884440000000001,0.07222401,-0.142008,-0.2275,-5.1625,-3.3425
742,249241,0.988566,0.0732,-0.1403,-0.1225,-5.3025,-3.2025
743,249337,0.9894200000000001,0.07332201,-0.141154,-0.105,-5.285,-3.2375
744,249434,0.9886881,0.07283401,-0.141276,-0.07,-5.2325,-3.255
745,249531,0.98759,0.07356601,-0.140178,-0.105,-5.3725,-3.2375
746,249628,0.987956,0.07527400000000001,-0.138836,-0.175,-5.3025,-3.29
747,249725,0.9874681000000001,0.07637200000000001,-0.13969,-0.14,-5.3725,-3.3075
748,249821,0.9856379999999999,0.07710399999999999,-0.139202,-0.2625,-5.425,-3.3075
749,249918,0.9862479999999999,0.07490801,-0.140544,-0.315,-5.5475,-3.3425
750,250015,0.986858,0.07503,-0.140422,-0.3675,-5.4075,-3.3425
751,250112,0.986858,0.07551801,-0.139812,-0.3325,-5.4425,-3.325
752,250209,0.988078,0.074054,-0.140666,-0.175,-5.425,-3.255
753,250305,0.9882001,0.072956,-0.14335,-0.105,-5.39,-3.395
754,250402,0.9886881,0.07393200000000001,-0.143228,-0.07,-5.6175,-3.325
755,250499,0.989176,0.07588400000000001,-0.142374,-0.07,-5.5475,-3.1675
756,250596,0.9892981,0.077836,-0.142984,0.0525,-5.5475,-3.1675
757,250693,0.986614,0.07808001,-0.140178,0.175,-5.5825,-3.1325
758,250789,0.9867360999999999,0.076616,-0.14005599999999999,0.385,-5.6175,-3.15
759,250886,0.9858819999999999,0.07698201,-0.139202,0.455,-5.495,-3.2375
760,250983,0.9857600000000001,0.07564,-0.13847,0.3675,-5.705,-3.36
761,251080,0.9864921,0.07710399999999999,-0.138104,0.2275,-5.74,-3.395
762,251177,0.9882001,0.074298,-0.137738,0.14,-5.705,-3.325
763,251274,0.9903959999999999,0.07222401,-0.139934,0.0875,-5.6175,-3.4125
764,251370,0.988566,0.07259,-0.140422,0.0525,-5.705,-3.43
765,251467,0.9878341,0.071858,-0.139324,-0.105,-5.67,-3.36
766,251564,0.988078,0.072712,-0.140666,-0.1225,-5.4775,-3.4125
767,251661,0.9878341,0.07356601,-0.14188599999999998,-0.0875,-5.39,-3.3075
768,251758,0.986858,0.07527400000000001,-0.14005599999999999,-0.1575,-5.25,-3.3075
769,251855,0.987956,0.07625,-0.14188599999999998,-0.0525,-5.285,-3.2375
770,251951,0.9863700000000001,0.077348,-0.142252,0.035,-5.3025,-3.29
771,252048,0.986858,0.07832401,-0.14090999999999998,0.1575,-5.285,-3.22
772,252145,0.9864921,0.078202,-0.140422,0.175,-5.285,-3.255
773,252242,0.9862479999999999,0.077714,-0.14152,0.175,-5.3725,-3.3775
774,252339,0.9867360999999999,0.075762,-0.14457,0.0875,-5.4425,-3.5
775,252435,0.9873460999999999,0.075396,-0.142374,0.1575,-5.39,-3.4125
776,252532,0.985516,0.074786,-0.141154,0.0875,-5.355,-3.395
777,252629,0.986614,0.07503,-0.143228,0.14,-5.5125,-3.36
778,252726,0.984418,0.074664,-0.14152,0.035,-5.635,-3.22
779,252823,0.9850280999999999,0.07515201,-0.140422,0.0,-5.5475,-3.15
780,252920,0.9846620999999999,0.07503,-0.14078800000000002,-0.0175,-5.495,-3.1325
781,253016,0.9840521000000001,0.07234600000000001,-0.14078800000000002,0.0,-5.565,-3.08
782,253113,0.984906,0.072956,-0.139568,-0.0525,-5.4075,-3.2025
783,253210,0.9861260000000001,0.07332201,-0.140544,-0.0175,-5.3725,-3.185
784,253307,0.987102,0.07393200000000001,-0.139934,-0.105,-5.2675,-3.255
785,253404,0.9867360999999999,0.07564,-0.14090999999999998,-0.105,-5.1975,-3.2375
786,253500,0.988078,0.07527400000000001,-0.139568,0.035,-5.2325,-3.29
787,253597,0.9882001,0.07564,-0.140422,0.035,-5.215,-3.255
788,253694,0.9895421,0.076494,-0.141764,-0.0875,-5.425,-3.15
789,253791,0.990518,0.07564,-0.141764,-0.14,-5.39,-3.115
790,253888,0.989908,0.07442,-0.142496,-0.175,-5.425,-3.2375
791,253984,0.9867360999999999,0.074664,-0.142374,-0.3675,-5.5475,-3.1675
792,254081,0.9851501,0.074298,-0.142618,-0.35,-5.5825,-3.1675
793,254178,0.984418,0.0732,-0.14213,-0.42,-5.6,-3.115
794,254275,0.984418,0.07332201,-0.140666,-0.385,-5.46,-3.2025
795,254372,0.984296,0.074298,-0.14188599999999998,-0.315,-5.3725,-3.22
796,254468,0.9862479999999999,0.07515201,-0.14164200000000002,-0.21,-5.2325,-3.2025
797,254565,0.9867360999999999,0.074664,-0.1403,-0.14,-5.1275,-3.1675
798,254662,0.98759,0.07551801,-0.14164200000000002,-0.105,-5.2325,-3.2375
799,254759,0.9874681000000001,0.07442,-0.141032,-0.0875,-5.145,-3.22
800,254856,0.990274,0.07637200000000001,-0.14188599999999998,-0.0175,-5.0575,-3.115
801,254952,0.9890540000000001,0.077958,-0.140544,0.0175,-5.0925,-3.1675
802,255049,0.9888101,0.078446,-0.140666,-0.035,-5.145,-3.29
803,255146,0.98759,0.077592,-0.14090999999999998,-0.1575,-5.1975,-3.1675
804,255243,0.9862479999999999,0.07637200000000001,-0.14164200000000002,-0.175,-5.215,-3.2375
805,255339,0.9873460999999999,0.074054,-0.14213,-0.07,-5.32,-3.2375
806,255436,0.9867360999999999,0.07283401,-0.14090999999999998,-0.0175,-5.3725,-3.3075
807,255533,0.9878341,0.07381001,-0.140422,0.0175,-5.3375,-3.29
808,255630,0.9889319999999999,0.074664,-0.140544,-0.0175,-5.4775,-3.2375
809,255727,0.987956,0.07551801,-0.140544,-0.0525,-5.5825,-3.185
810,255823,0.9883221,0.07490801,-0.1403,0.0,-5.53,-3.1675
811,255920,0.988078,0.07515201,-0.13859200000000002,0.07,-5.5125,-3.1675
812,256017,0.987102,0.07637200000000001,-0.140544,0.0875,-5.4775,-3.2025
813,256114,0.9867360999999999,0.07588400000000001,-0.139812,-0.0175,-5.3725,-3.2725
814,256211,0.9857600000000001,0.07551801,-0.14090999999999998,-0.0525,-5.4075,-3.2375
815,256307,0.9857600000000001,0.07332201,-0.140178,-0.0175,-5.32,-3.29
816,256404,0.9862479999999999,0.07246799999999999,-0.14310599999999998,-0.0875,-5.3375,-3.29
817,256501,0.9863700000000001,0.0732,-0.14347200000000002,-0.07,-5.145,-3.2725
818,256598,0.9863700000000001,0.07515201,-0.142008,-0.0525,-5.215,-3.325
819,256695,0.987712,0.07625,-0.141276,-0.0875,-5.18,-3.2725
820,256791,0.987712,0.07612801,-0.142862,0.0175,-5.3375,-3.22
821,256888,0.9888101,0.07417601,-0.142008,0.1225,-5.495,-3.255
822,256985,0.9873460999999999,0.074664,-0.141032,0.1575,-5.46,-3.2725
823,257082,0.986614,0.07490801,-0.14078800000000002,0.14,-5.67,-3.22
824,257179,0.988078,0.076494,-0.140544,0.07,-5.6875,-3.2025
825,257275,0.9867360999999999,0.07515201,-0.139324,0.14,-5.74,-3.185
826,257372,0.986858,0.07564,-0.14005599999999999,0.035,-5.7925,-3.15
827,257469,0.9852719999999999,0.074542,-0.140422,-0.0875,-5.7575,-3.045
828,257566,0.9857600000000001,0.07551801,-0.139934,-0.175,-5.7575,-3.0975
829,257663,0.9850280999999999,0.074664,-0.140544,-0.35,-5.6,-3.1325
830,257759,0.9858819999999999,0.07307801,-0.141032,-0.4025,-5.5125,-3.0625
831,257856,0.9862479999999999,0.07332201,-0.142252,-0.4375,-5.495,-3.0975
832,257953,0.986858,0.07307801,-0.144448,-0.4725,-5.2325,-3.15
833,258050,0.9884440000000001,0.074298,-0.14396,-0.42,-5.1625,-3.1675
834,258147,0.9900300999999999,0.07527400000000001,-0.144814,-0.2275,-5.075,-3.15
835,258243,0.9895421,0.07588400000000001,-0.14335,-0.07,-5.1275,-3.1325
836,258340,0.9890540000000001,0.07551801,-0.14274,0.105,-5.2325,-3.1675
837,258437,0.9869800999999999,0.077348,-0.14188599999999998,0.21,-5.215,-3.22
838,258534,0.9864921,0.07588400000000001,-0.14090999999999998,0.2275,-5.425,-3.2375
839,258631,0.9852719999999999,0.073688,-0.141154,0.21,-5.53,-3.3075
840,258727,0.9856379999999999,0.072956,-0.141276,0.175,-5.53,-3.255
841,258824,0.9850280999999999,0.0732,-0.142008,0.0525,-5.5825,-3.3775
842,258921,0.9858819999999999,0.07490801,-0.141398,-0.0175,-5.635,-3.325
843,259018,0.9860040999999999,0.07686,-0.14188599999999998,-0.175,-5.6525,-3.325
844,259115,0.9861260000000001,0.07527400000000001,-0.14213,-0.0525,-5.635,-3.3425
845,259211,0.9860040999999999,0.07490801,-0.141398,-0.0875,-5.4425,-3.36
846,259308,0.9864921,0.07381001,-0.14152,-0.0175,-5.2325,-3.3425
847,259405,0.9882001,0.074298,-0.14383800000000002,0.105,-5.0925,-3.36
848,259502,0.986858,0.07600599999999999,-0.142984,0.035,-5.11,-3.36
849,259599,0.9867360999999999,0.075762,-0.143228,-0.0175,-4.9875,-3.36
850,259695,0.9867360999999999,0.075762,-0.142496,0.0525,-5.075,-3.3775
851,259792,0.986858,0.07588400000000001,-0.141398,0.07,-5.1625,-3.2725
852,259889,0.9869800999999999,0.077714,-0.142618,0.2275,-5.2675,-3.255
853,259986,0.9874681000000001,0.077348,-0.14164200000000002,0.1925,-5.25,-3.185
854,260083,0.9861260000000001,0.07612801,-0.14213,0.14,-5.3375,-3.15
855,260179,0.9867360999999999,0.07393200000000001,-0.141398,0.0175,-5.4075,-3.2375
856,260276,0.986614,0.072712,-0.139812,-0.07,-5.4775,-3.395
857,260373,0.9867360999999999,0.07356601,-0.1403,-0.175,-5.495,-3.29
858,260470,0.9862479999999999,0.074786,-0.141032,-0.1925,-5.4075,-3.2725
859,260567,0.9860040999999999,0.075396,-0.142374,-0.1575,-5.3725,-3.2025
860,260663,0.9858819999999999,0.07442,-0.142984,-0.175,-5.32,-3.1675
861,260760,0.9858819999999999,0.07381001,-0.14188599999999998,-0.1225,-5.355,-3.1325
862,260857,0.9856379999999999,0.07344400000000001,-0.14457,-0.2275,-5.3375,-3.0975
863,260954,0.9850280999999999,0.07417601,-0.144814,-0.14,-5.25,-3.15
864,261051,0.9858819999999999,0.074786,-0.14347200000000002,-0.1575,-5.1625,-3.22
865,261147,0.9861260000000001,0.074664,-0.14335,-0.1225,-5.25,-3.255
866,261244,0.987224,0.07332201,-0.14164200000000002,-0.0175,-5.18,-3.2725
867,261341,0.9864921,0.07307801,-0.14005599999999999,0.0,-5.1625,-3.29
868,261438,0.9882001,0.07393200000000001,-0.141032,0.0,-5.355,-3.36
869,261535,0.9892981,0.07698201,-0.14005599999999999,-0.07,-5.425,-3.3425
870,261631,0.990884,0.07551801,-0.140422,-0.07,-5.46,-3.2725
871,261728,0.9897860999999999,0.07637200000000001,-0.139324,-0.1225,-5.5125,-3.255
872,261825,0.9906401,0.07503,-0.139934,-0.1575,-5.46,-3.15
873,261922,0.9897860999999999,0.074664,-0.141398,-0.1225,-5.4775,-3.2025
874,262019,0.9886881,0.07612801,-0.141276,-0.175,-5.3375,-3.115
875,262115,0.9867360999999999,0.077348,-0.141276,-0.2625,-5.3025,-3.1325
876,262212,0.984418,0.076616,-0.141398,-0.1925,-5.215,-3.115
877,262309,0.9830760000000001,0.07625,-0.142008,-0.1925,-5.3025,-3.15
878,262406,0.9833200000000001,0.07564,-0.14164200000000002,-0.1575,-5.215,-3.185
879,262503,0.984174,0.074786,-0.14188599999999998,0.0,-5.145,-3.1675
880,262599,0.987102,0.07442,-0.142008,-0.0175,-5.1625,-3.255
881,262696,0.9867360999999999,0.074542,-0.14213,-0.0875,-5.075,-3.29
882,262793,0.988078,0.072956,-0.142374,-0.0525,-4.9525,-3.29
883,262890,0.990274,0.07442,-0.139568,0.035,-5.1625,-3.2725
884,262987,0.9903959999999999,0.07564,-0.141276,0.0175,-5.1625,-3.255
885,263083,0.9916161,0.07564,-0.141276,-0.07,-5.1275,-3.2375
886,263180,0.99125,0.07417601,-0.139568,0.035,-5.1975,-3.22
887,263277,0.990274,0.075762,-0.14164200000000002,0.1225,-5.3725,-3.255
888,263374,0.9900300999999999,0.07600599999999999,-0.140666,0.0875,-5.4075,-3.22
889,263471,0.988078,0.07564,-0.140544,0.1575,-5.4075,-3.185
890,263567,0.985516,0.07490801,-0.14213,0.0175,-5.5125,-3.15
891,263664,0.9834421,0.075396,-0.14164200000000002,0.0,-5.495,-3.2025
892,263761,0.9845401,0.074542,-0.14152,0.0,-5.425,-3.3075
893,263858,0.9852719999999999,0.073688,-0.142252,-0.0875,-5.46,-3.22
894,263955,0.984784,0.074298,-0.140666,-0.21,-5.3725,-3.2025
895,264051,0.984784,0.07417601,-0.141764,-0.14,-5.3025,-3.2375
896,264148,0.986858,0.07356601,-0.14188599999999998,-0.175,-5.3025,-3.22
897,264245,0.9874681000000001,0.07356601,-0.142496,-0.1225,-5.215,-3.29
898,264342,0.9874681000000001,0.07234600000000001,-0.142618,-0.07,-5.2675,-3.22
899,264439,0.9889319999999999,0.071004,-0.14213,0.0,-5.355,-3.2725
900,264535,0.9883221,0.072712,-0.142252,0.07,-5.3725,-3.255
901,264632,0.988566,0.07307801,-0.142374,0.0175,-5.53,-3.36
902,264729,0.987102,0.074054,-0.140544,-0.07,-5.5475,-3.325
903,264826,0.9882001,0.07600599999999999,-0.14005599999999999,-0.07,-5.46,-3.29
904,264923,0.986858,0.074786,-0.139568,-0.105,-5.53,-3.395
905,265019,0.9874681000000001,0.076616,-0.141032,-0.0525,-5.46,-3.29
906,265116,0.9874681000000001,0.07527400000000001,-0.14078800000000002,-0.07,-5.3025,-3.255
907,265213,0.9884440000000001,0.075762,-0.14090999999999998,-0.105,-5.4425,-3.22
908,265310,0.9894200000000001,0.07710399999999999,-0.14213,-0.105,-5.425,-3.1675
909,265407,0.987956,0.07503,-0.142252,-0.0875,-5.2675,-3.1325
910,265503,0.9867360999999999,0.074054,-0.14164200000000002,-0.0875,-5.32,-3.1675
911,265600,0.9846620999999999,0.07222401,-0.141032,-0.14,-5.3025,-3.2025
912,265697,0.9822219999999999,0.072102,-0.142618,-0.1925,-5.2325,-3.325
913,265794,0.9827101,0.0732,-0.142984,-0.2625,-5.11,-3.395
914,265891,0.9853940999999999,0.07381001,-0.142374,-0.2275,-5.215,-3.4125
915,265987,0.9874681000000001,0.07698201,-0.142984,-0.175,-5.145,-3.29
916,266084,0.9873460999999999,0.07490801,-0.14213,-0.0875,-5.3025,-3.36
917,266181,0.988078,0.074664,-0.141032,-0.035,-5.495,-3.325
918,266278,0.9882001,0.07527400000000001,-0.14188599999999998,0.105,-5.5475,-3.3425
919,266375,0.98759,0.07490801,-0.14090999999999998,0.1575,-5.46,-3.3775
920,266471,0.9864921,0.07710399999999999,-0.141032,0.07,-5.355,-3.3775
921,266568,0.9856379999999999,0.078446,-0.141154,0.035,-5.3025,-3.4475
922,266665,0.983564,0.076738,-0.143594,-0.035,-5.215,-3.29
923,266762,0.9836860999999999,0.07588400000000001,-0.14310599999999998,0.035,-5.3025,-3.3775
924,266859,0.9851501,0.074664,-0.142618,0.1575,-5.2325,-3.3775
925,266956,0.98759,0.07417601,-0.14213,0.1575,-5.1975,-3.3425
926,267052,0.9857600000000001,0.07515201,-0.143716,-0.0175,-5.2325,-3.255
927,267149,0.9853940999999999,0.073688,-0.142618,-0.105,-5.3025,-3.255
928,267246,0.9860040999999999,0.07222401,-0.142984,-0.14,-5.46,-3.1325
929,267343,0.9853940999999999,0.07246799999999999,-0.143228,-0.1575,-5.4075,-3.1675
930,267439,0.9863700000000001,0.072102,-0.143228,-0.2975,-5.32,-3.0625
931,267536,0.9861260000000001,0.07222401,-0.14152,-0.2275,-5.215,-3.01
932,267633,0.9861260000000001,0.07442,-0.14213,-0.3325,-5.3725,-3.01
933,267730,0.9856379999999999,0.0732,-0.143716,-0.28,-5.425,-3.0275
934,267827,0.9850280999999999,0.072956,-0.142496,-0.35,-5.425,-3.0625
935,267924,0.984906,0.07490801,-0.142252,-0.4725,-5.39,-3.115
936,268020,0.987712,0.07600599999999999,-0.144204,-0.5425,-5.32,-3.22
937,268117,0.9861260000000001,0.07600599999999999,-0.142496,-0.4375,-5.2325,-3.15
938,268214,0.987224,0.077958,-0.14274,-0.2275,-5.1975,-3.29
939,268311,0.9878341,0.07637200000000001,-0.14152,-0.175,-5.1275,-3.185
940,268408,0.9884440000000001,0.07698201,-0.14090999999999998,-0.07,-5.11,-3.22
941,268504,0.987956,0.075762,-0.141276,0.0875,-5.075,-3.22
942,268601,0.9894200000000001,0.07698201,-0.140544,-0.0175,-5.005,-3.115
943,268698,0.988566,0.074298,-0.140544,-0.0875,-5.04,-3.115
944,268795,0.9894200000000001,0.07417601,-0.141154,-0.1225,-4.9875,-3.0975
945,268892,0.989908,0.072956,-0.139324,-0.1575,-5.0575,-3.15
946,268988,0.988078,0.072956,-0.140544,-0.28,-5.0925,-3.15
947,269085,0.98759,0.07246799999999999,-0.140422,-0.2625,-5.1275,-3.185
948,269182,0.9884440000000001,0.07344400000000001,-0.140544,-0.2275,-5.18,-3.185
949,269279,0.987712,0.07527400000000001,-0.140422,-0.2275,-5.32,-3.185
950,269376,0.987102,0.07637200000000001,-0.141032,-0.2975,-5.285,-3.2025
951,269472,0.9863700000000001,0.07637200000000001,-0.142008,-0.2625,-5.3725,-3.22
952,269569,0.9851501,0.077348,-0.14090999999999998,-0.2625,-5.39,-3.22
953,269666,0.986858,0.07747001,-0.142984,-0.21,-5.2675,-3.3075
954,269763,0.9852719999999999,0.076616,-0.143228,-0.1225,-5.145,-3.2725
955,269860,0.9869800999999999,0.07515201,-0.14383800000000002,-0.14,-5.1625,-3.2375
956,269956,0.987102,0.07417601,-0.143594,-0.0875,-5.18,-3.185
957,270053,0.9863700000000001,0.07393200000000001,-0.14274,0.0175,-5.0225,-3.1675
958,270150,0.985516,0.074664,-0.142496,-0.0175,-5.0925,-3.2375
959,270247,0.9864921,0.07356601,-0.1403,-0.0175,-5.0925,-3.2025
960,270344,0.989176,0.07332201,-0.141032,0.0175,-5.04,-3.2025
961,270440,0.989176,0.073688,-0.13944600000000001,0.0175,-5.075,-3.2025
962,270537,0.9886881,0.071858,-0.13908,0.0,-5.285,-3.2725
963,270634,0.988566,0.071858,-0.138714,-0.0875,-5.355,-3.3425
964,270731,0.9888101,0.07137001,-0.138104,-0.175,-5.3375,-3.3775
965,270828,0.9883221,0.07307801,-0.13908,-0.1225,-5.285,-3.36
966,270924,0.9878341,0.076494,-0.13908,-0.1575,-5.3025,-3.2725
967,271021,0.9882001,0.07612801,-0.141154,-0.21,-5.1625,-3.325
968,271118,0.9864921,0.07698201,-0.13944600000000001,-0.21,-5.3025,-3.22
969,271215,0.987102,0.076738,-0.1403,-0.1925,-5.18,-3.2025
970,271312,0.9861260000000001,0.07710399999999999,-0.141398,-0.28,-5.285,-3.29
971,271408,0.9869800999999999,0.074054,-0.142008,-0.245,-5.2675,-3.3425
972,271505,0.9882001,0.07356601,-0.14310599999999998,-0.07,-5.18,-3.255
973,271602,0.9862479999999999,0.07222401,-0.14188599999999998,0.035,-5.25,-3.395
974,271699,0.987102,0.07344400000000001,-0.142252,0.0875,-5.355,-3.2725
975,271796,0.987956,0.07283401,-0.142008,0.0525,-5.4425,-3.3425
976,271892,0.988566,0.07417601,-0.14078800000000002,-0.0175,-5.3725,-3.3075
977,271989,0.9874681000000001,0.076494,-0.139324,-0.105,-5.3375,-3.3075
978,272086,0.9878341,0.07564,-0.13847,-0.1925,-5.355,-3.255
979,272183,0.9882001,0.07551801,-0.138836,-0.28,-5.3025,-3.185
980,272280,0.987712,0.074786,-0.13908,-0.2975,-5.3025,-3.2725
981,272376,0.9882001,0.07344400000000001,-0.139568,-0.3325,-5.425,-3.29
982,272473,0.9895421,0.074786,-0.1403,-0.315,-5.5125,-3.255
983,272570,0.9889319999999999,0.07381001,-0.139812,-0.2975,-5.565,-3.2725
984,272667,0.9897860999999999,0.07259,-0.13908,-0.2275,-5.775,-3.4125
985,272764,0.988566,0.07246799999999999,-0.140666,-0.28,-5.67,-3.4125
986,272860,0.988078,0.07307801,-0.141276,-0.315,-5.4775,-3.4125
987,272957,0.988078,0.07393200000000001,-0.14213,-0.245,-5.565,-3.465
988,273054,0.986858,0.07612801,-0.142496,-0.3325,-5.4075,-3.395
989,273151,0.9861260000000001,0.076616,-0.142862,-0.3675,-5.2325,-3.325
990,273248,0.984418,0.077958,-0.144204,-0.2625,-5.3025,-3.22
991,273344,0.9853940999999999,0.077714,-0.143594,-0.175,-5.4075,-3.185
992,273441,0.9850280999999999,0.07710399999999999,-0.145424,-0.1575,-5.425,-3.255
993,273538,0.984906,0.077592,-0.144204,-0.07,-5.5825,-3.2375
994,273635,0.9864921,0.07600599999999999,-0.14347200000000002,0.0175,-5.5825,-3.29
995,273732,0.9863700000000001,0.07551801,-0.14164200000000002,0.1225,-5.6525,-3.36
996,273829,0.986614,0.074542,-0.141154,0.1925,-5.88,-3.3075
997,273925,0.9858819999999999,0.073688,-0.141276,0.2625,-6.055,-3.29
998,274022,0.9873460999999999,0.07259,-0.139568,0.21,-5.9675,-3.3425
999,274119,0.9869800999999999,0.07307801,-0.139934,0.105,-5.6525,-3.29
1000,274216,0.986614,0.07442,-0.138714,0.105,-5.5125,-3.36
1001,274312,0.985516,0.074664,-0.13761600000000002,-0.0875,-5.11,-3.1675
1002,274409,0.987102,0.07588400000000001,-0.14164200000000002,-0.21,-5.075,-3.0975
1003,274506,0.987956,0.075396,-0.14078800000000002,-0.3325,-4.9875,-3.1675
1004,274603,0.9858819999999999,0.077348,-0.14152,-0.42,-4.8125,-3.1325
1005,274700,0.988078,0.07637200000000001,-0.14396,-0.385,-4.7775,-3.15
1006,274796,0.9863700000000001,0.07527400000000001,-0.14493599999999998,-0.4725,-4.76,-3.0625
1007,274893,0.984784,0.07490801,-0.145546,-0.385,-4.83,-3.115
1008,274990,0.984906,0.074298,-0.14786400000000002,-0.455,-5.145,-3.1325
1009,275087,0.9834421,0.074298,-0.14701,-0.385,-5.2675,-3.1325
1010,275184,0.9853940999999999,0.07344400000000001,-0.145546,-0.14,-5.2675,-3.2025
1011,275280,0.984784,0.07490801,-0.14335,0.0175,-5.4075,-3.15
1012,275377,0.9853940999999999,0.07503,-0.14274,0.035,-5.5125,-3.1325
1013,275474,0.9861260000000001,0.07588400000000001,-0.139812,0.07,-5.32,-3.115
1014,275571,0.987224,0.074664,-0.138104,0.105,-5.3725,-3.1325
1015,275668,0.9869800999999999,0.07393200000000001,-0.136884,0.14,-5.4075,-3.2025
1016,275764,0.9883221,0.071614,-0.138836,0.035,-5.3025,-3.1675
1017,275861,0.9888101,0.070882,-0.13944600000000001,-0.1225,-5.215,-3.15
1018,275958,0.9914940999999999,0.071004,-0.138226,-0.1925,-5.1275,-3.2025
1019,276055,0.9889319999999999,0.07173600000000001,-0.138226,-0.3675,-5.075,-3.185
1020,276152,0.9901521000000001,0.07344400000000001,-0.139812,-0.4375,-4.97,-3.22
1021,276249,0.9903959999999999,0.07503,-0.139202,-0.595,-4.8825,-3.22
1022,276345,0.9882001,0.07490801,-0.141764,-0.525,-4.8125,-3.2725
1023,276442,0.987956,0.07698201,-0.142374,-0.385,-4.8475,-3.29
1024,276539,0.9862479999999999,0.07722601,-0.14188599999999998,-0.42,-4.9175,-3.325
1025,276636,0.9860040999999999,0.077592,-0.141398,-0.42,-4.9875,-3.2725
1026,276732,0.9861260000000001,0.07686,-0.141032,-0.315,-5.11,-3.3075
1027,276829,0.9857600000000001,0.07686,-0.142496,-0.175,-5.1625,-3.3075
1028,276926,0.987102,0.07625,-0.14164200000000002,-0.2275,-5.32,-3.255
1029,277023,0.9869800999999999,0.07564,-0.141276,-0.1225,-5.425,-3.2725
1030,277120,0.988078,0.07381001,-0.142008,-0.1575,-5.5125,-3.29
1031,277217,0.989176,0.07442,-0.14078800000000002,-0.1225,-5.6,-3.2375
1032,277313,0.9890540000000001,0.07332201,-0.14078800000000002,-0.175,-5.6175,-3.255
1033,277410,0.9892981,0.074298,-0.141154,-0.1575,-5.46,-3.2025
1034,277507,0.9884440000000001,0.074298,-0.139812,-0.07,-5.5475,-3.3075
1035,277604,0.98759,0.074054,-0.138714,0.0,-5.46,-3.29
1036,277701,0.987224,0.07515201,-0.138714,0.0,-5.355,-3.3425
1037,277797,0.9869800999999999,0.07503,-0.138958,-0.0175,-5.3725,-3.2375
1038,277894,0.987956,0.074054,-0.140544,0.105,-5.3375,-3.255
1039,277991,0.987102,0.074542,-0.141032,0.07,-5.4425,-3.43
1040,278088,0.9883221,0.07393200000000001,-0.14078800000000002,0.035,-5.5125,-3.4125
1041,278185,0.9867360999999999,0.07442,-0.140422,0.0,-5.495,-3.395
1042,278281,0.987712,0.074298,-0.141154,-0.035,-5.5475,-3.3775
1043,278378,0.9858819999999999,0.07442,-0.14152,-0.1575,-5.67,-3.325
1044,278475,0.9862479999999999,0.075396,-0.142496,-0.21,-5.74,-3.2725
1045,278572,0.9873460999999999,0.074664,-0.14164200000000002,-0.21,-5.6525,-3.3075
1046,278668,0.987712,0.073688,-0.14274,-0.175,-5.7225,-3.1675
1047,278765,0.9874681000000001,0.07332201,-0.141032,-0.105,-5.74,-3.1675
1048,278862,0.987102,0.074542,-0.142008,-0.21,-5.88,-3.15
1049,278959,0.9869800999999999,0.07551801,-0.140666,-0.3675,-5.74,-3.1675
1050,279056,0.9862479999999999,0.07612801,-0.141398,-0.4025,-5.5475,-3.2025
1051,279152,0.987102,0.07612801,-0.141398,-0.4025,-5.4075,-3.185
1052,279249,0.98393,0.076616,-0.140178,-0.42,-5.3375,-3.325
1053,279346,0.984174,0.07747001,-0.141276,-0.315,-5.2325,-3.3425
1054,279443,0.985516,0.07710399999999999,-0.14164200000000002,-0.4375,-5.285,-3.29
1055,279540,0.9861260000000001,0.07747001,-0.14090999999999998,-0.2975,-5.2675,-3.2375
1056,279636,0.9883221,0.07698201,-0.14396,-0.245,-5.3025,-3.2025
1057,279733,0.988566,0.07515201,-0.142008,-0.2275,-5.3375,-3.325
1058,279830,0.9897860999999999,0.07393200000000001,-0.14274,-0.07,-5.2325,-3.3075
1059,279927,0.9892981,0.07234600000000001,-0.141764,-0.105,-5.3375,-3.2725
1060,280024,0.9883221,0.07246799999999999,-0.14188599999999998,-0.0525,-5.4775,-3.325
1061,280120,0.9867360999999999,0.07198,-0.142252,-0.07,-5.4775,-3.22
1062,280217,0.987712,0.07222401,-0.14213,-0.1225,-5.425,-3.15
1063,280314,0.986858,0.074298,-0.143594,-0.07,-5.495,-3.1675
1064,280411,0.9861260000000001,0.07625,-0.14152,-0.035,-5.46,-3.255
1065,280507,0.9852719999999999,0.07722601,-0.141032,-0.0525,-5.3725,-3.2375
1066,280604,0.984296,0.077958,-0.141276,0.035,-5.3725,-3.3075
1067,280701,0.9836860999999999,0.07686,-0.14188599999999998,0.0525,-5.355,-3.325
1068,280798,0.983808,0.077592,-0.142618,0.07,-5.11,-3.3775
1069,280895,0.9845401,0.07564,-0.142618,0.0175,-5.0225,-3.4475
1070,280991,0.9840521000000001,0.07612801,-0.142618,0.07,-4.97,-3.5175
1071,281088,0.9850280999999999,0.07381001,-0.14213,0.0525,-5.005,-3.4475
1072,281185,0.9884440000000001,0.074054,-0.143228,0.105,-5.005,-3.3425
1073,281282,0.9862479999999999,0.07503,-0.145424,0.175,-5.215,-3.2025
1074,281379,0.987956,0.074786,-0.142984,0.07,-5.2675,-3.0625
1075,281475,0.9878341,0.074054,-0.14164200000000002,-0.0175,-5.2675,-3.1325
1076,281572,0.9861260000000001,0.07551801,-0.142008,-0.07,-5.4775,-3.0975
1077,281669,0.9861260000000001,0.074664,-0.14164200000000002,0.0175,-5.46,-3.045
1078,281766,0.9846620999999999,0.074054,-0.14188599999999998,-0.105,-5.39,-3.0975
1079,281863,0.983564,0.07551801,-0.142008,-0.07,-5.565,-3.1325
1080,281959,0.9829540000000001,0.07625,-0.14335,-0.07,-5.565,-3.1675
1081,282056,0.983808,0.077714,-0.14310599999999998,-0.07,-5.565,-3.15
1082,282153,0.9845401,0.076494,-0.14335,-0.035,-5.46,-3.2025
1083,282250,0.9836860999999999,0.07527400000000001,-0.14213,-0.0875,-5.215,-3.115
1084,282347,0.9846620999999999,0.074298,-0.141764,-0.14,-5.1625,-3.15
1085,282444,0.9850280999999999,0.07564,-0.140178,-0.14,-5.005,-3.185
1086,282540,0.9863700000000001,0.07490801,-0.139568,-0.105,-4.865,-3.185
1087,282637,0.9874681000000001,0.074298,-0.140178,-0.175,-4.9175,-3.2025
1088,282734,0.9884440000000001,0.07332201,-0.141032,-0.105,-4.97,-3.115
1089,282831,0.9911281,0.07222401,-0.140178,-0.0875,-4.9,-3.0975
1090,282928,0.9928360999999999,0.070516,-0.139934,-0.07,-4.8475,-3.15
1091,283024,0.9924700000000001,0.07137001,-0.138348,-0.1925,-5.11,-3.1325
1092,283121,0.9916161,0.07332201,-0.138714,-0.105,-5.3025,-3.08
1093,283218,0.9903959999999999,0.07381001,-0.139202,-0.21,-5.3725,-3.15
1094,283315,0.9862479999999999,0.076494,-0.138836,-0.315,-5.355,-3.185
1095,283412,0.985516,0.077836,-0.13908,-0.4025,-5.285,-3.115
1096,283508,0.9834421,0.07698201,-0.140666,-0.315,-5.0575,-3.0975
1097,283605,0.9829540000000001,0.07698201,-0.14164200000000002,-0.2975,-5.04,-3.185
1098,283702,0.9823440999999999,0.07564,-0.14213,-0.14,-5.0225,-3.2375
1099,283799,0.983808,0.075396,-0.141764,-0.035,-5.0225,-3.2725
1100,283896,0.9867360999999999,0.07551801,-0.14090999999999998,-0.0875,-5.0575,-3.255
1101,283992,0.9861260000000001,0.074054,-0.143228,0.0,-5.145,-3.1675
1102,284089,0.9883221,0.07393200000000001,-0.144204,-0.035,-5.1625,-3.185
1103,284186,0.9888101,0.07564,-0.14164200000000002,-0.0525,-5.215,-3.2025
1104,284283,0.989176,0.07600599999999999,-0.141398,-0.14,-5.25,-3.185
1105,284380,0.9883221,0.072956,-0.142374,-0.175,-5.215,-3.0975
1106,284476,0.9857600000000001,0.072956,-0.140422,-0.105,-5.2325,-3.115
1107,284573,0.986858,0.07234600000000001,-0.140544,-0.0175,-5.1275,-3.22
1108,284670,0.9864921,0.07259,-0.139568,0.0875,-5.11,-3.22
1109,284767,0.9861260000000001,0.07381001,-0.138348,0.14,-5.18,-3.2725
1110,284864,0.9867360999999999,0.075396,-0.13859200000000002,0.0525,-5.11,-3.325
1111,284960,0.986614,0.07393200000000001,-0.136274,-0.105,-5.11,-3.3075
1112,285057,0.987956,0.074298,-0.138348,-0.1225,-5.005,-3.3425
1113,285154,0.9894200000000001,0.07332201,-0.139812,-0.0875,-4.8475,-3.36
1114,285251,0.9888101,0.074298,-0.139202,-0.1925,-4.8125,-3.3775
1115,285348,0.9869800999999999,0.073688,-0.139934,-0.2625,-4.76,-3.325
1116,285445,0.988078,0.07490801,-0.139934,-0.245,-4.7075,-3.29
1117,285541,0.9869800999999999,0.075396,-0.141276,-0.2975,-4.9,-3.2725
1118,285638,0.9863700000000001,0.07515201,-0.142252,-0.245,-4.8125,-3.2375
1119,285735,0.9853940999999999,0.07490801,-0.14310599999999998,-0.1575,-4.9175,-3.2025
1120,285832,0.9874681000000001,0.07564,-0.142374,-0.2625,-4.9875,-3.1675
1121,285929,0.9883221,0.07564,-0.141154,-0.245,-5.0575,-3.185
1122,286025,0.9878341,0.07625,-0.140544,-0.21,-5.0575,-3.115
1123,286122,0.986858,0.076494,-0.139568,-0.105,-5.285,-3.185
1124,286219,0.9856379999999999,0.075396,-0.137738,0.035,-5.3725,-3.255
1125,286316,0.9861260000000001,0.074664,-0.135298,0.07,-5.0925,-3.2375
1126,286413,0.9873460999999999,0.07551801,-0.13602999999999998,0.0525,-5.0925,-3.2375
1127,286509,0.9889319999999999,0.07393200000000001,-0.135664,0.07,-5.145,-3.1325
1128,286606,0.9911281,0.07259,-0.13761600000000002,0.1575,-5.075,-3.15
1129,286703,0.9911281,0.07259,-0.136274,0.1925,-5.0225,-3.255
1130,286800,0.9916161,0.07137001,-0.136274,0.0875,-4.9175,-3.29
1131,286897,0.9884440000000001,0.070882,-0.13785999999999998,0.035,-4.935,-3.29
1132,286993,0.9884440000000001,0.07283401,-0.139568,-0.14,-4.865,-3.3425
1133,287090,0.9884440000000001,0.07417601,-0.139568,-0.2625,-4.76,-3.29
1134,287187,0.987712,0.07686,-0.14152,-0.315,-4.8825,-3.1675
1135,287284,0.984784,0.07698201,-0.142252,-0.4725,-4.97,-3.115
1136,287381,0.984296,0.076494,-0.14164200000000002,-0.525,-5.1625,-3.255
1137,287477,0.9845401,0.07600599999999999,-0.142618,-0.42,-5.18,-3.255
1138,287574,0.9852719999999999,0.07612801,-0.139812,-0.2625,-5.25,-3.3075
1139,287671,0.9858819999999999,0.07710399999999999,-0.14090999999999998,-0.105,-5.355,-3.3425
1140,287768,0.9852719999999999,0.076738,-0.140666,0.035,-5.215,-3.36
1141,287865,0.986858,0.077714,-0.141154,0.0875,-5.285,-3.3075
1142,287962,0.9867360999999999,0.07747001,-0.139812,0.07,-5.2675,-3.2375
1143,288058,0.987712,0.076738,-0.140178,0.175,-5.215,-3.255
1144,288155,0.9867360999999999,0.07637200000000001,-0.138714,0.21,-5.215,-3.2725
1145,288252,0.9873460999999999,0.07393200000000001,-0.138226,0.175,-5.1975,-3.15
1146,288349,0.9889319999999999,0.072712,-0.13785999999999998,0.1225,-5.2325,-3.115
1147,288446,0.9873460999999999,0.071004,-0.137006,0.035,-5.25,-3.0975
1148,288542,0.9857600000000001,0.071004,-0.13908,0.0875,-5.1275,-3.045
1149,288639,0.9862479999999999,0.07259,-0.138226,0.07,-5.11,-3.01
1150,288736,0.9862479999999999,0.07356601,-0.13725,0.0525,-5.18,-3.115
1151,288833,0.9873460999999999,0.074054,-0.13859200000000002,0.0875,-5.1275,-3.1325
1152,288930,0.98759,0.07503,-0.138836,0.0875,-5.25,-3.045
1153,289026,0.9883221,0.074664,-0.138836,-0.035,-5.3025,-3.0625
1154,289123,0.988566,0.07564,-0.13847,-0.2275,-5.4075,-3.0275
1155,289220,0.989908,0.07527400000000001,-0.139812,-0.3325,-5.3025,-3.0625
1156,289317,0.9889319999999999,0.07393200000000001,-0.139324,-0.315,-5.3725,-3.0975
1157,289414,0.9882001,0.073688,-0.139568,-0.3325,-5.39,-3.255
1158,289510,0.9878341,0.074054,-0.13859200000000002,-0.245,-5.4075,-3.3075
1159,289607,0.9862479999999999,0.07442,-0.138104,-0.245,-5.1975,-3.185
1160,289704,0.9883221,0.07344400000000001,-0.137372,-0.1225,-5.2325,-3.185
1161,289801,0.988566,0.07442,-0.137128,-0.0875,-5.215,-3.08
1162,289897,0.9892981,0.074664,-0.136152,-0.0175,-5.215,-3.08
1163,289994,0.9897860999999999,0.072102,-0.13480999999999999,0.035,-5.215,-3.1325
1164,290091,0.990884,0.072956,-0.137982,-0.0525,-5.25,-3.1675
1165,290188,0.990518,0.073688,-0.136884,-0.105,-5.1975,-3.115
1166,290285,0.989908,0.07442,-0.136762,-0.175,-5.005,-3.0275
1167,290382,0.9878341,0.07417601,-0.135542,-0.3325,-4.9875,-3.0275
1168,290478,0.9874681000000001,0.07503,-0.137006,-0.4375,-5.04,-3.045
1169,290575,0.9860040999999999,0.074786,-0.139202,-0.49,-5.005,-3.08
1170,290672,0.987956,0.07381001,-0.13847,-0.455,-4.935,-3.08
1171,290769,0.9861260000000001,0.074542,-0.14005599999999999,-0.49,-5.005,-3.15
1172,290866,0.987102,0.074542,-0.139568,-0.4375,-5.1275,-3.2025
1173,290962,0.9873460999999999,0.07442,-0.138714,-0.3325,-5.075,-3.2025
1174,291059,0.9867360999999999,0.07600599999999999,-0.138104,-0.1225,-5.1275,-3.1675
1175,291156,0.9883221,0.07503,-0.13847,0.0,-5.32,-3.0975
1176,291253,0.9888101,0.07490801,-0.13847,0.035,-5.4075,-3.1325
1177,291349,0.986614,0.07588400000000001,-0.137006,0.0875,-5.3725,-3.2025
1178,291446,0.9882001,0.07527400000000001,-0.13639600000000002,0.0875,-5.18,-3.2025
1179,291543,0.9869800999999999,0.074298,-0.136518,0.14,-5.32,-3.115
1180,291640,0.986614,0.07393200000000001,-0.135908,0.035,-5.215,-3.185
1181,291737,0.987102,0.07332201,-0.137494,0.0,-4.9875,-3.1325
1182,291834,0.987224,0.07393200000000001,-0.13785999999999998,-0.105,-5.0925,-3.15
1183,291930,0.987956,0.07356601,-0.140666,-0.105,-5.11,-3.0625
1184,292027,0.985516,0.0732,-0.138836,-0.07,-5.145,-3.0625
1185,292124,0.9873460999999999,0.07332201,-0.1403,-0.07,-5.18,-3.08
1186,292221,0.9864921,0.07283401,-0.1403,-0.1575,-5.2675,-3.0975
1187,292317,0.9874681000000001,0.07173600000000001,-0.139568,-0.1225,-5.3025,-3.15
1188,292414,0.9869800999999999,0.07417601,-0.138714,-0.0525,-5.2675,-3.22
1189,292511,0.987224,0.07503,-0.138958,0.0,-5.25,-3.2025
1190,292608,0.9863700000000001,0.075396,-0.13725,0.035,-5.25,-3.2025
1191,292705,0.9867360999999999,0.07332201,-0.136884,0.0525,-5.4425,-3.1325
1192,292801,0.9894200000000001,0.07332201,-0.137372,0.0,-5.53,-3.115
1193,292898,0.989664,0.07137001,-0.136152,-0.0875,-5.4075,-3.15
1194,292995,0.9894200000000001,0.071858,-0.135054,-0.07,-5.39,-3.2725
1195,293092,0.9890540000000001,0.071858,-0.13480999999999999,-0.1925,-5.495,-3.36
1196,293189,0.9890540000000001,0.0732,-0.135786,-0.28,-5.425,-3.2725
1197,293286,0.9878341,0.073688,-0.136274,-0.28,-5.3375,-3.1675
1198,293382,0.987712,0.074786,-0.136274,-0.4025,-5.3025,-3.115
1199,293479,0.9873460999999999,0.076738,-0.137982,-0.3675,-5.2675,-3.115
1200,293576,0.98759,0.07551801,-0.13725,-0.2275,-5.215,-3.08
1201,293673,0.9882001,0.075762,-0.138104,-0.1925,-5.18,-3.0975
1202,293770,0.986858,0.07527400000000001,-0.138958,-0.105,-5.11,-3.185
1203,293866,0.9862479999999999,0.072956,-0.13847,0.0,-5.1275,-3.22
1204,293963,0.984296,0.070516,-0.138348,0.0175,-5.145,-3.3075
1205,294060,0.9852719999999999,0.07076001,-0.13761600000000002,0.0525,-5.2325,-3.3075
1206,294157,0.9889319999999999,0.069662,-0.13847,0.14,-5.215,-3.4125
1207,294254,0.988078,0.07076001,-0.13785999999999998,0.2275,-5.425,-3.36
1208,294351,0.9897860999999999,0.07173600000000001,-0.139324,0.28,-5.67,-3.36
1209,294447,0.989908,0.07246799999999999,-0.136884,0.28,-5.6525,-3.4125
1210,294544,0.9889319999999999,0.07283401,-0.136762,0.1575,-5.67,-3.4125
1211,294641,0.987102,0.072712,-0.136884,0.105,-5.7225,-3.43
1212,294738,0.987956,0.0732,-0.13664,0.07,-5.5825,-3.4475
1213,294835,0.986858,0.07442,-0.13761600000000002,-0.1225,-5.5125,-3.5525
1214,294931,0.9858819999999999,0.07442,-0.138714,-0.1225,-5.53,-3.5525
1215,295028,0.9857600000000001,0.07564,-0.13725,-0.105,-5.215,-3.535
1216,295125,0.984906,0.07600599999999999,-0.13944600000000001,-0.14,-5.145,-3.4825
1217,295222,0.984906,0.07503,-0.138104,-0.28,-5.1275,-3.3775
1218,295319,0.9857600000000001,0.07490801,-0.140544,-0.1925,-5.18,-3.4475
1219,295416,0.9836860999999999,0.07283401,-0.1403,-0.175,-5.04,-3.29
1220,295512,0.984418,0.07381001,-0.139568,-0.1225,-4.865,-3.255
1221,295609,0.9852719999999999,0.07332201,-0.139568,-0.105,-4.9175,-3.3075
1222,295706,0.9856379999999999,0.073688,-0.138836,-0.0875,-5.1975,-3.2725
1223,295803,0.9882001,0.07393200000000001,-0.139934,-0.0875,-5.11,-3.2025
1224,295900,0.986858,0.07381001,-0.139812,0.0175,-5.3025,-3.325
1225,295996,0.9873460999999999,0.07490801,-0.13859200000000002,0.0525,-5.4775,-3.255
1226,296093,0.988078,0.075396,-0.138714,0.035,-5.6875,-3.2725
1227,296190,0.987712,0.07515201,-0.137372,0.0,-5.635,-3.29
1228,296287,0.987712,0.075762,-0.138226,-0.105,-5.6175,-3.255
1229,296384,0.987956,0.07625,-0.13725,-0.07,-5.6175,-3.2725
1230,296480,0.9853940999999999,0.074664,-0.137494,-0.0525,-5.5125,-3.2725
1231,296577,0.9860040999999999,0.07503,-0.13664,0.0,-5.3375,-3.3425
1232,296674,0.98393,0.07381001,-0.136518,-0.0525,-5.25,-3.2725
1233,296771,0.9850280999999999,0.07417601,-0.137128,-0.07,-5.11,-3.2725
1234,296868,0.98759,0.07246799999999999,-0.136884,-0.0525,-5.11,-3.2725
1235,296965,0.989176,0.07259,-0.136274,0.035,-5.0225,-3.3075
1236,297061,0.990274,0.074298,-0.137372,0.0875,-5.005,-3.255
1237,297158,0.990518,0.07344400000000001,-0.135786,0.0175,-5.0925,-3.255
1238,297255,0.992592,0.07515201,-0.135664,-0.0875,-5.18,-3.115
1239,297352,0.9913719999999999,0.07722601,-0.138348,-0.105,-5.32,-3.1325
1240,297449,0.9895421,0.07612801,-0.137738,-0.245,-5.32,-3.0975
1241,297545,0.987712,0.07600599999999999,-0.13847,-0.245,-5.215,-3.1325
1242,297642,0.987956,0.075396,-0.13639600000000002,-0.07,-5.1975,-3.22
1243,297739,0.9864921,0.07600599999999999,-0.13761600000000002,-0.0875,-5.1975,-3.2725
1244,297836,0.986614,0.07588400000000001,-0.137738,-0.0175,-5.1625,-3.2375
1245,297933,0.987102,0.07612801,-0.138104,0.1225,-5.1975,-3.29
1246,298030,0.9888101,0.07490801,-0.136152,0.1575,-5.46,-3.29
1247,298126,0.9873460999999999,0.07307801,-0.136274,0.14,-5.46,-3.15
1248,298223,0.987956,0.0732,-0.13639600000000002,0.1225,-5.3725,-3.15
1249,298320,0.9874681000000001,0.07307801,-0.135664,-0.0525,-5.3025,-3.0275
1250,298417,0.9884440000000001,0.071004,-0.13664,-0.175,-5.215,-3.115
1251,298514,0.9873460999999999,0.07015,-0.13359000000000001,-0.1925,-5.0575,-3.01
1252,298610,0.988078,0.070882,-0.135054,-0.245,-5.0925,-3.0625
1253,298707,0.987956,0.07112601,-0.136762,-0.35,-5.0925,-3.15
1254,298804,0.9882001,0.07198,-0.13908,-0.3325,-5.3025,-3.15
1255,298901,0.9886881,0.07222401,-0.13761600000000002,-0.315,-5.25,-3.15
1256,298998,0.987102,0.07515201,-0.138348,-0.245,-5.25,-3.2375
1257,299094,0.9894200000000001,0.07515201,-0.13908,-0.2975,-5.355,-3.255
1258,299191,0.98759,0.07393200000000001,-0.140178,-0.28,-5.2675,-3.22
1259,299288,0.987956,0.07332201,-0.14078800000000002,-0.1225,-5.25,-3.2725
1260,299385,0.98759,0.07393200000000001,-0.14005599999999999,0.0525,-5.355,-3.22
1261,299482,0.9867360999999999,0.074542,-0.13847,0.0175,-5.495,-3.2725
1262,299578,0.9862479999999999,0.074664,-0.138226,0.0875,-5.4425,-3.185
1263,299675,0.9858819999999999,0.07112601,-0.138104,0.0525,-5.6,-3.185
1264,299772,0.9869800999999999,0.07234600000000001,-0.139568,0.0175,-5.6,-3.22
1265,299869,0.986858,0.072956,-0.137372,-0.0875,-5.565,-3.2375
1266,299966,0.9869800999999999,0.07234600000000001,-0.136274,-0.21,-5.425,-3.1675
1267,300062,0.9864921,0.07344400000000001,-0.136762,-0.28,-5.3725,-3.2725
1268,300159,0.9878341,0.072956,-0.135908,-0.4025,-5.215,-3.255
1269,300256,0.9882001,0.07503,-0.135664,-0.42,-5.0925,-3.2725
1270,300353,0.988078,0.074664,-0.13847,-0.4025,-5.285,-3.15
1271,300450,0.9882001,0.074054,-0.138348,-0.385,-5.2675,-3.15
1272,300546,0.9901521000000001,0.074542,-0.138226,-0.2625,-5.005,-3.0975
1273,300643,0.9910059999999999,0.07564,-0.13969,-0.175,-5.145,-3.255
1274,300740,0.9878341,0.0732,-0.139934,-0.0525,-5.1975,-3.3075
1275,300837,0.9861260000000001,0.074664,-0.137372,0.14,-5.2675,-3.325
1276,300934,0.9863700000000001,0.07381001,-0.138226,0.175,-5.32,-3.3075
1277,301030,0.987102,0.07393200000000001,-0.137738,0.0875,-5.4075,-3.325
1278,301127,0.9894200000000001,0.07137001,-0.13602999999999998,0.21,-5.5475,-3.3075
1279,301224,0.9900300999999999,0.07173600000000001,-0.136274,0.2625,-5.565,-3.325
1280,301321,0.9894200000000001,0.07332201,-0.13639600000000002,0.0875,-5.67,-3.3425
1281,301418,0.9895421,0.07381001,-0.134078,0.035,-5.74,-3.325
1282,301515,0.9882001,0.07344400000000001,-0.135176,-0.0175,-5.6,-3.3775
1283,301611,0.9890540000000001,0.07307801,-0.135298,-0.105,-5.355,-3.395
1284,301708,0.9883221,0.07417601,-0.13602999999999998,-0.21,-5.1975,-3.3775
1285,301805,0.9863700000000001,0.07564,-0.135054,-0.28,-4.9875,-3.4475
1286,301902,0.9853940999999999,0.07527400000000001,-0.137494,-0.21,-4.9525,-3.465
1287,301999,0.9846620999999999,0.07625,-0.138958,-0.21,-4.865,-3.465
1288,302095,0.986858,0.076616,-0.138958,-0.0875,-4.865,-3.395
1289,302192,0.9851501,0.075396,-0.139812,-0.07,-4.8475,-3.395
1290,302289,0.9851501,0.074664,-0.142252,0.0175,-4.795,-3.2725
1291,302386,0.9862479999999999,0.07356601,-0.140544,0.035,-5.005,-3.2375
1292,302483,0.9862479999999999,0.074298,-0.142008,0.105,-5.1275,-3.2375
1293,302579,0.9888101,0.0732,-0.141032,0.14,-5.3025,-3.2375
1294,302676,0.9878341,0.071858,-0.140544,0.175,-5.32,-3.1675
1295,302773,0.9867360999999999,0.07234600000000001,-0.139324,0.2275,-5.5125,-3.15
1296,302870,0.987102,0.07283401,-0.139568,0.28,-5.6875,-3.2025
1297,302967,0.986858,0.0732,-0.13725,0.1225,-5.7575,-3.2375
1298,303063,0.987956,0.07222401,-0.137494,-0.105,-5.74,-3.2375
1299,303160,0.9860040999999999,0.071004,-0.13908,-0.35,-5.6175,-3.255
1300,303257,0.9845401,0.069174,-0.13785999999999998,-0.5075,-5.495,-3.3075
1301,303354,0.985516,0.071614,-0.136884,-0.56,-5.355,-3.29
1302,303451,0.9858819999999999,0.07381001,-0.13785999999999998,-0.6825,-5.25,-3.36
1303,303547,0.984906,0.07381001,-0.13725,-0.595,-5.0575,-3.3425
1304,303644,0.984418,0.074786,-0.138348,-0.455,-5.0225,-3.3075
1305,303741,0.986858,0.07686,-0.13969,-0.385,-5.145,-3.2725
1306,303838,0.9892981,0.07808001,-0.137982,-0.28,-4.9875,-3.1325
1307,303935,0.989664,0.07808001,-0.140178,-0.2625,-5.0225,-3.1325
1308,304031,0.9906401,0.07686,-0.138836,-0.2275,-5.2675,-3.08
1309,304128,0.9918600000000001,0.07612801,-0.138714,-0.1925,-5.3025,-3.0625
1310,304225,0.9911281,0.07600599999999999,-0.13785999999999998,-0.175,-5.3725,-3.1325
1311,304322,0.9890540000000001,0.075396,-0.137738,-0.14,-5.3725,-3.1325
1312,304419,0.988078,0.07356601,-0.13639600000000002,-0.1925,-5.3375,-3.115
1313,304515,0.9888101,0.07417601,-0.135542,-0.0875,-5.4075,-3.15
1314,304612,0.988078,0.07515201,-0.132736,-0.0525,-5.3725,-3.115
1315,304709,0.9863700000000001,0.07564,-0.133468,-0.1575,-5.2675,-3.1675
1316,304806,0.9853940999999999,0.07381001,-0.134322,-0.175,-5.215,-3.0975
1317,304903,0.9862479999999999,0.07283401,-0.13542,-0.1925,-5.005,-3.045
1318,304999,0.987712,0.072956,-0.136884,-0.175,-4.725,-3.15
1319,305096,0.988566,0.07332201,-0.137006,-0.1925,-4.515,-3.2025
1320,305193,0.987956,0.07246799999999999,-0.137982,-0.14,-4.5675,-3.08
1321,305290,0.9878341,0.07307801,-0.138714,-0.0875,-4.5325,-3.1325
1322,305387,0.9890540000000001,0.07283401,-0.137372,0.105,-4.5325,-3.115
1323,305483,0.9892981,0.074298,-0.13859200000000002,0.14,-4.41,-3.045
1324,305580,0.989908,0.07503,-0.135908,0.14,-4.515,-3.15
1325,305677,0.9889319999999999,0.074786,-0.13639600000000002,0.175,-4.725,-3.1675
1326,305774,0.9901521000000001,0.074542,-0.135542,0.1925,-4.795,-3.15
1327,305871,0.9882001,0.074542,-0.13542,0.07,-4.8825,-3.15
1328,305967,0.9883221,0.074542,-0.134688,-0.035,-4.8825,-3.2025
1329,306064,0.987102,0.073688,-0.135176,-0.1225,-4.9,-3.2025
1330,306161,0.988566,0.07307801,-0.134322,-0.1925,-4.935,-3.2375
1331,306258,0.987102,0.071858,-0.133712,-0.245,-4.9525,-3.2375
1332,306355,0.987956,0.06954,-0.136518,-0.245,-4.8125,-3.2025
1333,306451,0.9883221,0.069906,-0.137128,-0.315,-4.6725,-3.185
1334,306548,0.9890540000000001,0.069784,-0.136152,-0.1925,-4.7075,-3.2025
1335,306645,0.987956,0.070516,-0.136884,-0.14,-4.8125,-3.15
1336,306742,0.988078,0.071614,-0.138958,-0.1925,-4.8125,-3.15
1337,306839,0.9890540000000001,0.07283401,-0.138958,-0.2975,-4.9175,-3.045
1338,306935,0.987956,0.07332201,-0.139324,-0.2975,-5.0575,-3.0275
1339,307032,0.986858,0.07356601,-0.138958,-0.245,-5.005,-3.045
1340,307129,0.9858819999999999,0.074786,-0.13785999999999998,-0.2625,-5.0225,-3.0625
1341,307226,0.985516,0.07600599999999999,-0.136274,-0.1925,-5.145,-3.15
1342,307323,0.9860040999999999,0.07356601,-0.135908,-0.0525,-5.3025,-3.1325
1343,307419,0.9869800999999999,0.07307801,-0.135664,-0.0875,-5.4075,-3.15
1344,307516,0.9903959999999999,0.0732,-0.133712,0.0175,-5.425,-3.15
1345,307613,0.9914940999999999,0.07234600000000001,-0.133346,0.105,-5.425,-3.185
1346,307710,0.99125,0.07222401,-0.13237000000000002,0.07,-5.5125,-3.255
1347,307807,0.990884,0.072102,-0.13151600000000002,0.0,-5.355,-3.3425
1348,307904,0.9894200000000001,0.071614,-0.132004,-0.035,-5.1975,-3.29
1349,308000,0.99125,0.07259,-0.131272,-0.14,-4.97,-3.29
1350,308097,0.989176,0.0732,-0.132004,-0.2275,-4.9875,-3.3425
1351,308194,0.989908,0.07222401,-0.135054,-0.2275,-4.8825,-3.22
1352,308291,0.9895421,0.07332201,-0.136274,-0.2275,-4.7425,-3.29
1353,308388,0.9897860999999999,0.07283401,-0.136762,-0.1225,-4.795,-3.255
1354,308484,0.9890540000000001,0.073688,-0.135542,-0.0875,-4.8475,-3.2725
1355,308581,0.9874681000000001,0.07515201,-0.136274,-0.07,-4.795,-3.29
1356,308678,0.9861260000000001,0.076494,-0.137128,-0.035,-4.8475,-3.3425
1357,308775,0.9853940999999999,0.07637200000000001,-0.136152,0.0,-4.935,-3.29
1358,308872,0.987224,0.075762,-0.136518,0.105,-4.9175,-3.2725
1359,308968,0.9867360999999999,0.07490801,-0.134932,0.21,-5.0925,-3.395
1360,309065,0.987956,0.07417601,-0.134688,0.245,-5.215,-3.3775
1361,309162,0.987712,0.07283401,-0.133468,0.28,-5.3725,-3.43
1362,309259,0.989908,0.072102,-0.133468,0.28,-5.5125,-3.3425
1363,309356,0.9895421,0.072102,-0.132736,0.21,-5.5825,-3.325
1364,309453,0.989664,0.071858,-0.13298,0.07,-5.46,-3.2725
1365,309549,0.988566,0.07283401,-0.132736,-0.035,-5.3375,-3.22
1366,309646,0.9884440000000001,0.071492,-0.13456600000000002,-0.07,-5.215,-3.2025
1367,309743,0.98759,0.07112601,-0.132614,-0.1225,-5.215,-3.2375
1368,309840,0.9882001,0.071614,-0.13383399999999998,-0.245,-5.18,-3.15
1369,309937,0.9874681000000001,0.07222401,-0.135786,-0.14,-4.9875,-3.22
1370,310033,0.9894200000000001,0.07381001,-0.13602999999999998,-0.1225,-5.075,-3.2375
1371,310130,0.990518,0.07527400000000001,-0.135542,-0.14,-5.1275,-3.255
1372,310227,0.989176,0.07551801,-0.134322,-0.07,-5.075,-3.22
1373,310324,0.9886881,0.07503,-0.13639600000000002,-0.07,-5.075,-3.1675
1374,310421,0.9873460999999999,0.07246799999999999,-0.137006,-0.1225,-5.1625,-3.22
1375,310517,0.98759,0.070638,-0.13664,-0.105,-5.1275,-3.255
1376,310614,0.98759,0.07173600000000001,-0.134688,0.07,-5.2325,-3.2725
1377,310711,0.987224,0.07283401,-0.134444,0.105,-5.3375,-3.29
1378,310808,0.9897860999999999,0.07393200000000001,-0.134322,0.0875,-5.5125,-3.29
1379,310905,0.989664,0.073688,-0.135298,-0.0525,-5.6,-3.185
1380,311002,0.987712,0.072956,-0.133468,-0.0875,-5.4775,-3.1325
1381,311098,0.9888101,0.07344400000000001,-0.132736,-0.2275,-5.2675,-3.1675
1382,311195,0.987712,0.07173600000000001,-0.13237000000000002,-0.3325,-5.1975,-3.0975
1383,311292,0.9873460999999999,0.072102,-0.133468,-0.4025,-5.145,-3.15
1384,311389,0.9862479999999999,0.07198,-0.13383399999999998,-0.3675,-5.0575,-3.2025
1385,311485,0.9853940999999999,0.07381001,-0.133102,-0.315,-5.04,-3.2375
1386,311582,0.986614,0.07381001,-0.133712,-0.2975,-4.9525,-3.185
1387,311679,0.9869800999999999,0.075762,-0.135542,-0.2975,-5.0225,-3.2025
1388,311776,0.9895421,0.074786,-0.134078,-0.2275,-5.0225,-3.22
1389,311872,0.9914940999999999,0.07588400000000001,-0.135054,-0.14,-4.9525,-3.15
1390,311969,0.990884,0.07417601,-0.135176,-0.105,-5.075,-3.2375
1391,312066,0.9916161,0.074786,-0.135054,-0.1225,-5.1975,-3.15
1392,312163,0.989908,0.07222401,-0.135908,-0.14,-5.215,-3.15
1393,312259,0.98759,0.072712,-0.135054,-0.21,-5.3725,-3.1675
1394,312356,0.9873460999999999,0.0732,-0.135054,-0.2975,-5.355,-3.2025
1395,312453,0.9869800999999999,0.07381001,-0.134322,-0.1925,-5.5125,-3.1325
1396,312550,0.9858819999999999,0.074054,-0.13359000000000001,-0.14,-5.74,-3.15
1397,312646,0.9857600000000001,0.073688,-0.133346,-0.1575,-5.705,-3.08
1398,312743,0.986858,0.07259,-0.13359000000000001,-0.1225,-5.6,-3.22
1399,312840,0.9864921,0.07234600000000001,-0.13383399999999998,-0.1925,-5.565,-3.29
1400,312937,0.9867360999999999,0.07259,-0.1342,-0.1225,-5.39,-3.2025
1401,313033,0.9897860999999999,0.07137001,-0.132736,0.0175,-5.215,-3.2025
1402,313130,0.99125,0.07246799999999999,-0.132614,-0.0525,-5.215,-3.3075
1403,313227,0.9916161,0.072712,-0.1342,-0.175,-5.1975,-3.3075
1404,313324,0.9901521000000001,0.074786,-0.133346,-0.28,-5.3025,-3.325
1405,313420,0.9900300999999999,0.075396,-0.133468,-0.28,-5.3375,-3.255
1406,313517,0.989908,0.074664,-0.13456600000000002,-0.315,-5.3375,-3.1675
1407,313614,0.9894200000000001,0.07356601,-0.134688,-0.3325,-5.425,-3.2025
1408,313711,0.987956,0.072102,-0.135786,-0.385,-5.4425,-3.22
1409,313807,0.987224,0.071858,-0.136152,-0.3675,-5.5125,-3.185
1410,313904,0.9856379999999999,0.07344400000000001,-0.136762,-0.4025,-5.4425,-3.1675
1411,314001,0.98759,0.074664,-0.134932,-0.4025,-5.46,-3.1325
1412,314098,0.9864921,0.07527400000000001,-0.13602999999999998,-0.3675,-5.4075,-3.185
1413,314194,0.9853940999999999,0.07527400000000001,-0.13480999999999999,-0.245,-5.3375,-3.2375
1414,314291,0.987956,0.07490801,-0.134688,-0.1575,-5.25,-3.185
1415,314388,0.9884440000000001,0.07417601,-0.133102,-0.07,-5.355,-3.2025
1416,314484,0.99125,0.0732,-0.134078,0.07,-5.46,-3.255
1417,314581,0.9929581000000001,0.071492,-0.13151600000000002,0.175,-5.5125,-3.255
1418,314678,0.9929581000000001,0.07198,-0.132248,0.1225,-5.46,-3.36
1419,314775,0.9929581000000001,0.069906,-0.13115,0.035,-5.53,-3.465
1420,314871,0.990274,0.070516,-0.131272,-0.035,-5.4425,-3.36
1421,314968,0.990518,0.07076001,-0.132736,-0.245,-5.2325,-3.4825
1422,315065,0.9884440000000001,0.07027201,-0.133468,-0.3325,-5.1625,-3.4825
1423,315162,0.988566,0.07076001,-0.133102,-0.35,-5.145,-3.43
1424,315258,0.9867360999999999,0.071858,-0.135054,-0.315,-5.04,-3.395
1425,315355,0.987102,0.07344400000000001,-0.135298,-0.21,-5.04,-3.4125
1426,315452,0.9867360999999999,0.075762,-0.135542,-0.245,-5.0575,-3.43
1427,315549,0.986614,0.07710399999999999,-0.134932,-0.175,-5.0925,-3.3425
1428,315645,0.987102,0.07564,-0.13602999999999998,-0.1575,-5.075,-3.4125
1429,315742,0.9864921,0.074786,-0.136152,-0.07,-5.0575,-3.3075
1430,315839,0.9874681000000001,0.074664,-0.135176,-0.035,-5.0925,-3.395
1431,315936,0.988078,0.072102,-0.13639600000000002,-0.07,-5.04,-3.36
1432,316032,0.9886881,0.071858,-0.13480999999999999,-0.0525,-5.145,-3.36
1433,316129,0.987712,0.072956,-0.135298,0.0,-5.25,-3.4475
1434,316226,0.9878341,0.072712,-0.135786,-0.035,-5.32,-3.4125
1435,316323,0.9894200000000001,0.072102,-0.13383399999999998,-0.035,-5.4075,-3.465
1436,316419,0.9888101,0.071492,-0.133712,0.035,-5.39,-3.5
1437,316516,0.9884440000000001,0.07137001,-0.131394,0.035,-5.285,-3.5175
1438,316613,0.9867360999999999,0.07198,-0.132248,0.0175,-5.1975,-3.5
1439,316710,0.9850280999999999,0.07259,-0.13176,0.035,-5.18,-3.43
1440,316806,0.9860040999999999,0.07417601,-0.133224,-0.07,-5.0925,-3.395
1441,316903,0.984174,0.074542,-0.134444,-0.175,-5.11,-3.36
1442,317000,0.986614,0.07808001,-0.13359000000000001,-0.2975,-4.97,-3.29
1443,317097,0.9874681000000001,0.076738,-0.135786,-0.2625,-4.935,-3.325
1444,317193,0.9884440000000001,0.076494,-0.13639600000000002,-0.2275,-5.0225,-3.2725
1445,317290,0.9894200000000001,0.07698201,-0.135908,-0.175,-4.97,-3.29
1446,317387,0.9883221,0.075762,-0.1342,-0.07,-5.005,-3.3425
1447,317483,0.9883221,0.07381001,-0.134688,-0.07,-5.11,-3.395
1448,317580,0.9882001,0.07198,-0.134322,-0.0525,-5.2325,-3.36
1449,317677,0.98759,0.07307801,-0.13383399999999998,0.035,-5.18,-3.3775
1450,317774,0.9892981,0.07222401,-0.132614,-0.035,-5.2325,-3.36
1451,317870,0.988078,0.07246799999999999,-0.133346,-0.07,-5.3375,-3.2725
1452,317967,0.986614,0.07246799999999999,-0.1342,-0.0525,-5.4075,-3.255
1453,318064,0.9878341,0.07198,-0.134444,-0.035,-5.355,-3.255
1454,318161,0.9864921,0.07490801,-0.133956,-0.0875,-5.425,-3.22
1455,318257,0.9862479999999999,0.075396,-0.132614,-0.14,-5.285,-3.255
1456,318354,0.9858819999999999,0.076738,-0.133102,-0.1575,-5.355,-3.29
1457,318451,0.984784,0.077592,-0.133956,-0.21,-5.32,-3.255
1458,318547,0.9867360999999999,0.07588400000000001,-0.135054,-0.2275,-5.285,-3.2025
1459,318644,0.987956,0.07564,-0.13480999999999999,-0.175,-5.1975,-3.255
1460,318741,0.9888101,0.07332201,-0.135542,-0.1575,-5.0575,-3.3425
1461,318838,0.989908,0.07393200000000001,-0.1342,0.0,-5.2675,-3.2725
1462,318934,0.9910059999999999,0.074786,-0.133224,-0.07,-5.145,-3.3075
1463,319031,0.9928360999999999,0.07393200000000001,-0.134322,0.0175,-5.2325,-3.29
1464,319128,0.99125,0.07527400000000001,-0.133346,0.0,-5.39,-3.22
1465,319225,0.9901521000000001,0.07612801,-0.13383399999999998,0.1575,-5.4425,-3.0975
1466,319321,0.9894200000000001,0.074054,-0.135908,0.14,-5.46,-3.045
1467,319418,0.9886881,0.071614,-0.132858,0.2275,-5.5825,-3.01
1468,319515,0.9884440000000001,0.07173600000000001,-0.132126,0.1575,-5.46,-3.15
1469,319612,0.9869800999999999,0.071858,-0.13237000000000002,0.07,-5.53,-3.115
1470,319708,0.987956,0.07307801,-0.13298,0.0,-5.4775,-3.115
1471,319805,0.9861260000000001,0.07283401,-0.131272,-0.035,-5.4075,-3.22
1472,319902,0.9857600000000001,0.07490801,-0.129686,-0.1225,-5.3375,-3.15
1473,319999,0.9886881,0.074664,-0.132004,-0.2275,-5.145,-3.1325
1474,320095,0.9892981,0.074054,-0.132126,-0.2975,-4.9875,-3.0975
1475,320192,0.9900300999999999,0.07307801,-0.134322,-0.2975,-4.97,-3.0625
1476,320289,0.9903959999999999,0.07259,-0.134932,-0.2625,-4.9525,-3.08
1477,320386,0.989908,0.0732,-0.133956,-0.21,-5.04,-3.0275
1478,320482,0.9901521000000001,0.07381001,-0.13480999999999999,-0.2275,-5.25,-3.0275
1479,320579,0.989908,0.074298,-0.137006,-0.1925,-5.46,-3.0975
1480,320676,0.990884,0.074298,-0.134932,-0.105,-5.565,-3.045
1481,320773,0.9906401,0.07356601,-0.13359000000000001,-0.0875,-5.67,-3.0275
1482,320869,0.990762,0.076738,-0.133346,-0.0875,-5.7575,-3.0625
1483,320966,0.9884440000000001,0.077836,-0.13359000000000001,-0.175,-5.81,-3.045
1484,321063,0.9889319999999999,0.075396,-0.132492,-0.105,-5.88,-2.975
1485,321160,0.986858,0.07515201,-0.13115,-0.0875,-5.8275,-2.94
1486,321256,0.9874681000000001,0.07417601,-0.130906,-0.14,-5.705,-2.9925
1487,321353,0.9878341,0.073688,-0.130662,-0.175,-5.705,-2.9925
1488,321450,0.9900300999999999,0.07246799999999999,-0.132248,-0.14,-5.7225,-3.045
1489,321547,0.9906401,0.07112601,-0.13298,-0.0175,-5.67,-3.15
1490,321643,0.9914940999999999,0.071248,-0.131272,0.035,-5.6,-3.22
1491,321740,0.9917379999999999,0.071492,-0.131638,-0.0175,-5.5825,-3.3075
1492,321837,0.990274,0.072712,-0.133102,-0.0875,-5.565,-3.2725
1493,321934,0.989664,0.072956,-0.13298,-0.14,-5.355,-3.255
1494,322030,0.9900300999999999,0.07442,-0.135664,-0.1225,-5.3725,-3.2025
1495,322127,0.9886881,0.07307801,-0.13480999999999999,-0.0875,-5.39,-3.0975
1496,322224,0.9901521000000001,0.07527400000000001,-0.135786,-0.1925,-5.32,-3.01
1497,322320,0.987956,0.07503,-0.13664,-0.1225,-5.5125,-3.0625
1498,322417,0.986858,0.073688,-0.135542,-0.105,-5.6875,-3.0975
1499,322514,0.987102,0.07381001,-0.134322,0.0,-5.74,-3.22
1500,322611,0.9869800999999999,0.07307801,-0.135908,0.035,-5.775,-3.29
1501,322707,0.9873460999999999,0.07222401,-0.13639600000000002,-0.07,-5.7925,-3.255
1502,322804,0.9861260000000001,0.072712,-0.13480999999999999,-0.0525,-5.845,-3.2725
1503,322901,0.9864921,0.0732,-0.134444,-0.0525,-5.81,-3.22
1504,322998,0.987224,0.0732,-0.1342,-0.0175,-5.7925,-3.22
1505,323094,0.9861260000000001,0.072712,-0.136152,-0.07,-5.705,-3.2725
1506,323191,0.9886881,0.071614,-0.135786,-0.035,-5.6525,-3.255
1507,323288,0.987102,0.07222401,-0.134688,-0.0175,-5.6,-3.22
1508,323385,0.987956,0.072102,-0.135176,-0.035,-5.495,-3.15
1509,323481,0.9882001,0.07234600000000001,-0.135664,-0.14,-5.3375,-3.0975
1510,323578,0.987712,0.072102,-0.136152,-0.1575,-5.53,-3.185
1511,323675,0.988078,0.071614,-0.13456600000000002,-0.0525,-5.4075,-3.22
1512,323771,0.988078,0.07307801,-0.135542,-0.0175,-5.355,-3.29
1513,323868,0.9882001,0.073688,-0.136884,-0.21,-5.4425,-3.2375
1514,323965,0.9878341,0.07381001,-0.135908,-0.1575,-5.565,-3.255
1515,324062,0.9884440000000001,0.07259,-0.137006,-0.0875,-5.4075,-3.325
1516,324158,0.9890540000000001,0.07332201,-0.137128,-0.07,-5.355,-3.2375
1517,324255,0.9873460999999999,0.07344400000000001,-0.135664,-0.0875,-5.46,-3.2725
1518,324352,0.9862479999999999,0.07234600000000001,-0.13542,-0.07,-5.425,-3.325
1519,324449,0.9858819999999999,0.074054,-0.1342,-0.035,-5.425,-3.3775
1520,324545,0.9862479999999999,0.07246799999999999,-0.134688,-0.0175,-5.495,-3.4825
1521,324642,0.9869800999999999,0.07344400000000001,-0.133346,0.0875,-5.5125,-3.5175
1522,324739,0.9894200000000001,0.072102,-0.13480999999999999,0.0175,-5.5475,-3.535
1523,324836,0.990518,0.071858,-0.134322,0.105,-5.39,-3.4475
1524,324932,0.990884,0.07246799999999999,-0.13359000000000001,0.1575,-5.39,-3.4125
1525,325029,0.9897860999999999,0.071858,-0.13456600000000002,-0.0175,-5.4425,-3.4125
1526,325126,0.9901521000000001,0.07259,-0.134322,0.0,-5.425,-3.465
1527,325223,0.9884440000000001,0.0732,-0.13456600000000002,0.0175,-5.32,-3.36
1528,325319,0.9895421,0.07356601,-0.13456600000000002,-0.0525,-5.355,-3.36
1529,325416,0.9867360999999999,0.072956,-0.13602999999999998,-0.1225,-5.285,-3.4475
1530,325513,0.9860040999999999,0.074542,-0.135786,-0.0875,-5.18,-3.5175
1531,325610,0.985516,0.07564,-0.13602999999999998,-0.07,-5.25,-3.5175
1532,325706,0.9845401,0.07564,-0.13639600000000002,-0.0875,-5.2675,-3.465
1533,325803,0.9869800999999999,0.07503,-0.13602999999999998,-0.0175,-5.11,-3.4475
1534,325900,0.9874681000000001,0.075762,-0.13785999999999998,0.07,-5.3375,-3.395
1535,325997,0.987224,0.07356601,-0.13761600000000002,0.07,-5.285,-3.36
1536,326093,0.9889319999999999,0.07259,-0.137494,0.035,-5.285,-3.43
1537,326190,0.987224,0.073688,-0.138104,0.105,-5.25,-3.43
1538,326287,0.9873460999999999,0.073688,-0.13664,0.07,-5.3375,-3.29
1539,326384,0.986858,0.07381001,-0.135664,0.0875,-5.355,-3.29
1540,326480,0.9869800999999999,0.07356601,-0.137006,0.14,-5.4425,-3.3425
1541,326577,0.98759,0.07612801,-0.135542,0.1225,-5.53,-3.3425
1542,326674,0.9890540000000001,0.07515201,-0.135908,0.035,-5.4425,-3.36
1543,326771,0.98759,0.07527400000000001,-0.13456600000000002,0.0525,-5.32,-3.36
1544,326867,0.9874681000000001,0.07503,-0.135176,0.105,-5.25,-3.395
1545,326964,0.989664,0.07490801,-0.135298,0.175,-5.215,-3.36
1546,327061,0.989908,0.07234600000000001,-0.135786,0.2275,-5.145,-3.255
1547,327158,0.9884440000000001,0.07222401,-0.133956,0.1575,-5.215,-3.36
1548,327254,0.9882001,0.07344400000000001,-0.135908,-0.0875,-5.3025,-3.395
1549,327351,0.988078,0.07393200000000001,-0.136762,-0.07,-5.1625,-3.2725
1550,327448,0.9874681000000001,0.072102,-0.13639600000000002,-0.1225,-5.2325,-3.1675
1551,327544,0.9874681000000001,0.07356601,-0.135786,-0.035,-5.215,-3.185
1552,327641,0.9884440000000001,0.074054,-0.136274,-0.1225,-5.25,-3.185
1553,327738,0.9884440000000001,0.075396,-0.135786,-0.175,-5.3375,-3.0975
1554,327835,0.9888101,0.07490801,-0.136152,-0.1925,-5.285,-3.0975
1555,327931,0.9878341,0.07393200000000001,-0.136518,-0.1925,-5.285,-3.115
1556,328028,0.987956,0.07393200000000001,-0.136884,-0.07,-5.495,-3.2025
1557,328125,0.98759,0.07344400000000001,-0.134932,-0.0175,-5.39,-3.2025
1558,328222,0.989664,0.073688,-0.133468,-0.105,-5.5125,-3.2025
1559,328318,0.9895421,0.07490801,-0.133712,-0.1575,-5.565,-3.115
1560,328415,0.990884,0.075762,-0.13456600000000002,-0.07,-5.4425,-3.0975
1561,328512,0.9914940999999999,0.07332201,-0.132858,-0.0875,-5.3375,-3.1675
1562,328609,0.990518,0.071858,-0.13298,0.0,-5.4075,-3.22
1563,328705,0.989176,0.07222401,-0.132858,-0.1225,-5.39,-3.22
1564,328802,0.9884440000000001,0.07015,-0.133468,-0.1925,-5.285,-3.2025
1565,328899,0.9882001,0.071004,-0.13480999999999999,-0.21,-5.145,-3.2375
1566,328996,0.9873460999999999,0.06954,-0.135542,-0.1925,-5.0575,-3.2725
1567,329092,0.9895421,0.072712,-0.13456600000000002,-0.1575,-4.9525,-3.255
1568,329189,0.9895421,0.074054,-0.136884,-0.175,-5.0225,-3.29
1569,329286,0.9894200000000001,0.07490801,-0.135542,-0.1575,-5.11,-3.255
1570,329383,0.9878341,0.07612801,-0.136884,-0.14,-4.9875,-3.185
1571,329479,0.9862479999999999,0.07381001,-0.13602999999999998,-0.0525,-5.11,-3.185
1572,329576,0.9861260000000001,0.07564,-0.138104,-0.105,-5.1975,-3.185
1573,329673,0.986858,0.07564,-0.139324,-0.105,-5.215,-3.3075
1574,329770,0.9864921,0.07625,-0.137738,-0.07,-5.1625,-3.3075
1575,329866,0.986858,0.07515201,-0.136762,0.0,-5.4075,-3.1675
1576,329963,0.9860040999999999,0.074298,-0.135908,0.0175,-5.53,-3.2025
1577,330060,0.987102,0.074542,-0.134932,0.1575,-5.53,-3.255
1578,330157,0.987102,0.074542,-0.134688,0.1925,-5.5475,-3.2375
1579,330253,0.9861260000000001,0.07442,-0.133956,0.1575,-5.6175,-3.15
1580,330350,0.9863700000000001,0.07332201,-0.135298,0.175,-5.46,-3.2025
1581,330447,0.9878341,0.07283401,-0.134078,0.1925,-5.4425,-3.1675
1582,330544,0.988566,0.072712,-0.133956,0.1225,-5.285,-3.08
1583,330640,0.989664,0.07344400000000001,-0.134444,0.07,-5.0925,-3.0625
1584,330737,0.988566,0.07332201,-0.136152,0.0525,-5.1625,-3.0975
1585,330834,0.9883221,0.07234600000000001,-0.137128,-0.0175,-5.1625,-3.08
1586,330931,0.9895421,0.070882,-0.137128,-0.1925,-5.32,-3.0975
1587,331027,0.988566,0.070882,-0.137006,-0.21,-5.2325,-3.045
1588,331124,0.9884440000000001,0.07015,-0.136884,-0.28,-5.3025,-3.1675
1589,331221,0.987956,0.070882,-0.135664,-0.28,-5.39,-3.185
1590,331318,0.987956,0.07112601,-0.136884,-0.245,-5.53,-3.2375
1591,331414,0.987712,0.073688,-0.134322,-0.245,-5.495,-3.2025
1592,331511,0.9878341,0.074664,-0.135298,-0.28,-5.495,-3.0975
1593,331608,0.9862479999999999,0.074664,-0.13359000000000001,-0.0875,-5.5825,-3.115
1594,331705,0.987956,0.074786,-0.133956,0.0,-5.46,-3.115
1595,331801,0.9895421,0.07234600000000001,-0.133956,0.105,-5.3025,-3.115
1596,331898,0.9890540000000001,0.072712,-0.134078,-0.0175,-5.18,-3.15
1597,331995,0.9903959999999999,0.071858,-0.135176,-0.035,-5.2325,-3.115
1598,332092,0.9903959999999999,0.07442,-0.13456600000000002,-0.14,-5.215,-3.1675
1599,332188,0.9906401,0.074542,-0.133712,-0.1575,-5.25,-3.15
1600,332285,0.990274,0.07637200000000001,-0.133956,-0.2275,-5.285,-3.185
1601,332382,0.987956,0.07600599999999999,-0.135054,-0.2275,-5.3025,-3.1325
1602,332479,0.986858,0.07612801,-0.13480999999999999,-0.3325,-5.285,-3.0975
1603,332575,0.985516,0.07344400000000001,-0.134932,-0.1925,-5.2325,-3.115
1604,332672,0.987712,0.07356601,-0.13639600000000002,-0.175,-5.2325,-3.08
1605,332769,0.987712,0.07307801,-0.135908,-0.1225,-5.2325,-3.1675
1606,332865,0.988566,0.070638,-0.13602999999999998,-0.105,-5.2325,-3.22
1607,332962,0.9886881,0.07173600000000001,-0.136518,-0.105,-5.3725,-3.15
1608,333059,0.9888101,0.07137001,-0.13383399999999998,0.035,-5.4075,-3.255
1609,333156,0.9888101,0.072712,-0.13542,0.14,-5.4425,-3.22
1610,333252,0.988566,0.071492,-0.13542,0.1575,-5.565,-3.2025
1611,333349,0.9884440000000001,0.071004,-0.13542,0.105,-5.53,-3.22
1612,333446,0.9889319999999999,0.071858,-0.135298,0.0875,-5.5475,-3.2725
1613,333543,0.987712,0.07198,-0.134322,0.035,-5.5125,-3.255
1614,333639,0.9869800999999999,0.07442,-0.13480999999999999,-0.0175,-5.4075,-3.22
1615,333736,0.9878341,0.07307801,-0.135786,-0.105,-5.285,-3.2725
1616,333833,0.986858,0.073688,-0.135054,-0.0525,-5.3025,-3.325
1617,333930,0.9861260000000001,0.07246799999999999,-0.134444,-0.0175,-5.3025,-3.3075
1618,334026,0.987224,0.073688,-0.135054,-0.1575,-5.39,-3.2725
1619,334123,0.9863700000000001,0.07234600000000001,-0.13456600000000002,-0.1925,-5.3725,-3.36
1620,334220,0.987956,0.07259,-0.135664,-0.1925,-5.3375,-3.36
1621,334317,0.987956,0.0732,-0.136152,-0.245,-5.4075,-3.3425
1622,334413,0.9869800999999999,0.07381001,-0.137128,-0.1575,-5.4425,-3.2375
1623,334510,0.9888101,0.072712,-0.136762,-0.07,-5.3725,-3.185
1624,334607,0.9906401,0.07307801,-0.136518,-0.0175,-5.495,-3.185
1625,334704,0.9897860999999999,0.07417601,-0.13639600000000002,-0.0525,-5.6175,-3.185
1626,334800,0.9897860999999999,0.07259,-0.13639600000000002,-0.1575,-5.53,-3.0975
1627,334897,0.9888101,0.07307801,-0.137006,-0.1925,-5.5825,-3.1325
1628,334994,0.9882001,0.07259,-0.135298,-0.1225,-5.67,-3.255
1629,335091,0.9878341,0.07283401,-0.134322,-0.14,-5.5475,-3.2375
1630,335188,0.9873460999999999,0.07246799999999999,-0.135298,-0.1925,-5.53,-3.22
1631,335284,0.9860040999999999,0.072712,-0.135298,-0.245,-5.46,-3.185
1632,335381,0.988078,0.074542,-0.13383399999999998,-0.1575,-5.495,-3.22
1633,335478,0.9894200000000001,0.07393200000000001,-0.13359000000000001,-0.105,-5.4425,-3.185
1634,335575,0.98759,0.07503,-0.1342,-0.0875,-5.285,-3.185
1635,335671,0.9874681000000001,0.074298,-0.134322,-0.035,-5.18,-3.22
1636,335768,0.986614,0.0732,-0.13456600000000002,-0.1225,-5.1975,-3.3425
1637,335865,0.9869800999999999,0.07283401,-0.136152,-0.1575,-5.0925,-3.29
1638,335962,0.9873460999999999,0.071858,-0.13725,-0.21,-5.005,-3.255
1639,336058,0.988566,0.07259,-0.136152,-0.245,-5.005,-3.29
1640,336155,0.9894200000000001,0.07198,-0.13785999999999998,-0.0875,-5.1275,-3.3075
1641,336252,0.990518,0.07234600000000001,-0.138836,-0.035,-5.3025,-3.185
1642,336349,0.9895421,0.07283401,-0.136762,-0.0175,-5.425,-3.22
1643,336445,0.987224,0.07234600000000001,-0.13785999999999998,0.07,-5.46,-3.22
1644,336542,0.9857600000000001,0.072712,-0.137006,0.0,-5.4775,-3.22
1645,336639,0.9852719999999999,0.0732,-0.136884,0.0525,-5.3725,-3.2375
1646,336736,0.985516,0.07381001,-0.13664,-0.035,-5.3725,-3.3075
1647,336832,0.984418,0.072712,-0.137372,-0.1925,-5.285,-3.36
1648,336929,0.9851501,0.074054,-0.13725,-0.105,-5.355,-3.3775
1649,337026,0.985516,0.074786,-0.136762,-0.1225,-5.4075,-3.36
1650,337123,0.9862479999999999,0.07393200000000001,-0.135054,-0.035,-5.32,-3.4475
1651,337219,0.9864921,0.072956,-0.135786,-0.1925,-5.215,-3.325
1652,337316,0.9864921,0.07283401,-0.13602999999999998,-0.1225,-5.215,-3.255
1653,337413,0.987224,0.071858,-0.136762,-0.0175,-5.11,-3.255
1654,337509,0.9873460999999999,0.072102,-0.135786,0.0,-5.075,-3.255
1655,337606,0.9882001,0.0732,-0.136152,-0.0525,-5.0225,-3.1675
1656,337703,0.987712,0.07259,-0.136884,0.0175,-5.18,-3.115
1657,337800,0.988566,0.07381001,-0.13761600000000002,-0.0175,-5.2325,-3.15
1658,337897,0.988566,0.07332201,-0.138226,-0.035,-5.2325,-3.2725
1659,337993,0.987712,0.074298,-0.136762,-0.035,-5.3725,-3.2025
1660,338090,0.9882001,0.07283401,-0.136762,-0.07,-5.5825,-3.185
1661,338187,0.9882001,0.07198,-0.13725,-0.105,-5.5475,-3.255
1662,338283,0.987224,0.07259,-0.136518,-0.0525,-5.425,-3.2725
1663,338380,0.98759,0.072956,-0.136518,-0.0525,-5.495,-3.2725
1664,338477,0.9869800999999999,0.0732,-0.135298,-0.1225,-5.495,-3.2725
1665,338574,0.986858,0.074298,-0.134078,-0.0525,-5.4075,-3.2725
1666,338670,0.986614,0.07344400000000001,-0.132858,-0.0525,-5.3025,-3.3075
1667,338767,0.987224,0.07393200000000001,-0.132858,-0.14,-5.285,-3.29
1668,338864,0.9892981,0.07332201,-0.134932,-0.2625,-5.1975,-3.325
1669,338961,0.9892981,0.072956,-0.134322,-0.245,-5.075,-3.325
1670,339057,0.989664,0.07246799999999999,-0.134322,-0.14,-5.04,-3.2725
1671,339154,0.9901521000000001,0.07356601,-0.13639600000000002,-0.1225,-4.97,-3.255
1672,339251,0.9900300999999999,0.07307801,-0.13602999999999998,-0.105,-5.04,-3.2725
1673,339348,0.9895421,0.074664,-0.136274,-0.0875,-4.97,-3.3425
1674,339444,0.9892981,0.07625,-0.136884,-0.0875,-5.04,-3.2375
1675,339541,0.9878341,0.076616,-0.137738,-0.1575,-5.0925,-3.1675
1676,339638,0.986858,0.076738,-0.136884,-0.175,-5.1275,-3.185
1677,339735,0.9850280999999999,0.07564,-0.136762,-0.21,-5.0925,-3.22
1678,339831,0.9852719999999999,0.07417601,-0.136884,-0.105,-5.0925,-3.15
1679,339928,0.9867360999999999,0.07332201,-0.135542,-0.0525,-5.0925,-3.1325
1680,340025,0.988078,0.074664,-0.135176,-0.07,-5.215,-3.08
1681,340122,0.9890540000000001,0.071614,-0.134322,0.0,-5.3375,-3.1325
1682,340218,0.9894200000000001,0.07173600000000001,-0.134444,-0.035,-5.3375,-3.1325
1683,340315,0.9895421,0.07234600000000001,-0.132248,-0.1225,-5.4425,-3.1675
1684,340412,0.990274,0.072102,-0.133346,-0.14,-5.425,-3.15
1685,340508,0.9903959999999999,0.071858,-0.132614,-0.14,-5.2675,-3.1675
1686,340605,0.989908,0.070882,-0.131882,-0.21,-5.1975,-3.1675
1687,340702,0.9901521000000001,0.071492,-0.132858,-0.28,-5.1975,-3.185
1688,340799,0.9901521000000001,0.07283401,-0.133102,-0.2975,-4.9175,-3.1675
1689,340895,0.9892981,0.071492,-0.134932,-0.385,-4.8825,-3.2025
1690,340992,0.989176,0.07039400000000001,-0.134078,-0.385,-4.8475,-3.22
1691,341089,0.9901521000000001,0.07283401,-0.1342,-0.3675,-4.8125,-3.255
1692,341186,0.9897860999999999,0.07381001,-0.135176,-0.35,-4.7425,-3.15
1693,341282,0.988566,0.074054,-0.136762,-0.42,-4.83,-3.15
1694,341379,0.9873460999999999,0.072712,-0.135908,-0.385,-5.0225,-3.255
1695,341476,0.9857600000000001,0.07356601,-0.136518,-0.3675,-5.3025,-3.22
1696,341573,0.9874681000000001,0.07283401,-0.137006,-0.3675,-5.3025,-3.115
1697,341669,0.9882001,0.07332201,-0.136762,-0.1925,-5.3375,-3.1675
1698,341766,0.9884440000000001,0.073688,-0.13602999999999998,-0.1925,-5.46,-3.15
1699,341863,0.9874681000000001,0.07393200000000001,-0.133346,-0.175,-5.6875,-3.15
1700,341960,0.98759,0.072712,-0.136152,-0.1925,-5.6525,-3.0975
1701,342056,0.9892981,0.07307801,-0.13480999999999999,-0.3325,-5.5825,-3.15
1702,342153,0.9889319999999999,0.071492,-0.1342,-0.21,-5.425,-3.2375
1703,342250,0.9878341,0.071614,-0.133224,-0.0875,-5.4075,-3.325
1704,342347,0.9882001,0.07198,-0.132614,0.0,-5.3725,-3.325
1705,342443,0.9886881,0.072956,-0.133712,0.0875,-5.32,-3.36
1706,342540,0.9888101,0.074054,-0.134322,-0.0525,-5.425,-3.2025
1707,342637,0.9894200000000001,0.07600599999999999,-0.133224,-0.035,-5.425,-3.185
1708,342734,0.9889319999999999,0.07198,-0.13480999999999999,-0.07,-5.4075,-3.2375
1709,342830,0.989908,0.07173600000000001,-0.135298,0.0525,-5.3025,-3.395
1710,342927,0.9892981,0.071004,-0.135908,0.0175,-5.32,-3.5525
1711,343024,0.9889319999999999,0.07027201,-0.135664,-0.0875,-5.32,-3.465
1712,343121,0.9895421,0.071614,-0.135908,-0.1575,-5.2675,-3.395
1713,343217,0.987712,0.071248,-0.135908,-0.175,-5.215,-3.3425
1714,343314,0.989176,0.07076001,-0.135542,-0.14,-5.145,-3.2725
1715,343411,0.9874681000000001,0.072102,-0.136274,-0.2275,-5.2325,-3.1675
1716,343508,0.987712,0.07344400000000001,-0.136274,-0.1925,-5.25,-3.29
1717,343604,0.986614,0.07381001,-0.1342,-0.1575,-5.215,-3.36
1718,343701,0.984784,0.071614,-0.134078,-0.105,-5.145,-3.3425
1719,343798,0.9874681000000001,0.07332201,-0.13480999999999999,-0.0525,-5.0225,-3.3425
1720,343895,0.989176,0.0732,-0.134688,0.07,-5.005,-3.4825
