,T,ax,ay,az,gx,gy,gz
0,162677,0.6822239999999999,0.146156,-0.505568,13.93,-14.8225,-14.0
1,162830,0.7034521,0.15420799999999998,-0.59902,28.0875,-19.5125,16.835
2,162927,0.753472,0.163968,-0.643428,121.9225,-148.015,-48.09
3,163024,0.7522521,0.16348,-0.638792,64.89,-113.085,-35.7
4,163121,0.753472,0.163724,-0.639524,3.885,-5.5825,-3.71
5,163218,0.753472,0.162504,-0.638304,2.135,-2.555,-2.905
6,163315,0.7551800000000001,0.163724,-0.6392800000000001,2.0825,-2.38,-2.905
7,163412,0.752984,0.162504,-0.639768,2.03,-2.3625,-2.9225
8,163509,0.752984,0.165676,-0.6409881,1.925,-2.3275,-2.975
9,163606,0.75274,0.163968,-0.64172,1.96,-2.2225,-2.975
10,163703,0.7551800000000001,0.162992,-0.639768,2.0825,-2.275,-3.045
11,163800,0.753472,0.1647,-0.64172,1.96,-2.135,-2.9575
12,163897,0.755912,0.16226,-0.6405,1.925,-2.1,-3.045
13,163994,0.7564001,0.162504,-0.6409881,1.925,-2.0475,-3.15
14,164091,0.753472,0.166164,-0.64294,1.8375,-2.0125,-3.1675
15,164189,0.7571321,0.163968,-0.643184,1.7325,-1.9075,-3.1325
16,164286,0.756644,0.164212,-0.640012,1.75,-1.9075,-3.22
17,164383,0.754448,0.16128399999999998,-0.6378159999999999,1.68,-1.8725,-3.22
18,164480,0.7551800000000001,0.162748,-0.640012,1.5925,-1.855,-3.3075
19,164577,0.754692,0.162504,-0.638792,1.61,-1.8375,-3.3775
20,164674,0.753472,0.164212,-0.6422081000000001,1.575,-1.715,-3.43
21,164771,0.7556681,0.1647,-0.641964,1.4875,-1.6975,-3.4475
22,164868,0.7571321,0.164944,-0.641964,1.4525,-1.7325,-3.43
23,164965,0.7551800000000001,0.16689600000000002,-0.6441600000000001,1.6275,-1.8025,-3.395
24,165062,0.755424,0.16592,-0.641232,1.68,-1.8375,-3.3425
25,165159,0.754692,0.165432,-0.64172,1.6975,-1.785,-3.3425
26,165256,0.7556681,0.164212,-0.640744,1.82,-1.9075,-3.29
27,165353,0.754204,0.165432,-0.6414761,1.8375,-2.0825,-3.29
28,165450,0.755424,0.165432,-0.64172,1.8375,-2.03,-3.15
29,165547,0.757376,0.163968,-0.640744,1.8725,-2.1525,-3.0975
30,165645,0.7551800000000001,0.165432,-0.64172,1.925,-2.17,-3.0625
31,165742,0.754448,0.1647,-0.640744,1.925,-2.1175,-3.01
32,165839,0.7549359999999999,0.166652,-0.643428,1.9425,-2.1525,-3.08
33,165936,0.759328,0.166408,-0.640256,1.96,-2.17,-3.0975
34,166033,0.756888,0.164944,-0.6409881,1.995,-2.1,-3.045
35,166130,0.7549359999999999,0.1647,-0.6405,2.03,-2.1525,-3.08
36,166227,0.7556681,0.164212,-0.6409881,1.96,-2.065,-3.1325
37,166324,0.752984,0.1647,-0.642452,2.065,-2.0475,-3.0625
38,166421,0.7556681,0.163724,-0.639768,2.03,-1.9775,-2.975
39,166518,0.7564001,0.165188,-0.6392800000000001,1.995,-2.0125,-2.975
40,166615,0.756644,0.165676,-0.640256,2.0475,-2.1175,-2.9575
41,166712,0.756644,0.164944,-0.6390359999999999,1.995,-2.1875,-2.9575
42,166809,0.754692,0.164944,-0.639768,2.03,-2.275,-2.9225
43,166907,0.754204,0.16348,-0.640012,2.1525,-2.415,-2.975
44,167004,0.754692,0.163968,-0.640744,2.24,-2.4675,-2.8175
45,167101,0.7537159999999999,0.164212,-0.640256,2.17,-2.3975,-2.765
46,167198,0.7551800000000001,0.16348,-0.64172,2.2225,-2.5025,-2.8
47,167295,0.754204,0.165188,-0.640256,2.275,-2.3625,-2.835
48,167392,0.7549359999999999,0.16348,-0.6390359999999999,2.24,-2.38,-2.73
49,167489,0.7549359999999999,0.163724,-0.6390359999999999,2.17,-2.3625,-2.8175
50,167586,0.753472,0.164456,-0.640012,2.205,-2.345,-2.8875
51,167683,0.7556681,0.163236,-0.639524,2.17,-2.275,-2.8525
52,167780,0.7551800000000001,0.16226,-0.638548,2.1,-2.2925,-2.835
53,167877,0.755424,0.16226,-0.639524,2.1,-2.275,-2.94
54,167974,0.7551800000000001,0.162992,-0.6380600000000001,2.0825,-2.17,-2.87
55,168071,0.754692,0.164944,-0.6405,2.1,-2.1175,-2.87
56,168168,0.7551800000000001,0.162992,-0.641232,2.135,-2.205,-2.9225
57,168265,0.7539600000000001,0.16226,-0.6392800000000001,2.135,-2.2225,-2.9575
58,168362,0.756156,0.16128399999999998,-0.641232,2.1175,-2.205,-2.94
59,168460,0.754448,0.164456,-0.6414761,2.0825,-2.205,-2.9575
60,168557,0.753228,0.16201600000000002,-0.636352,2.0475,-2.1175,-2.9225
61,168654,0.754692,0.16104000000000002,-0.6375721,2.03,-2.17,-2.9925
62,168751,0.7539600000000001,0.162504,-0.638304,2.0125,-2.1525,-2.9575
63,168848,0.753472,0.165676,-0.638792,2.0125,-2.1525,-2.94
64,168945,0.7539600000000001,0.162748,-0.6375721,2.065,-2.0475,-2.905
65,169042,0.755424,0.163724,-0.638548,2.03,-2.17,-2.9575
66,169139,0.755912,0.164456,-0.6380600000000001,1.995,-2.205,-2.905
67,169236,0.755912,0.161772,-0.640744,2.0125,-2.205,-2.835
68,169333,0.755424,0.16348,-0.639524,2.065,-2.31,-3.0275
69,169430,0.753472,0.16348,-0.640012,2.0125,-2.2925,-3.01
70,169527,0.756644,0.164212,-0.6380600000000001,2.0475,-2.3275,-2.975
71,169624,0.754448,0.16348,-0.638792,2.0475,-2.38,-2.9575
72,169721,0.7549359999999999,0.16201600000000002,-0.637084,2.03,-2.5025,-2.9925
73,169818,0.7537159999999999,0.161772,-0.6375721,2.0825,-2.3275,-2.9925
74,169915,0.754448,0.164456,-0.640256,2.0475,-2.38,-2.94
75,170012,0.752496,0.1647,-0.640744,1.96,-2.2575,-2.9225
76,170110,0.7549359999999999,0.162992,-0.639524,1.995,-2.17,-3.01
77,170207,0.7549359999999999,0.160552,-0.640012,1.96,-2.0475,-3.08
78,170304,0.7551800000000001,0.16348,-0.639524,1.89,-1.925,-3.01
79,170401,0.752984,0.160796,-0.6378159999999999,1.9075,-1.82,-2.9925
80,170498,0.754448,0.16104000000000002,-0.6368401,1.89,-1.7675,-3.01
81,170595,0.756156,0.164944,-0.636596,1.855,-1.82,-3.0975
82,170692,0.7564001,0.16348,-0.64172,1.8725,-1.8725,-3.08
83,170789,0.756156,0.163724,-0.638548,1.9775,-1.82,-3.045
84,170886,0.7564001,0.164944,-0.6368401,1.925,-1.9075,-3.08
85,170983,0.756644,0.164212,-0.6378159999999999,1.8725,-1.96,-3.08
86,171080,0.7571321,0.165432,-0.6375721,1.995,-2.065,-3.0975
87,171177,0.755912,0.165188,-0.640256,1.995,-2.1175,-3.0975
88,171274,0.7549359999999999,0.163724,-0.640744,1.9425,-2.1175,-3.0625
89,171371,0.7539600000000001,0.163968,-0.640012,1.89,-2.135,-3.1325
90,171468,0.7564001,0.163968,-0.6368401,1.9075,-2.065,-3.15
91,171565,0.756156,0.164456,-0.638548,1.9775,-2.0825,-3.1675
92,171663,0.7549359999999999,0.165188,-0.640012,1.96,-1.9775,-3.045
93,171760,0.755424,0.163236,-0.6378159999999999,1.8725,-1.9425,-2.975
94,171857,0.756888,0.166652,-0.638304,1.9075,-2.03,-3.045
95,171954,0.7556681,0.16348,-0.638792,1.96,-2.1,-3.08
96,172051,0.7564001,0.162992,-0.638548,1.9775,-2.03,-3.0625
97,172148,0.754692,0.164456,-0.6405,1.9775,-2.0475,-3.045
98,172245,0.7549359999999999,0.16201600000000002,-0.6378159999999999,1.8725,-2.1175,-3.01
99,172342,0.756156,0.163236,-0.6373281,1.9075,-1.995,-3.1325
100,172439,0.756156,0.165188,-0.636108,1.89,-2.0475,-3.08
101,172536,0.755912,0.1647,-0.638304,1.8725,-2.03,-3.0275
102,172633,0.756156,0.16348,-0.6390359999999999,1.925,-2.1525,-2.9925
103,172730,0.756888,0.164212,-0.637084,2.0125,-2.275,-2.9575
104,172827,0.7549359999999999,0.162748,-0.6392800000000001,1.96,-2.31,-3.0275
105,172924,0.7549359999999999,0.160796,-0.638548,1.995,-2.24,-2.9925
106,173022,0.7539600000000001,0.160308,-0.6368401,1.9425,-2.1525,-2.94
107,173119,0.756156,0.163968,-0.634644,1.96,-2.1875,-2.975
108,173216,0.7571321,0.165188,-0.636596,1.9425,-2.1875,-3.0625
109,173313,0.757864,0.165188,-0.637084,1.995,-2.205,-3.0975
110,173410,0.7571321,0.165432,-0.6380600000000001,1.995,-2.24,-3.0625
111,173507,0.75884,0.164944,-0.6373281,1.9775,-2.275,-3.045
112,173604,0.757376,0.164944,-0.6380600000000001,1.995,-2.2575,-3.045
113,173701,0.7539600000000001,0.162504,-0.6392800000000001,1.995,-2.2575,-3.0625
114,173798,0.7551800000000001,0.163968,-0.6373281,1.9075,-2.24,-3.0625
115,173895,0.756888,0.165432,-0.637084,1.96,-2.1175,-3.0275
116,173992,0.755424,0.163968,-0.6378159999999999,2.065,-2.205,-3.0275
117,174089,0.755424,0.162504,-0.638548,2.0125,-2.24,-2.975
118,174186,0.7556681,0.16348,-0.636352,1.9775,-2.1875,-3.0275
119,174284,0.755424,0.166408,-0.6378159999999999,2.03,-2.135,-3.0975
120,174381,0.757376,0.16348,-0.6378159999999999,1.9425,-2.2225,-3.115
121,174478,0.756156,0.164456,-0.635864,1.96,-2.3275,-3.08
122,174575,0.7571321,0.163968,-0.638548,1.995,-2.3275,-3.0275
123,174672,0.755424,0.16226,-0.6378159999999999,2.065,-2.3275,-3.045
124,174769,0.757864,0.164944,-0.6380600000000001,2.0825,-2.3975,-3.045
125,174866,0.756888,0.165188,-0.6375721,2.065,-2.4675,-3.045
126,174963,0.756156,0.163968,-0.638304,2.1,-2.5025,-3.08
127,175060,0.75762,0.164212,-0.636596,2.0475,-2.555,-3.0275
128,175157,0.755912,0.163236,-0.636596,2.1525,-2.6425,-3.045
129,175254,0.754204,0.16201600000000002,-0.636108,2.17,-2.45,-2.9575
130,175351,0.754204,0.162504,-0.6390359999999999,2.1175,-2.4325,-2.9925
131,175449,0.7539600000000001,0.161528,-0.636596,2.0825,-2.38,-3.08
132,175546,0.75274,0.1647,-0.639768,2.1525,-2.415,-3.045
133,175643,0.755424,0.163724,-0.6378159999999999,2.0475,-2.38,-3.0275
134,175740,0.756644,0.164212,-0.63562,1.995,-2.31,-3.045
135,175837,0.756156,0.164212,-0.6378159999999999,2.0125,-2.3275,-2.9575
136,175934,0.755912,0.1647,-0.6390359999999999,2.1,-2.3625,-3.0625
137,176031,0.757376,0.1647,-0.6368401,2.03,-2.3625,-2.9925
138,176128,0.756156,0.163968,-0.636352,1.9775,-2.3275,-3.045
139,176225,0.756156,0.162748,-0.636596,2.065,-2.38,-3.0275
140,176322,0.7571321,0.164212,-0.638792,2.065,-2.3975,-3.08
141,176419,0.7537159999999999,0.162992,-0.639524,1.9775,-2.3625,-3.115
142,176516,0.754448,0.161528,-0.6368401,2.0125,-2.2575,-3.0275
143,176613,0.753472,0.163236,-0.6392800000000001,1.995,-2.3975,-3.0275
144,176710,0.7551800000000001,0.16128399999999998,-0.6380600000000001,2.065,-2.3975,-3.0975
145,176808,0.7549359999999999,0.161528,-0.6373281,2.03,-2.3975,-2.9575
146,176905,0.753472,0.160796,-0.638548,2.0125,-2.3275,-3.0975
147,177002,0.754692,0.16226,-0.638548,1.995,-2.2225,-3.0275
148,177099,0.754692,0.162748,-0.636108,1.96,-2.1,-3.045
149,177196,0.752496,0.164944,-0.640744,2.0825,-2.1175,-3.15
150,177293,0.754692,0.163724,-0.640012,1.995,-2.0825,-3.0975
151,177390,0.75274,0.160308,-0.6368401,1.9075,-2.1175,-3.08
152,177487,0.7571321,0.1647,-0.636352,1.925,-2.0125,-3.045
153,177584,0.75884,0.163968,-0.6373281,1.925,-2.0475,-3.045
154,177681,0.7564001,0.164944,-0.6375721,2.0125,-2.135,-3.045
155,177778,0.756644,0.163968,-0.6368401,1.9075,-2.0825,-3.15
156,177875,0.755912,0.163968,-0.638304,1.9425,-2.1175,-3.045
157,177973,0.755912,0.16348,-0.63562,1.855,-1.89,-3.0625
158,178070,0.755424,0.16226,-0.636352,1.9075,-2.0825,-3.115
159,178167,0.755912,0.16226,-0.638548,1.9075,-2.2575,-3.115
160,178264,0.7556681,0.163236,-0.637084,1.925,-2.24,-3.1325
161,178361,0.7539600000000001,0.16104000000000002,-0.636596,1.96,-2.24,-3.1325
162,178458,0.756156,0.159332,-0.638792,1.995,-2.2925,-3.22
163,178555,0.75762,0.164212,-0.636596,1.8725,-2.275,-3.29
164,178652,0.757376,0.16714,-0.638548,1.925,-2.345,-3.255
165,178749,0.7571321,0.16592,-0.637084,2.0125,-2.24,-3.185
166,178846,0.7571321,0.166164,-0.638548,2.0125,-2.31,-3.08
167,178943,0.756888,0.1647,-0.6375721,2.03,-2.2225,-2.9225
168,179041,0.755912,0.16348,-0.636108,2.065,-2.2225,-2.9225
169,179138,0.754448,0.160064,-0.638548,2.065,-2.1875,-3.01
170,179235,0.7517640999999999,0.163968,-0.63562,1.995,-2.065,-3.1325
171,179332,0.756156,0.15982000000000002,-0.634644,1.995,-2.135,-3.15
172,179429,0.754204,0.164212,-0.6375721,1.9775,-2.1875,-3.2025
173,179526,0.750788,0.163968,-0.640012,2.03,-2.3275,-3.15
174,179623,0.757376,0.164944,-0.636108,1.9075,-2.17,-2.9925
175,179720,0.755912,0.161772,-0.6390359999999999,1.855,-2.03,-3.115
176,179817,0.756156,0.163968,-0.637084,1.8725,-2.0125,-3.1675
177,179914,0.756156,0.163968,-0.6378159999999999,1.82,-1.9075,-3.2025
178,180011,0.756156,0.164944,-0.635864,1.89,-1.7325,-3.185
179,180108,0.756888,0.163236,-0.636596,1.925,-1.5575,-3.1675
180,180206,0.755912,0.16226,-0.636352,1.9075,-1.4,-3.255
181,180303,0.757864,0.163968,-0.636108,2.0125,-1.435,-3.2025
182,180400,0.757376,0.1647,-0.63562,2.065,-1.5925,-3.185
183,180497,0.756156,0.166408,-0.6344,1.96,-1.6625,-3.22
184,180594,0.757376,0.1647,-0.637084,1.9425,-1.7675,-3.22
185,180691,0.756888,0.163236,-0.638304,1.9075,-1.4875,-3.2025
186,180788,0.756644,0.166164,-0.6368401,1.995,-1.05,-3.255
187,180885,0.756888,0.161528,-0.639768,2.135,-0.5075,-3.2375
188,180982,0.759084,0.163968,-0.636596,2.24,-0.315,-3.22
189,181079,0.75884,0.167384,-0.63318,2.1875,-0.7175,-3.15
190,181177,0.75762,0.170068,-0.6317159999999999,2.415,-1.435,-2.9575
191,181274,0.758108,0.164944,-0.634644,2.6075,-2.0475,-2.765
192,181371,0.7617681,0.161528,-0.633668,2.695,-1.785,-2.8175
193,181468,0.763232,0.162992,-0.63562,2.555,-1.0675,-3.01
194,181565,0.762988,0.163968,-0.6392800000000001,2.6425,-0.595,-3.01
195,181662,0.764208,0.16104000000000002,-0.633424,2.6075,-0.175,-3.0275
196,181759,0.765184,0.17763199999999998,-0.640256,2.3625,0.2275,-2.87
197,181856,0.761524,0.167628,-0.638304,2.485,0.14,-2.5375
198,181953,0.759572,0.166408,-0.6329359999999999,2.4325,-0.2975,-2.345
199,182050,0.7659161,0.155916,-0.6441600000000001,2.0125,0.63,-2.31
200,182147,0.760304,0.162504,-0.633912,1.575,1.2425,-2.485
201,182245,0.7893399999999999,0.174948,-0.655628,-0.1925,3.7625,-3.115
202,182342,0.7761640999999999,0.164944,-0.6265921,-2.59,7.8575,-3.7275
203,182439,0.774944,0.137372,-0.630252,-4.725,10.99,-4.7425
204,182536,0.769332,0.148352,-0.62098,-5.355,11.865,-5.3375
205,182633,0.768112,0.163968,-0.62708,-4.48,10.92,-4.97
206,182730,0.7537159999999999,0.15420799999999998,-0.613416,-2.9575,9.45,-4.445
207,182827,0.7754321,0.158356,-0.6273241,-2.6425,8.4175,-4.655
208,182924,0.7808001,0.151036,-0.61,-2.7825,7.7,-5.0225
209,183021,0.7659161,0.169824,-0.619516,-2.9225,6.3175,-5.215
210,183118,0.763476,0.209352,-0.641232,-2.4325,4.865,-4.725
211,183215,0.735904,0.22716399999999998,-0.6219561,-0.805,2.5375,-3.535
212,183312,0.7373681,0.235948,-0.624396,2.2575,0.9625,-0.7525
213,183410,0.762988,0.219112,-0.616344,4.9,-0.7525,1.82
214,183507,0.765672,0.19739600000000002,-0.601704,6.2125,-1.9425,3.4825
215,183604,0.758596,0.16958,-0.5975560000000001,6.5625,-2.45,3.99
216,183701,0.769088,0.153476,-0.6075600999999999,6.7375,-2.5375,3.9025
217,183798,0.766892,0.14688800000000002,-0.609024,6.4225,-2.835,3.43
218,183895,0.7869,0.13176,-0.6124400999999999,5.74,-2.9575,2.2575
219,183992,0.793244,0.12322000000000001,-0.5948720000000001,3.885,-2.9925,-0.2275
220,184089,0.772748,0.1342,-0.61366,2.1,-3.71,-2.765
221,184186,0.786656,0.14396,-0.61732,1.05,-3.9025,-5.0225
222,184283,0.766892,0.141032,-0.599264,-0.315,-4.62,-8.085
223,184380,0.75274,0.131272,-0.612684,-1.33,-4.865,-11.3925
224,184477,0.743712,0.11955999999999999,-0.6170760000000001,-2.2225,-4.585,-14.28
225,184575,0.746152,0.12029200000000001,-0.6156119999999999,-3.5875,-4.235,-16.3625
226,184672,0.7381001,0.12322000000000001,-0.625372,-4.865,-4.1825,-17.675
227,184769,0.74664,0.135176,-0.6156119999999999,-6.055,-3.815,-20.16
228,184866,0.7664041,0.162992,-0.624396,-6.5975,-3.465,-22.4525
229,184963,0.760304,0.175924,-0.6009720000000001,-6.3875,-3.745,-23.03
230,185060,0.7556681,0.18056,-0.603168,-5.39,-4.48,-23.0825
231,185157,0.767868,0.204228,-0.59536,-4.6025,-5.46,-22.925
232,185254,0.78446,0.22033200000000003,-0.60146,-4.0425,-6.1075,-22.155
233,185351,0.767624,0.20447200000000001,-0.6231760999999999,-2.765,-6.9475,-20.405
234,185448,0.7754321,0.191296,-0.6612401,-2.3275,-6.475,-18.935
235,185545,0.770308,0.203008,-0.6463561,-2.485,-4.9,-17.5525
236,185642,0.786412,0.21886799999999998,-0.630008,-2.8175,-3.745,-16.555
237,185739,0.780312,0.222284,-0.626836,-2.5725,-2.94,-15.1025
238,185837,0.7700640999999999,0.20984,-0.633912,-1.925,-2.3275,-13.51
239,185934,0.7673800000000001,0.21886799999999998,-0.626104,-1.54,-2.03,-12.145
240,186031,0.768844,0.23887600000000003,-0.624884,-1.2075,-1.995,-10.4125
241,186128,0.773724,0.24082800000000001,-0.625128,0.3325,-1.6625,-8.5575
242,186225,0.776408,0.24522,-0.617564,1.7675,-1.785,-6.65
243,186322,0.772748,0.23911999999999997,-0.618052,3.535,-2.1525,-4.585
244,186419,0.7617681,0.21862399999999999,-0.618052,5.3725,-2.9225,-2.52
245,186516,0.750544,0.195932,-0.6265921,6.1075,-3.78,-1.2775
246,186613,0.725168,0.18788,-0.6307401,6.2825,-4.2875,-0.49
247,186710,0.71614,0.20788800000000002,-0.635376,6.5975,-4.27,0.105
248,186807,0.732244,0.203008,-0.619516,7.4725,-3.465,0.7175
249,186905,0.724436,0.199104,-0.610244,8.925,-3.3075,1.75
250,187002,0.7259001,0.20252,-0.615368,10.7625,-3.255,3.01
251,187099,0.7390760000000001,0.203984,-0.620492,12.25,-3.3075,4.2175
252,187196,0.734684,0.193736,-0.611464,12.7575,-3.3075,5.2675
253,187293,0.7317560000000001,0.221308,-0.62952,13.1775,-4.2525,6.3175
254,187390,0.7417600000000001,0.20618000000000003,-0.6222,13.8425,-4.97,7.5425
255,187487,0.771528,0.17616800000000002,-0.625616,14.455,-5.7925,7.735
256,187584,0.7617681,0.170068,-0.6197600000000001,13.9475,-6.5275,6.4925
257,187681,0.756156,0.165188,-0.6314721,13.0375,-6.16,4.655
258,187778,0.73688,0.189344,-0.648308,12.1975,-7.0525,3.3775
259,187875,0.740052,0.172752,-0.660996,11.83,-7.6825,3.1675
260,187972,0.7612800999999999,0.17836400000000002,-0.630252,11.935,-8.96,4.13
261,188069,0.7598161,0.180072,-0.6497721,11.9525,-9.6775,5.1975
262,188167,0.7598161,0.192272,-0.633912,11.62,-10.6925,7.1575
263,188264,0.754448,0.1952,-0.6348881,9.94,-10.3775,8.0675
264,188361,0.762012,0.173484,-0.6263479999999999,7.595,-9.52,8.12
265,188458,0.759572,0.163724,-0.62708,5.285,-8.33,7.455
266,188555,0.74298,0.167872,-0.640256,2.4325,-7.175,5.845
267,188652,0.7176041,0.199104,-0.659288,1.085,-3.605,5.9675
268,188749,0.735416,0.194956,-0.642452,1.0675,3.4825,8.3475
269,188846,0.7510321,0.176656,-0.636596,1.5925,10.255,10.255
270,188943,0.762744,0.19983599999999999,-0.643184,1.925,12.74,11.9525
271,189040,0.768112,0.193248,-0.6409881,3.5,14.525,14.21
272,189137,0.7666480999999999,0.192272,-0.636108,4.095,15.505,16.065
273,189235,0.760304,0.170312,-0.62952,4.7775,21.0175,17.4475
274,189332,0.7241920000000001,0.148352,-0.687104,3.29,31.7275,18.1825
275,189429,0.73932,0.068076,-0.702476,-0.21,46.8825,19.81
276,189526,0.800808,0.284748,-0.7812880999999999,-9.6775,66.9375,22.8375
277,189623,0.765184,0.061488,-0.639524,-9.7825,93.1,30.24
278,189720,0.8466800999999999,0.06661201,-0.6319600000000001,-19.495,116.97,33.2675
279,189817,0.844484,0.084912,-0.657824,-31.22,140.2275,36.33
280,189914,0.8640040000000001,0.10687200000000001,-0.664412,-41.4925,165.6025,40.74
281,190011,0.8640040000000001,0.14688800000000002,-0.6883239999999999,-51.905,195.335,47.32
282,190108,0.94916,0.201544,-0.6802720999999999,-60.025,231.5075,57.8375
283,190206,1.1714440000000002,0.294752,-0.6634359999999999,-62.195,275.6425,77.21
284,190303,1.0023520000000001,0.21838000000000002,-0.558516,-44.5725,346.5175,110.005
285,190400,1.4957200000000002,0.14884,-0.5070319999999999,-8.2775,444.0275,138.145
286,190497,0.8757159999999999,0.321836,-0.602436,47.53,551.9325,152.6525
287,190594,0.671488,0.57218,-0.900848,88.02501,573.405,178.6575
288,190691,1.4271559999999999,0.219112,-1.4837639999999999,101.92,573.405,225.365
289,190788,2.0754639999999998,-0.35843600000000003,-1.2780719999999999,104.72,572.5475,226.1875
290,190885,1.973228,-0.057096,0.023424,76.4225,538.965,148.435
291,190982,2.585424,-0.24888000000000002,-0.025376,65.765,444.43,72.7825
292,191079,2.229428,0.202276,-0.4331,60.235,303.905,8.5925
293,191176,1.560136,0.26108000000000003,-0.735904,50.2775,192.4825,-16.065
294,191273,1.7882759999999998,0.664412,-1.761436,-7.42,96.005,-50.33
295,191371,4.430308,-0.586332,-1.532076,-16.765,66.3775,-184.87
296,191468,1.547448,0.9464761,-1.591856,-70.5425,197.925,-100.45
297,191565,2.8613880000000003,0.912316,-2.989488,9.5025,162.4175,57.2425
298,191662,2.04106,0.9059721,-2.95972,23.31,21.2975,-4.9175
299,191759,1.079944,0.755912,-2.673508,39.76,-105.5775,-27.51
300,191856,0.270352,0.5489999999999999,-2.077172,41.37,-185.395,-50.6625
301,191953,0.19397999999999999,0.42333999999999994,-1.836832,40.25,-193.935,-62.7375
302,192050,0.326472,0.321104,-1.6560279999999998,36.2075,-197.1375,-68.845
303,192147,0.5777920999999999,0.271084,-1.565992,31.535,-206.4825,-68.39
304,192244,0.793976,0.245952,-1.480592,29.05,-228.3575,-63.5775
305,192342,0.9167081,0.20788800000000002,-1.36396,28.4725,-259.5775,-54.32
306,192439,0.898408,0.173484,-1.186328,27.5625,-293.545,-42.7175
307,192536,0.8642481,0.15420799999999998,-1.007232,24.465,-322.8575,-30.485
308,192633,0.87718,0.135908,-0.849852,19.4775,-341.6525,-18.6375
309,192730,0.9240280000000001,0.12932000000000002,-0.7190681,11.8825,-351.9775,-9.4675
310,192827,1.012356,0.169824,-0.6263479999999999,2.1175,-356.7725,-4.1825
311,192924,1.1192280000000001,0.2135,-0.557052,-7.5775,-358.68,-0.5075
312,193021,1.22,0.251076,-0.5321640000000001,-16.555,-358.3475,1.2775
313,193118,1.344684,0.308904,-0.53314,-24.5875,-355.6175,0.77
314,193216,1.4337440000000001,0.366244,-0.528992,-30.9925,-354.725,-0.8225
315,193313,1.473516,0.386984,-0.5011760000000001,-36.6275,-353.43,-3.3075
316,193410,1.47376,0.389424,-0.466528,-43.2775,-348.8625,-7.8925
317,193507,1.47254,0.332572,-0.425048,-53.165,-336.7525,-14.525
318,193604,1.504748,0.241804,-0.400648,-69.73751,-317.9925,-21.8575
319,193701,1.6211360000000001,0.196664,-0.44652,-94.29,-297.2025,-28.35
320,193798,1.9483400000000002,0.165676,-0.5355800999999999,-125.125,-277.1475,-34.5275
321,193895,2.426336,0.194712,-0.631228,-161.0,-270.34,-46.48
322,193992,2.63154,0.148108,-0.552416,-194.6175,-288.8025,-63.42
323,194089,2.745244,0.14762,-0.47384799999999994,-218.225,-319.27,-88.04251
324,194187,2.6937599999999997,0.269864,-0.29792399999999997,-230.0375,-343.525,-120.4525
325,194284,2.784284,0.219356,-0.131272,-214.13,-358.89,-139.7375
326,194381,2.7166959999999998,0.10345599999999999,0.10052799999999999,-181.3,-357.28,-156.31
327,194478,2.522716,-0.035136,0.406992,-137.97,-335.7025,-173.95
328,194575,2.422432,-0.20788800000000002,0.772992,-88.53251,-294.525,-185.5175
329,194672,2.406572,-0.462136,1.21512,-38.4125,-240.4675,-190.5575
330,194769,2.67424,-0.596336,1.764852,3.8675,-181.2125,-186.1125
331,194866,2.842356,-0.7324881,2.378756,38.325,-131.845,-159.81
332,194963,2.5193,-1.050664,2.851628,60.55,-84.7875,-115.3075
333,195060,2.268468,-1.187548,2.87676,62.0725,-22.3125,-82.11
334,195157,2.334836,-0.9784401,2.5193,56.1225,51.9225,-68.72251
335,195255,2.573712,-0.698328,1.978596,64.8025,119.665,-57.015
336,195352,2.803316,-0.299144,-0.803736,94.29,170.3625,-28.4725
337,195449,-0.756644,-0.43163599999999996,-0.9857600000000001,125.02,179.4975,20.4225
338,195546,-0.05246,0.502152,-4.935876,75.6175,261.4325,35.875
339,195643,0.5294800000000001,-0.636352,-0.493856,84.2625,283.78,94.60501
340,195740,1.855376,-0.29402,0.9267120000000001,70.77,302.6625,160.195
341,195837,2.527596,-0.327448,-0.749324,42.0875,320.95,120.575
342,195934,2.273348,-0.41236000000000006,-0.9772200999999999,38.745,272.1075,58.9925
343,196031,1.791936,-0.753472,-0.564372,29.19,220.1325,39.305
344,196128,1.530856,-0.456768,-0.7522521,1.9775,186.095,23.555
345,196225,1.146068,0.016104,-0.7661600000000001,-22.7325,157.3075,14.0875
346,196322,2.363628,1.9888439999999998,-1.7402080000000002,-22.3125,128.5725,-3.6925
347,196419,1.342244,0.554856,0.002684,67.8825,64.89,-16.1875
348,196517,1.7036080000000002,-0.126636,-0.830576,81.48001,57.33,11.1125
349,196614,0.9850280999999999,0.080276,-0.636352,47.8975,27.3525,20.7375
350,196711,0.9974719999999999,0.35526399999999997,-0.599996,23.625,14.0175,19.565
351,196808,1.009428,0.067832,-0.589504,26.9675,17.43,12.5125
352,196905,0.9171961,0.219112,-0.597068,15.9775,12.9325,12.1625
353,197002,0.820084,0.28304,-0.61854,10.8675,9.485,11.6725
354,197099,0.8376520000000001,0.24668400000000001,-0.6273241,13.055,9.7125,13.3
355,197196,0.8100801,0.194956,-0.606584,13.93,8.5225,14.77
356,197293,0.8256960999999999,0.127856,-0.573156,13.195,8.1025,14.9625
357,197390,0.781044,0.158356,-0.624396,9.905,6.0025,15.1375
358,197487,0.7983680000000001,0.188368,-0.6453800000000001,7.98,5.0925,13.8775
359,197584,0.711504,0.153476,-0.614636,7.98,4.0425,12.88
360,197682,0.759328,0.14688800000000002,-0.614392,7.0875,5.46,11.095
361,197779,0.7483479999999999,0.17812,-0.604632,6.44,4.69,9.6425
362,197876,0.765672,0.195444,-0.5941401,6.405,4.4625,8.1375
363,197973,0.767868,0.21228000000000002,-0.58194,7.6125,3.43,8.7675
364,198070,0.774456,0.264252,-0.6097560000000001,10.745,0.77,13.58
365,198167,0.7856801,0.27571999999999997,-0.61366,15.4875,-4.62,22.26
366,198264,0.7712840999999999,0.20984,-0.548756,20.79,-12.5125,30.625
367,198361,0.780556,0.291824,-0.638548,23.205,-23.1875,36.7675
368,198458,0.786656,0.21862399999999999,-0.6673399999999999,28.5425,-33.25,40.6525
369,198555,0.78446,0.1281,-0.644404,28.1575,-38.08,41.4225
370,198652,0.764696,0.101748,-0.645868,24.22,-35.6825,39.2875
371,198749,0.747128,0.13176,-0.6451359999999999,18.9175,-32.55,35.4025
372,198847,0.726876,0.111508,-0.6453800000000001,15.925,-28.3675,32.095
373,198944,0.7376119999999999,0.113704,-0.653188,12.5125,-23.765,28.7
374,199041,0.74664,0.123708,-0.6344,9.695,-19.4075,25.5325
375,199138,0.7381001,0.12395199999999999,-0.628544,6.8775,-15.2425,23.1175
376,199235,0.739564,0.161772,-0.6390359999999999,3.7975,-10.605,20.475
377,199332,0.75762,0.15762400000000001,-0.6156119999999999,1.365,-6.65,19.2675
378,199429,0.778116,0.171776,-0.587796,-4.8125,0.7,21.315
379,199526,0.750544,0.14347200000000002,-0.6695361,-10.57,14.2275,24.115
380,199623,0.72712,0.122976,-0.683932,-13.4575,27.5275,25.5325
381,199720,0.71126,0.148108,-0.727364,-17.955,49.4375,27.7025
382,199817,0.6109760000000001,0.020496,-0.761524,-18.6025,81.375,31.745
383,199914,0.710284,0.002196,-0.748104,-21.9625,123.095,31.01
384,200012,0.6763680000000001,-0.020008,-0.794952,-28.28,160.23,28.0175
385,200109,0.710284,-0.026595999999999998,-0.821792,-31.815,192.2725,23.555
386,200206,0.7759199999999999,-0.002196,-0.8410681000000001,-27.755,223.58,19.705
387,200303,0.868884,0.076616,-0.823744,-22.54,256.2875,20.02
388,200400,0.8252079999999999,0.166652,-0.833992,-19.8625,290.0625,30.6425
389,200497,1.586488,0.474092,-0.891576,-13.335,340.2525,50.155
390,200594,0.7829961,0.356484,-1.024068,8.4175,429.975,90.49251
391,200691,0.895236,0.322812,-1.03578,48.965,539.5775,122.2025
392,200788,0.643428,0.706624,-0.782508,72.38,573.37,149.135
393,200885,1.0614,0.633424,-0.8427761,50.7325,573.405,225.2775
394,200982,2.156716,-0.179584,-0.711992,33.53,573.405,284.5675
395,201080,2.836744,-0.450912,0.036112,37.135,573.3525,242.6725
396,201177,3.076108,-0.370636,0.08417999999999999,45.64,545.1775,129.22
397,201274,2.69254,0.133468,-0.27694,64.505,412.055,29.68
398,201371,2.000068,0.463844,-0.8540000000000001,45.0625,232.1025,-32.6375
399,201468,1.6448040000000002,1.2019440000000001,-2.628124,-9.1525,38.3075,-80.045
400,201565,4.544744000000001,-0.213988,-3.101484,-42.77,115.115,-226.5725
401,201662,1.654564,1.61894,-3.2107959999999998,-89.285,208.2325,-54.4425
402,201759,2.981436,1.375672,-2.94752,-3.15,125.5275,45.8675
403,201856,2.149152,1.356152,-3.066348,23.3975,-115.29,-18.27
404,201953,0.6954,0.8698601,-2.357528,80.7975,-227.57,-28.5425
405,202050,0.160796,0.37454,-1.775832,103.0575,-276.5875,-34.2825
406,202148,0.20861999999999997,0.111508,-1.4513120000000002,93.6425,-276.43,-41.23
407,202245,0.407968,-0.009516001,-1.238056,66.6925,-276.4475,-49.805
408,202342,0.561688,-0.040260000000000004,-1.082384,34.58,-287.2625,-57.085
409,202439,0.7283400999999999,-0.01952,-0.9772200999999999,6.8075,-304.57,-61.5825
410,202536,0.839116,0.007320001,-0.889624,-12.3725,-325.045,-60.69
411,202633,0.9293961,0.019032,-0.7956840999999999,-23.905,-343.7525,-55.86
412,202730,1.010892,0.02074,-0.701256,-30.6775,-358.155,-49.28
413,202827,1.11264,0.010492,-0.6161,-34.8775,-368.515,-42.49
414,202924,1.188036,-0.013175999999999998,-0.541192,-40.1275,-376.985,-37.45
415,203021,1.24684,-0.040504000000000005,-0.49288000000000004,-47.6,-382.2175,-34.055
416,203118,1.321016,-0.06929600000000001,-0.49044,-57.4,-382.7425,-31.185
417,203215,1.4457,-0.114192,-0.5016641,-69.0025,-378.595,-28.42
418,203312,1.525976,-0.156648,-0.517768,-83.615,-374.7275,-26.4775
419,203410,1.609912,-0.216428,-0.531676,-102.9525,-369.845,-25.4975
420,203507,1.7040959999999998,-0.240096,-0.522648,-126.6825,-365.015,-25.655
421,203604,1.7977919999999998,-0.21106,-0.49288000000000004,-153.5275,-362.8625,-26.6175
422,203701,1.891488,-0.10614000000000001,-0.467504,-179.5325,-361.69,-28.7175
423,203798,1.9903080000000002,0.004636001,-0.454816,-198.7475,-359.0825,-33.11
424,203895,2.249192,0.118096,-0.5016641,-209.4575,-352.0125,-43.785
425,203992,2.538088,0.25864000000000004,-0.553636,-212.765,-347.445,-64.47
426,204089,2.7054720000000003,0.365268,-0.49263599999999996,-202.2825,-353.1675,-94.16751
427,204186,2.679364,0.351848,-0.35868,-173.8975,-359.5375,-127.05
428,204283,2.89506,0.34428400000000003,-0.13908,-130.655,-357.1225,-157.535
429,204380,2.767204,0.243756,0.24863600000000002,-77.6125,-347.0425,-183.1375
430,204477,2.7084,0.028792,0.675148,-21.9625,-319.2875,-199.29
431,204574,2.601528,-0.196176,1.197308,25.6725,-280.735,-212.625
432,204672,2.544432,-0.441396,1.759484,63.3675,-232.68,-222.9325
433,204769,2.5405279999999997,-0.670512,2.36436,87.4125,-175.3325,-222.845
434,204866,2.487336,-0.9284200999999999,2.875784,97.86,-109.76,-207.1475
435,204963,2.400472,-1.0858,3.009984,95.9525,-37.065,-182.5775
436,205060,2.486848,-1.022604,2.757932,91.4025,38.7625,-151.7775
437,205157,2.72548,-0.8866961,2.278716,90.615,103.74,-111.4225
438,205254,3.4545519999999996,-1.0248,1.073356,86.695,153.6675,-61.355
439,205351,1.055544,-0.425048,0.077836,85.33,188.055,2.1
440,205448,0.375272,-0.38186,-3.7705319999999998,61.3025,235.7075,21.1225
441,205545,0.067832,-0.655628,-1.8390279999999999,30.905,294.4375,56.21
442,205642,1.0948280000000001,-0.121024,0.9120720999999999,-6.475,301.735,102.1475
443,205739,2.718404,-0.15201199999999998,-0.20496,-10.0625,355.775,113.82
444,205837,2.6937599999999997,-0.02562,-0.9018241,-17.2025,329.14,42.3325
445,205934,2.032764,-0.264008,-0.6785640000000001,-17.85,258.405,-6.3
446,206031,1.581608,-0.294996,-0.7300479999999999,-24.325,218.925,-22.0675
447,206128,2.9975400000000003,2.087176,-1.818776,-23.135,164.5175,-45.675
448,206225,1.619428,0.6729520999999999,0.142984,67.83,80.675,-40.95
449,206322,1.7355720000000001,-0.010492,-0.671732,70.6825,65.38,-0.63
450,206419,0.998448,0.159088,-0.6451359999999999,43.61,37.695,24.1675
451,206516,1.006256,0.49654,-0.5165481,19.845,17.64,19.7925
452,206613,0.999668,0.2257,-0.614392,29.19,16.73,15.96
453,206710,0.927688,0.26156799999999997,-0.592432,22.9075,11.0775,16.345
454,206807,0.83936,0.322324,-0.595604,16.345,8.89,13.1425
455,206904,0.8108121,0.325252,-0.5980439999999999,17.325,8.855,15.54
456,207002,0.798124,0.29597199999999996,-0.599996,20.3,8.9775,19.495
457,207099,0.786656,0.242292,-0.605608,22.715,9.4325,22.715
458,207196,0.793976,0.16835999999999998,-0.5697399999999999,23.0475,9.7825,24.3425
459,207293,0.790072,0.19642,-0.573156,20.58,8.82,26.18
460,207390,0.7378560000000001,0.23521599999999998,-0.609268,17.8675,7.1575,27.9125
461,207487,0.756156,0.274988,-0.6124400999999999,17.6925,5.67,29.82
462,207584,0.640012,0.211548,-0.582184,18.5675,2.6075,33.81
463,207681,0.781044,0.165432,-0.6514800000000001,18.445,2.205,36.0325
464,207778,0.746152,0.150304,-0.6141479999999999,16.4675,-0.4375,35.35
465,207875,0.7617681,0.204228,-0.5875520000000001,15.0325,-3.0625,34.4925
466,207972,0.7415161,0.23911999999999997,-0.6231760999999999,17.15,-6.8775,35.2625
467,208070,0.73078,0.268888,-0.6373281,20.1775,-11.97,37.345
468,208167,0.7376119999999999,0.263764,-0.544852,23.2225,-16.9225,40.04
469,208264,0.8459479999999999,0.26474000000000003,-0.7093081,29.855,-23.4325,41.5975
470,208361,0.8239880999999999,0.07564,-0.589504,29.015,-34.615,42.63
471,208458,0.8342360000000001,0.06124401,-0.6292760000000001,23.8,-33.5475,40.3725
472,208555,0.7978801,0.11126400000000002,-0.6368401,16.0125,-29.4175,35.595
473,208652,0.774212,0.094916,-0.635376,13.09,-23.275,32.655
474,208749,0.7510321,0.08637601,-0.6304960000000001,10.3425,-16.6425,29.505
475,208846,0.74054,0.09979600000000001,-0.621468,6.965,-10.1675,25.76
476,208943,0.764696,0.138104,-0.633424,3.7975,-4.515,22.4875
477,209040,0.750788,0.12980799999999998,-0.6375721,1.575,-1.2775,20.2825
478,209137,0.753228,0.15054800000000002,-0.6131721,-2.1,-0.42,19.075
479,209235,0.7808001,0.195688,-0.619272,-8.0325,0.7875,20.055
480,209332,0.777384,0.20252,-0.6082920999999999,-11.4625,4.4275,24.115
481,209429,0.7700640999999999,0.148352,-0.6314721,-15.3825,17.325,29.4175
482,209526,0.7427361,0.165188,-0.672708,-24.815,34.23,34.5625
483,209623,0.6380600000000001,0.096868,-0.788852,-31.0625,61.915,41.4225
484,209720,0.6734399999999999,0.040748,-0.769088,-31.6225,103.25,43.3475
485,209817,0.654896,-0.027327999999999998,-0.786412,-34.9825,144.8125,38.2375
486,209914,0.677588,-0.029036000000000003,-0.840824,-36.365,180.2675,29.505
487,210011,0.755912,-0.022203999999999998,-0.8527800999999999,-31.08,214.0075,21.63
488,210108,0.844972,0.0034159999999999998,-0.8203280000000001,-22.96,247.38,19.4775
489,210205,0.9228081,0.11126400000000002,-0.8430200999999999,-20.3,282.5725,24.535
490,210302,1.1533879999999999,0.33818400000000004,-0.883524,-15.54,327.4775,37.8
491,210400,0.7754321,0.363072,-0.9591639999999999,3.8325,409.99,71.2075
492,210497,1.1712,0.324276,-1.0206520000000001,37.1875,521.92,109.41
493,210594,0.7166279999999999,0.662948,-0.633424,66.6575,573.0725,139.09
494,210691,0.8025161,0.66978,-0.616344,50.015,573.405,219.205
495,210788,2.059848,-0.047092,-0.473116,35.7525,573.405,293.58
496,210885,3.4386919999999996,-0.5072760000000001,-0.624884,50.4525,572.2849,262.5875
497,210982,2.5998200000000002,-0.43505200000000005,-0.077592,68.705,523.25,143.7625
498,211079,2.697664,0.02928,-0.253272,82.355,422.275,33.2325
499,211176,2.2418720000000003,0.386984,-0.7015,54.3375,269.08,-47.0925
500,211273,1.814628,0.856196,-2.650572,-6.615,72.275,-100.6775
501,211370,4.726768,-0.496784,-2.720844,8.715,64.7675,-182.8925
502,211467,2.478064,0.7732359999999999,-2.8801759999999996,-16.1875,270.9525,-39.06
503,211564,2.595184,0.708576,-2.91946,-12.845,106.5575,80.185
504,211661,1.92272,0.9779521000000001,-2.917508,-9.5725,-100.975,26.705
505,211759,0.6946681,0.785924,-2.256756,11.27,-209.44,4.7075
506,211856,0.143716,0.609024,-1.771684,24.045,-257.705,-11.585
507,211953,0.141764,0.45261999999999997,-1.44082,26.0225,-257.9325,-22.6625
508,212050,0.314272,0.338428,-1.2580639999999998,21.175,-256.5325,-30.3975
509,212147,0.5363121,0.27938,-1.146068,12.0575,-265.9125,-35.7525
510,212244,0.7117479999999999,0.248148,-1.042856,2.24,-284.7775,-38.325
511,212341,0.8095920999999999,0.22033200000000003,-0.9242720999999999,-6.09,-307.4225,-38.57
512,212438,0.8571719999999999,0.18251199999999998,-0.8086161000000001,-13.23,-327.845,-37.835
513,212535,0.9206120000000001,0.14493599999999998,-0.716384,-20.93,-342.2125,-38.29
514,212632,0.9903959999999999,0.12712400000000001,-0.621468,-29.05,-352.73,-39.83
515,212729,1.051884,0.10516400000000001,-0.543632,-37.03,-360.85,-41.7025
516,212826,1.14436,0.092964,-0.490928,-44.7825,-365.5575,-43.715
517,212924,1.214876,0.06466001,-0.448716,-52.675,-367.255,-43.785
518,213021,1.295396,0.040748,-0.46042799999999995,-61.9675,-366.135,-43.085
519,213118,1.39324,-0.009272001,-0.477996,-72.5025,-361.9875,-42.665
520,213215,1.468148,-0.055388,-0.480436,-86.0825,-357.5075,-43.8375
521,213312,1.555744,-0.09442801,-0.47677600000000003,-103.81,-352.1875,-45.64
522,213409,1.664568,-0.07198,-0.493856,-124.25,-349.405,-47.04
523,213506,1.767048,-0.025131999999999998,-0.5206960999999999,-144.165,-348.9325,-48.4925
524,213603,1.8587919999999998,0.019764,-0.57706,-161.1575,-348.8625,-52.7975
525,213700,2.042768,0.080276,-0.655384,-173.8975,-346.2375,-62.3
526,213797,2.382904,0.139568,-0.6729520999999999,-181.825,-343.805,-76.405
527,213894,2.685464,0.228872,-0.6265921,-185.01,-349.8775,-94.6925
528,213992,2.762324,0.332328,-0.50142,-179.2525,-362.1275,-116.13
529,214089,3.019256,0.382104,-0.373564,-156.87,-370.3,-139.3175
530,214186,3.028284,0.34526,-0.051484,-119.805,-373.6425,-161.5775
531,214283,2.929708,0.193004,0.41504399999999997,-75.32,-362.145,-180.4075
532,214380,2.726456,-0.005612,1.004548,-33.6875,-335.23,-194.7575
533,214477,2.496852,-0.28938400000000003,1.6506599999999998,1.6275,-286.86,-204.505
534,214574,2.447808,-0.571204,2.21552,23.8875,-218.0675,-210.7
535,214671,2.690588,-0.864492,2.763788,32.48,-143.465,-207.9175
536,214768,2.8665119999999997,-1.106052,3.121492,30.5025,-77.385,-198.3975
537,214865,2.633248,-0.9830760000000001,3.014132,30.555,-16.1,-182.2975
538,214962,2.4429279999999998,-0.8432639999999999,2.624952,51.5025,56.0,-144.8475
539,215060,2.288964,-0.491904,1.856596,84.7525,126.105,-92.5925
540,215157,2.217228,-0.279868,0.47946000000000005,128.31,190.7325,-17.465
541,215254,-0.45164399999999993,-0.73078,-1.3090600000000001,133.0175,204.435,13.755
542,215351,0.325008,-0.49044,-3.971344,81.9875,295.7325,22.2075
543,215448,0.73688,-1.137528,0.23741199999999998,49.49,299.6175,65.7125
544,215545,2.001288,-0.6390359999999999,0.64904,17.7625,334.6875,119.7525
545,215642,3.297172,-0.528504,-0.9535521,-5.6175,350.84,88.6375
546,215739,2.3772919999999997,-0.275476,-0.793976,-25.9875,269.9725,27.1425
547,215836,1.5640399999999999,-0.17738800000000002,-0.6802720999999999,-27.6325,208.5475,6.5625
548,215933,0.9506241,0.849608,-1.6501720000000002,-35.7875,182.49,-8.715
549,216030,1.968836,1.4940120000000001,-0.502152,26.6,103.0575,-52.1675
550,216127,1.742404,0.4392,-0.443592,90.0375,74.48,-9.2225
551,216224,1.4091,-0.288408,-0.594384,64.75,53.76,12.8975
552,216322,1.024068,0.444324,-0.613416,30.5375,25.3575,34.2825
553,216419,1.0016200000000002,0.306708,-0.565104,28.035,18.9175,19.53
554,216516,0.959408,0.18251199999999998,-0.6219561,29.2075,16.8175,19.7225
555,216613,0.918416,0.213256,-0.5997520000000001,20.9475,12.9675,15.6275
556,216710,0.8327720999999999,0.24888000000000002,-0.614392,16.59,12.4425,12.0225
557,216807,0.81862,0.296216,-0.614392,15.8025,10.85,12.005
558,216904,0.8003201,0.266692,-0.5980439999999999,18.0425,9.87,14.63
559,217001,0.8222799999999999,0.18422,-0.5602239999999999,19.9325,9.5375,17.3075
560,217098,0.7856801,0.196664,-0.611952,17.5,7.21,20.335
561,217195,0.7168720000000001,0.236436,-0.647332,15.4,5.1275,21.8225
562,217292,0.7044279999999999,0.282796,-0.6231760999999999,15.12,4.445,23.625
563,217389,0.7241920000000001,0.203252,-0.6263479999999999,16.7825,4.1125,27.0025
564,217486,0.708332,0.08881599,-0.630984,17.71,2.7475,28.1925
565,217584,0.7237041,0.151036,-0.649528,14.07,0.63,24.92
566,217681,0.742492,0.209596,-0.6202479999999999,11.7425,-1.1025,20.8775
567,217778,0.734684,0.23253200000000002,-0.628788,12.5125,-5.39,21.875
568,217875,0.7388319999999999,0.21813600000000002,-0.623908,13.0025,-10.185,24.0975
569,217972,0.753228,0.269376,-0.529724,15.4875,-14.84,26.74
570,218069,0.8249639999999999,0.27328,-0.6283,18.06,-17.71,29.19
571,218166,0.7834840000000001,0.189344,-0.611464,20.405,-22.6275,33.075
572,218263,0.817156,0.126148,-0.60878,18.7425,-24.08,33.3375
573,218360,0.783728,0.114436,-0.624884,14.7175,-21.7175,32.1125
574,218457,0.765184,0.142008,-0.640012,10.745,-17.36,31.2025
575,218554,0.760304,0.160308,-0.632448,9.2225,-12.845,30.45
576,218651,0.718824,0.17738800000000002,-0.677344,7.4375,-10.815,29.365
577,218748,0.743224,0.177876,-0.6558721,6.475,-8.6625,28.4025
578,218846,0.7666480999999999,0.188124,-0.6558721,4.7075,-4.7775,28.245
579,218943,0.765184,0.190808,-0.625616,0.245,0.1575,29.3825
580,219040,0.777384,0.182024,-0.632448,-6.8425,6.6675,33.0925
581,219137,0.80642,0.134688,-0.590724,-14.4375,15.61,37.1175
582,219234,0.765428,0.020984,-0.652944,-22.4175,35.525,39.095
583,219331,0.628544,0.17397200000000002,-0.81618,-33.775,60.9175,39.165
584,219428,0.696132,0.06075601,-0.720288,-33.145,101.8325,39.235
585,219525,0.6688041,0.007076001,-0.741272,-38.57,139.6675,35.875
586,219622,0.6439159999999999,0.003904,-0.823744,-42.0175,174.16,27.9125
587,219719,0.720288,0.00122,-0.8664440000000001,-34.4575,208.1975,19.0225
588,219816,0.8276481,0.00366,-0.822768,-24.745,241.7975,14.105
589,219913,0.93086,0.135908,-0.8261841000000001,-20.5625,275.485,16.87
590,220010,1.064084,0.33916,-0.89792,-17.7625,317.3275,29.0675
591,220107,1.004304,0.42138809999999993,-0.922076,1.4525,394.3625,61.3725
592,220205,1.4752239999999999,0.264008,-0.8364321,36.61,506.345,100.695
593,220302,0.789828,0.625372,-0.517524,79.3625,571.9,127.3475
594,220399,0.567788,0.633424,-0.5131319999999999,75.81,573.405,213.36
595,220496,2.16062,-0.209352,-0.425048,61.9675,573.405,291.4625
596,220593,4.162396,-0.368196,-0.928176,77.315,571.27,240.5725
597,220690,3.046584,-0.248148,-0.729804,107.6775,490.035,118.7375
598,220787,2.725968,0.162504,-0.138348,114.87,387.5375,10.8675
599,220884,2.19112,0.587064,-1.6704240000000001,32.305,234.3775,-80.465
600,220981,1.604056,0.9947881,-2.111576,-3.08,50.015,-99.155
601,221078,4.206316,-0.6707561,-3.054636,27.335,222.635,-111.055
602,221175,3.061224,0.597312,-3.6824480000000004,-59.9725,273.4725,34.405
603,221272,2.39852,0.571936,-2.9201919999999997,-84.455,-9.205,71.225
604,221369,1.500844,0.80642,-2.9384919999999997,-83.87751,-152.74,53.48
605,221466,0.454084,0.680028,-2.2204,-61.6875,-246.645,46.865
606,221564,0.1464,0.586576,-1.7453319999999999,-47.7575,-274.3475,35.4375
607,221661,0.160552,0.4933681,-1.416664,-39.62,-276.6575,22.015
608,221758,0.345016,0.444568,-1.2322,-40.6875,-280.7175,7.4375
609,221855,0.543144,0.43041599999999997,-1.0887280000000001,-44.59,-292.9675,-8.995
610,221952,0.666852,0.42626800000000004,-0.964044,-47.005,-311.64,-23.345
611,222049,0.755424,0.4026,-0.8461921,-46.025,-329.665,-33.635
612,222146,0.8544879999999999,0.373076,-0.7427361,-43.785,-344.5225,-41.055
613,222243,0.952332,0.357948,-0.649528,-41.125,-356.16,-46.8825
614,222340,1.048956,0.333548,-0.579256,-38.745,-365.435,-51.8175
615,222437,1.1529,0.29402,-0.518744,-38.2025,-371.2975,-56.2625
616,222534,1.254892,0.251076,-0.46116,-40.6,-374.57,-59.7975
617,222631,1.341512,0.19885999999999998,-0.44822799999999996,-48.0025,-374.9725,-63.175
618,222728,1.4217879999999998,0.116388,-0.44334799999999996,-59.815,-371.175,-67.4275
619,222825,1.485472,0.046360000000000005,-0.438468,-76.5275,-365.855,-73.4125
620,222922,1.568188,-0.025131999999999998,-0.4392,-98.175,-358.8725,-78.995
621,223020,1.689456,-0.051972000000000004,-0.444568,-123.1825,-352.555,-82.355
622,223117,1.8056,-0.052703999999999994,-0.450912,-148.155,-348.95,-83.3525
623,223214,1.933212,0.0034159999999999998,-0.47653199999999996,-170.7825,-345.73,-83.94751
624,223311,2.173796,0.08637601,-0.510692,-188.44,-342.2475,-87.99
625,223408,2.4212119999999997,0.190808,-0.5404601,-198.4325,-341.3025,-97.335
626,223505,2.4622040000000003,0.16811600000000002,-0.494832,-197.3475,-346.7975,-114.275
627,223602,2.49002,0.23521599999999998,-0.48726800000000003,-184.695,-349.3875,-143.1325
628,223699,2.850896,0.246196,-0.406748,-156.03,-347.48,-171.36
629,223796,2.885056,0.14078800000000002,-0.153476,-115.3775,-345.7125,-191.1525
630,223893,2.857484,-0.043432,0.171532,-70.6125,-334.565,-205.3625
631,223990,2.8030720000000002,-0.160064,0.5734,-31.8325,-313.88,-217.385
632,224087,2.738656,-0.321104,1.1387479999999999,5.5125,-278.88,-221.76
633,224184,2.666188,-0.565104,1.868796,37.2925,-229.95,-216.055
634,224281,2.78648,-0.9254921,2.679608,54.6,-168.595,-196.8925
635,224378,2.7176720000000003,-1.3290680000000001,3.348168,49.175,-104.02,-171.7975
636,224475,2.400716,-1.2841719999999999,3.351096,26.845,-32.1475,-151.9175
637,224573,2.3672880000000003,-0.9572120999999999,2.8081959999999997,19.0575,53.1125,-125.6675
638,224670,2.328492,-0.260348,1.867332,38.29,129.395,-87.0275
639,224767,2.1835560000000003,0.054167999999999994,0.69418,104.58,199.78,-14.7
640,224864,-0.494588,-0.680516,-1.5706280000000001,160.4925,219.24,27.16
641,224961,0.28377199999999997,-0.63562,-3.4433279999999997,108.4475,316.085,32.97
642,225058,0.7327321,-0.596336,0.3538,49.5075,318.4125,59.3075
643,225155,2.085712,-0.534116,0.611952,39.13,362.425,85.575
644,225252,3.126128,-0.537776,-0.8805960999999999,23.38,375.8125,31.0275
645,225349,2.338984,-0.6505041,-0.7666480999999999,3.2375,303.835,-12.95
646,225446,1.6631040000000001,-0.720776,-0.557296,-13.4925,247.59,-17.325
647,225543,1.392264,1.047736,-2.266516,-41.5975,214.165,-24.5
648,225640,2.249436,1.706048,-0.45261999999999997,26.6,106.5225,-63.35
649,225737,2.06302,0.41504399999999997,-0.46457600000000004,102.1475,77.9975,5.985
650,225835,1.447164,-0.308172,-0.5826720000000001,71.435,50.8725,31.815
651,225932,0.8906,0.46726,-0.542412,33.25,15.645,51.7825
652,226029,1.004304,0.293288,-0.5875520000000001,36.75,13.545,35.105
653,226126,0.9496479999999999,0.22082,-0.589016,36.5575,11.34,36.3825
654,226223,0.900848,0.254492,-0.5785241,28.84,9.205,34.1775
655,226320,0.8913321,0.248392,-0.614392,25.8825,9.9225,31.2375
656,226417,0.8222799999999999,0.299388,-0.597068,25.445,8.225,33.46
657,226514,0.8591241,0.22326,-0.5887720000000001,28.9975,7.84,38.605
658,226611,0.8866961,0.08442401,-0.526552,28.7875,5.5125,42.91
659,226708,0.8357,0.119316,-0.6222,20.86,0.245,45.8675
660,226805,0.73932,0.132492,-0.651968,15.3825,-3.7975,43.995
661,226902,0.747128,0.14493599999999998,-0.647576,13.2825,-5.95,39.76
662,226999,0.7449321,0.16909200000000002,-0.6317159999999999,13.6675,-7.3675,37.555
663,227097,0.754204,0.18666,-0.628544,15.4875,-10.185,37.8875
664,227194,0.712724,0.18104800000000001,-0.6095119999999999,16.3275,-14.1575,37.66
665,227291,0.752008,0.247416,-0.6539201,15.7675,-16.94,35.4375
666,227388,0.7537159999999999,0.225212,-0.633424,21.98,-18.585,33.5475
667,227485,0.750544,0.177876,-0.6021920000000001,23.52,-23.87,32.0425
668,227582,0.777628,0.139812,-0.630008,24.8675,-26.565,32.69
669,227679,0.780312,0.140544,-0.625616,21.77,-28.63,31.5
670,227776,0.780312,0.12566,-0.6265921,18.2525,-29.75,30.03
671,227873,0.7788480999999999,0.08564401,-0.609268,15.1025,-27.825,28.6475
672,227970,0.762988,0.05856,-0.628788,11.13,-24.85,26.0225
673,228067,0.7539600000000001,0.047824,-0.640256,7.7175,-20.1075,21.9625
674,228164,0.7442,0.047336,-0.63562,3.815,-13.9475,17.0975
675,228261,0.7551800000000001,0.10223600000000001,-0.6314721,-0.0525,-7.35,12.5825
676,228359,0.7600600000000001,0.12712400000000001,-0.6329359999999999,-2.59,-0.7175,9.87
677,228456,0.741028,0.15054800000000002,-0.612928,-4.62,3.64,9.87
678,228553,0.78446,0.19764,-0.61366,-10.22,5.4075,12.9325
679,228650,0.7793359999999999,0.180804,-0.624152,-12.88,10.5,18.445
680,228747,0.756156,0.164456,-0.636352,-14.4025,18.76,23.0475
681,228844,0.7415161,0.148352,-0.6588,-17.9375,32.06,28.105
682,228941,0.679784,0.045384,-0.8010520000000001,-22.3475,55.16,33.81
683,229038,0.7015,0.07222401,-0.762012,-26.04,91.5425,36.19
684,229135,0.671976,0.000976,-0.7407841,-32.34,130.2875,34.7375
685,229232,0.6505041,-0.012931999999999999,-0.8142281,-38.22,164.2725,30.6775
686,229329,0.70028,-0.01708,-0.8581479999999999,-33.53,197.4175,22.75
687,229427,0.8103239999999999,-0.007564001,-0.8252079999999999,-24.255,230.195,16.94
688,229524,0.8884040000000001,0.035136,-0.796416,-18.655,263.5675,17.71
689,229621,0.8640040000000001,0.171776,-0.8620521000000001,-17.29,300.0725,25.41
690,229718,1.737524,0.485072,-0.936716,-7.035,358.645,43.9075
691,229815,1.077992,0.35087199999999996,-1.039196,20.195,459.0775,84.5425
692,229912,0.8174001000000001,0.45628,-0.8132520999999999,71.75,558.1625,121.8175
693,230009,0.6182960999999999,0.735416,-0.54168,90.7725,573.405,178.745
694,230106,1.315648,0.343796,-0.6675840000000001,68.6,573.405,274.9775
695,230203,3.018768,-0.35892399999999997,-0.811056,62.65,573.3875,299.04
696,230300,2.9750919999999996,-0.226188,-0.334036,74.69,558.6525,209.615
697,230397,2.746464,-0.35624,0.173484,96.77501,479.675,90.685
698,230495,2.8125880000000003,0.510692,-0.504104,70.945,350.07,-37.9225
699,230592,1.7158080000000002,0.748592,-1.541592,-4.3925,157.8675,-86.7825
700,230689,2.095472,1.20048,-1.3834799999999998,-10.045,-36.68,-55.4575
701,230786,5.31188,0.659532,-1.167296,9.3625,258.7375,-113.925
702,230883,2.714012,1.3468799999999999,-3.579968,-112.6475,124.3375,31.92
703,230980,2.12646,1.236836,-3.185176,-82.635,-65.765,20.405
704,231077,0.9206120000000001,1.000156,-2.388516,-53.7425,-188.4575,17.92
705,231174,0.20861999999999997,0.6958880000000001,-1.795596,-20.86,-240.59,9.835
706,231271,0.052216,0.440176,-1.4276440000000001,-8.3475,-241.7625,-0.98
707,231368,0.18666,0.265716,-1.2383,-13.8425,-240.275,-17.64
708,231465,0.404796,0.18788,-1.140944,-28.6475,-245.525,-37.3625
709,231563,0.589016,0.161772,-1.075064,-43.8025,-262.9025,-55.09
710,231660,0.719312,0.152988,-1.005524,-52.92,-285.74,-65.485
711,231757,0.86864,0.12444000000000001,-0.934276,-54.53,-308.525,-69.055
712,231854,0.9655081,0.080276,-0.836676,-51.0825,-330.3475,-69.615
713,231951,1.019188,0.0183,-0.730292,-46.865,-349.3525,-68.6175
714,232048,1.065548,-0.054167999999999994,-0.630984,-45.4125,-363.16,-67.5675
715,232145,1.103612,-0.12932000000000002,-0.547292,-48.9125,-371.7175,-67.7775
716,232242,1.1455799999999998,-0.17812,-0.505568,-58.1,-376.04,-68.46
717,232339,1.212436,-0.20642399999999997,-0.5160600000000001,-71.6625,-375.025,-68.67
718,232436,1.3200399999999999,-0.241804,-0.5516840000000001,-86.06501,-368.7075,-66.7275
719,232533,1.42252,-0.28767600000000004,-0.57828,-101.745,-361.1125,-64.41751
720,232630,1.545252,-0.315004,-0.599264,-119.8925,-354.165,-62.23
721,232727,1.6796959999999999,-0.309392,-0.6021920000000001,-140.1925,-350.5075,-58.8875
722,232824,1.8126759999999997,-0.2562,-0.5814520000000001,-162.19,-349.1075,-56.8925
723,232922,1.8763599999999998,-0.1647,-0.566812,-182.14,-348.25,-58.1175
724,233019,1.9834759999999998,-0.040748,-0.5734,-195.2825,-345.2925,-65.94
725,233116,2.2323560000000002,0.0549,-0.621224,-199.85,-338.9925,-80.22
726,233213,2.526376,0.160552,-0.6736840000000001,-195.72,-335.6325,-101.7625
727,233310,2.7652520000000003,0.239852,-0.6463561,-179.55,-338.835,-129.9025
728,233407,2.989,0.29036,-0.519964,-148.9075,-343.8575,-160.37
729,233504,2.972652,0.243756,-0.225212,-104.6675,-347.795,-187.5475
730,233601,2.9248279999999998,0.038551999999999996,0.142496,-53.095,-342.02,-206.185
731,233698,2.790628,-0.150304,0.590968,-7.3325,-325.4475,-224.385
732,233795,2.677412,-0.306708,1.0972680000000001,29.1725,-296.6425,-240.1525
733,233892,2.6105560000000003,-0.536556,1.73606,58.66,-253.575,-250.8275
734,233989,2.5817639999999997,-0.7929999999999999,2.47538,77.665,-195.1775,-251.3175
735,234086,2.714012,-1.141676,3.052684,81.91751,-123.4625,-235.9875
736,234183,2.687904,-1.1855959999999999,3.156872,74.305,-52.955,-211.4
737,234281,2.572492,-0.9989360999999999,2.7664720000000003,73.9375,17.5525,-171.1675
738,234378,2.5803,-0.85156,2.192584,94.395,84.08751,-111.125
739,234475,2.4260919999999997,-1.038708,1.371768,112.245,150.7275,-27.7025
740,234572,0.11224,-0.45725600000000005,-0.89426,77.2275,181.0025,37.8
741,234669,-0.258152,-0.6722199999999999,-3.7924919999999998,66.71,267.505,85.48751
742,234766,0.29036,-0.322324,-0.200812,-22.96,296.275,100.1175
743,234863,1.9056400000000002,0.126148,0.767868,-35.4375,341.7925,139.4575
744,234960,2.873832,0.126636,-0.7449321,-14.735,370.9825,118.615
745,235057,2.25944,0.165188,-0.6985720999999999,-16.3975,315.105,39.69
746,235154,2.141832,-0.205692,-0.721264,-6.5275,271.5125,3.9725
747,235251,1.389092,-0.025376,-1.059448,-13.6675,231.525,-16.905
748,235348,2.583716,1.5523280000000002,-0.81252,24.955,143.5175,-55.405
749,235446,1.652856,0.434076,-0.20618000000000003,84.10501,83.3175,-5.3025
750,235543,1.606496,-0.17568,-0.6314721,57.61,62.965,19.5825
751,235640,0.967216,0.27938,-0.598532,31.2375,34.44,34.1075
752,235737,1.0065,0.363804,-0.557052,20.545,24.1325,21.21
753,235834,0.978684,0.186416,-0.606584,23.94,23.31,17.605
754,235931,0.89792,0.212036,-0.59658,17.5875,18.13,15.8025
755,236028,0.829356,0.278404,-0.6080479999999999,12.46,16.59,10.9025
756,236125,0.8178880999999999,0.34428400000000003,-0.606584,13.3,14.805,12.075
757,236222,0.8049561,0.30378,-0.603168,17.115,13.0725,16.205
758,236319,0.793976,0.233996,-0.625372,19.8975,11.8475,19.355
759,236416,0.7700640999999999,0.204228,-0.6197600000000001,19.495,10.1675,20.51
760,236513,0.780068,0.174216,-0.5785241,17.535,8.8025,20.755
761,236610,0.7712840999999999,0.188368,-0.603168,14.6475,7.245,21.1225
762,236707,0.7381001,0.214232,-0.6095119999999999,13.405,6.125,21.245
763,236805,0.738588,0.242048,-0.601704,14.5075,5.1625,24.01
764,236902,0.69784,0.173728,-0.5734,17.675,3.78,29.4875
765,236999,0.774212,0.195444,-0.640012,19.355,1.925,33.46
766,237096,0.7415161,0.211304,-0.6229319999999999,19.495,-3.15,34.1075
767,237193,0.7610359999999999,0.231312,-0.620492,21.5425,-9.94,36.8025
768,237290,0.793244,0.25522399999999995,-0.552416,23.7125,-15.47,39.2175
769,237387,0.7993439999999999,0.235704,-0.6802720999999999,25.6025,-21.9275,38.955
770,237484,0.8174001000000001,0.123708,-0.597068,25.27,-27.6325,38.675
771,237581,0.8249639999999999,0.11394800000000001,-0.585112,19.145,-28.42,36.9775
772,237678,0.8174001000000001,0.122976,-0.5948720000000001,13.125,-26.74,34.9475
773,237775,0.7854361,0.10394400000000001,-0.616588,8.96,-22.995,34.16
774,237872,0.754692,0.11102000000000001,-0.634156,5.9325,-19.1625,31.29
775,237969,0.743712,0.17128800000000002,-0.656116,3.3775,-15.3475,28.1225
776,238067,0.7315119999999999,0.16348,-0.6573359999999999,3.64,-11.55,26.635
777,238164,0.762012,0.137372,-0.641964,3.255,-8.8725,25.41
778,238261,0.7376119999999999,0.192028,-0.639768,-1.2075,-8.925,24.92
779,238358,0.772016,0.17519200000000001,-0.6158561,-5.7575,-6.3875,27.3875
780,238455,0.771772,0.19154000000000002,-0.612928,-10.08,-3.3075,30.975
781,238552,0.7849480999999999,0.138836,-0.5753520000000001,-14.4375,5.6,34.3525
782,238649,0.765428,0.1098,-0.620736,-21.5425,22.785,36.8725
783,238746,0.756156,0.133468,-0.6917399999999999,-30.7825,41.93,39.9175
784,238843,0.625616,0.080764,-0.73932,-34.8075,70.14,44.73
785,238940,0.6985720999999999,0.0488,-0.748836,-36.085,107.52,43.05
786,239037,0.650992,-0.030744,-0.7978801,-35.3325,141.015,37.1175
787,239134,0.66856,-0.035136,-0.8476561,-32.8825,172.48,26.3375
788,239232,0.748592,-0.057339999999999995,-0.8254520000000001,-24.675,205.66,16.5725
789,239329,0.8615640999999999,0.00488,-0.7895840999999999,-19.005,238.6475,11.6725
790,239426,0.9777081,0.2196,-0.834724,-18.655,272.72,15.4525
791,239523,1.1453360000000001,0.38308000000000003,-0.8991401,-14.1225,318.535,33.075
792,239620,0.783728,0.392108,-0.966484,1.015,400.855,68.46
793,239717,1.3388280000000001,0.3843,-0.9803921,30.275,513.765,110.6
794,239814,0.801296,0.5987760999999999,-0.611952,68.95,572.495,152.5125
795,239911,0.837408,0.658556,-0.745664,54.285,573.405,230.0025
796,240008,2.227476,0.029768,-0.640256,41.9125,573.405,300.2125
797,240105,3.4035559999999996,-0.440176,-0.6558721,59.7625,572.7225,275.0825
798,240202,2.723284,-0.346968,-0.150792,83.2475,516.7575,172.8125
799,240300,2.663016,0.13664,-0.17324,102.2175,400.26,69.1775
800,240397,2.244068,0.5233800000000001,-0.8215481,73.4825,242.4275,-17.9725
801,240494,1.4654639999999999,1.090924,-2.690344,-6.5975,47.1975,-90.8425
802,240591,4.57744,-0.376004,-3.028284,2.695,120.2425,-185.22
803,240688,2.384856,0.98088,-3.219824,-13.0375,254.3625,1.225
804,240785,2.156716,0.850096,-2.970212,-16.765,66.4825,58.0125
805,240882,1.606984,0.9152440000000001,-2.855532,-1.05,-119.1925,27.86
806,240979,0.565836,0.673928,-2.202344,20.1075,-225.05,8.2425
807,241076,0.114192,0.47994799999999993,-1.7080000000000002,29.6975,-265.8775,-5.145
808,241173,0.124928,0.361852,-1.365424,25.935,-268.5725,-12.6
809,241270,0.276452,0.284992,-1.152168,15.995,-267.505,-20.405
810,241367,0.48385200000000006,0.26913200000000004,-1.0140639999999999,2.8875,-276.325,-28.07
811,241465,0.676612,0.284504,-0.919392,-8.435,-293.055,-33.6175
812,241562,0.7998321,0.29792399999999997,-0.823256,-15.4875,-313.635,-36.05
813,241659,0.8888921000000001,0.287188,-0.729804,-19.67,-332.885,-36.155
814,241756,0.9713639999999999,0.277916,-0.630984,-22.54,-347.4625,-36.75
815,241853,1.044808,0.272304,-0.547292,-25.3575,-358.54,-38.0975
816,241950,1.13704,0.250832,-0.477996,-28.9975,-365.435,-39.375
817,242047,1.203652,0.233996,-0.42333999999999994,-35.0525,-369.775,-41.9825
818,242144,1.271484,0.225212,-0.402844,-43.05,-371.0175,-45.64
819,242241,1.3764040000000002,0.1952,-0.417728,-52.185,-367.5875,-50.12
820,242338,1.494256,0.1464,-0.432612,-62.615,-361.69,-55.1075
821,242435,1.60552,0.10052799999999999,-0.429684,-77.105,-356.0375,-60.4275
822,242533,1.6979959999999998,0.062220000000000004,-0.418704,-94.78,-351.1725,-64.5575
823,242630,1.741428,0.062220000000000004,-0.40626,-114.24,-348.005,-67.865
824,242727,1.765828,0.08808401,-0.39113200000000004,-133.6825,-343.63,-70.1925
825,242824,1.7565560000000002,0.132248,-0.387716,-150.6225,-336.245,-73.675
826,242921,1.8575720000000002,0.22082,-0.429684,-163.1,-323.5575,-80.8675
827,243018,2.162328,0.347456,-0.479216,-169.4175,-309.2075,-90.405
828,243115,2.341424,0.22326,-0.462136,-166.6,-300.1075,-101.5875
829,243212,2.944836,0.341356,-0.48922,-160.335,-295.085,-127.12
830,243309,3.118564,0.34477199999999997,-0.307196,-144.8825,-304.4825,-159.0225
831,243406,3.2813120000000002,0.22204000000000002,-0.01952,-114.625,-318.29,-186.4975
832,243503,3.164924,0.071248,0.42431599999999997,-80.01,-332.885,-214.7425
833,243601,2.915068,-0.145912,0.960384,-41.3525,-328.265,-235.8475
834,243698,2.642764,-0.4636,1.616744,-0.6825,-296.2225,-245.665
835,243795,2.547604,-0.7712840999999999,2.35948,32.6725,-241.2725,-240.7825
836,243892,2.640324,-1.149728,3.160776,50.925,-171.185,-215.53
837,243989,2.298236,-1.380064,3.591436,50.995,-92.8025,-178.745
838,244086,1.9898200000000001,-1.21878,3.233244,44.4675,5.495,-137.27
839,244183,2.433168,-0.8493641,2.403156,49.1575,105.3325,-91.2275
840,244280,2.8809080000000002,-0.05246,0.9354959999999999,61.6,164.4825,-49.3325
841,244377,1.7111720000000001,-0.49117200000000005,-0.26303200000000004,122.0275,189.1575,7.665
842,244474,-1.305644,0.089304,-3.715632,96.77501,214.69,5.7575
843,244571,0.000976,-0.7422481,-2.7298720000000003,86.555,313.845,16.065
844,244668,0.7549359999999999,-0.49849209999999994,1.3466360000000002,66.2375,310.5025,80.3775
845,244765,2.621292,-0.725168,0.266692,36.8025,374.85,78.96
846,244863,2.931416,-0.797392,-1.00284,25.3575,362.495,13.02
847,244960,2.031544,-0.9999121,-0.7139439999999999,2.59,282.205,-6.755
848,245057,1.2939319999999999,-0.62708,-0.705404,-26.18,239.015,4.795
849,245154,3.0268200000000003,2.9797279999999997,-1.095804,-13.4575,147.07,-35.77
850,245251,1.747528,0.952332,0.25986,97.8775,79.94,5.81
851,245348,1.996652,-0.5063,-0.711992,96.91501,70.4725,47.1275
852,245445,0.834968,0.24863600000000002,-0.5980439999999999,55.58,20.3525,75.985
853,245542,1.0316319999999999,0.349164,-0.576816,35.4375,7.07,44.135
854,245639,0.85644,0.141032,-0.627812,42.315,8.33,38.3075
855,245736,0.9511120000000001,0.233264,-0.62098,32.375,5.3025,35.9625
856,245833,0.8615640999999999,0.274988,-0.633424,26.74,4.06,33.7225
857,245930,0.8105680000000001,0.33305999999999997,-0.61122,26.4075,2.485,37.0125
858,246027,0.8317960999999999,0.235704,-0.612684,28.6475,1.225,41.335
859,246125,0.8054439999999999,0.158356,-0.630984,27.5975,-1.47,43.2425
860,246222,0.7686,0.085156,-0.6675840000000001,23.9225,-4.025,42.3675
861,246319,0.756644,0.111752,-0.65758,20.0725,-4.0425,39.4975
862,246416,0.7707961,0.16128399999999998,-0.6612401,18.3225,-3.465,36.295
863,246513,0.758352,0.122976,-0.601216,17.2375,-3.15,34.3875
864,246610,0.793488,0.138348,-0.632448,16.3625,-4.9525,32.3225
865,246707,0.801296,0.137128,-0.638548,15.1375,-8.3125,28.8925
866,246804,0.7759199999999999,0.12029200000000001,-0.619028,15.225,-13.37,25.1825
867,246901,0.801784,0.130296,-0.6219561,13.3175,-15.225,22.47
868,246999,0.780068,0.12712400000000001,-0.6170760000000001,12.3725,-17.1325,20.265
869,247096,0.777384,0.14518,-0.6319600000000001,10.605,-17.4825,19.635
870,247193,0.7771399999999999,0.158112,-0.627812,9.975,-17.85,20.7375
871,247290,0.783972,0.14688800000000002,-0.624152,9.0825,-17.0275,22.4875
872,247387,0.782752,0.12468399999999999,-0.619516,8.3825,-14.6825,23.38
873,247484,0.774212,0.089792,-0.618052,7.1225,-11.795,23.1175
874,247581,0.769576,0.089792,-0.618052,5.18,-8.6625,21.595
875,247678,0.7661600000000001,0.094672,-0.62464,2.0825,-5.53,19.005
876,247775,0.763476,0.09882,-0.620736,-1.505,-1.365,17.57
877,247872,0.775188,0.107848,-0.607804,-6.93,2.6775,18.585
878,247969,0.8188641,0.091988,-0.5777920999999999,-14.665,5.5825,22.19
879,248066,0.8127641,0.142496,-0.57096,-26.3375,7.805,28.14
880,248164,0.817156,0.195444,-0.5797441,-37.5725,9.135,36.5225
881,248261,0.793488,0.20788800000000002,-0.5987760999999999,-43.505,8.995,46.2
882,248358,0.7612800999999999,0.21374400000000002,-0.6375721,-47.18,10.6225,54.25
883,248455,0.74664,0.153476,-0.70394,-45.8675,19.25,60.5325
884,248552,0.69784,0.09394001,-0.7044279999999999,-45.08,37.975,63.63
885,248649,0.696132,0.060512,-0.711504,-48.2125,65.485,61.88
886,248746,0.6414761,0.017324000000000003,-0.781532,-48.9475,93.8,57.8725
887,248843,0.601704,-0.03782,-0.8569280999999999,-45.01,124.2675,48.615
888,248940,0.624884,-0.060267999999999995,-0.8671761,-33.9325,156.87,34.6675
889,249037,0.672708,-0.09223200000000001,-0.8461921,-22.0675,189.6475,21.805
890,249134,0.81374,-0.048312,-0.81618,-15.015,225.3825,13.65
891,249231,0.9264680000000001,0.08906,-0.869616,-15.19,265.1075,14.7875
892,249328,0.862784,0.217648,-0.9738041,-12.635,317.6075,27.8425
893,249426,1.5738,0.51362,-1.067988,8.0325,410.025,51.94
894,249523,1.188036,0.34257600000000005,-1.044564,47.775,529.5675,94.71
895,249620,0.6329359999999999,0.624152,-0.8486319999999999,84.455,573.0375,129.7625
896,249717,0.8818159999999999,0.646112,-0.909632,63.8925,573.405,196.245
897,249814,2.245532,-0.22057600000000002,-0.715896,48.5275,573.405,261.625
898,249911,2.9258040000000003,-0.484096,-0.21106,65.835,573.405,236.075
899,250008,3.186396,-0.376004,0.045627999999999995,95.5675,537.95,146.7725
900,250105,2.774524,0.413092,0.034892,145.3375,380.905,61.95
901,250202,2.1652560000000003,0.51118,-1.01138,134.085,167.16,-0.42
902,250299,1.878312,1.50426,-1.903932,64.75,-32.6025,-80.255
903,250396,4.095784,0.437004,-2.1474439999999997,42.91,140.0,-196.3675
904,250494,1.613816,0.668072,-2.861632,44.485,202.9475,81.39251
905,250591,1.77998,0.5543680000000001,-2.472452,47.775,64.1725,76.8075
906,250688,1.291248,0.61,-2.351672,38.9375,-102.41,44.0475
907,250785,0.345504,0.57706,-1.8051119999999998,37.485,-185.29,30.24
908,250882,0.07832401,0.527528,-1.4400879999999998,36.47,-210.0875,27.2475
909,250979,0.071492,0.5260640000000001,-1.190476,38.815,-207.0425,20.3875
910,251076,0.283528,0.5858439999999999,-1.105076,42.98,-206.9025,12.075
911,251173,0.48678,0.640256,-1.032852,51.8175,-215.3025,3.01
912,251270,0.6422081000000001,0.68198,-0.9823440999999999,62.895,-235.55,-4.27
913,251367,0.776408,0.67588,-0.8949921000000001,75.6875,-261.135,-9.8175
914,251464,0.8591241,0.647576,-0.772992,85.90751,-289.345,-15.2075
915,251561,0.9054840000000001,0.598532,-0.643428,91.0175,-315.105,-20.895
916,251659,0.9474520000000001,0.5614439999999999,-0.528748,89.8275,-335.405,-25.97
917,251756,1.0187,0.5553441,-0.440176,81.88251,-350.805,-27.755
918,251853,1.1155680000000001,0.5636399999999999,-0.367708,69.44,-362.3025,-24.8325
919,251950,1.212436,0.60146,-0.32403200000000004,53.7775,-371.175,-18.6375
920,252047,1.316624,0.638304,-0.30353600000000003,35.665,-377.72,-12.8275
921,252144,1.392508,0.662216,-0.28426,16.2575,-383.0575,-11.3575
922,252241,1.4957200000000002,0.7027201,-0.288896,-5.1625,-387.1175,-15.4175
923,252338,1.6862840000000001,0.721996,-0.313052,-27.4575,-388.465,-23.345
924,252435,1.920768,0.8396040000000001,-0.344528,-50.785,-393.155,-35.735
925,252532,2.1840439999999997,0.9769760000000001,-0.305,-70.56,-401.03,-49.2625
926,252629,2.381196,1.1453360000000001,-0.236192,-83.755,-414.05,-64.4
927,252726,2.485384,1.26636,-0.171532,-85.55751,-424.375,-84.9625
928,252824,2.5937200000000002,1.3773799999999998,-0.11321600000000001,-75.1625,-423.57,-113.295
929,252921,2.721088,1.515484,-0.083204,-53.1125,-412.23,-143.8325
930,253018,2.91946,1.609424,0.006832001,-20.265,-391.3,-170.5375
931,253115,2.972408,1.101904,0.352092,17.01,-368.2,-194.635
932,253212,2.727432,0.44212799999999997,0.77836,43.015,-343.84,-236.6875
933,253309,2.729384,0.377224,1.005036,28.9975,-301.8225,-290.43
934,253406,2.964844,0.391864,1.172664,27.2475,-258.5625,-309.4525
935,253503,2.811856,0.401624,1.58966,52.99,-215.005,-296.3275
936,253600,2.530036,0.048068,2.109868,94.51751,-162.89,-259.5425
937,253697,2.279936,-0.490684,2.477576,112.2625,-99.9775,-220.045
938,253794,2.220644,-0.677588,2.638128,91.9625,-38.6225,-195.2475
939,253891,2.169892,-0.407236,2.46928,59.01,18.2875,-176.505
940,253989,2.190144,-0.11321600000000001,2.063752,46.9875,73.4125,-156.415
941,254086,2.552484,0.400892,1.117764,60.7425,120.7325,-143.0275
942,254183,0.9796600000000001,0.55998,0.420412,156.8,183.61,-124.18
943,254280,0.031964,-1.096536,-1.035536,230.1425,217.14,-138.285
944,254377,0.330864,-1.304668,-1.9224759999999999,164.92,324.59,-173.53
945,254474,1.0826280000000001,-0.631228,-0.168604,76.2475,338.8,-228.6375
946,254571,2.299456,-0.6273241,0.100772,47.005,387.94,-211.8725
947,254668,2.9097,-1.323212,-0.4933681,54.495,377.335,-158.3225
948,254765,2.846504,-1.826096,-0.8845,20.7375,324.905,-100.3625
949,254862,2.5244240000000002,-1.609424,-0.9472079999999999,-41.86,252.6125,-39.4275
950,254959,1.7043400000000002,-0.31476,-0.815692,-110.18,181.02,10.01
951,255056,2.0581400000000003,2.1899,-2.134024,-130.1825,126.4025,17.3425
952,255153,1.0711600000000001,1.618208,-0.243024,-31.255,56.4375,-21.5075
953,255250,1.274412,1.059692,-0.4819,28.455,61.145,-0.455
954,255348,1.452532,-0.02684,-0.5214281,57.19,49.805,16.4675
955,255445,0.978196,0.381128,-0.6453800000000001,36.26,14.4725,38.9375
956,255542,0.767868,0.37258800000000003,-0.603168,36.2075,0.63,36.19
957,255639,0.94916,0.207644,-0.573156,43.4525,-0.8925,32.83
958,255736,0.9516,0.28987199999999996,-0.5414359999999999,36.68,-8.96,32.9
959,255833,0.8169121,0.337696,-0.5785241,31.8675,-12.67,33.2325
960,255930,0.803736,0.260348,-0.6405,33.7925,-12.8975,36.4
961,256027,0.803492,0.22691999999999998,-0.646112,32.41,-13.7725,39.6725
962,256124,0.807884,0.22204000000000002,-0.644648,28.035,-14.595,43.1725
963,256221,0.709796,0.17641199999999999,-0.461892,29.5225,-15.505,45.71
964,256318,0.7832399999999999,0.14078800000000002,-0.650016,30.415,-15.505,46.4625
965,256415,0.805932,0.172752,-0.735172,27.4925,-17.85,47.6875
966,256513,0.8493641,0.080764,-0.60024,25.375,-22.89,39.515
967,256610,0.7754321,0.061732,-0.5978,19.7925,-22.82,32.235
968,256707,0.8247200000000001,0.08881599,-0.642696,18.1475,-18.7425,27.5275
969,256804,0.8030041,0.09028,-0.642452,17.5175,-15.575,23.275
970,256901,0.79422,0.091744,-0.6231760999999999,17.01,-12.5825,19.6525
971,256998,0.798124,0.12053599999999999,-0.6124400999999999,16.7825,-10.675,16.6075
972,257095,0.7944641,0.147376,-0.6131721,16.8875,-9.905,15.295
973,257192,0.7893399999999999,0.156404,-0.6158561,16.975,-11.0425,16.6425
974,257289,0.77836,0.13664,-0.6197600000000001,16.38,-13.9475,19.1975
975,257386,0.759328,0.10858,-0.6290319999999999,15.4,-15.4875,20.7025
976,257483,0.749324,0.10126,-0.6265921,13.685,-14.98,20.8775
977,257580,0.7556681,0.09418401,-0.6456241,12.67,-12.67,20.7025
978,257678,0.7510321,0.08417999999999999,-0.648796,12.3375,-11.13,20.3175
979,257775,0.749568,0.0793,-0.644892,11.83,-9.66,19.7575
980,257872,0.750544,0.077836,-0.659044,11.7075,-7.98,19.145
981,257969,0.7317560000000001,0.09930800000000001,-0.669048,11.865,-5.25,18.8825
982,258066,0.7551800000000001,0.111752,-0.669292,12.355,-0.105,19.775
983,258163,0.746152,0.11102000000000001,-0.6753920999999999,13.405,3.9375,21.91
984,258260,0.74664,0.08564401,-0.6722199999999999,15.645,9.38,24.7975
985,258357,0.738588,0.021716,-0.658068,16.87,16.3975,26.4075
986,258454,0.730292,-0.050508,-0.676124,14.385,23.485,25.2875
987,258551,0.73078,0.0183,-0.707112,8.3125,32.13,21.21
988,258648,0.707356,-0.01342,-0.6763680000000001,6.2825,44.66,18.165
989,258745,0.704916,-0.018788,-0.68808,3.675,59.0625,14.98
990,258843,0.7200439999999999,0.018056,-0.7041841,1.0325,76.23001,11.97
991,258940,0.7107720000000001,0.05929201,-0.731268,-0.1225,95.4275,12.075
992,259037,0.721264,0.061,-0.752496,1.225,118.6675,16.5375
993,259134,0.740296,0.05563200000000001,-0.743712,2.87,144.795,21.6125
994,259231,0.765184,0.09589201,-0.8071520000000001,4.55,170.2925,27.3
995,259328,0.749568,0.0488,-0.8039801,13.4225,191.0825,35.0875
996,259425,0.7849480999999999,0.0366,-0.87108,20.8425,219.59,42.3675
997,259522,0.7929999999999999,0.10248,-0.966728,28.7175,253.575,54.25
998,259619,0.8849879999999999,0.195688,-0.9813681000000001,40.6525,294.9275,72.5025
999,259716,1.7341080000000002,0.149572,-1.315404,75.8625,400.61,105.6825
1000,259813,0.8486319999999999,0.3477,-1.482788,186.69,535.2025,162.2775
1001,259911,0.873276,0.542412,-1.232932,297.01,572.8275,227.955
1002,260008,1.826584,0.1464,-1.247572,343.245,573.405,287.945
1003,260105,2.7532959999999997,-0.66978,-0.5443640000000001,361.06,571.5325,285.5825
1004,260202,3.206892,-0.211548,-0.395768,334.145,485.2925,204.89
1005,260299,2.279936,0.671732,-0.44408000000000003,322.0525,260.295,133.6125
1006,260396,0.855708,0.902068,-1.552816,289.3625,28.91,52.9725
1007,260493,3.881308,-0.326228,-1.595272,311.1325,-48.0725,-72.7125
1008,260590,1.3607879999999999,-0.28767600000000004,-0.787876,396.725,198.0125,63.63
1009,260687,2.111088,-0.075396,-2.050332,395.395,128.1875,119.84
1010,260784,1.521828,-0.09125599999999999,-1.885144,320.4775,-21.0,60.7775
1011,260882,0.9598959999999999,0.142252,-1.7924240000000002,250.04,-100.975,56.5075
1012,260979,0.49605200000000005,0.349652,-1.4393559999999999,206.325,-161.1575,68.285
1013,261076,0.413336,0.62098,-1.287344,180.04,-175.8225,86.34501
1014,261173,0.443104,0.8764481,-1.192428,169.5925,-188.4225,103.425
1015,261270,0.5692520000000001,1.1746159999999999,-1.128012,172.27,-197.75,117.1625
1016,261367,0.643428,1.4154440000000001,-1.021628,181.9825,-213.045,122.5525
1017,261464,0.7200439999999999,1.7050720000000001,-0.956968,193.2175,-233.555,114.3275
1018,261561,0.874252,1.9297959999999998,-0.8337481,209.2825,-253.4875,92.85501
1019,261658,0.9779521000000001,2.1059639999999997,-0.6602640000000001,227.9375,-280.455,63.56
1020,261755,1.050664,2.2418720000000003,-0.47823999999999994,247.8875,-305.5675,36.015
1021,261853,1.08092,2.32288,-0.27816,267.855,-323.8375,15.3125
1022,261950,1.13704,2.323856,-0.134688,282.975,-334.74,-0.7875
1023,262047,1.173884,2.262124,-0.005856,291.2875,-339.29,-14.7525
1024,262144,1.243424,2.210884,0.08857201,287.2625,-337.5575,-29.4
1025,262241,1.261968,2.173552,0.133468,272.58,-333.7075,-47.32
1026,262338,1.323212,2.1533,0.132248,250.8625,-326.4275,-68.39
1027,262435,1.449848,2.229428,0.10126,226.3275,-317.52,-90.09000999999999
1028,262532,1.56526,2.231868,0.07612801,207.795,-309.5225,-106.1375
1029,262629,1.7021439999999999,2.167208,0.044407999999999996,191.9575,-301.525,-119.7
1030,262726,1.7868119999999998,2.084004,0.011468,173.7575,-295.9775,-135.73
1031,262823,1.9193040000000001,1.996164,-0.015372,154.5075,-291.4275,-154.875
1032,262920,1.945412,1.9822560000000002,-0.019275999999999998,139.545,-289.8525,-176.96
1033,263018,2.030812,1.905152,-0.034404000000000004,135.0475,-286.1075,-199.22
1034,263115,2.073756,1.802672,-0.007564001,138.565,-281.8375,-222.145
1035,263212,2.1169439999999997,1.622844,0.028548,147.245,-273.91,-239.7675
1036,263309,2.1301200000000002,1.393484,0.089792,152.25,-263.6725,-250.5475
1037,263406,2.1106,1.170468,0.14493599999999998,146.685,-252.56,-253.8725
1038,263503,2.100108,1.009672,0.168848,128.975,-240.345,-250.8275
1039,263600,2.1240200000000002,0.9269561,0.169336,102.9875,-229.495,-244.7025
1040,263697,2.0742439999999998,0.366732,0.392108,77.2975,-222.46,-239.645
1041,263794,1.883436,0.259128,0.49702799999999997,42.9625,-218.19,-255.0625
1042,263891,1.9595639999999999,0.31890799999999997,0.4697,1.75,-200.41,-270.76
1043,263988,2.029348,0.28157600000000005,0.48433999999999994,-8.61,-174.825,-266.9625
1044,264086,1.9942119999999999,0.273036,0.568032,1.4525,-143.78,-251.5625
1045,264183,1.991528,0.16128399999999998,0.67466,21.8575,-112.595,-227.6575
1046,264280,2.010072,0.020984,0.76372,38.7975,-83.825,-198.7825
1047,264377,2.071804,-0.121268,0.8481440999999998,42.4025,-63.8925,-169.05
1048,264474,1.986648,-0.217892,0.9372040999999999,30.695,-52.92,-140.77
1049,264571,1.8717240000000002,-0.225212,1.005768,9.5025,-42.7,-115.5875
1050,264668,1.735084,-0.169336,1.038708,-9.87,-28.9275,-93.4325
1051,264765,1.6084479999999999,-0.09223200000000001,1.004304,-17.0975,-7.9625,-73.1325
1052,264862,1.594052,0.005612,0.8764481,-12.3725,18.585,-54.3375
1053,264959,1.690432,0.393572,0.41553199999999996,4.2525,53.235,-34.475
1054,265057,0.81252,0.586576,0.5002,72.205,96.81,-22.925
1055,265154,0.91622,-0.081252,-0.892552,145.88,149.0825,-34.2825
1056,265251,0.325984,-0.368684,-1.4417959999999999,152.1975,169.19,-78.05
1057,265348,0.393084,-0.5121560000000001,-0.79178,123.0425,196.8575,-141.085
1058,265445,1.282952,-0.6939361,-0.30841599999999997,101.43,249.235,-170.1175
1059,265542,2.345572,-0.659044,-0.720532,79.065,258.65,-160.2825
1060,265639,2.2997,-1.009672,-0.815448,74.445,212.24,-123.4625
1061,265736,1.62626,-1.133868,-0.868884,49.945,153.9125,-76.965
1062,265833,1.104832,-0.8759601,-0.895236,14.3325,115.8325,-29.4875
1063,265930,0.707356,-0.050752,-0.719312,-24.535,94.60501,-5.25
1064,266028,1.440332,1.566724,-1.4374040000000001,-34.0725,82.635,-12.7925
1065,266125,1.2397639999999999,0.834968,-0.30988000000000004,35.2275,45.85,-45.0275
1066,266222,1.2587959999999998,0.317688,-0.735416,58.135,42.875,-25.655
1067,266319,1.0643280000000002,0.06466001,-0.6314721,48.335,27.58,-5.1975
1068,266416,0.906948,0.4758,-0.6314721,32.2,13.09,16.9925
1069,266513,1.033096,0.24668400000000001,-0.665632,33.0925,11.2525,22.0675
1070,266610,0.8940161,0.107116,-0.625616,28.175,4.13,27.23
1071,266707,0.795928,0.264008,-0.6480640000000001,17.92,-1.645,29.015
1072,266804,0.81252,0.19861600000000001,-0.648552,16.5375,-3.5175,25.2525
1073,266901,0.7822640000000001,0.1769,-0.652456,14.98,-5.0925,26.215
1074,266998,0.774944,0.174704,-0.646844,13.755,-5.4775,25.5675
1075,267095,0.7734800000000001,0.138348,-0.6414761,13.2825,-5.915,23.9925
1076,267193,0.783728,0.17568,-0.609024,13.44,-6.9125,22.6625
1077,267290,0.777384,0.1464,-0.576084,16.45,-7.6825,22.995
1078,267387,0.729804,0.18104800000000001,-0.640256,15.89,-9.1525,23.5025
1079,267484,0.7288279999999999,0.211548,-0.662704,15.5225,-11.1125,25.8825
1080,267581,0.7381001,0.214232,-0.644892,16.7825,-12.2675,27.58
1081,267678,0.7478600000000001,0.23424,-0.66246,18.48,-15.2425,31.78
1082,267775,0.76372,0.211304,-0.6451359999999999,21.1225,-18.305,35.98
1083,267872,0.746396,0.171532,-0.653676,22.0325,-21.175,39.235
1084,267969,0.739564,0.193736,-0.6954,24.64,-26.3025,40.4425
1085,268066,0.743224,0.125904,-0.613904,24.675,-33.25,39.27
1086,268164,0.754204,0.0732,-0.66246,24.395,-36.995,37.6075
1087,268261,0.714676,0.046360000000000005,-0.657824,20.6675,-37.695,33.775
1088,268358,0.720532,0.046360000000000005,-0.6729520999999999,15.785,-36.5925,28.7875
1089,268455,0.6895439999999999,0.081984,-0.6795401,11.6025,-36.05,24.885
1090,268552,0.6956439999999999,0.059536,-0.6785640000000001,7.56,-34.09,21.7875
1091,268649,0.7381001,0.046848,-0.65758,5.0575,-27.055,19.04
1092,268746,0.735416,0.058316,-0.651968,2.6075,-17.115,15.0675
1093,268843,0.748836,0.048068,-0.6319600000000001,1.435,-4.165,9.6775
1094,268940,0.74298,0.07027201,-0.6344,-0.805,8.155,5.1625
1095,269037,0.724436,0.08003201,-0.6634359999999999,-2.38,18.585,3.29
1096,269134,0.728096,0.0488,-0.659288,-3.815,25.9,2.3975
1097,269232,0.71004,0.07490801,-0.6851520999999999,-6.1075,32.8825,0.4025
1098,269329,0.70638,0.122976,-0.744688,-7.5775,40.88,-0.175
1099,269426,0.7078439999999999,0.10492,-0.777384,-4.0075,54.0925,2.135
1100,269523,0.650992,0.061975999999999996,-0.71492,-2.6425,71.8025,4.655
1101,269620,0.72346,0.076616,-0.7476161,-9.695,95.1825,4.8125
1102,269717,0.709064,0.08954801,-0.7610359999999999,-6.58,120.155,7.105
1103,269814,0.755424,0.10614000000000001,-0.778116,-8.2425,146.8075,8.75
1104,269911,0.781776,0.09540401,-0.776896,-7.4025,172.795,13.4925
1105,270008,0.805688,0.128344,-0.8108121,-7.49,200.3925,21.07
1106,270105,0.8810841,0.13176,-0.799588,-4.2,231.7875,33.9675
1107,270203,0.9259799999999999,0.151524,-0.820572,-2.4325,264.0225,50.5575
1108,270300,1.0687200000000001,0.266448,-0.8274040000000001,0.42,303.485,69.475
1109,270397,0.990884,0.26303200000000004,-0.846924,7.4025,366.5375,97.45749
1110,270494,1.321504,0.139324,-0.898652,29.5575,462.63,134.5925
1111,270591,0.844972,0.18470799999999998,-0.652944,102.3575,560.1575,171.9375
1112,270688,0.9076799999999999,0.43773599999999996,-0.45457200000000003,147.77,573.3875,227.3075
1113,270785,1.7036080000000002,0.25058800000000003,-0.480436,164.0625,573.405,303.065
1114,270882,2.763544,-0.409188,-0.854244,166.6875,573.405,316.3125
1115,270979,2.875784,-0.332816,-0.992592,147.84,547.085,214.13
1116,271076,2.323368,0.065148,-0.257664,123.1475,429.52,88.97
1117,271173,2.662284,0.5382640000000001,-0.513376,106.47,327.95,16.1175
1118,271271,1.3954360000000001,0.67832,-0.9696561,60.0775,135.6425,-33.4425
1119,271368,3.2530080000000003,0.763476,-2.23138,-9.2575,-26.5825,-94.67501
1120,271465,3.3689080000000002,0.7032079999999999,-2.26432,67.7075,97.7025,-98.0175
1121,271562,2.684488,0.8486319999999999,-3.34646,35.8575,149.1875,44.1175
1122,271659,1.979816,0.8142281,-2.8018520000000002,33.845,-38.395,3.43
1123,271756,1.0004,0.643428,-2.445856,25.97,-142.59,-19.7225
1124,271853,0.477996,0.48726800000000003,-1.889536,19.8975,-203.98,-35.42
1125,271950,0.325496,0.36087600000000003,-1.5525719999999998,14.28,-217.1575,-38.8675
1126,272047,0.36941599999999997,0.322324,-1.3449280000000001,6.37,-225.645,-42.3325
1127,272144,0.451888,0.302804,-1.210972,1.2075,-235.865,-46.2875
1128,272242,0.5694961,0.282064,-1.1041,-1.2075,-250.18,-51.8175
1129,272339,0.6756361,0.26156799999999997,-1.0025959999999998,-1.8025,-268.065,-59.01
1130,272436,0.787144,0.235704,-0.9189040999999999,-1.4525,-287.14,-66.71
1131,272533,0.898408,0.193736,-0.8400921,-0.595,-306.3025,-74.83
1132,272630,0.9703879999999999,0.15128,-0.752008,0.105,-325.43,-83.59751
1133,272727,1.000156,0.1037,-0.66368,0.4375,-341.81,-91.805
1134,272824,1.0279719999999999,0.054655999999999996,-0.5941401,1.225,-352.5025,-96.5125
1135,272921,1.066768,-0.004392,-0.561688,2.3975,-357.5775,-96.3375
1136,273018,1.123132,-0.095648,-0.53192,2.03,-356.6675,-91.35
1137,273115,1.181936,-0.18544000000000002,-0.518744,-3.185,-352.0825,-83.055
1138,273213,1.292224,-0.2806,-0.511424,-16.345,-345.1175,-73.97251
1139,273310,1.42618,-0.360632,-0.528016,-38.535,-338.9575,-65.17
1140,273407,1.5645280000000001,-0.364536,-0.547292,-68.1975,-337.1725,-59.2375
1141,273504,1.678232,-0.31646799999999997,-0.5694961,-100.345,-338.8,-55.72
1142,273601,1.8056,-0.258152,-0.58316,-130.2,-340.2175,-54.0925
1143,273698,2.007632,-0.19178399999999998,-0.599996,-156.1,-340.0075,-56.14
1144,273795,2.292136,-0.07417601,-0.6304960000000001,-177.205,-341.95,-62.7725
1145,273892,2.534672,0.09125599999999999,-0.6273241,-187.11,-352.3975,-73.16751
1146,273989,2.716452,0.266692,-0.617564,-182.5775,-367.4825,-82.7225
1147,274086,2.910432,0.363804,-0.49898000000000003,-160.1075,-378.98,-91.63
1148,274184,2.89506,0.3477,-0.246196,-123.9,-384.09,-104.265
1149,274281,2.787944,0.269864,0.142496,-77.4375,-377.615,-114.24
1150,274378,2.654232,0.080276,0.58316,-30.4675,-352.695,-122.255
1151,274475,2.516372,-0.07686,1.0316319999999999,4.48,-313.635,-129.115
1152,274572,2.374852,-0.2501,1.50548,23.9225,-265.2825,-136.115
1153,274669,2.2631,-0.40577199999999997,1.973228,29.6975,-207.235,-144.1125
1154,274766,2.249924,-0.517524,2.362652,27.79,-142.1875,-152.2325
1155,274863,2.407548,-0.557052,2.6044560000000003,24.99,-74.48,-154.0
1156,274960,2.463912,-0.506544,2.643252,29.575,-10.57,-140.8575
1157,275057,2.559316,-0.44773999999999997,2.502952,40.1275,52.1675,-109.515
1158,275154,2.656916,-0.40381999999999996,2.2118599999999997,50.9775,103.6175,-70.8925
1159,275251,2.711816,0.124196,0.5023960999999999,57.9775,154.8225,-29.6975
1160,275348,0.5246,-0.079056,0.09247601,92.3125,170.065,1.715
1161,275446,-0.168848,0.528748,-4.095784,61.67,249.4975,-0.9975
1162,275543,0.291824,-0.277672,-1.674084,55.685,293.755,-15.1725
1163,275640,1.15412,0.09223200000000001,0.7617681,36.365,311.01,11.2175
1164,275737,2.3733880000000003,-0.396012,-0.01098,33.5825,355.6525,16.1175
1165,275834,2.639592,-0.749812,-1.061644,38.08,333.7775,-18.7775
1166,275931,1.9266240000000001,-0.8842561,-0.713212,9.485,261.1175,-42.56
1167,276028,1.464732,-0.8230120999999999,-0.549732,-21.3325,219.8,-36.4525
1168,276125,2.565172,1.865868,-2.382416,-49.805,178.815,-27.16
1169,276222,1.5791680000000001,1.5018200000000002,-0.06954,29.715,79.9225,-42.8575
1170,276319,1.803648,0.46896800000000005,-0.57218,77.805,69.825,-2.7475
1171,276416,1.323212,-0.35233600000000004,-0.605608,74.76,49.6475,29.295
1172,276513,0.9076799999999999,0.559248,-0.555832,27.1775,17.745,52.745
1173,276610,0.9525761,0.299144,-0.6117081,36.8725,17.325,44.45
1174,276708,0.9181720999999999,0.13298,-0.59902,40.32,14.7525,45.815
1175,276805,0.8230120999999999,0.31232,-0.5975560000000001,31.3425,8.5575,40.9675
1176,276902,0.856684,0.31524800000000003,-0.651968,32.9875,7.98,40.3025
1177,276999,0.8488761,0.22496799999999997,-0.6219561,36.365,5.7575,45.675
1178,277096,0.862296,0.10760399999999999,-0.6107319999999999,36.19,2.7825,50.1725
1179,277193,0.8876719999999999,-0.02806,-0.5980439999999999,31.29,-0.385,52.3075
1180,277290,0.7600600000000001,0.058803999999999995,-0.642696,20.7375,-6.3525,48.7375
1181,277387,0.736392,0.14786400000000002,-0.6753920999999999,15.505,-7.945,39.7075
1182,277484,0.790072,0.205204,-0.6675840000000001,13.825,-8.89,33.565
1183,277581,0.686128,0.202276,-0.63562,12.8275,-12.3025,30.625
1184,277678,0.729072,0.16958,-0.531188,14.8575,-14.42,28.28
1185,277775,0.790804,0.22057600000000002,-0.652456,16.66,-19.425,27.3
1186,277873,0.7795801,0.166408,-0.614636,19.6525,-23.8,30.0125
1187,277970,0.77836,0.105896,-0.6156119999999999,18.9175,-26.81,27.8775
1188,278067,0.760304,0.12761199999999998,-0.636352,17.2375,-28.385,24.6575
1189,278164,0.763476,0.127856,-0.6380600000000001,16.03,-28.6825,23.3975
1190,278261,0.763476,0.119072,-0.6441600000000001,14.7,-26.8975,23.065
1191,278358,0.757864,0.09979600000000001,-0.6375721,13.1775,-23.3275,21.875
1192,278455,0.7517640999999999,0.098332,-0.643428,10.605,-20.335,20.3
1193,278552,0.733952,0.082472,-0.650992,8.4175,-17.08,18.725
1194,278649,0.7329760000000001,0.05977999999999999,-0.64172,5.775,-14.2625,15.96
1195,278746,0.729316,0.09589201,-0.641964,2.7475,-11.235,12.705
1196,278843,0.7239479999999999,0.14688800000000002,-0.664412,0.2975,-9.5025,11.48
1197,278940,0.7327321,0.146644,-0.6563601,-0.1575,-7.14,12.1975
1198,279038,0.72346,0.178608,-0.664412,-0.49,-5.8975,14.035
1199,279135,0.728096,0.163724,-0.6724640000000001,-0.245,-4.6725,15.8375
1200,279232,0.749568,0.11955999999999999,-0.656116,-0.5425,-0.5425,16.94
1201,279329,0.763476,0.12566,-0.616588,-6.0375,9.1875,17.7275
1202,279426,0.7503,0.119316,-0.640256,-14.8925,23.87,20.1775
1203,279523,0.744688,0.121024,-0.674416,-21.3325,37.6775,22.75
1204,279620,0.713212,0.157136,-0.734928,-25.7075,56.3325,26.1275
1205,279717,0.634156,0.009028000999999999,-0.7315119999999999,-25.305,85.4,30.905
1206,279814,0.725412,0.027572000000000003,-0.741028,-31.29,121.7825,29.8025
1207,279911,0.6912520000000001,0.007076001,-0.7903161,-36.26,156.1525,28.8575
1208,280008,0.7285841,0.018056,-0.81374,-39.9525,188.0375,26.5125
1209,280106,0.751276,0.010248,-0.815936,-35.42,217.875,24.9025
1210,280203,0.8559521000000001,0.06075601,-0.8459479999999999,-29.68,249.41,26.5825
1211,280300,0.8581479999999999,0.12712400000000001,-0.8427761,-23.905,283.36,35.9975
1212,280397,1.354444,0.404308,-0.9142680000000001,-18.6025,330.47,53.1825
1213,280494,0.8554641,0.415288,-1.057984,-2.5375,416.01,92.71500999999999
1214,280591,1.1477760000000001,0.305976,-0.964776,37.6775,529.515,134.435
1215,280688,0.8044680999999999,0.627568,-0.6824680000000001,80.045,573.3175,172.6025
1216,280785,1.279536,0.621468,-0.931348,75.845,573.405,248.955
1217,280882,2.583472,-0.12395199999999999,-1.02236,80.6225,573.405,306.53
1218,280979,2.830644,-0.36112,-0.599264,86.51999,573.055,248.57
1219,281076,2.74378,-0.304512,-0.008540001,90.58001,528.36,141.085
1220,281174,2.515396,0.208132,-0.47213999999999995,86.11751,382.5675,39.34
1221,281271,1.4398440000000001,0.41723999999999994,-1.09312,47.81,206.955,-39.935
1222,281368,1.212436,1.117276,-2.1596439999999997,-40.495,44.2225,-111.965
1223,281465,4.677968,0.360388,-2.736948,-50.19,186.1125,-249.13
1224,281562,2.4504919999999997,1.056032,-3.464068,-76.265,210.91,-0.5425
1225,281659,2.101572,0.942572,-3.0622,-50.9775,28.0,20.4575
1226,281756,1.448628,0.9113399999999999,-2.715232,-27.86,-154.455,-6.7725
1227,281853,0.49873599999999996,0.648552,-2.045208,0.0175,-251.37,-18.6725
1228,281950,0.12248800000000001,0.43627200000000005,-1.587708,15.225,-279.055,-24.815
1229,282047,0.08466801,0.27816,-1.219268,15.05,-278.11,-28.7875
1230,282144,0.279136,0.229848,-1.030168,4.1475,-272.195,-31.78
1231,282241,0.5553441,0.21228000000000002,-0.948184,-9.0475,-275.9225,-34.055
1232,282339,0.778604,0.237168,-0.891576,-20.615,-289.905,-37.8525
1233,282436,0.9486720999999999,0.265472,-0.8432639999999999,-28.35,-311.7275,-40.8975
1234,282533,1.0406600000000001,0.255712,-0.769088,-32.3925,-335.0725,-44.6775
1235,282630,1.0821399999999999,0.239608,-0.6734399999999999,-34.9125,-354.9525,-51.135
1236,282727,1.101904,0.211548,-0.5648601,-36.89,-369.3025,-58.6425
1237,282824,1.14436,0.18422,-0.47482399999999997,-39.4275,-376.4425,-65.625
1238,282921,1.2221959999999998,0.15274400000000002,-0.422364,-42.49,-378.5075,-71.015
1239,283018,1.355664,0.11028800000000001,-0.44286000000000003,-44.9225,-377.4225,-74.18251
1240,283115,1.510848,0.039528,-0.495076,-46.445,-374.9725,-73.6575
1241,283212,1.633092,-0.063684,-0.525576,-48.8425,-374.8675,-69.125
1242,283309,1.7104400000000002,-0.223016,-0.508984,-56.665,-375.9525,-59.955
1243,283406,1.776564,-0.376248,-0.479704,-76.615,-378.245,-48.9475
1244,283504,1.80072,-0.464088,-0.45164399999999993,-108.6925,-381.255,-38.6575
1245,283601,1.836588,-0.452376,-0.43066000000000004,-146.86,-380.9575,-30.625
1246,283698,1.9002720000000002,-0.340868,-0.444568,-181.7375,-376.2675,-25.97
1247,283795,2.013976,-0.192028,-0.47458,-204.855,-367.1325,-25.0075
1248,283892,2.1472,-0.05002,-0.488976,-213.1325,-355.2675,-30.9225
1249,283989,2.30702,0.039284,-0.47092,-207.235,-342.1775,-45.8325
1250,284086,2.4087680000000002,0.08369201,-0.359168,-191.065,-327.5475,-71.435
1251,284183,2.51198,0.10418800000000002,-0.199348,-167.7725,-312.4275,-102.7075
1252,284280,2.5439439999999998,0.08906,0.064172,-135.3625,-298.165,-133.0875
1253,284377,2.507832,0.0549,0.409188,-94.72751,-278.6,-160.5275
1254,284474,2.364116,-0.086864,0.8525360000000001,-46.935,-248.22,-181.685
1255,284571,2.2945759999999997,-0.310368,1.31516,0.7,-202.5275,-198.275
1256,284669,2.33264,-0.558028,1.82512,41.1425,-146.7025,-211.7675
1257,284766,2.46074,-0.747128,2.276764,70.07,-86.9575,-217.4025
1258,284863,2.508076,-0.8713241,2.5183240000000002,90.21251,-25.83,-208.53
1259,284960,2.4744040000000003,-0.8857200999999999,2.4490279999999998,104.1425,36.5925,-186.025
1260,285057,2.528572,-0.8540000000000001,2.106452,114.555,96.46,-150.8325
1261,285154,3.4748040000000002,-0.935008,1.303936,114.7125,146.23,-107.0825
1262,285251,1.4130040000000001,-0.5887720000000001,0.130296,114.415,190.96,-45.36
1263,285348,0.330376,-0.6109760000000001,-2.689124,83.0025,212.7475,-37.9925
1264,285445,-0.292312,-0.749568,-2.78404,45.22,269.605,3.9025
1265,285542,0.698328,-0.907436,0.406748,5.3025,283.1675,54.4075
1266,285639,2.010316,-0.41894799999999993,0.054167999999999994,-12.215,320.8625,111.0025
1267,285736,2.626416,0.038064,-1.0248,-27.0725,318.885,95.97
1268,285834,1.934188,0.28157600000000005,-0.414312,-35.6475,261.45,35.3675
1269,285931,1.702632,0.25424800000000003,-0.744688,-23.8175,228.4275,-9.0475
1270,286028,1.176568,-0.0732,-0.7686,-15.26,202.0375,-34.9125
1271,286125,2.571272,1.590392,-1.890756,-9.5375,168.595,-54.0225
1272,286222,1.661884,0.6326921,-0.17812,66.57,90.7375,-57.68
1273,286319,1.7690000000000001,0.212524,-0.6021920000000001,75.005,63.1575,-20.37
1274,286416,1.204628,0.01342,-0.5463161,52.185,37.1175,1.1375
1275,286513,0.9720960999999999,0.430904,-0.5565640000000001,19.74,20.37,18.06
1276,286610,1.007232,0.22423600000000002,-0.599264,24.395,17.9375,14.9975
1277,286707,0.9006040999999999,0.24326799999999998,-0.599508,20.8075,13.16,14.7
1278,286804,0.789828,0.34892,-0.5826720000000001,16.0125,9.8175,13.4225
1279,286902,0.8042239999999999,0.378932,-0.592188,19.9675,10.3425,17.85
1280,286999,0.7991,0.35087199999999996,-0.594384,26.6,10.9025,26.2675
1281,287096,0.803492,0.265472,-0.608536,31.745,10.5875,33.3025
1282,287193,0.814472,0.16348,-0.606584,32.6025,9.5725,35.5425
1283,287290,0.815448,0.16128399999999998,-0.5692520000000001,29.1375,7.315,35.6825
1284,287387,0.811056,0.174704,-0.580476,24.8325,4.725,36.5925
1285,287484,0.787388,0.14274,-0.599264,22.5225,1.8025,38.57
1286,287581,0.79666,0.128588,-0.6231760999999999,20.7375,-2.3275,41.3875
1287,287678,0.708332,0.074664,-0.5736441,19.145,-7.8925,42.3675
1288,287775,0.80642,0.13908,-0.62708,16.205,-10.99,40.285
1289,287872,0.7788480999999999,0.16348,-0.629764,15.435,-13.37,36.4
1290,287970,0.779824,0.217648,-0.628544,14.665,-16.2575,33.8275
1291,288067,0.769576,0.165432,-0.5543680000000001,17.08,-18.9,33.2325
1292,288164,0.8076399999999999,0.14518,-0.6290319999999999,18.095,-19.8975,32.97
1293,288261,0.783972,0.081496,-0.604876,18.48,-19.3025,33.8975
1294,288358,0.70638,0.166652,-0.6600201,13.265,-21.28,32.585
1295,288455,0.726144,0.214232,-0.652456,11.585,-24.29,30.59
1296,288552,0.7754321,0.17446,-0.619516,12.6175,-23.5025,30.8
1297,288649,0.750788,0.132492,-0.620004,11.8825,-23.065,33.25
1298,288746,0.72224,0.123708,-0.646112,9.765,-22.7675,33.5125
1299,288844,0.710284,0.16689600000000002,-0.671976,7.7,-22.6975,32.0775
1300,288941,0.69784,0.160308,-0.6563601,7.91,-21.5775,30.0825
1301,289038,0.73932,0.1525,-0.6729520999999999,7.4725,-21.35,28.8225
1302,289135,0.738588,0.164212,-0.6688041,6.5625,-20.9825,28.28
1303,289232,0.74664,0.148108,-0.665632,4.62,-19.6875,27.9825
1304,289329,0.790072,0.130296,-0.61488,2.5725,-11.7075,26.81
1305,289426,0.8020281,0.10126,-0.556076,-5.4425,3.4825,25.1125
1306,289523,0.7600600000000001,0.06466001,-0.626836,-16.45,26.9675,26.46
1307,289620,0.752496,0.10126,-0.7034521,-28.175,47.8975,29.015
1308,289717,0.6973520000000001,0.042456,-0.8652241,-32.2525,75.0925,34.5975
1309,289815,0.668072,0.004636001,-0.792512,-31.745,109.2175,36.4
1310,289912,0.67832,-0.028304000000000003,-0.7869,-36.12,144.97,30.975
1311,290009,0.66856,-0.027572000000000003,-0.8701040000000001,-35.56,178.0625,24.535
1312,290106,0.7190681,-0.018544,-0.8552200000000001,-28.5075,213.36,17.5875
1313,290203,0.8235001000000001,0.040504000000000005,-0.8420440999999999,-22.1025,249.935,16.03
1314,290300,0.8610761,0.114436,-0.8757159999999999,-19.6875,289.0125,24.3775
1315,290397,1.187548,0.331596,-0.951356,-16.6075,339.85,41.4925
1316,290494,0.91622,0.42065600000000003,-1.069452,-3.745,426.16,78.3825
1317,290591,1.306132,0.380396,-0.9301280000000001,37.94,535.675,125.615
1318,290688,0.7861680999999999,0.72468,-0.7468840999999999,95.6025,573.3,173.88
1319,290785,1.2019440000000001,0.6405,-0.8671761,92.1375,573.405,255.6925
1320,290883,2.633004,-0.208864,-0.9006040999999999,85.85501,573.405,309.295
1321,290980,2.915068,-0.407236,-0.462868,84.6475,571.55,244.6675
1322,291077,2.62544,-0.27938,-0.10492,91.7175,505.9425,135.38
1323,291174,2.717184,0.5231359999999999,-0.5577840000000001,87.1325,363.615,31.6575
1324,291271,1.534516,0.525576,-1.2719719999999999,51.345,174.79,-32.2875
1325,291368,2.607628,0.8432639999999999,-1.8356119999999998,-24.115,21.5775,-111.9125
1326,291465,3.9242519999999996,0.641232,-2.36314,4.095,163.5725,-151.6025
1327,291562,2.7593959999999997,0.925736,-3.366712,-17.43,189.245,52.01
1328,291659,1.9007599999999998,0.8669319999999999,-2.910432,-10.045,-13.8425,21.77
1329,291756,1.019676,0.72224,-2.589816,-5.005,-148.12,-0.6125
1330,291853,0.28181999999999996,0.5099600000000001,-1.9254040000000001,-0.455,-230.65,-20.8075
1331,291950,0.081984,0.349896,-1.545008,-3.535,-245.0875,-26.74
1332,292048,0.133956,0.23838800000000002,-1.277584,-14.1225,-246.2775,-32.4275
1333,292145,0.35038400000000003,0.198372,-1.1350879999999999,-28.2975,-247.135,-40.635
1334,292242,0.601216,0.20984,-1.04798,-42.3325,-259.385,-48.9125
1335,292339,0.7707961,0.235704,-0.9767321,-50.6625,-281.4,-53.97
1336,292436,0.8813280000000001,0.22277199999999997,-0.8962120000000001,-52.4475,-306.0925,-55.055
1337,292533,0.9476959999999999,0.173484,-0.7944641,-50.6975,-327.6525,-55.1075
1338,292630,0.9955200000000001,0.113704,-0.696376,-48.93,-344.54,-55.9125
1339,292727,1.047248,0.014884,-0.5846241,-50.26,-355.3025,-57.015
1340,292824,1.0919,-0.068564,-0.48531599999999997,-57.505,-361.1825,-59.7275
1341,292921,1.146556,-0.12444000000000001,-0.43724799999999997,-70.455,-363.6675,-62.37
1342,293018,1.244156,-0.165432,-0.452132,-85.34751,-361.4275,-62.3525
1343,293116,1.36762,-0.21716,-0.49166000000000004,-99.82,-356.265,-59.8325
1344,293213,1.4774200000000002,-0.285724,-0.509472,-114.485,-349.825,-56.4025
1345,293310,1.596004,-0.348188,-0.493856,-132.7025,-344.6275,-54.215
1346,293407,1.718492,-0.3477,-0.4697,-154.8225,-342.8075,-51.4325
1347,293504,1.802672,-0.27694,-0.43651599999999996,-178.64,-343.7875,-48.7375
1348,293601,1.848544,-0.172264,-0.425048,-199.2725,-343.315,-49.14
1349,293698,1.9075919999999997,-0.044652,-0.462624,-213.36,-337.4875,-55.685
1350,293795,2.0498439999999998,0.109556,-0.5233800000000001,-219.9925,-329.3675,-69.545
1351,293892,2.2845720000000003,0.24058400000000002,-0.579012,-217.245,-324.905,-89.18
1352,293989,2.571516,0.288652,-0.555588,-201.3375,-323.89,-115.3775
1353,294086,2.6764360000000003,0.331596,-0.435784,-173.95,-327.0575,-148.6625
1354,294184,2.787456,0.243024,-0.204228,-133.035,-329.245,-177.6075
1355,294281,2.840648,0.034892,-0.028548,-83.545,-322.5075,-198.5025
1356,294378,2.41072,-0.35014,0.778604,-30.52,-303.5725,-212.8525
1357,294475,2.532232,-0.462136,1.098244,-11.025,-260.3475,-236.915
1358,294572,2.68644,-0.548024,1.459608,22.8025,-214.2875,-250.11
1359,294669,2.725724,-0.631228,2.007876,50.19,-164.8325,-243.11
1360,294766,2.585424,-0.859856,2.538576,76.09000999999999,-104.2125,-212.17
1361,294863,2.626416,-1.062132,2.660088,88.76,-34.1075,-171.955
1362,294960,2.285792,-1.1892559999999999,2.7206,91.0175,46.9525,-122.85
1363,295057,2.428532,-0.794952,2.35826,73.16751,131.075,-89.1625
1364,295154,1.00406,-0.16689600000000002,1.315404,100.87,240.1525,-39.48
1365,295251,1.3022280000000002,-0.721264,-2.769644,142.0825,329.0525,28.2275
1366,295349,1.16632,-0.744688,-1.984696,106.1725,333.8125,77.0525
1367,295446,1.533052,-0.748836,0.462624,75.1975,306.88,97.8075
1368,295543,2.4390240000000003,-0.5875520000000001,-0.301584,53.27,320.285,66.5525
1369,295640,2.552972,-0.641232,-0.9684360999999999,33.1275,288.4,13.8425
1370,295737,1.760216,-0.591212,-0.636108,12.88,220.22,-2.275
1371,295834,1.095804,-0.31890799999999997,-0.5499761,-7.9625,181.9125,-0.7175
1372,295931,1.539884,1.68482,-2.033496,-22.82,160.16,-7.4025
1373,296028,1.753628,1.102148,-0.156648,62.3875,87.46500999999999,-36.295
1374,296125,1.838296,0.07490801,-0.69784,111.265,86.9575,32.0425
1375,296222,1.390312,-0.19959200000000002,-0.565836,78.575,47.5825,49.49
1376,296319,1.002108,0.43724799999999997,-0.5797441,38.99,13.3525,62.6325
1377,296416,1.037,0.129564,-0.634156,44.205,13.2825,42.35
1378,296513,0.9833200000000001,0.04392,-0.573156,35.21,8.0325,35.4025
1379,296610,0.8403360000000001,0.271328,-0.5948720000000001,18.7775,2.6425,25.2
1380,296708,0.8322841000000001,0.271572,-0.624884,18.6725,3.57,23.1
1381,296805,0.8420440999999999,0.22448,-0.622688,22.785,3.395,28.7525
1382,296902,0.8247200000000001,0.17055599999999999,-0.613904,24.2375,1.9075,32.69
1383,296999,0.794708,0.14347200000000002,-0.650748,23.835,-0.14,34.125
1384,297096,0.781776,0.11736400000000001,-0.610244,22.3475,-2.03,33.7575
1385,297193,0.791292,0.17738800000000002,-0.6097560000000001,19.5825,-3.71,32.83
1386,297290,0.7869,0.183488,-0.6075600999999999,18.655,-5.7925,32.48
1387,297387,0.784704,0.12712400000000001,-0.576084,19.1625,-7.56,32.4275
1388,297484,0.873276,0.156648,-0.630984,17.8675,-8.995,29.4875
1389,297581,0.782508,0.202764,-0.621712,15.575,-13.86,27.0725
1390,297678,0.803492,0.19032000000000002,-0.6095119999999999,15.82,-16.205,27.8775
1391,297775,0.768844,0.183976,-0.624884,16.1525,-21.175,29.2425
1392,297873,0.7539600000000001,0.20788800000000002,-0.663192,15.4875,-25.48,30.485
1393,297970,0.758352,0.131272,-0.625372,17.15,-27.23,32.445
1394,298067,0.7793359999999999,0.09223200000000001,-0.604632,16.5025,-25.7425,32.7075
1395,298164,0.762744,0.099552,-0.611952,13.895,-24.15,30.695
1396,298261,0.748592,0.09930800000000001,-0.6392800000000001,10.745,-23.7475,28.4375
1397,298358,0.7427361,0.106628,-0.6329359999999999,9.6075,-22.6275,27.2125
1398,298455,0.732244,0.08881599,-0.6392800000000001,7.8575,-21.0875,26.3375
1399,298552,0.732244,0.09735601,-0.6539201,6.0025,-19.705,25.0775
1400,298649,0.7176041,0.10492,-0.659044,4.235,-18.1475,24.255
1401,298746,0.741028,0.127368,-0.611952,0.8400001,-16.0475,24.7975
1402,298843,0.772992,0.151036,-0.6280560000000001,-5.845,-10.7975,26.67
1403,298940,0.796416,0.10638399999999999,-0.5594920999999999,-10.6925,-2.065,29.68
1404,299038,0.785924,0.09930800000000001,-0.5948720000000001,-18.235,12.635,32.8825
1405,299135,0.772992,0.15006,-0.64904,-28.3675,24.1675,36.7675
1406,299232,0.743468,0.13761600000000002,-0.688812,-32.375,38.5525,43.085
1407,299329,0.7156520000000001,0.023668,-0.7707961,-33.2325,59.08,48.23
1408,299426,0.70028,0.08174001,-0.7771399999999999,-36.3475,85.96,48.7375
1409,299523,0.691496,0.01952,-0.759084,-37.6075,115.5,47.145
1410,299620,0.654408,-0.029524,-0.828624,-34.0375,142.17,43.9425
1411,299717,0.664168,-0.040016,-0.8676640999999999,-25.795,169.82,36.505
1412,299814,0.7034521,-0.072712,-0.8613200000000001,-14.35,200.655,29.61
1413,299911,0.8149601,-0.037576,-0.8210601000000001,-6.5975,236.6175,26.285
1414,300008,0.9894200000000001,0.098088,-0.85156,-6.755,275.625,29.4875
1415,300105,1.0025959999999998,0.24326799999999998,-0.942084,-5.4775,327.425,45.1325
1416,300202,1.4010479999999998,0.499468,-1.0086959999999998,15.05,413.245,75.565
1417,300299,1.1150799999999998,0.366976,-1.075308,61.6,527.0125,124.7925
1418,300397,0.749812,0.644892,-0.7227279999999999,119.245,573.125,177.3625
1419,300494,1.0121120000000001,0.595604,-0.60146,122.745,573.405,265.4575
1420,300591,2.554924,-0.08344800000000001,-0.742004,108.22,573.405,326.445
1421,300688,3.347924,-0.484096,-0.572912,104.5975,570.885,272.825
1422,300785,2.5405279999999997,-0.378688,-0.158356,99.27750999999999,500.535,146.3175
1423,300882,3.05366,0.528992,-0.37942,82.6525,377.0375,39.48
1424,300979,1.8587919999999998,0.5799880000000001,-0.957944,41.6675,181.615,-26.53
1425,301076,2.030568,1.044564,-2.0520400000000003,-60.5675,-37.695,-116.6375
1426,301173,4.448852,0.8081281,-2.084736,-33.04,163.87,-194.18
1427,301270,2.53272,1.091412,-3.6778120000000003,-32.235,160.93,68.5125
1428,301367,1.820728,0.9862479999999999,-2.942152,-23.905,-31.7975,29.0325
1429,301464,0.9323239999999999,0.7951961,-2.469036,-19.74,-165.76,1.3475
1430,301562,0.18666,0.634644,-1.8282919999999998,-6.405,-231.245,-13.09
1431,301659,0.06124401,0.464088,-1.466684,-0.49,-236.46,-21.945
1432,301756,0.07612801,0.361608,-1.198528,-3.6225,-235.3925,-30.2225
1433,301853,0.353556,0.338428,-1.107272,-12.74,-235.8125,-39.655
1434,301950,0.597068,0.345748,-1.0309,-20.86,-249.8125,-48.6325
1435,302047,0.725412,0.345748,-0.949892,-24.9025,-272.5625,-55.685
1436,302144,0.8081281,0.31646799999999997,-0.8508280999999999,-24.78,-296.415,-61.5125
1437,302241,0.8757159999999999,0.27205999999999997,-0.7500560000000001,-23.5375,-316.47,-68.005
1438,302338,0.936472,0.225944,-0.655628,-22.68,-331.695,-74.5325
1439,302435,0.9894200000000001,0.180316,-0.5653481,-22.5575,-342.2475,-79.9575
1440,302532,1.044076,0.15006,-0.50264,-23.87,-348.1275,-84.5775
1441,302629,1.11264,0.11760799999999999,-0.466528,-26.425,-349.86,-87.0275
1442,302726,1.2139,0.077348,-0.485072,-30.4675,-347.76,-86.765
1443,302823,1.330532,-0.001464,-0.513376,-36.75,-343.1225,-85.5925
1444,302921,1.444236,-0.09613601,-0.5119121,-47.7225,-337.715,-85.78501
1445,303018,1.543056,-0.17324,-0.492392,-65.45,-333.9,-85.4525
1446,303115,1.65432,-0.204716,-0.49141599999999996,-88.4275,-332.2725,-82.495
1447,303212,1.7992560000000002,-0.179096,-0.49044,-114.2575,-332.57,-77.56
1448,303309,1.873676,-0.108824,-0.5043479999999999,-139.7375,-336.0,-73.2025
1449,303406,1.9593200000000002,-0.020496,-0.537288,-159.74,-336.77,-74.4275
1450,303503,2.1716,0.034892,-0.60512,-172.48,-333.2175,-83.0375
1451,303600,2.502464,0.06832001,-0.637084,-179.235,-330.89,-99.17251
1452,303697,2.669848,0.161772,-0.5897479999999999,-179.6725,-338.7125,-121.0825
1453,303794,2.88896,0.194468,-0.513864,-166.0575,-350.2275,-143.885
1454,303891,2.8979880000000002,0.133224,-0.232044,-137.8125,-358.7675,-165.34
1455,303988,2.809416,-0.0244,0.180316,-100.1175,-353.7275,-184.765
1456,304085,2.533696,-0.249856,0.769576,-61.4425,-331.2225,-198.7475
1457,304182,2.3197080000000003,-0.49141599999999996,1.299544,-30.5025,-282.1175,-206.36
1458,304280,2.398764,-0.6258600000000001,1.7048279999999998,-9.135,-215.915,-208.8625
1459,304377,2.677168,-0.734196,2.116212,7.7525,-150.605,-202.5625
1460,304474,2.857728,-0.9042641,2.46928,21.5075,-94.85,-186.795
1461,304571,2.696932,-1.059204,2.6825360000000003,33.3025,-45.5175,-163.1875
1462,304668,2.176724,-1.019188,2.6839999999999997,43.8375,7.8225,-136.6925
1463,304765,2.140612,-0.86498,2.34728,58.4675,80.395,-99.925
1464,304862,2.800632,-0.515572,1.404952,67.34000999999999,147.4375,-57.9425
1465,304959,1.794132,-0.24131599999999997,-0.202032,94.43,191.6075,3.5875
1466,305056,-0.460672,0.155428,-3.0563439999999997,77.1225,196.91,7.6825
1467,305153,0.050508,0.144204,-2.830644,54.81,252.9275,22.435
1468,305250,0.680028,-0.6156119999999999,0.81618,73.675,271.845,101.3425
1469,305347,2.5100279999999997,-0.474092,0.07222401,44.2575,320.8625,125.3175
1470,305444,2.826252,-0.424072,-1.081896,25.9875,303.6425,73.255
1471,305541,1.9883560000000002,-0.45432799999999995,-0.6512359999999999,12.6175,229.775,25.9525
1472,305639,1.3847,-0.31890799999999997,-0.641964,-4.0075,189.805,3.185
1473,305736,1.084824,0.013663999999999999,-0.7320001,-23.7125,170.8175,-8.9425
1474,305833,2.442684,2.013732,-1.3468799999999999,-12.0925,135.625,-28.6125
1475,305930,1.402512,0.45579200000000003,0.099552,78.8025,77.14,-25.48
1476,306027,1.741916,-0.035136,-0.692472,74.04251,71.645,10.325
1477,306124,0.9254921,0.275476,-0.6124400999999999,47.3725,37.3625,36.19
1478,306221,1.0279719999999999,0.371856,-0.5875520000000001,29.785,22.645,28.1225
1479,306318,1.026508,0.154452,-0.611952,36.5225,17.955,24.85
1480,306415,0.8967,0.24888000000000002,-0.586332,27.16,9.555,21.6475
1481,306512,0.8042239999999999,0.32403200000000004,-0.5934081,22.5925,6.7025,19.075
1482,306609,0.8052,0.326472,-0.6009720000000001,25.06,7.2275,22.085
1483,306706,0.782752,0.284504,-0.604144,28.735,6.9475,26.565
1484,306803,0.7869,0.211304,-0.636352,30.6075,6.755,29.96
1485,306901,0.794952,0.13542,-0.610488,28.84,5.425,31.71
1486,306998,0.796904,0.156404,-0.604876,23.8175,2.1875,32.0775
1487,307095,0.762988,0.185928,-0.620492,21.0,0.2975,32.62
1488,307192,0.772992,0.134444,-0.659532,23.135,-0.7525,35.1575
1489,307289,0.6917399999999999,0.13761600000000002,-0.575596,24.0275,-2.8175,36.925
1490,307386,0.8315520000000001,0.21447600000000003,-0.614636,21.595,-5.95,36.68
1491,307483,0.790804,0.239608,-0.602436,21.5775,-12.67,37.31
1492,307580,0.8039801,0.22204000000000002,-0.612928,22.645,-18.1125,39.1475
1493,307677,0.778604,0.19764,-0.60878,25.1125,-24.3775,42.5075
1494,307774,0.7829961,0.174948,-0.645868,25.13,-26.88,44.24
1495,307871,0.802272,0.066856,-0.5978,24.045,-22.54,43.0325
1496,307968,0.788608,0.09735601,-0.61732,17.29,-17.36,37.24
1497,308066,0.7639640999999999,0.110776,-0.623664,13.545,-12.495,31.9025
1498,308163,0.768844,0.09320801,-0.634644,11.515,-7.6125,28.1575
1499,308260,0.7666480999999999,0.101748,-0.620004,9.03,-4.06,24.325
1500,308357,0.762988,0.09320801,-0.608536,6.2475,-0.8225,20.8775
1501,308454,0.7707961,0.119072,-0.61,2.87,2.0475,18.8475
1502,308551,0.79666,0.147376,-0.619516,-0.56,3.4475,18.97
1503,308648,0.78446,0.179828,-0.6202479999999999,-4.2875,3.1325,22.295
1504,308745,0.8047121,0.187392,-0.601704,-8.715,2.415,29.12
1505,308842,0.793976,0.174216,-0.5885281,-16.8875,0.77,37.625
1506,308939,0.77836,0.1769,-0.61488,-26.9675,2.905,45.85
1507,309036,0.797636,0.116388,-0.582428,-33.8275,11.305,50.925
1508,309134,0.7183361,0.07612801,-0.724436,-41.09,31.9375,53.41
1509,309231,0.709064,0.092964,-0.743224,-43.5225,61.74,52.8675
1510,309328,0.7041841,0.022692,-0.69784,-42.9975,92.75001,49.9275
1511,309425,0.670024,0.009272001,-0.775676,-43.2775,119.7175,44.38
1512,309522,0.6527,-0.015128,-0.83204,-36.4175,146.2825,34.93
1513,309619,0.6958880000000001,-0.052948,-0.8042239999999999,-23.52,174.335,24.71
1514,309716,0.780556,-0.05587601,-0.758352,-15.26,203.42,17.22
1515,309813,0.886452,0.031232,-0.752008,-15.54,234.4125,15.4875
1516,309910,1.0230920000000001,0.167628,-0.8044680999999999,-19.215,270.69,22.225
1517,310007,1.045296,0.279624,-0.918416,-12.6175,325.1675,40.18
1518,310104,1.22854,0.35477600000000004,-0.98088,17.08,419.79,72.275
1519,310201,1.016748,0.49117200000000005,-0.957944,58.5025,537.145,114.2575
1520,310298,0.654408,0.647576,-0.6258600000000001,68.3375,573.3525,160.4225
1521,310395,1.05164,0.486292,-0.7329760000000001,31.36,573.405,229.5125
1522,310492,2.27774,-0.13908,-0.536556,14.91,573.405,267.05
1523,310590,3.090748,-0.532896,-0.304268,25.935,572.215,228.3575
1524,310687,2.6937599999999997,-0.4331,-0.07222401,49.0525,514.01,131.425
1525,310784,2.816248,0.3843,0.022448,63.1225,415.6075,38.08
1526,310881,2.29604,0.457744,-0.647332,61.6875,242.0425,-7.8925
1527,310978,1.544276,1.152412,-2.3319080000000003,5.145,26.7925,-65.065
1528,311075,4.4347,-0.453596,-1.9807919999999999,-25.48,64.61,-206.675
1529,311172,2.0557,1.1714440000000002,-2.350696,-70.6125,263.1825,-16.9225
1530,311269,2.905552,1.1385040000000002,-2.5500439999999998,-13.405,155.4525,67.865
1531,311366,1.9354080000000002,1.251232,-2.734264,6.7725,-69.3525,3.7975
1532,311463,0.8866961,0.9006040999999999,-2.233088,46.06,-174.755,-17.815
1533,311561,0.331108,0.563396,-1.6409,69.3875,-242.62,-32.095
1534,311658,0.179828,0.33305999999999997,-1.3163799999999999,74.27,-244.51,-40.285
1535,311755,0.278404,0.168604,-1.134844,64.6625,-240.0125,-48.3525
1536,311852,0.46457600000000004,0.09516001,-1.044808,45.9025,-241.115,-56.5075
1537,311949,0.678808,0.09613601,-1.0004,26.5125,-256.7425,-60.9875
1538,312046,0.7983680000000001,0.086132,-0.925736,11.1475,-280.7875,-58.94
1539,312143,0.8698601,0.067588,-0.820084,0.3325,-308.07,-51.905
1540,312240,0.9037761000000001,0.03538,-0.681248,-9.0825,-331.975,-43.1375
1541,312337,0.9010921000000001,-0.019275999999999998,-0.560956,-19.7225,-349.51,-36.1725
1542,312434,0.9740479999999999,-0.035136,-0.479704,-33.0925,-359.7825,-33.215
1543,312531,1.0321200000000001,-0.046604,-0.401136,-48.0025,-365.47,-30.625
1544,312628,1.106784,-0.051972000000000004,-0.36844,-63.9275,-368.1125,-27.3
1545,312726,1.202676,-0.039284,-0.36844,-80.22,-368.655,-24.3425
1546,312823,1.323212,-0.038064,-0.38503200000000004,-96.3725,-367.7625,-21.805
1547,312920,1.454972,-0.047336,-0.39479200000000003,-112.805,-366.625,-21.77
1548,313017,1.5730680000000001,-0.06270801,-0.38356799999999996,-132.0725,-365.505,-25.7425
1549,313114,1.69458,-0.032208,-0.36941599999999997,-153.79,-364.2975,-32.62
1550,313211,1.803404,0.040992,-0.363316,-174.615,-365.1025,-41.7375
1551,313308,1.885144,0.115168,-0.362584,-190.785,-364.945,-53.515
1552,313405,1.969812,0.248392,-0.4023561,-199.3075,-361.0425,-67.9525
1553,313502,2.14964,0.343308,-0.45261999999999997,-197.1725,-353.3775,-83.59751
1554,313599,2.413404,0.41455600000000004,-0.493612,-184.0125,-344.0675,-102.8825
1555,313696,2.7069360000000002,0.451888,-0.47604399999999997,-161.1225,-337.505,-127.295
1556,313794,2.798924,0.42138809999999993,-0.298412,-129.675,-334.39,-156.275
1557,313891,2.93898,0.318664,-0.05929201,-90.1775,-329.665,-186.2175
1558,313988,2.948252,0.116632,0.298656,-47.5125,-322.385,-215.18
1559,314085,2.881152,-0.07686,0.711992,-6.3875,-307.72,-238.945
1560,314182,2.81088,-0.33623200000000003,1.15656,29.82,-281.155,-253.1025
1561,314279,2.76452,-0.562176,1.683112,57.82,-244.5975,-256.55
1562,314376,2.623488,-0.9230520000000001,2.339716,74.1475,-194.8625,-243.6525
1563,314473,2.4512240000000003,-1.337364,2.964356,73.57,-129.92,-216.5275
1564,314570,2.275788,-1.515484,3.1756599999999997,52.15,-51.625,-182.5075
1565,314667,2.317024,-1.301984,2.8365,28.2625,32.97,-141.89
1566,314764,3.097824,-0.815692,1.699216,22.4525,110.7925,-86.9225
1567,314861,1.7143439999999999,-0.28938400000000003,0.5743761,80.3775,186.7075,2.3975
1568,314958,0.125172,-0.683932,-2.551996,100.415,220.2025,39.4975
1569,315056,0.1342,-0.49117200000000005,-3.5211639999999997,58.8175,267.6625,62.7025
1570,315153,0.486048,-0.815204,0.58072,25.2875,265.9475,96.79251
1571,315250,1.827072,-0.392352,0.38918,0.5775,314.195,134.61
1572,315347,2.8408919999999998,0.020008,-1.0321200000000001,-20.1425,328.0725,92.085
1573,315444,2.0464279999999997,0.044896,-0.519476,-23.1175,260.9425,24.7275
1574,315541,1.642364,-0.10223600000000001,-0.664412,-14.945,219.205,-7.525
1575,315638,1.142896,-0.132492,-0.7327321,-19.32,194.04,-19.705
1576,315735,2.43024,2.1352439999999997,-1.190232,0.455,140.805,-49.665
1577,315832,1.499868,0.557296,0.16689600000000002,89.93251,85.7325,-35.455
1578,315929,1.932236,-0.023180000000000003,-0.6378159999999999,78.5925,72.625,3.5525
1579,316026,0.9894200000000001,0.348188,-0.589504,49.7,35.0525,41.615
1580,316124,0.9867360999999999,0.40211199999999997,-0.5980439999999999,34.1425,18.97,36.8725
1581,316221,0.955016,0.141764,-0.612684,41.9825,19.5125,32.7425
1582,316318,0.883036,0.28426,-0.5607121,31.675,11.4275,28.7175
1583,316415,0.8076399999999999,0.362584,-0.5856,28.7175,9.66,28.455
1584,316512,0.791292,0.354288,-0.5946279999999999,35.8575,10.0975,36.645
1585,316609,0.8210601000000001,0.27718400000000004,-0.625128,43.1725,9.625,46.1825
1586,316706,0.812276,0.149572,-0.644892,45.15,5.7225,51.94
1587,316803,0.7903161,0.114436,-0.643184,41.0375,0.9625,52.5175
1588,316900,0.853024,0.074664,-0.589992,37.03,-0.6475,50.435
1589,316997,0.837408,0.08174001,-0.590968,30.765,-3.6575,45.8325
1590,317094,0.8215481,0.11955999999999999,-0.611952,24.85,-8.4875,42.6825
1591,317192,0.84546,0.152988,-0.624396,21.2975,-12.5125,41.65
1592,317289,0.673928,0.143228,-0.5777920999999999,19.5475,-17.5875,40.8975
1593,317386,0.82594,0.246928,-0.633668,17.5,-16.8175,37.59
1594,317483,0.756156,0.21667199999999998,-0.612928,18.2525,-19.9675,38.0625
1595,317580,0.756888,0.188124,-0.637084,17.36,-21.3325,38.3075
1596,317677,0.7700640999999999,0.14005599999999999,-0.59902,17.5525,-21.5075,38.255
1597,317774,0.8015399999999999,0.15420799999999998,-0.5858439999999999,15.8725,-21.49,37.8875
1598,317871,0.781776,0.11541199999999999,-0.61,14.8225,-22.0325,38.5175
1599,317968,0.7661600000000001,0.0976,-0.616588,13.9475,-22.715,37.905
1600,318065,0.7415161,0.07808001,-0.632448,11.7775,-23.03,35.1225
1601,318163,0.734684,0.067344,-0.6512359999999999,9.3275,-21.77,31.1325
1602,318260,0.7366361,0.096868,-0.641964,7.455,-18.5675,26.6175
1603,318357,0.7278521,0.10345599999999999,-0.6502600000000001,5.3025,-16.8525,24.255
1604,318454,0.752008,0.1281,-0.6527,3.22,-15.785,22.96
1605,318551,0.7093081,0.16958,-0.6573359999999999,-0.4025,-16.8525,23.6075
1606,318648,0.7476161,0.17641199999999999,-0.639524,-3.745,-15.575,27.0025
1607,318745,0.754204,0.130296,-0.630252,-6.8075,-11.1825,30.135
1608,318842,0.8166680000000001,0.09979600000000001,-0.575596,-11.8475,-1.925,31.9025
1609,318939,0.7883640000000001,0.057828,-0.61488,-19.9675,15.2425,33.6875
1610,319036,0.74908,0.091744,-0.674172,-27.4575,29.33,34.8075
1611,319133,0.739564,0.114192,-0.700036,-28.7175,46.4625,36.4
1612,319230,0.676856,-0.006587999999999999,-0.8015399999999999,-26.215,67.8125,37.7825
1613,319327,0.687348,0.041724000000000004,-0.7881199999999999,-24.22,94.255,34.0025
1614,319425,0.656848,-0.018788,-0.7766521,-20.895,122.3075,27.265
1615,319522,0.668316,-0.06075601,-0.7734800000000001,-15.9425,148.6625,20.1425
1616,319619,0.704916,-0.068076,-0.763476,-12.39,176.505,12.8275
1617,319716,0.765184,0.007076001,-0.7832399999999999,-12.5475,207.3575,9.7825
1618,319813,0.8637601,0.07832401,-0.7812880999999999,-12.8975,240.4675,13.37
1619,319910,0.9642879999999999,0.16592,-0.799588,-14.63,277.62,25.2875
1620,320007,0.916952,0.236192,-0.897432,-13.93,327.215,46.6025
1621,320104,1.6570040000000001,0.439688,-0.972828,8.54,408.695,77.63
1622,320201,0.9333,0.41894799999999993,-1.018456,54.46,521.8675,122.1325
1623,320298,0.85034,0.6517241,-0.7451760000000001,91.8925,572.775,172.83
1624,320396,1.184376,0.5846241,-0.7564001,84.8925,573.405,252.595
1625,320493,2.433656,0.036844,-0.761524,79.8,573.405,306.04
1626,320590,2.882616,-0.44334799999999996,-0.43066000000000004,80.08,571.865,266.6125
1627,320687,2.48758,-0.5738880000000001,0.150792,87.78,511.63,165.165
1628,320784,2.6522799999999997,0.36136399999999996,-0.342332,75.775,361.7775,55.2475
1629,320881,1.8275599999999999,0.41016400000000003,-0.8808401,49.735,194.5125,-15.61
1630,320978,1.261968,0.9272,-2.3624080000000003,-46.48,16.835,-90.0375
1631,321075,4.2565800000000005,0.079056,-2.2018560000000003,-37.2925,93.345,-183.33
1632,321172,2.442196,0.9091440000000001,-3.109292,-40.6175,205.205,36.365
1633,321269,1.798036,0.771528,-2.778916,-21.525,35.8925,50.75
1634,321366,1.303204,0.7673800000000001,-2.602016,-6.23,-117.6525,29.9075
1635,321463,0.48385200000000006,0.57828,-1.968348,9.7475,-210.035,9.835
1636,321561,0.057828,0.43724799999999997,-1.560624,13.7375,-246.435,-1.155
1637,321658,-0.07856801,0.2928,-1.2134120000000002,9.45,-250.4075,-6.7375
1638,321755,0.058072000000000006,0.215452,-1.037488,-2.3975,-244.86,-12.5825
1639,321852,0.332328,0.221552,-0.9696561,-18.305,-245.2275,-22.4525
1640,321949,0.583648,0.255468,-0.919392,-32.27,-256.6725,-31.5
1641,322046,0.7439560000000001,0.300608,-0.8701040000000001,-40.145,-277.725,-38.395
1642,322143,0.850096,0.33305999999999997,-0.808372,-41.5275,-301.5775,-43.26
1643,322240,0.9059721,0.321836,-0.72102,-38.4125,-322.49,-47.2325
1644,322337,0.9867360999999999,0.31158800000000003,-0.6439159999999999,-34.405,-337.26,-52.2375
1645,322434,1.1028799999999999,0.30841599999999997,-0.569984,-30.8,-346.2025,-58.0125
1646,322531,1.2219520000000001,0.3111,-0.5104479999999999,-29.2075,-351.75,-64.9075
1647,322628,1.335656,0.292312,-0.465308,-28.98,-354.2175,-70.805
1648,322726,1.438624,0.252784,-0.44237200000000004,-31.92,-353.605,-76.195
1649,322823,1.520608,0.18324400000000002,-0.432856,-40.2675,-349.86,-82.355
1650,322920,1.607228,0.118584,-0.393572,-54.8275,-344.26,-89.25
1651,323017,1.6623720000000002,0.07637200000000001,-0.36575599999999997,-75.28501,-339.0975,-93.6775
1652,323114,1.7216639999999999,0.062464,-0.34526,-99.10251,-333.305,-94.5
1653,323211,1.785104,0.067344,-0.334524,-123.8125,-326.585,-93.6075
1654,323308,1.8473240000000002,0.087108,-0.35697199999999996,-147.9275,-317.87,-93.415
1655,323405,2.006656,0.13785999999999998,-0.44822799999999996,-170.345,-307.3,-97.0375
1656,323502,2.29482,0.195688,-0.539484,-188.5275,-298.3575,-105.7
1657,323599,2.577616,0.296216,-0.5843801,-201.3725,-299.1275,-119.035
1658,323696,2.923852,0.29426399999999997,-0.517524,-206.36,-307.72,-133.0875
1659,323793,2.643984,-0.114436,-0.138836,-201.18,-322.98,-158.095
1660,323890,2.642276,-0.082228,0.10418800000000002,-198.8525,-326.7425,-201.635
1661,323988,2.79502,-0.172508,0.396744,-177.205,-316.995,-233.205
1662,324085,2.596892,-0.28377199999999997,0.8132520999999999,-137.9875,-295.33,-245.0875
1663,324182,2.3140959999999997,-0.485804,1.345904,-88.2,-248.745,-241.08
1664,324279,2.409256,-0.6912520000000001,1.921744,-36.435,-178.7275,-217.805
1665,324376,2.64862,-0.973316,2.529792,6.58,-110.0225,-176.96
1666,324473,2.671068,-1.15046,2.83162,28.7175,-51.6075,-133.4725
1667,324570,2.383636,-1.108004,2.7023,35.7875,3.99,-102.725
1668,324667,2.35948,-0.775188,2.22772,46.34,64.6275,-89.705
1669,324764,2.13378,0.002196,1.345904,76.265,118.3525,-78.715
1670,324861,1.6757919999999997,-0.3355,0.274256,160.93,171.92,-33.3725
1671,324958,-0.8610761,-0.35697199999999996,-2.137928,167.5625,204.925,-19.0925
1672,325055,-0.15176800000000001,-0.03416,-4.3895599999999995,137.69,275.94,-0.5425
1673,325152,0.215696,-1.9703,0.178608,130.27,274.295,71.19
1674,325250,1.9361400000000002,-1.288564,0.660752,74.1475,310.415,142.275
1675,325347,2.608604,-1.0943399999999999,-0.7998321,22.89,318.15,123.6725
1676,325444,1.9807919999999999,-0.472628,-0.6675840000000001,-10.955,255.99,75.46
1677,325541,1.221708,-0.07198,-0.446276,-21.98,214.865,51.415
1678,325638,2.571516,2.553704,-2.087176,-9.94,186.7775,10.7975
1679,325735,1.975668,0.749568,-0.040260000000000004,113.5925,108.4125,-19.215
1680,325832,2.3372759999999997,-0.5165481,-0.9091440000000001,148.4,87.53501,56.4725
1681,325929,1.099952,-0.26156799999999997,-0.543144,75.3725,31.9375,57.89
1682,326026,1.098488,0.26303200000000004,-0.6263479999999999,32.6375,10.045,43.0325
1683,326123,1.0086959999999998,-0.096624,-0.604876,32.1125,16.3975,14.875
1684,326220,0.9179280000000001,0.132004,-0.606584,13.9825,12.04,8.1025
1685,326317,0.898652,0.255956,-0.586332,5.3375,15.96,-1.4875
1686,326414,0.828624,0.37454,-0.613416,4.9,15.3475,1.295
1687,326512,0.795928,0.233752,-0.61,10.29,14.3675,7.2625
1688,326609,0.794708,0.10638399999999999,-0.6307401,11.165,13.9825,8.61
1689,326706,0.769576,0.155672,-0.6292760000000001,6.9825,14.28,4.6725
1690,326803,0.7639640999999999,0.244,-0.6168319999999999,3.7625,14.4375,1.295
1691,326900,0.782752,0.185928,-0.590724,4.3225,15.435,1.295
1692,326997,0.7812880999999999,0.163236,-0.587064,3.22,15.54,-0.14
1693,327094,0.790804,0.200568,-0.5799880000000001,0.5775,14.9275,-3.01
1694,327191,0.81862,0.193492,-0.571204,-0.5425,14.6475,-5.2325
1695,327288,0.777384,0.206668,-0.559248,-1.89,12.8625,-7.7
1696,327385,0.8042239999999999,0.242536,-0.5648601,-2.555,11.48,-9.38
1697,327482,0.803492,0.261812,-0.568032,-1.6975,9.415,-8.9775
1698,327580,0.801296,0.278648,-0.571448,-0.875,7.245,-7.0
1699,327677,0.8039801,0.278648,-0.5724239999999999,0.6475,5.3725,-3.5875
1700,327774,0.793488,0.27205999999999997,-0.5636399999999999,2.2225,3.8675,0.07
1701,327871,0.775188,0.288164,-0.5736441,3.29,1.6275,4.2
1702,327968,0.776896,0.26303200000000004,-0.5612,5.915,-1.2425,10.1675
1703,328065,0.8352120000000001,0.180804,-0.517768,8.0325,-4.1125,15.4
1704,328162,0.801784,0.216428,-0.514108,6.195,-7.595,20.4225
1705,328259,0.7849480999999999,0.252296,-0.566812,7.3325,-13.79,21.875
1706,328356,0.743224,0.23911999999999997,-0.61732,9.975,-19.3725,25.305
1707,328453,0.7478600000000001,0.2257,-0.654652,11.2875,-22.47,29.1375
1708,328550,0.7332201,0.2318,-0.650992,11.6375,-22.82,32.97
1709,328647,0.801784,0.205448,-0.6117081,10.115,-20.405,34.79
1710,328744,0.8003201,0.166164,-0.5887720000000001,8.3825,-16.8175,34.1075
1711,328842,0.7854361,0.174948,-0.574132,5.6,-11.41,31.0975
1712,328939,0.8030041,0.152988,-0.5875520000000001,3.85,-5.3375,28.455
1713,329036,0.79056,0.14469200000000002,-0.564372,1.715,1.1725,25.3575
1714,329133,0.7734800000000001,0.14518,-0.5897479999999999,-0.7875,10.5,22.1725
