,T,ax,ay,az,gx,gy,gz
0,161260,0.665876,-0.26718000000000003,-0.49141599999999996,16.695,-16.625,-18.305
1,161414,0.696132,-0.25522399999999995,-0.576328,78.5225,-33.8975,-126.8925
2,161510,0.734684,-0.292068,-0.60878,42.7,-165.235,-172.1125
3,161606,0.734196,-0.293288,-0.608536,45.0275,-128.065,-57.1725
4,161702,0.734928,-0.291824,-0.607804,3.115,-7.2625,-5.075
5,161799,0.7361481,-0.2928,-0.608536,1.785,-3.465,-3.4125
6,161895,0.7324881,-0.292556,-0.61122,1.75,-3.605,-3.43
7,161991,0.735416,-0.29158,-0.60878,1.645,-3.7275,-3.71
8,162087,0.734684,-0.292312,-0.6117081,1.61,-3.64,-3.78
9,162184,0.734196,-0.293288,-0.610244,1.61,-3.64,-3.6925
10,162280,0.735904,-0.292068,-0.6095119999999999,1.5575,-3.6925,-3.7275
11,162376,0.735904,-0.292556,-0.61,1.5925,-3.7975,-3.8325
12,162472,0.733708,-0.292312,-0.6109760000000001,1.5925,-3.7275,-3.78
13,162569,0.735904,-0.29377600000000004,-0.609024,1.4525,-3.745,-3.7625
14,162665,0.733952,-0.292556,-0.610488,1.5925,-3.9375,-3.78
15,162761,0.733952,-0.291092,-0.611464,1.5925,-3.8325,-3.885
16,162857,0.7317560000000001,-0.289628,-0.6082920999999999,1.575,-3.9375,-3.85
17,162953,0.7329760000000001,-0.28694400000000003,-0.609024,1.575,-3.7625,-3.885
18,163050,0.734928,-0.29036,-0.611952,1.6625,-3.745,-3.7625
19,163146,0.73444,-0.290604,-0.61122,1.7325,-3.675,-3.57
20,163242,0.731268,-0.290116,-0.6082920999999999,1.82,-3.5,-3.5175
21,163339,0.734196,-0.29158,-0.61122,1.96,-3.57,-3.4825
22,163435,0.7366361,-0.293288,-0.6109760000000001,1.995,-3.36,-3.3425
23,163531,0.7324881,-0.2928,-0.611464,2.0125,-3.5,-3.4125
24,163627,0.733708,-0.2928,-0.610488,1.9775,-3.605,-3.4475
25,163723,0.734928,-0.292068,-0.61,1.96,-3.64,-3.57
26,163820,0.73688,-0.291824,-0.609268,1.9075,-3.64,-3.6225
27,163916,0.734684,-0.29402,-0.6117081,1.785,-3.5525,-3.57
28,164012,0.7317560000000001,-0.2928,-0.611952,1.785,-3.6225,-3.5875
29,164108,0.734928,-0.292068,-0.6107319999999999,1.7675,-3.6225,-3.6225
30,164205,0.734196,-0.292068,-0.61,1.785,-3.6575,-3.605
31,164301,0.734928,-0.294508,-0.6095119999999999,1.8025,-3.675,-3.605
32,164397,0.7329760000000001,-0.292556,-0.611464,1.785,-3.64,-3.5525
33,164493,0.7329760000000001,-0.292312,-0.611952,1.715,-3.745,-3.6225
34,164590,0.735416,-0.290848,-0.6107319999999999,1.75,-3.78,-3.6575
35,164686,0.734928,-0.29377600000000004,-0.610244,1.7675,-3.6225,-3.6575
36,164782,0.734684,-0.29402,-0.610488,1.68,-3.64,-3.57
37,164878,0.733708,-0.29133600000000004,-0.6107319999999999,1.715,-3.64,-3.5
38,164975,0.73444,-0.293044,-0.6097560000000001,1.6625,-3.605,-3.605
39,165071,0.733708,-0.291824,-0.6117081,1.715,-3.5875,-3.5525
40,165167,0.733952,-0.292556,-0.6107319999999999,1.7325,-3.605,-3.5525
41,165263,0.7329760000000001,-0.290848,-0.6097560000000001,1.6975,-3.5525,-3.5525
42,165360,0.736392,-0.292556,-0.6082920999999999,1.7675,-3.6575,-3.535
43,165456,0.735416,-0.291092,-0.608536,1.7675,-3.6925,-3.535
44,165552,0.734928,-0.292312,-0.610244,1.715,-3.605,-3.535
45,165648,0.7324881,-0.291824,-0.611952,1.7325,-3.675,-3.5875
46,165744,0.73444,-0.291092,-0.6097560000000001,1.6975,-3.64,-3.5525
47,165841,0.735416,-0.29133600000000004,-0.6097560000000001,1.7325,-3.605,-3.605
48,165937,0.735904,-0.292068,-0.609268,1.7325,-3.6225,-3.465
49,166033,0.7356600000000001,-0.29377600000000004,-0.6097560000000001,1.75,-3.5525,-3.4475
50,166129,0.735172,-0.294752,-0.60878,1.82,-3.675,-3.465
51,166226,0.733464,-0.29377600000000004,-0.6107319999999999,1.7675,-3.6575,-3.5175
52,166322,0.735904,-0.292068,-0.609024,1.7675,-3.64,-3.5875
53,166418,0.735904,-0.293044,-0.609268,1.645,-3.71,-3.605
54,166514,0.73444,-0.29158,-0.609024,1.68,-3.71,-3.57
55,166611,0.735172,-0.292068,-0.6097560000000001,1.68,-3.71,-3.5875
56,166707,0.73688,-0.292556,-0.6097560000000001,1.68,-3.7975,-3.6225
57,166803,0.735904,-0.292556,-0.609268,1.6275,-3.7975,-3.605
58,166899,0.735172,-0.2928,-0.61,1.68,-3.745,-3.6575
59,166996,0.734928,-0.29377600000000004,-0.61,1.68,-3.675,-3.4825
60,167092,0.735172,-0.29402,-0.61,1.68,-3.675,-3.5
61,167188,0.735904,-0.293532,-0.6095119999999999,1.6625,-3.675,-3.4475
62,167284,0.735904,-0.29377600000000004,-0.61,1.6625,-3.6925,-3.465
63,167381,0.7376119999999999,-0.29377600000000004,-0.609024,1.6625,-3.675,-3.5
64,167477,0.735904,-0.292556,-0.608536,1.645,-3.7975,-3.535
65,167573,0.73444,-0.29133600000000004,-0.6080479999999999,1.4875,-3.6575,-3.605
66,167669,0.7356600000000001,-0.293044,-0.608536,1.5575,-3.64,-3.605
67,167765,0.7373681,-0.293532,-0.60878,1.54,-3.71,-3.5875
68,167862,0.735416,-0.2928,-0.607316,1.505,-3.675,-3.605
69,167958,0.7320001,-0.29036,-0.6070720000000001,1.54,-3.71,-3.7275
70,168054,0.7320001,-0.28938400000000003,-0.608536,1.5225,-3.605,-3.6575
71,168150,0.735172,-0.293288,-0.609268,1.575,-3.64,-3.5525
72,168247,0.735172,-0.290848,-0.6082920999999999,1.6275,-3.6575,-3.5175
73,168343,0.733952,-0.2928,-0.6095119999999999,1.5925,-3.675,-3.4125
74,168439,0.735904,-0.292312,-0.6097560000000001,1.7325,-3.675,-3.43
75,168535,0.734928,-0.29133600000000004,-0.60878,1.7325,-3.64,-3.395
76,168632,0.73444,-0.29402,-0.6095119999999999,1.75,-3.675,-3.395
77,168728,0.734196,-0.294996,-0.609268,1.6625,-3.6925,-3.36
78,168824,0.733952,-0.2928,-0.6095119999999999,1.7325,-3.605,-3.395
79,168920,0.733952,-0.292556,-0.609268,1.6975,-3.675,-3.4475
80,169017,0.732244,-0.29402,-0.610488,1.715,-3.745,-3.5175
81,169113,0.733952,-0.293044,-0.6107319999999999,1.6275,-3.7975,-3.57
82,169209,0.735416,-0.293532,-0.609268,1.6275,-3.7625,-3.71
83,169305,0.73444,-0.292556,-0.609024,1.68,-3.815,-3.7275
84,169402,0.7327321,-0.291824,-0.6109760000000001,1.7675,-3.7625,-3.605
85,169498,0.733464,-0.290604,-0.609268,1.75,-3.7275,-3.5875
86,169594,0.733708,-0.291092,-0.6082920999999999,1.75,-3.745,-3.4825
87,169690,0.7329760000000001,-0.29158,-0.609024,1.785,-3.6575,-3.5
88,169787,0.7356600000000001,-0.291824,-0.6082920999999999,1.8025,-3.605,-3.4475
89,169883,0.736392,-0.28938400000000003,-0.60878,1.82,-3.6575,-3.43
90,169979,0.73444,-0.294508,-0.610488,1.82,-3.605,-3.5525
91,170075,0.733952,-0.2928,-0.6080479999999999,1.82,-3.5875,-3.57
92,170172,0.7356600000000001,-0.293532,-0.6080479999999999,1.7675,-3.605,-3.4825
93,170268,0.7366361,-0.293288,-0.6082920999999999,1.68,-3.6225,-3.4125
94,170364,0.7356600000000001,-0.292068,-0.609268,1.6275,-3.64,-3.5875
95,170460,0.73078,-0.29133600000000004,-0.6058520000000001,1.6625,-3.6575,-3.605
96,170556,0.734684,-0.290116,-0.607804,1.715,-3.57,-3.64
97,170653,0.734928,-0.290116,-0.607804,1.715,-3.535,-3.465
98,170749,0.733708,-0.292068,-0.6082920999999999,1.7675,-3.4475,-3.43
99,170845,0.735416,-0.294752,-0.6070720000000001,1.925,-3.0275,-3.4825
100,170941,0.7373681,-0.290604,-0.6082920999999999,1.9075,-2.7125,-3.64
101,171038,0.734928,-0.292556,-0.6070720000000001,2.03,-2.6775,-3.5175
102,171134,0.733952,-0.28987199999999996,-0.606584,2.03,-2.73,-3.4825
103,171230,0.734196,-0.292312,-0.6075600999999999,2.03,-2.905,-3.5525
104,171326,0.734684,-0.292068,-0.6080479999999999,2.0125,-3.045,-3.5
105,171423,0.7329760000000001,-0.292556,-0.606584,2.0125,-3.3775,-3.5525
106,171519,0.7356600000000001,-0.292556,-0.6082920999999999,1.9425,-3.5,-3.6575
107,171615,0.734928,-0.2928,-0.605364,1.8025,-3.6225,-3.64
108,171711,0.735172,-0.29036,-0.607804,1.715,-3.745,-3.675
109,171808,0.737124,-0.289628,-0.6080479999999999,1.7325,-3.85,-3.605
110,171904,0.736392,-0.290116,-0.607804,1.96,-3.605,-3.395
111,172000,0.733952,-0.29572800000000005,-0.608536,2.135,-3.1675,-3.3425
112,172096,0.73688,-0.29133600000000004,-0.6036560999999999,2.1875,-2.8,-3.4125
113,172192,0.7332201,-0.294752,-0.606584,2.17,-2.87,-3.3425
114,172289,0.7332201,-0.294508,-0.604876,2.065,-2.975,-3.4125
115,172385,0.733952,-0.2928,-0.604876,1.96,-3.1675,-3.5
116,172481,0.733708,-0.29158,-0.607316,1.8725,-3.29,-3.675
117,172577,0.733708,-0.29158,-0.605608,1.785,-3.395,-3.675
118,172674,0.735416,-0.290848,-0.6075600999999999,1.75,-3.5875,-3.7625
119,172770,0.7361481,-0.291824,-0.61488,1.925,-3.2025,-3.5875
120,172866,0.731268,-0.291824,-0.613416,2.94,-1.5575,-3.395
121,172962,0.7415161,-0.292556,-0.60634,3.64,0.0525,-3.1675
122,173059,0.740052,-0.293288,-0.6068279999999999,4.025,0.07,-2.8525
123,173155,0.738344,-0.290604,-0.6021920000000001,4.0075,-0.105,-2.7125
124,173251,0.7356600000000001,-0.292312,-0.5997520000000001,3.7625,-0.525,-2.7125
125,173347,0.737124,-0.29597199999999996,-0.598532,3.395,-0.9625,-2.7475
126,173444,0.7378560000000001,-0.297192,-0.600484,3.0625,-1.7325,-2.87
127,173540,0.746152,-0.302316,-0.6168319999999999,3.325,-1.9075,-2.9925
128,173636,0.746396,-0.296948,-0.6182960999999999,5.1625,-0.175,-2.52
129,173732,0.7483479999999999,-0.293532,-0.6019479999999999,6.4925,0.875,-1.855
130,173829,0.7439560000000001,-0.294752,-0.605608,7.1925,0.4375,-0.5075
131,173925,0.741272,-0.29572800000000005,-0.6007279999999999,7.42,-0.42,-0.4375
132,174021,0.7332201,-0.297192,-0.5948720000000001,7.49,-1.6625,-0.2625
133,174117,0.733708,-0.29402,-0.601704,6.5625,-2.205,-0.49
134,174214,0.752984,-0.309148,-0.60878,7.1225,-2.205,-0.3675
135,174310,0.756156,-0.294996,-0.6039,8.4175,-1.6625,0.385
136,174406,0.752984,-0.29572800000000005,-0.618052,9.5025,-1.61,1.4
137,174502,0.771528,-0.306952,-0.5980439999999999,10.5875,-0.945,2.5375
138,174599,0.768844,-0.313052,-0.576816,10.78,-1.225,3.4475
139,174695,0.734928,-0.304512,-0.580232,10.2025,-2.52,4.1475
140,174791,0.7388319999999999,-0.310612,-0.60634,8.3825,-2.0825,3.57
141,174887,0.735904,-0.297192,-0.624152,7.875,-1.75,3.115
142,174983,0.7239479999999999,-0.314272,-0.5738880000000001,7.63,-1.54,2.94
143,175080,0.742492,-0.328424,-0.5826720000000001,8.0325,-0.91,3.045
144,175176,0.7510321,-0.321836,-0.5885281,7.2625,-1.225,2.9925
145,175272,0.755912,-0.3233,-0.5941401,7.3325,-1.8725,3.2025
146,175368,0.7551800000000001,-0.31598000000000004,-0.5946279999999999,7.2975,-2.765,3.4475
147,175465,0.750788,-0.313784,-0.59658,7.315,-3.85,3.5175
148,175561,0.745908,-0.310612,-0.602436,7.735,-4.8475,3.8325
149,175657,0.7476161,-0.310368,-0.59902,8.225,-5.1625,4.515
150,175753,0.7315119999999999,-0.31890799999999997,-0.5917,8.68,-6.23,4.55
151,175850,0.73932,-0.327448,-0.596336,8.9075,-6.1775,4.795
152,175946,0.746152,-0.32403200000000004,-0.587064,8.995,-5.8275,4.97
153,176042,0.72468,-0.32866799999999996,-0.58316,9.0475,-6.72,4.9525
154,176138,0.714432,-0.33305999999999997,-0.5885281,8.7325,-6.195,4.7425
155,176235,0.72712,-0.321592,-0.590236,8.4875,-4.97,4.725
156,176331,0.7229720000000001,-0.320128,-0.591212,8.4175,-4.1125,4.97
157,176427,0.724924,-0.318664,-0.5980439999999999,9.2925,-4.2,4.76
158,176523,0.749568,-0.31598000000000004,-0.6009720000000001,9.8525,-3.01,5.04
159,176620,0.743468,-0.322812,-0.5873079999999999,10.15,-3.15,5.005
160,176716,0.692228,-0.33916,-0.5675439999999999,10.29,-3.1675,4.655
161,176812,0.683932,-0.354532,-0.568764,9.9225,-0.1575,4.585
162,176908,0.703696,-0.3599,-0.5697399999999999,8.9425,2.6775,3.6225
163,177005,0.7241920000000001,-0.371856,-0.5631520000000001,7.6825,4.4975,2.555
164,177101,0.7168720000000001,-0.386496,-0.544608,5.7225,4.865,0.8925
165,177197,0.670268,-0.397476,-0.524356,2.415,5.25,-1.5575
166,177293,0.639768,-0.383324,-0.521672,-2.2575,7.4375,-4.9875
167,177389,0.6219561,-0.364048,-0.5309441,-6.895,11.55,-9.24
168,177486,0.643428,-0.35258,-0.532408,-11.0425,18.095,-13.3
169,177582,0.621224,-0.34428400000000003,-0.5368,-15.085,22.8375,-18.55
170,177678,0.5636399999999999,-0.324276,-0.5655920999999999,-18.1825,27.685,-25.1125
171,177774,0.5663239999999999,-0.30353600000000003,-0.618052,-19.11,37.87,-30.835
172,177871,0.5814520000000001,-0.260592,-0.617564,-17.185,48.58,-36.085
173,177967,0.547292,-0.21106,-0.606584,-11.3925,60.0775,-46.375
174,178063,0.764208,-0.6527,-0.819108,9.765,69.65,-50.1025
175,178159,1.0650600000000001,-0.5604680000000001,-1.336876,10.9725,88.585,-51.0125
176,178256,0.42016800000000004,-0.628544,-1.02846,26.005,95.4625,-51.45
177,178352,0.7759199999999999,-1.019188,-1.282952,34.1425,118.2125,-60.235
178,178448,0.9884440000000001,-1.1773,-1.59332,22.2075,121.3975,-63.5775
179,178544,0.741028,-1.140456,-1.691164,8.05,85.78501,-54.215
180,178641,0.303048,-0.999668,-1.601616,3.535,47.635,-38.0275
181,178737,-0.047092,-0.8884040000000001,-1.501576,11.1825,22.365,-25.305
182,178833,-0.163724,-0.7986121,-1.5006,24.185,9.8175,-18.025
183,178929,-0.159576,-0.7771399999999999,-1.5464719999999998,34.79,-0.945,-7.42
184,179026,-0.182756,-0.7005239999999999,-1.592344,33.11,-13.1775,6.125
185,179122,-0.150304,-0.620492,-1.61772,23.87,-25.6725,18.34
186,179218,-0.09028,-0.5309441,-1.634068,11.13,-39.4975,28.28
187,179314,0.0061,-0.46457600000000004,-1.625772,-0.0525,-55.7725,37.1875
188,179411,0.11102000000000001,-0.43944399999999995,-1.57746,-7.28,-74.165,45.7625
189,179507,0.213256,-0.446032,-1.498404,-12.2325,-93.6425,53.3925
190,179603,0.33013200000000004,-0.467504,-1.4130040000000001,-16.31,-112.98,58.485
191,179699,0.479704,-0.504592,-1.3163799999999999,-19.7225,-131.18,61.4775
192,179796,0.57828,-0.521672,-1.213168,-23.275,-149.5375,62.65
193,179892,0.6326921,-0.506544,-1.092388,-26.2325,-164.6575,63.3325
194,179988,0.697108,-0.506544,-0.99308,-25.8475,-174.16,64.995
195,180084,0.7666480999999999,-0.5248441,-0.902068,-23.94,-177.8175,68.4075
196,180181,0.81374,-0.51484,-0.8066641,-24.325,-177.205,73.9375
197,180277,0.8388721,-0.458476,-0.6985720999999999,-28.2975,-171.64,81.2875
198,180373,0.858392,-0.401868,-0.60878,-33.53,-160.895,87.99
199,180469,0.8632719999999999,-0.31964000000000004,-0.556076,-38.0625,-147.98,89.4775
200,180566,0.87718,-0.22326,-0.524356,-40.0925,-133.91,86.5025
201,180662,0.8969440000000001,-0.14518,-0.5084960000000001,-36.9775,-120.4875,81.46251
202,180758,0.8698601,-0.064172,-0.508008,-29.9775,-109.48,74.6725
203,180854,1.012356,-0.05124001,-0.5221600000000001,-20.5275,-100.5725,65.9225
204,180951,1.02358,-0.04148,-0.495076,-11.4975,-98.84000999999999,56.4375
205,181047,0.9972281,-0.009516001,-0.46116,-4.9525,-102.585,45.3075
206,181143,0.9386681,0.022936,-0.393572,1.015,-105.385,33.7925
207,181239,0.8906,0.030012,-0.31451599999999996,8.33,-105.42,21.9275
208,181336,0.8764481,0.01952,-0.228384,16.94,-101.36,9.975
209,181432,0.8762040000000001,-0.0051240009999999996,-0.138104,26.0225,-94.02750999999999,-0.7875
210,181528,0.869616,-0.044652,-0.026108,34.755,-84.77,-9.7125
211,181624,0.892064,-0.112972,0.062952,42.0,-73.6225,-16.1175
212,181721,0.9440360999999999,-0.185684,0.13151600000000002,45.7625,-59.71,-19.4075
213,181817,1.042612,-0.208864,0.183976,45.815,-43.155,-19.7225
214,181913,1.1770559999999999,-0.2257,0.246196,44.5375,-26.1975,-15.6275
215,182009,1.220976,-0.22643200000000002,0.366,41.125,-10.99,-9.205
216,182106,1.235372,-0.203008,0.485072,33.6,6.3525,-4.375
217,182202,1.272216,-0.14347200000000002,0.587064,22.925,28.14,-4.13
218,182298,1.398608,-0.11614400000000001,0.658556,12.9675,54.075,-6.3525
219,182394,1.510116,-0.104432,0.71126,3.6575,77.245,-11.48
220,182491,1.567944,-0.08881599,0.74054,-4.55,96.1275,-20.9825
221,182587,1.3712799999999998,-0.422364,-0.548268,8.89,108.92,-32.97
222,182683,-0.621468,-0.749812,-0.795928,29.015,109.5325,-54.215
223,182779,0.2196,-1.6030799999999998,-2.634224,44.8875,146.2475,-77.14
224,182876,0.271328,-0.882548,-0.909632,21.0525,147.77,-88.39251
225,182972,0.767624,-0.364536,0.282552,19.3725,177.8875,-91.105
226,183068,2.09108,-0.42895200000000006,-0.515084,16.135,236.6,-70.9625
227,183164,2.118652,-0.22448,-0.9274440999999999,1.295,192.9725,-62.65
228,183261,1.8524479999999999,0.16348,-0.7993439999999999,-13.405,145.215,-69.475
229,183357,1.4496040000000001,-0.053436000000000004,-0.868152,5.6875,109.27,-66.5525
230,183453,0.93696,-0.38552,-0.709064,20.965,82.18,-53.9
231,183549,0.650748,-0.48653599999999997,-0.5233800000000001,22.75,77.805,-41.3875
232,183645,0.8420440999999999,-0.495076,-0.571448,20.72,89.3375,-33.11
233,183742,1.126792,-0.8398479999999999,-0.739808,17.3775,89.1625,-29.96
234,183838,1.63602,-1.0919,-0.313052,-1.47,69.80751,-20.6675
235,183934,0.9301280000000001,-0.24278000000000002,-0.5875520000000001,-55.125,40.215,-40.8625
236,184030,0.9911281,-0.225944,-0.746152,-26.81,32.515,-29.435
237,184127,0.8422879999999999,-0.42016800000000004,-0.515572,-23.135,21.875,-26.425
238,184223,0.8466800999999999,-0.397476,-0.573156,-20.3,19.915,-21.8225
239,184319,0.7890961,-0.368684,-0.580476,-21.665,13.93,-22.715
240,184415,0.7600600000000001,-0.347456,-0.553148,-21.1575,11.76,-22.12
241,184512,0.781044,-0.296216,-0.584868,-21.315,12.25,-20.5275
242,184608,0.809348,-0.254736,-0.621468,-20.44,12.5125,-18.13
243,184704,0.7771399999999999,-0.260104,-0.6124400999999999,-16.3275,9.8525,-14.735
244,184800,0.768356,-0.27718400000000004,-0.6161,-12.565,7.7875,-11.5325
245,184897,0.768356,-0.285724,-0.6039,-9.485,6.615,-8.61
246,184993,0.7895840999999999,-0.367464,-0.5665680000000001,-5.495,5.1625,-6.0025
247,185089,0.7812880999999999,-0.371368,-0.54656,-2.17,4.4275,-3.9025
248,185185,0.754204,-0.348188,-0.56608,-0.665,3.71,-3.675
249,185282,0.765672,-0.336964,-0.5697399999999999,0.8575,3.4475,-3.255
250,185378,0.746396,-0.325496,-0.571692,3.745,3.6225,-2.7825
251,185474,0.739808,-0.306708,-0.576328,5.4775,4.2525,-1.96
252,185570,0.7483479999999999,-0.325496,-0.57096,7.665,4.76,-1.1725
253,185667,0.753228,-0.35038400000000003,-0.553148,9.275,5.88,-0.6125
254,185763,0.745664,-0.370636,-0.534848,9.87,6.8425,-0.63
255,185859,0.743468,-0.374052,-0.5353359999999999,9.73,7.7875,-0.98
256,185955,0.748592,-0.370148,-0.532896,9.3275,8.085,-2.275
257,186051,0.764452,-0.357704,-0.537044,9.4325,8.435,-3.3775
258,186148,0.76494,-0.34794400000000003,-0.5397281,9.205,9.03,-3.9025
259,186244,0.770308,-0.35258,-0.528992,9.135,10.5875,-3.7625
260,186340,0.7712840999999999,-0.343308,-0.530212,9.695,11.8475,-3.9375
261,186436,0.764696,-0.326228,-0.530212,9.835,13.4575,-3.8325
262,186533,0.759328,-0.34111199999999997,-0.524356,10.85,15.365,-3.3075
263,186629,0.74054,-0.36575599999999997,-0.49654,11.1125,17.2375,-3.71
264,186725,0.732244,-0.38552,-0.49434399999999995,9.3275,18.27,-5.9675
265,186821,0.704916,-0.404064,-0.49434399999999995,5.46,18.7075,-9.4675
266,186918,0.702964,-0.441884,-0.5119121,0.14,16.5725,-15.6975
267,187014,0.7315119999999999,-0.348188,-0.5158159999999999,-6.44,13.51,-23.5025
268,187110,0.781532,-0.376492,-0.542656,-10.5175,12.3375,-27.7025
269,187206,0.76982,-0.378444,-0.5655920999999999,-8.015,6.02,-31.0975
270,187303,0.79056,-0.337208,-0.597068,-3.4825,5.005,-33.5475
271,187399,0.815448,-0.265228,-0.5980439999999999,4.7075,14.7175,-32.3575
272,187495,0.7366361,-0.27816,-0.6939361,14.5425,39.2175,-29.5575
273,187591,0.61,-0.400404,-0.711504,25.235,71.295,-30.0125
274,187688,0.70394,-0.19276,-0.762012,15.9775,118.09,-37.8875
275,187784,0.68198,-0.242536,-0.762012,33.7925,149.625,-36.015
276,187880,0.777872,-0.279136,-0.7327321,38.885,183.61,-39.06
277,187976,1.02724,-0.416508,-0.6878361,53.97,217.2275,-44.835
278,188073,0.9140241,-0.387472,-0.7442,60.48,271.355,-58.835
279,188169,1.0323639999999998,-0.388448,-0.788608,64.89,335.6675,-73.2725
280,188265,1.4781520000000001,-0.366,-0.9296399999999999,61.775,435.05,-86.4325
281,188361,0.57462,-0.45164399999999993,-0.8637601,68.0925,551.985,-96.25
282,188458,0.081496,-0.72102,-0.8464360000000001,121.4675,573.405,-128.8875
283,188554,0.332328,-0.390888,-0.581696,209.51,573.405,-209.895
284,188650,2.29848,-0.37112399999999995,-0.450668,228.27,573.405,-248.3075
285,188746,2.928244,-0.211548,0.8596120999999999,109.7075,573.3875,-222.845
286,188843,3.727588,-0.106628,1.148264,58.8175,549.045,-173.8275
287,188939,2.673752,-0.568032,0.445788,55.7375,322.805,-70.735
288,189035,1.74826,-1.62504,-2.8565080000000003,-68.1625,-103.5825,12.7925
289,189131,2.054236,-1.759972,-1.245376,-5.915,-256.9525,94.3425
290,189228,3.5406839999999997,-0.8740081000000001,-2.4390240000000003,-37.835,264.635,124.8625
291,189324,1.9266240000000001,-0.494588,-2.344352,42.035,177.625,40.985
292,189420,2.739388,-1.4093440000000002,-3.4099,53.34,40.88,-171.78
293,189516,2.0703400000000003,-1.045296,-2.993148,18.4975,-71.47,-57.925
294,189613,0.690764,-0.6883239999999999,-2.405596,23.52,-253.6975,-54.8625
295,189709,0.21667199999999998,-0.5697399999999999,-1.8785560000000001,32.97,-293.055,-46.4625
296,189805,0.26156799999999997,-0.707356,-1.4945,51.66,-291.9,-38.6575
297,189901,0.414312,-0.7617681,-1.24074,54.53,-301.455,-42.0875
298,189998,0.608536,-0.785924,-1.062864,47.6175,-311.885,-38.745
299,190094,0.730292,-0.8025161,-0.915976,40.3725,-330.505,-27.09
300,190190,0.7993439999999999,-0.8047121,-0.7829961,30.9225,-347.4275,-10.3775
301,190286,0.8727879999999999,-0.7978801,-0.6771,21.9275,-360.885,6.4575
302,190383,0.9801479999999999,-0.815448,-0.584868,15.225,-369.7925,24.605
303,190479,1.084824,-0.813008,-0.49532,6.58,-374.0625,44.625
304,190575,1.1211799999999998,-0.8095920999999999,-0.404064,-1.89,-378.0175,65.8
305,190671,1.1407,-0.76494,-0.35868,-11.97,-377.195,84.4375
306,190768,1.236592,-0.71492,-0.388204,-17.8675,-371.245,99.085
307,190864,1.351516,-0.642452,-0.44334799999999996,-17.57,-363.825,111.2125
308,190960,1.4776639999999999,-0.556076,-0.4941,-12.075,-356.8075,124.0225
309,191056,1.636996,-0.503372,-0.5414359999999999,-0.455,-352.7825,137.445
310,191152,1.7575319999999999,-0.50142,-0.5604680000000001,12.635,-355.3375,147.77
311,191249,1.794864,-0.5314321,-0.544608,23.73,-362.7225,152.845
312,191345,1.815604,-0.5314321,-0.518012,29.7325,-365.4175,153.93
313,191441,1.8592799999999998,-0.49776000000000004,-0.5072760000000001,32.935,-359.73,156.7125
314,191537,1.912716,-0.40357600000000005,-0.466772,35.9625,-346.0275,166.0575
315,191634,1.96786,-0.359168,-0.382104,37.9575,-327.7575,183.05
316,191730,2.146224,-0.29402,-0.349652,32.025,-296.66,198.625
317,191826,2.501244,-0.20178800000000002,-0.284504,22.68,-263.8825,205.6775
318,191922,2.881396,-0.076616,-0.11736400000000001,12.075,-245.6125,201.075
319,192019,2.8081959999999997,0.081496,0.1891,3.5,-246.0325,186.5325
320,192115,2.746952,0.272548,0.562664,-2.03,-234.08,163.8
321,192211,2.643496,0.3599,1.10166,3.4475,-212.52,139.1075
322,192307,2.690832,0.33916,1.6521240000000001,11.0425,-178.36,114.66
323,192404,2.6962,0.333304,2.151836,14.735,-136.675,94.85
324,192500,2.605432,0.3843,2.463668,14.945,-89.985,81.34000999999999
325,192596,2.536624,0.4023561,2.5522400000000003,11.06,-36.8025,72.415
326,192692,2.4939240000000003,0.41723999999999994,2.434144,-1.0325,17.1675,61.67
327,192788,2.45464,0.48312,2.204784,-20.58,64.19,44.9225
328,192885,2.363628,0.55998,1.9041759999999999,-37.24,101.01,26.0225
329,192981,2.3492319999999998,0.7861680999999999,1.015528,-38.08,128.59,4.2175
330,193077,0.671244,0.067588,-0.536068,-60.375,154.28,-55.195
331,193173,-0.8488761,-0.538508,-3.013888,4.9,114.5375,-61.775
332,193270,-0.09784401,0.188612,-1.4515559999999998,27.1075,268.45,-76.965
333,193366,1.9734720000000001,0.177144,0.598288,36.3125,283.6225,-137.165
334,193462,3.277652,-0.51484,-0.12395199999999999,44.7475,325.2375,-118.37
335,193558,2.913116,-0.472628,-0.580476,13.6325,251.3875,-104.405
336,193655,2.3485,-0.07637200000000001,-0.9484280999999999,-22.855,197.1375,-95.04251
337,193751,1.558184,0.023424,-0.8647360000000001,-15.995,138.39,-82.14499
338,193847,1.1289879999999999,-0.157136,-0.772504,4.4275,117.46,-68.705
339,193943,1.7977919999999998,-1.742648,-0.876692,20.1075,97.895,-43.2775
340,194040,1.247572,-0.41577600000000003,-0.27084,-58.59,66.0625,-42.07
341,194136,1.5201200000000001,-0.14493599999999998,-0.7605481,-63.6475,54.18,-63.245
342,194232,1.0521280000000002,-0.270596,-0.57828,-40.0225,15.1025,-49.7525
343,194328,0.989664,-0.325252,-0.60268,-23.0825,5.005,-39.3575
344,194424,0.8581479999999999,-0.244488,-0.583648,-25.165,18.0775,-28.315
345,194521,0.8571719999999999,-0.4594521,-0.530456,-13.9825,10.92,-21.945
346,194617,0.7986121,-0.40211199999999997,-0.5307,-14.98,13.09,-18.8475
347,194713,0.8113001,-0.328912,-0.569984,-18.13,9.45,-22.2425
348,194809,0.826428,-0.246196,-0.5551,-17.2375,6.6325,-22.3125
349,194906,0.790072,-0.274012,-0.58682,-12.845,4.2175,-21.4725
350,195002,0.7388319999999999,-0.25790799999999997,-0.626836,-8.89,2.625,-19.6
351,195098,0.7617681,-0.225456,-0.587064,-7.6825,4.8475,-16.31
352,195195,0.7612800999999999,-0.23838800000000002,-0.555588,-6.3175,6.265,-12.705
353,195291,0.734928,-0.293532,-0.5587601,-7.315,5.425,-11.8475
354,195387,0.731268,-0.343552,-0.562664,-10.6575,1.9075,-15.225
355,195483,0.7671359999999999,-0.33818400000000004,-0.5397281,-13.335,-1.3125,-19.1975
356,195579,0.75884,-0.343308,-0.5429,-14.385,-6.7375,-22.19
357,195676,0.7417600000000001,-0.33794,-0.554856,-15.19,-12.775,-24.675
358,195772,0.74054,-0.33428,-0.5675439999999999,-15.9425,-17.4475,-26.355
359,195868,0.74298,-0.379664,-0.5587601,-16.8525,-25.9175,-29.9425
360,195964,0.730292,-0.391864,-0.571204,-17.325,-37.7125,-34.2475
361,196061,0.743712,-0.32818,-0.5843801,-17.6925,-46.5675,-37.9575
362,196157,0.769332,-0.25742,-0.596092,-16.59,-47.6875,-38.92
363,196253,0.753472,-0.205204,-0.6273241,-13.545,-42.5425,-36.33
364,196349,0.7549359999999999,-0.200812,-0.6517241,-9.2575,-33.1625,-32.025
365,196446,0.758352,-0.20691199999999998,-0.633668,-5.6175,-21.9275,-27.405
366,196542,0.7517640999999999,-0.227652,-0.619272,-2.24,-11.69,-23.205
367,196638,0.7422481,-0.246928,-0.615124,0.595,-3.6575,-20.93
368,196734,0.7300479999999999,-0.25986,-0.6075600999999999,2.59,2.87,-20.3875
369,196831,0.7473721,-0.24424400000000002,-0.6095119999999999,4.2525,7.7525,-20.4925
370,196927,0.75884,-0.187392,-0.638792,5.915,12.355,-19.6525
371,197023,0.765184,-0.227652,-0.61,13.7025,18.2,-16.59
372,197119,0.7422481,-0.2135,-0.6451359999999999,17.115,27.195,-13.8075
373,197215,0.715164,-0.259128,-0.6771,18.3575,39.655,-11.7775
374,197312,0.652944,-0.302316,-0.746152,19.985,59.115,-12.39
375,197408,0.6673399999999999,-0.238144,-0.7500560000000001,14.77,89.86251,-17.5175
376,197504,0.643672,-0.269864,-0.751276,21.28,125.72,-19.5475
377,197601,0.6600201,-0.243024,-0.780312,19.25,166.985,-24.605
378,197697,0.6707561,-0.22643200000000002,-0.803736,26.1975,200.795,-29.0325
379,197793,0.713212,-0.221796,-0.7998321,34.8775,228.585,-35.77
380,197889,1.062376,-0.319396,-0.7417600000000001,47.1625,259.42,-46.55
381,197986,0.9191481,-0.34794400000000003,-0.8396040000000001,48.685,324.1525,-66.3075
382,198082,1.167296,-0.39918400000000004,-0.9181720999999999,52.535,406.2275,-92.83751
383,198178,1.02724,-0.589992,-1.092388,34.6325,532.42,-125.37
384,198274,0.33794,-0.730536,-0.8508280999999999,69.9825,573.265,-182.5075
385,198370,0.21813600000000002,-0.715408,-0.5785241,135.765,573.405,-279.2125
386,198467,2.1591560000000003,-0.553636,-0.488976,199.7275,573.405,-360.22
387,198563,3.7207559999999997,-0.37332,0.07417601,92.295,573.405,-352.1525
388,198659,3.6917199999999997,-0.033672,0.523868,26.74,556.2025,-275.6425
389,198755,3.445524,-0.6695361,0.396012,46.3225,395.15,-164.92
390,198852,1.7575319999999999,-1.559892,-1.1004399999999999,19.4775,24.885,-60.7425
391,198948,2.671068,-1.849276,-1.65432,48.3,-286.3875,95.5675
392,199044,3.071472,-1.467172,-2.7467080000000004,-36.295,173.6,192.64
393,199140,1.985428,-1.321992,-2.980216,-3.8325,95.6025,-58.03
394,199237,2.360456,-1.766072,-3.110024,4.305,46.7425,-112.875
395,199333,1.254892,-1.3359,-2.636176,-38.0975,-123.6375,-1.61
396,199429,0.15054800000000002,-0.9703879999999999,-2.0693639999999998,-31.71,-227.1325,25.795
397,199525,-0.177144,-0.7417600000000001,-1.600396,-34.3,-239.2425,38.325
398,199622,-0.046360000000000005,-0.61732,-1.342244,-25.0775,-229.11,49.1575
399,199718,0.260348,-0.548024,-1.178032,-17.6575,-226.0125,60.0775
400,199814,0.584136,-0.5060560000000001,-1.078968,-13.8075,-235.515,74.13
401,199910,0.8103239999999999,-0.484096,-0.975512,-10.3775,-260.995,88.25251
402,200007,0.9564799999999999,-0.46726,-0.8693719999999999,-10.43,-291.27,100.345
403,200103,1.019676,-0.44408000000000003,-0.7556681,-13.37,-320.81,108.3775
404,200199,1.074576,-0.41455600000000004,-0.667828,-18.06,-343.9625,111.37
405,200295,1.143384,-0.370392,-0.600484,-22.0325,-358.75,113.1725
406,200392,1.250988,-0.282796,-0.509716,-23.94,-366.3625,116.0075
407,200488,1.292956,-0.23692399999999997,-0.492148,-22.0675,-369.46,120.6975
408,200584,1.404952,-0.209596,-0.508252,-12.2325,-371.035,124.6875
409,200680,1.546716,-0.174948,-0.553392,-2.5375,-368.7425,126.035
410,200777,1.6696919999999997,-0.12761199999999998,-0.57462,8.785,-369.25,126.315
411,200873,1.814872,-0.098332,-0.593896,22.12,-372.4525,122.64
412,200969,1.921744,-0.09442801,-0.5751081,35.5775,-380.8175,112.7525
413,201065,1.955904,-0.132248,-0.542168,52.9025,-394.5725,98.75251
414,201162,1.97518,-0.16958,-0.5099600000000001,71.89,-402.8675,89.1625
415,201258,1.963956,-0.2318,-0.468724,90.755,-400.925,92.9425
416,201354,1.999336,-0.299144,-0.423828,105.4375,-387.765,108.5
417,201450,2.136464,-0.387716,-0.338428,110.1275,-365.4525,132.405
418,201546,2.40218,-0.447008,-0.238144,99.6625,-334.5125,156.975
419,201643,2.624464,-0.41553199999999996,-0.079544,76.335,-303.73,177.205
420,201739,2.90604,-0.335256,0.199348,41.9825,-276.9375,187.7925
421,201835,2.761348,-0.074664,0.650748,4.69,-251.195,189.9975
422,201931,2.80722,0.20691199999999998,1.105564,-23.3625,-214.0075,184.0475
423,202028,2.863828,0.371856,1.59454,-40.3375,-171.3075,173.7925
424,202124,2.894816,0.51118,2.045208,-49.2275,-130.13,160.8075
425,202220,2.755492,0.645868,2.38632,-56.945,-83.7725,146.16
426,202316,2.6532560000000003,0.7598161,2.521496,-61.2675,-29.645,129.815
427,202413,2.704008,0.744444,2.429996,-63.455,29.2775,112.1925
428,202509,2.648376,0.7625,2.2069799999999997,-67.62001,73.2025,87.29
429,202605,2.57176,0.780312,1.917352,-67.2875,103.6,56.7525
430,202701,2.19722,0.5458281,1.342244,-54.845,121.03,28.21
431,202798,2.191608,-0.333304,-1.101172,-23.4675,117.565,-10.57
432,202894,-2.50466,-0.443104,-2.694248,24.8325,52.0975,-55.6325
433,202990,-0.57584,-0.6729520999999999,-2.844552,96.53,198.9575,-73.185
434,203086,0.9474520000000001,0.354044,0.7427361,22.5925,314.7725,-121.0125
435,203182,2.65472,-0.393328,0.38356799999999996,101.9725,288.1025,-131.355
436,203279,2.793068,-0.8813280000000001,-0.772016,60.1125,288.9775,-104.44
437,203375,2.2814,-0.510936,-0.44847200000000004,19.1625,225.435,-85.505
438,203471,1.856352,-0.28304,-0.767868,-0.735,195.615,-59.6225
439,203567,1.577704,0.038796,-0.9079241,-1.225,169.855,-46.9875
440,203664,1.053104,0.063196,-0.7283400999999999,13.02,136.5525,-43.68
441,203760,1.6609080000000003,-1.866844,-0.41260399999999997,32.375,104.86,-21.6825
442,203856,1.241716,-0.56242,-0.225212,-61.495,77.98,-40.3025
443,203953,1.41276,-0.19861600000000001,-0.735416,-51.1525,64.9775,-53.095
444,204049,0.9725841000000001,-0.41113999999999995,-0.508008,-39.27,25.9525,-47.81
445,204145,0.942084,-0.44505600000000006,-0.524356,-26.1975,19.915,-37.1875
446,204241,0.869128,-0.353068,-0.56608,-33.5125,20.44,-37.03
447,204337,0.7954399999999999,-0.50508,-0.482388,-27.23,11.5675,-34.58
448,204434,0.7954399999999999,-0.44725200000000004,-0.5038600000000001,-30.5375,8.33,-36.7325
449,204530,0.8105680000000001,-0.34892,-0.536068,-34.9125,6.79,-40.6
450,204626,0.847412,-0.23741199999999998,-0.542412,-34.37,4.025,-41.9475
451,204722,0.8169121,-0.25498000000000004,-0.61,-29.5575,-1.015,-41.4225
452,204819,0.775188,-0.217648,-0.644892,-24.2375,-4.165,-37.03
453,204915,0.7795801,-0.24034,-0.603168,-19.6,-4.76,-31.605
454,205011,0.769088,-0.24351199999999998,-0.563884,-16.3625,-4.2875,-25.83
455,205107,0.772992,-0.265228,-0.576816,-14.4725,-2.1525,-20.3875
456,205204,0.76494,-0.272304,-0.584868,-12.1625,-0.735,-16.3625
457,205300,0.769576,-0.313052,-0.571448,-9.1525,-0.105,-13.0725
458,205396,0.76494,-0.35746,-0.5604680000000001,-6.3175,-0.8400001,-11.3925
459,205492,0.740052,-0.36502399999999996,-0.5380199999999999,-6.23,-2.5025,-12.3725
460,205589,0.759328,-0.35697199999999996,-0.5404601,-7.175,-5.9325,-14.3675
461,205685,0.734684,-0.347456,-0.549732,-7.91,-10.5,-16.555
462,205781,0.7451760000000001,-0.354044,-0.562664,-8.785,-17.4475,-20.265
463,205877,0.7478600000000001,-0.349896,-0.5614439999999999,-10.5,-22.855,-24.5875
464,205973,0.7686,-0.2867,-0.5726680000000001,-11.2525,-25.7075,-28.07
465,206070,0.779824,-0.26718000000000003,-0.59536,-9.695,-25.0425,-27.9125
466,206166,0.765428,-0.270596,-0.597068,-6.79,-22.1725,-26.6
467,206262,0.770308,-0.251076,-0.5795,-4.1125,-15.4175,-24.255
468,206358,0.7600600000000001,-0.284504,-0.577304,-1.9425,-8.1025,-21.735
469,206455,0.743224,-0.304512,-0.58072,-0.4725,-3.57,-20.755
470,206551,0.752008,-0.32574000000000003,-0.5843801,-0.6825,0.6125,-22.015
471,206647,0.758352,-0.25986,-0.59292,-0.595,3.5,-23.415
472,206743,0.7747001,-0.203008,-0.618052,-0.0875,9.2225,-21.9275
473,206840,0.773968,-0.22423600000000002,-0.6263479999999999,5.005,17.3425,-16.5025
474,206936,0.77104,-0.258884,-0.630984,11.3575,28.3325,-12.32
475,207032,0.743224,-0.25351599999999996,-0.63562,16.24,42.7875,-11.4275
476,207128,0.6734399999999999,-0.24497600000000003,-0.802272,23.2225,60.69,-11.41
477,207225,0.6290319999999999,-0.271328,-0.741272,24.6925,93.9575,-15.6275
478,207321,0.676612,-0.25058800000000003,-0.753472,19.6175,143.08,-20.755
479,207417,0.650992,-0.24131599999999997,-0.786656,32.6375,175.7175,-24.1325
480,207513,0.6973520000000001,-0.242536,-0.7937320999999999,34.7025,211.5225,-29.7675
481,207609,0.821304,-0.334036,-0.7671359999999999,52.1325,238.5075,-37.45
482,207706,1.10776,-0.439932,-0.8030041,64.715,288.8025,-54.1625
483,207802,0.8620521000000001,-0.409188,-0.912316,71.2075,359.2225,-78.8725
484,207898,1.257332,-0.528992,-0.9901521000000001,65.22251,472.0625,-107.415
485,207994,0.492392,-0.611464,-0.9291520000000001,62.755,566.72,-146.86
486,208091,0.21276799999999998,-0.76372,-0.7056479999999999,139.4925,573.405,-214.97
487,208187,0.8276481,-0.417484,-0.388936,240.1175,573.405,-310.6075
488,208283,3.981836,-0.6021920000000001,-0.5043479999999999,169.0675,573.405,-349.2475
489,208379,3.3242559999999997,0.15396400000000002,0.774456,42.1575,569.4149,-288.155
490,208476,3.65024,-0.516304,0.546072,58.1525,458.745,-168.6125
491,208572,2.38022,-1.14924,-0.27571999999999997,28.42,164.9725,-73.955
492,208668,2.6754599999999997,-1.031144,-2.525156,-5.9325,-272.44,54.1625
493,208764,3.2347080000000004,-1.308816,-2.715232,20.8075,58.1,164.64
494,208860,2.23504,-1.044076,-2.216008,5.285,202.0025,89.46
495,208957,2.3860759999999996,-1.753384,-3.2920480000000003,56.7175,41.7725,-155.6975
496,209053,1.8939279999999998,-1.287588,-2.814052,-4.9525,-55.93,-35.63
497,209149,0.5636399999999999,-1.028704,-2.35704,-3.7975,-225.925,-15.4525
498,209245,-0.044407999999999996,-0.702964,-1.8409799999999998,-12.32,-261.7825,-4.445
499,209342,-0.026108,-0.632204,-1.470344,4.2875,-252.945,6.9125
500,209438,0.181292,-0.60146,-1.2439120000000001,14.42,-248.9375,16.905
501,209534,0.503128,-0.59048,-1.097756,20.5975,-256.1825,31.01
502,209630,0.72712,-0.5663239999999999,-0.983808,18.6725,-275.03,46.585
503,209727,0.8052,-0.5172800999999999,-0.865956,16.0825,-302.715,60.1475
504,209823,0.859368,-0.492148,-0.7539600000000001,14.1575,-325.9375,71.92501
505,209919,0.9501360999999999,-0.47213999999999995,-0.665632,12.5825,-340.515,82.215
506,210015,1.0499319999999999,-0.47092,-0.596092,9.17,-350.56,90.93
507,210112,1.143628,-0.47213999999999995,-0.546804,4.515,-358.82,99.31251
508,210208,1.2580639999999998,-0.431148,-0.49166000000000004,-2.59,-364.4025,108.2025
509,210304,1.322968,-0.374052,-0.49824799999999997,-8.435,-367.71,116.725
510,210400,1.4391120000000002,-0.315736,-0.529724,-7.2275,-367.605,123.3575
511,210497,1.532808,-0.254004,-0.5282600000000001,-3.3075,-367.15,128.3275
512,210593,1.6108879999999999,-0.205692,-0.559004,6.5975,-370.0725,131.6175
513,210689,1.7921799999999999,-0.18178,-0.5736441,16.24,-370.09,131.355
514,210785,1.899052,-0.227408,-0.559736,29.19,-379.855,126.0175
515,210882,1.9537080000000002,-0.245952,-0.5321640000000001,41.3525,-392.525,116.3225
516,210978,1.974204,-0.268888,-0.486048,52.2025,-399.175,109.8825
517,211074,1.94712,-0.30841599999999997,-0.41260399999999997,65.87,-400.4,113.4175
518,211170,2.003972,-0.354044,-0.334524,77.49,-389.2,126.6125
519,211266,2.198196,-0.42212,-0.239608,82.8625,-363.0725,147.1225
520,211363,2.5132,-0.457012,-0.087108,75.075,-327.915,169.61
521,211459,2.871636,-0.47775200000000007,0.150792,54.8625,-296.2575,184.485
522,211555,2.958744,-0.338428,0.5099600000000001,24.885,-267.6975,187.4075
523,211651,2.96582,-0.023668,0.9918600000000001,-4.235,-236.0575,181.895
524,211748,2.92922,0.305976,1.4945,-21.2625,-192.29,173.39
525,211844,3.018768,0.48848800000000003,1.980548,-17.955,-141.2075,165.48
526,211940,3.109536,0.5858439999999999,2.4026680000000002,-13.335,-89.18,154.49
527,212036,2.944836,0.751276,2.7425599999999997,-19.74,-41.8775,137.62
528,212133,2.719868,0.861808,2.839672,-32.7075,9.9575,116.76
529,212229,2.71572,0.8342360000000001,2.6657,-49.5775,67.4625,90.055
530,212325,2.620072,0.8693719999999999,2.135,-63.5425,113.54,56.7175
531,212421,1.300276,0.469944,1.1960879999999998,-97.755,182.8925,-18.585
532,212518,-0.670512,-0.33671999999999996,-2.98168,-27.3875,128.94,-34.2475
533,212614,-0.232044,-0.12395199999999999,-2.461716,8.6975,275.6075,-45.255
534,212710,1.159244,0.657824,0.532652,-12.46,287.455,-115.675
535,212806,3.016084,-0.037576,0.149572,28.49,353.22,-80.99
536,212903,3.065128,-0.0034159999999999998,-0.709796,18.8125,326.7425,-57.4
537,212999,2.556876,0.320372,-0.8476561,-18.3225,251.7725,-80.5175
538,213095,1.8751400000000003,0.243024,-0.9296399999999999,2.7125,183.3125,-84.84
539,213191,1.2456200000000002,-0.238632,-0.7417600000000001,24.6925,141.3825,-84.245
540,213288,1.9886,-2.167452,-0.907192,39.5675,118.3175,-66.815
541,213384,1.551352,-0.892064,-0.07490801,-42.5075,72.625,-41.4925
542,213480,1.8941720000000002,0.145912,-0.8344801,-112.9275,61.81,-96.67
543,213576,0.9745360000000001,-0.239852,-0.612196,-44.59,6.44,-67.2875
544,213673,1.105808,-0.29402,-0.6329359999999999,-27.37,2.31,-50.015
545,213769,0.9450120000000001,-0.11224,-0.651968,-32.235,17.3425,-35.385
546,213865,0.8513161,-0.380884,-0.5551,-10.92,9.3275,-21.665
547,213961,0.8357,-0.36356,-0.5546121,-12.915,12.7225,-16.87
548,214057,0.8108121,-0.321348,-0.5499761,-13.895,10.99,-17.5175
549,214154,0.8425321,-0.271572,-0.522892,-13.3175,10.7625,-16.59
550,214250,0.8359440999999999,-0.2806,-0.55632,-12.39,10.1325,-16.87
551,214346,0.754204,-0.262788,-0.607804,-8.12,7.665,-15.75
552,214442,0.7639640999999999,-0.263764,-0.599264,-6.5625,8.68,-13.02
553,214539,0.768844,-0.25132,-0.5743761,-4.76,9.1175,-9.8875
554,214635,0.740296,-0.271572,-0.589016,-2.94,8.015,-7.245
555,214731,0.7178479999999999,-0.286456,-0.60634,-1.6975,6.7025,-6.1075
556,214827,0.728096,-0.313052,-0.5797441,-0.4025,5.9675,-5.7925
557,214924,0.7407841,-0.31842,-0.55998,-0.2625,4.6725,-5.8625
558,215020,0.7320001,-0.35672800000000005,-0.552172,-0.035,1.435,-6.23
559,215116,0.7324881,-0.355996,-0.553148,-1.5225,-2.2225,-8.68
560,215212,0.73688,-0.355508,-0.541924,-3.605,-6.6675,-11.9525
561,215309,0.739564,-0.3416,-0.5441199999999999,-5.8625,-13.16,-16.8525
562,215405,0.757376,-0.321592,-0.5453399999999999,-8.925,-19.075,-22.1025
563,215501,0.7732359999999999,-0.310368,-0.55632,-10.2025,-25.1475,-26.1625
564,215597,0.781044,-0.27523200000000003,-0.590968,-10.7625,-27.4225,-28.9275
565,215693,0.76982,-0.257176,-0.589504,-8.4525,-25.0075,-28.6125
566,215790,0.774456,-0.276208,-0.5897479999999999,-5.985,-17.0975,-26.845
567,215886,0.750788,-0.293532,-0.581696,-3.5525,-9.8,-25.2
568,215982,0.735416,-0.306952,-0.5846241,-2.24,-4.34,-25.27
569,216078,0.743224,-0.282796,-0.6009720000000001,-1.1025,0.49,-26.7925
570,216175,0.751276,-0.270596,-0.609268,1.7675,5.005,-27.9475
571,216271,0.79056,-0.18324400000000002,-0.60024,8.225,10.1675,-27.615
572,216367,0.7849480999999999,-0.225944,-0.605608,12.5825,21.035,-21.9975
573,216463,0.765428,-0.22496799999999997,-0.6405,15.47,33.53,-16.5725
574,216560,0.690764,-0.327204,-0.6993041,20.055,48.5275,-14.7875
575,216656,0.6422081000000001,-0.21886799999999998,-0.747128,16.4675,75.4425,-18.76
576,216752,0.671976,-0.25961599999999996,-0.7332201,18.4625,115.3425,-20.1075
577,216848,0.6480640000000001,-0.203252,-0.798856,23.695,153.44,-22.2775
578,216945,0.679784,-0.195444,-0.8103239999999999,29.68,191.5725,-25.1825
579,217041,0.726144,-0.23009200000000002,-0.803492,41.44,223.93,-28.8225
580,217137,1.081164,-0.364536,-0.758108,57.3125,259.28,-38.36
581,217233,0.9098761000000001,-0.401624,-0.8727879999999999,63.1575,324.94,-56.1225
582,217330,1.117032,-0.44237200000000004,-0.964044,70.28,408.695,-81.865
583,217426,1.139968,-0.5797441,-1.036512,53.1475,535.5175,-114.94
584,217522,0.132248,-0.682712,-0.813984,93.3975,573.335,-168.49
585,217618,0.09930800000000001,-0.611952,-0.390156,196.14,573.405,-253.1025
586,217715,2.312632,-0.450668,-0.676124,238.525,573.405,-331.1525
587,217811,3.9393800000000003,-0.079056,0.31524800000000003,77.385,573.405,-318.5875
588,217907,3.758088,-0.028304000000000003,0.9171961,37.0125,550.795,-218.26
589,218003,2.995832,-0.48678,0.423828,43.33,350.1575,-97.37
590,218100,1.98738,-1.506944,-2.4490279999999998,-11.97,-84.5425,20.6325
591,218196,2.690832,-2.173552,-1.69458,59.255,-240.8525,139.4925
592,218292,3.0756200000000002,-1.297104,-2.82552,-36.225,244.335,181.965
593,218388,2.305068,-1.097024,-3.1995720000000003,27.685,77.14,-58.52
594,218485,2.4866040000000003,-1.558916,-3.127348,18.9875,15.4175,-112.98
595,218581,1.164612,-1.081896,-2.6449599999999998,-18.6375,-170.59,-38.745
596,218677,0.23009200000000002,-0.831308,-2.053016,-11.69,-256.9,-25.06
597,218773,-0.02806,-0.729804,-1.584292,-7.9275,-267.26,-13.335
598,218870,0.03416,-0.74908,-1.300032,1.855,-263.445,0.945
599,218966,0.32208000000000003,-0.7598161,-1.1690040000000002,0.105,-260.2425,19.145
600,219062,0.6329359999999999,-0.7478600000000001,-1.078236,-10.36,-263.9175,41.8775
601,219158,0.818376,-0.7095520000000001,-0.9830760000000001,-24.7625,-281.785,65.03
602,219254,0.9301280000000001,-0.636352,-0.8720559999999999,-41.055,-304.43,83.79001
603,219351,0.9994241,-0.5453399999999999,-0.774212,-56.0525,-325.4825,96.0225
604,219447,1.03578,-0.43944399999999995,-0.6893,-67.2875,-342.7375,102.2525
605,219543,1.114348,-0.338916,-0.622688,-71.7325,-354.0775,106.1725
606,219640,1.19194,-0.237168,-0.5636399999999999,-69.3175,-361.235,110.215
607,219736,1.275876,-0.13054000000000002,-0.563884,-59.675,-365.855,113.085
608,219832,1.454484,-0.101504,-0.5692520000000001,-42.735,-367.5875,113.2075
609,219928,1.525,-0.08466801,-0.567056,-22.4525,-375.2875,109.41
610,220025,1.618696,-0.043432,-0.603168,-2.065,-383.1975,99.855
611,220121,1.76046,-0.001952,-0.637084,18.6725,-388.255,88.30501
612,220217,1.8817279999999998,-0.005368,-0.633424,42.9625,-397.075,77.105
613,220313,1.9590759999999998,-0.05636401,-0.58072,70.5425,-408.9925,66.4475
614,220409,1.993236,-0.110776,-0.510692,96.65250999999999,-417.2525,59.885
615,220506,2.0754639999999998,-0.244732,-0.462868,122.5,-419.8775,63.875
616,220602,2.232844,-0.41968,-0.393816,139.44,-413.9275,79.6775
617,220698,2.41316,-0.563884,-0.253272,138.0925,-401.5725,103.565
618,220794,2.481236,-0.592188,-0.057828,116.935,-380.065,127.6625
619,220891,2.739632,-0.5987760999999999,0.225944,83.9825,-347.48,144.62
620,220987,2.731824,-0.517768,0.601704,46.83,-316.0325,153.7375
621,221083,2.748904,-0.29426399999999997,0.9535521,9.205,-273.35,158.515
622,221179,2.651792,0.018788,1.3771360000000001,-21.1925,-221.515,163.8875
623,221276,2.7486599999999997,0.220088,1.7389880000000002,-37.0125,-158.8825,169.4175
624,221372,2.99998,0.33379200000000003,2.101328,-45.325,-97.1075,167.09
625,221468,2.999248,0.548756,2.463912,-59.395,-48.615,153.0375
626,221564,2.761348,0.794708,2.674484,-72.275,-2.73,131.04
627,221661,2.672288,0.921344,2.6278799999999998,-75.9325,50.155,100.31
628,221757,2.710108,0.9042641,2.338496,-70.5075,97.1775,62.055
629,221853,2.59738,0.9484280999999999,1.6348,-52.2375,126.8225,25.585
630,221949,0.880352,-0.071492,-0.173484,-43.1025,157.3775,-36.54
631,222046,-0.7754321,-0.49532,-3.543856,18.06,108.675,-55.51
632,222142,-0.321104,0.35502,-1.42252,37.8175,295.1375,-60.8125
633,222238,1.527684,0.06466001,0.783728,79.7475,331.835,-71.365
634,222334,3.027796,-0.47823999999999994,0.023912,86.5375,376.985,-33.04
635,222430,2.9514240000000003,-0.41894799999999993,-0.7376119999999999,44.9225,319.13,-32.2
636,222527,2.3846119999999997,-0.13078399999999998,-0.609024,9.17,248.4475,-52.22
637,222623,1.6753040000000001,-0.108824,-0.802272,13.6325,185.115,-59.3775
638,222719,1.164612,-0.23082399999999997,-0.7198,20.755,151.83,-60.585
639,222815,1.1716879999999998,-1.303204,-1.005524,30.38,134.785,-54.7225
640,222912,1.872212,-1.5262200000000001,-0.050752,4.2175,104.0725,-25.655
641,223008,1.7165400000000002,-0.126636,-0.492148,-105.9975,61.6175,-90.16001
642,223104,1.22488,-0.159088,-0.7088201,-49.9275,14.21,-71.9425
643,223200,0.83204,-0.42748800000000003,-0.49580799999999997,-41.615,-8.855,-61.53
644,223297,0.927932,-0.34257600000000005,-0.579012,-38.29,-0.035,-49.945
645,223393,0.8901120000000001,-0.36648800000000004,-0.568764,-37.8,-3.43,-47.67
646,223489,0.8781559999999999,-0.35038400000000003,-0.576572,-33.565,-8.0675,-43.6275
647,223585,0.8317960999999999,-0.28304,-0.568276,-32.865,-8.75,-41.965
648,223681,0.853756,-0.205692,-0.552172,-30.065,-11.7775,-42.3675
649,223778,0.779092,-0.285968,-0.585356,-24.255,-15.6625,-42.3675
650,223874,0.702964,-0.305732,-0.604876,-20.86,-17.1675,-39.34
651,223970,0.7598161,-0.247416,-0.612684,-22.995,-13.4925,-37.52
652,224066,0.79178,-0.228872,-0.625128,-22.1025,-12.0225,-34.0025
653,224163,0.7707961,-0.266204,-0.612928,-17.0625,-13.3,-28.875
654,224259,0.747128,-0.27694,-0.5885281,-14.9625,-13.2825,-25.4625
655,224355,0.763476,-0.279868,-0.598288,-14.49,-13.1075,-24.2725
656,224451,0.762012,-0.28914,-0.6009720000000001,-13.265,-14.5075,-23.1875
657,224548,0.759328,-0.30182800000000004,-0.5975560000000001,-11.4275,-15.96,-21.7
658,224644,0.7415161,-0.31232,-0.6021920000000001,-10.4825,-18.6025,-21.4375
659,224740,0.749568,-0.30866,-0.595604,-9.9225,-20.405,-21.0525
660,224836,0.7381001,-0.28914,-0.593164,-9.345,-20.8775,-20.72
661,224933,0.7388319999999999,-0.26352,-0.607804,-8.54,-21.35,-21.1575
662,225029,0.7500560000000001,-0.23082399999999997,-0.616344,-7.4025,-19.74,-21.0875
663,225125,0.739564,-0.21008400000000002,-0.627812,-5.39,-16.2575,-19.5125
664,225221,0.738588,-0.196908,-0.634644,-2.555,-11.8825,-17.3075
665,225318,0.7390760000000001,-0.213256,-0.6231760999999999,0.2975,-5.915,-14.49
666,225414,0.7449321,-0.233752,-0.6131721,2.7825,0.35,-12.5825
667,225510,0.73444,-0.270352,-0.60268,4.8125,5.04,-12.04
668,225606,0.729316,-0.28548,-0.596092,5.5825,8.8025,-13.65
669,225703,0.735904,-0.280844,-0.6007279999999999,5.39,11.4975,-16.66
670,225799,0.7551800000000001,-0.266692,-0.5987760999999999,7.1575,13.5975,-19.8275
671,225895,0.746152,-0.219844,-0.633424,10.29,16.7475,-21.945
672,225991,0.742004,-0.22862800000000003,-0.6456241,12.495,25.41,-21.4725
673,226088,0.719312,-0.242292,-0.660996,14.91,37.0825,-20.0725
674,226184,0.6912520000000001,-0.261812,-0.7315119999999999,16.695,54.5825,-20.475
675,226280,0.655384,-0.19959200000000002,-0.726144,14.0875,79.8875,-21.5425
676,226376,0.684908,-0.217648,-0.7232161,14.8575,111.9475,-20.5625
677,226473,0.652944,-0.18422,-0.771528,16.24,145.4425,-20.37
678,226569,0.681736,-0.21862399999999999,-0.781776,20.1425,179.025,-19.7575
679,226665,0.6944241,-0.25254,-0.8047121,26.985,206.9025,-23.03
680,226761,0.745664,-0.288164,-0.790072,37.59,233.2225,-32.3925
681,226858,1.096536,-0.385764,-0.794708,45.43,281.435,-50.6625
682,226954,0.955992,-0.36892800000000003,-0.876692,46.8825,353.955,-77.35
683,227050,1.2078,-0.47994799999999993,-0.92232,41.475,463.4525,-107.065
684,227146,0.546804,-0.670024,-0.899384,36.4875,562.555,-153.4225
685,227243,0.262056,-0.735904,-0.70516,87.88501,573.405,-229.425
686,227339,0.42163199999999995,-0.49849209999999994,-0.287188,152.5125,573.405,-318.5175
687,227435,3.045852,-0.47458,-0.5997520000000001,155.2075,573.405,-358.1725
688,227532,3.393796,-0.054167999999999994,0.31012399999999996,32.305,573.3525,-324.7475
689,227628,3.706116,-0.021472,0.737124,18.9,528.6925,-227.2725
690,227724,2.993636,-0.62952,0.08003201,32.585,311.57,-111.2825
691,227820,1.956636,-1.5647719999999998,-1.9129599999999998,30.8525,-53.2525,12.8275
692,227916,3.2891199999999996,-1.5372,-2.117188,24.885,-252.77,175.595
693,228013,2.659112,-1.616744,-2.236016,-36.8025,200.6375,198.205
694,228109,2.158424,-1.587464,-3.163704,24.22,65.31,-106.8375
695,228205,2.099132,-1.176568,-2.86578,-9.765,10.3425,-61.39
696,228301,0.9386681,-0.9555040000000001,-2.476112,-4.62,-163.3275,-15.5575
697,228398,0.213988,-0.6441600000000001,-1.901248,12.4775,-225.645,6.93
698,228494,0.006344,-0.61,-1.468148,38.64,-243.9325,14.805
699,228590,0.07515201,-0.555832,-1.209264,54.88,-243.6175,20.475
700,228687,0.373808,-0.60146,-1.0828719999999998,65.975,-248.78,29.54
701,228783,0.651968,-0.643428,-0.978684,65.31,-261.94,42.4025
702,228879,0.7686,-0.6675840000000001,-0.86864,57.2775,-286.685,55.9825
703,228975,0.853512,-0.666852,-0.776896,44.52,-309.5575,69.66751
704,229072,0.9691681000000001,-0.648796,-0.6954,28.9275,-326.83,83.59751
705,229168,1.0377319999999999,-0.579012,-0.617564,11.865,-341.8275,97.37
706,229264,1.0553,-0.48116800000000004,-0.539972,-0.35,-353.01,112.49
707,229360,1.08336,-0.374784,-0.46311199999999997,-5.81,-358.8025,128.9225
708,229457,1.150216,-0.31646799999999997,-0.467992,-4.585,-359.4675,144.3225
709,229553,1.260504,-0.258884,-0.503128,2.3975,-354.69,155.785
710,229649,1.3917760000000001,-0.21276799999999998,-0.5511961,8.82,-349.44,162.925
711,229745,1.6023479999999999,-0.157136,-0.596092,13.8775,-344.5575,165.9525
712,229842,1.758996,-0.142984,-0.648308,22.1725,-352.1,162.3475
713,229938,1.8980759999999999,-0.14469200000000002,-0.673928,31.0625,-366.3625,154.0525
714,230034,1.92638,-0.132248,-0.659532,39.935,-383.3025,147.2275
715,230130,1.925648,-0.11834000000000001,-0.618052,49.2975,-393.33,147.14
716,230227,1.986404,-0.11321600000000001,-0.540948,59.045,-393.645,154.21
717,230323,2.034472,-0.0793,-0.437492,68.65250999999999,-384.02,166.32
718,230419,2.227476,-0.06270801,-0.35282399999999997,76.195,-360.885,182.3675
719,230515,2.545408,-0.14566800000000002,-0.23668000000000003,73.57,-329.9275,196.7875
720,230612,2.92678,-0.228384,-0.06954,56.805,-301.3675,197.295
721,230708,3.147112,-0.12566,0.23911999999999997,28.9625,-276.3425,185.7625
722,230804,3.0134,0.11467999999999999,0.776896,2.5725,-259.56,168.6125
723,230900,2.89994,0.34794400000000003,1.375428,-13.02,-223.9825,152.145
724,230997,2.865048,0.434564,1.991284,-7.9625,-175.175,142.9575
725,231093,2.90848,0.532652,2.470012,-2.0475,-115.43,137.1475
726,231189,2.8260080000000003,0.643184,2.760616,-0.9625,-53.34,135.8525
727,231285,2.710352,0.714676,2.7908720000000002,-9.6425,8.1725,132.615
728,231382,2.595184,0.7978801,2.622024,-34.8425,65.94,113.4875
729,231478,2.601284,0.8601,2.2884759999999997,-63.5775,117.81,77.56
730,231574,2.086932,1.103612,1.379576,-73.3075,150.6225,34.9825
731,231670,1.321016,0.061,-0.443104,-56.9275,168.1225,-40.285
732,231767,-1.730204,-0.720776,-3.3293800000000005,27.335,92.155,-63.3325
733,231863,0.171532,-0.364048,-2.107672,41.7375,252.455,-101.0275
734,231959,1.361276,0.517768,0.687348,8.365,274.89,-174.51
735,232055,2.970944,-0.179584,0.13078399999999998,67.0075,294.6125,-153.58
736,232152,3.012424,-0.669292,-0.570472,37.065,267.68,-122.395
737,232248,2.35948,-0.38795999999999997,-0.809348,-5.6875,204.05,-105.8575
738,232344,1.466928,-0.07442,-0.727608,-23.0125,161.525,-80.5875
739,232440,1.319796,-0.564616,-1.092144,-8.2775,150.885,-58.24
740,232537,1.790228,-1.390556,-0.369172,-5.7925,112.245,-30.3975
741,232633,1.436672,-0.07442,-0.468236,-101.3425,73.325,-82.7925
742,232729,1.3856760000000001,-0.073688,-0.7442,-49.0175,48.6325,-63.4025
743,232825,1.003328,-0.41284799999999994,-0.5099600000000001,-37.03,14.1925,-52.535
744,232922,1.069452,-0.213256,-0.6480640000000001,-27.86,15.9775,-36.085
745,233018,0.9098761000000001,-0.205936,-0.624152,-23.45,12.5825,-28.6475
746,233114,0.8220360000000001,-0.416508,-0.547048,-10.0975,10.6575,-14.6475
747,233210,0.8054439999999999,-0.451888,-0.527772,-9.94,9.7125,-12.8275
748,233307,0.772992,-0.39723200000000003,-0.533872,-13.93,6.4575,-17.115
749,233403,0.7793359999999999,-0.342332,-0.548756,-14.175,3.29,-19.3725
750,233499,0.797148,-0.30256,-0.542168,-13.9475,1.7325,-21.49
751,233595,0.771528,-0.265716,-0.5856,-11.515,0.9625,-21.1575
752,233692,0.758108,-0.242292,-0.6156119999999999,-8.82,1.3125,-17.6575
753,233788,0.7551800000000001,-0.268156,-0.595116,-5.0575,3.22,-12.6175
754,233884,0.7515201,-0.282308,-0.587064,-2.0125,4.13,-9.7825
755,233980,0.7417600000000001,-0.285724,-0.5846241,0.525,4.8125,-7.945
756,234077,0.748592,-0.319152,-0.559736,2.275,5.495,-5.6
757,234173,0.7503,-0.34867600000000004,-0.543876,3.01,3.85,-4.76
758,234269,0.757376,-0.366,-0.528748,2.59,1.61,-5.3725
759,234365,0.749324,-0.38503200000000004,-0.531676,0.875,-1.5925,-7.63
760,234462,0.741028,-0.394304,-0.528992,-0.8575,-5.635,-11.235
761,234558,0.7522521,-0.374784,-0.525332,-3.885,-8.8375,-15.435
762,234654,0.767868,-0.349408,-0.530212,-6.2125,-12.215,-19.285
763,234750,0.772748,-0.307684,-0.5892601,-7.665,-15.8375,-22.1025
764,234847,0.797636,-0.242048,-0.588284,-5.215,-12.9325,-20.965
765,234943,0.787144,-0.275964,-0.576572,0.245,-5.4075,-15.61
766,235039,0.77104,-0.278404,-0.5692520000000001,2.5025,0.5775,-12.425
767,235135,0.754692,-0.30841599999999997,-0.562664,3.745,5.67,-11.3925
768,235232,0.749324,-0.32574000000000003,-0.571448,3.78,9.38,-12.075
769,235328,0.7427361,-0.32452,-0.577548,4.8475,11.4975,-13.825
770,235424,0.7622561,-0.30866,-0.576572,5.775,13.9125,-15.6275
771,235520,0.768356,-0.29524,-0.55998,8.015,14.77,-16.87
772,235617,0.784704,-0.291092,-0.561688,8.295,15.925,-17.5
773,235713,0.791292,-0.310368,-0.5502199999999999,10.2025,18.55,-16.9225
774,235809,0.7686,-0.30109600000000003,-0.584136,12.5125,26.565,-16.87
775,235905,0.6973520000000001,-0.266692,-0.7034521,17.2375,38.4825,-17.675
776,236002,0.6405,-0.34404,-0.690764,22.68,63.2625,-20.1425
777,236098,0.687104,-0.242536,-0.7105279999999999,12.565,106.3125,-25.9
778,236194,0.659288,-0.233996,-0.748592,26.985,139.5275,-26.1275
779,236290,0.6844201,-0.232776,-0.759572,27.65,178.1325,-28.8575
780,236387,0.734196,-0.272304,-0.7551800000000001,41.755,206.85,-31.5175
781,236483,1.003572,-0.415288,-0.706624,56.1225,239.26,-40.74
782,236579,0.9562360999999999,-0.448716,-0.8052,67.445,294.4025,-58.8525
783,236675,1.017724,-0.380152,-0.8815719999999999,75.25,366.3625,-84.8575
784,236772,1.454484,-0.5084960000000001,-0.937448,64.8375,488.6525,-107.5725
785,236868,0.273036,-0.6036560999999999,-0.830332,77.5775,569.59,-144.725
786,236964,0.16104000000000002,-0.750788,-0.601704,169.4,573.405,-209.7375
787,237060,1.56892,-0.48092399999999996,-0.68076,249.865,573.405,-292.11
788,237157,3.688792,-0.22448,-0.10492,141.715,573.405,-312.655
789,237253,3.497496,0.17934,0.576328,31.6225,562.345,-249.4625
790,237349,3.175904,-0.8317960999999999,0.331108,50.2075,413.9625,-123.0425
791,237445,1.677744,-1.452776,-0.657092,-9.59,129.5875,-63.8925
792,237542,2.631052,-1.2078,-2.172088,-71.1375,-235.2175,25.3225
793,237638,3.3257199999999996,-1.06994,-2.549068,-30.625,124.3725,127.05
794,237734,1.753384,-0.594384,-2.162328,-18.655,156.135,39.1825
795,237830,2.5268639999999998,-1.380552,-3.301076,18.2525,53.34,-163.4325
796,237927,1.723616,-1.0208959999999998,-2.639592,-16.2925,-55.965,-31.9375
797,238023,0.442616,-0.822524,-2.143784,0.9975,-225.155,-15.61
798,238119,-0.101748,-0.599996,-1.634312,-3.9025,-246.9075,-5.3025
799,238215,-0.031964,-0.597068,-1.308816,8.8375,-239.295,0.8575
800,238312,0.159332,-0.586576,-1.102636,13.2125,-236.075,5.005
801,238408,0.48263199999999995,-0.5653481,-0.9884440000000001,12.6175,-241.045,13.58
802,238504,0.714676,-0.533872,-0.877668,8.295,-260.3475,26.425
803,238600,0.822524,-0.515572,-0.770308,5.495,-290.85,40.6875
804,238697,0.844484,-0.49117200000000005,-0.66978,2.87,-320.39,52.6575
805,238793,0.8967,-0.45335200000000003,-0.585356,1.155,-341.0925,62.5275
806,238889,0.9608721,-0.420412,-0.51972,-0.105,-354.1125,71.505
807,238985,1.057008,-0.396988,-0.459208,0.9975,-363.4575,80.395
808,239082,1.176324,-0.37088000000000004,-0.434808,1.3475,-369.425,88.935
809,239178,1.2822200000000001,-0.363804,-0.4594521,5.215,-375.2175,96.46
810,239274,1.38836,-0.30622,-0.5231359999999999,9.31,-380.6075,102.165
811,239370,1.545496,-0.21106,-0.552416,13.615,-381.045,107.4325
812,239467,1.6213799999999998,-0.117852,-0.549244,24.675,-386.75,108.9025
813,239563,1.7221520000000001,-0.061732,-0.543632,42.0,-395.535,105.035
814,239659,1.777784,-0.05977999999999999,-0.518988,64.1025,-405.4225,97.45749
815,239755,1.844152,-0.09345201,-0.48653599999999997,89.7575,-412.0375,92.0675
816,239852,1.9366279999999998,-0.182024,-0.437492,113.61,-410.9,94.53501
817,239948,1.9720080000000002,-0.289628,-0.387716,130.41,-403.4275,106.365
818,240044,2.031056,-0.32086,-0.33305999999999997,133.0875,-381.3425,124.6875
819,240141,2.244068,-0.28328400000000004,-0.266204,125.72,-344.9075,146.685
820,240237,2.616168,-0.223016,-0.175924,112.35,-305.5675,164.395
821,240333,2.967772,-0.10687200000000001,0.0366,93.2925,-277.375,169.785
822,240429,2.8609,0.128588,0.355996,72.205,-257.635,164.5525
823,240526,2.755248,0.540948,0.7600600000000001,55.1075,-227.9725,152.39
824,240622,2.6898560000000002,0.59536,1.191452,57.015,-194.0225,146.09
825,240718,2.684488,0.607316,1.6682279999999998,54.46,-147.245,136.92
826,240814,2.8121,0.46774799999999994,2.057896,39.6375,-98.54251,122.57
827,240911,2.614216,0.6029241,2.333616,1.855,-56.875,95.41
828,241007,2.3968119999999997,0.8637601,2.4051080000000002,-36.3825,-10.045,65.43251
829,241103,2.192584,0.812276,2.167696,-51.8,41.72,44.0825
830,241199,2.300188,0.656848,1.8458599999999998,-58.5725,107.66,4.3225
831,241296,1.178276,0.643672,1.249768,-65.3275,161.6825,-60.9
832,241392,0.312076,-0.451888,-2.3075080000000003,-20.055,164.15,-79.5025
833,241488,0.05587601,-0.566812,-2.573956,10.99,225.5225,-91.2625
834,241584,0.73078,0.645868,0.1403,-14.0525,211.225,-176.295
835,241681,2.285548,0.35746,0.01098,17.465,264.3725,-172.8125
836,241777,2.872368,-0.471164,-0.5343600000000001,46.2,257.95,-125.9125
837,241873,2.255536,-0.5594920999999999,-0.4697,-1.4,193.1475,-123.375
838,241969,1.5967360000000002,-0.564616,-0.6673399999999999,-19.145,158.41,-99.9425
839,242066,1.14924,-0.21447600000000003,-0.745908,-34.44,155.8025,-68.5125
840,242162,2.152568,-1.271484,-0.9489161,-28.7525,139.37,-35.735
841,242258,1.5225600000000001,-0.085888,-0.416996,-109.3575,86.8875,-70.0
842,242354,1.5018200000000002,-0.12468399999999999,-0.635376,-70.595,46.725,-77.7175
843,242451,1.1631479999999998,-0.13151600000000002,-0.646844,-53.5325,21.105,-63.9625
844,242547,1.137528,-0.10516400000000001,-0.6392800000000001,-32.41,7.315,-49.77
845,242643,0.917684,-0.173728,-0.6197600000000001,-20.335,5.985,-31.7625
846,242739,0.820084,-0.36575599999999997,-0.562908,-6.6675,6.86,-17.0625
847,242836,0.782752,-0.41992399999999996,-0.543144,-8.05,7.735,-15.575
848,242932,0.772748,-0.37088000000000004,-0.555588,-10.115,5.7925,-18.1475
849,243028,0.790072,-0.26718000000000003,-0.581208,-12.3725,3.9725,-19.88
850,243125,0.79056,-0.23521599999999998,-0.6070720000000001,-9.6075,4.0425,-16.625
851,243221,0.7617681,-0.313784,-0.5856,-3.78,4.0075,-11.8125
852,243317,0.754204,-0.275964,-0.5936520000000001,-2.03,5.18,-10.6575
853,243413,0.767868,-0.269376,-0.584136,-0.8575,6.9825,-10.045
854,243510,0.7605481,-0.264008,-0.5814520000000001,1.3475,7.5075,-8.645
855,243606,0.7771399999999999,-0.30402399999999996,-0.5502199999999999,3.255,8.8725,-6.9125
856,243702,0.759572,-0.359412,-0.54168,5.11,9.17,-5.46
857,243798,0.745664,-0.41455600000000004,-0.53314,4.725,8.645,-6.86
858,243895,0.7600600000000001,-0.423828,-0.5070319999999999,2.45,7.805,-11.55
859,243991,0.780556,-0.36892800000000003,-0.515328,-0.5425,7.0,-16.5025
860,244087,0.797148,-0.31524800000000003,-0.530456,-1.4175,5.81,-18.69
861,244183,0.8222799999999999,-0.28157600000000005,-0.5260640000000001,-0.9625,7.1925,-17.9025
862,244280,0.812276,-0.27523200000000003,-0.544852,0.455,11.1825,-14.735
863,244376,0.807396,-0.263764,-0.550952,2.66,12.845,-11.0775
864,244472,0.803492,-0.274256,-0.545096,4.2875,14.945,-7.5775
865,244568,0.796904,-0.28914,-0.5382640000000001,5.9325,16.415,-4.4975
866,244665,0.7890961,-0.288652,-0.5309441,6.9825,17.5875,-3.2375
867,244761,0.7991,-0.28914,-0.5172800999999999,7.0875,18.27,-3.675
868,244857,0.791048,-0.285724,-0.523868,7.0,18.515,-1.505
869,244953,0.7954399999999999,-0.306952,-0.518744,6.9125,17.885,-2.275
870,245050,0.807396,-0.292556,-0.50874,6.2475,18.2875,-2.065
871,245146,0.8030041,-0.29036,-0.515084,6.685,17.255,-3.36
872,245242,0.8015399999999999,-0.30475599999999997,-0.5294800000000001,7.035,17.675,-3.36
873,245338,0.7944641,-0.343796,-0.5170359999999999,7.07,19.5475,-4.8825
874,245435,0.7986121,-0.33428,-0.49605200000000005,4.6375,21.7175,-8.2425
875,245531,0.79422,-0.36648800000000004,-0.4941,0.8925,22.715,-11.4625
876,245627,0.771772,-0.377712,-0.510692,2.695,21.4725,-14.84
877,245723,0.750788,-0.38674000000000003,-0.528992,1.7675,26.1275,-20.195
878,245820,0.7610359999999999,-0.344528,-0.548024,3.115,34.9825,-26.3025
879,245916,0.775188,-0.295484,-0.565836,4.41,45.5525,-31.535
880,246012,0.769576,-0.275476,-0.5577840000000001,7.9625,56.4725,-33.67
881,246109,0.766892,-0.25254,-0.5795,11.935,70.49,-33.705
882,246205,0.773968,-0.256444,-0.6029241,17.22,86.45,-33.145
883,246301,0.7639640999999999,-0.269376,-0.627568,24.8325,103.985,-33.145
884,246397,0.7822640000000001,-0.303292,-0.666608,33.5825,126.1575,-36.785
885,246493,0.959408,-0.426756,-0.6790520999999999,44.1175,160.0725,-45.4475
886,246590,0.8532681000000001,-0.363072,-0.6722199999999999,46.5675,212.0475,-64.365
887,246686,1.001376,-0.37746799999999997,-0.613904,54.2325,267.75,-82.04
888,246782,1.14924,-0.292312,-0.684664,60.9525,344.4,-97.9475
889,246878,1.1209360000000002,-0.41382399999999997,-0.8666879999999999,75.88,445.55,-108.8325
890,246975,0.6273241,-0.5458281,-1.019432,139.1775,541.975,-124.1975
891,247071,1.06018,-0.599508,-0.9152440000000001,221.0775,572.7925,-154.525
892,247167,1.7275200000000002,-0.419192,-0.406748,275.66,573.405,-178.0625
893,247263,2.80112,-0.368684,0.28914,238.56,560.8225,-162.3825
894,247360,3.22568,-0.233508,0.143228,193.1475,455.5775,-97.8425
895,247456,2.773792,-0.708332,-0.044652,206.1675,293.545,-6.1775
896,247552,1.920768,-1.1102,-0.9652639999999999,200.76,101.29,47.8975
897,247648,2.0154400000000003,-1.658468,-1.7443560000000002,191.7825,-126.7175,97.21251
898,247745,2.432436,-0.876692,-2.074732,212.415,-92.3825,200.97
899,247841,0.782508,-0.563884,-1.94346,221.1475,31.78,7.245
900,247937,1.680916,-1.43838,-2.3018959999999997,242.9175,-62.58,-93.555
901,248033,0.445788,-1.0060120000000001,-1.6469999999999998,185.955,-143.2025,6.1775
902,248130,-0.27205999999999997,-0.944524,-1.268556,178.64,-210.84,26.0925
903,248226,-0.25742,-0.638792,-1.11874,135.205,-172.0075,49.77
904,248322,0.026108,-0.44773999999999997,-1.1209360000000002,115.22,-153.615,81.97001
905,248418,0.296704,-0.213988,-1.1533879999999999,91.3675,-140.385,120.47
906,248515,0.5397281,0.02562,-1.1956,74.7425,-148.645,154.455
907,248611,0.8344801,0.270352,-1.2458639999999999,60.5675,-163.7825,180.0925
908,248707,1.010648,0.533384,-1.236104,53.55,-192.99,194.0925
909,248803,1.138992,0.781044,-1.20292,53.48,-226.8,193.795
910,248900,1.218292,1.079212,-1.101172,63.7,-259.3675,181.72
911,248996,1.229516,1.3054,-0.979416,85.27750999999999,-287.385,165.935
912,249092,1.267336,1.49328,-0.8466800999999999,113.7675,-306.6175,143.4825
913,249188,1.3473680000000001,1.597468,-0.753228,144.5325,-319.8825,115.8675
914,249285,1.488888,1.6206479999999999,-0.685396,174.545,-328.615,85.92501
915,249381,1.598932,1.554768,-0.6456241,198.275,-335.965,57.9425
916,249477,1.7043400000000002,1.43716,-0.605364,214.4275,-342.7375,34.9125
917,249573,1.702388,1.348344,-0.5294800000000001,222.3375,-350.4725,15.5925
918,249670,1.592344,1.3268719999999998,-0.43334399999999995,225.4175,-355.1275,-0.805
919,249766,1.475468,1.277096,-0.36209600000000003,227.7275,-350.805,-12.2325
920,249862,1.4186159999999999,1.1751040000000001,-0.320616,229.635,-335.5975,-21.595
921,249958,1.5433,0.9328120000000001,-0.304512,228.83,-313.5825,-31.57
922,250055,1.896856,0.71248,-0.30792800000000004,221.34,-293.545,-38.0625
923,250151,2.047892,0.5043479999999999,-0.197152,206.675,-289.625,-35.5425
924,250247,1.9010040000000001,0.454084,0.00122,184.2575,-288.7325,-32.2
925,250343,1.868552,0.48922,0.146644,162.085,-272.51,-36.12
926,250440,1.996164,0.596336,0.273524,148.26,-245.8925,-46.655
927,250536,2.082296,0.7139439999999999,0.398452,148.9775,-222.355,-55.4225
928,250632,2.133536,0.8522921,0.5063,165.76,-199.3425,-59.955
929,250728,2.178188,0.9850280999999999,0.6258600000000001,195.5275,-178.3775,-63.63
930,250825,2.186484,1.051884,0.821304,230.9125,-159.075,-68.3375
931,250921,2.149396,0.9655081,1.0208959999999998,262.8325,-143.64,-77.315
932,251017,2.06668,0.8256960999999999,1.148752,275.8175,-127.575,-95.235
933,251113,1.9368720000000001,0.7388319999999999,1.255136,267.6625,-109.62,-119.0525
934,251210,1.776564,0.6304960000000001,1.299544,253.575,-88.3575,-136.5875
935,251306,1.6696919999999997,-0.006832001,1.343708,241.115,-64.1375,-144.8475
936,251402,1.574044,-0.24936799999999998,1.1350879999999999,175.7175,-33.425,-175.455
937,251498,1.96786,-3.195668,1.149972,89.3025,-35.0875,-152.3375
938,251595,0.1647,-2.549068,1.4959639999999998,-109.69,-25.1825,-142.1525
939,251691,1.478884,-0.450912,-1.0309,-175.1925,44.4675,-161.1925
940,251787,2.072048,0.082716,-1.580388,-187.0225,27.65,-202.51
941,251883,1.507188,0.65758,-1.3139399999999999,-112.805,-135.6775,-191.45
942,251979,0.9825879999999999,0.262544,-0.612196,-66.815,-114.205,-137.935
943,252076,0.783972,-0.244488,-0.644404,-30.905,-90.37001,-73.09751
944,252172,0.73078,-0.270108,-0.598532,-50.05,-39.4275,-30.8875
945,252268,0.788852,-0.187148,-0.61,-52.5,-16.1525,-8.6625
946,252364,0.815448,0.057828,-0.677344,-54.81,-5.9675,-2.7475
947,252461,0.8862081,0.203008,-0.68686,-45.7625,-0.7875,-2.065
948,252557,0.883524,0.24131599999999997,-0.685396,-30.2575,1.9075,-2.7125
949,252653,0.8459479999999999,0.024156,-0.6368401,-13.3875,1.33,-6.37
950,252749,0.79056,-0.22204000000000002,-0.5978,-2.555,2.0825,-6.79
951,252845,0.790804,-0.2623,-0.5892601,-0.5775,3.92,-6.265
952,252942,0.797392,-0.279624,-0.57706,-1.19,4.7425,-7.735
953,253038,0.7883640000000001,-0.279868,-0.57706,-0.455,4.3925,-7.875
954,253134,0.7893399999999999,-0.30036399999999996,-0.5777920999999999,1.155,3.36,-7.1225
955,253230,0.7986121,-0.2989,-0.55388,1.3125,2.6075,-7.14
956,253327,0.80276,-0.2806,-0.568764,1.3125,0.315,-7.42
957,253423,0.79056,-0.27523200000000003,-0.5751081,1.2075,-3.325,-8.05
958,253519,0.789828,-0.3233,-0.54778,1.8025,-5.215,-8.82
959,253615,0.787632,-0.260104,-0.55632,2.485,-5.8625,-9.695
960,253711,0.775676,-0.260348,-0.5694961,3.535,-5.04,-9.1875
961,253808,0.789828,-0.25351599999999996,-0.563884,4.8825,-3.43,-8.295
962,253904,0.791292,-0.256444,-0.556808,6.5625,-2.5025,-7.14
963,254000,0.776408,-0.269864,-0.558272,7.07,-2.9225,-7.0
964,254096,0.781532,-0.272548,-0.559248,6.965,-3.08,-7.63
965,254193,0.7808001,-0.277428,-0.5551,7.2275,-3.08,-8.2425
966,254289,0.7822640000000001,-0.2806,-0.5546121,7.28,-3.6575,-9.17
967,254385,0.775676,-0.292312,-0.554124,7.5425,-4.3925,-10.15
968,254481,0.780068,-0.289628,-0.546072,7.245,-4.865,-11.305
969,254577,0.7673800000000001,-0.30256,-0.535824,7.5775,-5.845,-12.8975
970,254674,0.76372,-0.26913200000000004,-0.54778,8.9075,-5.985,-15.3125
971,254770,0.7673800000000001,-0.25986,-0.5553441,12.8975,-4.6025,-17.36
972,254866,0.7600600000000001,-0.249612,-0.56242,20.5275,-2.1,-19.53
973,254962,0.7686,-0.254004,-0.552904,28.735,2.2225,-21.91
974,255059,0.7829961,-0.299388,-0.5233800000000001,39.2875,6.1775,-24.7275
975,255155,0.79056,-0.337452,-0.504104,50.2425,8.435,-29.5225
976,255251,0.797148,-0.327448,-0.5060560000000001,59.1325,9.73,-35.63
977,255347,0.7722600000000001,-0.372832,-0.5099600000000001,68.88,9.835,-42.2975
978,255444,0.776896,-0.37258800000000003,-0.5063,75.7925,11.375,-50.26
979,255540,0.786412,-0.377956,-0.49995600000000007,85.76751,14.28,-58.7125
980,255636,0.774212,-0.38308000000000003,-0.557052,95.34,18.9175,-67.06
981,255732,0.774944,-0.309392,-0.5502199999999999,100.38,29.9775,-76.615
982,255829,0.8020281,-0.339404,-0.488,107.4325,45.01,-83.0025
983,255925,0.8174001000000001,-0.305,-0.483364,119.595,51.765,-86.625
984,256021,0.831308,-0.30744,-0.494588,127.82,57.12,-87.3775
985,256117,0.8244761,-0.27718400000000004,-0.49044,130.655,59.2025,-87.185
986,256213,0.846924,-0.24351199999999998,-0.490684,130.375,63.35,-84.665
987,256310,0.84546,-0.22814,-0.502884,129.71,67.3575,-81.39251
988,256406,0.830576,-0.233752,-0.5185,129.395,73.3425,-79.0125
989,256502,0.8405800999999999,-0.213988,-0.50508,129.395,82.775,-77.3675
990,256598,0.8808401,-0.228384,-0.503616,129.0275,102.5675,-77.40250999999999
991,256695,0.9191481,-0.250344,-0.50752,127.3125,127.4525,-78.7675
992,256791,0.9152440000000001,-0.23521599999999998,-0.49898000000000003,126.315,152.11,-80.97251
993,256887,0.9852719999999999,-0.254736,-0.479216,125.195,181.0025,-83.895
994,256983,1.0004,-0.21301199999999998,-0.491904,116.6725,220.045,-87.85
995,257080,1.121912,-0.20374,-0.48068,108.7275,267.085,-87.64
996,257176,0.8015399999999999,-0.159576,-0.505568,106.9425,322.2275,-84.07001
997,257272,0.973316,-0.16226,-0.554124,121.45,373.2225,-75.21500999999999
998,257368,1.05774,-0.134444,-0.636596,141.085,426.9825,-67.62001
999,257465,0.8413120000000001,-0.131028,-0.5441199999999999,182.175,470.33,-57.925
1000,257561,0.9010921000000001,0.072712,-0.42944,237.685,487.305,-50.925
1001,257657,1.2822200000000001,0.056852,-0.343796,250.9325,513.31,-25.1475
1002,257753,1.7021439999999999,-0.037088,0.154696,200.655,557.97,-1.26
1003,257850,2.3489880000000003,0.101016,0.783972,129.64,547.82,13.8075
1004,257946,2.49612,-0.029524,0.787388,94.02750999999999,445.0425,50.0675
1005,258042,2.481236,-0.124196,0.6439159999999999,85.8725,311.395,95.3925
1006,258138,1.938336,-0.275964,0.043676,76.0025,132.3175,132.965
1007,258234,1.859768,-1.0138200000000002,-2.755004,4.165,-177.905,166.8275
1008,258331,1.895636,-1.284416,-0.8723001,89.6175,-180.3725,162.68
1009,258427,3.436984,-0.17202,-1.557208,44.3275,135.59,192.64
1010,258523,2.112552,-0.46018400000000004,-2.57908,112.6475,78.48751,138.285
1011,258619,3.0634200000000003,-1.032852,-3.181028,158.8125,-59.5175,-4.9
1012,258716,1.173152,-0.12444000000000001,-2.4209680000000002,125.1775,-194.25,40.005
1013,258812,0.492392,0.01708,-1.9832319999999999,169.12,-292.1975,12.53
1014,258908,0.770308,0.184952,-1.7572880000000002,173.11,-273.735,-5.0575
1015,259004,1.020408,0.11736400000000001,-1.57502,209.265,-293.895,-3.29
1016,259101,1.047736,0.021472,-1.407636,228.2875,-320.32,18.585
1017,259197,1.108004,-0.057096,-1.264896,232.2075,-346.2725,52.045
1018,259293,1.1041,-0.09418401,-1.158512,213.36,-366.9925,79.7475
1019,259389,1.117032,-0.038064,-1.062132,178.85,-381.5875,93.45
1020,259486,1.1594879999999999,0.106628,-0.9825879999999999,136.535,-386.5225,98.47251
1021,259582,1.230004,0.251564,-0.9001161,100.4325,-388.36,99.75
1022,259678,1.338584,0.426756,-0.869128,73.92,-387.1175,102.585
1023,259774,1.373232,0.548512,-0.791048,58.38,-385.245,112.7525
1024,259871,1.41154,0.639768,-0.746396,48.265,-381.7625,119.945
1025,259967,1.506456,0.7415161,-0.7156520000000001,37.8,-376.4425,115.815
1026,260063,1.613328,0.8713241,-0.707356,28.98,-372.7325,99.0675
1027,260159,1.7694880000000002,0.965752,-0.696376,28.07,-371.8575,74.9
1028,260256,1.86904,0.9296399999999999,-0.676856,38.5,-378.6475,50.8025
1029,260352,1.937116,0.800808,-0.643428,54.4075,-387.765,30.905
1030,260448,1.891488,0.579256,-0.563396,70.4375,-396.095,18.165
1031,260544,1.828048,0.418704,-0.43212399999999995,81.4975,-401.24,13.1775
1032,260641,1.778028,0.2318,-0.255468,86.22251,-396.6725,14.385
1033,260737,1.790716,0.072712,-0.053924,88.4975,-382.0075,19.7925
1034,260833,1.873676,-0.1159,0.124196,90.3175,-357.105,27.9825
1035,260929,2.024712,-0.24888000000000002,0.335988,88.8125,-322.455,42.84
1036,261026,2.164768,-0.366976,0.5987760999999999,79.6775,-282.1875,62.9825
1037,261122,2.379244,-0.381128,0.818376,65.415,-240.625,78.7675
1038,261218,2.549556,-0.186904,1.080188,46.27,-199.745,85.8025
1039,261314,2.5378439999999998,0.09150001,1.3668879999999999,31.5175,-165.8125,84.315
1040,261411,2.4912400000000003,0.335256,1.587952,27.895,-130.7775,72.6425
1041,261507,2.460252,0.39405999999999997,1.78486,35.4375,-96.4775,54.46
1042,261603,2.364848,0.35038400000000003,1.9185720000000002,43.2075,-64.925,33.425
1043,261699,2.257732,0.185928,1.94712,43.4175,-33.0925,16.3625
1044,261796,2.102304,0.087108,1.8824599999999998,29.9775,-0.3675,3.3425
1045,261892,1.727032,-0.160064,1.6799400000000002,9.03,30.2925,-3.745
1046,261988,1.7028759999999998,0.182756,1.720932,-17.115,84.10501,-26.8625
1047,262084,0.56608,0.008052001,0.966484,-24.045,123.27,-52.9025
1048,262181,0.735172,-1.0145520000000001,-1.6918959999999998,-0.6825,139.5625,-43.505
1049,262277,-0.54778,-0.90646,-1.9595639999999999,-5.005,148.925,-62.2825
1050,262373,1.58112,0.368684,-0.47823999999999994,-24.0975,201.4775,-138.565
1051,262470,3.56606,0.336964,-0.170312,-30.6075,247.4325,-133.7525
1052,262566,2.817956,0.084912,-0.8744960999999999,3.535,153.125,-95.6025
1053,262662,1.659688,-0.152988,-0.9267120000000001,-11.27,80.97251,-87.99
1054,262758,0.410652,-0.412116,-0.469944,-5.5125,35.2275,-80.2375
1055,262854,0.25058800000000003,-0.565104,-0.42822,-7.63,58.975,-67.7075
1056,262951,0.731268,-0.321836,-0.565104,-17.7625,98.75251,-55.9125
1057,263047,2.1996599999999997,-0.8759601,-1.030168,-20.65,101.64,-42.9625
1058,263143,1.6084479999999999,0.146644,-0.553636,-69.9475,55.7725,-51.555
1059,263239,0.998692,-0.10906800000000001,-0.692472,-36.4525,11.5675,-55.545
1060,263336,0.9730721,-0.260348,-0.6517241,-24.9375,4.515,-38.78
1061,263432,0.9684360999999999,-0.359656,-0.542412,-16.9925,-7.1225,-33.7575
1062,263528,0.893284,-0.35038400000000003,-0.524356,-17.9375,-9.835,-31.7275
1063,263624,0.8247200000000001,-0.31890799999999997,-0.564128,-18.4275,-14.0525,-32.3925
1064,263721,0.830332,-0.298656,-0.5553441,-19.9675,-13.0725,-31.255
1065,263817,0.8113001,-0.264252,-0.5587601,-20.055,-13.7375,-30.2925
1066,263913,0.8249639999999999,-0.198128,-0.583648,-21.7525,-14.2625,-32.0425
1067,264009,0.7732359999999999,-0.282796,-0.5968241,-19.6525,-18.13,-33.7225
1068,264105,0.7820199999999999,-0.278648,-0.6097560000000001,-19.8275,-18.69,-32.585
1069,264202,0.788608,-0.264252,-0.598532,-19.145,-17.6925,-30.135
1070,264298,0.789828,-0.23228800000000002,-0.585356,-17.22,-16.87,-27.23
1071,264394,0.787876,-0.203008,-0.580232,-15.6275,-15.4875,-23.9925
1072,264490,0.7754321,-0.23911999999999997,-0.604876,-12.9325,-15.645,-20.44
1073,264587,0.7895840999999999,-0.22033200000000003,-0.5975560000000001,-11.4275,-14.315,-18.795
1074,264683,0.790072,-0.225456,-0.5958479999999999,-10.255,-11.0425,-17.7275
1075,264779,0.7673800000000001,-0.23228800000000002,-0.60512,-7.7875,-8.75,-17.3775
1076,264875,0.7610359999999999,-0.271572,-0.590236,-6.1075,-6.5975,-18.235
1077,264972,0.74542,-0.271816,-0.593896,-6.1075,-6.615,-19.8275
1078,265068,0.71492,-0.24156,-0.611464,-7.0875,-9.275,-21.4725
1079,265164,0.687104,-0.248392,-0.626104,-7.21,-12.985,-22.1375
1080,265260,0.6653880999999999,-0.256932,-0.64172,-6.3,-16.3975,-21.6825
1081,265357,0.686372,-0.21716,-0.642696,-6.615,-17.15,-22.2775
1082,265453,0.7134560999999999,-0.182024,-0.636108,-4.9175,-17.7625,-23.3275
1083,265549,0.72712,-0.17397200000000002,-0.625128,-3.2375,-16.8525,-22.5575
1084,265645,0.716384,-0.185684,-0.624152,-0.63,-17.255,-20.5975
1085,265742,0.7198,-0.188368,-0.635376,1.015,-17.7975,-19.0575
1086,265838,0.6883239999999999,-0.174216,-0.650748,3.2025,-16.3975,-17.5875
1087,265934,0.7105279999999999,-0.174216,-0.650016,7.805,-13.335,-16.52
1088,266030,0.7378560000000001,-0.20374,-0.6514800000000001,10.2725,-7.595,-17.325
1089,266127,0.764696,-0.196664,-0.6283,13.65,-1.995,-18.06
1090,266223,0.7922680000000001,-0.23228800000000002,-0.6168319999999999,17.605,6.6325,-18.8125
1091,266319,0.748836,-0.244732,-0.624152,23.0125,15.3125,-19.2325
1092,266415,0.765672,-0.195688,-0.652944,19.8975,31.9025,-20.09
1093,266512,0.734196,-0.21813600000000002,-0.66856,20.3875,49.4025,-18.83
1094,266608,0.71614,-0.131272,-0.8176439999999999,17.255,72.275,-18.235
1095,266704,0.69662,-0.17128800000000002,-0.7788480999999999,13.58,104.37,-15.8025
1096,266800,0.643184,-0.19885999999999998,-0.813984,19.88,143.9025,-13.79
1097,266897,0.688812,-0.235704,-0.8244761,16.38,192.815,-18.795
1098,266993,0.661972,-0.261324,-0.8308200000000001,22.33,230.7725,-26.53
1099,267089,0.711016,-0.308904,-0.815448,29.7325,259.7875,-39.8825
1100,267185,1.026508,-0.320616,-0.7673800000000001,36.155,290.395,-61.74
1101,267282,1.050664,-0.27523200000000003,-0.8113001,30.0475,362.46,-92.6625
1102,267378,1.175592,-0.295484,-0.9730721,22.995,465.01,-121.1875
1103,267474,0.8676640999999999,-0.529968,-0.9684360999999999,6.8775,563.4125,-152.0925
1104,267570,0.26913200000000004,-0.879376,-0.9642879999999999,40.8625,573.405,-213.9375
1105,267667,0.591212,-0.535824,-0.7041841,106.505,573.3875,-315.14
1106,267763,2.784284,-0.2257,-0.35746,126.4375,573.405,-346.185
1107,267859,3.04878,-0.202764,0.57584,78.995,573.405,-288.7675
1108,267955,4.000136,0.013908000000000002,1.247084,51.31,550.06,-222.3025
1109,268052,3.216164,-0.6080479999999999,0.384056,54.67,321.79,-133.315
1110,268148,1.753872,-1.625284,-1.616744,81.1475,-65.135,-13.3
1111,268244,2.7284080000000004,-1.298324,-1.903444,44.765,-320.0225,152.7925
1112,268340,2.393884,-1.8419560000000001,-2.587376,-58.1,168.2275,189.455
1113,268436,2.304824,-1.468636,-2.8748080000000003,-10.7625,100.0475,-125.4575
1114,268533,2.3780240000000004,-1.417152,-3.017548,0.7,35.5075,-68.1625
1115,268629,1.1831559999999999,-1.295884,-2.4270680000000002,-15.925,-139.825,3.5
1116,268725,0.325496,-0.8676640999999999,-1.7921799999999999,-17.8675,-212.45,31.7275
1117,268821,0.035868000000000004,-0.653432,-1.395924,-14.175,-228.375,48.055
1118,268918,0.25986,-0.514108,-1.194624,-8.0325,-215.845,63.805
1119,269014,0.556808,-0.43236800000000003,-1.0675,-4.4625,-218.26,79.5375
1120,269110,0.7449321,-0.388936,-0.9684360999999999,-3.255,-238.28,93.415
1121,269206,0.8344801,-0.3233,-0.8725440999999999,-4.62,-266.28,105.56
1122,269303,0.8786440999999999,-0.268888,-0.7986121,-8.085,-292.81,114.52
1123,269399,0.9225639999999999,-0.20105599999999998,-0.720288,-12.46,-313.5825,119.5075
1124,269495,1.004548,-0.1159,-0.6409881,-15.995,-328.09,122.1675
1125,269591,1.0345600000000001,-0.043432,-0.5648601,-14.9625,-339.885,124.075
1126,269688,1.091656,0.0,-0.542412,-7.07,-349.405,124.1975
1127,269784,1.2021879999999998,-0.002196,-0.51972,3.2025,-352.8875,123.1125
1128,269880,1.283928,-0.006587999999999999,-0.5104479999999999,14.4725,-357.5775,120.61
1129,269976,1.3771360000000001,-0.002196,-0.5170359999999999,25.2,-360.255,116.795
1130,270073,1.525976,0.018788,-0.537044,35.385,-359.905,111.2825
1131,270169,1.663348,0.025376,-0.517524,48.2125,-363.37,105.0525
1132,270265,1.718492,-0.023912,-0.480192,63.2275,-372.785,98.9975
1133,270361,1.730204,-0.140544,-0.45725600000000005,77.5075,-382.9,95.795
1134,270458,1.7511880000000002,-0.24644000000000002,-0.438224,86.765,-388.22,99.505
1135,270554,1.771928,-0.34477199999999997,-0.42700000000000005,88.62,-385.0525,113.5925
1136,270650,1.867576,-0.372832,-0.382836,83.0025,-370.7375,137.235
1137,270746,2.0498439999999998,-0.401136,-0.262788,71.575,-345.73,165.76
1138,270843,2.195024,-0.39528,-0.07832401,51.905,-320.075,189.945
1139,270939,2.362896,-0.337208,0.12029200000000001,22.2075,-289.66,202.44
1140,271035,2.605676,-0.251808,0.300608,-10.4475,-253.6625,202.3525
1141,271131,2.80356,-0.08442401,0.533872,-39.3925,-220.8325,191.7475
1142,271228,2.8975,0.167384,0.822524,-57.61,-192.3775,178.185
1143,271324,2.825764,0.34721199999999997,1.181936,-55.37,-170.0475,166.495
1144,271420,2.869684,0.38674000000000003,1.59576,-41.5275,-136.3775,155.155
1145,271516,2.672776,0.402844,2.037644,-28.8925,-105.9625,136.43
1146,271613,2.492216,0.48824399999999996,2.316536,-26.1625,-61.7225,110.6
1147,271709,2.4634240000000003,0.543388,2.377536,-24.9375,-9.17,85.05
1148,271805,2.2189360000000002,0.371368,2.132804,-24.9725,36.6275,60.7075
1149,271901,2.337764,0.54168,1.95566,-27.51,93.6075,18.7075
1150,271998,1.778516,0.4933681,1.975424,-20.475,138.145,-34.825
1151,272094,0.338428,0.012444,-1.102392,1.4525,168.0875,-70.385
1152,272190,0.3721,-0.295484,-2.926536,23.3275,227.5875,-78.9075
1153,272286,1.031876,0.32696,-0.597068,40.0225,232.4175,-108.325
1154,272382,2.397056,-0.020252000000000003,0.3477,52.2025,268.8875,-96.74
1155,272479,3.12564,-0.549732,-0.534116,53.76,276.605,-75.4075
1156,272575,2.700592,-0.47360399999999997,-0.8703481,18.69,211.295,-77.07
1157,272671,1.565016,-0.316224,-0.6688041,4.7775,137.025,-64.8725
1158,272767,0.849608,-0.305244,-0.648552,5.2675,115.85,-49.35
1159,272864,0.56852,-0.195932,-0.6304960000000001,12.0225,120.155,-34.93
1160,272960,1.467172,-1.286124,-0.828624,23.38,127.645,-18.83
1161,273056,1.909544,-0.671488,-0.305,-24.36,100.6425,-11.3575
1162,273152,1.3590799999999998,-0.27523200000000003,-0.5206960999999999,-60.6025,45.955,-65.50251
1163,273249,1.010404,-0.24888000000000002,-0.657092,-26.915,23.8525,-39.7425
1164,273345,0.8174001000000001,-0.410408,-0.490196,-22.82,11.55,-36.995
1165,273441,0.9503799999999999,-0.40967600000000004,-0.533384,-22.7675,17.3775,-28.9275
1166,273537,0.8103239999999999,-0.41723999999999994,-0.542168,-22.05,5.95,-31.3075
1167,273634,0.823256,-0.38918,-0.537776,-22.54,5.145,-30.555
1168,273730,0.8276481,-0.331352,-0.5663239999999999,-22.2075,3.1325,-30.1525
1169,273826,0.80276,-0.310368,-0.573156,-20.51,0.3675,-28.245
1170,273922,0.7944641,-0.290848,-0.565104,-17.5875,-3.045,-26.845
1171,274019,0.790804,-0.27938,-0.565836,-14.8925,-4.375,-26.425
1172,274115,0.781776,-0.256444,-0.570472,-11.9,-4.865,-24.3425
1173,274211,0.776408,-0.257176,-0.57218,-9.415,-4.165,-20.825
1174,274307,0.768112,-0.281332,-0.568032,-7.0,-3.3425,-17.045
1175,274404,0.7571321,-0.302072,-0.552172,-6.0375,-2.7825,-15.015
1176,274500,0.762012,-0.31402800000000003,-0.5458281,-6.16,-3.675,-14.7525
1177,274596,0.769576,-0.300852,-0.5429,-6.615,-5.8275,-15.5225
1178,274692,0.749568,-0.321104,-0.549244,-6.965,-8.085,-16.3275
1179,274789,0.7442,-0.347456,-0.5321640000000001,-7.105,-11.8125,-17.4825
1180,274885,0.7734800000000001,-0.346236,-0.539484,-10.99,-15.12,-20.405
1181,274981,0.772748,-0.351116,-0.554124,-13.4925,-20.755,-25.095
1182,275077,0.779824,-0.327692,-0.5653481,-13.7375,-25.515,-27.2125
1183,275174,0.774212,-0.32086,-0.5694961,-12.7925,-27.9825,-27.6675
1184,275270,0.773724,-0.28304,-0.58682,-11.865,-27.895,-27.72
1185,275366,0.781044,-0.251808,-0.5987760999999999,-10.1675,-25.0775,-27.405
1186,275463,0.774212,-0.23448400000000003,-0.599996,-7.4725,-19.3025,-23.695
1187,275559,0.755912,-0.256444,-0.595604,-4.095,-13.3,-20.1075
1188,275655,0.748104,-0.279868,-0.583648,-1.75,-8.015,-18.0425
1189,275751,0.733708,-0.292556,-0.57096,-0.6475,-3.78,-18.3925
1190,275847,0.741028,-0.304268,-0.5785241,0.0525,-1.4,-20.195
1191,275944,0.734196,-0.30134,-0.5914560000000001,0.0525,0.9975,-21.6825
1192,276040,0.745908,-0.273768,-0.599264,0.21,3.78,-22.7675
1193,276136,0.7478600000000001,-0.25424800000000003,-0.636596,3.3425,7.315,-22.925
1194,276232,0.768112,-0.241804,-0.6280560000000001,8.925,16.2575,-21.84
1195,276329,0.7476161,-0.243756,-0.6378159999999999,14.9975,29.89,-20.0375
1196,276425,0.7078439999999999,-0.271816,-0.68076,20.4575,45.85,-18.7775
1197,276521,0.6319600000000001,-0.190564,-0.794708,22.05,71.3475,-19.6875
1198,276617,0.7046720999999999,-0.259372,-0.7283400999999999,17.92,113.12,-20.265
1199,276714,0.6505041,-0.239852,-0.764208,24.0275,151.06,-21.28
1200,276810,0.6795401,-0.23424,-0.776896,26.2675,189.3675,-24.7975
1201,276906,0.6883239999999999,-0.235704,-0.778604,36.0675,218.9425,-28.3325
1202,277002,0.757376,-0.269376,-0.75274,49.6125,244.8425,-36.2425
1203,277099,1.11264,-0.447008,-0.781044,64.96,292.81,-51.4675
1204,277195,0.956968,-0.424072,-0.8459479999999999,64.7325,369.145,-81.62001
1205,277291,1.328824,-0.550708,-0.8459479999999999,55.7725,478.625,-116.1825
1206,277387,0.438468,-0.590236,-0.7107720000000001,53.3925,567.7525,-167.125
1207,277484,0.411872,-0.721996,-0.5675439999999999,120.6975,573.405,-238.0875
1208,277580,1.164368,-0.411628,-0.31451599999999996,204.96,573.405,-316.33
1209,277676,3.531168,-0.54168,-0.484584,158.5675,573.3875,-334.0575
1210,277773,2.949716,0.09442801,0.49141599999999996,44.065,567.4725,-276.885
1211,277869,3.4621160000000004,-0.376736,0.6229319999999999,52.1325,471.94,-180.39
1212,277965,2.528572,-0.788608,-0.056608000000000006,42.945,236.2675,-99.54
1213,278061,2.084248,-1.39812,-2.4160880000000002,12.5475,-128.7125,-2.1525
1214,278157,2.750124,-1.26514,-2.103768,4.4275,-153.86,145.775
1215,278254,2.257244,-1.323944,-2.279448,-20.9475,225.295,136.535
1216,278350,2.34118,-1.3856760000000001,-3.087332,40.355,48.6325,-122.36
1217,278446,2.213568,-1.2117040000000001,-2.793312,1.89,7.8225,-47.81
1218,278542,0.789828,-1.037,-2.334348,-0.665,-193.13,-7.315
1219,278639,0.128588,-0.716384,-1.814872,-6.6675,-236.7575,12.67
1220,278735,0.07002799999999999,-0.647332,-1.446676,4.655,-239.365,21.7525
1221,278831,0.23301999999999998,-0.6107319999999999,-1.186084,9.2575,-231.7175,31.4125
1222,278927,0.45579200000000003,-0.6141479999999999,-1.0431,13.0725,-239.3825,41.6675
1223,279024,0.7324881,-0.613416,-0.9433041,6.8775,-248.9375,55.7375
1224,279120,0.903532,-0.616344,-0.8520479999999999,0.14,-272.9125,69.86
1225,279216,1.02114,-0.6034121,-0.762988,-9.31,-298.48,81.34000999999999
1226,279312,1.051152,-0.5565640000000001,-0.679296,-20.8775,-322.7525,89.81
1227,279409,1.067256,-0.47555600000000003,-0.593896,-30.345,-341.0225,96.4075
1228,279505,1.1155680000000001,-0.352092,-0.49605200000000005,-36.225,-351.365,103.915
1229,279601,1.145092,-0.261812,-0.441884,-35.035,-355.7925,113.12
1230,279697,1.197308,-0.208132,-0.43505200000000005,-26.075,-356.9475,121.2575
1231,279794,1.299056,-0.17738800000000002,-0.4514,-14.8575,-354.1125,125.44
1232,279890,1.404708,-0.1403,-0.472384,-4.8475,-351.5225,126.1225
1233,279986,1.5311,-0.08442401,-0.5231359999999999,5.4425,-351.26,122.15
1234,280082,1.7294720000000001,-0.003904,-0.5980439999999999,16.8875,-352.8525,114.1
1235,280179,1.873432,0.013908000000000002,-0.5946279999999999,34.8775,-363.895,105.9275
1236,280275,1.853912,-0.044407999999999996,-0.539484,56.49,-383.11,98.7
1237,280371,1.7836400000000001,-0.138348,-0.50142,73.90250999999999,-397.845,94.36
1238,280467,1.748748,-0.212036,-0.481412,83.09000999999999,-398.23,98.6475
1239,280564,1.809748,-0.29768,-0.444812,85.155,-383.8275,113.785
1240,280660,2.023736,-0.42626800000000004,-0.398452,80.255,-360.395,135.6425
1241,280756,2.2972599999999996,-0.571204,-0.26718000000000003,60.9175,-335.195,158.0425
1242,280852,2.477576,-0.593896,-0.02684,24.08,-309.1025,172.2525
1243,280949,2.562732,-0.406992,0.272304,-16.31,-274.54,176.6275
1244,281045,2.647888,-0.196664,0.663924,-40.8625,-237.86,174.405
1245,281141,2.76208,0.118828,1.085312,-45.815,-197.19,167.3
1246,281237,2.82308,0.35697199999999996,1.528416,-26.3375,-157.6225,164.43
1247,281334,2.7955080000000003,0.479704,1.92882,3.0275,-118.09,166.0575
1248,281430,2.712304,0.506544,2.262368,19.145,-75.67,162.6275
1249,281526,2.5803,0.55388,2.478064,9.8,-27.9475,144.375
1250,281622,2.50588,0.665876,2.502952,-18.55,23.6075,109.6025
1251,281719,2.546384,0.754204,2.328492,-46.3575,70.91001,68.0225
1252,281815,2.734264,1.0521280000000002,1.784372,-51.5725,107.415,23.52
1253,281911,1.219268,0.401624,1.152168,-32.025,156.0825,-46.6725
1254,282007,-0.026351999999999997,-0.8003201,-2.471232,56.91,109.3925,-60.13
1255,282104,-0.155916,-0.403088,-2.38876,41.685,220.3425,-80.08
1256,282200,0.503372,-0.167628,0.62952,64.435,212.1875,-118.65
1257,282296,2.928732,-0.36356,0.13664,44.7125,312.6025,-118.685
1258,282392,3.016084,-0.662216,-0.6885680999999999,35.0,294.21,-81.62001
1259,282489,2.497584,-0.24034,-0.6878361,-7.4025,219.38,-71.89
1260,282585,1.741916,-0.01586,-0.8132520999999999,-11.2875,162.9425,-57.9775
1261,282681,1.099952,0.039284,-0.781044,-0.8225,127.54,-52.465
1262,282777,0.809348,-0.132736,-0.6258600000000001,19.425,112.5075,-50.8725
1263,282874,1.771196,-1.808284,-0.7881199999999999,34.09,107.9925,-36.3125
1264,282970,1.504016,-0.7808001,-0.094916,-35.7875,76.3875,-27.7725
1265,283066,1.411052,-0.243756,-0.6688041,-69.545,50.05,-69.87751
1266,283162,0.989176,-0.211792,-0.6539201,-40.9675,23.03,-50.61
1267,283259,0.8432639999999999,-0.463844,-0.479704,-27.58,11.06,-43.33
1268,283355,0.9115840000000001,-0.3843,-0.5602239999999999,-33.6875,17.395,-36.61
1269,283451,0.8169121,-0.41577600000000003,-0.525332,-31.2375,7.5425,-38.57
1270,283547,0.8261841000000001,-0.388692,-0.540948,-31.92,3.78,-37.905
1271,283643,0.835456,-0.32696,-0.580476,-31.99,-2.1525,-39.97
1272,283740,0.846924,-0.260836,-0.5631520000000001,-30.205,-7.42,-40.7575
1273,283836,0.7661600000000001,-0.284504,-0.58072,-24.185,-13.965,-39.9875
1274,283932,0.788852,-0.209596,-0.601704,-22.75,-13.09,-37.45
1275,284028,0.7944641,-0.2135,-0.604144,-20.055,-10.815,-32.935
1276,284125,0.770308,-0.252296,-0.599508,-15.085,-10.6925,-26.705
1277,284221,0.7617681,-0.281088,-0.586088,-12.2325,-11.0425,-23.1
1278,284317,0.756888,-0.274744,-0.582184,-10.6225,-12.7925,-21.7
1279,284413,0.7700640999999999,-0.29524,-0.577304,-9.205,-12.25,-19.81
1280,284510,0.774944,-0.321592,-0.5631520000000001,-7.84,-13.02,-18.2
1281,284606,0.7537159999999999,-0.36136399999999996,-0.5602239999999999,-6.9475,-16.7125,-18.795
1282,284702,0.7422481,-0.35526399999999997,-0.5734,-8.155,-20.9475,-21.735
1283,284798,0.739564,-0.33916,-0.577304,-9.2925,-24.185,-24.6925
1284,284895,0.75884,-0.34281999999999996,-0.570716,-8.96,-24.9725,-25.7425
1285,284991,0.771528,-0.284016,-0.5873079999999999,-9.0475,-22.8725,-26.2325
1286,285087,0.7610359999999999,-0.25961599999999996,-0.6021920000000001,-7.525,-18.8825,-25.3225
1287,285183,0.76982,-0.248392,-0.6082920999999999,-5.145,-13.6675,-23.4325
1288,285279,0.7622561,-0.23546,-0.610244,-3.29,-7.4025,-20.9125
1289,285376,0.755912,-0.25351599999999996,-0.601216,-1.225,-2.1525,-18.8825
1290,285472,0.7564001,-0.26352,-0.5997520000000001,0.6475,2.9925,-17.9375
1291,285568,0.754448,-0.285236,-0.595604,1.925,8.2075,-18.2875
1292,285664,0.7539600000000001,-0.27084,-0.602436,3.4125,11.935,-19.18
1293,285761,0.7671359999999999,-0.267912,-0.5946279999999999,5.8625,15.8725,-20.3875
1294,285857,0.764696,-0.24497600000000003,-0.6019479999999999,10.64,21.035,-20.9125
1295,285953,0.750544,-0.238144,-0.624152,14.2625,28.6125,-20.65
1296,286049,0.721508,-0.27328,-0.644892,17.08,40.67,-19.81
1297,286146,0.6763680000000001,-0.22789600000000002,-0.71492,16.1875,59.7975,-21.0
1298,286242,0.730292,-0.248392,-0.6836880999999999,14.875,86.3625,-21.42
1299,286338,0.673196,-0.20984,-0.726388,17.325,113.8025,-20.86
1300,286434,0.690032,-0.217892,-0.748836,20.125,147.84,-19.74
1301,286531,0.693204,-0.24326799999999998,-0.757376,24.7275,179.8475,-21.1575
1302,286627,0.6980841,-0.24790399999999999,-0.7625,34.265,206.8325,-25.9875
1303,286723,0.791292,-0.290604,-0.7166279999999999,45.185,233.345,-35.2625
1304,286819,1.073112,-0.428464,-0.752008,54.9675,282.7825,-51.0475
1305,286916,0.9325680000000001,-0.40967600000000004,-0.821792,55.2475,352.73,-78.8375
1306,287012,1.236592,-0.534604,-0.8725440999999999,45.9725,460.355,-111.0375
1307,287108,0.4575,-0.6688041,-0.7761640999999999,36.925,562.8,-162.015
1308,287204,0.393816,-0.749812,-0.699792,82.74,573.405,-244.2125
1309,287301,0.981124,-0.426512,-0.403088,138.355,573.405,-334.495
1310,287397,3.40624,-0.491904,-0.488,106.3475,573.3875,-363.02
1311,287493,3.2351959999999997,0.29377600000000004,0.518256,-8.4525,568.4,-310.835
1312,287589,3.5414160000000003,-0.45554799999999995,0.284992,1.8375,462.7175,-194.5125
1313,287686,2.423896,-0.968924,-0.171532,1.4,239.225,-95.655
1314,287782,2.35826,-1.3703040000000002,-2.543456,-39.0425,-105.7875,1.435
1315,287878,2.74378,-0.9945440000000001,-2.2201560000000002,-52.185,-90.9475,153.545
1316,287974,2.205272,-0.46726,-2.536868,-79.6425,234.22,83.52750999999999
1317,288071,2.6471560000000003,-0.9516,-3.3471919999999997,19.915,90.52750999999999,-172.445
1318,288167,2.113528,-0.7861680999999999,-2.950936,32.375,-18.4975,-51.555
1319,288263,0.797636,-0.8400921,-2.396568,65.52,-194.915,-10.2375
1320,288359,0.09930800000000001,-0.721996,-1.821216,69.16,-248.2725,10.395
1321,288455,0.090036,-0.718092,-1.4574120000000002,76.2825,-244.3875,23.2925
1322,288552,0.256444,-0.739808,-1.211216,71.5225,-239.6975,33.74
1323,288648,0.5185,-0.750788,-1.0467600000000001,61.6525,-246.7325,43.9775
1324,288744,0.772992,-0.7327321,-0.9242720999999999,43.5575,-257.845,58.03
1325,288840,0.8957241,-0.7137001000000001,-0.8149601,25.69,-280.7525,73.7975
1326,288937,0.9437921,-0.659776,-0.71004,7.735,-304.71,88.18251
1327,289033,0.9972281,-0.57462,-0.62464,-8.54,-321.9125,100.3275
1328,289129,1.052616,-0.48873199999999994,-0.5702281,-21.4375,-333.7075,110.9325
1329,289225,1.122156,-0.35843600000000003,-0.492148,-28.525,-341.985,120.645
1330,289322,1.13826,-0.256444,-0.43651599999999996,-29.295,-348.0925,130.025
1331,289418,1.208776,-0.203252,-0.46628400000000003,-20.125,-350.77,137.095
1332,289514,1.3449280000000001,-0.157136,-0.51118,-10.045,-349.5275,139.0375
1333,289610,1.4520440000000001,-0.091012,-0.525576,0.8925,-350.945,137.9
1334,289707,1.556476,-0.010248,-0.5614439999999999,12.74,-353.185,132.965
1335,289803,1.7641200000000001,0.047580000000000004,-0.585356,28.735,-359.205,122.9025
1336,289899,1.853668,0.038796,-0.5636399999999999,49.105,-375.4625,109.27
1337,289995,1.8483,-0.011224,-0.517768,72.1,-395.0625,97.12501
1338,290092,1.83732,-0.10126,-0.46335600000000005,91.07,-404.6175,93.4675
1339,290188,1.820484,-0.233752,-0.41455600000000004,105.385,-402.7975,101.3075
1340,290284,1.970056,-0.34721199999999997,-0.377712,111.44,-385.385,117.985
1341,290380,2.216496,-0.453108,-0.291092,106.4,-357.4025,142.3625
1342,290477,2.465132,-0.484828,-0.089792,86.7825,-327.5125,167.0725
1343,290573,2.599576,-0.43505200000000005,0.183976,56.98,-296.7125,183.295
1344,290669,2.694004,-0.219356,0.48922,25.13,-259.84,189.4725
1345,290765,2.669116,0.01098,0.8220360000000001,1.1725,-225.33,187.5825
1346,290862,2.817224,0.260836,1.186572,-14.28,-178.29,182.4375
1347,290958,2.924584,0.44212799999999997,1.594052,-14.735,-135.835,179.235
1348,291054,2.985584,0.5499761,2.006656,-11.06,-94.99,174.6675
1349,291150,2.739388,0.695156,2.3799759999999996,-14.8925,-57.89,159.425
1350,291247,2.5114919999999996,0.846924,2.53882,-24.9025,-12.7225,129.535
1351,291343,2.560536,0.863028,2.415844,-32.9,38.1325,92.9775
1352,291439,2.676192,0.8596120999999999,1.884168,-32.76,80.22,54.1975
1353,291535,2.155984,0.9730721,2.055212,-48.6325,139.125,-14.56
1354,291631,0.33916,-0.18324400000000002,-0.8271601000000001,10.6225,150.3075,-53.6025
1355,291728,0.27523200000000003,-0.621712,-3.1998159999999998,38.115,209.7375,-60.97
1356,291824,0.236192,0.116632,-0.44993599999999995,45.01,224.035,-99.7675
1357,291920,2.297992,-0.023912,0.605608,38.045,279.1425,-121.45
1358,292016,3.214212,-0.711504,-0.627812,40.88,308.7875,-82.775
1359,292113,2.533696,-0.480192,-0.714676,10.4825,235.4625,-63.6825
1360,292209,1.6357760000000001,-0.27279200000000003,-0.6897880999999999,-8.4525,179.06,-45.9025
1361,292305,1.131184,-0.12444000000000001,-0.7285841,-3.15,156.5025,-29.435
1362,292401,0.9362280000000001,-0.07246799999999999,-0.674416,9.73,146.6325,-21.0875
1363,292498,1.932724,-1.3790879999999999,-0.8376520000000001,25.27,138.075,-7.5775
1364,292594,1.7080000000000002,-0.514596,-0.24326799999999998,-38.08,100.9925,-23.45
1365,292690,1.261236,-0.379176,-0.570716,-37.1875,49.805,-53.6725
1366,292786,1.021628,-0.30256,-0.5856,-27.5275,34.335,-34.51
1367,292883,0.897432,-0.49166000000000004,-0.47946000000000005,-17.185,21.42,-29.365
1368,292979,0.868396,-0.48702399999999996,-0.496296,-19.6525,24.185,-21.875
1369,293075,0.795928,-0.4933681,-0.49044,-19.3375,15.5575,-25.7425
1370,293171,0.784704,-0.49263599999999996,-0.49288000000000004,-22.3475,13.5275,-27.2825
1371,293268,0.74908,-0.44090799999999997,-0.496784,-24.535,9.8875,-30.59
1372,293364,0.783972,-0.377224,-0.489464,-26.6525,8.2775,-34.055
1373,293460,0.789828,-0.35014,-0.528016,-25.445,4.9525,-37.6075
1374,293556,0.7598161,-0.295484,-0.569984,-23.45,2.24,-37.52
1375,293653,0.759328,-0.279624,-0.5736441,-21.175,0.77,-34.9475
1376,293749,0.775188,-0.302804,-0.57706,-18.1125,0.5425,-31.045
1377,293845,0.7722600000000001,-0.320616,-0.555588,-15.3825,-0.7175,-28.4025
1378,293941,0.764452,-0.336476,-0.525576,-14.3325,-2.835,-26.3025
1379,294038,0.781044,-0.329156,-0.544852,-14.35,-5.005,-24.745
1380,294134,0.7861680999999999,-0.33671999999999996,-0.531188,-13.5275,-7.385,-23.0475
1381,294230,0.778116,-0.358192,-0.515572,-12.8975,-7.1225,-20.7025
1382,294326,0.7722600000000001,-0.37258800000000003,-0.521184,-12.5825,-7.1575,-20.0025
1383,294423,0.772016,-0.38064000000000003,-0.518988,-12.88,-10.3775,-22.1375
1384,294519,0.7500560000000001,-0.401624,-0.5070319999999999,-14.35,-16.94,-26.2675
1385,294615,0.752984,-0.35892399999999997,-0.526552,-18.585,-24.6575,-33.6525
1386,294711,0.7734800000000001,-0.31524800000000003,-0.55388,-21.07,-30.835,-39.375
1387,294808,0.7937320999999999,-0.288164,-0.574864,-20.0025,-32.655,-40.95
1388,294904,0.791536,-0.276696,-0.573156,-15.9425,-29.8725,-39.3575
1389,295000,0.7766521,-0.290604,-0.563884,-12.775,-24.8325,-37.52
1390,295096,0.784216,-0.31012399999999996,-0.5655920999999999,-10.2375,-20.79,-36.6625
1391,295192,0.7610359999999999,-0.316712,-0.5697399999999999,-8.925,-17.7275,-36.7325
1392,295289,0.743468,-0.292556,-0.5997520000000001,-6.9125,-15.295,-36.2775
1393,295385,0.7549359999999999,-0.251808,-0.6231760999999999,-5.46,-10.0275,-34.825
1394,295481,0.769088,-0.23155599999999998,-0.621468,-1.4525,-2.03,-30.9575
1395,295577,0.801296,-0.242536,-0.6021920000000001,4.4625,5.95,-25.9875
1396,295674,0.791536,-0.23741199999999998,-0.612928,8.54,16.275,-21.805
1397,295770,0.768356,-0.248392,-0.6329359999999999,12.95,27.685,-18.76
1398,295866,0.7007680000000001,-0.321836,-0.6834439999999999,17.9725,43.3125,-17.22
1399,295962,0.62708,-0.199104,-0.753472,16.485,70.9975,-20.9125
1400,296059,0.699548,-0.245952,-0.72102,15.295,114.695,-22.155
1401,296155,0.6573359999999999,-0.196908,-0.771528,21.9975,152.81,-22.2075
1402,296251,0.6802720999999999,-0.19983599999999999,-0.772504,25.1825,192.7625,-23.3275
1403,296347,0.68686,-0.24497600000000003,-0.76372,37.2925,221.2,-26.1625
1404,296444,0.8420440999999999,-0.341844,-0.701256,52.01,248.36,-34.4225
1405,296540,1.063352,-0.478484,-0.730292,63.0175,299.285,-51.94
1406,296636,0.9572120999999999,-0.465796,-0.8296,64.26,366.6425,-82.39
1407,296732,1.342732,-0.547048,-0.9345201,54.32,475.2475,-117.6525
1408,296829,0.38503200000000004,-0.626104,-0.822524,55.755,566.79,-166.5125
1409,296925,0.548756,-0.7190681,-0.6344,128.0475,573.405,-239.5575
1410,297021,1.214876,-0.423828,-0.5946279999999999,207.41,573.405,-320.705
1411,297117,3.382328,-0.444812,-0.3782,137.305,573.405,-345.59
1412,297214,3.343532,0.159332,0.6541640000000001,22.3125,569.5025,-292.0575
1413,297310,3.5282400000000003,-0.43798000000000004,0.611952,38.01,459.865,-180.4075
1414,297406,2.3912,-0.9586761,-0.290848,17.6575,188.9125,-102.3575
1415,297502,2.440488,-1.082384,-2.928,-35.315,-200.375,2.38
1416,297598,2.6449599999999998,-1.130208,-2.328248,-47.3025,-37.45,125.2475
1417,297695,2.082052,-0.9799041,-2.126948,-68.7575,231.3675,100.5375
1418,297791,2.564684,-1.322968,-3.276432,11.2525,77.9625,-135.3625
1419,297887,2.209664,-1.1331360000000001,-2.814784,-35.5425,16.695,-26.705
1420,297983,0.7881199999999999,-1.1407,-2.2692,-15.925,-180.6175,21.21
1421,298080,0.090768,-0.8769360999999999,-1.6811599999999998,-35.9275,-220.9725,53.375
1422,298176,0.054167999999999994,-0.8459479999999999,-1.3703040000000002,-39.6375,-226.03,66.045
1423,298272,0.220088,-0.771772,-1.199748,-57.4875,-220.71,72.7125
1424,298368,0.536556,-0.698816,-1.085068,-74.97,-225.5225,77.245
1425,298465,0.7551800000000001,-0.56242,-0.9652639999999999,-94.0625,-240.9575,81.53251
1426,298561,0.8647360000000001,-0.393572,-0.877668,-105.035,-264.565,85.225
1427,298657,0.955992,-0.24912399999999998,-0.812276,-103.6175,-288.9775,86.7825
1428,298753,1.0323639999999998,-0.17738800000000002,-0.742492,-89.32,-313.5825,86.38
1429,298849,1.117276,-0.16201600000000002,-0.663924,-71.365,-334.6,82.8975
1430,298946,1.198772,-0.163724,-0.5673,-53.0425,-353.0625,76.2125
1431,299042,1.2402520000000001,-0.151036,-0.4819,-37.31,-368.2525,67.025
1432,299138,1.28588,-0.12761199999999998,-0.461404,-20.4575,-379.19,57.05
1433,299234,1.42618,-0.14274,-0.444812,-1.785,-382.9175,47.7925
1434,299331,1.505968,-0.16909200000000002,-0.44066400000000006,17.6925,-389.1125,38.43
1435,299427,1.5908799999999998,-0.162992,-0.47506800000000005,36.295,-394.065,29.89
1436,299523,1.699948,-0.142984,-0.4941,55.7025,-397.5125,24.535
1437,299619,1.74338,-0.171044,-0.467992,77.5775,-405.405,23.24
1438,299716,1.753384,-0.23741199999999998,-0.40357600000000005,101.4475,-415.2925,24.535
1439,299812,1.761436,-0.2867,-0.335256,124.88,-419.0025,29.3825
1440,299908,1.7707080000000002,-0.391376,-0.268888,147.5075,-413.875,41.5275
1441,300004,1.8971,-0.526308,-0.21716,164.955,-396.165,63.665
1442,300101,2.134024,-0.7129681,-0.15982000000000002,164.92,-369.7575,94.4125
1443,300197,2.4077919999999997,-0.7893399999999999,-0.054167999999999994,143.99,-337.5925,130.2175
1444,300293,2.655696,-0.779824,0.137128,106.4875,-303.065,164.3775
1445,300389,2.704008,-0.62098,0.43163599999999996,58.87,-269.9375,189.4025
1446,300486,2.809416,-0.36844,0.6883239999999999,9.275,-234.885,200.0425
1447,300582,2.898232,-0.027083999999999997,0.993568,-34.8075,-197.7325,201.3725
1448,300678,2.928,0.23058,1.383968,-65.8175,-164.71,201.67
1449,300774,2.712304,0.532408,1.8756279999999999,-89.2675,-129.7975,193.76
1450,300871,2.5449200000000003,0.7998321,2.286036,-99.575,-81.67251,169.75
1451,300967,2.597136,0.946232,2.5039279999999997,-94.60501,-22.05,133.875
1452,301063,2.6703360000000003,0.9437921,2.5000240000000002,-79.625,25.725,98.3675
1453,301159,2.51808,0.9154880999999999,2.364848,-65.87,61.39,66.0975
1454,301256,2.585424,0.8903561,1.7768080000000002,-45.57,99.82,32.4625
1455,301352,0.618784,0.197884,0.539484,-53.7775,159.46,-26.7225
1456,301448,0.11834000000000001,-0.347456,-3.294976,-0.6125,145.4075,-42.4025
1457,301544,-0.022203999999999998,0.215452,-2.004216,24.71,259.6825,-52.465
1458,301641,1.019676,0.379176,0.370392,59.7625,262.0625,-86.87
1459,301737,2.828204,-0.15616,0.09540401,83.7725,332.4475,-64.12
1460,301833,2.63764,-0.317688,-0.806176,55.195,292.285,-55.58
1461,301929,2.354844,-0.169824,-0.623664,30.1,227.115,-67.7425
1462,302026,1.680916,-0.365512,-0.681248,30.3975,168.5775,-70.4025
1463,302122,1.1326479999999999,-0.44822799999999996,-0.660996,28.9975,140.0175,-61.565
1464,302218,0.8464360000000001,-0.377224,-0.549732,28.035,131.705,-48.44
1465,302314,2.1469560000000003,-1.9063720000000002,-0.8015399999999999,27.51,126.98,-22.8725
1466,302410,1.737524,-0.35014,-0.2196,-64.5225,80.99,-34.93
1467,302507,1.33102,-0.236192,-0.673196,-54.4775,31.1675,-65.59
1468,302603,0.8927959999999999,-0.287188,-0.560956,-34.4225,8.3475,-45.255
1469,302699,0.9179280000000001,-0.435784,-0.5170359999999999,-24.43,6.23,-37.485
1470,302795,0.8874280999999999,-0.353312,-0.5607121,-28.63,15.295,-31.29
1471,302892,0.8335040000000001,-0.406504,-0.5392399999999999,-23.1525,7.2275,-30.6075
1472,302988,0.8371639999999999,-0.346724,-0.5653481,-23.3625,7.77,-28.42
1473,303084,0.8281360999999999,-0.305,-0.548512,-21.9625,4.585,-28.4025
1474,303180,0.8427761,-0.269376,-0.538752,-19.8975,2.66,-27.335
1475,303277,0.780068,-0.291092,-0.59292,-14.6825,-2.0125,-26.7575
1476,303373,0.750788,-0.268888,-0.604388,-12.4775,-3.0975,-24.325
1477,303469,0.756888,-0.271572,-0.5875520000000001,-10.2025,-1.9075,-21.0875
1478,303565,0.746152,-0.285968,-0.574864,-8.19,-0.875,-17.5
1479,303662,0.7388319999999999,-0.305,-0.561932,-7.1925,-0.4725,-14.8925
1480,303758,0.743468,-0.278648,-0.5697399999999999,-7.35,-0.4025,-15.1375
1481,303854,0.7324881,-0.29597199999999996,-0.577304,-6.5975,-0.525,-13.7025
1482,303950,0.729804,-0.34281999999999996,-0.565836,-4.83,-2.0475,-12.6525
1483,304047,0.742004,-0.360632,-0.545096,-5.11,-4.3925,-12.635
1484,304143,0.738588,-0.377224,-0.5282600000000001,-5.915,-8.3825,-15.1725
1485,304239,0.7510321,-0.374052,-0.5343600000000001,-7.805,-12.8625,-19.145
1486,304335,0.764696,-0.358192,-0.543388,-9.7475,-17.955,-23.905
1487,304432,0.777872,-0.341356,-0.5455840000000001,-11.095,-23.135,-27.545
1488,304528,0.777384,-0.303048,-0.57218,-11.7775,-25.34,-30.1875
1489,304624,0.793976,-0.2684,-0.584136,-10.29,-24.1675,-30.0825
1490,304720,0.791048,-0.28328400000000004,-0.590968,-8.33,-19.25,-27.4925
1491,304817,0.7659161,-0.283528,-0.591212,-5.2325,-14.6125,-24.43
1492,304913,0.764696,-0.275964,-0.5917,-4.865,-9.835,-23.695
1493,305009,0.758108,-0.278648,-0.5885281,-3.2375,-5.67,-23.38
1494,305105,0.749568,-0.27816,-0.5980439999999999,-1.9425,-1.785,-22.9075
1495,305202,0.7483479999999999,-0.258396,-0.616344,-0.805,2.765,-22.68
1496,305298,0.7605481,-0.264252,-0.6070720000000001,3.115,7.035,-21.9625
1497,305394,0.7822640000000001,-0.262056,-0.59292,7.1575,12.775,-20.5625
1498,305490,0.775188,-0.241804,-0.61122,10.4125,20.965,-18.8475
1499,305587,0.756156,-0.260836,-0.61366,14.14,30.1875,-16.6775
1500,305683,0.687104,-0.320372,-0.690032,17.675,43.4875,-16.0125
1501,305779,0.668316,-0.19642,-0.731268,13.5275,69.4575,-18.48
1502,305875,0.69418,-0.279868,-0.7137001000000001,16.38,107.24,-18.3925
1503,305972,0.6539201,-0.232044,-0.7610359999999999,19.1275,143.6575,-21.1575
1504,306068,0.686128,-0.249856,-0.7610359999999999,22.61,181.6325,-24.57
1505,306164,0.6919841,-0.26961999999999997,-0.7556681,32.165,210.665,-30.065
1506,306260,0.764696,-0.290848,-0.741028,44.8175,236.7225,-39.655
1507,306357,1.134112,-0.417728,-0.743468,56.7175,277.2525,-55.1775
1508,306453,0.892308,-0.403332,-0.8405800999999999,56.5775,343.5075,-80.0975
1509,306549,1.13216,-0.49044,-0.844484,51.8875,439.0225,-109.5675
1510,306645,0.590236,-0.595604,-0.8632719999999999,38.745,553.2975,-151.725
1511,306741,0.38186,-0.741028,-0.799588,93.3275,573.405,-214.5325
1512,306838,0.589016,-0.46042799999999995,-0.46726,159.8275,573.405,-302.6625
1513,306934,2.921412,-0.45335200000000003,-0.612928,151.935,573.405,-356.5625
1514,307030,3.129788,0.059536,0.753472,6.6675,573.2475,-334.775
1515,307126,3.480904,-0.015616,0.543144,-6.4575,511.7175,-229.845
1516,307223,2.548092,-0.48824399999999996,0.074664,7.49,305.62,-107.7475
1517,307319,1.489132,-1.224636,-1.55306,-4.1475,31.0275,-3.99
1518,307415,2.691564,-1.281488,-1.688968,-52.0975,-196.385,136.3075
1519,307511,2.958256,-0.643672,-2.4795279999999997,-39.445,168.77,219.7475
1520,307608,2.791116,-0.37502800000000003,-3.1585799999999997,17.99,111.2475,-68.005
1521,307704,2.35704,-0.9703879999999999,-2.785016,99.17251,-21.07,-94.74501
1522,307800,1.085068,-0.879376,-2.291648,71.4875,-188.1075,-40.81
1523,307896,0.170068,-0.7190681,-1.746552,79.66001,-265.2475,-32.585
1524,307993,-0.08637601,-0.741028,-1.344196,74.41,-265.125,-25.8125
1525,308089,0.011956,-0.7478600000000001,-1.09312,71.92501,-249.515,-15.33
1526,308185,0.298412,-0.778604,-0.9503799999999999,61.88,-238.56,-0.9625
1527,308281,0.602436,-0.7832399999999999,-0.856684,47.4075,-238.595,21.455
1528,308377,0.786656,-0.7937320999999999,-0.771528,32.6025,-257.495,46.9
1529,308474,0.8788879999999999,-0.772016,-0.6919841,14.455,-281.995,69.66751
1530,308570,0.90036,-0.7041841,-0.6019479999999999,-4.725,-304.5175,88.04251
1531,308666,0.9433041,-0.628544,-0.532652,-22.75,-320.3725,102.235
1532,308762,0.989908,-0.535092,-0.48556000000000005,-36.4175,-329.14,113.855
1533,308859,1.057008,-0.43212399999999995,-0.42748800000000003,-44.4675,-334.425,123.4975
1534,308955,1.1448479999999999,-0.314272,-0.43334399999999995,-47.4775,-336.105,131.5825
1535,309051,1.260748,-0.244732,-0.473116,-41.055,-337.54,135.905
1536,309147,1.350296,-0.1525,-0.5060560000000001,-29.365,-340.83,136.0975
1537,309244,1.472784,-0.07076001,-0.5441199999999999,-14.8575,-342.93,134.715
1538,309340,1.6389479999999998,-0.018544,-0.5726680000000001,4.025,-348.355,130.4625
1539,309436,1.774368,-0.026351999999999997,-0.566812,25.7425,-361.1825,123.13
1540,309532,1.8178,-0.08637601,-0.5233800000000001,47.425,-379.8725,114.94
1541,309629,1.849032,-0.1525,-0.470188,65.29251,-394.0125,109.4275
1542,309725,1.870016,-0.229116,-0.39528,79.3275,-397.775,112.6475
1543,309821,1.891488,-0.2867,-0.303292,87.4825,-389.4275,125.0375
1544,309917,1.9734720000000001,-0.31964000000000004,-0.228384,87.3775,-364.56,143.7975
1545,310013,2.2128360000000002,-0.411628,-0.168848,77.91,-326.9175,163.9925
1546,310110,2.605676,-0.4404201,-0.048068,59.605,-288.855,177.5025
1547,310206,2.839916,-0.382104,0.187636,32.2175,-260.54,181.4925
1548,310302,2.894084,-0.11834000000000001,0.5321640000000001,4.6025,-234.78,182.0
1549,310398,2.747928,0.145424,0.950868,-10.92,-210.91,181.02
1550,310495,2.739632,0.36844,1.38592,-16.485,-171.185,177.0475
1551,310591,2.756224,0.476288,1.8226799999999999,-12.5125,-129.745,169.26
1552,310687,2.7298720000000003,0.6019479999999999,2.163304,-13.405,-86.20501,151.55
1553,310783,2.518568,0.7707961,2.387784,-19.0575,-45.4475,125.93
1554,310880,2.352648,0.8725440999999999,2.4199919999999997,-23.695,-0.63,96.28501
1555,310976,2.328736,0.826428,2.23748,-25.0425,43.785,64.0675
1556,311072,2.01422,0.5219159999999999,1.915644,-25.34,78.295,32.76
1557,311168,1.896368,0.644892,1.378844,-29.75,135.45,-27.0375
1558,311264,0.049288,-0.212524,-1.225368,13.86,97.65,-58.345
1559,311361,-0.26474000000000003,-0.789828,-3.173464,49.105,163.7825,-60.1125
1560,311457,-0.256688,0.08662001,-0.435296,75.81,194.2675,-109.1125
1561,311553,2.1289,0.030012,0.5873079999999999,79.8525,264.6875,-142.1
1562,311649,2.856996,-0.686128,-0.313296,76.825,289.66,-119.7175
1563,311746,2.358748,-0.8222799999999999,-0.4941,53.69,215.6525,-96.075
1564,311842,1.8944159999999999,-0.49532,-0.6749041,6.7025,191.415,-72.3975
1565,311938,1.270508,-0.140544,-0.698816,-0.245,162.6275,-46.5325
1566,312034,1.665544,-1.2658719999999999,-0.9037761000000001,11.34,145.39,-32.3925
1567,312131,1.636264,-0.644892,-0.360632,-29.9775,105.5425,-23.8875
1568,312227,1.450824,-0.162992,-0.5233800000000001,-73.6575,72.8,-76.3875
1569,312323,1.230004,-0.216428,-0.650992,-32.7775,47.95,-42.2975
1570,312419,0.9982040000000001,-0.401624,-0.489464,-27.5625,21.5425,-40.7225
1571,312515,1.000156,-0.23692399999999997,-0.6058520000000001,-24.2375,24.9375,-26.985
1572,312612,0.85644,-0.336964,-0.5614439999999999,-16.24,17.395,-20.7375
1573,312708,0.7993439999999999,-0.48702399999999996,-0.49898000000000003,-8.8725,14.735,-12.6
1574,312804,0.7998321,-0.44505600000000006,-0.5355800999999999,-12.11,12.95,-14.8575
1575,312900,0.783728,-0.416996,-0.5368,-12.0575,8.4,-18.5325
1576,312997,0.813008,-0.348188,-0.55388,-10.7625,6.3,-18.935
1577,313093,0.792512,-0.303048,-0.577304,-7.6125,5.075,-16.9575
1578,313189,0.777628,-0.32208000000000003,-0.577548,-3.15,5.7575,-13.2825
1579,313285,0.776896,-0.284504,-0.568276,-0.5425,7.595,-10.1675
1580,313382,0.784704,-0.3111,-0.543876,2.1525,9.8875,-7.0175
1581,313478,0.772504,-0.3416,-0.532408,6.1425,11.3925,-3.3775
1582,313574,0.781532,-0.330376,-0.515084,6.685,12.705,-1.6975
1583,313670,0.781044,-0.349164,-0.50874,8.2425,13.2125,-0.49
1584,313767,0.771528,-0.3904,-0.49702799999999997,9.73,12.5825,0.3325
1585,313863,0.775676,-0.410408,-0.487756,7.98,11.7075,-1.085
1586,313959,0.7617681,-0.425292,-0.478728,6.93,9.03,-4.375
1587,314055,0.7754321,-0.41382399999999997,-0.480192,4.585,6.965,-8.19
1588,314151,0.77104,-0.399916,-0.484584,2.5725,5.075,-11.3225
1589,314248,0.768844,-0.381128,-0.49166000000000004,0.9275,3.9375,-13.93
1590,314344,0.772748,-0.379176,-0.493612,-0.6475,3.0625,-16.1875
1591,314440,0.771528,-0.346724,-0.49166000000000004,-2.31,1.7675,-18.8125
1592,314536,0.79056,-0.361852,-0.48092399999999996,-4.6025,1.575,-20.44
1593,314633,0.7673800000000001,-0.38918,-0.483364,-6.02,-0.3675,-22.3475
1594,314729,0.764208,-0.374784,-0.48995200000000005,-9.7125,-4.4275,-27.3875
1595,314825,0.7922680000000001,-0.335744,-0.499224,-12.2325,-6.3875,-31.22
1596,314921,0.7812880999999999,-0.35624,-0.511668,-10.99,-8.3125,-30.975
1597,315018,0.7937320999999999,-0.28181999999999996,-0.5463161,-9.8175,-7.735,-30.415
1598,315114,0.8203280000000001,-0.253272,-0.561688,-6.1775,-0.6825,-25.9
1599,315210,0.7903161,-0.288164,-0.5414359999999999,0.9275,6.265,-18.55
1600,315306,0.7861680999999999,-0.28304,-0.552172,3.325,13.2125,-14.3675
1601,315402,0.790072,-0.302804,-0.553636,6.615,18.5325,-11.025
1602,315499,0.780068,-0.33794,-0.5499761,9.975,24.99,-9.31
1603,315595,0.740052,-0.251808,-0.6307401,14.7175,36.715,-10.4475
1604,315691,0.7168720000000001,-0.334036,-0.641232,24.255,57.61,-9.7825
1605,315787,0.6612401,-0.35282399999999997,-0.664168,27.1075,86.27501,-13.4925
1606,315884,0.71614,-0.276452,-0.654652,19.6525,124.355,-21.8925
1607,315980,0.742004,-0.311344,-0.676124,35.175,149.3275,-23.975
1608,316076,0.8256960999999999,-0.34794400000000003,-0.664412,38.0975,178.29,-32.585
1609,316172,1.047736,-0.45896400000000004,-0.676856,51.2225,206.85,-42.2275
1610,316269,0.916952,-0.41602,-0.785924,63.3325,251.0375,-60.235
1611,316365,0.9301280000000001,-0.429196,-0.845216,77.3325,313.04,-77.2975
1612,316461,1.298812,-0.404308,-0.8337481,80.01,415.03,-95.6025
1613,316557,0.661728,-0.447008,-0.8544879999999999,77.7875,540.8725,-115.2375
1614,316654,0.331596,-0.655384,-0.7605481,133.3325,573.2125,-149.3975
1615,316750,0.9269561,-0.5160600000000001,-0.6756361,224.2625,573.405,-217.56
1616,316846,3.2534959999999997,-0.23741199999999998,-0.48848800000000003,198.59,573.405,-260.295
1617,316942,3.361588,0.139324,0.8786440999999999,72.3975,572.075,-237.3525
1618,317038,3.293268,-0.690764,0.5602239999999999,42.5775,464.8175,-146.895
1619,317135,2.415844,-1.0979999999999999,-0.232776,3.8325,208.075,-70.9625
1620,317231,2.071316,-1.5013319999999999,-2.000312,-94.78,-97.16001,-13.055
1621,317327,3.189324,-1.022604,-1.9346759999999998,-74.8125,-76.8075,96.7575
1622,317423,1.831952,-0.676124,-2.2067360000000003,-23.2925,217.595,108.045
1623,317520,2.244312,-0.7539600000000001,-2.87066,13.685,51.345,-133.21
1624,317616,1.885388,-0.8703481,-2.620072,21.385,-9.4675,-79.7475
1625,317712,0.7041841,-0.6649,-2.1413439999999997,21.805,-177.3975,-46.34
1626,317808,0.072956,-0.59658,-1.647732,25.8475,-224.28,-44.5025
1627,317905,-0.027816000000000004,-0.5797441,-1.267336,26.32,-232.0325,-51.905
1628,318001,0.11834000000000001,-0.604632,-1.057252,23.4325,-228.9875,-58.8175
1629,318097,0.339892,-0.618052,-0.9128040000000001,15.05,-235.2525,-59.815
1630,318193,0.5726680000000001,-0.6344,-0.815692,4.76,-248.99,-53.2875
1631,318289,0.72712,-0.655628,-0.726876,-1.8725,-272.545,-40.915
1632,318386,0.8235001000000001,-0.693692,-0.64904,-6.6675,-298.69,-25.7775
1633,318482,0.9181720999999999,-0.7178479999999999,-0.553148,-11.9175,-322.3325,-11.6725
1634,318578,1.003328,-0.739564,-0.458232,-19.04,-341.075,1.1025
1635,318674,1.02968,-0.755424,-0.359412,-24.6225,-358.4875,12.8625
1636,318771,1.1102,-0.754204,-0.284016,-29.715,-367.605,22.785
1637,318867,1.202676,-0.76494,-0.223016,-31.92,-371.6825,31.9375
1638,318963,1.2939319999999999,-0.7849480999999999,-0.19032000000000002,-29.855,-374.78,40.0575
1639,319059,1.3851879999999999,-0.7734800000000001,-0.174948,-25.1475,-373.8,49.0525
1640,319156,1.459608,-0.7046720999999999,-0.157868,-17.9725,-368.935,59.885
1641,319252,1.563064,-0.696376,-0.142984,-4.0075,-363.79,73.325
1642,319348,1.607716,-0.715896,-0.14469200000000002,16.275,-365.505,85.54
1643,319444,1.6226,-0.7032079999999999,-0.145424,33.9325,-364.42,96.91501
1644,319541,1.62504,-0.6763680000000001,-0.148108,49.8225,-357.14,110.0225
1645,319637,1.6723759999999999,-0.654896,-0.196176,65.6425,-344.2425,123.9875
1646,319733,1.736304,-0.61488,-0.24912399999999998,79.8525,-326.5675,138.845
1647,319829,1.851472,-0.5504641,-0.292068,92.33001,-306.53,154.7525
1648,319926,1.970056,-0.276696,-0.21520799999999998,102.9175,-284.2525,171.22
1649,320022,1.968104,-0.1037,-0.159088,113.89,-260.575,192.2725
1650,320118,2.3311759999999997,-0.016347999999999998,-0.119804,128.625,-229.7225,210.9625
1651,320214,2.644716,0.091988,0.022936,124.11,-203.4375,206.045
1652,320310,2.594696,0.36478,0.24082800000000001,113.2075,-194.67,186.0775
1653,320407,2.530524,0.689056,0.511424,105.0525,-174.9825,161.665
1654,320503,2.538576,0.8049561,0.8632719999999999,107.66,-148.3475,142.3275
1655,320599,2.478796,0.757376,1.2763639999999998,108.3775,-122.6225,125.9825
1656,320695,2.351672,0.752984,1.652612,92.47001,-92.54001,101.5
1657,320792,2.210152,0.769332,1.89588,66.955,-57.2775,71.92501
1658,320888,2.1301200000000002,0.8369200000000001,1.9368720000000001,39.2,-17.01,41.265
1659,320984,2.1008400000000003,0.8959681,1.791936,18.025,25.2525,16.5025
1660,321080,1.7802240000000003,0.34867600000000004,1.2883200000000001,8.82,61.5825,-0.3325
1661,321177,1.564284,-0.326472,0.869128,-31.85,113.4875,-45.4825
1662,321273,0.8178880999999999,0.42724399999999996,-0.809348,-135.485,129.4825,-97.28251
1663,321369,-0.6558721,-0.692472,-2.73158,-62.335,120.785,-82.775
1664,321465,-0.400892,0.113704,-1.7938880000000001,-14.105,165.34,-69.9825
1665,321561,1.310524,0.7747001,-0.173728,-45.5875,242.8825,-133.0875
1666,321658,2.579568,0.08466801,-0.13298,37.555,227.8325,-122.7275
1667,321754,2.7938,-0.431148,-0.446032,12.4775,203.0175,-117.74
1668,321850,1.952488,-0.650748,-0.579256,-22.645,134.435,-117.565
1669,321946,1.425936,-0.44554399999999994,-0.7300479999999999,-45.3075,127.575,-78.2425
1670,322043,1.0077200000000002,-0.08906,-0.7356600000000001,-53.3225,126.98,-45.115
1671,322139,0.8483879999999999,0.001464,-0.715896,-39.2,125.265,-32.34
1672,322235,1.534516,-0.8796200000000001,-0.8642481,-21.14,116.235,-25.48
1673,322331,1.5464719999999998,-0.37088000000000004,-0.366976,-71.6975,80.395,-43.645
1674,322428,1.266116,-0.2196,-0.60634,-70.9275,39.3925,-69.7725
1675,322524,1.138992,-0.028304000000000003,-0.779092,-56.035,23.765,-59.8325
1676,322620,1.127524,-0.225944,-0.6265921,-35.4725,5.81,-50.05
1677,322716,0.838628,-0.29646,-0.597312,-23.0825,-3.15,-37.6075
1678,322812,0.8042239999999999,-0.389912,-0.5499761,-18.7775,-6.86,-34.9125
1679,322909,0.797392,-0.310856,-0.572912,-20.4225,-8.68,-36.8025
1680,323005,0.8117880000000001,-0.188124,-0.612928,-22.015,-5.985,-35.2625
1681,323101,0.793976,-0.23009200000000002,-0.62342,-16.065,-5.6,-29.4175
1682,323197,0.7998321,-0.250832,-0.622688,-12.1625,-1.9075,-24.0625
1683,323294,0.819108,-0.22106399999999998,-0.6036560999999999,-8.3825,0.98,-20.4575
1684,323390,0.8076399999999999,-0.249856,-0.599508,-5.0575,4.235,-15.0675
1685,323486,0.790804,-0.278404,-0.5777920999999999,-0.21,6.1075,-9.8
1686,323582,0.805688,-0.276696,-0.627568,0.9275,8.6625,-5.9675
1687,323679,0.7869,-0.35624,-0.5404601,4.1825,8.4175,-3.7975
1688,323775,0.7890961,-0.360388,-0.5343600000000001,2.485,7.735,-6.055
1689,323871,0.787632,-0.374784,-0.520452,1.575,5.4775,-8.8375
1690,323967,0.7944641,-0.359656,-0.51972,-1.4175,3.4125,-12.3025
1691,324064,0.7895840999999999,-0.311832,-0.537532,-2.6425,1.0675,-15.05
1692,324160,0.7929999999999999,-0.267424,-0.547048,-3.185,0.8400001,-14.9975
