,T,ax,ay,az,gx,gy,gz
0,9184382,0.895358,-0.005246,-0.14786400000000002,18.865,-16.765,-14.8575
1,9184537,0.918416,-0.010492,-0.28316199999999997,-7.77,-0.91,-197.4875
2,9184635,0.9636780999999999,-0.006587999999999999,-0.325374,-82.5125,25.0425,-274.2075
3,9184733,0.9511120000000001,-0.008906,-0.330742,9.6425,-102.3925,-88.16501
4,9184831,0.944524,-0.013054,-0.343064,-9.1875,-28.1225,-9.555
5,9184929,0.936716,-0.0061,-0.361608,-14.525,-25.1125,-4.515
6,9185027,0.932934,-0.010492,-0.33684200000000003,-16.9575,-26.7925,-4.69
7,9185125,0.9589200999999999,0.029889999999999996,-0.417362,-17.5525,-28.245,-4.8475
8,9185223,0.9806360000000001,0.02196,-0.47299399999999997,-8.12,-34.475,-4.3925
9,9185321,0.9701440999999998,0.005856,-0.483364,-4.13,-44.3275,-3.745
10,9185418,0.936716,-0.0183,-0.387594,-3.71,-53.9875,-2.975
11,9185516,0.949892,-0.00549,-0.29133600000000004,-18.2875,-59.185,-1.6275
12,9185614,0.917074,0.049898000000000005,0.20447200000000001,-25.4275,-67.2525,0.2975
13,9185712,0.7679901,0.033672,-0.01647,-10.29,-48.5625,-1.0325
14,9185810,0.9219540999999999,0.020374,-0.28999400000000003,1.085,-10.3425,-4.0075
15,9185908,0.975512,0.007442,-0.381372,0.9625,3.3425,-5.4075
16,9186006,0.968558,0.003172,-0.38918,0.8925,1.5575,-5.5475
17,9186104,0.943426,0.007198,-0.379054,0.28,-4.445,-5.32
18,9186202,0.9203680000000001,0.00793,-0.362462,0.0525,-10.22,-4.7075
19,9186300,0.909632,-0.000976,-0.34867600000000004,-0.035,-11.69,-4.375
20,9186398,0.9141459999999999,-0.001464,-0.347456,-0.28,-10.2725,-4.2875
21,9186495,0.9206120000000001,-0.000488,-0.343308,0.1575,-9.8,-4.1475
22,9186593,0.9228081,0.003782,-0.339038,0.8225,-10.3775,-3.9725
23,9186691,0.930006,0.002806,-0.335988,0.9625,-10.5,-3.9025
24,9186789,0.9340321,0.0034159999999999998,-0.337696,0.735,-10.3075,-3.99
25,9186887,0.9363501000000001,0.002806,-0.341966,0.525,-10.1325,-3.9725
26,9186985,0.9358620999999999,0.002684,-0.344406,0.5775,-10.4825,-3.885
27,9187083,0.9356180000000001,0.0035380000000000003,-0.33818400000000004,0.7525,-10.955,-3.6575
28,9187181,0.9311040999999999,0.004392,-0.33245,1.05,-11.1125,-3.4125
29,9187279,0.9259799999999999,0.00244,-0.326594,1.365,-10.815,-3.0625
30,9187376,0.9198799999999999,0.000976,-0.323788,1.3475,-10.22,-2.94
31,9187474,0.9137799999999999,-0.004148001,-0.324642,1.085,-9.345,-2.9575
32,9187572,0.9110959999999999,-0.00671,-0.32391,0.6825,-8.4525,-3.08
33,9187670,0.9089001,-0.008174001,-0.327692,-0.14,-7.875,-3.1675
34,9187768,0.909998,-0.008174001,-0.32708200000000004,-0.8400001,-7.4025,-3.3075
35,9187866,0.9114620000000001,-0.005856,-0.321714,-1.225,-6.9825,-3.43
36,9187964,0.915732,-0.004514,-0.31903000000000004,-1.645,-6.4225,-3.5875
37,9188062,0.9201241,-0.002562,-0.315126,-1.855,-5.7925,-3.7275
38,9188160,0.9242720999999999,-0.000244,-0.311344,-2.205,-4.9175,-3.99
39,9188258,0.9301280000000001,0.00183,-0.310612,-2.1875,-4.41,-4.095
40,9188355,0.9362280000000001,0.002318,-0.310368,-2.03,-4.06,-4.165
41,9188453,0.94001,0.002318,-0.312076,-1.925,-3.7625,-4.0075
42,9188551,0.9441579999999999,0.002318,-0.313052,-1.9425,-3.6925,-4.0425
43,9188649,0.942816,0.000976,-0.315492,-1.925,-3.7975,-4.06
44,9188747,0.941718,-0.001586,-0.31646799999999997,-2.03,-4.06,-4.2
45,9188845,0.94001,-0.00366,-0.318298,-2.45,-4.305,-4.165
46,9188943,0.9379360000000001,-0.00366,-0.319396,-2.8525,-4.6025,-4.1475
47,9189041,0.936472,-0.00366,-0.317688,-3.22,-4.97,-4.1475
48,9189139,0.934642,-0.004148001,-0.318054,-3.4825,-5.39,-4.1125
49,9189236,0.9340321,-0.003172,-0.3172,-3.5875,-5.565,-4.095
50,9189334,0.932934,-0.002562,-0.316102,-3.6575,-5.425,-4.095
51,9189432,0.9311040999999999,-0.00061,-0.315736,-3.675,-5.32,-4.0775
52,9189530,0.930982,0.000366,-0.31463800000000003,-3.6575,-5.075,-4.0075
53,9189628,0.9324460999999999,0.002562,-0.313662,-3.6575,-4.795,-3.9725
54,9189726,0.9317141,0.002196,-0.312808,-3.78,-4.585,-4.0075
55,9189824,0.9324460999999999,0.001464,-0.31402800000000003,-3.6925,-4.4275,-4.13
56,9189922,0.93391,-0.000732,-0.31890799999999997,-3.745,-4.3575,-4.235
57,9190020,0.9345201,0.001586,-0.31903000000000004,-3.815,-4.585,-4.095
58,9190118,0.935984,0.002928,-0.31646799999999997,-3.57,-4.7775,-3.9725
59,9190215,0.9375700000000001,0.002562,-0.316834,-3.36,-4.8475,-3.78
60,9190313,0.9363501000000001,0.002806,-0.31598000000000004,-3.0975,-5.005,-3.78
61,9190411,0.93696,0.0008540001,-0.311954,-2.9575,-4.9875,-3.7275
62,9190509,0.938058,0.002074,-0.312076,-2.835,-5.04,-3.7975
63,9190607,0.9370821,0.002196,-0.312076,-2.7825,-5.0575,-3.7625
64,9190705,0.935984,0.001586,-0.31402800000000003,-2.73,-5.18,-3.7275
65,9190803,0.936716,-0.000488,-0.314882,-2.8525,-5.3375,-3.745
66,9190901,0.9362280000000001,0.000366,-0.31476,-2.87,-5.3725,-3.815
67,9190999,0.9376921,0.001342,-0.31476,-2.73,-5.74,-3.7625
68,9191096,0.9357401,0.002562,-0.315126,-2.5725,-5.985,-3.5875
69,9191194,0.935984,0.004026,-0.31415,-2.52,-6.055,-3.5
70,9191292,0.9354959999999999,0.003172,-0.315126,-2.59,-6.1425,-3.5
71,9191390,0.9354959999999999,0.003904,-0.31232,-2.3275,-6.09,-3.5175
72,9191488,0.9333,0.002562,-0.31317399999999995,-1.9775,-6.0725,-3.6225
73,9191586,0.93147,0.001464,-0.314882,-1.645,-5.95,-3.64
74,9191684,0.930494,0.00244,-0.314882,-1.4,-5.74,-3.675
75,9191782,0.93086,0.002074,-0.316346,-1.19,-5.6,-3.6575
76,9191880,0.930006,0.002318,-0.316346,-1.2075,-5.495,-3.71
77,9191977,0.93086,0.002684,-0.317932,-1.1375,-5.285,-3.815
78,9192075,0.93269,-0.00061,-0.31646799999999997,-1.0325,-5.1625,-3.8675
79,9192173,0.934276,-0.003782,-0.315004,-0.8575,-5.2675,-3.9025
80,9192271,0.936106,-0.004392,-0.314394,-0.8225,-5.46,-4.06
81,9192369,0.9375700000000001,-0.004514,-0.313906,-0.8400001,-5.4775,-4.0425
82,9192467,0.9375700000000001,-0.005612,-0.311832,-0.91,-5.53,-4.2
83,9192565,0.9375700000000001,-0.006344,-0.31158800000000003,-0.9625,-5.5825,-4.2175
84,9192663,0.9357401,-0.005368,-0.31049,-1.015,-5.7575,-4.2525
85,9192761,0.9340321,-0.003172,-0.311832,-0.9275,-5.7925,-4.2875
86,9192859,0.93269,-0.001342,-0.312442,-0.8400001,-5.565,-4.2875
87,9192956,0.9331780000000001,0.000366,-0.310612,-0.7175,-5.425,-4.2525
88,9193054,0.93147,0.00061,-0.311954,-0.6125,-5.3725,-4.2525
89,9193152,0.931348,-0.000488,-0.312076,-0.6475,-5.3025,-4.4975
90,9193250,0.931958,-0.002074,-0.313906,-0.7175,-5.3025,-4.55
91,9193348,0.9330560999999999,-0.003172,-0.31463800000000003,-0.9625,-5.32,-4.795
92,9193446,0.9323239999999999,-0.003782,-0.316346,-0.9975,-5.285,-4.83
93,9193544,0.934642,-0.00427,-0.31598000000000004,-1.1725,-5.285,-4.9875
94,9193642,0.934642,-0.005002,-0.31537,-1.3475,-5.3375,-5.11
95,9193740,0.9354959999999999,-0.00488,-0.314882,-1.47,-5.355,-5.2325
96,9193838,0.933666,-0.00427,-0.316346,-1.435,-5.1625,-5.3725
97,9193935,0.934642,-0.00366,-0.315492,-1.26,-5.0225,-5.3725
98,9194033,0.931958,-0.000732,-0.315614,-1.225,-5.0575,-5.355
99,9194131,0.9323239999999999,0.000244,-0.315492,-1.3125,-4.9875,-5.3375
100,9194229,0.931348,0.001342,-0.316102,-1.47,-4.9,-5.4775
101,9194327,0.9302501,0.002928,-0.31598000000000004,-1.505,-4.83,-5.565
102,9194425,0.9325680000000001,0.002318,-0.313296,-1.68,-4.9,-5.705
103,9194523,0.9317141,0.00366,-0.312198,-1.855,-4.7425,-5.7225
104,9194621,0.9320801,0.000244,-0.31354,-2.0825,-4.7075,-5.74
105,9194718,0.934154,0.000488,-0.312442,-2.2575,-4.55,-5.81
106,9194816,0.93879,0.0,-0.310368,-2.4675,-4.55,-5.705
107,9194914,0.9398880999999999,-0.001464,-0.309636,-2.8,-4.76,-5.74
108,9195012,0.942084,-0.000488,-0.310734,-3.0625,-4.9875,-5.67
109,9195110,0.943426,0.000732,-0.31171,-3.2725,-5.425,-5.4775
110,9195208,0.9409860999999999,0.005246,-0.311222,-3.6575,-5.845,-5.495
111,9195306,0.9394,0.00427,-0.314882,-3.7625,-6.23,-5.5475
112,9195404,0.9392780000000001,0.003904,-0.313662,-3.7625,-6.3175,-5.67
113,9195502,0.938058,0.0051240009999999996,-0.313906,-3.6225,-6.475,-5.67
114,9195600,0.9368380999999999,0.005734,-0.315126,-3.64,-6.5275,-5.5825
115,9195698,0.93696,0.006832001,-0.313296,-3.395,-6.4575,-5.53
116,9195795,0.9353741,0.007320001,-0.313052,-3.15,-6.65,-5.39
117,9195893,0.934276,0.008052001,-0.313906,-3.115,-6.7725,-5.25
118,9195991,0.9337880999999999,0.00976,-0.316224,-3.22,-6.755,-5.145
119,9196089,0.9340321,0.007320001,-0.31756599999999996,-3.4475,-6.7375,-5.145
120,9196187,0.934276,0.006222,-0.31585799999999997,-3.465,-6.7725,-5.0925
121,9196285,0.9348860999999999,0.005246,-0.315126,-3.6225,-6.8075,-5.0575
122,9196383,0.9362280000000001,0.005002,-0.316102,-3.675,-6.825,-5.005
123,9196481,0.9347639999999999,0.005368,-0.3172,-3.71,-6.72,-4.8825
124,9196579,0.933666,0.00488,-0.320372,-3.6925,-6.93,-4.725
125,9196676,0.9311040999999999,0.005734,-0.31890799999999997,-3.7625,-7.1225,-4.7075
126,9196774,0.9311040999999999,0.007564001,-0.320982,-3.675,-7.105,-4.585
127,9196872,0.930372,0.010004,-0.320006,-3.535,-7.0,-4.4975
128,9196970,0.930982,0.012444,-0.31964000000000004,-3.4825,-6.79,-4.6725
129,9197068,0.928542,0.014396,-0.320982,-3.4125,-6.65,-4.6725
130,9197166,0.928176,0.013786000000000001,-0.320738,-3.2375,-6.51,-4.655
131,9197264,0.927932,0.01403,-0.32086,-3.2375,-6.4225,-4.55
132,9197362,0.9292739999999999,0.01464,-0.321714,-3.29,-6.405,-4.55
133,9197460,0.928176,0.01403,-0.321348,-3.3775,-6.3,-4.585
134,9197558,0.928054,0.014518000000000001,-0.320006,-3.3775,-6.1075,-4.5675
135,9197656,0.9301280000000001,0.014274,-0.321226,-3.43,-5.845,-4.5325
136,9197753,0.9318360000000001,0.016104,-0.322446,-3.22,-5.7575,-4.515
137,9197851,0.9333,0.01769,-0.32391,-3.1325,-5.7225,-4.4625
138,9197949,0.9352520000000001,0.020008,-0.324642,-2.8525,-5.81,-4.41
139,9198047,0.9358620999999999,0.020130000000000002,-0.325374,-2.555,-6.02,-4.41
140,9198145,0.9333,0.019275999999999998,-0.323788,-2.31,-6.265,-4.375
141,9198243,0.934154,0.017202000000000002,-0.320738,-2.0475,-6.72,-4.41
142,9198341,0.9315921,0.016225999999999997,-0.321104,-1.89,-6.93,-4.4975
143,9198439,0.9302501,0.011956,-0.320128,-1.82,-6.93,-4.41
144,9198537,0.92781,0.01098,-0.318054,-1.855,-6.825,-4.4625
145,9198635,0.925858,0.010858,-0.31842,-1.9425,-6.7725,-4.4975
146,9198732,0.9263459999999999,0.01098,-0.32147,-2.0125,-6.58,-4.585
147,9198830,0.9267120000000001,0.0122,-0.321836,-1.925,-6.335,-4.515
148,9198928,0.9267120000000001,0.01586,-0.3233,-1.68,-6.195,-4.5325
149,9199026,0.9270780999999999,0.017446,-0.323178,-1.4525,-6.0375,-4.41
150,9199124,0.9287861,0.016714,-0.32256799999999997,-1.33,-5.845,-4.375
151,9199222,0.930494,0.016714,-0.322934,-1.33,-5.74,-4.41
152,9199320,0.930006,0.015982,-0.324398,-1.12,-5.74,-4.4275
153,9199418,0.9302501,0.014152000000000001,-0.324642,-1.0675,-5.74,-4.4625
154,9199516,0.930494,0.013663999999999999,-0.323788,-0.7875,-5.6525,-4.5325
155,9199614,0.928176,0.01403,-0.32391,-0.5075,-5.5475,-4.5675
156,9199712,0.927322,0.013297999999999999,-0.321714,-0.35,-5.46,-4.6025
157,9199809,0.9264680000000001,0.013175999999999998,-0.320982,-0.1225,-5.355,-4.69
158,9199907,0.928176,0.014518000000000001,-0.32025,0.07,-5.18,-4.725
159,9200005,0.930006,0.015128,-0.31842,0.4025,-4.9875,-4.7075
160,9200103,0.928542,0.014762,-0.319152,0.5425,-4.8125,-4.8125
161,9200201,0.9290299999999999,0.014274,-0.321104,0.8925,-4.6375,-4.7775
162,9200299,0.9315921,0.013541999999999998,-0.31781,1.1725,-4.76,-4.6725
163,9200397,0.9323239999999999,0.011956,-0.317078,1.4,-4.7425,-4.69
164,9200495,0.9356180000000001,0.010858,-0.318176,1.26,-4.7075,-4.69
165,9200593,0.93879,0.008784,-0.317444,1.085,-4.76,-4.8475
166,9200691,0.9404981,0.010858,-0.316956,0.91,-5.075,-5.04
167,9200789,0.9404981,0.011834,-0.31781,0.945,-5.355,-5.0575
168,9200886,0.93879,0.01037,-0.318054,1.12,-5.705,-5.0225
169,9200984,0.936472,0.009637999999999999,-0.31951799999999997,1.2075,-6.055,-5.1625
170,9201082,0.9353741,0.009150001,-0.319152,1.33,-6.195,-5.0225
171,9201180,0.933666,0.008662000999999999,-0.31964000000000004,1.5225,-6.3875,-4.9875
172,9201278,0.931958,0.007686,-0.321104,1.575,-6.2825,-5.0225
173,9201376,0.9295180000000001,0.007076001,-0.320494,1.47,-6.16,-5.11
174,9201474,0.9295180000000001,0.005978,-0.320982,1.435,-6.1775,-5.1975
175,9201572,0.9295180000000001,0.005734,-0.32195799999999997,1.47,-6.23,-5.25
176,9201670,0.9287861,0.005002,-0.321836,1.5225,-6.2475,-5.285
177,9201768,0.928542,0.00549,-0.321348,1.47,-6.2475,-5.3025
178,9201866,0.928054,0.004026,-0.320128,1.26,-6.2125,-5.25
179,9201963,0.9290299999999999,0.002806,-0.32147,1.155,-6.09,-5.215
180,9202061,0.9293961,0.001586,-0.319396,0.98,-5.9675,-5.25
181,9202159,0.9296399999999999,0.003172,-0.319884,0.77,-5.8975,-5.285
182,9202257,0.930006,0.00244,-0.32086,0.49,-5.81,-5.32
183,9202355,0.9301280000000001,0.002196,-0.321348,0.2975,-5.7225,-5.3025
184,9202453,0.9315921,0.002318,-0.31964000000000004,0.14,-5.6875,-5.3375
185,9202551,0.933422,0.007320001,-0.31964000000000004,0.105,-5.7575,-5.215
186,9202649,0.933422,0.009272001,-0.321226,-0.0525,-6.0025,-5.1275
187,9202747,0.9335440999999999,0.006587999999999999,-0.320982,-0.0875,-6.125,-5.075
188,9202845,0.9343981,0.005612,-0.317932,-0.28,-6.16,-5.1275
189,9202942,0.934154,0.008052001,-0.320372,-0.6475,-6.0725,-5.1625
190,9203040,0.93269,0.007198,-0.320006,-0.8575,-6.1075,-5.075
191,9203138,0.930006,0.007320001,-0.321104,-0.9275,-6.335,-4.9875
192,9203236,0.9270780999999999,0.005734,-0.322446,-0.9625,-6.4925,-4.725
193,9203334,0.926834,0.005368,-0.324398,-1.015,-6.545,-4.585
194,9203432,0.928176,0.005856,-0.324764,-1.19,-6.51,-4.6375
195,9203530,0.9296399999999999,0.00488,-0.323178,-1.295,-6.37,-4.725
196,9203628,0.9287861,0.005978,-0.32391,-1.4175,-6.195,-4.7075
197,9203726,0.9282981,0.007808001,-0.324642,-1.645,-6.1425,-4.69
198,9203824,0.9289081,0.008906,-0.324154,-1.715,-6.0725,-4.55
199,9203922,0.9282981,0.010736,-0.32391,-1.7675,-6.055,-4.48
200,9204019,0.9295180000000001,0.008662000999999999,-0.324276,-1.8025,-6.1075,-4.305
201,9204117,0.93147,0.008662000999999999,-0.32195799999999997,-1.89,-6.1425,-4.2175
202,9204215,0.9322021,0.007808001,-0.318786,-2.0825,-6.055,-4.095
203,9204313,0.930616,0.005368,-0.317322,-2.2925,-6.02,-4.0425
204,9204411,0.9296399999999999,0.005856,-0.316834,-2.38,-5.845,-4.06
205,9204509,0.9301280000000001,0.00549,-0.317078,-2.415,-5.7925,-4.0425
206,9204607,0.9297620999999999,0.007076001,-0.319152,-2.4675,-5.6525,-3.955
207,9204705,0.9297620999999999,0.008784,-0.319274,-2.555,-5.6,-3.9025
208,9204803,0.9297620999999999,0.010004,-0.320006,-2.6775,-5.5825,-3.8675
209,9204901,0.9302501,0.010858,-0.32025,-2.73,-5.495,-3.85
210,9204999,0.9291520000000001,0.011590000000000001,-0.320128,-2.66,-5.4075,-3.7975
211,9205097,0.9307380999999999,0.010736,-0.317444,-2.6425,-5.285,-3.6575
212,9205194,0.9325680000000001,0.011712,-0.316834,-2.59,-5.215,-3.745
213,9205292,0.933666,0.01281,-0.318176,-2.625,-5.1975,-3.7975
214,9205390,0.9330560999999999,0.0122,-0.31781,-2.555,-5.1625,-3.7975
215,9205488,0.9351299999999999,0.012931999999999999,-0.319396,-2.5375,-5.145,-3.815
216,9205586,0.9337880999999999,0.01281,-0.316956,-2.3975,-5.25,-3.99
217,9205684,0.934154,0.012078,-0.319274,-2.31,-5.285,-4.06
218,9205782,0.933422,0.013054,-0.318664,-2.2225,-5.4075,-4.06
219,9205880,0.9328120000000001,0.012565999999999999,-0.31781,-2.03,-5.46,-4.0425
220,9205978,0.9323239999999999,0.011346,-0.31756599999999996,-1.8025,-5.46,-4.06
221,9206076,0.9311040999999999,0.011346,-0.318054,-1.6625,-5.4425,-4.165
222,9206174,0.93147,0.011101999999999999,-0.318664,-1.5225,-5.46,-4.1825
223,9206271,0.9315921,0.011468,-0.3172,-1.435,-5.39,-4.13
224,9206369,0.930982,0.013175999999999998,-0.316346,-1.2425,-5.495,-4.2
225,9206467,0.9315921,0.00976,-0.31524800000000003,-1.2775,-5.5125,-4.2175
226,9206565,0.9331780000000001,0.01037,-0.3172,-1.2425,-5.4775,-4.2
227,9206663,0.9340321,0.009882,-0.315736,-1.225,-5.5125,-4.2175
228,9206761,0.9330560999999999,0.010248,-0.31585799999999997,-1.26,-5.53,-4.2175
229,9206859,0.9333,0.010248,-0.31890799999999997,-1.155,-5.6525,-4.2525
230,9206957,0.934276,0.01037,-0.319152,-1.085,-5.67,-4.27
231,9207055,0.933666,0.012444,-0.319274,-1.1725,-5.6875,-4.305
232,9207153,0.9345201,0.010492,-0.319152,-1.225,-5.81,-4.235
233,9207250,0.93391,0.008662000999999999,-0.316712,-0.875,-6.09,-4.3225
234,9207348,0.935008,0.007320001,-0.31842,-0.595,-6.1075,-4.305
235,9207446,0.9347639999999999,0.008662000999999999,-0.318786,-0.5425,-6.055,-4.2
236,9207544,0.934154,0.008174001,-0.31781,-0.3675,-6.0725,-4.13
237,9207642,0.9337880999999999,0.006832001,-0.318176,-0.1925,-6.1075,-4.095
238,9207740,0.932934,0.007198,-0.31756599999999996,-0.0875,-6.1425,-4.0425
239,9207838,0.9298841,0.007320001,-0.316834,0.0,-6.0725,-3.8675
240,9207936,0.9307380999999999,0.008052001,-0.318054,0.175,-5.8625,-3.7975
241,9208034,0.930982,0.005002,-0.316102,0.7875,-5.6,-3.7975
242,9208131,0.9302501,0.002562,-0.31524800000000003,1.6625,-5.6,-3.675
243,9208229,0.9297620999999999,-0.001586,-0.31842,1.7325,-5.4075,-3.7975
244,9208327,0.930616,0.000976,-0.324642,0.805,-5.005,-3.9375
245,9208425,0.9324460999999999,0.00305,-0.322934,0.105,-4.865,-4.165
246,9208523,0.930372,0.0064659999999999995,-0.319152,0.1225,-5.285,-4.235
247,9208621,0.9297620999999999,0.005978,-0.315004,0.77,-5.67,-4.305
248,9208719,0.928542,0.0051240009999999996,-0.31646799999999997,1.1725,-5.7225,-4.3575
249,9208817,0.927322,0.00366,-0.319762,0.8575,-5.355,-4.3575
250,9208915,0.9284200999999999,0.00366,-0.319396,0.3325,-5.285,-4.3925
251,9209013,0.928176,0.002806,-0.317688,-0.035,-5.3025,-4.585
252,9209111,0.9289081,0.002928,-0.316956,-0.07,-5.2675,-4.6025
253,9209208,0.930616,0.001342,-0.315736,-0.14,-5.18,-4.62
254,9209306,0.9311040999999999,0.000244,-0.319274,-0.3325,-5.1275,-4.655
255,9209404,0.9333,0.000244,-0.319152,-0.455,-5.1625,-4.69
256,9209502,0.9331780000000001,0.002074,-0.318298,-0.6125,-5.2675,-4.83
257,9209600,0.933666,0.001464,-0.317078,-0.56,-5.25,-4.8125
258,9209698,0.9322021,0.001952,-0.318298,-0.525,-5.3025,-4.76
259,9209796,0.93147,0.002196,-0.31598000000000004,-0.42,-5.215,-4.865
260,9209894,0.931958,0.002684,-0.314394,-0.3325,-5.0925,-4.83
261,9209992,0.9323239999999999,0.002562,-0.312686,-0.42,-5.11,-4.97
262,9210090,0.931958,0.002562,-0.31317399999999995,-0.525,-5.1625,-5.1275
263,9210188,0.932934,0.002928,-0.31354,-0.5775,-5.25,-5.0225
264,9210285,0.9311040999999999,0.002074,-0.310368,-0.63,-5.145,-5.075
265,9210383,0.9322021,0.002684,-0.31232,-0.7175,-5.1625,-5.1275
266,9210481,0.9333,0.001952,-0.316224,-0.9275,-5.04,-5.0925
267,9210579,0.9330560999999999,0.00244,-0.31659,-1.0325,-5.075,-5.1275
268,9210677,0.934276,0.0032939999999999996,-0.318176,-1.085,-5.1275,-5.0225
269,9210775,0.9337880999999999,0.0034159999999999998,-0.31585799999999997,-0.98,-5.1625,-4.9
270,9210873,0.9324460999999999,0.005002,-0.317078,-0.7175,-5.2325,-4.935
271,9210971,0.9328120000000001,0.00488,-0.316346,-0.665,-5.215,-4.865
272,9211069,0.9335440999999999,0.005856,-0.317444,-0.665,-5.18,-4.7775
273,9211167,0.9335440999999999,0.006344,-0.318054,-0.7525,-5.145,-4.725
274,9211265,0.932934,0.005734,-0.317078,-0.63,-5.25,-4.7075
275,9211363,0.931226,0.00549,-0.316102,-0.56,-5.1975,-4.7425
276,9211461,0.930982,0.00366,-0.31598000000000004,-0.42,-5.215,-4.7425
277,9211558,0.931226,0.003172,-0.31585799999999997,-0.385,-5.11,-4.83
278,9211656,0.9298841,0.0032939999999999996,-0.315614,-0.3675,-5.075,-4.725
279,9211754,0.931226,0.002928,-0.316834,-0.525,-4.9525,-4.725
280,9211852,0.9318360000000001,0.0032939999999999996,-0.316224,-0.5775,-4.9875,-4.655
281,9211950,0.9352520000000001,0.004026,-0.317688,-0.595,-5.11,-4.6725
282,9212048,0.934642,0.002562,-0.316224,-0.735,-5.285,-4.6025
283,9212146,0.9343981,0.002684,-0.31598000000000004,-0.805,-5.5125,-4.5675
284,9212244,0.935008,0.0032939999999999996,-0.31476,-0.805,-5.6525,-4.515
285,9212342,0.936106,0.0034159999999999998,-0.313296,-0.7875,-5.7925,-4.305
286,9212440,0.935984,0.003172,-0.313906,-0.875,-5.8625,-4.2875
287,9212538,0.936106,0.003782,-0.31463800000000003,-1.015,-5.95,-4.2875
288,9212635,0.9343981,0.004148001,-0.31598000000000004,-1.0325,-6.0725,-4.3575
289,9212733,0.9335440999999999,0.003172,-0.316224,-1.05,-6.195,-4.2875
290,9212831,0.9320801,0.0034159999999999998,-0.31537,-0.9625,-6.405,-4.235
291,9212929,0.9324460999999999,0.0032939999999999996,-0.31354,-1.05,-6.475,-4.1475
292,9213027,0.93086,0.00305,-0.312076,-1.1375,-6.405,-4.165
293,9213125,0.9333,0.00244,-0.313296,-1.225,-6.16,-4.305
294,9213223,0.93269,0.002074,-0.310612,-1.155,-6.02,-4.34
295,9213321,0.9322021,0.00183,-0.310368,-1.1375,-5.8275,-4.3575
296,9213419,0.9328120000000001,0.002196,-0.310856,-1.365,-5.6,-4.3925
297,9213517,0.9325680000000001,0.0017079999999999999,-0.312442,-1.4175,-5.5825,-4.4625
298,9213615,0.934154,0.003904,-0.31158800000000003,-1.61,-5.565,-4.6375
299,9213713,0.9352520000000001,0.004148001,-0.30988000000000004,-1.505,-5.53,-4.69
300,9213811,0.934276,0.004148001,-0.310002,-1.4525,-5.5825,-4.655
301,9213908,0.9348860999999999,0.004148001,-0.310734,-1.4175,-5.5125,-4.725
302,9214006,0.9352520000000001,0.004514,-0.30866,-1.505,-5.5825,-4.725
303,9214104,0.9352520000000001,0.003904,-0.30853800000000003,-1.5925,-5.5125,-4.655
304,9214202,0.935984,0.002806,-0.306342,-1.82,-5.4775,-4.655
305,9214300,0.93696,0.003172,-0.30707399999999996,-1.785,-5.4425,-4.69
306,9214398,0.9362280000000001,0.00305,-0.30841599999999997,-1.9425,-5.4775,-4.795
307,9214496,0.936594,0.004514,-0.30988000000000004,-2.205,-5.5125,-4.76
308,9214594,0.9372040999999999,0.003782,-0.309758,-2.17,-5.6875,-4.8125
309,9214692,0.936716,0.004148001,-0.31049,-2.345,-5.845,-4.76
310,9214790,0.9340321,0.004392,-0.313296,-2.4675,-5.9325,-4.8125
311,9214888,0.932934,0.00488,-0.313296,-2.4325,-6.02,-4.8475
312,9214986,0.9328120000000001,0.005734,-0.314272,-2.5375,-6.055,-4.865
313,9215084,0.93391,0.006344,-0.31354,-2.555,-6.125,-4.8825
314,9215181,0.9323239999999999,0.008784,-0.313418,-2.5025,-6.195,-4.935
315,9215279,0.9345201,0.009028000999999999,-0.31646799999999997,-2.555,-6.1425,-5.11
316,9215377,0.9352520000000001,0.008906,-0.316834,-2.6075,-6.09,-5.11
317,9215475,0.9347639999999999,0.009394,-0.315614,-2.485,-6.1075,-4.9875
318,9215573,0.9343981,0.00793,-0.310612,-2.03,-6.125,-4.795
319,9215671,0.933422,0.005734,-0.31171,-1.5575,-6.1425,-4.7425
320,9215769,0.9335440999999999,0.0034159999999999998,-0.313418,-1.5225,-6.09,-4.515
321,9215867,0.931958,0.001464,-0.312076,-1.7675,-6.09,-4.5675
322,9215965,0.9315921,0.001342,-0.3111,-1.995,-6.0725,-4.6725
323,9216063,0.9302501,0.00122,-0.308904,-2.0825,-5.9675,-4.725
324,9216161,0.931226,0.00244,-0.309392,-2.0825,-5.8625,-4.8475
325,9216259,0.931226,0.004392,-0.31171,-2.1175,-5.7925,-4.8825
326,9216356,0.931226,0.004026,-0.31232,-2.205,-5.705,-4.8475
327,9216454,0.9323239999999999,0.0064659999999999995,-0.312808,-2.1875,-5.67,-4.9525
328,9216552,0.9333,0.007442,-0.31317399999999995,-2.24,-5.6875,-4.9525
329,9216650,0.9335440999999999,0.00793,-0.315126,-2.3275,-5.81,-4.935
330,9216748,0.934154,0.010492,-0.314272,-2.5025,-5.845,-4.9175
331,9216846,0.933666,0.011224,-0.31524800000000003,-2.6075,-5.8975,-4.9875
332,9216944,0.933666,0.010248,-0.313784,-2.5025,-5.775,-5.0225
333,9217042,0.9333,0.01037,-0.31659,-2.4675,-5.6,-5.075
334,9217140,0.9320801,0.009272001,-0.315126,-2.31,-5.5475,-5.0575
335,9217238,0.9325680000000001,0.008662000999999999,-0.316102,-2.38,-5.46,-5.005
336,9217336,0.9328120000000001,0.006344,-0.315614,-2.415,-5.4425,-4.795
337,9217434,0.9323239999999999,0.00549,-0.316224,-2.485,-5.3725,-4.7425
338,9217531,0.9320801,0.006954000000000001,-0.31598000000000004,-2.3275,-5.32,-4.8125
339,9217629,0.9331780000000001,0.008418,-0.31537,-2.1875,-5.3025,-4.7775
340,9217727,0.93391,0.009516001,-0.314394,-2.135,-5.2325,-4.8475
341,9217825,0.9353741,0.008784,-0.31415,-2.0125,-5.1975,-4.8125
342,9217923,0.9358620999999999,0.010492,-0.313052,-2.065,-5.32,-4.8125
343,9218021,0.9358620999999999,0.012444,-0.31415,-2.065,-5.3375,-4.7775
344,9218119,0.936472,0.012688,-0.314272,-2.03,-5.5475,-4.83
345,9218217,0.9357401,0.011834,-0.313906,-2.065,-5.5825,-4.69
346,9218315,0.9343981,0.012322,-0.314394,-2.065,-5.6175,-4.6375
347,9218412,0.9340321,0.013297999999999999,-0.31524800000000003,-2.2225,-5.6,-4.6725
348,9218510,0.9348860999999999,0.011956,-0.31646799999999997,-2.38,-5.67,-4.7075
349,9218608,0.9354959999999999,0.011468,-0.316712,-2.38,-5.7575,-4.585
350,9218706,0.9347639999999999,0.010858,-0.318176,-2.3975,-5.6175,-4.655
351,9218804,0.9363501000000001,0.010126000000000001,-0.316834,-2.3975,-5.81,-4.62
352,9218902,0.9379360000000001,0.011834,-0.318054,-2.2575,-6.0025,-4.585
353,9219000,0.9352520000000001,0.010248,-0.315614,-2.1,-6.1425,-4.4975
354,9219098,0.9335440999999999,0.008784,-0.31585799999999997,-2.03,-6.2475,-4.515
355,9219196,0.9324460999999999,0.009637999999999999,-0.313784,-1.995,-6.2475,-4.48
356,9219293,0.931348,0.01037,-0.313784,-1.9425,-6.3,-4.5325
357,9219391,0.9311040999999999,0.011101999999999999,-0.31537,-1.925,-6.02,-4.4975
358,9219489,0.93147,0.009150001,-0.31232,-1.9775,-5.9325,-4.4625
359,9219587,0.9298841,0.009150001,-0.313784,-2.17,-5.915,-4.375
360,9219685,0.9322021,0.010492,-0.313296,-2.2925,-6.0025,-4.34
361,9219783,0.932934,0.009028000999999999,-0.313052,-2.3625,-6.0375,-4.305
362,9219881,0.9345201,0.009516001,-0.31293000000000004,-2.38,-5.985,-4.27
363,9219979,0.9357401,0.010492,-0.312442,-2.3625,-6.02,-4.27
364,9220077,0.9358620999999999,0.01281,-0.31317399999999995,-2.4325,-6.0025,-4.2175
365,9220175,0.9353741,0.012688,-0.31463800000000003,-2.45,-5.9675,-4.235
366,9220272,0.934154,0.013054,-0.31293000000000004,-2.3275,-6.02,-4.2
367,9220370,0.9320801,0.015006,-0.312442,-2.2925,-6.16,-4.165
368,9220468,0.9328120000000001,0.016104,-0.312198,-2.17,-6.1425,-4.1125
369,9220566,0.930982,0.015616,-0.31415,-2.0825,-6.02,-4.2
370,9220664,0.93147,0.016836,-0.313662,-2.0475,-5.9675,-4.235
371,9220762,0.931226,0.015738,-0.313296,-2.03,-5.8975,-4.305
372,9220860,0.9311040999999999,0.014152000000000001,-0.312442,-1.96,-5.775,-4.2875
373,9220958,0.9328120000000001,0.013908000000000002,-0.313906,-1.89,-5.74,-4.4625
374,9221056,0.933666,0.014518000000000001,-0.313906,-1.8025,-5.635,-4.5675
375,9221154,0.932934,0.013786000000000001,-0.315492,-1.75,-5.4075,-4.5325
376,9221251,0.9325680000000001,0.014518000000000001,-0.31646799999999997,-1.645,-5.4075,-4.48
377,9221349,0.930616,0.015128,-0.316346,-1.54,-5.25,-4.515
378,9221448,0.931958,0.014396,-0.315492,-1.33,-5.18,-4.62
379,9221545,0.9324460999999999,0.013054,-0.315736,-1.3475,-5.18,-4.445
380,9221643,0.931958,0.01281,-0.313418,-1.365,-5.425,-4.4625
381,9221741,0.932934,0.009882,-0.31232,-1.47,-5.5825,-4.5325
382,9221839,0.9345201,0.009150001,-0.31097800000000003,-1.6625,-5.5475,-4.4975
383,9221937,0.932934,0.008906,-0.31012399999999996,-1.855,-5.5125,-4.48
384,9222035,0.9333,0.008906,-0.309026,-1.82,-5.3375,-4.48
385,9222133,0.933666,0.00976,-0.309636,-1.75,-5.25,-4.3925
386,9222230,0.934276,0.011590000000000001,-0.31293000000000004,-1.7325,-5.2675,-4.445
387,9222328,0.9330560999999999,0.012322,-0.31354,-1.715,-5.2325,-4.4975
388,9222426,0.93269,0.013175999999999998,-0.31415,-1.6275,-5.215,-4.585
389,9222524,0.930494,0.013175999999999998,-0.31354,-1.61,-5.285,-4.6025
390,9222622,0.9318360000000001,0.013297999999999999,-0.31354,-1.715,-5.215,-4.5675
391,9222720,0.931348,0.012565999999999999,-0.31537,-1.715,-5.0925,-4.5675
392,9222818,0.931958,0.01281,-0.315736,-1.715,-5.1275,-4.6025
393,9222916,0.9331780000000001,0.013663999999999999,-0.314882,-1.7325,-5.1275,-4.6375
394,9223014,0.932934,0.01281,-0.31476,-1.8025,-5.11,-4.515
395,9223112,0.933422,0.012565999999999999,-0.314272,-1.8025,-5.11,-4.5675
396,9223210,0.93391,0.015006,-0.31524800000000003,-1.8725,-5.04,-4.6375
397,9223307,0.9337880999999999,0.015738,-0.316102,-1.8025,-4.9175,-4.62
398,9223405,0.934154,0.013663999999999999,-0.316712,-1.785,-4.9,-4.6725
399,9223503,0.9340321,0.015738,-0.31476,-1.75,-4.9,-4.585
400,9223601,0.9340321,0.017202000000000002,-0.31524800000000003,-1.5925,-5.215,-4.48
401,9223699,0.9347639999999999,0.015616,-0.315614,-1.5225,-5.3375,-4.41
402,9223797,0.9370821,0.015493999999999999,-0.313662,-1.5575,-5.495,-4.4625
403,9223895,0.936594,0.013054,-0.315736,-1.75,-5.5125,-4.4275
404,9223993,0.9354959999999999,0.012688,-0.31415,-1.9775,-5.495,-4.5325
405,9224091,0.93391,0.011834,-0.313662,-2.0825,-5.46,-4.5325
406,9224189,0.9307380999999999,0.012322,-0.313906,-2.1175,-5.425,-4.5325
407,9224286,0.9307380999999999,0.012565999999999999,-0.31537,-2.1,-5.46,-4.4975
408,9224384,0.930006,0.013541999999999998,-0.317078,-2.1525,-5.4775,-4.3925
409,9224482,0.930372,0.013908000000000002,-0.31524800000000003,-2.1525,-5.495,-4.4275
410,9224580,0.93147,0.012565999999999999,-0.316224,-2.065,-5.39,-4.375
411,9224678,0.9311040999999999,0.013054,-0.31415,-2.1175,-5.3375,-4.34
412,9224776,0.9322021,0.011468,-0.31451599999999996,-2.065,-5.18,-4.2
413,9224874,0.932934,0.0122,-0.31402800000000003,-2.1875,-5.005,-4.2175
414,9224972,0.9331780000000001,0.013786000000000001,-0.314272,-2.1875,-4.9,-4.2
415,9225070,0.93269,0.012565999999999999,-0.313906,-2.31,-4.8475,-4.2175
416,9225168,0.9317141,0.012931999999999999,-0.313662,-2.3275,-4.795,-4.13
417,9225265,0.931226,0.013663999999999999,-0.312808,-2.2575,-4.725,-4.1125
418,9225363,0.931226,0.012688,-0.31317399999999995,-2.205,-4.4625,-4.235
419,9225461,0.9289081,0.013297999999999999,-0.312686,-2.1525,-4.3925,-4.3575
420,9225559,0.9296399999999999,0.012444,-0.312564,-2.065,-4.2525,-4.27
421,9225657,0.93086,0.014274,-0.312564,-1.9425,-4.1825,-4.235
422,9225755,0.9328120000000001,0.01464,-0.312442,-1.785,-4.1825,-4.2875
423,9225853,0.9337880999999999,0.016225999999999997,-0.31158800000000003,-1.8025,-4.2,-4.1825
424,9225951,0.9353741,0.01647,-0.31232,-1.82,-4.2875,-4.2
425,9226049,0.9368380999999999,0.016225999999999997,-0.31146599999999997,-1.7325,-4.2875,-4.1825
426,9226147,0.934276,0.016592,-0.31232,-1.715,-4.3575,-4.2525
427,9226244,0.9340321,0.016836,-0.313784,-1.7325,-4.375,-4.34
428,9226342,0.93391,0.015982,-0.313784,-1.6275,-4.4975,-4.445
429,9226440,0.932934,0.014396,-0.314882,-1.47,-4.585,-4.5325
430,9226538,0.9330560999999999,0.01464,-0.31317399999999995,-1.54,-4.69,-4.5325
431,9226636,0.9328120000000001,0.01342,-0.31232,-1.4175,-4.585,-4.5675
432,9226734,0.9328120000000001,0.014152000000000001,-0.314272,-1.3125,-4.585,-4.6025
433,9226832,0.9335440999999999,0.014396,-0.31476,-1.2775,-4.4625,-4.655
434,9226930,0.9348860999999999,0.012931999999999999,-0.315004,-1.2425,-4.4625,-4.6025
435,9227028,0.9370821,0.011712,-0.314882,-1.2775,-4.41,-4.7075
436,9227126,0.9362280000000001,0.01342,-0.315126,-1.4,-4.6025,-4.6725
437,9227224,0.9352520000000001,0.012444,-0.313784,-1.3475,-4.725,-4.6725
438,9227321,0.9343981,0.011224,-0.31232,-1.33,-4.935,-4.5675
439,9227419,0.9347639999999999,0.010858,-0.311222,-1.3475,-4.9875,-4.55
440,9227517,0.9340321,0.009882,-0.310246,-1.54,-5.005,-4.62
441,9227615,0.932934,0.011224,-0.309758,-1.7325,-4.97,-4.585
442,9227713,0.932934,0.01098,-0.309026,-1.715,-4.935,-4.515
443,9227811,0.9333,0.011224,-0.309636,-1.6275,-4.8825,-4.375
444,9227909,0.9337880999999999,0.012444,-0.30927,-1.54,-4.7775,-4.48
445,9228007,0.9358620999999999,0.01342,-0.310246,-1.365,-4.83,-4.445
446,9228105,0.9358620999999999,0.014152000000000001,-0.309514,-1.1375,-4.8825,-4.4625
447,9228203,0.9347639999999999,0.014274,-0.30927,-1.1375,-4.9175,-4.4275
448,9228301,0.9333,0.01464,-0.31158800000000003,-1.1025,-4.8475,-4.41
449,9228398,0.9333,0.013663999999999999,-0.311832,-1.085,-4.76,-4.445
450,9228496,0.93391,0.013054,-0.31171,-1.1375,-4.725,-4.48
451,9228594,0.932934,0.013054,-0.31158800000000003,-1.12,-4.83,-4.4625
452,9228692,0.9322021,0.012931999999999999,-0.310002,-1.05,-4.8475,-4.445
453,9228790,0.9318360000000001,0.012565999999999999,-0.3111,-0.98,-4.7425,-4.48
454,9228888,0.932934,0.012931999999999999,-0.308782,-0.91,-4.6025,-4.5325
455,9228986,0.933666,0.013908000000000002,-0.307196,-0.7,-4.5325,-4.5325
456,9229084,0.935008,0.013541999999999998,-0.306098,-0.595,-4.4275,-4.62
457,9229182,0.9363501000000001,0.013054,-0.305244,-0.63,-4.305,-4.585
458,9229280,0.9386681,0.014152000000000001,-0.303048,-0.665,-4.3575,-4.7425
459,9229377,0.9383020000000001,0.01403,-0.30036399999999996,-0.595,-4.48,-4.69
460,9229475,0.9403761,0.0122,-0.299998,-0.7175,-4.4275,-4.7775
461,9229573,0.940254,0.01098,-0.29792399999999997,-0.91,-4.41,-4.8125
462,9229671,0.9408639999999999,0.010248,-0.29731399999999997,-1.015,-4.41,-4.7775
463,9229769,0.94001,0.009882,-0.298656,-1.225,-4.3575,-4.76
464,9229867,0.9370821,0.010492,-0.29987600000000003,-1.3125,-4.305,-4.76
465,9229965,0.9372040999999999,0.011834,-0.30195,-1.19,-4.3225,-4.7075
466,9230063,0.936472,0.012078,-0.30182800000000004,-1.1375,-4.48,-4.55
467,9230161,0.93879,0.013786000000000001,-0.303902,-1.05,-4.48,-4.5325
468,9230259,0.9370821,0.012322,-0.30341399999999996,-0.91,-4.4625,-4.62
469,9230357,0.93696,0.01098,-0.30341399999999996,-0.7175,-4.445,-4.585
470,9230454,0.9370821,0.009637999999999999,-0.303048,-0.7175,-4.515,-4.5325
471,9230552,0.9378139999999999,0.00976,-0.30292600000000003,-0.8400001,-4.48,-4.585
472,9230650,0.937448,0.008906,-0.303292,-0.9975,-4.48,-4.585
473,9230748,0.9383020000000001,0.009272001,-0.303048,-1.1375,-4.4275,-4.6375
474,9230846,0.9403761,0.010248,-0.30256,-1.295,-4.55,-4.655
475,9230944,0.940742,0.00976,-0.301462,-1.365,-4.5675,-4.585
476,9231042,0.941718,0.010126000000000001,-0.301584,-1.435,-4.585,-4.55
477,9231140,0.9415959999999999,0.012931999999999999,-0.300608,-1.5575,-4.7775,-4.585
478,9231238,0.9389120000000001,0.013786000000000001,-0.29902199999999995,-1.61,-5.0225,-4.4625
479,9231336,0.9390341,0.011956,-0.299998,-1.47,-5.0575,-4.445
480,9231433,0.939766,0.01098,-0.29902199999999995,-1.4175,-5.1975,-4.4625
481,9231531,0.9392780000000001,0.013054,-0.29987600000000003,-1.4875,-5.1625,-4.445
482,9231629,0.9386681,0.014274,-0.30036399999999996,-1.435,-5.215,-4.55
483,9231727,0.938058,0.016225999999999997,-0.300242,-1.5225,-5.25,-4.55
484,9231825,0.9368380999999999,0.014396,-0.29951,-1.4,-5.5125,-4.5675
485,9231923,0.9370821,0.013908000000000002,-0.29987600000000003,-1.4525,-5.6525,-4.585
486,9232021,0.9375700000000001,0.015128,-0.30036399999999996,-1.645,-5.425,-4.6725
487,9232119,0.9375700000000001,0.013786000000000001,-0.301218,-1.68,-5.4075,-4.6025
488,9232217,0.9378139999999999,0.013054,-0.300608,-1.68,-5.32,-4.6375
489,9232314,0.93879,0.014152000000000001,-0.300608,-1.575,-5.46,-4.6375
490,9232412,0.9394,0.013541999999999998,-0.302072,-1.4525,-5.5125,-4.6725
491,9232510,0.939766,0.013908000000000002,-0.30097399999999996,-1.3475,-5.5475,-4.6725
492,9232608,0.940132,0.013541999999999998,-0.30134,-1.435,-5.3725,-4.515
493,9232706,0.9368380999999999,0.01281,-0.29902199999999995,-1.365,-5.3725,-4.4975
494,9232804,0.9348860999999999,0.012444,-0.296948,-1.4,-5.2675,-4.4275
495,9232902,0.9345201,0.011346,-0.296704,-1.54,-5.04,-4.4275
496,9233000,0.9356180000000001,0.009637999999999999,-0.296704,-1.54,-4.9875,-4.4975
497,9233098,0.9357401,0.008052001,-0.294142,-1.6275,-4.865,-4.3925
498,9233196,0.9356180000000001,0.007808001,-0.293288,-1.715,-4.7425,-4.41
499,9233294,0.9375700000000001,0.008784,-0.28987199999999996,-1.9075,-4.6725,-4.445
500,9233391,0.9384239999999999,0.009637999999999999,-0.29097,-1.9425,-4.585,-4.445
501,9233489,0.9406200000000001,0.008906,-0.29133600000000004,-2.135,-4.515,-4.3925
502,9233587,0.9409860999999999,0.010614,-0.291824,-2.17,-4.6025,-4.4275
503,9233685,0.942572,0.012688,-0.293166,-2.1175,-4.6025,-4.3225
504,9233783,0.94306,0.012322,-0.291824,-2.0825,-4.655,-4.2875
505,9233881,0.9435479999999999,0.011590000000000001,-0.290604,-2.0475,-4.655,-4.235
506,9233979,0.9442801,0.012322,-0.290238,-2.1,-4.7075,-4.2525
507,9234077,0.9440360999999999,0.011712,-0.28938400000000003,-2.0825,-4.7425,-4.2175
508,9234175,0.9439139999999999,0.014396,-0.28999400000000003,-2.0825,-4.7775,-4.27
509,9234273,0.9433041,0.013541999999999998,-0.29072600000000004,-1.8725,-5.005,-4.165
510,9234370,0.9431821,0.016104,-0.289506,-1.8375,-5.005,-4.305
511,9234468,0.9409860999999999,0.01586,-0.290604,-1.715,-5.0225,-4.3575
512,9234566,0.940132,0.015738,-0.291092,-1.6275,-4.9525,-4.3225
513,9234664,0.9392780000000001,0.016225999999999997,-0.29219,-1.4875,-4.7425,-4.375
514,9234762,0.9386681,0.015616,-0.293166,-1.4875,-4.7425,-4.3575
515,9234860,0.937326,0.014274,-0.291458,-1.3475,-4.6375,-4.34
516,9234958,0.9394,0.01464,-0.29097,-1.295,-4.5325,-4.41
517,9235056,0.940742,0.014152000000000001,-0.290116,-1.26,-4.4975,-4.4625
518,9235154,0.940132,0.01403,-0.28792,-1.26,-4.4625,-4.62
519,9235251,0.9415959999999999,0.013908000000000002,-0.28731,-1.12,-4.55,-4.62
520,9235349,0.942694,0.013541999999999998,-0.28621199999999997,-1.085,-4.4975,-4.7075
521,9235447,0.9450120000000001,0.013297999999999999,-0.28633400000000003,-1.05,-4.375,-4.7075
522,9235545,0.9451341000000001,0.012078,-0.285846,-1.085,-4.41,-4.655
523,9235643,0.9433041,0.012322,-0.286456,-0.9975,-4.3575,-4.585
524,9235741,0.942816,0.010614,-0.28853,-0.875,-4.3225,-4.55
525,9235839,0.9423280999999999,0.009394,-0.288286,-1.015,-4.445,-4.55
526,9235937,0.942084,0.009882,-0.28938400000000003,-1.05,-4.55,-4.55
527,9236035,0.942084,0.009272001,-0.288408,-1.1025,-4.69,-4.5325
528,9236133,0.940742,0.009028000999999999,-0.28853,-1.295,-4.935,-4.515
529,9236230,0.9412299999999999,0.010492,-0.288042,-1.435,-5.11,-4.48
530,9236328,0.94245,0.012565999999999999,-0.289018,-1.54,-5.18,-4.4275
531,9236426,0.945866,0.011956,-0.288774,-1.5925,-5.215,-4.41
532,9236524,0.9456220999999999,0.012688,-0.28938400000000003,-1.575,-5.3375,-4.41
533,9236622,0.946842,0.014274,-0.28999400000000003,-1.6975,-5.53,-4.305
534,9236720,0.945744,0.014396,-0.288164,-1.575,-5.7225,-4.27
535,9236818,0.944768,0.013175999999999998,-0.28792,-1.4175,-5.74,-4.2175
536,9236916,0.9444020000000001,0.012444,-0.28853,-1.3475,-5.88,-4.27
537,9237014,0.9418401,0.011956,-0.288164,-1.4175,-5.8625,-4.375
538,9237112,0.9413520000000001,0.012078,-0.28853,-1.4525,-5.81,-4.3925
539,9237209,0.9394,0.010126000000000001,-0.287798,-1.4875,-5.775,-4.48
540,9237307,0.941108,0.00976,-0.289506,-1.505,-5.6175,-4.4975
541,9237405,0.9394,0.011346,-0.293044,-1.5925,-5.5125,-4.5325
542,9237503,0.9386681,0.013908000000000002,-0.293044,-1.6275,-5.705,-4.55
543,9237601,0.9354959999999999,0.015616,-0.292556,-1.715,-5.8275,-4.6025
544,9237699,0.9348860999999999,0.02074,-0.292678,-1.8725,-5.775,-4.7075
545,9237797,0.935008,0.018788,-0.294142,-1.8725,-5.4775,-4.7775
546,9237895,0.9375700000000001,0.018788,-0.29402,-1.8375,-5.25,-4.725
547,9237993,0.940132,0.019154,-0.29341,-1.785,-5.075,-4.7425
548,9238091,0.941718,0.017446,-0.29597199999999996,-1.75,-5.145,-4.6725
549,9238188,0.94245,0.014884,-0.296216,-1.715,-5.285,-4.7775
550,9238286,0.9419620999999999,0.014274,-0.29572800000000005,-1.7325,-5.355,-4.725
551,9238384,0.94306,0.013663999999999999,-0.29463,-1.7325,-5.425,-4.8475
552,9238482,0.9429379999999999,0.013663999999999999,-0.29463,-1.68,-5.5825,-4.8475
553,9238580,0.9415959999999999,0.013541999999999998,-0.292556,-1.505,-5.635,-4.7775
554,9238678,0.9433041,0.013541999999999998,-0.29341,-1.5225,-5.7225,-4.7425
555,9238776,0.9439139999999999,0.012931999999999999,-0.294508,-1.6275,-5.81,-4.8475
556,9238874,0.9433041,0.013541999999999998,-0.29402,-1.715,-5.95,-4.8125
557,9238972,0.9413520000000001,0.014152000000000001,-0.295606,-1.5925,-6.02,-4.725
558,9239070,0.9398880999999999,0.013908000000000002,-0.29438600000000004,-1.505,-6.1775,-4.585
559,9239167,0.936716,0.013175999999999998,-0.29365399999999997,-1.4525,-6.265,-4.585
560,9239265,0.936472,0.0122,-0.292434,-1.4525,-6.4225,-4.5325
561,9239363,0.9362280000000001,0.012444,-0.292312,-1.505,-6.2475,-4.4975
562,9239461,0.935984,0.01403,-0.29133600000000004,-1.61,-6.2125,-4.4625
563,9239559,0.937326,0.01281,-0.29292199999999996,-1.54,-5.95,-4.34
564,9239657,0.9398880999999999,0.01403,-0.292312,-1.5925,-5.8975,-4.41
565,9239755,0.942816,0.01525,-0.29426399999999997,-1.6625,-5.6875,-4.4275
566,9239853,0.9439139999999999,0.016225999999999997,-0.294996,-1.6975,-5.6875,-4.445
567,9239951,0.94489,0.016592,-0.295118,-1.8375,-5.915,-4.34
568,9240049,0.941718,0.015616,-0.294752,-1.995,-6.2125,-4.2525
569,9240146,0.9398880999999999,0.016836,-0.294142,-1.995,-6.4225,-4.3575
570,9240244,0.9389120000000001,0.016836,-0.290848,-2.03,-6.5275,-4.27
571,9240342,0.9370821,0.018178,-0.291092,-2.065,-6.4925,-4.3575
572,9240440,0.9378139999999999,0.018666,-0.289506,-1.995,-6.2125,-4.2525
573,9240538,0.9381801,0.01708,-0.28621199999999997,-1.9075,-5.8625,-4.165
574,9240636,0.940254,0.016225999999999997,-0.286456,-1.855,-5.495,-4.2525
575,9240734,0.943426,0.016225999999999997,-0.283528,-1.785,-5.3025,-4.165
576,9240832,0.9442801,0.013663999999999999,-0.28328400000000004,-1.68,-5.3375,-4.095
577,9240930,0.9446460999999999,0.013541999999999998,-0.28365,-1.785,-5.495,-4.2
578,9241027,0.94306,0.013786000000000001,-0.28377199999999997,-1.9775,-5.635,-4.235
579,9241125,0.940742,0.014518000000000001,-0.285114,-2.2925,-5.7575,-4.3575
580,9241223,0.9406200000000001,0.015616,-0.28633400000000003,-2.3625,-5.7575,-4.41
581,9241321,0.93696,0.017446,-0.28731,-2.3975,-5.5825,-4.4275
582,9241419,0.9368380999999999,0.016225999999999997,-0.285602,-2.2575,-5.4075,-4.3925
583,9241517,0.9379360000000001,0.017934000000000002,-0.28633400000000003,-2.135,-5.3725,-4.1825
584,9241615,0.9390341,0.018788,-0.285602,-1.8375,-5.18,-4.1825
585,9241713,0.9398880999999999,0.018788,-0.285968,-1.575,-5.04,-4.2
586,9241811,0.93879,0.018056,-0.287188,-1.4175,-4.9175,-4.2525
587,9241909,0.9394,0.016592,-0.288164,-1.1725,-4.795,-4.2
588,9242006,0.9386681,0.01586,-0.288896,-0.9625,-4.7425,-4.165
589,9242104,0.940254,0.013054,-0.28853,-0.7525,-4.8125,-4.2525
590,9242202,0.9386681,0.012688,-0.28767600000000004,-0.7525,-4.6725,-4.3575
591,9242300,0.9385460999999999,0.011346,-0.288774,-0.735,-4.445,-4.48
592,9242398,0.9385460999999999,0.012688,-0.288896,-0.7525,-4.2875,-4.5325
593,9242496,0.9409860999999999,0.012688,-0.288896,-0.77,-4.2175,-4.55
594,9242594,0.941108,0.014762,-0.28792,-0.7525,-4.06,-4.69
595,9242692,0.9419620999999999,0.01586,-0.288164,-0.665,-3.9375,-4.69
596,9242790,0.942572,0.016225999999999997,-0.288896,-0.525,-3.8325,-4.62
597,9242888,0.9439139999999999,0.016836,-0.288286,-0.3325,-3.99,-4.62
598,9242985,0.94489,0.017446,-0.287432,-0.21,-4.025,-4.6025
599,9243083,0.9446460999999999,0.01586,-0.288652,-0.07,-4.235,-4.62
600,9243181,0.9450120000000001,0.016592,-0.288896,0.0175,-4.2175,-4.655
601,9243279,0.9442801,0.015372,-0.28938400000000003,0.1575,-4.165,-4.69
602,9243377,0.942694,0.015006,-0.28987199999999996,0.2275,-4.34,-4.83
603,9243475,0.942572,0.015738,-0.29036,0.315,-4.4625,-4.865
604,9243573,0.9444020000000001,0.014762,-0.29097,0.3325,-4.48,-4.8825
605,9243671,0.94489,0.015006,-0.291092,0.42,-4.7075,-5.0225
606,9243769,0.9440360999999999,0.014518000000000001,-0.28987199999999996,0.6475,-5.145,-5.04
607,9243867,0.9429379999999999,0.014518000000000001,-0.293288,0.595,-5.4075,-5.04
608,9243964,0.94489,0.01281,-0.29292199999999996,0.6125,-5.6175,-4.9875
609,9244062,0.94489,0.013297999999999999,-0.292434,0.5425,-5.8275,-4.9875
610,9244160,0.9450120000000001,0.012931999999999999,-0.292434,0.5075,-6.0025,-5.04
611,9244258,0.9440360999999999,0.013054,-0.290848,0.525,-6.16,-5.005
612,9244356,0.9440360999999999,0.012444,-0.287188,0.5775,-6.3175,-5.145
613,9244454,0.942206,0.012565999999999999,-0.287798,0.63,-6.5975,-5.0925
614,9244552,0.9406200000000001,0.010736,-0.2867,0.735,-6.8775,-5.005
615,9244650,0.940254,0.010858,-0.2867,0.7175,-6.965,-4.97
616,9244748,0.9389120000000001,0.009637999999999999,-0.28694400000000003,0.6825,-6.93,-5.0925
617,9244846,0.9390341,0.011468,-0.290604,0.5075,-6.86,-5.18
618,9244943,0.9389120000000001,0.010736,-0.291702,0.525,-6.685,-5.18
619,9245041,0.9379360000000001,0.011346,-0.292312,0.35,-6.6675,-5.2675
620,9245139,0.9413520000000001,0.009150001,-0.291946,0.315,-6.65,-5.215
621,9245237,0.9419620999999999,0.01464,-0.29072600000000004,0.105,-6.7375,-5.18
622,9245335,0.942816,0.013663999999999999,-0.291702,0.0875,-6.79,-5.285
623,9245433,0.9431821,0.012931999999999999,-0.291092,0.0525,-6.8775,-5.145
624,9245531,0.942816,0.011101999999999999,-0.288042,-0.21,-6.86,-5.1625
625,9245629,0.942694,0.011590000000000001,-0.28938400000000003,-0.4725,-6.755,-5.18
626,9245727,0.942694,0.008296000999999999,-0.29036,-0.805,-6.51,-5.04
627,9245825,0.940132,0.009150001,-0.290604,-0.875,-6.6675,-4.9175
628,9245922,0.939522,0.007320001,-0.290604,-0.91,-6.755,-4.795
629,9246020,0.9394,0.007198,-0.288408,-0.77,-6.755,-4.83
630,9246118,0.9390341,0.008296000999999999,-0.289018,-0.7,-6.7725,-4.725
631,9246216,0.942572,0.010492,-0.288774,-0.7525,-6.755,-4.655
632,9246314,0.9467200000000001,0.012565999999999999,-0.28975,-1.1375,-6.86,-4.69
633,9246412,0.948184,0.011712,-0.285114,-1.3825,-6.965,-4.655
634,9246510,0.9486720999999999,0.01281,-0.285236,-1.5575,-7.2625,-4.6025
635,9246608,0.9480620000000001,0.014274,-0.284748,-1.7675,-7.455,-4.515
636,9246706,0.9431821,0.013786000000000001,-0.284504,-1.995,-7.5775,-4.48
637,9246804,0.9415959999999999,0.014152000000000001,-0.287066,-2.205,-7.595,-4.375
638,9246902,0.939766,0.012322,-0.28548,-2.485,-7.49,-4.3925
639,9246999,0.9358620999999999,0.010248,-0.28633400000000003,-2.905,-7.42,-4.3225
640,9247097,0.9352520000000001,0.011101999999999999,-0.289018,-3.1325,-7.0875,-4.3925
641,9247195,0.9356180000000001,0.012444,-0.291092,-3.1675,-6.7725,-4.235
642,9247293,0.9345201,0.011712,-0.291946,-3.2725,-6.5975,-4.2525
643,9247391,0.936716,0.013663999999999999,-0.293288,-3.2375,-6.44,-4.305
644,9247489,0.9396440999999999,0.015128,-0.29524,-3.115,-6.4225,-4.3225
645,9247587,0.939522,0.016225999999999997,-0.29597199999999996,-2.9925,-6.4925,-4.165
646,9247685,0.941108,0.015493999999999999,-0.291702,-2.975,-6.5975,-4.095
647,9247783,0.9415959999999999,0.015372,-0.29072600000000004,-3.08,-6.4225,-4.0775
648,9247880,0.9419620999999999,0.015493999999999999,-0.289506,-3.08,-6.3,-4.095
649,9247978,0.941108,0.01342,-0.287066,-3.15,-6.2475,-4.095
650,9248076,0.940254,0.011834,-0.28621199999999997,-3.4125,-6.125,-4.1125
651,9248174,0.940742,0.011346,-0.285724,-3.5175,-5.9675,-4.165
652,9248272,0.9409860999999999,0.012688,-0.28731,-3.71,-5.705,-4.1125
653,9248370,0.940742,0.01403,-0.288286,-3.745,-5.6875,-4.1825
654,9248468,0.9413520000000001,0.015372,-0.28926199999999996,-3.675,-5.6875,-4.095
655,9248566,0.9418401,0.018544,-0.291824,-3.535,-5.705,-4.0425
656,9248664,0.941718,0.019642,-0.290848,-3.2725,-5.985,-3.9025
657,9248762,0.942206,0.020008,-0.29158,-3.045,-5.9675,-3.92
658,9248860,0.941108,0.020374,-0.291824,-2.905,-6.1425,-3.92
659,9248957,0.94001,0.02135,-0.29292199999999996,-2.8525,-6.125,-4.06
660,9249055,0.9396440999999999,0.020252000000000003,-0.294142,-2.7825,-6.23,-4.0775
661,9249153,0.939766,0.020008,-0.294752,-2.7825,-6.16,-4.1825
662,9249251,0.9398880999999999,0.018056,-0.29463,-2.7125,-6.055,-4.235
663,9249349,0.9418401,0.02196,-0.295484,-2.7475,-5.915,-4.235
664,9249447,0.9429379999999999,0.021594,-0.29682600000000003,-2.73,-5.8975,-4.2875
665,9249545,0.9441579999999999,0.018422,-0.29377600000000004,-2.695,-5.8975,-4.34
666,9249643,0.944768,0.016225999999999997,-0.29463,-2.7825,-6.1075,-4.2525
667,9249741,0.94306,0.013908000000000002,-0.294996,-2.94,-6.3175,-4.2
668,9249839,0.9413520000000001,0.01403,-0.297192,-3.01,-6.58,-4.1475
669,9249936,0.9386681,0.012931999999999999,-0.29731399999999997,-2.9225,-6.72,-4.095
670,9250034,0.9352520000000001,0.013175999999999998,-0.296704,-2.87,-6.8425,-4.0775
671,9250132,0.9354959999999999,0.01464,-0.29463,-2.8875,-6.7725,-4.2
672,9250230,0.9363501000000001,0.01708,-0.296338,-2.695,-6.615,-4.2525
673,9250328,0.9363501000000001,0.017934000000000002,-0.29731399999999997,-2.5375,-6.58,-4.27
674,9250426,0.93696,0.018544,-0.297192,-2.3275,-6.475,-4.2
675,9250524,0.937326,0.018544,-0.29768,-2.1525,-6.44,-4.27
676,9250622,0.937448,0.016347999999999998,-0.296948,-2.1175,-6.3,-4.235
677,9250720,0.9391560999999999,0.018422,-0.29743600000000003,-2.2575,-6.195,-4.3575
678,9250818,0.9391560999999999,0.016958,-0.29987600000000003,-2.38,-6.16,-4.41
679,9250916,0.93879,0.017568,-0.299754,-2.4675,-6.09,-4.4625
680,9251013,0.9392780000000001,0.019398,-0.302072,-2.3275,-6.1075,-4.4625
681,9251111,0.94001,0.01952,-0.302316,-2.065,-6.2825,-4.4625
682,9251209,0.9384239999999999,0.022082,-0.30097399999999996,-1.75,-6.4925,-4.4625
683,9251307,0.9379360000000001,0.020618,-0.300608,-1.5925,-6.5625,-4.48
684,9251405,0.9368380999999999,0.020862000000000002,-0.30195,-1.4875,-6.44,-4.5675
685,9251503,0.936716,0.020496,-0.302194,-1.4175,-6.3175,-4.655
686,9251601,0.93696,0.018788,-0.300852,-1.295,-6.3525,-4.585
687,9251699,0.9378139999999999,0.017934000000000002,-0.301462,-1.19,-6.2825,-4.62
688,9251797,0.9378139999999999,0.0183,-0.302194,-1.0325,-6.23,-4.55
689,9251895,0.9381801,0.017812,-0.30097399999999996,-0.91,-6.2475,-4.55
690,9251992,0.9386681,0.018422,-0.299266,-0.875,-6.2825,-4.6025
691,9252090,0.9386681,0.017202000000000002,-0.29877800000000004,-0.8925,-6.37,-4.6375
692,9252188,0.9392780000000001,0.018422,-0.299144,-0.875,-6.3525,-4.6725
693,9252286,0.9394,0.017202000000000002,-0.29951,-0.945,-6.405,-4.7075
694,9252384,0.9390341,0.017812,-0.30109600000000003,-0.98,-6.37,-4.83
695,9252482,0.9368380999999999,0.017812,-0.302804,-0.91,-6.3525,-4.725
696,9252580,0.9351299999999999,0.016104,-0.30402399999999996,-0.77,-6.405,-4.69
697,9252678,0.9328120000000001,0.01708,-0.302316,-0.665,-6.3525,-4.6375
698,9252776,0.9331780000000001,0.016958,-0.30195,-0.63,-6.3,-4.69
699,9252874,0.9333,0.016958,-0.30256,-0.665,-6.2125,-4.7075
700,9252972,0.934642,0.016347999999999998,-0.302682,-0.735,-6.0025,-4.7075
701,9253069,0.936594,0.016836,-0.30353600000000003,-0.805,-5.845,-4.8125
702,9253167,0.9379360000000001,0.01586,-0.302194,-0.8400001,-5.88,-4.83
703,9253265,0.9398880999999999,0.014518000000000001,-0.300608,-0.7175,-6.055,-4.76
704,9253363,0.942206,0.013786000000000001,-0.299144,-0.6825,-6.2475,-4.6375
705,9253461,0.942084,0.013175999999999998,-0.29792399999999997,-0.8225,-6.3,-4.69
706,9253559,0.942206,0.014884,-0.2989,-0.8575,-6.3525,-4.7075
707,9253657,0.9409860999999999,0.01342,-0.29792399999999997,-0.7875,-6.545,-4.6375
708,9253755,0.9409860999999999,0.013541999999999998,-0.299632,-0.7525,-6.6325,-4.5675
709,9253853,0.9406200000000001,0.014884,-0.298534,-0.6825,-6.5975,-4.585
710,9253951,0.941718,0.014518000000000001,-0.29792399999999997,-0.6475,-6.6325,-4.5325
711,9254048,0.9414741,0.015128,-0.296704,-0.6825,-6.6675,-4.585
712,9254146,0.9404981,0.014762,-0.295362,-0.665,-6.8075,-4.5675
713,9254244,0.9392780000000001,0.016836,-0.296582,-0.6475,-6.6675,-4.515
714,9254342,0.9381801,0.018056,-0.29646,-0.595,-6.685,-4.5325
715,9254440,0.9370821,0.017324000000000003,-0.29877800000000004,-0.63,-6.6325,-4.48
716,9254538,0.9372040999999999,0.016592,-0.29768,-0.665,-6.65,-4.585
717,9254636,0.9347639999999999,0.01708,-0.29792399999999997,-0.77,-6.5275,-4.55
718,9254734,0.9348860999999999,0.018788,-0.29902199999999995,-0.9625,-6.475,-4.6025
719,9254832,0.935984,0.017568,-0.29902199999999995,-0.9625,-6.4225,-4.655
720,9254929,0.9376921,0.0183,-0.29768,-0.9275,-6.3525,-4.6725
721,9255027,0.9418401,0.019154,-0.29768,-0.945,-6.3175,-4.6725
722,9255125,0.9431821,0.019032,-0.298168,-0.8575,-6.37,-4.6375
723,9255223,0.9441579999999999,0.017934000000000002,-0.296948,-0.875,-6.37,-4.6375
724,9255321,0.9431821,0.018544,-0.29707,-0.735,-6.4575,-4.62
725,9255419,0.942084,0.017324000000000003,-0.296582,-0.665,-6.58,-4.5675
726,9255517,0.942084,0.01586,-0.296094,-0.7,-6.6325,-4.55
727,9255615,0.9409860999999999,0.015006,-0.296216,-0.63,-6.685,-4.5325
728,9255713,0.9412299999999999,0.013786000000000001,-0.297192,-0.735,-6.8425,-4.375
729,9255811,0.9358620999999999,0.014762,-0.296094,-0.805,-6.8775,-4.375
730,9255908,0.9354959999999999,0.0122,-0.29731399999999997,-0.9625,-6.8775,-4.375
731,9256006,0.9353741,0.012078,-0.29792399999999997,-1.1725,-6.9125,-4.445
732,9256104,0.9352520000000001,0.013663999999999999,-0.299998,-1.295,-6.86,-4.445
733,9256202,0.936594,0.01342,-0.30195,-1.365,-6.755,-4.3925
734,9256300,0.9381801,0.011956,-0.30109600000000003,-1.6625,-6.8425,-4.3575
735,9256398,0.9406200000000001,0.014518000000000001,-0.29792399999999997,-1.82,-6.86,-4.305
736,9256496,0.942206,0.016225999999999997,-0.29829,-2.0125,-6.8775,-4.235
737,9256594,0.942206,0.016958,-0.29792399999999997,-1.995,-6.9825,-4.2875
738,9256692,0.9418401,0.01952,-0.298656,-1.925,-7.0525,-4.235
739,9256790,0.9415959999999999,0.020496,-0.300608,-1.8725,-7.105,-4.1475
740,9256888,0.9403761,0.018544,-0.30097399999999996,-1.7325,-7.245,-4.13
741,9256985,0.9408639999999999,0.017812,-0.30036399999999996,-1.925,-7.49,-4.165
742,9257083,0.9412299999999999,0.019398,-0.301218,-2.0475,-7.77,-4.1475
743,9257181,0.938058,0.020496,-0.305732,-2.1175,-8.12,-4.3575
744,9257279,0.934276,0.020008,-0.31158800000000003,-1.8025,-8.1725,-4.4625
745,9257377,0.9348860999999999,0.020008,-0.312076,-1.0325,-8.0325,-4.5325
746,9257475,0.940132,0.020130000000000002,-0.305732,-0.49,-8.19,-4.515
747,9257573,0.941108,0.022203999999999998,-0.300608,-0.63,-8.715,-4.4625
748,9257671,0.9391560999999999,0.022082,-0.298412,-0.98,-8.9425,-4.375
749,9257769,0.9381801,0.022813999999999997,-0.30378,-0.98,-8.645,-4.34
750,9257867,0.9385460999999999,0.02135,-0.306098,-0.665,-8.2425,-4.3225
751,9257964,0.93696,0.020862000000000002,-0.30744,-0.6475,-8.1375,-4.3575
752,9258062,0.934642,0.022813999999999997,-0.30744,-0.665,-8.33,-4.41
753,9258160,0.9343981,0.021838,-0.306342,-0.6475,-8.575,-4.515
754,9258258,0.9345201,0.022813999999999997,-0.310002,-0.525,-8.575,-4.5675
755,9258356,0.935008,0.023790000000000002,-0.31158800000000003,-0.1225,-8.6275,-4.445
756,9258454,0.9358620999999999,0.023912,-0.311954,0.175,-8.7325,-4.55
757,9258552,0.9358620999999999,0.023180000000000003,-0.31232,0.4375,-8.7325,-4.585
758,9258650,0.9358620999999999,0.021594,-0.311344,0.4375,-9.1,-4.6375
759,9258748,0.9372040999999999,0.020862000000000002,-0.31097800000000003,0.6825,-9.3625,-4.725
760,9258846,0.9376921,0.020374,-0.308294,0.7525,-9.2575,-4.725
761,9258943,0.936472,0.02074,-0.30841599999999997,0.98,-9.17,-4.795
762,9259041,0.9363501000000001,0.020130000000000002,-0.308782,1.225,-9.1525,-4.9175
763,9259139,0.9370821,0.020862000000000002,-0.311222,1.4525,-9.31,-5.11
764,9259237,0.937448,0.019886,-0.312686,1.8025,-9.4675,-5.0575
765,9259335,0.9378139999999999,0.023424,-0.314394,1.7675,-9.695,-4.97
766,9259433,0.938058,0.024644,-0.31524800000000003,1.54,-9.73,-4.97
767,9259531,0.9394,0.024034,-0.317078,1.365,-10.0625,-4.9875
768,9259629,0.940132,0.022203999999999998,-0.315004,1.12,-10.3775,-4.865
769,9259727,0.941718,0.02074,-0.311832,1.33,-10.7625,-4.7075
770,9259825,0.9423280999999999,0.01952,-0.312442,1.5925,-11.235,-4.6375
771,9259923,0.9415959999999999,0.018788,-0.312686,1.82,-11.9175,-4.6725
772,9260020,0.940132,0.022082,-0.31354,1.5925,-12.3025,-4.83
773,9260118,0.9391560999999999,0.02501,-0.317078,0.91,-12.145,-5.18
774,9260216,0.9403761,0.02928,-0.322934,0.7175,-12.005,-5.39
775,9260314,0.9429379999999999,0.032451999999999995,-0.323788,1.225,-12.25,-5.285
776,9260412,0.9431821,0.033184,-0.3172,2.0125,-12.8975,-5.005
777,9260510,0.941718,0.03721,-0.31146599999999997,2.3975,-13.93,-4.41
778,9260608,0.9391560999999999,0.038918,-0.313052,2.275,-14.735,-4.025
779,9260706,0.9370821,0.035624,-0.314882,2.2575,-15.19,-3.71
780,9260804,0.940742,0.032330000000000005,-0.317932,1.89,-15.4175,-3.78
781,9260902,0.942816,0.030987999999999998,-0.31890799999999997,1.4525,-15.6625,-3.955
782,9261000,0.9456220999999999,0.031964,-0.31756599999999996,1.3125,-15.96,-4.235
783,9261097,0.948306,0.031110000000000002,-0.317078,1.365,-16.73,-4.235
784,9261195,0.9474520000000001,0.032330000000000005,-0.314272,1.365,-17.5875,-4.0075
785,9261293,0.94916,0.03294,-0.313052,0.7875,-18.095,-3.675
786,9261391,0.94916,0.03355,-0.31354,0.0525,-18.7775,-3.22
787,9261489,0.9484280999999999,0.032330000000000005,-0.319762,-0.245,-19.25,-2.835
788,9261587,0.9484280999999999,0.027694,-0.323422,-0.315,-19.1975,-2.5725
789,9261685,0.95099,0.026595999999999998,-0.321348,-0.49,-19.11,-2.3625
790,9261783,0.9486720999999999,0.025376,-0.321226,-1.05,-19.0575,-2.2575
791,9261881,0.94245,0.030378,-0.32086,-1.6625,-19.0575,-2.24
792,9261979,0.9372040999999999,0.03721,-0.323666,-1.96,-19.215,-2.0475
793,9262077,0.931958,0.044774,-0.330742,-2.0475,-19.425,-1.4875
794,9262174,0.928054,0.047945999999999996,-0.331596,-2.2225,-19.7925,-1.0325
795,9262272,0.9214661,0.05246,-0.321348,-2.66,-20.195,-0.595
796,9262370,0.9128040000000001,0.053436000000000004,-0.309148,-2.7825,-20.055,-0.245
797,9262468,0.9054840000000001,0.053191999999999996,-0.30073,-2.8,-19.1625,0.07
798,9262566,0.8930401,0.057584,-0.285846,-2.0825,-18.1825,0.595
799,9262664,0.880474,0.060634,-0.27205999999999997,-0.77,-17.395,1.645
800,9262762,0.8662001,0.065148,-0.267912,1.225,-16.03,3.01
801,9262860,0.8532681000000001,0.06746601,-0.26913200000000004,3.0975,-13.965,4.585
802,9262958,0.8461921,0.058682000000000005,-0.272304,4.69,-11.62,6.16
803,9263056,0.8481440999999998,0.049288,-0.274256,5.6525,-9.345,7.5775
804,9263153,0.865834,0.037332,-0.276574,6.5625,-7.07,8.5225
805,9263251,0.8931620000000001,0.029401999999999998,-0.266204,7.7175,-4.3225,8.995
806,9263349,0.9274440999999999,0.010492,-0.258884,8.33,-0.7875,8.855
807,9263447,0.956968,-0.013054,-0.27218200000000004,6.7375,3.15,8.295
808,9263545,0.97234,-0.045627999999999995,-0.30341399999999996,3.2025,5.7575,6.8775
809,9263643,0.9784401,-0.06270801,-0.330498,-0.805,6.02,4.9
810,9263741,0.978928,-0.081496,-0.35258,-3.4125,5.25,3.2725
811,9263839,0.9713639999999999,-0.100772,-0.38661799999999996,-5.8625,3.885,2.345
812,9263937,0.9539181000000001,-0.132248,-0.403942,-7.7875,1.8025,1.785
813,9264035,0.92537,-0.116876,-0.412238,-9.8175,0.2625,1.3475
814,9264132,0.8813280000000001,-0.07259,-0.38661799999999996,-8.05,-0.14,0.7875
815,9264230,0.8163020999999999,-0.038674,-0.353312,-4.375,0.42,-0.595
816,9264328,0.727486,-0.029158,-0.335744,-2.1,0.98,-3.675
817,9264426,0.632448,-0.020252000000000003,-0.32879,-2.1525,1.4525,-8.5575
818,9264524,0.5553441,-0.01037,-0.329766,-2.73,2.065,-14.91
819,9264622,0.534116,-0.019764,-0.34099,-2.6775,2.8175,-22.995
820,9264720,0.571692,-0.021106,-0.35026199999999996,-2.905,0.805,-31.43
821,9264818,0.6724640000000001,0.041724000000000004,-0.29133600000000004,-6.8425,-1.5925,-38.885
822,9264916,0.8283799999999999,0.08869401,-0.248148,-11.55,1.2425,-42.9625
823,9265014,1.028338,0.118584,-0.25058800000000003,-11.9175,9.24,-42.5775
824,9265112,1.239642,0.124196,-0.258274,-8.015,23.2575,-36.7325
825,9265209,1.429352,0.060267999999999995,-0.22777399999999998,-0.49,34.8425,-28.245
826,9265307,1.610278,-0.007808001,-0.116876,4.69,34.4225,-18.5325
827,9265405,1.7345959999999998,-0.03721,-0.08601,2.5375,23.8,-9.8875
828,9265503,1.559282,-0.089304,-0.101504,3.465,5.04,-1.89
829,9265601,1.229028,-0.112606,-0.09625801,5.7925,-12.2675,3.99
830,9265699,0.981612,-0.0976,-0.13542,7.0525,-14.805,4.06
831,9265797,0.8481440999999998,-0.09906401,-0.20618000000000003,8.155,-9.695,1.2775
832,9265895,0.7687221,-0.068076,-0.233508,9.59,-7.2625,0.5075
833,9265993,0.701134,-0.044896,-0.218746,10.4125,-8.1375,0.1225
834,9266091,0.656726,-0.014762,-0.19947,7.8925,-7.245,-1.0325
835,9266188,0.64782,0.015738,-0.169458,5.075,-4.515,-1.05
836,9266286,0.66063,0.02074,-0.14579,2.2575,0.5425,-3.5525
837,9266384,0.670512,0.01525,-0.11846199999999998,-0.525,6.7025,-4.4625
838,9266482,0.694058,-0.002806,-0.09821001,-3.8325,14.07,-5.4425
839,9266580,0.737246,-0.018788,-0.067344,-7.0525,20.5625,-6.58
840,9266678,0.815204,-0.041602,-0.066978,-11.235,25.795,-7.8575
841,9266776,0.9010921000000001,-0.06075601,-0.06832001,-13.405,27.895,-8.12
842,9266874,0.984418,-0.049776,-0.057828,-14.4725,27.335,-7.9625
843,9266972,1.060302,-0.041602,-0.040016,-16.2925,25.62,-10.7275
844,9267070,1.084946,-0.01098,-0.019886,-15.9075,21.7175,-11.935
845,9267167,1.063962,0.012931999999999999,-0.008784,-14.49,16.1875,-11.6725
846,9267265,0.999668,0.040626,0.00183,-13.51,10.85,-12.775
847,9267363,0.939522,0.043432,-0.007686,-13.8075,7.4375,-15.2775
848,9267461,0.8810841,0.041724000000000004,-0.00244,-13.93,6.16,-17.15
849,9267559,0.834968,0.033916,-0.001342,-13.6325,6.2825,-18.2525
850,9267657,0.8100801,-0.004758,0.015372,-14.28,7.56,-20.2825
851,9267755,0.808372,-0.016592,0.047702,-15.3475,9.73,-20.545
852,9267853,0.8398479999999999,-0.043066,0.062586,-18.3575,13.265,-22.5925
853,9267950,0.9076799999999999,-0.044286,0.081252,-18.7425,16.1,-21.42
854,9268048,0.9853940999999999,-0.033062,0.06941801,-20.1775,19.4425,-19.775
855,9268146,1.0626200000000001,-0.024888,0.068564,-21.21,19.32,-18.3925
856,9268244,1.1272799999999998,-0.013786000000000001,0.0488,-21.6825,16.625,-16.2225
857,9268342,1.17181,-0.000366,0.031110000000000002,-22.89,11.235,-12.4425
858,9268440,1.193282,-0.040382,-0.00976,-22.12,4.725,-7.8925
859,9268538,1.211948,-0.041846,-0.013175999999999998,-21.8575,-1.4525,-3.0275
860,9268636,1.214266,-0.050508,-0.017812,-21.8225,-5.95,1.96
861,9268734,1.20048,-0.022813999999999997,-0.000976,-22.3825,-8.365,6.9475
862,9268832,1.19682,-0.006832001,0.047336,-21.98,-8.995,10.99
863,9268929,1.213168,0.022936,0.08576601,-21.4025,-8.1725,14.8225
864,9269027,1.269898,0.049166,0.106262,-21.5775,-6.8075,18.4975
865,9269125,1.371646,0.090158,0.142008,-21.9975,-6.23,20.2825
866,9269223,1.489254,0.071004,0.028304000000000003,-18.4275,-5.7925,18.6375
867,9269321,1.6078379999999999,0.059902,-0.107482,-13.825,-6.615,15.295
868,9269419,1.6990939999999999,0.10943399999999999,-0.251198,-13.3175,-13.09,11.9875
869,9269517,1.732766,0.239852,-0.24216999999999997,-7.385,-20.195,7.875
870,9269615,1.6631040000000001,0.478484,-0.212524,-0.7525,-29.1025,7.98
871,9269713,1.567944,0.475678,-0.327204,15.995,-27.615,8.645
872,9269810,1.486448,0.219844,-0.42028999999999994,38.5875,-19.39,6.1075
873,9269908,1.292956,0.20630199999999999,-0.448716,34.265,-24.955,2.765
874,9270006,1.033218,0.21472,-0.41358,30.6775,-43.6625,-1.3825
875,9270104,0.903898,0.12065799999999999,-0.43505200000000005,35.8575,-46.4275,-5.355
876,9270202,0.86559,0.07283401,-0.503128,35.28,-35.315,-5.0575
877,9270300,0.830332,0.014518000000000001,-0.48385200000000006,32.795,-29.8375,-1.085
878,9270398,0.792512,-0.10797000000000001,-0.42138809999999993,31.1325,-30.1525,3.465
879,9270496,0.761524,-0.22814,-0.44835,28.8575,-27.9475,6.79
880,9270594,0.759572,-0.27523200000000003,-0.42151000000000005,25.655,-22.995,8.2075
881,9270692,0.772504,-0.223016,-0.397598,21.035,-17.5525,10.2025
882,9270789,0.8314301,-0.21752600000000002,-0.372832,21.56,-9.45,8.645
883,9270887,0.898652,-0.153232,-0.363682,21.77,-2.0125,7.2625
884,9270985,0.967094,-0.110654,-0.354898,18.2875,2.8875,2.9575
885,9271083,1.00345,-0.002684,-0.366976,13.6325,3.71,-0.5775
886,9271181,1.02236,0.06563601,-0.36112,9.31,1.1025,-4.62
887,9271279,1.0169920000000001,0.116876,-0.36148600000000003,6.58,-5.74,-7.4025
888,9271377,0.99125,0.1403,-0.30536599999999997,7.84,-13.93,-9.4675
889,9271475,0.9413520000000001,0.141032,-0.24631799999999998,8.6275,-18.97,-11.41
890,9271573,0.8692501,0.12395199999999999,-0.21825799999999998,9.9225,-20.6325,-14.7175
891,9271670,0.765672,0.11577799999999999,-0.19825,13.265,-21.175,-17.7975
892,9271768,0.679296,0.108946,-0.186782,14.945,-19.285,-19.6175
893,9271866,0.5897479999999999,0.09516001,-0.203862,16.9225,-15.2425,-21.0175
894,9271964,0.50935,0.099674,-0.23777800000000002,17.9375,-15.0325,-20.3525
895,9272062,0.41175,0.127246,-0.22789600000000002,19.4075,-16.7825,-17.92
896,9272160,0.367464,0.115168,-0.209718,20.0025,-16.73,-18.5325
897,9272258,0.324398,0.11895,-0.18849000000000002,22.6975,-11.41,-15.2775
898,9272356,0.35685,0.12993,-0.174216,26.1625,-2.24,-14.175
899,9272454,0.4392,0.111508,-0.134932,33.005,9.5375,-13.09
900,9272552,0.529724,0.121024,-0.11626600000000001,36.5225,21.35,-10.7625
901,9272650,0.6167100000000001,0.130662,-0.094306,41.405,29.1725,-10.3775
902,9272747,0.741028,0.116754,-0.08674201,43.75,33.7225,-11.1825
903,9272845,0.7998321,0.09979600000000001,-0.07490801,44.8175,35.945,-4.8125
904,9272943,0.8730319999999999,0.079544,-0.05124001,45.22,34.3525,-3.465
905,9273041,0.936716,0.034526,-0.01647,43.715,30.415,-2.4675
906,9273139,0.9730721,-0.009882,0.015616,40.285,24.7625,-1.225
907,9273237,0.9707541,-0.10516400000000001,0.04453,36.715,19.6525,-0.7875
908,9273335,0.9385460999999999,-0.093086,0.06283,31.57,16.205,1.225
909,9273433,0.8638819999999999,-0.143228,0.014884,26.915,13.965,0.4725
910,9273531,0.79666,-0.083204,-0.015493999999999999,26.215,11.515,0.595
911,9273628,0.7406621,-0.029158,-0.057828,28.4025,13.4575,1.05
912,9273726,0.733464,0.03721,-0.09223200000000001,32.9875,16.8525,2.24
913,9273824,0.7692101,0.102602,-0.139202,36.0675,20.3,3.3075
914,9273922,0.827892,0.137738,-0.17140999999999998,39.0075,23.0825,3.9025
915,9274020,0.8841341,0.139568,-0.184952,42.98,25.62,3.675
916,9274118,0.9674601,0.10687200000000001,-0.16165,47.1275,26.705,3.5175
917,9274216,1.013576,0.040138,-0.105774,49.0175,23.8175,2.38
918,9274314,1.113738,-0.006344,-0.033184,48.1075,19.6,-0.8400001
919,9274411,1.241594,-0.035868000000000004,0.032451999999999995,44.2925,18.3925,-6.7725
920,9274509,1.43777,-0.097966,0.11407,41.965,20.1775,-16.5375
921,9274607,1.662982,-0.14762,0.151402,35.735,25.4625,-27.5625
922,9274705,1.869284,-0.130662,0.167994,29.3825,28.7875,-35.5075
923,9274803,2.025932,-0.033916,0.102724,25.3225,24.8325,-37.94
924,9274901,2.069242,0.047580000000000004,-0.176778,24.5875,11.4975,-33.0925
925,9274999,1.963468,0.04575,-0.301462,23.555,-12.9325,-23.9575
926,9275097,1.749724,-0.145058,-0.149206,27.5275,-42.0875,-13.615
927,9275195,1.4187379999999998,-0.41358,-0.177266,17.7275,-57.1375,-7.105
928,9275292,1.16998,-0.35831399999999997,-0.558394,-15.435,-49.665,-14.735
929,9275390,0.980514,-0.360754,-0.769088,-28.0875,-31.9025,-27.9475
930,9275488,0.762012,-0.478972,-0.704306,-29.365,-28.0875,-39.4625
931,9275586,0.597434,-0.5734,-0.438956,-40.5475,-32.725,-50.995
932,9275684,0.556442,-0.5103260000000001,-0.27571999999999997,-52.9375,-23.3625,-59.9375
933,9275782,0.5913341,-0.303902,-0.392596,-67.2875,-2.6425,-65.5375
934,9275880,0.6108541000000001,0.023424,-0.556442,-77.98,7.6475,-65.205
935,9275978,0.665632,0.21228000000000002,-0.521794,-74.3925,1.995,-60.3225
936,9276076,0.7895840999999999,0.29036,-0.492392,-62.23,-0.3675,-52.745
937,9276174,0.9390341,0.33379200000000003,-0.50447,-54.11,3.4475,-42.77
938,9276271,1.089704,0.366732,-0.472262,-48.615,10.3075,-30.2575
939,9276369,1.281244,0.346114,-0.425658,-41.3875,15.3475,-14.2275
940,9276467,1.4715639999999999,0.31171,-0.416996,-34.4225,16.6075,1.47
941,9276565,1.560014,0.205692,-0.370026,-27.58,10.7275,14.7875
942,9276663,1.5129219999999999,0.074054,-0.299998,-21.6475,0.385,25.4275
943,9276761,1.352614,-0.051972000000000004,-0.23887600000000003,-18.795,-9.8525,32.0775
944,9276859,1.129842,-0.149694,-0.20374,-20.1075,-20.8425,34.545
945,9276957,0.9113399999999999,-0.22875,-0.177754,-25.2,-30.555,33.2675
946,9277054,0.684786,-0.218502,-0.17995,-31.0275,-38.2025,30.6075
947,9277152,0.5038600000000001,-0.200202,-0.17751,-35.4725,-43.435,25.235
948,9277250,0.35685,-0.194224,-0.158112,-36.4525,-45.5525,20.7025
949,9277348,0.2501,-0.206668,-0.112606,-35.98,-45.15,15.96
950,9277446,0.225456,-0.177876,-0.036112,-37.765,-36.925,12.0225
951,9277544,0.23668000000000003,-0.139934,-0.020130000000000002,-42.1225,-17.6925,8.3125
952,9277642,0.259006,-0.07332201,-0.002196,-46.725,-1.4,5.4425
953,9277740,0.310368,0.008052001,0.026962,-51.5025,11.515,2.8875
954,9277838,0.38369000000000003,0.08649801,0.030622000000000003,-56.105,24.0275,3.675
955,9277935,0.475678,0.15506199999999998,0.006344,-58.9925,35.9975,2.6075
956,9278033,0.579134,0.19483399999999998,-0.013297999999999999,-60.48,42.56,0.35
957,9278131,0.685762,0.208864,-0.013175999999999998,-58.765,42.6475,-2.94
958,9278229,0.814472,0.21032800000000001,-0.008784,-55.58,40.075,-8.0325
959,9278327,0.9451341000000001,0.21667199999999998,0.005856,-47.95,35.42,-12.075
960,9278425,1.03151,0.227042,0.025498,-38.15,28.49,-16.135
961,9278523,1.061156,0.220088,0.042822000000000006,-25.865,20.265,-20.615
962,9278621,1.03883,0.22630999999999998,0.027327999999999998,-13.9125,13.23,-23.625
963,9278718,0.9633120999999999,0.20752199999999998,0.0034159999999999998,-3.745,7.77,-26.145
964,9278816,0.8671761,0.168238,-0.028792,2.31,3.7975,-27.055
965,9278914,0.793976,0.097966,-0.07198,4.1125,3.0975,-27.6675
966,9279012,0.788974,0.045627999999999995,-0.118096,2.2225,5.3025,-28.5075
967,9279110,0.8123981,0.027938,-0.132248,-1.715,8.3475,-29.2775
968,9279208,0.8433860999999999,0.027083999999999997,-0.095282,-5.355,9.66,-28.805
969,9279306,0.9225639999999999,0.020862000000000002,0.00366,-8.8375,11.27,-26.7575
970,9279404,1.031998,0.027327999999999998,0.09991799999999999,-12.6175,18.2875,-22.1725
971,9279501,1.2042620000000002,0.059658,0.157746,-15.1375,27.545,-13.86
972,9279599,1.443016,0.097722,0.221552,-14.105,37.7825,-2.625
973,9279697,1.7183700000000002,0.12980799999999998,0.277428,-10.7275,48.405,9.695
974,9279795,1.950536,0.135298,0.281698,-8.89,51.0825,21.6125
975,9279893,2.1008400000000003,0.09479401,0.201666,-11.095,38.6225,30.8
976,9279991,2.062654,-0.040504000000000005,0.011712,-15.1725,13.72,33.4075
977,9280089,1.898564,-0.13115,-0.17140999999999998,-19.775,-15.54,28.945
978,9280187,1.6684720000000002,-0.060877999999999995,-0.26303200000000004,-26.6,-38.1675,21.1225
979,9280285,1.395802,0.107848,-0.454694,-28.7875,-54.285,14.8575
980,9280383,1.12179,0.21618400000000002,-0.7415161,-17.4825,-56.84,12.2325
981,9280480,0.9211,0.334402,-0.8479,2.975,-42.245,15.61
982,9280578,0.789218,0.6958880000000001,-0.74847,10.5525,-21.6825,29.61
983,9280676,0.792024,0.998448,-0.503372,17.71,-3.5525,54.6
984,9280774,0.8613200000000001,0.77836,-0.279624,46.445,10.4825,76.5975
985,9280872,0.8698601,0.34465,-0.42907399999999996,62.65,12.6,84.56
986,9280970,0.76189,-0.080154,-0.520208,64.1725,-7.2625,80.64
987,9281068,0.6674621000000001,-0.29572800000000005,-0.468724,53.445,-34.79,71.015
988,9281166,0.6810039999999999,-0.42187600000000003,-0.397354,43.015,-43.2425,57.015
989,9281263,0.841556,-0.5124001,-0.28731,36.155,-29.6625,39.4625
990,9281361,1.100806,-0.484584,-0.26657,23.8875,-4.62,20.86
991,9281459,1.366522,-0.431392,-0.28694400000000003,11.34,13.3,1.19
992,9281557,1.5401280000000002,-0.327936,-0.28633400000000003,2.905,15.26,-13.3875
993,9281655,1.5913680000000001,-0.164212,-0.270352,-4.0075,5.04,-22.33
994,9281753,1.497916,0.033794,-0.24766,-7.9275,-11.865,-26.7575
995,9281851,1.303692,0.18788,-0.22252800000000003,-7.2975,-29.365,-28.1575
996,9281949,1.0790899999999999,0.28633400000000003,-0.20837600000000003,-2.3275,-41.0375,-28.5425
997,9282047,0.8563181000000001,0.337452,-0.188124,5.9325,-47.1275,-27.8425
998,9282144,0.63135,0.35233600000000004,-0.17140999999999998,15.8025,-49.8575,-25.7425
999,9282242,0.422486,0.347456,-0.17214200000000002,24.815,-52.8325,-23.205
1000,9282340,0.26303200000000004,0.32696,-0.142618,31.71,-57.785,-21.14
1001,9282438,0.155672,0.29438600000000004,-0.102968,35.84,-58.31,-19.705
1002,9282536,0.122976,0.271694,-0.08601,37.345,-50.05,-18.8475
1003,9282634,0.170678,0.202276,-0.05209400000000001,39.69,-34.4225,-20.265
1004,9282732,0.252296,0.13725,-0.033306,43.4,-13.8075,-21.7175
1005,9282830,0.370148,0.032695999999999996,-0.024278,48.3525,4.2875,-25.2525
1006,9282927,0.47043199999999996,-0.06539201,-0.019032,52.885,15.505,-27.0725
1007,9283025,0.547658,-0.101992,-0.042578,54.005,20.6325,-27.2125
1008,9283123,0.655506,-0.18043800000000002,-0.018788,58.52,23.4325,-26.46
1009,9283221,0.753594,-0.14993800000000002,0.011346,58.59,25.725,-20.965
1010,9283319,0.868762,-0.12993,0.03477,53.8475,26.53,-16.1875
1011,9283417,0.9827101,-0.17995,0.08954801,50.4525,25.3925,-10.2725
1012,9283515,1.019798,-0.129198,0.111142,39.235,21.245,-0.175
1013,9283613,1.0107700000000002,-0.110776,0.10223600000000001,27.545,14.9625,6.51
1014,9283711,0.9673379999999999,-0.038064,0.09345201,19.145,7.7525,13.125
1015,9283808,0.853512,-0.074664,0.04514,12.775,0.8575,19.1275
1016,9283906,0.771528,-0.033672,-0.0034159999999999998,11.6725,-2.835,23.17
1017,9284004,0.745054,-0.004148001,-0.03782,10.78,0.28,24.815
1018,9284102,0.791048,-0.019886,-0.05819401,11.935,8.9425,22.8725
1019,9284200,0.831308,-0.034648000000000005,-0.09589201,11.55,14.63,20.1075
1020,9284298,0.8901120000000001,0.001464,-0.12248800000000001,8.7675,14.8225,15.155
1021,9284396,0.980758,0.053924,-0.09125599999999999,6.3175,13.685,7.9275
1022,9284494,1.10471,0.09394001,-0.041114,1.8025,14.6475,-0.8225
1023,9284591,1.290516,0.10858,0.07356601,-1.5575,16.975,-10.2375
1024,9284689,1.525976,0.114558,0.17616800000000002,-4.375,22.6975,-20.0725
1025,9284787,1.76473,0.08759601,0.239608,-5.6175,29.26,-28.4025
1026,9284885,1.956636,0.056852,0.172874,-6.3525,28.2625,-33.705
1027,9284983,2.055212,0.079422,-0.072956,-7.0525,15.9075,-34.755
1028,9285081,1.995066,0.056729999999999996,-0.253882,-4.515,-8.3125,-30.73
1029,9285179,1.8081619999999998,-0.06746601,-0.209108,3.22,-36.575,-23.2925
1030,9285277,1.494866,-0.30487800000000004,-0.287188,-1.26,-60.8125,-17.85
1031,9285375,1.189134,-0.37576,-0.51179,-24.85,-68.565,-20.72
1032,9285472,0.9590420000000001,-0.425292,-0.610122,-40.3375,-53.62,-30.5375
1033,9285570,0.7564001,-0.638426,-0.515694,-45.955,-35.2625,-43.9075
1034,9285668,0.639768,-0.673196,-0.325496,-58.625,-21.035,-60.1125
1035,9285766,0.691008,-0.38795999999999997,-0.36002199999999995,-67.375,0.56,-75.845
1036,9285864,0.745664,-0.128466,-0.49727200000000005,-74.585,15.1725,-88.53251
1037,9285962,0.74542,0.080764,-0.494954,-70.245,4.4275,-95.1825
1038,9286060,0.764696,0.312076,-0.467138,-65.17,-10.6575,-93.485
1039,9286158,0.874984,0.42578,-0.48702399999999996,-57.505,-9.9225,-89.18
1040,9286256,1.06018,0.496906,-0.487756,-51.1175,2.1525,-77.245
1041,9286354,1.311134,0.5239901,-0.443958,-40.3025,12.5125,-56.525
1042,9286451,1.562942,0.5388741,-0.387716,-26.95,13.16,-29.3125
1043,9286549,1.6422419999999998,0.41053,-0.328058,-13.8775,4.1475,-2.2225
1044,9286647,1.576362,0.24583000000000002,-0.233508,-6.195,-8.19,21.525
1045,9286745,1.423374,0.033916,-0.188856,-3.395,-17.4475,36.7325
1046,9286843,1.191818,-0.1464,-0.171044,-3.255,-29.05,45.29
1047,9286941,0.931226,-0.27328,-0.161528,-7.6125,-38.8675,48.475
1048,9287039,0.700036,-0.33610999999999996,-0.156892,-14.0875,-44.6775,45.4125
1049,9287137,0.489342,-0.35221399999999997,-0.15921,-20.2825,-48.0025,38.36
1050,9287235,0.29463,-0.35831399999999997,-0.13078399999999998,-23.9225,-52.99,31.4125
1051,9287332,0.21667199999999998,-0.335622,-0.033794,-25.55,-51.4325,24.29
1052,9287430,0.194956,-0.288652,-0.006954000000000001,-32.445,-34.195,18.9875
1053,9287528,0.166164,-0.22362600000000002,0.010858,-39.305,-14.245,14.6125
1054,9287627,0.200324,-0.137006,0.04453,-47.7925,0.6475,10.9375
1055,9287724,0.262544,-0.018056,0.042089999999999995,-56.2975,15.6275,8.9425
1056,9287822,0.343796,0.100406,0.010004,-61.355,29.785,8.4175
1057,9287920,0.446032,0.203862,-0.035624,-63.49,38.535,7.84
1058,9288018,0.562176,0.25046599999999997,-0.056852,-61.775,41.5975,5.04
1059,9288116,0.6794180000000001,0.271328,-0.032330000000000005,-59.0975,39.0075,1.0325
1060,9288214,0.812276,0.281942,0.018422,-55.3175,35.665,-4.445
1061,9288312,0.964532,0.288652,0.059902,-48.1775,33.53,-11.725
1062,9288409,1.0765280000000002,0.28694400000000003,0.07307801,-36.715,29.4875,-19.3025
1063,9288507,1.106784,0.289506,0.08430201,-22.4,20.7025,-25.5325
1064,9288605,1.059326,0.28999400000000003,0.067222,-9.94,10.0625,-30.0825
1065,9288703,0.983564,0.280356,0.055022,-1.1025,0.8575,-32.6375
1066,9288801,0.924394,0.257176,0.004514,2.9925,-2.765,-32.55
1067,9288899,0.8996280999999999,0.195444,-0.067344,4.2,-1.54,-31.0275
1068,9288997,0.9201241,0.12871,-0.12505,2.24,0.8400001,-30.1175
1069,9289095,0.9459880999999999,0.07698201,-0.137982,-1.9775,1.2775,-29.6975
1070,9289193,0.9337880999999999,0.018422,-0.099186,-5.88,-2.765,-27.9825
1071,9289290,0.9470860000000001,-0.026595999999999998,0.028304000000000003,-9.38,-6.8075,-24.3425
1072,9289388,1.003816,-0.032695999999999996,0.127002,-12.7225,-4.585,-18.445
1073,9289486,1.1192280000000001,-0.019398,0.213256,-13.58,4.935,-8.6975
1074,9289584,1.298812,0.025863999999999998,0.299144,-10.8325,19.88,4.55
1075,9289682,1.528294,0.073688,0.35831399999999997,-6.93,34.4575,18.55
1076,9289780,1.793034,0.108458,0.367342,-3.9025,42.2975,31.115
1077,9289878,2.002508,0.111142,0.2928,-6.4925,37.0825,40.1275
1078,9289976,2.068388,0.010614,0.04514,-12.495,15.8725,41.65
1079,9290074,1.95871,-0.061,-0.164578,-16.52,-13.86,34.8425
1080,9290171,1.726666,-0.010492,-0.243146,-20.1425,-38.99,23.59
1081,9290269,1.45912,0.11760799999999999,-0.381372,-19.8625,-56.21,13.1775
1082,9290367,1.16022,0.21301199999999998,-0.6603859999999999,-8.6625,-63.8575,8.5225
1083,9290465,0.9108521,0.23301999999999998,-0.809714,11.585,-58.1175,11.0425
1084,9290563,0.7291941,0.490684,-0.769088,17.5875,-44.3275,24.3775
1085,9290661,0.642574,0.797636,-0.566812,21.1925,-27.5975,50.155
1086,9290759,0.7200439999999999,0.7196779999999999,-0.34172199999999997,40.4425,-3.85,74.9175
1087,9290857,0.81862,0.41541000000000006,-0.36807399999999996,55.0375,13.16,87.85
1088,9290955,0.799466,0.011346,-0.5043479999999999,59.7625,2.0475,89.53
1089,9291053,0.7366361,-0.327814,-0.47067600000000004,59.535,-25.1125,80.99
1090,9291150,0.693814,-0.409066,-0.40833400000000003,45.9725,-42.9275,67.76
1091,9291248,0.787266,-0.499834,-0.24644000000000002,39.0425,-40.635,48.5275
1092,9291346,1.0323639999999998,-0.490684,-0.201544,28.0875,-13.5625,27.755
1093,9291444,1.325042,-0.47909399999999996,-0.224358,14.035,12.915,5.46
1094,9291542,1.523414,-0.370514,-0.243146,2.5025,19.425,-14.7525
1095,9291640,1.59576,-0.185074,-0.24717199999999998,-5.6,10.43,-30.2925
1096,9291738,1.518412,0.041236,-0.23485,-5.88,-6.58,-39.3225
1097,9291836,1.350906,0.222406,-0.20496,-2.3625,-25.9875,-41.8425
1098,9291934,1.14436,0.340136,-0.18775799999999998,3.7625,-38.7625,-41.6675
1099,9292031,0.9025559999999999,0.41589799999999993,-0.181902,9.9575,-44.695,-39.7075
1100,9292129,0.650748,0.410774,-0.18446400000000002,19.6525,-46.4625,-38.0625
1101,9292227,0.44334799999999996,0.378688,-0.18287799999999999,28.0525,-48.51,-34.16
1102,9292325,0.305976,0.355996,-0.163602,33.915,-50.505,-29.6275
1103,9292423,0.221308,0.29438600000000004,-0.137738,38.255,-49.7175,-26.0575
1104,9292521,0.20069,0.225334,-0.11333800000000001,41.755,-44.065,-22.9425
1105,9292619,0.22875,0.164456,-0.05770599999999999,45.5525,-33.8975,-21.21
1106,9292717,0.293898,0.099186,-0.027694,48.8775,-17.535,-21.175
1107,9292815,0.379298,0.019275999999999998,-0.012931999999999999,51.9225,-0.91,-21.8925
1108,9292912,0.465796,-0.047214,-0.0122,53.69,10.78,-21.6825
1109,9293010,0.560102,-0.095282,-0.023546,54.6525,18.2525,-21.945
1110,9293108,0.656848,-0.17055599999999999,-0.005978,57.855,22.26,-19.39
1111,9293206,0.735172,-0.14713199999999999,0.026595999999999998,57.1725,23.695,-12.9325
1112,9293304,0.8248421,-0.121512,0.055144000000000006,52.9025,23.17,-8.82
1113,9293402,0.904142,-0.126026,0.09028,49.28,20.475,-3.36
1114,9293500,0.940742,-0.07881200000000001,0.099552,39.7775,16.5375,4.7075
1115,9293598,0.934154,-0.067222,0.115656,32.795,11.2,10.885
1116,9293696,0.91622,-0.01647,0.11919400000000001,26.11,4.9175,17.0625
1117,9293794,0.851194,-0.059048,0.086864,21.805,0.1225,22.89
1118,9293891,0.8248421,-0.04331,0.029646,20.7025,-2.275,25.5675
1119,9293989,0.8300879999999999,-0.016714,-0.01464,17.955,0.2275,26.215
1120,9294087,0.8693719999999999,-0.01281,-0.05648601,17.36,6.8775,24.0975
1121,9294185,0.906948,-0.033794,-0.09869801,15.54,12.4775,20.475
1122,9294283,0.968192,-0.014152000000000001,-0.142618,12.0225,11.725,14.1225
1123,9294381,1.0208959999999998,0.013541999999999998,-0.15420799999999998,8.155,5.95,6.055
1124,9294479,1.12057,0.055388,-0.06832001,1.2425,3.71,-4.095
1125,9294577,1.274778,0.05856,0.06941801,-4.41,5.0225,-14.945
1126,9294675,1.452898,0.062341999999999995,0.190198,-8.3825,11.9875,-25.8125
1127,9294773,1.62382,0.05246,0.258152,-9.8525,20.2825,-34.055
1128,9294870,1.785836,0.040138,0.19642,-7.5075,22.225,-37.345
1129,9294968,1.9254040000000001,0.07222401,-0.055510000000000004,-1.7325,13.0375,-35.5075
1130,9295066,1.956392,0.135298,-0.265838,1.4175,-6.5625,-29.715
1131,9295164,1.8880720000000002,0.09979600000000001,-0.232044,11.5675,-29.68,-21.56
1132,9295262,1.671766,-0.12065799999999999,-0.283528,16.38,-51.3275,-15.4175
1133,9295360,1.341634,-0.262178,-0.48824399999999996,-0.8225,-67.2175,-15.5225
1134,9295458,1.093364,-0.326228,-0.6128060000000001,-21.7175,-59.7975,-24.8675
1135,9295556,0.8809620000000001,-0.56425,-0.536434,-28.9625,-41.23,-40.11
1136,9295654,0.7550581000000001,-0.670878,-0.326106,-39.6725,-23.31,-59.2375
1137,9295751,0.79971,-0.39271799999999996,-0.334402,-52.2025,1.2775,-77.735
1138,9295849,0.829234,-0.16165,-0.468236,-59.5175,15.4525,-91.8925
1139,9295947,0.751398,0.041358,-0.46787,-55.9825,-3.2025,-97.4925
1140,9296045,0.7105279999999999,0.274988,-0.40809,-51.9925,-27.1425,-92.3125
1141,9296143,0.79178,0.37332,-0.44896,-44.8875,-25.025,-83.6325
1142,9296241,0.9751460999999999,0.44859399999999994,-0.4933681,-41.615,-7.735,-69.195
1143,9296339,1.212924,0.45628,-0.460794,-32.0775,5.1275,-47.4075
1144,9296437,1.41093,0.437004,-0.40894400000000003,-19.0925,3.5175,-19.9325
1145,9296535,1.4940120000000001,0.33855,-0.324398,-6.965,-7.805,7.105
1146,9296633,1.4574120000000002,0.193614,-0.23485,-1.6625,-14.63,29.5575
1147,9296730,1.367376,0.019886,-0.195444,-1.785,-16.87,44.205
1148,9296828,1.1862059999999999,-0.146278,-0.181658,-4.2,-24.0275,52.115
1149,9296926,0.9439139999999999,-0.265472,-0.171044,-9.2925,-34.5975,54.25
1150,9297024,0.7239479999999999,-0.37027,-0.153232,-15.68,-43.7325,49.7525
1151,9297122,0.510814,-0.38247,-0.165188,-21.945,-50.085,42.9625
1152,9297220,0.29792399999999997,-0.36966,-0.132492,-25.4975,-56.4725,33.915
1153,9297318,0.219234,-0.348798,-0.02806,-27.0725,-54.2675,24.22
1154,9297416,0.17324,-0.300608,0.018056,-31.57,-37.03,18.8825
1155,9297514,0.150792,-0.249856,0.047580000000000004,-37.0825,-17.5525,13.3525
1156,9297612,0.199714,-0.134932,0.098576,-45.6575,-1.96,8.5925
1157,9297709,0.276452,-0.011834,0.07686,-55.5625,15.3475,6.6675
1158,9297807,0.3477,0.105896,0.025131999999999998,-59.6575,28.2275,5.46
1159,9297905,0.435784,0.208742,-0.014274,-60.7075,33.6525,4.8825
1160,9298003,0.531188,0.253272,-0.042822000000000006,-59.045,35.5425,1.6975
1161,9298101,0.642696,0.29572800000000005,-0.041846,-56.455,34.475,-2.87
1162,9298199,0.7734800000000001,0.31903000000000004,-0.021472,-53.1825,32.5675,-9.835
1163,9298297,0.9195141,0.308782,-0.005856,-44.2925,28.245,-15.19
1164,9298395,1.053958,0.276696,0.004514,-31.7625,20.23,-21.7
1165,9298493,1.1204479999999999,0.245464,0.011224,-19.075,9.8,-27.37
1166,9298591,1.102514,0.23301999999999998,0.030256,-8.8725,-0.735,-30.52
1167,9298688,1.0767719999999998,0.217648,0.05795,-3.71,-8.6625,-32.2875
1168,9298786,1.042246,0.169214,0.047336,-2.835,-9.8175,-33.4775
1169,9298884,1.001986,0.115168,0.023424,-5.2675,-9.275,-32.9525
1170,9298982,0.9825879999999999,0.065514,0.00366,-9.8875,-9.6775,-31.43
1171,9299080,0.9956421,0.038308,-0.015006,-12.705,-8.6275,-29.26
1172,9299178,1.0243120000000001,0.033428,-0.014762,-11.62,-6.2125,-25.445
1173,9299276,1.095316,0.041724000000000004,0.031232,-6.3875,-5.67,-18.83
1174,9299374,1.175836,0.059658,0.09186601,-1.365,-1.82,-10.815
1175,9299472,1.274168,0.08857201,0.14896199999999998,2.2925,10.01,-0.8575
1176,9299570,1.419958,0.12139000000000001,0.22118600000000002,5.495,24.605,11.1825
1177,9299667,1.613328,0.141398,0.277916,4.095,34.965,22.4875
1178,9299765,1.763754,0.116022,0.161406,-1.19,34.195,31.1325
1179,9299863,1.834514,0.010126000000000001,-0.146522,-7.0525,20.79,34.4225
1180,9299961,1.801818,-0.12017,-0.368318,-10.5525,-0.6825,29.96
1181,9300059,1.697142,-0.10723800000000001,-0.408456,-15.575,-24.5,20.3
1182,9300157,1.457168,0.029401999999999998,-0.5736441,-15.89,-45.6925,11.1825
1183,9300255,1.129964,0.081374,-0.8211821,-0.63,-56.4375,8.9425
1184,9300353,0.8676640999999999,0.15420799999999998,-0.7854361,17.3075,-46.13,14.42
1185,9300451,0.6986939999999999,0.5325300000000001,-0.6451359999999999,12.495,-22.995,32.865
1186,9300549,0.70638,0.734684,-0.399428,16.0825,7.245,57.4525
1187,9300646,0.8254520000000001,0.564006,-0.298656,30.205,26.635,74.7425
1188,9300744,0.820084,0.177144,-0.49959,38.7975,18.4275,81.81251
1189,9300842,0.7832399999999999,-0.20069,-0.538752,43.9775,-7.595,76.8425
1190,9300940,0.76982,-0.281088,-0.48922,31.57,-28.595,66.5175
1191,9301038,0.861808,-0.377224,-0.373076,26.5825,-25.865,49.07
1192,9301136,1.095682,-0.405406,-0.313418,20.125,-1.645,29.995
1193,9301234,1.433134,-0.422364,-0.318176,9.1525,22.82,9.87
1194,9301332,1.6987279999999998,-0.359168,-0.309758,-3.1325,25.41,-7.56
1195,9301430,1.817922,-0.197274,-0.260104,-14.1225,10.36,-18.83
1196,9301528,1.7295939999999999,0.012931999999999999,-0.218746,-19.145,-7.9625,-26.2325
1197,9301625,1.4570459999999998,0.195688,-0.176046,-16.5725,-30.2925,-28.7525
1198,9301723,1.141676,0.321226,-0.165432,-7.91,-46.6725,-29.085
1199,9301821,0.8657120999999999,0.36112,-0.153232,1.9775,-50.7325,-30.31
1200,9301919,0.617564,0.398818,-0.166774,11.655,-48.2475,-28.665
1201,9302017,0.423706,0.405528,-0.17629,19.95,-48.1775,-27.265
1202,9302115,0.27694,0.384788,-0.171044,27.335,-53.3925,-25.375
1203,9302213,0.170922,0.345992,-0.135664,33.005,-58.8875,-22.61
1204,9302311,0.14383800000000002,0.303048,-0.074298,36.4875,-57.19,-19.2325
1205,9302409,0.15701400000000001,0.243024,-0.015616,42.3325,-42.2275,-19.11
1206,9302507,0.2013,0.18104800000000001,0.006832001,47.6525,-19.7925,-21.0
1207,9302605,0.30402399999999996,0.09979600000000001,0.010248,51.03,-0.2975,-24.045
1208,9302702,0.396744,0.00976,-0.036966000000000006,51.8875,10.99,-25.1125
1209,9302800,0.482022,-0.061854,-0.06356201,54.39,15.9075,-23.87
1210,9302898,0.558394,-0.09589201,-0.055998,57.4175,18.9875,-18.97
1211,9302996,0.6681941,-0.139568,-0.022692,61.5475,21.035,-12.6875
1212,9303094,0.746518,-0.11650999999999999,0.015738,61.74,21.56,-4.2175
1213,9303192,0.8420440999999999,-0.18287799999999999,0.07588400000000001,59.71,19.6,2.45
1214,9303290,0.889502,-0.146766,0.11333800000000001,52.675,16.905,11.13
1215,9303388,0.9206120000000001,-0.10833599999999999,0.122976,40.46,12.95,16.8525
1216,9303486,0.8962120000000001,-0.07747001,0.101016,32.34,6.3175,21.07
1217,9303584,0.8541221,-0.046116000000000004,0.041358,26.4075,0.525,24.9025
1218,9303681,0.7999539999999999,-0.02684,0.026108,25.41,-2.6775,26.565
1219,9303779,0.7692101,-0.025254,-0.015128,22.995,-1.0325,26.11
1220,9303877,0.8076399999999999,-0.070516,-0.023302,22.3825,6.86,24.045
1221,9303975,0.876326,-0.119316,-0.081862,18.8125,15.4525,20.5975
1222,9304073,0.9734381,-0.109556,-0.14310599999999998,14.1925,15.61,14.3675
1223,9304171,1.0687200000000001,-0.046116000000000004,-0.133102,9.5375,11.48,5.5475
1224,9304269,1.2012120000000002,-0.005368,-0.064538,4.0075,10.045,-3.99
1225,9304367,1.3865299999999998,-0.000366,0.095282,-1.3125,12.845,-14.6475
1226,9304465,1.612352,0.010736,0.20703400000000002,-7.77,20.7375,-24.6925
1227,9304563,1.798768,-0.004636001,0.21142600000000003,-14.3325,27.8075,-32.655
1228,9304661,1.916864,0.008174001,0.053070000000000006,-16.87,26.1275,-35.7525
1229,9304758,1.947242,0.057584,-0.20483800000000002,-13.5625,12.985,-33.845
1230,9304856,1.8849,0.080886,-0.22728600000000002,-4.9875,-9.87,-27.965
1231,9304954,1.727642,-0.04514,-0.196054,3.815,-34.7025,-20.6325
1232,9305052,1.447164,-0.18544000000000002,-0.397598,-6.2125,-52.955,-16.9925
1233,9305150,1.185352,-0.186782,-0.620858,-25.8825,-56.28,-21.28
1234,9305248,0.9357401,-0.346602,-0.6423300999999999,-32.935,-47.775,-31.045
1235,9305346,0.701134,-0.590846,-0.46787,-41.4925,-39.1125,-46.0075
1236,9305444,0.629154,-0.576084,-0.343674,-50.645,-21.63,-63.42
1237,9305542,0.720532,-0.301462,-0.476654,-61.11,7.455,-81.095
1238,9305640,0.736392,-0.111142,-0.520818,-63.875,9.695,-92.1375
1239,9305737,0.7399300999999999,0.131638,-0.46469799999999994,-60.76,-8.6975,-93.5025
1240,9305835,0.823866,0.253394,-0.46433199999999997,-55.02,-12.005,-89.72251
1241,9305933,0.9801479999999999,0.366122,-0.510814,-50.5925,1.015,-81.935
1242,9306031,1.200114,0.4478621,-0.481778,-42.875,15.26,-66.2375
1243,9306129,1.453752,0.516304,-0.45933,-32.8475,18.795,-42.0525
1244,9306227,1.63663,0.502518,-0.40443,-15.925,7.315,-13.79
1245,9306325,1.61101,0.37027,-0.284504,-1.6625,-10.8675,13.055
1246,9306423,1.48535,0.20069,-0.20288599999999998,3.5,-21.455,33.495
1247,9306521,1.260626,0.004514,-0.186172,5.2325,-27.7025,45.3775
1248,9306619,1.014186,-0.182024,-0.17238599999999998,5.25,-35.63,50.05
1249,9306717,0.78873,-0.307318,-0.157868,1.75,-41.44,46.445
1250,9306814,0.603168,-0.340624,-0.139324,-4.13,-44.205,39.48
1251,9306912,0.40992,-0.309636,-0.156648,-9.52,-46.095,31.4475
1252,9307010,0.274866,-0.285114,-0.089426,-10.185,-50.2425,21.3675
1253,9307108,0.21899000000000002,-0.236192,-0.036966000000000006,-13.0375,-44.275,13.825
1254,9307206,0.15201199999999998,-0.201178,0.001464,-16.3625,-28.8575,8.1025
1255,9307304,0.193126,-0.124074,0.07417601,-23.0475,-11.9525,2.3275
1256,9307402,0.274378,-0.019275999999999998,0.07356601,-33.635,10.5175,0.1925
1257,9307500,0.34733400000000003,0.055998,0.024644,-39.9,28.245,0.07
1258,9307598,0.41980200000000006,0.141276,-0.012931999999999999,-43.89,33.39,1.6975
1259,9307696,0.49654,0.184098,-0.0305,-43.9775,33.845,0.4375
1260,9307794,0.598288,0.18666,-0.032574,-42.525,33.2325,-2.94
1261,9307892,0.721264,0.196176,-0.005368,-40.95,32.41,-8.4525
1262,9307990,0.85339,0.196664,0.025863999999999998,-37.065,30.555,-14.6825
1263,9308087,0.979294,0.196176,0.045506,-28.07,26.285,-20.79
1264,9308185,1.0559100000000001,0.200202,0.053436000000000004,-16.695,18.3225,-26.5125
1265,9308283,1.055666,0.20788800000000002,0.044896,-7.3675,7.7,-30.2575
1266,9308381,1.006988,0.204594,0.02562,-2.31,-3.0975,-32.4625
1267,9308479,0.9435479999999999,0.18141400000000002,-0.0032939999999999996,-1.015,-9.5725,-32.13
1268,9308577,0.87474,0.109556,-0.048068,-1.9775,-10.9025,-30.3625
1269,9308675,0.85339,0.027816000000000004,-0.064782,-4.48,-8.82,-28.9975
1270,9308773,0.8741300999999999,-0.01098,-0.070516,-10.395,-4.2525,-28.35
1271,9308871,0.9140241,-0.010736,-0.06588,-15.75,-1.225,-27.3875
1272,9308969,0.9688021000000001,0.013054,0.0034159999999999998,-17.0625,-2.1875,-24.08
1273,9309067,1.071648,0.05368,0.07527400000000001,-17.045,-1.89,-18.725
1274,9309165,1.218658,0.08308201,0.149816,-14.8225,5.5475,-10.36
1275,9309263,1.392508,0.165798,0.217038,-11.06,18.0425,1.3125
1276,9309360,1.622966,0.201666,0.294752,-3.2375,30.835,13.4575
1277,9309458,1.8676979999999999,0.223748,0.309392,2.1875,35.8225,25.3925
1278,9309556,2.0291040000000002,0.211182,0.090036,0.9975,25.5675,34.23
1279,9309654,2.0295919999999996,0.122732,-0.251564,1.4175,2.695,37.7475
1280,9309752,1.8583040000000002,0.039406000000000004,-0.31012399999999996,3.36,-21.5775,35.9275
1281,9309850,1.63541,0.08649801,-0.355752,1.0325,-37.905,29.96
1282,9309948,1.296738,0.15762400000000001,-0.5281380999999999,2.4325,-46.6725,24.85
1283,9310046,0.973316,0.13078399999999998,-0.734318,15.6625,-45.4475,23.03
1284,9310144,0.783118,0.202764,-0.744566,26.425,-26.5475,26.67
1285,9310242,0.669048,0.484828,-0.607438,20.86,-8.295,40.9675
1286,9310340,0.633912,0.576084,-0.36953800000000003,20.3875,5.2325,59.92
1287,9310438,0.691496,0.39528,-0.35782600000000003,27.1425,14.805,72.7825
1288,9310536,0.723338,0.075762,-0.605364,32.1475,11.025,77.8225
1289,9310633,0.7567659999999999,-0.255346,-0.594018,36.7675,-5.2325,73.7975
1290,9310731,0.809836,-0.310246,-0.508618,24.7275,-19.53,66.5
1291,9310829,0.9085340000000001,-0.368196,-0.386008,20.7375,-19.355,52.9375
1292,9310927,1.102514,-0.338306,-0.351848,15.1375,-2.5375,36.435
1293,9311025,1.4154440000000001,-0.33684200000000003,-0.323422,9.975,17.7275,18.9175
1294,9311123,1.71288,-0.29768,-0.299144,0.91,24.64,3.5
1295,9311221,1.820728,-0.147742,-0.24095,-12.355,10.465,-6.4575
1296,9311319,1.700924,0.012688,-0.198982,-21.1225,-12.5475,-16.205
1297,9311417,1.380796,0.14469200000000002,-0.17360599999999998,-21.3675,-35.77,-23.0825
1298,9311515,1.072502,0.220942,-0.17263,-16.555,-49.6475,-28.14
1299,9311613,0.8260620000000001,0.248148,-0.152866,-9.835,-49.4725,-32.375
1300,9311711,0.616466,0.269254,-0.15189,-2.7825,-42.4025,-31.7625
1301,9311809,0.44847200000000004,0.29438600000000004,-0.154696,4.4975,-39.41,-28.56
1302,9311906,0.332084,0.266936,-0.140666,11.1475,-42.56,-24.955
1303,9312004,0.229238,0.244854,-0.12712400000000001,13.6325,-46.7075,-19.04
1304,9312102,0.193004,0.193126,-0.100772,12.7575,-44.275,-14.21
1305,9312200,0.221308,0.151158,-0.053436000000000004,15.0325,-31.0975,-11.1125
1306,9312298,0.28328400000000004,0.12053599999999999,-0.039772,18.8475,-11.095,-10.43
1307,9312396,0.383446,0.056852,-0.035013999999999997,24.57,4.48,-12.5475
1308,9312494,0.491782,-0.0122,-0.046238,28.1925,11.5675,-14.14
1309,9312592,0.58194,-0.039162,-0.06490399999999999,30.31,14.735,-13.1075
1310,9312690,0.6728301,-0.032818,-0.06636801,34.0725,17.255,-11.4625
1311,9312788,0.7734800000000001,-0.047458,-0.032574,38.6925,17.955,-9.0125
1312,9312886,0.8632719999999999,-0.004392,-0.0034159999999999998,38.64,15.8375,-3.1675
1313,9312983,0.9435479999999999,-0.021106,0.029646,38.3425,11.4275,1.8025
1314,9313081,0.99308,-0.07698201,0.08113001,35.7875,4.4625,7.945
1315,9313179,0.9557479999999999,-0.049654000000000004,0.081618,26.635,-2.695,14.9975
1316,9313277,0.9067040000000001,-0.025131999999999998,0.09650201,19.39,-9.2925,17.3075
1317,9313375,0.812032,-0.068442,0.041236,14.8925,-12.7225,18.9175
1318,9313473,0.74054,-0.06575800000000001,-0.007686,17.2025,-13.7725,20.5625
1319,9313571,0.691008,-0.018666,-0.066246,17.6225,-10.0275,19.81
1320,9313669,0.6902761,-0.005368,-0.097234,20.755,-3.99,15.89
1321,9313767,0.7266321,-0.009272001,-0.10492,22.295,4.2175,13.265
1322,9313865,0.777628,-0.016347999999999998,-0.1159,22.9425,10.8675,9.5725
1323,9313962,0.8532681000000001,0.03294,-0.10687200000000001,21.63,13.72,3.85
1324,9314060,0.956968,0.114924,-0.071614,16.6425,15.5225,-2.31
1325,9314158,1.0919,0.137006,0.010736,12.215,17.99,-8.1375
1326,9314256,1.264652,0.13054000000000002,0.138348,8.19,21.5425,-14.4375
1327,9314354,1.475956,0.09381801,0.24412199999999998,4.5675,27.475,-22.4525
1328,9314452,1.710562,0.042212,0.257298,-0.245,32.2,-31.6925
1329,9314550,1.91967,-0.004026,0.069662,-3.43,29.54,-39.0775
1330,9314648,2.07766,0.008418,-0.20252,-5.425,15.82,-42.7
1331,9314746,2.12158,-0.01464,-0.183,0.7175,-10.2025,-40.53
1332,9314844,1.9804259999999998,-0.18544000000000002,-0.09882,10.29,-37.6775,-34.4225
1333,9314942,1.6461459999999999,-0.337696,-0.29902199999999995,-2.3625,-54.88,-30.485
1334,9315039,1.349198,-0.22935999999999998,-0.600362,-28.735,-52.5525,-30.94
1335,9315137,1.103246,-0.35221399999999997,-0.669048,-32.8825,-40.3725,-35.105
1336,9315235,0.793488,-0.589992,-0.525332,-35.2625,-41.93,-41.7375
1337,9315333,0.572546,-0.523502,-0.406382,-46.5675,-41.65,-51.6075
1338,9315431,0.543266,-0.31781,-0.447618,-55.7375,-18.6025,-65.45
1339,9315529,0.54595,-0.2013,-0.46603999999999995,-56.245,-4.27,-76.6675
1340,9315627,0.571448,0.045994,-0.44713,-56.7525,-9.1175,-81.41001
1341,9315725,0.662704,0.22118600000000002,-0.44237200000000004,-54.4775,-11.48,-83.2125
1342,9315823,0.7972701,0.395646,-0.490684,-53.76,-3.4475,-81.46251
1343,9315921,0.9946659999999999,0.421266,-0.47482399999999997,-43.5225,9.8175,-74.18251
1344,9316019,1.20902,0.44249399999999994,-0.40894400000000003,-35.28,17.9375,-57.5575
1345,9316116,1.4576559999999998,0.46640600000000004,-0.36953800000000003,-24.815,18.34,-33.8625
1346,9316214,1.6415099999999998,0.408456,-0.34867600000000004,-13.0375,12.075,-9.765
1347,9316312,1.658468,0.254126,-0.263764,-3.78,-0.21,11.375
1348,9316410,1.548546,0.062464,-0.18849000000000002,-0.1575,-13.8075,28.28
1349,9316508,1.320162,-0.126026,-0.168726,-1.19,-28.1225,38.64
1350,9316606,1.032608,-0.273036,-0.165432,-5.145,-41.65,43.015
1351,9316704,0.7448100999999999,-0.349774,-0.146522,-10.4475,-52.15,40.2325
1352,9316802,0.484828,-0.378078,-0.142496,-16.1525,-57.4175,32.76
1353,9316900,0.242902,-0.366976,-0.114558,-18.8825,-59.0625,25.06
1354,9316998,0.152622,-0.34733400000000003,-0.02135,-20.0375,-52.2375,16.275
1355,9317096,0.13176,-0.29133600000000004,0.009882,-25.1825,-31.6225,10.465
1356,9317194,0.164456,-0.208986,0.048556,-32.585,-10.99,5.4775
1357,9317291,0.287554,-0.084912,0.07393200000000001,-44.9225,7.2975,3.0975
1358,9317389,0.38308000000000003,0.064172,0.032818,-55.4575,23.66,6.0025
1359,9317487,0.45993999999999996,0.158112,-0.0034159999999999998,-60.9,29.68,7.9275
1360,9317585,0.528626,0.24583000000000002,-0.040504000000000005,-63.9625,29.855,9.45
1361,9317683,0.6293981,0.252662,-0.05246,-62.7725,30.905,7.3325
1362,9317781,0.7550581000000001,0.267424,-0.042212,-59.3425,31.71,3.08
1363,9317879,0.8991401,0.270596,-0.000122,-53.1125,29.8375,-0.7
1364,9317977,1.029802,0.255712,0.023180000000000003,-42.4725,23.4675,-6.2125
1365,9318075,1.089582,0.22814,0.032695999999999996,-28.9975,12.915,-11.97
1366,9318172,1.067134,0.205204,0.040016,-16.1175,1.295,-16.905
1367,9318270,0.9961300999999999,0.192638,0.047580000000000004,-8.12,-7.56,-21.21
1368,9318368,0.927688,0.17568,0.045872,-5.9675,-11.06,-24.64
1369,9318466,0.849852,0.13359000000000001,0.018056,-7.5075,-9.1525,-26.635
1370,9318564,0.795806,0.06588,-0.021472,-11.0075,-5.46,-28.805
1371,9318662,0.7993439999999999,0.022326,-0.053314,-16.625,-1.295,-31.64
1372,9318760,0.826672,0.026595999999999998,-0.063928,-21.56,1.8025,-33.985
1373,9318858,0.8642481,0.042089999999999995,-0.033672,-23.065,1.3475,-33.6875
1374,9318956,0.9440360999999999,0.056852,0.027206,-20.1775,-1.3825,-29.4525
1375,9319054,1.035536,0.086864,0.07246799999999999,-15.4525,-0.7525,-21.07
1376,9319152,1.14131,0.136518,0.142374,-10.1325,9.31,-9.1
1377,9319249,1.333216,0.174094,0.233264,-4.13,27.4925,5.3725
1378,9319348,1.587708,0.20984,0.282064,0.455,43.1375,20.4575
1379,9319445,1.826828,0.186416,0.229726,0.315,48.0025,32.1125
1380,9319543,1.990674,0.07356601,0.025986000000000002,-5.4075,35.56,38.675
1381,9319641,2.011048,-0.079056,-0.200202,-10.3425,7.945,36.855
1382,9319739,1.891488,-0.135054,-0.203984,-14.2625,-22.6625,27.93
1383,9319837,1.66042,-0.0032939999999999996,-0.34586999999999996,-18.9175,-45.955,16.87
1384,9319935,1.33407,0.101138,-0.672586,-11.9875,-57.4175,9.2225
1385,9320033,1.071282,0.14713199999999999,-0.827282,6.86,-53.7425,7.105
1386,9320130,0.8493641,0.383812,-0.74664,14.105,-43.0675,15.12
1387,9320228,0.65758,0.760182,-0.5404601,11.34,-28.2975,35.84
1388,9320326,0.7017439999999999,0.76555,-0.305976,23.555,1.2075,59.7275
1389,9320424,0.8552200000000001,0.393328,-0.40381999999999996,39.655,25.095,75.4775
1390,9320522,0.8402139999999999,0.017934000000000002,-0.487756,44.975,14.4725,80.6925
1391,9320620,0.7330979999999999,-0.208864,-0.465308,37.5375,-19.705,77.3675
1392,9320718,0.708576,-0.371612,-0.41809399999999997,30.905,-37.03,65.135
1393,9320816,0.805688,-0.466772,-0.370026,24.5525,-27.3175,49.105
1394,9320914,1.043344,-0.47958199999999995,-0.27755,15.645,-1.855,31.5
1395,9321012,1.3444399999999999,-0.443104,-0.254126,0.91,20.0375,10.395
1396,9321109,1.553914,-0.361242,-0.242902,-11.2175,20.475,-6.965
1397,9321207,1.637484,-0.203618,-0.22204000000000002,-18.1125,7.21,-18.13
1398,9321305,1.599542,0.015738,-0.211548,-19.81,-7.35,-24.9725
1399,9321403,1.4126379999999998,0.197884,-0.195688,-15.26,-25.1125,-28.2625
1400,9321501,1.149118,0.34721199999999997,-0.191906,-6.44,-42.0175,-28.6125
1401,9321599,0.89975,0.42456000000000005,-0.172264,3.22,-50.47,-29.3475
1402,9321697,0.64965,0.46640600000000004,-0.17385,12.635,-50.5925,-28.735
1403,9321795,0.43554,0.450912,-0.187392,21.6475,-50.4,-28.0
1404,9321893,0.273158,0.428464,-0.176534,29.19,-52.57,-26.0225
1405,9321990,0.18483,0.389912,-0.148352,35.1925,-52.045,-23.94
1406,9322088,0.171166,0.31232,-0.118584,40.355,-46.0775,-22.0675
1407,9322186,0.212646,0.244,-0.069174,46.935,-34.9475,-20.09
1408,9322284,0.29743600000000003,0.15921,-0.037698,53.2175,-19.04,-20.9475
1409,9322382,0.396988,0.054167999999999994,-0.027938,57.7675,-3.22,-21.875
1410,9322480,0.5002,-0.035013999999999997,-0.036722000000000005,59.745,8.9075,-22.0675
1411,9322578,0.609268,-0.129442,-0.05368,60.3925,16.38,-21.35
1412,9322676,0.71065,-0.16287000000000001,-0.044164,61.775,20.1075,-16.87
1413,9322774,0.8346021,-0.199714,-0.013297999999999999,62.895,20.4925,-13.3
1414,9322872,0.941718,-0.20801,0.040260000000000004,61.4775,16.17,-6.4225
1415,9322970,1.0262639999999998,-0.198006,0.08466801,54.5125,8.1025,1.6275
1416,9323068,1.091656,-0.21825799999999998,0.100284,45.43,-1.295,6.195
1417,9323165,1.071526,-0.167994,0.09247601,33.5825,-10.9025,13.195
1418,9323263,1.032242,-0.11358199999999999,0.08881599,22.82,-20.0375,15.61
1419,9323361,0.9775860000000001,-0.06356201,0.068686,17.7275,-26.5825,18.4975
1420,9323459,0.886818,-0.04819,0.045872,18.3925,-29.225,19.845
1421,9323557,0.81801,0.02135,-0.013908000000000002,20.0025,-25.9875,20.335
1422,9323655,0.792024,0.045627999999999995,-0.054046000000000004,24.6925,-18.8475,18.865
1423,9323753,0.790804,0.046726,-0.12358599999999999,26.0575,-9.625,16.275
1424,9323851,0.815814,0.038064,-0.20703400000000002,25.3575,-4.76,12.355
1425,9323949,0.8581479999999999,0.048312,-0.229238,21.5425,-6.1425,6.58
1426,9324047,0.9010921000000001,0.066124,-0.169824,15.61,-7.56,0.0
1427,9324145,0.9683141,0.057462,-0.026718000000000002,9.7475,-5.3725,-6.8425
1428,9324242,1.080066,0.029158,0.121512,3.1675,4.1475,-14.1225
1429,9324340,1.244644,-0.031476,0.209352,-0.525,18.935,-20.51
1430,9324438,1.468392,-0.09589201,0.203618,-2.0825,33.32,-24.045
1431,9324536,1.68482,-0.068442,0.002806,-4.5325,39.83,-25.2175
1432,9324634,1.8315860000000002,-0.02623,-0.25851799999999997,-3.2725,31.85,-23.9225
1433,9324732,1.8478119999999998,-0.039894,-0.30036399999999996,1.2075,7.175,-19.3375
1434,9324830,1.7214200000000002,-0.170068,-0.318176,5.4425,-24.535,-15.1725
1435,9324928,1.461194,-0.264252,-0.508008,-10.5,-46.3225,-17.8325
1436,9325026,1.191208,-0.29219,-0.66185,-32.06,-45.745,-28.4025
1437,9325124,0.9589200999999999,-0.503616,-0.60817,-42.07,-31.3775,-45.885
1438,9325222,0.782508,-0.686006,-0.457012,-48.8425,-20.405,-64.155
1439,9325319,0.77531,-0.444324,-0.486414,-56.805,-2.52,-79.9925
1440,9325417,0.8058101,-0.180194,-0.554246,-65.9225,12.74,-91.7175
1441,9325515,0.728218,0.017812,-0.49227,-61.39,1.085,-96.53
1442,9325613,0.6736840000000001,0.224358,-0.44554399999999994,-58.5375,-13.5625,-90.79
1443,9325711,0.7661600000000001,0.359168,-0.46201400000000004,-52.2375,-7.7875,-82.915
1444,9325809,0.9801479999999999,0.478362,-0.5073979999999999,-45.885,14.42,-70.175
1445,9325907,1.255624,0.553636,-0.502152,-34.93,31.5,-51.2575
1446,9326005,1.467294,0.610244,-0.44847200000000004,-17.92,27.0375,-24.71
1447,9326103,1.539396,0.46848,-0.34648,2.4675,7.42,0.8575
1448,9326201,1.4783959999999998,0.30780599999999997,-0.246074,9.8,-8.715,23.2575
1449,9326299,1.347612,0.09784401,-0.196176,10.4825,-13.7375,37.4675
1450,9326397,1.171078,-0.119316,-0.18287799999999999,9.73,-17.2025,43.505
1451,9326494,0.9845401,-0.27633,-0.174582,5.67,-21.175,42.8925
1452,9326592,0.8228901,-0.376614,-0.177876,-0.5075,-24.22,36.54
1453,9326690,0.663558,-0.392962,-0.17543599999999998,-6.1075,-26.39,28.735
1454,9326788,0.458476,-0.352092,-0.171532,-11.445,-30.7475,19.7925
1455,9326886,0.332084,-0.323788,-0.087352,-13.3175,-35.105,8.96
1456,9326984,0.277306,-0.261446,-0.040016,-17.01,-26.46,1.1375
1457,9327082,0.265838,-0.199714,0.00305,-21.49,-11.3575,-4.655
1458,9327180,0.34050199999999997,-0.097722,0.043066,-28.1575,3.675,-8.75
1459,9327278,0.42163199999999995,0.032695999999999996,0.013054,-35.035,19.74,-8.995
1460,9327376,0.500566,0.13115,-0.02806,-37.87,30.73,-8.96
1461,9327474,0.580354,0.228384,-0.061732,-39.06,35.14,-9.1
1462,9327571,0.667218,0.280844,-0.07856801,-38.045,35.875,-10.57
1463,9327669,0.766038,0.30109600000000003,-0.06954,-34.755,33.7575,-14.175
1464,9327767,0.8787661,0.30792800000000004,-0.039894,-29.47,30.1,-17.22
1465,9327865,0.9751460999999999,0.296216,-0.011590000000000001,-20.7725,24.395,-20.405
1466,9327963,1.015406,0.27876999999999996,-0.00122,-9.0825,14.7,-22.4875
1467,9328061,0.9977159999999999,0.25046599999999997,0.012565999999999999,1.4875,2.3625,-23.555
1468,9328159,0.93696,0.21362199999999998,0.020618,8.5575,-6.86,-24.2725
1469,9328257,0.8840120000000001,0.173728,0.017934000000000002,11.1125,-9.5375,-25.2525
1470,9328355,0.8296,0.10223600000000001,-0.00976,9.8,-6.9825,-27.1425
1471,9328453,0.785558,0.010858,-0.045627999999999995,6.965,-4.305,-29.785
1472,9328551,0.772748,-0.05587601,-0.072956,1.3125,-1.3475,-33.11
1473,9328649,0.801906,-0.07015,-0.09418401,-5.46,1.6625,-36.3125
1474,9328747,0.8382620000000001,-0.031354,-0.089792,-8.9425,2.3275,-37.66
1475,9328844,0.89243,0.011346,-0.008662000999999999,-7.5425,-1.0325,-35.63
1476,9328942,0.9745360000000001,0.04867801,0.06819800000000001,-6.4925,-1.89,-30.2225
1477,9329040,1.0704280000000002,0.091378,0.12749000000000002,-4.655,5.215,-21.5075
1478,9329138,1.2214639999999999,0.137006,0.173118,-0.1225,18.55,-9.625
1479,9329236,1.428864,0.18666,0.20618000000000003,5.6525,33.32,4.0075
1480,9329334,1.6795740000000001,0.175924,0.20801,8.8375,42.14,15.3825
1481,9329432,1.8618419999999998,0.14823,0.043432,6.6325,38.29,23.17
1482,9329530,1.928942,0.026718000000000002,-0.159332,6.02,20.3875,25.3225
1483,9329628,1.8742860000000001,-0.037454,-0.20190999999999998,6.86,-2.0825,20.3
1484,9329726,1.71593,0.035258,-0.28926199999999996,3.7275,-19.1625,9.8875
1485,9329824,1.447042,0.11138599999999999,-0.4941,7.4025,-29.54,-0.4025
1486,9329922,1.181814,0.142618,-0.67466,20.6325,-30.94,-6.475
1487,9330019,0.995398,0.27718400000000004,-0.686372,29.855,-24.3775,-3.4475
1488,9330117,0.783362,0.5397281,-0.569984,29.75,-20.0725,11.0425
1489,9330215,0.6307401,0.593164,-0.35038400000000003,35.875,-10.43,31.01
1490,9330313,0.6673399999999999,0.337574,-0.340014,45.7275,12.8975,46.76
1491,9330411,0.71065,0.028914,-0.42028999999999994,51.52,24.4125,55.4225
1492,9330509,0.6794180000000001,-0.18995399999999998,-0.4331,48.685,10.0275,58.38
1493,9330607,0.682956,-0.33379200000000003,-0.38552,45.2025,-7.0875,53.5675
1494,9330705,0.760182,-0.36722,-0.36209600000000003,42.035,-7.6825,43.575
1495,9330803,0.957944,-0.35746,-0.29682600000000003,36.9775,7.665,29.225
1496,9330901,1.2458639999999999,-0.302072,-0.269376,26.915,27.3525,10.78
1497,9330999,1.512678,-0.217648,-0.25742,16.5025,34.1075,-5.6525
1498,9331097,1.668838,-0.0793,-0.244,8.925,25.4275,-15.0325
1499,9331195,1.72386,0.093574,-0.216428,7.0175,10.6575,-18.0775
1500,9331292,1.617964,0.248392,-0.20727800000000002,10.4125,-6.86,-18.9175
1501,9331390,1.326994,0.343674,-0.195932,20.475,-29.225,-20.3175
1502,9331488,1.01138,0.40321,-0.171044,32.725,-44.065,-22.015
1503,9331586,0.757742,0.40357600000000005,-0.181658,44.065,-40.88,-25.095
1504,9331684,0.5543680000000001,0.39918400000000004,-0.223016,53.2175,-30.7825,-27.1425
1505,9331782,0.394914,0.406016,-0.230336,60.62,-28.175,-26.1275
1506,9331880,0.30195,0.393328,-0.205814,65.52,-29.7675,-24.9375
1507,9331978,0.256322,0.339404,-0.16897,69.0375,-28.4375,-24.2375
1508,9332076,0.27023,0.278648,-0.127246,73.255,-21.1575,-23.0825
1509,9332174,0.36441399999999996,0.20252,-0.06819800000000001,80.85,-7.21,-24.4475
1510,9332272,0.474092,0.102968,-0.058072000000000006,87.64,6.86,-26.635
1511,9332370,0.595238,0.018056,-0.07417601,91.9625,16.8175,-28.63
1512,9332468,0.71736,-0.03965,-0.08454600000000001,92.40001,24.4475,-29.33
1513,9332566,0.8399700000000001,-0.025498,-0.068442,91.4025,29.435,-28.105
1514,9332663,0.960628,-0.0732,-0.034892,92.8025,32.865,-24.78
1515,9332761,1.069086,-0.066978,-0.004636001,94.01,34.335,-18.9525
1516,9332859,1.143994,-0.065026,0.009882,93.03,30.7475,-11.305
1517,9332957,1.16388,-0.063684,0.028548,90.265,19.1275,-2.9225
1518,9333055,1.1270360000000001,-0.041724000000000004,0.033184,85.97751,2.065,4.655
1519,9333153,1.05103,-0.048434,0.009150001,82.74,-15.5575,9.9925
1520,9333251,0.988078,-0.04404201,0.007686,86.0125,-28.1225,14.2275
1521,9333349,0.93879,-0.054167999999999994,0.005734,90.965,-32.025,17.08
1522,9333447,0.9147559999999999,0.06112201,-0.046116000000000004,91.91001,-29.295,18.0075
1523,9333545,0.8769360999999999,0.03355,-0.07722601,93.87,-23.1525,17.15
1524,9333643,0.837042,-0.041114,-0.08417999999999999,97.51,-20.5625,14.7525
1525,9333741,0.7820199999999999,-0.09235399999999999,-0.09625801,97.4925,-23.8875,11.095
1526,9333839,0.737246,-0.06075601,-0.102602,90.79,-27.2125,4.06
1527,9333936,0.7147979999999999,-0.002806,-0.07625,87.29,-25.83,-4.9525
1528,9334034,0.7245581,0.0064659999999999995,-0.012444,87.60501,-23.9575,-13.9125
1529,9334132,0.772992,-0.016836,0.056608000000000006,84.2275,-23.66,-23.0825
1530,9334230,0.8592460999999999,-0.033428,0.12017,76.685,-18.6025,-30.625
1531,9334328,0.992348,-0.047336,0.13602999999999998,68.985,-7.945,-35.84
1532,9334426,1.134112,-0.041846,0.07002799999999999,64.9075,1.61,-38.36
1533,9334524,1.270142,-0.025376,-0.042578,66.9725,7.07,-37.275
1534,9334622,1.378966,-0.005978,-0.139568,72.8525,6.23,-33.39
1535,9334720,1.46949,-0.025742,-0.133956,81.025,-3.2375,-26.2325
1536,9334818,1.50975,-0.127978,-0.129686,85.3825,-14.5425,-18.6725
1537,9334916,1.466684,-0.19947,-0.250954,80.71,-23.415,-17.0275
1538,9335014,1.375062,-0.280356,-0.4023561,73.7975,-25.48,-23.2225
1539,9335111,1.30723,-0.4553041,-0.462624,70.1575,-20.4925,-35.2625
1540,9335209,1.19011,-0.5636399999999999,-0.404674,63.4025,-17.29,-51.9925
1541,9335307,1.042856,-0.5392399999999999,-0.337452,55.965,-16.135,-70.455
1542,9335405,0.924394,-0.397476,-0.442738,51.5375,-9.3625,-86.0825
1543,9335503,0.8263060999999999,-0.208254,-0.505446,51.52,-2.9575,-97.58
1544,9335601,0.723826,-0.063684,-0.49349,59.045,-3.4825,-105.7525
1545,9335699,0.7027201,0.118828,-0.483364,65.24,-4.2,-110.4075
1546,9335797,0.76372,0.24034,-0.457988,73.22,-1.715,-114.1875
1547,9335895,0.8425321,0.364292,-0.46433199999999997,75.3375,4.2525,-115.6575
1548,9335993,0.9240280000000001,0.423462,-0.444324,82.0225,7.8575,-111.7725
1549,9336091,1.037366,0.42944,-0.403332,90.1075,8.365,-101.395
1550,9336188,1.17486,0.397598,-0.360144,97.1075,10.2725,-84.2625
1551,9336286,1.297592,0.31781,-0.321104,102.9525,10.71,-63.49
1552,9336384,1.385066,0.191052,-0.261446,106.645,5.9325,-44.1175
1553,9336482,1.4448459999999999,0.038674,-0.185196,110.285,-2.45,-27.9825
1554,9336580,1.467172,-0.07283401,-0.138348,110.775,-9.24,-16.1
1555,9336678,1.368962,-0.14469200000000002,-0.121146,109.095,-16.8875,-9.66
1556,9336776,1.143384,-0.189832,-0.106628,111.3175,-25.9875,-9.555
1557,9336874,0.8525360000000001,-0.18178,-0.13785999999999998,115.955,-30.87,-14.9975
1558,9336972,0.61183,-0.175558,-0.15274400000000002,120.925,-31.1325,-22.5575
1559,9337070,0.5453399999999999,-0.12053599999999999,-0.139324,122.8675,-21.77,-29.9775
1560,9337168,0.562542,-0.032574,-0.148474,118.2825,-0.9625,-34.195
1561,9337265,0.616466,0.05819401,-0.13237000000000002,111.3525,15.19,-36.435
1562,9337363,0.7013781,0.15372,-0.10418800000000002,102.83,22.365,-36.4
1563,9337461,0.784826,0.23485,-0.12651400000000002,96.42501,24.885,-31.64
1564,9337559,0.8350901,0.24497600000000003,-0.146034,95.26999,21.6475,-28.7875
1565,9337657,0.862662,0.229238,-0.127246,97.4225,13.2125,-24.15
1566,9337755,0.8797421000000001,0.16104000000000002,-0.09650201,99.31251,5.6175,-21.875
1567,9337853,0.9025559999999999,0.071614,-0.05843801,101.0625,0.21,-22.1375
1568,9337951,0.9118280000000001,-0.020862000000000002,-0.023058000000000002,101.0625,-4.41,-22.96
1569,9338049,0.9208561,-0.09845401,-0.004148001,100.695,-7.4725,-24.815
1570,9338147,0.918782,-0.146156,-0.000366,98.315,-6.9125,-26.67
1571,9338245,0.9151219999999999,-0.157868,0.015616,93.905,-3.85,-28.7
1572,9338343,0.8848659999999999,-0.14274,0.034526,88.13,-1.0675,-30.7475
1573,9338441,0.8632719999999999,-0.127246,0.055265999999999996,82.8275,1.715,-31.85
1574,9338538,0.8438741,-0.072712,0.059658,77.14,6.055,-30.8525
1575,9338636,0.853024,-0.045994,0.054167999999999994,71.9425,10.22,-30.415
1576,9338734,0.8699821,-0.008418,0.036966000000000006,67.06,14.245,-29.7325
1577,9338832,0.898042,0.028304000000000003,0.015006,64.1025,17.4825,-29.1375
1578,9338930,0.9302501,0.050752,-0.008540001,64.365,19.425,-28.56
1579,9339028,0.963922,0.05185,-0.040504000000000005,66.92,21.07,-27.9825
1580,9339126,1.007842,0.046848,-0.055144000000000006,69.87751,22.3125,-28.4375
1581,9339224,1.050542,0.049166,-0.070516,74.235,22.925,-29.6275
1582,9339322,1.089338,0.06661201,-0.09040201,78.05,22.1375,-31.08
1583,9339420,1.12179,0.109556,-0.088328,81.2175,19.0925,-32.13
1584,9339518,1.1361860000000001,0.149694,-0.032086,84.42,15.435,-32.8475
1585,9339616,1.1514360000000001,0.179828,0.0183,84.63,14.735,-33.74
1586,9339713,1.167052,0.206546,0.029646,81.95251,16.3975,-34.5975
1587,9339811,1.16998,0.20630199999999999,0.021594,78.995,15.925,-35.5425
1588,9339909,1.161196,0.08893801,-0.07978801,78.715,13.4925,-36.68
1589,9340007,1.1272799999999998,-0.079056,-0.156282,82.11,9.7475,-37.975
1590,9340105,1.04554,-0.247416,-0.262422,86.9925,2.45,-39.165
1591,9340203,0.92537,-0.359168,-0.534848,94.79751,-6.895,-40.845
1592,9340301,0.78446,-0.344406,-0.655262,107.0475,-13.5625,-42.5075
1593,9340399,0.671854,-0.149328,-0.5663239999999999,112.28,-15.2425,-41.9825
1594,9340497,0.58255,0.191052,-0.469822,110.0575,-7.5775,-37.3975
1595,9340595,0.611586,0.43053800000000003,-0.395768,110.705,15.225,-28.56
1596,9340693,0.809714,0.441884,-0.385276,118.7725,48.4575,-18.55
1597,9340791,0.967216,0.354898,-0.428708,124.5825,67.165,-4.69
1598,9340888,1.044442,0.229604,-0.36722,126.9625,59.3075,4.76
1599,9340986,1.077016,0.12017,-0.284016,127.89,39.9175,4.6725
1600,9341084,1.20536,-0.004392,-0.206058,133.7175,27.895,-4.8825
1601,9341182,1.41947,-0.08174001,-0.210694,135.24,32.1475,-19.7575
1602,9341280,1.572092,-0.101504,-0.191174,131.075,35.3325,-34.1775
1603,9341378,1.584658,0.01464,-0.17616800000000002,123.83,27.3,-45.15
1604,9341476,1.4598520000000001,0.17238599999999998,-0.21032800000000001,123.375,16.205,-55.755
1605,9341574,1.2658719999999999,0.328302,-0.201178,128.0825,3.885,-61.3375
1606,9341672,1.0920219999999998,0.4743361,-0.190076,135.765,-1.82,-59.5875
1607,9341770,0.9802700000000001,0.548268,-0.190076,146.58,-0.6825,-56.2625
1608,9341868,0.9171961,0.56242,-0.18995399999999998,157.1675,2.24,-52.9725
1609,9341966,0.8657120999999999,0.539484,-0.162382,167.65,2.3275,-50.155
1610,9342063,0.830332,0.455182,-0.09186601,179.2875,1.4525,-49.035
1611,9342161,0.831308,0.298412,-0.025131999999999998,192.08,4.445,-48.895
1612,9342259,0.8758381,0.21215799999999999,0.003904,203.49,12.2325,-48.8775
1613,9342357,0.9252481,0.13664,0.015982,212.6075,19.5125,-51.2925
1614,9342455,0.955626,0.07710399999999999,-0.014274,214.795,20.405,-54.04
1615,9342553,0.953308,0.06636801,-0.000244,214.27,17.0625,-55.8075
1616,9342651,0.972706,0.047580000000000004,-0.004026,206.1325,15.0675,-57.33
1617,9342749,0.99308,0.029158,-0.00976,199.5175,14.175,-59.01
1618,9342847,0.999302,0.00793,0.038064,196.0,12.565,-58.205
1619,9342945,0.9928360999999999,0.011712,0.047336,191.1,8.82,-56.2625
1620,9343043,0.97783,0.052703999999999994,0.045872,186.0075,4.5325,-54.075
1621,9343141,0.95221,0.00305,0.025986000000000002,179.9875,2.1875,-52.2375
1622,9343239,0.9234180000000001,0.01464,0.012444,174.3875,2.59,-49.4375
1623,9343336,0.9211,-0.041236,0.019886,170.065,5.075,-48.6325
1624,9343434,0.909998,-0.12248800000000001,0.010248,164.045,7.63,-46.0075
1625,9343532,0.8918200000000001,-0.202764,-0.040504000000000005,153.755,8.2075,-43.715
1626,9343630,0.859368,-0.223138,-0.011101999999999999,147.14,5.6175,-40.88
1627,9343728,0.832406,-0.224358,-0.021472,136.9025,4.795,-38.745
1628,9343826,0.800808,-0.223748,-0.011101999999999999,128.975,4.3575,-36.3125
1629,9343924,0.7759199999999999,-0.22362600000000002,0.00488,121.1,4.9,-34.055
1630,9344022,0.7639640999999999,-0.22948200000000002,0.011834,113.1725,7.525,-32.305
1631,9344120,0.7782380999999999,-0.18178,0.027327999999999998,104.2125,11.9,-31.22
1632,9344218,0.820938,-0.14688800000000002,0.022448,96.53,17.675,-29.7325
1633,9344316,0.87718,-0.11211800000000001,0.024034,93.8,22.19,-27.475
1634,9344414,0.9348860999999999,-0.091378,0.035746,91.0,23.7125,-23.9225
1635,9344512,0.9952761,-0.061366,0.0244,85.0325,25.7425,-19.2325
1636,9344609,1.071404,-0.015982,0.02806,79.3625,28.175,-14.455
1637,9344707,1.151314,0.008662000999999999,0.03721,78.26,27.44,-10.3425
1638,9344805,1.211826,0.022203999999999998,0.037942000000000004,77.665,21.9975,-7.665
1639,9344903,1.2486700000000002,0.037576,0.044164,76.7025,14.98,-6.44
1640,9345001,1.2786819999999999,0.060634,0.050996,75.4425,9.835,-6.4225
1641,9345099,1.288198,0.09259801,0.065026,75.7925,6.4575,-7.42
1642,9345197,1.275754,0.128832,0.08918200000000001,76.895,3.2375,-9.03
1643,9345295,1.2219520000000001,0.144326,0.11285,78.6625,-0.3675,-10.3425
1644,9345393,1.177178,0.15396400000000002,0.1159,81.84751,-3.43,-10.745
1645,9345491,1.1514360000000001,0.14884,0.074298,83.51001,-4.4625,-10.99
1646,9345589,1.161806,0.149816,-0.01586,85.085,-4.8825,-9.6425
1647,9345687,1.189134,0.094916,-0.12456199999999999,88.04251,-6.8075,-7.9975
1648,9345785,1.1859620000000002,-0.006587999999999999,-0.20264200000000002,91.9625,-13.93,-5.53
1649,9345883,1.164368,-0.152622,-0.219478,92.78501,-21.6475,-4.1475
1650,9345980,1.12606,-0.2928,-0.265716,86.29251,-23.5375,-7.6125
1651,9346078,1.098854,-0.32452,-0.368318,72.345,-17.57,-16.17
1652,9346176,1.088484,-0.319884,-0.3782,62.5625,-9.065,-28.2975
1653,9346274,1.0200420000000001,-0.321714,-0.36173,59.99,-8.82,-39.095
1654,9346372,0.9098761000000001,-0.24131599999999997,-0.39894,55.5275,-12.285,-47.285
1655,9346470,0.824232,-0.0671,-0.475678,53.3925,-10.045,-53.445
1656,9346568,0.7890961,0.141154,-0.541192,57.225,-5.4775,-56.84
1657,9346666,0.77836,0.28682199999999997,-0.5063,63.9975,-5.915,-57.19
1658,9346764,0.799588,0.319152,-0.46726,73.605,-6.195,-55.5975
1659,9346862,0.8352120000000001,0.314394,-0.44469,79.345,-0.665,-52.43
1660,9346960,0.8893800999999999,0.28621199999999997,-0.406016,82.4425,3.9375,-47.425
1661,9347057,0.949892,0.235582,-0.359168,83.09000999999999,5.5125,-40.1975
1662,9347155,1.016382,0.14396,-0.314272,84.455,6.9125,-33.145
1663,9347253,1.0973899999999999,0.02928,-0.287798,84.01751,9.555,-26.845
1664,9347351,1.17364,-0.072712,-0.254004,83.37001,10.7975,-21.6825
1665,9347449,1.223294,-0.117974,-0.206668,80.9375,8.5925,-16.5375
1666,9347547,1.18889,-0.129442,-0.1647,78.995,2.835,-11.9
1667,9347645,1.064084,-0.10650599999999999,-0.139324,76.93,-4.48,-8.12
1668,9347743,0.8694940999999999,-0.082472,-0.134688,77.595,-9.38,-6.7725
1669,9347841,0.716018,-0.045018,-0.120048,79.0825,-9.8,-9.0825
1670,9347939,0.63318,0.012078,-0.11895,78.7675,-2.31,-11.0425
1671,9348037,0.557174,0.05648601,-0.10760399999999999,79.31,8.05,-13.09
1672,9348134,0.5009319999999999,0.059048,-0.08357,80.22,14.945,-17.92
1673,9348232,0.537288,0.131028,-0.03294,77.9625,21.315,-19.915
1674,9348330,0.608658,0.167872,-0.027816000000000004,73.255,33.88,-20.3
1675,9348428,0.6675840000000001,0.152866,-0.031842,70.4725,42.8925,-19.8975
1676,9348526,0.708942,0.140544,-0.031476,66.9375,42.8575,-17.3425
1677,9348624,0.746274,0.09552601,-0.025498,62.79,39.13,-16.485
1678,9348722,0.784094,0.025254,-0.011956,59.78,35.035,-16.1525
1679,9348820,0.823622,-0.039162,0.012565999999999999,56.9625,31.08,-15.0675
1680,9348918,0.861808,-0.11333800000000001,0.03355,52.22,28.735,-15.75
1681,9349016,0.8992620000000001,-0.15579400000000002,0.054412,47.1975,28.105,-16.8175
1682,9349114,0.930982,-0.19397999999999999,0.081252,42.665,28.35,-17.2375
1683,9349212,0.9383020000000001,-0.21813600000000002,0.097966,38.5,28.98,-15.645
1684,9349310,0.9403761,-0.226798,0.114436,32.4625,30.6425,-13.58
1685,9349407,0.9090219999999999,-0.22167399999999998,0.105774,24.5525,30.7825,-12.11
1686,9349505,0.8575379999999999,-0.201178,0.07515201,16.52,28.07,-10.2025
1687,9349603,0.836676,-0.16897,0.030133999999999998,9.3975,26.705,-8.855
1688,9349701,0.889502,-0.138348,-0.01586,4.8125,28.35,-8.6625
