,T,ax,ay,az,gx,gy,gz
0,170611,0.548756,0.028792,-0.650748,14.77,-14.035,-14.0525
1,170763,0.5694961,0.034892,-0.7415161,99.155,-48.9125,-36.2425
2,170860,0.6109760000000001,0.038796,-0.793976,123.935,-144.97,-48.8775
3,170957,0.6131721,0.038551999999999996,-0.7893399999999999,56.6125,-98.245,-31.57
4,171054,0.613416,0.037088,-0.792024,2.975,-4.2,-3.71
5,171151,0.612928,0.036112,-0.792024,2.03,-2.2925,-3.045
6,171248,0.61488,0.035624,-0.792756,2.0475,-2.2925,-3.01
7,171345,0.614392,0.037088,-0.7895840999999999,2.03,-2.31,-3.0625
8,171442,0.613416,0.036112,-0.791536,1.96,-2.31,-3.0625
9,171539,0.6131721,0.035624,-0.792024,1.995,-2.2225,-3.0625
10,171637,0.6131721,0.0366,-0.792512,2.03,-2.3275,-3.0975
11,171734,0.6124400999999999,0.037576,-0.7944641,1.9425,-2.38,-3.15
12,171831,0.611952,0.0366,-0.793488,1.9775,-2.4325,-3.15
13,171928,0.610488,0.037332,-0.7954399999999999,2.03,-2.485,-3.0975
14,172025,0.612684,0.036844,-0.791048,1.995,-2.415,-3.1325
15,172122,0.6141479999999999,0.0366,-0.792512,1.96,-2.415,-3.15
16,172219,0.611952,0.037576,-0.79666,1.9425,-2.38,-3.22
17,172316,0.614392,0.037576,-0.793488,1.9075,-2.415,-3.22
18,172413,0.6141479999999999,0.038551999999999996,-0.793244,1.995,-2.485,-3.2025
19,172510,0.612196,0.034404000000000004,-0.792024,2.065,-2.52,-3.22
20,172607,0.6117081,0.038308,-0.793244,2.0825,-2.5725,-3.15
21,172704,0.6107319999999999,0.038796,-0.796172,2.0825,-2.52,-3.255
22,172801,0.611464,0.037332,-0.794708,2.135,-2.6075,-3.2725
23,172898,0.6131721,0.0366,-0.7922680000000001,2.0825,-2.73,-3.2025
24,172995,0.612928,0.039284,-0.7937320999999999,2.135,-2.6775,-3.185
25,173092,0.61122,0.036356,-0.79422,2.24,-2.6775,-3.2025
26,173189,0.6109760000000001,0.03294,-0.79056,2.31,-2.765,-3.2725
27,173287,0.612684,0.036844,-0.794708,2.2925,-2.8,-3.2025
28,173384,0.6117081,0.041236,-0.794708,2.31,-2.905,-3.2375
29,173481,0.61122,0.039528,-0.7944641,2.345,-2.8525,-3.3075
30,173578,0.610488,0.040016,-0.7922680000000001,2.2575,-2.835,-3.255
31,173675,0.609024,0.038551999999999996,-0.793976,2.2575,-2.835,-3.36
32,173772,0.611464,0.03904,-0.793488,2.2575,-2.87,-3.3425
33,173869,0.612928,0.039772,-0.7951961,2.2575,-2.9575,-3.325
34,173966,0.612684,0.033428,-0.7951961,2.205,-2.835,-3.29
35,174063,0.611952,0.038308,-0.797392,2.1175,-2.8525,-3.4125
36,174160,0.6124400999999999,0.037576,-0.794708,2.1175,-2.975,-3.465
37,174257,0.611952,0.03782,-0.793976,2.1,-3.045,-3.5875
38,174354,0.605364,0.03782,-0.793244,2.135,-3.1325,-3.64
39,174451,0.604144,0.040260000000000004,-0.7954399999999999,2.1875,-3.2375,-3.535
40,174548,0.606584,0.037088,-0.792756,2.1525,-2.87,-3.3425
41,174645,0.606584,0.038064,-0.793488,2.17,-2.765,-3.2375
42,174743,0.607804,0.037332,-0.7922680000000001,2.1175,-2.66,-3.2375
43,174840,0.6080479999999999,0.037576,-0.79422,2.03,-2.5375,-3.2025
44,174937,0.609268,0.036844,-0.795928,2.0825,-2.555,-3.1675
45,175034,0.6095119999999999,0.03782,-0.7937320999999999,2.1525,-2.485,-3.1325
46,175131,0.608536,0.036356,-0.7937320999999999,2.0475,-2.4675,-3.2025
47,175228,0.6080479999999999,0.036356,-0.794952,2.135,-2.485,-3.2375
48,175325,0.6095119999999999,0.03782,-0.792756,2.135,-2.38,-3.15
49,175422,0.609024,0.038308,-0.793976,2.03,-2.2925,-3.1325
50,175519,0.6080479999999999,0.037576,-0.7929999999999999,2.0125,-2.205,-3.0625
51,175616,0.6082920999999999,0.03538,-0.7954399999999999,2.0125,-2.1875,-3.0275
52,175713,0.6082920999999999,0.036112,-0.796416,2.03,-2.205,-2.9575
53,175810,0.607316,0.037332,-0.7954399999999999,2.03,-2.2225,-3.01
54,175907,0.60878,0.037088,-0.792756,1.96,-2.0825,-3.045
55,176004,0.610488,0.039284,-0.792512,1.89,-1.96,-3.0275
56,176102,0.606096,0.037088,-0.79422,1.925,-1.995,-3.115
57,176199,0.606096,0.03538,-0.7937320999999999,1.89,-1.925,-3.1325
58,176296,0.6095119999999999,0.036112,-0.794952,1.8375,-1.96,-3.01
59,176393,0.60878,0.038796,-0.7937320999999999,1.7675,-1.82,-3.045
60,176490,0.6080479999999999,0.035136,-0.796172,1.8025,-1.7675,-2.9575
61,176587,0.609268,0.040016,-0.7929999999999999,1.75,-1.6275,-2.94
62,176684,0.61122,0.038064,-0.7944641,1.785,-1.5925,-2.9575
63,176781,0.61,0.035868000000000004,-0.792756,1.6975,-1.575,-2.975
64,176878,0.611952,0.039284,-0.7922680000000001,1.7325,-1.715,-2.975
65,176975,0.6107319999999999,0.036844,-0.793488,1.6975,-1.82,-2.8875
66,177072,0.6097560000000001,0.036112,-0.7937320999999999,1.715,-1.8025,-2.94
67,177169,0.6075600999999999,0.035868000000000004,-0.793244,1.785,-1.715,-2.9575
68,177266,0.6082920999999999,0.036112,-0.793976,1.7325,-1.6275,-2.9925
69,177363,0.6117081,0.038308,-0.793488,1.68,-1.5575,-2.8875
70,177461,0.610488,0.040504000000000005,-0.7937320999999999,1.6625,-1.6275,-2.975
71,177558,0.6097560000000001,0.038064,-0.79422,1.61,-1.645,-2.9575
72,177655,0.610244,0.035136,-0.791292,1.6625,-1.6275,-2.8525
73,177752,0.612196,0.039528,-0.794708,1.6975,-1.575,-2.8525
74,177849,0.612196,0.039284,-0.794952,1.75,-1.54,-2.835
75,177946,0.611952,0.034648000000000005,-0.790804,1.715,-1.6275,-2.905
76,178043,0.612928,0.03782,-0.792512,1.8025,-1.75,-2.905
77,178140,0.61122,0.037332,-0.794952,1.8025,-1.5925,-2.905
78,178237,0.611464,0.036844,-0.792512,1.82,-1.6975,-2.94
79,178334,0.6131721,0.037576,-0.790072,1.785,-1.89,-2.94
80,178431,0.61122,0.037576,-0.7929999999999999,1.7675,-1.7675,-3.0275
81,178528,0.611952,0.034892,-0.792024,1.6975,-1.7325,-3.01
82,178625,0.61366,0.038308,-0.792024,1.6275,-1.6975,-3.15
83,178722,0.61366,0.036356,-0.791536,1.5925,-1.61,-3.045
84,178819,0.6141479999999999,0.038064,-0.791048,1.715,-1.61,-3.0275
85,178917,0.615124,0.036356,-0.791048,1.715,-1.715,-3.01
86,179014,0.615368,0.037088,-0.7903161,1.855,-1.7325,-3.0975
87,179111,0.613904,0.038308,-0.79056,1.8375,-1.785,-3.045
88,179208,0.6131721,0.037332,-0.792024,1.8375,-1.82,-2.9925
89,179305,0.612684,0.037088,-0.792756,1.82,-1.9075,-2.975
90,179402,0.612684,0.039528,-0.792756,1.8725,-1.9775,-2.94
91,179499,0.615368,0.035624,-0.791536,1.8725,-1.9075,-2.905
92,179596,0.615124,0.0366,-0.789828,1.8725,-2.065,-3.045
93,179693,0.614392,0.037088,-0.7895840999999999,1.96,-2.17,-3.115
94,179790,0.614392,0.037332,-0.788608,2.0125,-2.2575,-3.0625
95,179887,0.6124400999999999,0.038551999999999996,-0.7903161,1.9775,-2.2225,-3.115
96,179984,0.611952,0.035624,-0.792024,1.9425,-2.205,-3.0625
97,180081,0.6107319999999999,0.037332,-0.7929999999999999,1.9425,-2.2575,-3.045
98,180178,0.6117081,0.03904,-0.793488,1.8725,-2.205,-3.08
99,180275,0.61366,0.038796,-0.792512,1.9425,-2.1525,-3.08
100,180372,0.6107319999999999,0.03294,-0.790072,1.9425,-2.065,-3.0975
101,180469,0.610244,0.045627999999999995,-0.7956840999999999,1.6275,-1.82,-3.325
102,180567,0.615124,0.03294,-0.791048,1.19,-1.54,-3.395
103,180664,0.615368,0.03538,-0.798124,0.735,-1.505,-3.605
104,180761,0.6168319999999999,0.038796,-0.7922680000000001,0.315,-1.225,-3.955
105,180858,0.61854,0.030744,-0.797392,-0.4375,-1.225,-4.1475
106,180955,0.62342,0.044652,-0.79178,-1.6275,-2.5375,-3.7275
107,181052,0.62464,0.041236,-0.785192,-2.485,-2.695,-3.8675
108,181149,0.625372,0.046848,-0.7944641,-2.1,-3.4125,-4.1475
109,181246,0.632448,0.042944,-0.794708,-2.4325,-4.305,-4.2525
110,181343,0.629764,0.04148,-0.7956840999999999,-2.8875,-5.6,-4.5675
111,181440,0.6326921,0.036356,-0.800076,-2.7125,-6.6325,-4.8825
112,181537,0.638304,0.036844,-0.7991,-3.045,-7.6475,-5.3375
113,181634,0.6378159999999999,0.033184,-0.808372,-3.64,-9.065,-5.915
114,181731,0.632448,0.032695999999999996,-0.801784,-4.2875,-10.85,-6.5275
115,181828,0.601216,0.061,-0.7944641,-4.865,-12.6875,-6.475
116,181925,0.5873079999999999,0.059536,-0.7978801,-3.8675,-13.1075,-5.8625
117,182022,0.592432,0.061732,-0.797636,-2.7125,-12.775,-5.0225
118,182119,0.6021920000000001,0.061488,-0.8020281,-1.6975,-12.4075,-4.445
119,182216,0.5941401,0.060512,-0.8042239999999999,-0.875,-12.32,-4.1825
120,182313,0.6170760000000001,0.050996,-0.8113001,-0.5425,-12.11,-3.885
121,182410,0.607804,0.053191999999999996,-0.805688,-0.8400001,-12.9675,-3.9375
122,182507,0.591212,0.062952,-0.800076,-0.805,-13.755,-3.955
123,182605,0.589992,0.058072000000000006,-0.801296,-0.21,-13.51,-3.9375
124,182702,0.586332,0.053191999999999996,-0.8044680999999999,0.14,-13.16,-4.06
125,182799,0.586332,0.049044,-0.795928,0.175,-12.8275,-4.1825
126,182896,0.5565640000000001,0.046604,-0.782752,0.1575,-12.215,-4.55
127,182993,0.539484,0.0427,-0.780312,0.7,-10.465,-4.6025
128,183090,0.5499761,0.05002,-0.7881199999999999,1.155,-7.8225,-3.99
129,183187,0.5565640000000001,0.072712,-0.792756,1.68,-5.8625,-3.57
130,183284,0.570472,0.06880801,-0.791048,2.4325,-4.13,-3.29
131,183381,0.5675439999999999,0.052216,-0.786656,3.185,-2.975,-3.15
132,183478,0.5441199999999999,0.057096,-0.7722600000000001,3.64,-1.995,-2.765
133,183575,0.48165600000000003,0.075396,-0.721508,4.69,0.0,-2.1875
134,183672,0.325008,0.112972,-0.654652,8.1725,4.6375,-0.175
135,183769,0.5575399999999999,0.10052799999999999,-0.8769360999999999,15.4875,15.4525,4.13
136,183866,0.626836,0.010004,-0.7993439999999999,21.9625,18.3925,7.3325
137,183963,0.6158561,0.045627999999999995,-0.8671761,22.54,16.1175,8.1025
138,184060,0.7095520000000001,-0.019275999999999998,-0.906948,21.4725,15.8025,8.155
139,184157,0.741028,-0.053436000000000004,-0.8149601,13.86,13.1075,5.1275
140,184254,0.6946681,0.027327999999999998,-0.821304,4.0775,7.1225,-0.07
141,184351,0.661972,0.023912,-0.8015399999999999,0.63,2.1525,-3.0975
142,184449,0.6368401,0.008540001,-0.787388,-1.1025,-1.1725,-4.725
143,184546,0.6229319999999999,0.031476,-0.797392,-1.9075,-3.15,-6.405
144,184643,0.616588,0.034892,-0.8044680999999999,-2.5025,-3.9025,-7.63
145,184740,0.6156119999999999,0.032695999999999996,-0.79666,-2.975,-4.515,-8.33
146,184837,0.6036560999999999,0.040504000000000005,-0.7937320999999999,-3.7275,-5.0225,-8.8725
147,184934,0.6007279999999999,0.055388,-0.793976,-4.0775,-5.1975,-8.9775
148,185031,0.612684,0.03904,-0.79666,-4.2525,-5.25,-9.0475
149,185128,0.59902,0.048556,-0.795928,-4.69,-6.0375,-9.2225
150,185225,0.599264,0.049044,-0.7944641,-4.515,-6.37,-9.415
151,185322,0.5948720000000001,0.045384,-0.798856,-4.2,-6.5625,-9.59
152,185419,0.61732,0.038064,-0.791536,-4.0075,-6.9475,-10.2725
153,185516,0.5987760999999999,0.060267999999999995,-0.791292,-4.2,-7.875,-10.78
154,185613,0.6021920000000001,0.049288,-0.7861680999999999,-3.465,-8.5925,-10.6925
155,185710,0.5892601,0.055388,-0.791048,-2.6775,-9.345,-9.7825
156,185807,0.5777920999999999,0.069784,-0.789828,-1.7325,-9.1525,-9.415
157,185904,0.587796,0.052948,-0.79666,-0.4375,-8.4175,-9.17
158,186002,0.593164,0.063196,-0.8042239999999999,0.1225,-8.26,-9.0825
159,186099,0.59658,0.057828,-0.8047121,0.28,-8.3475,-9.1525
160,186196,0.59292,0.061975999999999996,-0.813008,0.315,-8.1025,-9.24
161,186293,0.5799880000000001,0.079056,-0.821304,0.1225,-7.7175,-8.925
162,186390,0.59292,0.07612801,-0.8169121,0.105,-6.8075,-8.4
163,186487,0.57096,0.080276,-0.811056,0.4025,-6.5975,-7.5075
164,186584,0.586088,0.062220000000000004,-0.809348,0.945,-5.8275,-6.3525
165,186681,0.576328,0.075396,-0.805932,0.7525,-5.2325,-5.39
166,186778,0.569984,0.059536,-0.80642,1.085,-4.6375,-5.1275
167,186875,0.562176,0.047092,-0.8049561,1.26,-3.5175,-5.1275
168,186972,0.5663239999999999,0.046848,-0.8132520999999999,1.2775,-1.8725,-5.2675
169,187069,0.557296,0.042212,-0.8115439999999999,1.2425,-0.63,-5.075
170,187166,0.5551,0.040016,-0.803736,0.91,1.155,-4.585
171,187264,0.562908,0.066124,-0.799588,0.2275,2.9925,-4.165
172,187361,0.548268,0.07344400000000001,-0.794952,0.9975,4.76,-3.78
173,187458,0.565104,0.063196,-0.787388,2.2925,7.035,-2.9225
174,187555,0.55266,0.06832001,-0.796904,3.5525,8.7675,-2.1525
175,187652,0.618052,0.071492,-0.811056,4.585,10.885,-1.6975
176,187749,0.6222,0.05563200000000001,-0.806176,4.375,10.675,-1.8725
177,187846,0.612196,0.052703999999999994,-0.8081281,3.3775,9.625,-2.38
178,187943,0.60512,0.063928,-0.7998321,2.5375,8.5925,-2.1875
179,188040,0.60878,0.04392,-0.8010520000000001,2.135,8.4,-2.1875
180,188137,0.5980439999999999,0.061,-0.796904,1.1375,8.0325,-2.7475
181,188234,0.5875520000000001,0.056608000000000006,-0.789828,0.8400001,8.26,-3.15
182,188331,0.587064,0.07588400000000001,-0.792512,0.5775,8.995,-3.1325
183,188428,0.592432,0.07246799999999999,-0.790072,1.12,9.8875,-2.6775
184,188526,0.590968,0.06954,-0.793244,1.365,10.92,-2.24
185,188623,0.6007279999999999,0.06270801,-0.798856,1.1375,12.215,-2.03
186,188720,0.604632,0.061,-0.805932,0.315,13.23,-2.0825
187,188817,0.60878,0.061488,-0.798124,-0.5425,13.8425,-2.5375
188,188914,0.611952,0.064172,-0.797636,-1.19,14.5425,-2.8875
189,189011,0.622688,0.052703999999999994,-0.7890961,-1.435,15.33,-3.535
190,189108,0.6292760000000001,0.05612,-0.7861680999999999,-2.31,16.2575,-4.445
191,189205,0.623908,0.043676,-0.7832399999999999,-3.08,16.7475,-5.2675
192,189302,0.614636,0.041968,-0.776896,-4.375,18.2875,-6.3525
193,189399,0.6109760000000001,0.048556,-0.784216,-4.3925,20.6675,-7.035
194,189496,0.5885281,0.08808401,-0.799588,-3.8675,22.925,-7.1225
195,189593,0.557052,0.07978801,-0.792512,-3.57,25.795,-5.6525
196,189690,0.6168319999999999,0.05563200000000001,-0.7834840000000001,-5.46,29.925,-5.145
197,189788,0.621712,0.042456,-0.774456,-7.5425,33.32,-4.48
198,189885,0.622688,0.06490399999999999,-0.7732359999999999,-12.25,38.3425,-5.845
199,189982,0.6219561,0.06466001,-0.778116,-15.6975,43.505,-6.4925
200,190079,0.628788,0.062220000000000004,-0.772748,-19.3375,49.0875,-6.7375
201,190176,0.628788,0.09223200000000001,-0.7822640000000001,-22.4,55.3175,-6.615
202,190273,0.639524,0.09320801,-0.777628,-22.68,62.4925,-5.46
203,190370,0.658556,0.09150001,-0.769576,-22.82,70.105,-4.34
204,190467,0.66246,0.08784,-0.756888,-24.64,77.9625,-3.0275
205,190564,0.6563601,0.12395199999999999,-0.765672,-25.655,86.87,-0.14
206,190661,0.681492,0.09735601,-0.761524,-24.3775,97.5625,3.99
207,190758,0.652212,0.111996,-0.783728,-22.225,110.7575,8.3825
208,190855,0.71614,0.100772,-0.7893399999999999,-17.36,126.4725,13.195
209,190953,0.7390760000000001,0.128588,-0.7834840000000001,-9.8525,140.805,21.4375
210,191050,0.664412,0.118096,-0.733952,2.66,157.43,32.9175
211,191147,0.691008,0.154452,-0.74908,14.1925,181.1425,48.5975
212,191244,0.8020281,0.202764,-0.7056479999999999,32.76,210.42,70.56
213,191341,0.783728,0.330376,-0.8252079999999999,38.605,244.1425,84.875
214,191438,0.86864,0.33184,-0.8369200000000001,54.2325,271.7225,106.4
215,191535,1.031388,0.312564,-0.79056,63.3325,299.3375,128.1
216,191632,1.342732,0.1708,-0.877912,68.0925,338.765,129.045
217,191729,1.673352,0.20618000000000003,-0.8991401,49.7875,378.84,126.385
218,191826,1.392264,0.347456,-1.08946,18.095,417.4625,129.9375
219,191923,1.529148,0.291092,-1.318576,-13.1075,436.6075,137.725
220,192020,1.576972,0.40748,-1.622844,-43.6975,440.1425,136.71
221,192117,1.8056,0.229604,-1.67872,-67.1475,420.2275,140.49
222,192214,2.5217400000000003,0.5392399999999999,-1.9361400000000002,-88.9,377.335,155.435
223,192311,2.394616,0.515572,-2.233576,-78.33,385.6825,111.265
224,192409,1.0199200000000002,1.1472879999999999,-2.7999,-82.81,348.075,141.1725
225,192506,0.6292760000000001,2.887496,-1.6570040000000001,-31.395,280.315,161.7175
226,192603,3.211284,2.3363,-4.88244,51.3975,220.255,94.395
227,192700,1.9312599999999998,1.8763599999999998,-3.8839919999999997,107.52,-9.8,9.9925
228,192797,0.258396,1.1951120000000002,-2.367044,128.6425,-137.3225,-42.49
229,192894,-0.32256799999999997,0.6141479999999999,-1.5725799999999999,136.5175,-173.39,-60.7075
230,192991,-0.28548,0.236436,-1.3266280000000001,118.7725,-162.33,-65.6775
231,193088,0.096868,0.001464,-1.4435040000000001,81.095,-152.5125,-70.2275
232,193185,0.555832,-0.040504000000000005,-1.678964,30.52,-167.02,-74.3575
233,193282,0.8491200000000001,0.067344,-1.794864,-14.4025,-203.8925,-74.865
234,193379,0.8969440000000001,0.195444,-1.7109279999999998,-38.745,-251.51,-69.9825
235,193476,0.815936,0.25790799999999997,-1.487668,-43.19,-294.8575,-62.195
236,193573,0.69418,0.28914,-1.2322,-37.94,-324.52,-55.86
237,193671,0.596092,0.24058400000000002,-0.9994241,-30.45,-339.3775,-53.655
238,193768,0.562176,0.13785999999999998,-0.836676,-27.86,-342.9125,-56.7175
239,193865,0.536068,0.058803999999999995,-0.758352,-35.035,-340.48,-65.45
240,193962,0.586088,0.0183,-0.743224,-48.1425,-334.1625,-76.545
241,194059,0.7027201,0.02928,-0.8271601000000001,-61.18,-326.9,-85.8025
242,194156,0.8466800999999999,0.038064,-0.9476959999999999,-69.23,-321.9125,-90.30001
243,194253,1.003816,0.048312,-1.066036,-73.6225,-321.2125,-90.63251
244,194350,1.121912,0.07856801,-1.14314,-77.8925,-325.1325,-89.79251
245,194447,1.147532,0.131028,-1.136064,-82.005,-330.9425,-90.16001
246,194544,1.125816,0.190564,-1.0948280000000001,-85.155,-333.165,-93.7475
247,194641,1.178032,0.29987600000000003,-1.10532,-86.04751,-327.5125,-99.8725
248,194738,1.2907600000000001,0.416508,-1.158512,-81.865,-315.6475,-109.13
249,194835,1.49206,0.4941,-1.276852,-73.08,-300.51,-122.43
250,194933,1.899784,0.444568,-1.5201200000000001,-65.0475,-286.2475,-142.765
251,195030,2.309948,0.29743600000000003,-1.743868,-66.53501,-283.92,-174.3525
252,195127,2.773304,0.223992,-1.9398,-72.3975,-294.1225,-214.3225
253,195224,3.424296,0.332816,-2.0876639999999997,-62.5975,-312.1825,-249.8825
254,195321,3.6656120000000003,0.398208,-1.86294,-20.4225,-343.175,-263.2
255,195418,3.6070519999999995,0.0976,-1.29808,48.055,-365.5575,-258.51
256,195515,3.620228,-0.331108,-0.5489999999999999,105.455,-368.375,-249.97
257,195612,3.8534919999999997,0.07710399999999999,0.5987760999999999,132.9125,-357.875,-235.48
258,195709,4.475692,-0.8669319999999999,2.133536,167.7375,-329.3675,-171.0975
259,195806,4.092124,-3.561668,4.539132,135.0825,-289.5725,-105.6475
260,195903,3.604368,-2.98046,4.709688,-149.2925,-227.71,-114.3275
261,196000,3.041216,-0.504592,3.450648,-308.6125,-117.5125,-69.3
262,196097,2.8735880000000003,0.426512,1.748016,-163.275,2.6775,45.5175
263,196195,2.951912,-0.505568,0.8488761,47.46,93.975,153.1425
264,196292,1.563796,-0.31402800000000003,2.31556,125.965,199.675,234.7275
265,196389,1.486204,0.965752,-1.227808,102.7075,289.2225,253.505
266,196486,1.909544,1.239032,-2.4827,105.8225,304.6575,207.725
267,196583,0.6375721,1.256356,-0.14005599999999999,93.08249,263.6025,103.355
268,196680,2.668628,-0.083936,-2.071316,92.5225,323.9075,47.3025
269,196777,2.8957919999999997,-0.5321640000000001,-2.233576,64.82,296.1175,6.02
270,196874,1.5767280000000001,-1.243424,-1.0145520000000001,81.655,218.75,14.665
271,196971,1.22122,-0.90646,-1.149728,28.2275,196.3675,30.17
272,197068,1.90808,1.209508,-2.341424,1.12,178.7975,53.8825
273,197165,1.434476,1.248548,-0.892064,59.78,138.705,67.9875
274,197262,1.360056,0.21813600000000002,-1.247816,77.49,101.255,31.325
275,197359,1.143872,-0.891576,-1.0065,100.6425,79.5025,25.76
276,197456,0.8518040000000001,0.19642,-1.006744,41.37,52.36,17.7975
277,197554,0.7661600000000001,0.0034159999999999998,-0.936472,37.45,39.9525,7.175
278,197651,0.671488,0.07173600000000001,-0.8927959999999999,35.56,32.375,5.425
279,197748,0.674416,0.023180000000000003,-0.8764481,28.6475,26.5125,3.78
280,197845,0.640256,0.072956,-0.8522921,25.7775,22.2775,3.08
281,197942,0.5856,-0.027816000000000004,-0.9320801,21.0525,19.74,1.9775
282,198039,0.684664,-0.0017079999999999999,-0.8610761,16.59,16.8,0.525
283,198136,0.640256,0.008296000999999999,-0.8291120999999999,10.3775,13.2475,-1.3125
284,198233,0.6182960999999999,0.037332,-0.819108,6.09,11.9175,-3.7625
285,198330,0.6326921,0.022692,-0.794708,3.7975,11.8475,-5.1975
286,198427,0.62464,0.055144000000000006,-0.7983680000000001,2.0125,11.7425,-6.3
287,198524,0.620736,0.050996,-0.7956840999999999,1.8025,11.6375,-6.4225
288,198621,0.6283,0.054167999999999994,-0.809836,0.98,11.865,-6.58
289,198718,0.62464,0.057828,-0.818132,-0.175,12.075,-7.5775
290,198816,0.6178081,0.063196,-0.8076399999999999,-1.645,12.495,-8.4875
291,198913,0.61488,0.06929600000000001,-0.8081281,-2.975,13.475,-8.8375
292,199010,0.625616,0.071248,-0.785924,-3.64,14.2975,-9.345
293,199107,0.627568,0.066856,-0.7890961,-4.4975,15.4525,-10.4825
294,199204,0.607804,0.05587601,-0.788852,-5.145,16.73,-11.3575
295,199301,0.616344,0.07002799999999999,-0.803248,-7.21,19.075,-12.5125
296,199398,0.624152,0.060512,-0.792024,-8.015,20.6675,-13.055
297,199495,0.6280560000000001,0.070516,-0.7822640000000001,-9.24,21.665,-13.5975
298,199592,0.585356,0.07832401,-0.7883640000000001,-10.0625,22.2775,-13.0025
299,199689,0.646112,0.07710399999999999,-0.777872,-11.6725,24.8325,-11.095
300,199786,0.649528,0.07344400000000001,-0.7659161,-13.72,24.3425,-11.06
301,199883,0.6612401,0.117852,-0.7503,-17.255,23.66,-10.8325
302,199980,0.6563601,0.12444000000000001,-0.730292,-17.325,21.9275,-8.9425
303,200077,0.6451359999999999,0.14518,-0.7200439999999999,-16.6775,19.9325,-6.755
304,200174,0.652212,0.12444000000000001,-0.7200439999999999,-14.665,18.585,-4.445
305,200272,0.653188,0.121268,-0.709796,-13.125,17.2725,-2.3275
306,200369,0.669292,0.121024,-0.7019880000000001,-11.1475,16.03,-1.9425
307,200466,0.664412,0.133956,-0.702232,-8.0675,14.105,-1.855
308,200563,0.6675840000000001,0.141764,-0.6944241,-4.1475,11.725,-1.575
309,200660,0.626104,0.165676,-0.7034521,0.0,8.82,0.4375
310,200757,0.618784,0.17202,-0.726388,4.7425,6.9125,5.845
311,200854,0.6480640000000001,0.12688,-0.726388,7.21,6.58,11.655
312,200951,0.659044,0.07588400000000001,-0.7522521,4.6375,7.07,14.9275
313,201048,0.646112,0.063684,-0.7666480999999999,-0.7875,8.6975,14.9275
314,201145,0.6292760000000001,0.058072000000000006,-0.779092,-7.28,13.125,11.7425
315,201242,0.627812,0.064172,-0.791292,-12.635,20.7025,7.6475
316,201339,0.599996,0.06539201,-0.785192,-18.095,29.61,3.0275
317,201436,0.590968,0.052948,-0.783728,-22.2075,40.8275,-1.645
318,201533,0.6182960999999999,0.042456,-0.7747001,-24.43,52.955,-5.95
319,201630,0.6414761,0.032695999999999996,-0.759572,-26.7925,64.47,-9.485
320,201728,0.636596,0.071248,-0.7822640000000001,-27.8075,78.12,-14.91
321,201825,0.607804,0.11102000000000001,-0.814472,-28.4725,94.22,-18.3925
322,201922,0.60024,0.178608,-0.8439959999999999,-29.1375,114.555,-13.72
323,202019,0.56242,0.142252,-0.862784,-26.7225,141.365,-5.005
324,202116,0.61,0.15762400000000001,-0.86498,-22.1725,172.935,6.16
325,202213,0.5502199999999999,0.233508,-0.9650200999999999,-11.9875,206.3425,23.0125
326,202310,0.536556,0.208864,-0.8310639999999999,8.8375,236.8625,47.7575
327,202407,0.762988,0.36478,-0.8296,17.745,267.8025,69.23
328,202504,0.544608,0.48678,-1.044564,25.4975,300.65,80.3775
329,202601,1.179252,0.336964,-0.9418401,41.7025,336.9275,103.95
330,202698,1.49816,0.17616800000000002,-1.085068,73.43,391.9825,99.12001
331,202795,1.760704,0.20008,-1.204872,75.39,461.335,82.2325
332,202892,1.638216,0.30378,-1.38226,39.8825,518.7525,80.115
333,202989,1.919548,0.24717199999999998,-1.568432,14.0,540.26,92.82001
334,203086,1.9964080000000002,0.246928,-1.774368,-32.7425,530.1975,86.59
335,203184,2.2953080000000003,0.14884,-1.8463479999999999,-83.4925,474.3375,92.6625
336,203281,3.150772,0.47702,-2.590548,-123.9,441.525,92.78501
337,203378,1.050908,0.440176,-2.9138479999999998,-114.5025,424.235,74.165
338,203475,0.7766521,-0.41553199999999996,-1.0826280000000001,-128.065,355.81,98.9275
339,203572,3.572404,0.6156119999999999,-4.891224,-214.34,282.45,130.0775
340,203669,2.4156,1.6348,-4.053328,-242.6725,37.31,128.3975
341,203766,0.8713241,2.0876639999999997,-2.8548,-197.015,-119.5425,126.6475
342,203863,0.021716,1.8831919999999998,-1.8361,-89.46,-184.87,121.1525
343,203960,-0.292068,1.37982,-1.248548,6.3,-187.075,111.9825
344,204057,-0.233752,0.995764,-1.029436,52.57,-172.34,92.365
345,204154,0.107116,0.713212,-1.083604,55.0375,-164.2025,59.605
346,204251,0.429684,0.5453399999999999,-1.1953559999999999,28.805,-178.08,19.6875
347,204348,0.62464,0.535824,-1.251476,-9.1,-209.6675,-20.3525
348,204445,0.6985720999999999,0.615124,-1.2195120000000002,-38.4475,-247.24,-54.2675
349,204542,0.673196,0.669048,-1.1087360000000002,-46.48,-281.0325,-78.015
350,204640,0.6954,0.6326921,-1.0023520000000001,-35.14,-304.15,-92.71500999999999
351,204737,0.74908,0.5038600000000001,-0.9152440000000001,-17.43,-319.865,-102.4275
352,204834,0.743224,0.34526,-0.8103239999999999,-5.3025,-332.885,-111.9475
353,204931,0.7366361,0.20178800000000002,-0.7232161,-4.445,-340.9875,-122.71
354,205028,0.720288,0.099552,-0.675148,-13.055,-343.9625,-133.735
355,205125,0.759328,0.013663999999999999,-0.7227279999999999,-25.9525,-341.32,-142.8875
356,205222,0.9179280000000001,-0.030256,-0.8540000000000001,-39.305,-335.685,-148.5575
357,205319,1.101416,-0.044896,-1.01504,-49.5425,-332.99,-149.4325
358,205416,1.2761200000000001,-0.02074,-1.160464,-55.2475,-334.6525,-145.53
359,205513,1.432768,-0.016347999999999998,-1.273924,-56.175,-339.7275,-139.0375
360,205610,1.616744,0.023180000000000003,-1.376892,-57.82,-345.905,-135.2575
361,205707,1.81902,0.1464,-1.4696120000000001,-61.88,-353.5175,-136.57
362,205804,2.083028,0.324764,-1.603324,-64.155,-360.3075,-143.9375
363,205901,2.394616,0.53314,-1.7565560000000002,-61.1625,-367.43,-157.6925
364,205998,2.723284,0.697108,-1.854888,-49.665,-376.74,-178.885
365,206095,2.9941240000000002,0.42578,-1.8092599999999999,-27.8075,-386.3475,-210.2625
366,206192,3.488956,0.202032,-1.8051119999999998,-11.9525,-393.33,-248.43
367,206290,3.887896,0.17519200000000001,-1.6653,3.325,-403.0075,-273.28
368,206387,4.070164,0.216916,-1.182424,33.67,-410.7425,-277.8125
369,206484,4.325876,0.479216,-0.23838800000000002,75.4075,-407.2775,-261.52
370,206581,4.757756,-0.44164,1.4088559999999999,131.7575,-389.62,-217.3675
371,206678,4.880732,-2.63764,4.170936,126.4725,-361.235,-189.35
372,206775,3.709776,-4.10042,5.8679559999999995,-47.0925,-314.93,-208.985
373,206872,3.29156,-2.3929080000000003,4.694804,-251.055,-172.9175,-161.6475
374,206969,3.333772,-0.27938,2.3528919999999998,-242.4625,-16.66,-18.7425
375,207066,3.4377160000000004,-0.07173600000000001,0.5443640000000001,-48.265,80.5175,155.085
376,207163,2.9309279999999998,-0.47946000000000005,-0.322324,77.0,102.48,254.8525
377,207260,0.921588,0.9474520000000001,1.46522,104.1775,158.6725,299.845
378,207357,0.42212,1.3207719999999998,-1.6084479999999999,112.1925,224.735,265.3175
379,207454,0.751276,1.94346,-1.561356,70.735,254.5025,150.255
380,207551,0.31451599999999996,1.1087360000000002,0.128832,68.53,261.485,42.175
381,207648,2.57908,-0.317444,-2.125728,82.6,327.8625,5.1625
382,207746,2.917752,-0.7598161,-2.163548,58.3625,296.6775,-10.43
383,207843,1.6235760000000001,-1.0706719999999998,-1.1831559999999999,71.5225,224.77,14.5075
384,207940,1.311256,-0.493856,-1.2251239999999999,27.37,199.5875,35.6475
385,208037,2.0703400000000003,1.230004,-2.422676,13.65,182.035,52.675
386,208134,1.1956,0.93696,-0.9701440999999998,82.4075,135.2925,61.4425
387,208231,1.203164,-0.24131599999999997,-1.065792,88.23501,105.49,33.2675
388,208328,1.255624,-0.39894,-1.089948,88.06,84.175,33.985
389,208425,0.879864,0.126148,-1.0140639999999999,56.0,55.8775,30.065
390,208522,0.788852,-0.184952,-0.989176,50.0325,42.5775,18.5325
391,208619,0.781044,0.052703999999999994,-0.9057280999999999,35.2975,33.95,12.32
392,208716,0.6771,0.000244,-0.8903561,27.5625,22.6975,7.2975
393,208813,0.6480640000000001,0.042456,-0.828868,31.71,14.98,4.585
394,208910,0.6283,0.061,-0.8759601,20.44,13.755,4.375
395,209007,0.636352,0.03172,-0.8405800999999999,19.8275,11.4625,4.1475
396,209105,0.643184,0.033916,-0.826672,13.9825,8.82,2.4675
397,209202,0.624152,0.039528,-0.8195960999999999,11.375,5.9675,1.05
398,209299,0.609024,0.053436000000000004,-0.812276,9.0475,4.5325,-0.21
399,209396,0.607804,0.040260000000000004,-0.80886,8.6625,4.06,-0.105
400,209493,0.607804,0.046604,-0.8052,8.295,3.9725,-0.0525
401,209590,0.598288,0.045872,-0.8100801,8.5225,3.9375,0.1225
402,209687,0.60512,0.040504000000000005,-0.807884,8.155,4.5675,0.21
403,209784,0.604388,0.031232,-0.812032,6.6325,4.865,-0.245
404,209881,0.6039,0.036844,-0.8100801,3.885,5.145,-1.61
405,209978,0.6007279999999999,0.03904,-0.8042239999999999,2.24,5.3725,-2.415
406,210075,0.599264,0.043676,-0.8003201,0.8575,5.5475,-2.8875
407,210172,0.597312,0.05002,-0.8003201,0.2275,5.53,-3.1675
408,210269,0.5919439999999999,0.058803999999999995,-0.803736,0.035,5.46,-3.15
409,210367,0.597068,0.06075601,-0.797392,0.105,5.285,-2.975
410,210464,0.592188,0.07612801,-0.796416,0.2625,5.04,-2.695
411,210561,0.588284,0.081496,-0.791292,0.77,4.8825,-2.03
412,210658,0.593896,0.07173600000000001,-0.788852,1.1025,5.005,-0.91
413,210755,0.5919439999999999,0.060512,-0.783972,1.05,5.2325,-0.0175
414,210852,0.604876,0.039284,-0.7788480999999999,0.595,5.1975,1.8725
415,210949,0.6075600999999999,0.027083999999999997,-0.7895840999999999,-0.77,5.635,1.715
416,211046,0.613416,0.017324000000000003,-0.7822640000000001,-1.68,5.915,0.7175
417,211143,0.60634,0.01342,-0.776896,-2.94,6.335,-0.9975
418,211240,0.605608,0.032695999999999996,-0.7766521,-3.4125,6.2825,-4.1475
419,211337,0.590724,0.06563601,-0.787388,-3.675,6.265,-5.0575
420,211434,0.5799880000000001,0.083204,-0.7998321,-3.64,6.615,-5.46
421,211531,0.5795,0.06466001,-0.7929999999999999,-3.43,7.7875,-6.44
422,211629,0.5838920999999999,0.054167999999999994,-0.800564,-4.1125,9.625,-6.7725
423,211726,0.5934081,0.050263999999999996,-0.8030041,-4.3925,12.3025,-2.835
424,211823,0.578036,0.034892,-0.8042239999999999,-6.825,16.1875,-2.03
425,211920,0.517768,0.03782,-0.81862,-9.6775,21.14,-3.01
426,212017,0.592188,0.05002,-0.8315520000000001,-12.705,29.3475,-7.0875
427,212114,0.553148,0.051972000000000004,-0.8244761,-15.1375,36.68,-6.6325
428,212211,0.562176,0.018056,-0.797148,-18.5675,45.0275,-8.0325
429,212308,0.581696,0.036844,-0.815204,-25.725,55.3175,-11.27
430,212405,0.60146,0.040016,-0.799588,-31.045,66.78,-13.615
431,212502,0.5968241,0.032451999999999995,-0.8193521,-31.955,78.1725,-14.56
432,212599,0.596336,0.08662001,-0.826916,-30.2225,91.84000999999999,-16.0475
433,212696,0.605608,0.158112,-0.8317960999999999,-32.4975,108.43,-15.61
434,212794,0.5887720000000001,0.12395199999999999,-0.820816,-33.1625,127.3825,-9.66
435,212891,0.639524,0.1586,-0.8364321,-32.0425,150.4825,-1.0675
436,212988,0.6563601,0.167384,-0.8383841000000001,-24.5,177.31,7.665
437,213085,0.5165481,0.172996,-0.8359440999999999,-13.9825,205.555,19.915
438,213182,0.599508,0.277672,-0.8586360000000001,3.465,240.0475,40.4075
439,213279,0.528016,0.279624,-0.813008,34.58,274.4875,69.0725
440,213376,0.8103239999999999,0.345504,-0.9762440999999998,44.2575,312.655,92.365
441,213473,0.8730319999999999,0.361608,-0.968924,48.475,338.2575,103.1975
442,213570,2.1957560000000003,0.17738800000000002,-0.9091440000000001,60.585,375.9525,115.4475
443,213667,1.6987279999999998,0.08417999999999999,-1.033828,79.5725,432.145,104.195
444,213764,1.624064,0.354532,-1.383968,56.5075,487.97,95.795
445,213861,1.871968,0.30622,-1.577704,24.08,518.105,105.9625
446,213958,1.873676,0.28181999999999996,-1.791448,-12.425,520.345,111.0725
447,214056,2.233088,0.18788,-1.9483400000000002,-56.98,477.6975,118.3525
448,214153,3.263988,0.73444,-2.430972,-90.52750999999999,435.3475,134.6275
449,214250,1.554768,0.74542,-2.98412,-56.91,440.9825,117.04
450,214347,-0.6456241,-0.256932,-1.82634,-86.7825,367.0625,137.5325
451,214444,4.107496,0.44554399999999994,-4.63722,-124.9675,328.195,156.66
452,214541,2.722552,1.5220719999999999,-4.010872,-204.3825,114.905,121.695
453,214638,1.11264,2.281156,-3.173464,-198.7125,-81.67251,91.84000999999999
454,214735,-0.049776,2.167208,-1.9720080000000002,-100.975,-172.655,79.7825
455,214832,-0.422608,1.5799,-1.261236,7.98,-175.7,73.7275
456,214929,-0.360388,1.024556,-0.9598959999999999,69.5625,-153.9475,60.6025
457,215026,-0.044407999999999996,0.646112,-0.9620920000000001,74.13,-142.4325,31.115
458,215123,0.31476,0.434564,-1.074332,39.13,-152.145,-7.7
459,215220,0.534848,0.429196,-1.152168,-12.4775,-181.265,-47.4425
460,215318,0.616344,0.550708,-1.138016,-53.515,-218.295,-79.4675
461,215415,0.6039,0.6588,-1.060912,-66.53501,-250.74,-98.91001
462,215512,0.6224441,0.646844,-0.9823440999999999,-52.6925,-272.895,-107.205
463,215609,0.706136,0.509716,-0.935984,-29.715,-287.6125,-111.0375
464,215706,0.777872,0.32256799999999997,-0.8913321,-15.2075,-301.595,-116.795
465,215803,0.815448,0.169824,-0.8493641,-16.9925,-316.155,-127.1025
466,215900,0.8042239999999999,0.08784,-0.792756,-30.415,-328.86,-139.9825
467,215997,0.8113001,0.047092,-0.783728,-46.1475,-335.825,-151.27
468,216094,0.8908440999999999,0.0034159999999999998,-0.86864,-58.17,-336.3675,-158.5675
469,216191,1.075064,-0.023668,-1.01748,-65.87,-335.2475,-161.5425
470,216288,1.281,-0.039772,-1.18096,-70.07,-337.5925,-160.7725
471,216385,1.4659520000000001,-0.031232,-1.325164,-71.89,-344.6275,-158.13
472,216482,1.6696919999999997,-0.009028000999999999,-1.461072,-71.2775,-354.55,-155.8725
473,216580,1.902712,0.061732,-1.561356,-69.09,-365.89,-155.6975
474,216677,2.114504,0.190076,-1.609668,-65.8175,-377.9475,-159.8975
475,216774,2.3363,0.369904,-1.65798,-59.4825,-387.6075,-169.96
476,216871,2.591524,0.49702799999999997,-1.71166,-46.3925,-394.0125,-185.605
477,216968,2.8496759999999997,0.3782,-1.696532,-26.6525,-398.09,-208.32
478,217065,3.2422720000000003,0.22862800000000003,-1.684332,-10.6225,-399.9975,-239.785
479,217162,3.609004,0.231312,-1.5986879999999999,5.7225,-402.3425,-267.155
480,217259,3.8361680000000002,0.214232,-1.310768,36.3125,-401.6075,-277.235
481,217356,4.126772,0.529724,-0.5565640000000001,76.2475,-393.0675,-269.99
482,217453,4.398832,0.315736,0.8249639999999999,131.1975,-376.915,-230.755
483,217550,4.9248959999999995,-1.7521639999999998,3.07318,164.9725,-343.21,-176.225
484,217647,3.8835040000000003,-3.73564,5.550512,32.7775,-309.89,-182.945
485,217744,3.476756,-2.7755,5.138396,-223.93,-202.8775,-186.97
486,217841,3.166876,-0.659532,3.179076,-309.8375,-49.3325,-106.645
487,217939,3.1412560000000003,0.20252,1.164368,-157.3775,69.9475,51.3625
488,218036,3.2168959999999998,0.184952,-0.277672,29.8375,120.9425,184.0825
489,218133,1.8404919999999998,1.0919,-0.061,103.95,124.635,228.3925
490,218230,0.5260640000000001,0.05856,-0.33184,194.9325,183.295,243.1625
491,218327,-0.302316,0.786412,-1.488644,155.6625,236.635,176.3125
492,218424,0.504836,0.7178479999999999,-0.607804,95.9875,261.7825,66.5875
493,218521,1.019188,-0.5787680000000001,-0.360632,114.1,295.89,21.9625
494,218618,3.1690720000000003,-1.017724,-2.500512,65.52,344.7325,12.9325
495,218715,2.753052,-1.1241079999999999,-1.6531,59.7975,283.5,35.595
496,218812,1.536956,-0.022203999999999998,-1.39568,42.91,218.505,62.09
497,218909,1.8573279999999999,1.6352879999999999,-2.3489880000000003,24.8675,200.9175,61.3375
498,219006,1.405684,0.393816,-0.707112,100.2575,169.4875,62.6325
499,219104,1.5950280000000001,-0.245952,-1.334192,99.435,131.81,41.2125
500,219201,1.319552,-0.26108000000000003,-0.9650200999999999,94.395,103.285,43.3825
501,219298,0.93696,-0.002684,-1.155584,59.8675,67.7775,30.17
502,219395,1.022604,-0.31524800000000003,-0.9669721,55.9475,55.79,21.3675
503,219492,0.770308,0.05563200000000001,-0.9006040999999999,35.0525,30.9225,11.4275
504,219589,0.714432,0.037332,-0.8615640999999999,26.215,20.755,5.7225
505,219686,0.6946681,-0.021472,-0.8357,23.2225,12.5125,5.6525
506,219783,0.629764,0.041968,-0.827892,16.485,6.9475,2.8525
507,219880,0.616344,0.026595999999999998,-0.8298440999999999,13.5275,5.775,1.0325
508,219977,0.6722199999999999,0.09442801,-0.8352120000000001,10.6575,4.795,0.035
509,220074,0.6326921,0.028548,-0.815692,9.6425,2.695,-0.07
510,220171,0.61366,0.052948,-0.801784,5.9675,2.8875,-1.19
511,220268,0.5873079999999999,0.046604,-0.8095920999999999,5.88,1.89,-1.155
512,220366,0.599996,0.059536,-0.8066641,5.8275,2.415,-0.3675
513,220463,0.6021920000000001,0.040504000000000005,-0.8042239999999999,6.37,2.6775,0.6125
514,220560,0.5987760999999999,0.045627999999999995,-0.8042239999999999,6.195,2.9225,0.8925
515,220657,0.60146,0.050508,-0.801784,6.1425,3.3075,1.3475
516,220754,0.583648,0.101748,-0.7856801,4.55,3.5525,1.26
517,220851,0.579012,0.038308,-0.79056,3.1675,3.7975,0.735
518,220948,0.597312,0.011712,-0.774944,3.1325,4.2,0.1925
519,221045,0.613904,0.04392,-0.7893399999999999,3.5875,4.3575,-0.35
520,221142,0.6068279999999999,0.027327999999999998,-0.789828,3.3775,3.99,-0.8925
521,221239,0.6124400999999999,0.041236,-0.786656,2.9225,3.85,-0.9625
522,221336,0.6075600999999999,0.048068,-0.788852,2.3975,3.4125,-0.455
523,221433,0.60024,0.049532,-0.787388,2.3275,2.835,-0.21
524,221530,0.6082920999999999,0.0488,-0.780068,2.1875,2.415,0.0875
525,221628,0.611464,0.040504000000000005,-0.7820199999999999,1.5225,1.7675,-0.4725
526,221725,0.62098,0.030744,-0.7761640999999999,1.0675,1.4,-0.8925
527,221822,0.607316,0.024644,-0.7754321,0.105,1.33,-0.735
528,221919,0.6070720000000001,0.013908000000000002,-0.769088,-0.3675,1.61,-1.995
529,222016,0.59902,0.00976,-0.772504,-1.3125,2.38,-3.6225
530,222113,0.6009720000000001,0.034404000000000004,-0.782752,-1.9075,2.94,-5.1275
531,222210,0.616344,0.051972000000000004,-0.784216,-2.1525,3.2375,-5.81
532,222307,0.6007279999999999,0.060512,-0.786656,-2.765,3.0975,-6.4225
533,222404,0.5917,0.071248,-0.791536,-2.7825,2.8875,-6.615
534,222501,0.555588,0.07222401,-0.7998321,-2.765,3.185,-6.0725
535,222598,0.564372,0.063684,-0.8113001,-3.4475,4.725,-5.1625
536,222695,0.558516,0.07808001,-0.813496,-4.6375,7.07,-4.655
537,222792,0.572912,0.036112,-0.7895840999999999,-6.405,10.3075,-3.64
538,222889,0.5743761,0.050996,-0.830332,-9.59,14.28,-2.1875
539,222987,0.55266,-0.005856,-0.813008,-12.145,20.16,0.0
540,223084,0.580964,0.019032,-0.8322841000000001,-17.5525,29.05,-0.49
541,223181,0.568032,0.028792,-0.8383841000000001,-20.8425,38.045,-2.765
542,223278,0.55388,-0.02806,-0.832528,-23.135,48.6325,-4.3575
543,223375,0.5897479999999999,-0.019275999999999998,-0.8398479999999999,-25.8475,61.11,-7.525
544,223472,0.593896,0.016592,-0.818376,-24.2375,76.16001,-12.4075
545,223569,0.5799880000000001,0.091744,-0.861808,-27.0025,94.16751,-16.5025
546,223666,0.584868,0.09882,-0.8652241,-27.72,112.1225,-11.76
547,223763,0.617564,0.136152,-0.8549761,-28.49,135.275,-5.005
548,223860,0.630008,0.178608,-0.893284,-22.9775,163.415,1.575
549,223957,0.5743761,0.15006,-0.8256960999999999,-13.2125,193.2175,12.32
550,224054,0.6646561,0.200324,-0.790804,-3.395,230.545,29.82
551,224151,0.517768,0.26474000000000003,-0.8625401,14.385,275.275,54.6175
552,224248,0.6563601,0.3477,-0.964776,34.79,319.69,86.9925
553,224346,0.8298440999999999,0.301584,-1.073112,52.6225,355.145,109.76
554,224443,1.023824,0.35014,-1.059692,59.465,379.54,129.8675
555,224540,1.7336200000000002,0.20861999999999997,-1.2566,72.485,426.9475,130.865
556,224637,1.921012,0.141764,-1.380064,78.155,481.0575,112.805
557,224734,1.902468,0.37332,-1.663348,49.35,518.385,111.79
558,224831,1.8587919999999998,0.311832,-1.73118,18.83,523.18,121.485
559,224928,2.1313400000000002,0.063196,-1.8121880000000001,-23.9925,479.92,129.6925
560,225025,2.891644,0.40577199999999997,-2.174772,-53.2525,432.6525,146.0375
561,225122,1.140212,0.09930800000000001,-2.366068,-8.68,455.2275,124.6175
562,225219,-0.10321199999999998,-0.679784,-2.287256,-86.24,417.69,135.0125
563,225316,3.4779760000000004,-0.69784,-2.569808,-170.1525,356.58,166.88
564,225413,3.4077040000000003,0.676124,-3.8264080000000003,-292.145,241.3075,161.63
565,225510,2.33874,2.303604,-3.748816,-328.1075,-7.0,146.23
566,225608,0.5997520000000001,2.8530919999999997,-2.541504,-227.745,-156.45,141.435
567,225705,-0.174948,2.4199919999999997,-1.436916,-65.36251,-199.2725,135.45
568,225802,-0.413336,1.6021040000000002,-0.8052,60.1125,-186.0775,115.745
569,225899,-0.386252,0.97234,-0.5084960000000001,94.88501,-166.4775,67.025
570,225996,-0.225456,0.548268,-0.47775200000000007,54.985,-157.15,-2.03
571,226093,0.13542,0.532896,-0.646844,-26.4075,-159.7925,-76.8775
572,226190,0.410408,0.693204,-0.828868,-89.3375,-173.7575,-133.4725
573,226287,0.648796,0.791292,-1.021872,-104.405,-192.0275,-163.6075
574,226384,0.812032,0.7500560000000001,-1.147532,-80.29,-214.34,-171.9025
575,226481,0.9381801,0.5489999999999999,-1.167784,-40.18,-239.5225,-167.93
576,226578,0.9918600000000001,0.292068,-1.104588,-11.5325,-267.2425,-163.73
577,226675,0.9381801,0.071004,-0.969412,-5.705,-295.3825,-165.9875
578,226773,0.8147161,-0.059536,-0.8178880999999999,-19.635,-317.485,-174.055
579,226870,0.735416,-0.102968,-0.73078,-41.3175,-328.3525,-183.3825
580,226967,0.744688,-0.122,-0.7415161,-59.045,-328.3525,-189.63
581,227064,0.8962120000000001,-0.13542,-0.840824,-69.09,-322.805,-190.645
582,227161,1.0826280000000001,-0.153232,-0.97234,-73.16751,-318.99,-186.2875
583,227258,1.270508,-0.155184,-1.104588,-74.7075,-319.34,-178.8325
584,227355,1.4210559999999999,-0.156648,-1.232444,-75.88,-323.9775,-171.0625
585,227452,1.574044,-0.135176,-1.359812,-78.75,-331.1175,-165.8825
586,227549,1.765584,-0.053924,-1.49328,-83.8425,-339.605,-165.305
587,227646,2.037156,0.07612801,-1.664812,-88.5675,-349.265,-170.0475
588,227743,2.322148,0.239608,-1.838296,-88.8475,-362.25,-180.5475
589,227840,2.589816,0.335988,-1.914668,-80.1675,-378.1575,-196.6125
590,227937,2.8538240000000004,0.31354,-1.878312,-60.5325,-393.6625,-217.6475
591,228035,3.217628,0.281088,-1.8407360000000001,-35.315,-402.9725,-237.4575
592,228132,3.4311279999999997,0.142252,-1.648952,-2.345,-406.105,-247.7125
593,228229,3.582896,-0.10687200000000001,-1.310036,27.7025,-401.5375,-252.525
594,228326,3.845196,-0.46433199999999997,-0.5934081,51.415,-389.1125,-253.3475
595,228423,4.478619999999999,0.390644,0.9745360000000001,70.105,-376.2325,-237.3
596,228520,5.234044,-1.68238,3.77956,140.9975,-349.7725,-154.0525
597,228617,3.284728,-4.970524,6.50016,101.1675,-301.9625,-67.6725
598,228714,2.873832,-2.8225919999999998,4.93002,-222.9325,-156.24,-55.72
599,228811,2.8591919999999997,-0.199104,2.448052,-310.905,5.25,21.42
600,228908,3.3430440000000003,0.484096,0.290116,-137.7775,112.805,155.435
601,229005,2.54858,1.77388,-1.576972,23.275,132.335,237.475
602,229102,0.620492,0.8559521000000001,0.670268,224.455,183.5225,274.995
603,229199,0.381616,-0.081984,-1.086044,285.7225,222.5475,251.335
604,229296,-0.20008,1.422764,-1.2756319999999999,136.0275,220.185,85.5925
605,229394,0.11248399999999999,0.20861999999999997,-0.049776,110.4775,261.59,-38.7275
606,229491,2.562976,-1.40788,-1.6872599999999998,107.4325,329.9275,-49.945
607,229588,3.5380000000000003,-1.95688,-2.149396,96.28501,312.2875,-7.5425
608,229685,1.9014919999999997,-1.281244,-1.333948,72.52,226.7125,38.745
609,229782,1.8468360000000001,1.36884,-2.394616,19.8625,196.0,63.7875
610,229879,1.5603799999999999,1.140944,-0.84546,81.5675,163.2225,67.725
611,229976,2.0032400000000004,-0.6161,-1.530124,105.0,124.005,34.5625
612,230073,0.904508,-0.6439159999999999,-1.006744,105.735,72.1525,35.0875
613,230170,0.964044,0.446276,-1.097512,38.745,54.74,21.2975
614,230267,0.85644,-0.30841599999999997,-1.014308,56.2975,36.365,16.94
615,230364,0.739808,0.014396,-0.898652,34.3875,24.675,10.29
616,230461,0.648308,0.07978801,-0.849608,21.035,15.9075,2.5025
617,230559,0.6722199999999999,0.06344,-0.8437520000000001,19.81,12.215,0.9625
618,230656,0.6456241,0.006832001,-0.8291120999999999,15.015,8.155,-0.6825
619,230753,0.61122,0.07978801,-0.818132,10.115,5.46,-3.4825
620,230850,0.619272,0.047336,-0.820816,8.3475,5.04,-4.9875
621,230947,0.6202479999999999,0.046116000000000004,-0.8244761,6.125,4.83,-6.1775
622,231044,0.6058520000000001,0.049532,-0.812276,3.9375,4.1825,-8.0325
623,231141,0.599264,0.050752,-0.8054439999999999,2.17,3.3775,-8.995
624,231238,0.597068,0.06124401,-0.8076399999999999,1.47,2.9925,-8.54
625,231335,0.588284,0.059536,-0.8095920999999999,2.0825,2.625,-7.7525
626,231432,0.5858439999999999,0.04148,-0.8095920999999999,2.6425,2.975,-6.8075
627,231529,0.588284,0.08052000000000001,-0.805932,1.5575,3.6925,-6.3875
628,231627,0.596336,0.07393200000000001,-0.79666,1.1025,4.34,-6.195
629,231724,0.5917,0.0976,-0.8047121,0.7,4.7425,-6.335
630,231821,0.6009720000000001,0.083936,-0.805932,0.5075,5.1275,-6.37
631,231918,0.592188,0.096624,-0.800564,0.0875,5.53,-6.3175
632,232015,0.5826720000000001,0.091988,-0.7986121,0.0175,5.425,-5.9325
633,232112,0.589504,0.09345201,-0.7978801,-0.2975,5.9325,-5.075
634,232209,0.591212,0.092964,-0.79422,-0.245,6.2475,-4.27
635,232306,0.594384,0.098332,-0.790804,-0.385,6.5625,-3.43
636,232403,0.5975560000000001,0.09442801,-0.788608,-0.4375,6.895,-2.5025
637,232500,0.60146,0.083204,-0.787876,-0.665,7.1575,-1.645
638,232597,0.6097560000000001,0.07173600000000001,-0.7856801,-1.1725,7.1575,-0.8225
639,232694,0.613904,0.062952,-0.7854361,-1.61,7.0875,-0.7175
640,232791,0.61854,0.061,-0.7788480999999999,-2.38,6.825,-0.9275
641,232888,0.624152,0.064172,-0.771528,-2.975,6.1075,-1.7675
642,232986,0.621712,0.07490801,-0.772016,-3.395,5.0575,-2.8525
643,233083,0.60024,0.08808401,-0.776408,-3.5175,3.92,-4.1125
644,233180,0.571204,0.09028,-0.785924,-3.535,3.4475,-4.41
645,233277,0.5692520000000001,0.10833599999999999,-0.7829961,-4.2175,4.48,-3.955
646,233374,0.5753520000000001,0.09028,-0.783972,-4.725,5.8975,-2.835
647,233471,0.577548,0.08174001,-0.780556,-5.4425,7.595,-1.995
648,233568,0.571936,0.09882,-0.7951961,-6.265,9.695,-0.805
649,233665,0.576084,0.09784401,-0.7956840999999999,-7.9975,12.39,0.945
650,233762,0.5934081,0.094672,-0.8020281,-10.745,16.59,2.0475
651,233859,0.5726680000000001,0.06539201,-0.8076399999999999,-11.2,20.2825,1.7675
652,233956,0.58682,0.057584,-0.8071520000000001,-11.7775,26.495,-0.2625
653,234054,0.5694961,0.073688,-0.822524,-14.8225,35.315,-3.815
654,234151,0.574132,0.063684,-0.8081281,-18.48,45.3775,-6.7375
655,234248,0.5260640000000001,0.061,-0.8317960999999999,-26.95,58.415,-10.5525
656,234345,0.602436,0.063928,-0.803736,-33.9325,69.0025,-13.265
657,234442,0.6219561,0.061488,-0.8086161000000001,-37.765,80.2725,-15.995
658,234539,0.6158561,0.07198,-0.777628,-34.4575,93.065,-18.445
659,234636,0.5917,0.122244,-0.8210601000000001,-34.8425,109.375,-21.8225
660,234733,0.562176,0.122732,-0.8518040000000001,-36.54,129.99,-20.125
661,234830,0.538508,0.156648,-0.835456,-37.3625,155.19,-10.4825
662,234927,0.576084,0.22106399999999998,-0.8632719999999999,-33.9325,186.97,1.4175
663,235024,0.502884,0.246196,-0.844484,-24.325,219.3975,15.225
664,235121,0.574864,0.23082399999999997,-0.930616,-11.165,254.1,35.9975
665,235219,0.65514,0.315492,-0.9340321,2.135,277.06,56.1225
666,235316,0.5614439999999999,0.24790399999999999,-0.955992,8.9775,308.2625,68.0925
667,235413,1.162172,0.31476,-1.125816,7.315,340.9175,79.7825
668,235510,2.058384,0.15176800000000001,-1.269288,36.995,391.7025,81.27
669,235607,1.893684,0.116388,-1.121912,59.7625,456.7675,56.2975
670,235704,1.701168,0.28328400000000004,-1.449848,30.5725,505.68,53.06
671,235801,1.87758,0.235948,-1.513044,6.0025,523.5475,63.4725
672,235898,1.86172,0.18324400000000002,-1.654564,-18.62,505.4175,64.645
673,235995,2.302384,0.371856,-1.575996,-54.7575,453.635,74.305
674,236092,1.865868,0.42944,-2.119628,-47.5475,457.7825,74.48
675,236189,0.607316,-0.072712,-1.7221520000000001,-31.4825,462.2275,74.2
676,236287,-0.42895200000000006,-1.116544,-0.9906401,-112.3325,422.975,82.5475
677,236384,3.7349080000000003,-0.124196,-3.060004,-229.705,413.63,114.5725
678,236481,3.1351560000000003,0.5958479999999999,-3.358172,-313.3375,271.565,129.395
679,236578,2.5049040000000002,1.7355720000000001,-3.658292,-346.9725,60.34,122.36
680,236675,1.29198,2.389004,-2.996564,-278.1625,-117.355,117.215
681,236772,0.6070720000000001,2.22528,-1.9300400000000002,-129.99,-212.9925,116.0775
682,236869,0.19178399999999998,1.5603799999999999,-1.1468,22.2425,-250.2325,124.985
683,236966,0.007320001,1.039928,-0.657092,110.95,-251.545,128.205
684,237063,-0.104432,0.633668,-0.42748800000000003,137.865,-241.43,114.7475
685,237160,-0.004148001,0.326716,-0.403332,117.3375,-228.305,86.27501
686,237257,0.229604,0.168848,-0.491904,59.2375,-224.28,44.6425
687,237354,0.458232,0.244732,-0.6019479999999999,-17.5875,-234.7975,-4.2525
688,237452,0.6182960999999999,0.5060560000000001,-0.7378560000000001,-82.46,-255.7975,-49.9975
689,237549,0.774456,0.81984,-0.8730319999999999,-109.2875,-277.515,-82.425
690,237646,0.9464761,0.9886881,-0.9562360999999999,-91.8925,-297.9025,-99.45251
691,237743,0.9884440000000001,0.9108521,-0.907192,-45.99,-318.78,-106.295
692,237840,0.9564799999999999,0.674416,-0.781776,-2.31,-336.28,-111.7375
693,237937,0.8976761000000001,0.45725600000000005,-0.653432,18.69,-347.97,-122.535
694,238034,0.8403360000000001,0.273524,-0.572912,17.6575,-353.2375,-138.32
695,238131,0.9093880999999999,0.166408,-0.5751081,2.17,-350.8225,-155.1025
696,238228,1.041148,0.111996,-0.646112,-18.305,-345.52,-167.5975
697,238325,1.2197559999999998,0.096624,-0.7788480999999999,-36.33,-340.62,-173.5825
698,238423,1.395924,0.125416,-0.945256,-49.805,-338.66,-173.9325
699,238520,1.5677,0.158112,-1.111664,-57.645,-339.85,-171.7275
700,238617,1.7489919999999999,0.212036,-1.271484,-61.9325,-344.6625,-170.0475
701,238714,2.001044,0.31354,-1.45302,-64.3825,-351.61,-171.605
702,238811,2.310924,0.482388,-1.643584,-64.155,-361.445,-178.3425
703,238908,2.6010400000000002,0.678076,-1.800232,-58.065,-374.4475,-190.54
704,239005,2.91092,0.8620521000000001,-1.915644,-43.365,-386.575,-207.6025
705,239102,3.266916,0.795928,-1.885632,-19.2675,-395.745,-226.9925
706,239199,3.241784,-0.122244,-1.497184,4.795,-404.3725,-256.305
707,239296,3.5689879999999996,0.006832001,-1.300764,-20.615,-407.61,-300.9825
708,239393,3.8676440000000003,0.410652,-0.696376,-15.26,-401.485,-314.265
709,239490,4.618432,0.1586,0.45261999999999997,48.4575,-378.945,-268.065
710,239588,5.078372,-2.201368,2.979484,116.2525,-361.375,-192.78
711,239685,3.814696,-4.429819999999999,5.777188,31.5525,-337.6625,-156.0825
712,239782,3.261792,-3.299124,5.30578,-169.855,-218.96,-78.82
713,239879,3.289364,-1.458876,3.139304,-198.2575,-41.02,108.6225
714,239976,3.150284,-0.127856,0.7168720000000001,-84.875,73.325,257.3725
715,240073,2.245044,1.7565560000000002,0.7229720000000001,64.27750999999999,128.52,337.0325
716,240170,1.184376,-0.81252,-0.22935999999999998,263.3575,193.165,377.58
717,240267,0.041968,0.241804,-1.262456,200.8825,215.7225,291.9175
718,240364,-0.36575599999999997,1.575264,-0.422364,59.5,218.435,118.5275
719,240461,0.91622,0.43212399999999995,-0.43773599999999996,48.8075,296.555,6.3
720,240559,3.8212839999999995,-0.563396,-3.0636639999999997,44.7125,356.51,-14.735
721,240656,2.8374759999999997,-0.8866961,-1.6406560000000001,61.495,268.6775,15.435
722,240753,1.277096,-0.022936,-1.266848,48.37,190.155,36.2075
723,240850,1.304668,1.2902719999999999,-1.94712,32.6725,178.64,32.27
724,240947,1.2688,0.037088,-0.516304,103.285,161.84,47.74
725,241044,2.2140560000000002,-0.351848,-1.665788,90.825,133.63,36.0325
726,241141,1.0065,-0.271816,-0.9098761000000001,84.7525,79.6425,34.58
727,241238,0.9337880999999999,-0.10614000000000001,-1.191452,55.405,47.3025,19.8975
728,241335,0.8488761,-0.072956,-0.935984,43.4175,38.57,11.9525
729,241432,0.684908,0.030012,-0.8740081000000001,29.9425,23.9225,7.28
730,241530,0.691008,-0.028304000000000003,-0.8579041,25.235,17.5525,3.9025
731,241627,0.654652,0.02196,-0.8403360000000001,16.38,12.4775,0.6125
732,241724,0.6470880999999999,-0.006832001,-0.830332,12.4075,9.1,-1.855
733,241821,0.6314721,0.044896,-0.8113001,8.2425,7.735,-3.85
734,241918,0.634156,0.034404000000000004,-0.806908,5.9675,6.09,-5.1625
735,242015,0.6231760999999999,0.034648000000000005,-0.800808,4.13,4.9525,-6.02
736,242112,0.617564,0.060512,-0.805688,2.625,4.165,-6.65
737,242209,0.60146,0.051972000000000004,-0.800808,2.3275,3.4475,-5.88
738,242306,0.601216,0.05124001,-0.8015399999999999,2.59,3.115,-4.725
739,242403,0.604388,0.056852,-0.811056,3.5175,3.185,-4.1125
740,242500,0.598532,0.053436000000000004,-0.815692,3.8325,3.57,-3.5175
741,242597,0.596336,0.04392,-0.811056,3.115,3.815,-2.9575
742,242695,0.599508,0.044164,-0.8081281,1.82,4.0075,-3.115
743,242792,0.60146,0.045384,-0.7993439999999999,0.945,4.2875,-3.535
744,242889,0.598288,0.042944,-0.8015399999999999,-0.0525,4.4625,-4.165
745,242986,0.601704,0.046360000000000005,-0.793244,-0.77,4.6375,-4.4625
746,243083,0.60268,0.0549,-0.792756,-1.0675,4.6025,-4.7775
747,243180,0.60268,0.061488,-0.793488,-1.2775,4.6725,-4.5675
748,243277,0.599996,0.061732,-0.79178,-1.4525,4.8475,-4.235
749,243374,0.6036560999999999,0.07173600000000001,-0.7922680000000001,-1.3475,4.865,-3.6925
750,243471,0.595116,0.07393200000000001,-0.7922680000000001,-1.1025,4.6375,-3.0275
751,243568,0.6021920000000001,0.07027201,-0.7937320999999999,-0.8400001,4.69,-1.96
752,243666,0.5946279999999999,0.063684,-0.785924,-0.3325,4.4975,-0.7875
753,243763,0.6058520000000001,0.063196,-0.788852,-0.56,4.5325,0.3325
754,243860,0.61366,0.056608000000000006,-0.788608,-0.595,4.13,1.0675
755,243957,0.6158561,0.046116000000000004,-0.78446,-1.05,4.0775,1.1375
756,244054,0.612196,0.041236,-0.783728,-1.8725,4.095,0.595
757,244151,0.6156119999999999,0.040016,-0.780068,-2.8525,4.55,-0.28
758,244248,0.598288,0.037088,-0.772016,-3.78,4.935,-1.12
759,244345,0.5968241,0.05636401,-0.7820199999999999,-4.83,5.53,-2.24
760,244442,0.6161,0.063928,-0.7808001,-4.8125,5.6175,-3.22
761,244539,0.60268,0.064416,-0.7861680999999999,-4.655,5.915,-3.0625
762,244637,0.598532,0.07442,-0.792512,-5.3725,6.3875,-3.2725
763,244734,0.5968241,0.073688,-0.785192,-5.565,7.6125,-2.9225
764,244831,0.5690081,0.068564,-0.8015399999999999,-6.895,9.765,-2.8
765,244928,0.5692520000000001,0.069784,-0.7993439999999999,-8.75,13.5975,-2.975
766,245025,0.553636,0.061,-0.80886,-10.3075,17.92,-3.0275
767,245122,0.588284,0.020008,-0.7890961,-11.6375,23.7475,-5.9325
768,245219,0.580964,0.053191999999999996,-0.813496,-13.545,31.8675,-7.8575
769,245316,0.582184,0.041724000000000004,-0.8103239999999999,-14.9625,39.585,-10.08
770,245413,0.548756,0.041968,-0.818376,-19.9325,48.7375,-13.8775
771,245510,0.6039,0.044164,-0.7937320999999999,-26.9325,60.1475,-15.8725
772,245607,0.611464,0.06075601,-0.803492,-31.2725,70.28,-16.8175
773,245704,0.5934081,0.06344,-0.8071520000000001,-31.08,82.005,-17.7975
774,245802,0.582916,0.110776,-0.828868,-32.7425,97.07251,-17.4125
775,245899,0.579012,0.11712,-0.8308200000000001,-35.9975,115.9725,-14.665
776,245996,0.586088,0.1403,-0.826672,-37.8525,139.7375,-10.3425
777,246093,0.568032,0.15738,-0.863028,-34.7025,169.4875,-3.955
778,246190,0.5814520000000001,0.196908,-0.879864,-27.79,203.07,7.6125
779,246287,0.5185,0.182756,-0.9311040999999999,-14.6475,240.45,25.2
780,246384,0.491904,0.223504,-0.8796200000000001,4.62,279.02,48.2825
781,246481,0.8437520000000001,0.321592,-0.860344,16.66,315.84,69.7725
782,246578,0.7241920000000001,0.367952,-1.006744,13.65,347.9,69.87751
783,246675,1.849276,0.274012,-1.13216,25.1825,386.54,87.8325
784,246772,1.624552,0.12444000000000001,-1.24318,51.03,444.5,70.07
785,246870,1.779736,0.276696,-1.45302,38.535,498.82,58.485
786,246967,1.8953919999999997,0.209596,-1.5323200000000001,15.68,520.9575,67.445
787,247064,1.929064,0.300852,-1.708488,-13.37,506.6425,69.72
788,247161,2.206492,0.391864,-1.47376,-50.6975,450.94,82.9325
789,247258,2.07888,0.467992,-2.0281279999999997,-43.9075,443.38,88.46251
790,247355,0.6329359999999999,0.08784,-1.94712,-24.955,449.155,82.18
791,247452,-0.45506,-0.7283400999999999,-1.45302,-100.1525,412.65,87.6575
792,247549,2.982168,-0.192272,-2.193072,-194.11,378.245,117.32
793,247646,2.9819240000000002,0.5185,-3.3476800000000004,-273.9975,288.645,132.3
794,247743,2.5183240000000002,1.541592,-3.721976,-302.505,75.21500999999999,125.615
795,247840,1.348832,2.220644,-3.035604,-248.535,-99.5575,122.9375
796,247938,0.6653880999999999,2.097424,-2.021296,-116.9525,-205.24,122.5875
797,248035,0.21228000000000002,1.521096,-1.14924,17.5175,-249.7775,128.94
798,248132,-0.07076001,1.066768,-0.604876,97.965,-256.41,127.6975
799,248229,-0.15176800000000001,0.708332,-0.366244,126.105,-243.9675,112.3325
800,248326,-0.07027201,0.420412,-0.328912,112.0,-227.85,83.09000999999999
801,248423,0.172264,0.255468,-0.4404201,62.1425,-219.17,40.74
802,248520,0.41260399999999997,0.30012,-0.5751081,-6.37,-224.5075,-8.9775
803,248617,0.58316,0.525576,-0.7288279999999999,-67.3225,-241.43,-56.28
804,248714,0.771772,0.7822640000000001,-0.8818159999999999,-94.5525,-260.995,-91.4025
805,248811,0.9242720999999999,0.9147559999999999,-0.9699,-81.83001,-282.1525,-112.0175
806,248908,1.021384,0.826916,-0.9686799999999999,-43.82,-303.38,-122.3775
807,249005,1.005036,0.611464,-0.855708,-5.88,-324.1875,-129.675
808,249103,0.9386681,0.406504,-0.7178479999999999,14.5075,-339.8325,-139.09
809,249200,0.8840120000000001,0.23741199999999998,-0.6080479999999999,16.695,-347.165,-150.605
810,249297,0.9137799999999999,0.09589201,-0.5856,6.475,-346.1325,-161.2275
811,249394,1.0528600000000001,0.01708,-0.6451359999999999,-11.1125,-340.3925,-168.8925
812,249491,1.198284,0.002684,-0.7754321,-31.64,-335.3,-172.4625
813,249588,1.372256,0.046848,-0.941108,-49.595,-332.675,-172.3925
814,249685,1.568432,0.127368,-1.1163,-62.09,-333.5675,-170.205
815,249782,1.777784,0.254736,-1.295884,-69.1075,-338.66,-169.295
816,249879,2.037156,0.411628,-1.471076,-70.21,-346.2025,-172.375
817,249976,2.31678,0.6068279999999999,-1.612596,-65.29251,-356.335,-181.02
818,250073,2.616168,0.8640040000000001,-1.714832,-52.5175,-367.9375,-195.1425
819,250171,2.954596,1.080676,-1.7702200000000001,-28.6475,-377.5975,-213.4475
820,250268,3.276432,1.051884,-1.687016,4.83,-383.67,-234.7975
821,250365,3.205428,0.154452,-1.242936,35.14,-388.4125,-263.0775
822,250462,3.4677279999999997,0.258884,-1.043588,14.0875,-386.12,-308.665
823,250559,3.7710199999999996,0.741272,-0.539972,8.155,-376.8625,-328.195
824,250656,4.253652,0.25376,0.5675439999999999,67.27,-353.0275,-291.9875
825,250753,4.683336,-1.6389479999999998,2.616168,114.1875,-326.9525,-231.0875
826,250850,3.6646360000000002,-3.52946,4.909768,35.2975,-309.26,-212.415
827,250947,3.036824,-3.1171,4.941,-154.455,-212.065,-176.12
828,251044,2.705228,-1.2700200000000001,3.200792,-243.0925,-61.6875,-57.4175
829,251141,2.084248,0.19959200000000002,1.0736,-154.5425,56.5425,100.24
830,251239,2.16062,1.16022,0.6441600000000001,30.8,158.41,233.1875
831,251336,2.490752,-0.37990799999999997,-0.18056,207.515,216.51,304.6575
832,251433,1.262944,-0.219112,-1.0206520000000001,211.8025,209.44,269.22
833,251530,-0.09272000000000001,0.529968,-0.993568,134.505,188.405,156.4675
834,251627,-0.20691199999999998,0.505324,-0.19178399999999998,82.1625,226.3975,59.1675
835,251724,2.078148,-0.380396,-1.5708719999999998,58.5725,306.11,16.8875
836,251821,3.192496,-0.570472,-2.3968119999999997,44.275,298.095,9.59
837,251918,1.7753439999999998,-0.604632,-1.352492,54.8625,216.0375,36.0325
838,252015,1.2343959999999998,0.517768,-1.246108,30.1525,180.915,51.625
839,252112,1.4896200000000002,0.511424,-0.952332,53.9875,169.575,62.4925
840,252209,1.229516,0.302804,-1.09556,89.425,134.015,56.0875
841,252307,1.990552,-0.431148,-1.36396,92.2425,121.7125,43.7675
842,252404,0.627812,-0.123464,-0.887916,69.405,63.63,35.315
843,252501,0.8962120000000001,-0.061975999999999996,-1.14802,51.24,56.8925,22.33
844,252598,0.8813280000000001,0.010492,-0.9372040999999999,44.2575,44.1,17.29
845,252695,0.768356,-0.064172,-0.909632,34.4225,27.8075,11.5675
846,252792,0.748836,-0.03172,-0.850096,23.835,18.1125,6.16
847,252889,0.6563601,0.03538,-0.8457040000000001,14.21,10.22,0.875
848,252986,0.6414761,0.0183,-0.828868,11.9,6.4575,0.385
849,253083,0.6414761,0.022448,-0.8108121,9.0475,4.025,-0.4025
850,253180,0.62098,0.036356,-0.797392,6.335,2.0825,-2.24
851,253277,0.619028,0.034404000000000004,-0.794708,4.97,3.2725,-2.24
852,253374,0.6097560000000001,0.035624,-0.797636,4.515,3.2725,-2.625
853,253472,0.6095119999999999,0.026351999999999997,-0.8025161,4.62,3.0275,-2.3975
854,253569,0.629764,0.045627999999999995,-0.797636,4.5675,2.73,-2.94
855,253666,0.608536,0.029768,-0.8049561,4.0775,2.1175,-3.0975
856,253763,0.6107319999999999,0.038796,-0.806908,2.9925,2.45,-3.15
857,253860,0.607804,0.037332,-0.801296,2.135,2.5025,-2.9925
858,253957,0.6034121,0.033428,-0.8015399999999999,1.085,3.2025,-3.08
859,254054,0.604876,0.040016,-0.8020281,0.245,3.885,-3.2375
860,254151,0.607316,0.042212,-0.7993439999999999,-0.35,4.375,-3.4475
861,254248,0.60634,0.044407999999999996,-0.79178,-0.875,4.7075,-3.7275
862,254345,0.599264,0.044164,-0.792024,-1.12,4.6375,-3.605
863,254442,0.61,0.049776,-0.788852,-1.2425,4.725,-3.2725
864,254540,0.6109760000000001,0.05124001,-0.791292,-1.2075,4.515,-2.8875
865,254637,0.6070720000000001,0.050508,-0.787632,-0.9975,4.0775,-2.31
866,254734,0.614392,0.054412,-0.793488,-0.805,3.71,-1.89
867,254831,0.599996,0.045384,-0.784216,-0.7,3.5,-1.3475
868,254928,0.615368,0.045872,-0.780312,-0.77,3.3425,-1.505
869,255025,0.6170760000000001,0.055144000000000006,-0.7761640999999999,-1.225,3.08,-1.19
870,255122,0.6029241,0.049288,-0.771528,-1.5575,2.835,-1.2775
871,255219,0.616588,0.041236,-0.770308,-1.785,2.38,-0.5075
872,255316,0.618052,0.034404000000000004,-0.77836,-1.82,2.1875,-0.8575
873,255413,0.618784,0.036112,-0.7747001,-1.6275,2.065,-1.575
874,255510,0.6197600000000001,0.043676,-0.775676,-1.82,2.205,-1.47
875,255608,0.593896,0.055388,-0.7712840999999999,-1.9075,2.205,-1.19
876,255705,0.611464,0.044164,-0.772016,-2.415,2.31,-1.855
877,255802,0.6029241,0.065148,-0.77104,-2.765,1.925,-1.995
878,255899,0.608536,0.054167999999999994,-0.7771399999999999,-2.8525,1.995,-2.94
879,255996,0.592432,0.05929201,-0.7771399999999999,-2.38,2.45,-0.91
880,256093,0.604876,0.057339999999999995,-0.790072,-2.52,3.5175,-0.8925
881,256190,0.5846241,0.053436000000000004,-0.7944641,-2.5375,4.585,-0.56
882,256287,0.57584,0.07417601,-0.785924,-2.765,6.195,-0.945
883,256384,0.5697399999999999,0.029524,-0.792756,-2.6425,8.715,-2.1875
884,256481,0.5607121,0.040504000000000005,-0.8020281,-4.34,14.105,-2.73
885,256578,0.557052,0.03782,-0.8169121,-6.8425,21.56,-5.95
886,256675,0.582184,0.019032,-0.8271601000000001,-9.38,29.575,-8.89
887,256773,0.5663239999999999,-0.02562,-0.809836,-11.7775,38.71,-10.92
888,256870,0.593164,-0.027083999999999997,-0.7978801,-18.0775,49.805,-16.8525
889,256967,0.58072,0.023912,-0.8220360000000001,-24.745,63.6825,-23.2925
890,257064,0.559248,0.089304,-0.8378960999999999,-27.23,77.6825,-24.2025
891,257161,0.5631520000000001,0.113704,-0.83936,-30.94,93.4325,-20.755
892,257258,0.5787680000000001,0.14078800000000002,-0.859856,-36.2775,111.125,-14.875
893,257355,0.59658,0.116876,-0.826428,-35.2625,130.4625,-7.595
894,257452,0.5690081,0.150792,-0.853512,-33.4075,154.07,1.4
895,257549,0.603168,0.153232,-0.8725440999999999,-26.635,185.115,13.3175
896,257646,0.484828,0.216428,-0.9618481,-11.8825,224.14,24.5875
897,257743,0.46603999999999995,0.245464,-0.9718521000000001,9.66,270.235,43.505
898,257840,0.508008,0.185684,-0.9752681000000001,44.6775,320.3375,66.5175
899,257937,0.777872,0.268644,-1.1472879999999999,54.81,363.0725,82.4425
900,258035,1.0377319999999999,0.205448,-1.079456,61.18,392.98,90.07251
901,258132,2.02642,0.091744,-1.2902719999999999,74.305,446.53,84.175
902,258229,2.016172,0.08857201,-1.499868,82.81,506.94,60.8475
903,258326,1.891732,0.307196,-1.614792,65.24,544.285,64.9775
904,258423,2.07888,0.37942,-1.72508,40.11,543.375,76.93
905,258520,2.3614319999999998,0.41382399999999997,-1.7775400000000001,1.33,487.8125,91.1575
906,258617,3.111488,0.8427761,-2.149396,-17.1675,440.09,110.145
907,258714,0.9186601000000001,0.7237041,-2.513932,34.195,436.485,103.18
908,258811,-0.972828,-0.09735601,-1.20292,12.3725,362.18,121.9225
909,258908,3.4840760000000004,0.2806,-3.700016,-9.8875,342.9475,136.92
910,259005,2.6132400000000002,1.1651,-3.6905,-82.8275,177.8,93.59
911,259103,1.467416,1.9522439999999999,-3.3506080000000003,-95.7075,-24.6225,51.1525
912,259200,0.454816,2.068388,-2.2569999999999997,-12.11,-151.6375,40.985
913,259297,0.069052,1.600152,-1.272948,106.3825,-200.06,43.8375
914,259394,-0.14518,1.100196,-0.6258600000000001,196.4725,-211.4175,52.71
915,259491,-0.15616,0.818376,-0.370392,234.2725,-204.575,55.0025
916,259588,-0.042456,0.6466,-0.33184,237.3525,-194.7225,51.87
917,259685,0.156648,0.514352,-0.434564,215.4075,-189.595,41.5625
918,259782,0.427976,0.485804,-0.60024,169.8725,-195.2125,21.175
919,259879,0.662704,0.666852,-0.7600600000000001,111.5275,-215.145,-8.1025
920,259976,0.790804,0.9845401,-0.836676,64.995,-245.1575,-35.875
921,260073,0.861808,1.3054,-0.826672,50.82,-275.45,-52.8325
922,260171,0.9591639999999999,1.569408,-0.770308,69.3,-299.95,-60.6375
923,260268,1.040904,1.6104,-0.6273241,110.74,-318.745,-64.2075
924,260365,1.1065399999999999,1.474736,-0.482876,150.64,-333.1475,-69.4925
925,260462,1.162172,1.320284,-0.37088000000000004,167.79,-344.68,-80.85
926,260559,1.261724,1.241228,-0.31402800000000003,161.8225,-353.1675,-95.7775
927,260656,1.359568,1.250744,-0.302316,142.59,-359.4675,-110.5825
928,260753,1.49694,1.323944,-0.348432,121.38,-361.9,-122.92
929,260850,1.7028759999999998,1.460584,-0.43041599999999997,103.11,-361.9525,-132.79
930,260947,1.9581,1.630164,-0.5455840000000001,90.195,-362.88,-144.025
931,261044,2.275056,1.8297560000000002,-0.649528,82.1975,-367.185,-160.965
932,261141,2.5461400000000003,2.007632,-0.6573359999999999,82.4775,-376.6525,-184.9575
933,261238,2.792092,2.1347560000000003,-0.587064,92.05001,-386.995,-213.57
934,261335,2.991196,2.20942,-0.50874,107.975,-393.995,-244.1775
935,261433,3.175904,2.225768,-0.45261999999999997,125.405,-394.59,-276.115
936,261530,3.396724,2.074976,-0.427976,140.77,-388.465,-307.335
937,261627,3.57704,1.8173119999999998,-0.360388,143.5175,-379.54,-338.0475
938,261724,3.5450760000000003,1.587708,-0.23301999999999998,127.365,-370.4225,-368.4275
939,261821,3.3166919999999998,1.474736,0.039528,100.6075,-355.0225,-395.395
940,261918,3.131252,0.490684,0.5260640000000001,78.9425,-325.605,-411.88
941,262015,2.855044,-1.13704,1.542324,28.6125,-288.05,-433.16
942,262112,3.530436,-1.37494,2.26432,-108.0275,-238.49,-457.8175
943,262209,4.02966,-1.311988,2.770132,-171.7625,-167.965,-400.5225
944,262306,3.8613,-1.278804,2.73158,-130.97,-95.4275,-260.9425
945,262404,2.847236,-1.188036,2.14964,-37.5375,-31.5,-86.7125
946,262501,2.206492,-0.24326799999999998,1.021628,7.7525,31.7625,30.9225
947,262598,1.7836400000000001,1.1028799999999999,-0.025863999999999998,19.6525,69.195,62.615
948,262695,0.9813681000000001,0.9284200999999999,0.44554399999999994,60.06,89.46,21.9975
949,262792,-0.306708,-0.22326,2.187216,79.52,173.1625,-54.53
950,262889,0.7195560000000001,1.19316,-0.76494,-34.405,263.3925,-145.81
951,262986,1.47864,0.511424,-1.67262,-11.0075,302.1725,-158.1475
952,263083,1.0086959999999998,-0.9206120000000001,-1.162172,70.49,278.565,-93.275
953,263180,2.0230040000000002,-2.72182,-1.819996,120.1725,271.775,17.5
954,263277,3.180052,-1.397632,-2.512956,38.185,251.65,80.745
955,263375,2.822104,0.45261999999999997,-2.589816,14.455,168.665,112.7525
956,263472,0.229848,0.9052401,-0.6753920999999999,63.7175,75.635,128.38
957,263569,0.7156520000000001,1.414468,-1.07726,60.515,94.71,111.51
958,263666,0.965752,0.835456,-0.8527800999999999,110.95,97.3175,92.33001
959,263763,1.0972680000000001,-0.5885281,-1.255136,124.775,87.5525,78.1375
960,263860,1.079456,-0.22667600000000002,-1.005524,84.1925,63.735,58.4675
961,263957,0.812276,0.116388,-1.063596,44.7825,44.3975,32.515
962,264054,0.8071520000000001,-0.193736,-0.922076,36.1375,36.225,19.81
963,264151,0.682712,0.06466001,-0.8930401,13.3875,26.46,3.9375
964,264248,0.661484,0.031232,-0.8491200000000001,12.04,21.0,4.0425
965,264345,0.626836,0.072712,-0.8413120000000001,7.315,17.1325,1.3125
966,264443,0.647576,0.05246,-0.834724,9.0475,13.93,1.2775
967,264540,0.62098,0.039772,-0.826916,11.0425,11.0425,-1.19
968,264637,0.580476,0.04148,-0.865956,13.9125,9.38,-7.315
969,264734,0.5516840000000001,0.005856,-0.846924,21.28,8.645,-16.695
970,264831,0.559004,-0.01464,-0.8591241,30.0475,8.6975,-22.9425
971,264928,0.5099600000000001,-0.02806,-0.894748,39.515,9.6075,-34.86
972,265025,0.52582,-0.11712,-0.8901120000000001,50.0675,12.5475,-50.155
973,265122,0.571692,-0.040260000000000004,-0.846924,54.915,19.88,-63.3675
974,265219,0.51118,-0.033916,-0.8522921,55.44,30.2575,-71.99501
975,265316,0.542412,-0.02806,-0.850584,59.5,38.2725,-79.625
976,265413,0.549488,-0.039284,-0.869616,62.8075,45.325,-86.6425
977,265511,0.557296,-0.003904,-0.850584,64.4,53.8475,-93.66
978,265608,0.5814520000000001,0.035868000000000004,-0.84546,68.81,61.0925,-98.455
979,265705,0.6097560000000001,0.01586,-0.81374,73.92,66.5,-101.0625
980,265802,0.6317159999999999,0.03172,-0.773968,77.07,71.295,-103.005
981,265899,0.656116,0.098332,-0.793976,79.3625,75.3725,-104.4225
982,265996,0.6456241,0.077348,-0.74908,84.5075,77.7175,-103.53
983,266093,0.66978,0.090768,-0.7232161,87.88501,79.415,-101.6225
984,266190,0.707356,0.09320801,-0.690032,90.56251,80.255,-99.27750999999999
985,266287,0.7156520000000001,0.09247601,-0.670512,92.62751,80.15,-95.725
986,266384,0.7278521,0.07881200000000001,-0.6558721,93.1175,78.785,-93.625
987,266481,0.738344,0.089792,-0.6470880999999999,92.62751,77.0875,-90.86
988,266579,0.732244,0.104676,-0.6378159999999999,91.665,74.9875,-88.16501
989,266676,0.765184,0.110044,-0.626104,89.8275,73.8675,-84.49
990,266773,0.773724,0.146644,-0.5887720000000001,87.15,72.03,-80.01
991,266870,0.81252,0.163236,-0.5743761,82.0925,70.105,-73.815
992,266967,0.805932,0.14786400000000002,-0.5694961,76.0025,66.675,-67.2
993,267064,0.7951961,0.155184,-0.5826720000000001,69.16,64.27750999999999,-61.495
994,267161,0.8052,0.1708,-0.5636399999999999,63.3675,60.9175,-52.36
995,267258,0.8010520000000001,0.177144,-0.570716,57.1025,58.94,-44.3275
996,267355,0.806176,0.183976,-0.5734,50.0675,58.2575,-37.205
997,267452,0.8376520000000001,0.188368,-0.566812,43.155,57.4525,-28.525
998,267550,0.7954399999999999,0.171044,-0.590724,37.0125,56.4025,-19.3025
999,267647,0.7929999999999999,0.175924,-0.620004,33.4425,58.38,-10.955
1000,267744,0.789828,0.160308,-0.620736,32.55,61.81,-1.6975
1001,267841,0.775676,0.14347200000000002,-0.6602640000000001,31.955,67.655,7.175
1002,267938,0.71736,0.118584,-0.685884,34.545,78.785,16.59
1003,268035,0.7285841,0.075396,-0.712236,39.2,94.255,23.8875
1004,268132,0.7078439999999999,0.045627999999999995,-0.757864,45.8325,112.14,30.24
1005,268229,0.72224,-0.002684,-0.81374,58.1875,134.9075,33.8625
1006,268326,0.6068279999999999,0.028548,-0.9433041,75.2325,166.0225,34.965
1007,268423,0.7005239999999999,0.07002799999999999,-1.038952,99.05001,208.3375,42.3325
1008,268520,1.67262,0.002684,-1.0230920000000001,133.175,266.3325,47.3375
1009,268617,1.301008,-0.07222401,-1.2075559999999999,163.8175,344.1375,32.27
1010,268715,1.4520440000000001,0.032695999999999996,-1.551596,175.6825,415.7125,25.27
1011,268812,1.5701399999999999,0.0183,-1.621624,187.1275,468.51,34.8775
1012,268909,1.802916,-0.016592,-1.794132,196.4025,490.63,51.1
1013,269006,2.0352040000000002,0.38552,-1.8531799999999998,202.335,478.24,57.855
1014,269103,2.292624,0.174704,-1.58722,178.4125,411.6525,71.4875
1015,269200,3.055612,0.406992,-1.926136,181.23,387.17,56.1575
1016,269297,0.5382640000000001,0.09906401,-2.28018,225.225,368.62,39.8125
1017,269394,1.321504,-1.062132,-0.548268,239.2425,321.37,78.295
1018,269491,3.147844,-0.7378560000000001,-4.026976,151.515,255.815,114.8
1019,269588,2.202832,0.400892,-3.7456440000000004,38.5875,25.655,105.945
1020,269685,0.912316,1.110444,-2.652036,10.5525,-118.79,129.045
1021,269783,0.4087,1.4398440000000001,-1.7470400000000001,61.5825,-189.1925,167.79
1022,269880,0.12688,1.589416,-1.15656,128.94,-207.655,191.1875
1023,269977,0.109556,1.77998,-0.869128,169.9425,-208.3025,187.565
1024,270074,0.285236,2.043256,-0.800076,184.975,-210.3325,154.9275
1025,270171,0.48653599999999997,2.263832,-0.794952,187.0925,-223.09,103.215
1026,270268,0.659288,2.44122,-0.757864,186.2875,-243.845,42.8225
1027,270365,0.8025161,2.488556,-0.670268,191.695,-267.1375,-14.875
1028,270462,0.9655081,2.394128,-0.5655920999999999,203.28,-288.12,-62.1425
1029,270559,1.062132,2.170136,-0.429196,213.815,-307.23,-96.28501
1030,270656,1.11142,1.897588,-0.298412,214.7075,-323.5925,-119.4725
1031,270753,1.1407,1.6914080000000002,-0.193004,201.845,-336.0175,-133.6475
1032,270851,1.118252,1.511092,-0.14469200000000002,180.425,-343.3325,-140.665
1033,270948,1.158512,1.380796,-0.137128,152.95,-344.89,-143.1675
1034,271045,1.2104840000000001,1.349808,-0.195688,120.435,-344.6275,-142.765
1035,271142,1.272948,1.356884,-0.285968,90.16001,-343.8575,-140.315
1036,271239,1.363716,1.379332,-0.396744,62.9475,-342.475,-138.81
1037,271336,1.483276,1.4156879999999998,-0.5221600000000001,38.64,-341.845,-140.945
1038,271433,1.622844,1.43594,-0.637084,17.99,-343.2975,-147.4725
1039,271530,1.7450880000000002,1.472784,-0.7288279999999999,0.8925,-347.06,-158.1475
1040,271627,1.8839240000000002,1.505724,-0.8364321,-11.5325,-350.1225,-172.0425
1041,271724,2.050332,1.4896200000000002,-0.9525761,-19.495,-351.2425,-189.35
1042,271822,2.2130799999999997,1.4154440000000001,-1.0723799999999999,-25.2175,-352.1,-210.4725
1043,271919,2.443172,1.339804,-1.2043840000000001,-31.15,-351.26,-234.325
1044,272016,2.735484,1.323456,-1.32126,-37.2575,-350.035,-257.8275
1045,272113,2.961916,1.3590799999999998,-1.369572,-37.065,-350.2975,-276.92
1046,272210,3.2025,1.39568,-1.322724,-26.1275,-349.65,-288.0325
1047,272307,3.3308440000000004,1.21024,-1.068232,-3.7975,-348.88,-288.3475
1048,272404,3.0512200000000003,0.006832001,-0.349896,19.4775,-346.045,-284.3225
1049,272501,3.3210839999999995,-0.249856,0.26596,-22.995,-334.8275,-295.3475
1050,272598,4.073580000000001,-0.309148,1.378844,-70.2975,-312.5325,-288.5925
1051,272695,4.02722,-1.13582,2.977044,-62.895,-286.475,-242.585
1052,272792,2.989976,-1.4752239999999999,3.8127440000000004,-60.48,-236.3375,-191.9925
1053,272890,2.143296,-1.464,3.5009120000000005,-45.465,-124.2325,-115.675
1054,272987,1.8512279999999999,-0.978928,2.202588,-23.52,5.705,-23.17
1055,273084,2.367532,-0.14396,0.49532,-21.175,101.8675,38.0625
1056,273181,2.610312,0.45164399999999993,-0.68686,-17.0275,121.38,57.4175
1057,273278,1.2561120000000001,1.385432,-1.036268,0.56,87.36,38.955
1058,273375,1.0279719999999999,1.162172,0.8308200000000001,108.045,106.26,15.435
1059,273472,0.082716,-1.475468,0.576572,241.8675,172.1825,21.9625
1060,273569,0.6075600999999999,-0.539484,-1.520364,139.23,216.86,-30.625
1061,273666,0.7283400999999999,-0.5404601,-1.4252040000000001,79.5725,208.67,-76.37001
1062,273763,0.738344,-1.677012,-0.9340321,108.3425,208.7575,-40.145
1063,273861,1.874408,-2.175748,-1.14802,101.6575,238.56,35.91
1064,273958,2.8321080000000003,-0.45335200000000003,-2.25334,16.275,229.0225,67.6375
1065,274055,1.603568,0.883768,-1.3583479999999999,14.4375,156.6075,75.6175
1066,274152,1.291248,1.830732,-1.7687560000000002,31.325,124.32,55.0025
1067,274249,0.72468,0.138836,-0.8410681000000001,99.785,108.5525,39.0075
1068,274346,0.936716,-1.0979999999999999,-0.9435479999999999,94.51751,98.91001,27.895
1069,274443,1.535004,0.121512,-1.4722959999999998,53.8825,81.90001,36.5925
1070,274540,0.6653880999999999,0.64904,-0.787876,44.205,43.0675,34.2825
1071,274637,0.743224,-0.2257,-0.9345201,55.4575,35.805,21.5075
1072,274734,0.831308,-0.093696,-0.957944,41.2475,34.0725,16.275
1073,274832,0.62708,0.215696,-0.8552200000000001,23.73,21.595,10.4125
1074,274929,0.656848,0.048556,-0.8769360999999999,26.285,18.3575,7.8225
1075,275026,0.6512359999999999,0.049288,-0.8615640999999999,23.6775,15.645,6.9125
1076,275123,0.6414761,0.014152000000000001,-0.849608,18.9875,12.0575,4.55
1077,275220,0.6348881,0.032695999999999996,-0.831308,15.8725,8.82,1.855
1078,275317,0.5987760999999999,0.100772,-0.8244761,13.09,5.775,0.525
1079,275414,0.6007279999999999,0.013908000000000002,-0.8195960999999999,15.9425,17.4825,1.9425
1080,275511,0.57462,0.028548,-0.823256,11.69,3.08,1.2775
1081,275608,0.561932,0.039284,-0.8142281,10.08,2.8175,2.2575
1082,275705,0.54656,0.06270801,-0.791048,10.8325,4.13,3.745
1083,275802,0.580964,0.08417999999999999,-0.8132520999999999,13.1425,5.915,5.18
1084,275900,0.600484,0.077592,-0.8015399999999999,16.345,6.3875,6.3875
1085,275997,0.623908,0.0671,-0.8215481,17.29,5.7925,6.4925
1086,276094,0.621712,0.0488,-0.81862,15.5925,4.4975,5.4075
1087,276191,0.613416,0.057339999999999995,-0.813984,12.6875,3.4125,3.9375
1088,276288,0.6131721,0.051484,-0.809836,10.36,2.73,2.5025
1089,276385,0.605608,0.04148,-0.805688,8.3125,2.1875,1.75
1090,276482,0.5934081,0.042944,-0.808372,6.195,2.1875,0.5775
1091,276579,0.589504,0.045384,-0.806908,4.69,2.4325,-0.21
1092,276676,0.590968,0.041724000000000004,-0.803736,3.6925,2.8875,-0.63
1093,276773,0.58682,0.04514,-0.800076,2.59,3.6225,-1.295
1094,276870,0.58804,0.046848,-0.802272,1.54,4.2175,-2.1
1095,276968,0.587796,0.05368,-0.80276,0.8225,5.04,-2.8875
1096,277065,0.5917,0.0549,-0.798856,0.455,5.565,-3.15
1097,277162,0.586088,0.048068,-0.79422,0.42,6.0025,-3.0625
1098,277259,0.5941401,0.030744,-0.7881199999999999,-0.07,6.685,-3.4475
1099,277356,0.598288,0.01586,-0.7832399999999999,-0.77,7.455,-4.34
1100,277453,0.604144,0.023180000000000003,-0.781776,-2.0825,8.295,-4.55
1101,277550,0.6029241,0.036112,-0.780556,-3.1675,8.8375,-4.55
1102,277647,0.589504,0.055388,-0.787144,-3.64,8.855,-4.935
1103,277744,0.5814520000000001,0.0671,-0.7937320999999999,-3.22,8.75,-4.62
1104,277841,0.589016,0.080276,-0.7991,-2.4675,9.1525,-2.8
1105,277938,0.6068279999999999,0.063684,-0.7944641,-1.8025,9.6075,-2.9575
1106,278035,0.597068,0.054412,-0.796172,-1.8025,9.7125,-3.3425
1107,278133,0.590968,0.06563601,-0.793244,-1.9075,10.85,-3.185
1108,278230,0.606096,0.062220000000000004,-0.796904,-2.87,11.235,-5.5125
1109,278327,0.598532,0.054167999999999994,-0.8081281,-3.7975,13.5275,-4.515
1110,278424,0.59902,0.036356,-0.8010520000000001,-5.6875,15.925,-4.27
1111,278521,0.539484,0.000732,-0.8164239999999999,-7.875,20.125,-5.5125
1112,278618,0.598532,0.034648000000000005,-0.813496,-12.95,28.8225,-5.0225
1113,278715,0.57096,0.042944,-0.8235001000000001,-14.6825,36.575,-5.67
1114,278812,0.5753520000000001,0.027816000000000004,-0.8193521,-16.9925,44.4325,-7.385
1115,278909,0.569984,0.041724000000000004,-0.833016,-21.7875,54.285,-10.6925
1116,279006,0.5856,0.056852,-0.8327720999999999,-25.5325,65.065,-12.845
1117,279103,0.5958479999999999,0.079056,-0.833016,-24.2725,76.1425,-12.8975
1118,279200,0.584136,0.162504,-0.8491200000000001,-26.4775,88.18251,-9.5375
1119,279298,0.5958479999999999,0.141032,-0.850096,-28.5775,102.585,-1.0325
1120,279395,0.6131721,0.15006,-0.8827921000000001,-28.0175,119.595,10.5175
1121,279492,0.6317159999999999,0.13908,-0.8805960999999999,-20.5975,143.115,21.7
1122,279589,0.6224441,0.166164,-0.8784,-8.5925,172.515,30.4675
1123,279686,0.6378159999999999,0.15274400000000002,-0.7903161,8.5575,204.785,42.5425
1124,279783,0.5838920999999999,0.27279200000000003,-0.9598959999999999,27.5275,245.315,56.175
1125,279880,0.525576,0.29426399999999997,-0.918416,63.0525,293.5275,86.5375
1126,279977,0.8657120999999999,0.265228,-0.964532,86.6425,338.6425,111.7025
1127,280074,0.8066641,0.309392,-1.046028,95.2175,363.8075,124.5125
1128,280171,1.96298,0.076616,-0.7883640000000001,97.21251,387.765,136.325
1129,280269,1.5318319999999999,0.095648,-1.0565200000000001,102.8475,437.0975,115.395
1130,280366,1.7997439999999998,0.30378,-1.39446,71.47,477.785,102.1475
1131,280463,1.8304880000000001,0.206668,-1.521584,39.7775,491.8725,108.8675
1132,280560,1.9666400000000002,0.116632,-1.850252,3.4475,478.9575,111.37
1133,280657,2.3119,0.318176,-1.9881119999999999,-53.0775,414.8375,126.455
1134,280754,1.939556,0.332816,-2.224548,-20.51,424.8475,115.3425
1135,280851,0.682956,0.298168,-2.267004,-29.225,409.465,118.37
1136,280948,0.06466001,-0.630984,-0.45896400000000004,-73.4125,363.8775,139.7725
1137,281045,3.6895239999999996,-0.0061,-3.999404,-127.47,358.6975,168.14
1138,281142,2.8374759999999997,1.277096,-3.7517440000000004,-229.5125,159.04,136.955
1139,281240,1.658712,2.284816,-3.37696,-234.8675,-19.8975,111.9125
1140,281337,0.49263599999999996,2.47782,-2.37778,-130.2875,-136.9725,97.755
1141,281434,-0.057584,1.9717639999999999,-1.462048,4.7775,-172.0775,87.255
1142,281531,-0.213256,1.312964,-0.9137799999999999,97.6675,-171.6925,70.175
1143,281628,-0.121024,0.793244,-0.7068681,119.105,-163.5025,33.4075
1144,281725,0.118584,0.452376,-0.711504,81.32251,-164.9025,-17.7625
1145,281822,0.410408,0.44993599999999995,-0.8400921,10.7625,-180.95,-74.2175
1146,281919,0.601216,0.607804,-0.9381801,-45.71,-205.73,-117.845
1147,282016,0.74542,0.7237041,-0.9889319999999999,-63.245,-231.3325,-140.5775
1148,282113,0.858392,0.705892,-0.999668,-48.23,-254.24,-146.7375
1149,282210,0.956968,0.571204,-0.9825879999999999,-22.4,-275.8875,-145.7575
1150,282308,0.9701440999999998,0.40626,-0.9006040999999999,-4.025,-298.3575,-146.055
1151,282405,0.9372040999999999,0.254736,-0.7883640000000001,0.5775,-318.3075,-150.325
1152,282502,0.8818159999999999,0.14347200000000002,-0.677832,-7.1575,-331.6425,-157.3775
1153,282599,0.8547319999999999,0.06832001,-0.6168319999999999,-21.665,-337.3125,-164.5525
1154,282696,0.892308,0.028548,-0.6456241,-37.905,-336.0175,-169.8025
1155,282793,1.025776,-0.000244,-0.7666480999999999,-51.73,-330.9425,-171.29
1156,282890,1.190964,0.0017079999999999999,-0.912316,-62.1075,-327.565,-168.7525
1157,282987,1.336632,0.025863999999999998,-1.056032,-69.3,-329.035,-165.095
1158,283084,1.436428,0.040748,-1.1733959999999999,-73.815,-333.62,-163.625
1159,283181,1.536712,0.07246799999999999,-1.2883200000000001,-76.825,-339.185,-166.705
1160,283279,1.6836,0.1769,-1.407148,-78.4525,-344.575,-175.035
1161,283376,1.889536,0.281332,-1.557696,-75.4075,-348.705,-186.9
1162,283473,2.133292,0.43041599999999997,-1.723616,-66.85,-353.325,-202.3875
1163,283570,2.4156,0.543876,-1.874164,-50.8025,-359.03,-221.0425
1164,283667,2.748904,0.471896,-1.923452,-25.7075,-366.45,-242.0775
1165,283764,3.1417439999999996,0.37088000000000004,-1.8768479999999998,-0.6125,-375.445,-265.51
1166,283861,3.345972,0.28694400000000003,-1.645536,24.5525,-384.0375,-282.9925
1167,283958,3.4621160000000004,0.134444,-1.263676,52.92,-383.285,-288.96
1168,284055,3.6529239999999996,-0.12712400000000001,-0.642452,82.425,-369.53,-283.2375
1169,284152,4.296108,0.449204,0.567788,106.68,-352.45,-255.5525
1170,284249,4.9712559999999995,-1.459608,2.69254,161.4725,-328.475,-168.525
1171,284347,3.830312,-4.333684,5.46316,98.175,-303.6075,-111.72
1172,284444,3.2605720000000002,-3.081964,5.005172,-203.5075,-205.905,-100.5725
1173,284541,3.0097400000000003,-0.733952,3.3181559999999997,-333.0425,-60.41,-35.385
1174,284638,3.037068,0.311832,1.325408,-193.445,58.45,113.61
1175,284735,3.225436,0.404552,-0.233752,6.0725,119.945,245.28
1176,284832,2.250168,1.221708,-0.6958880000000001,105.175,132.2825,297.6575
1177,284929,0.9274440999999999,0.260592,-0.604388,211.8375,173.985,322.0175
1178,285026,-0.451888,1.00528,-1.281976,189.1575,195.5275,259.875
1179,285123,0.14713199999999999,1.409832,-0.57218,123.1475,221.6725,130.2175
1180,285220,0.42895200000000006,0.874252,-0.038796,92.925,262.92,9.6775
1181,285317,2.415844,-0.643672,-1.931504,68.74,320.7575,-45.8675
1182,285415,2.966308,-1.297104,-2.13378,83.51001,290.3425,-23.2575
1183,285512,1.578924,-1.39812,-1.123376,84.665,216.685,23.3625
1184,285609,1.405928,0.454816,-1.599664,29.33,195.2825,50.4
1185,285706,1.8417119999999998,0.69662,-0.7808001,63.35,179.2525,71.015
1186,285803,1.6548080000000003,0.6131721,-1.42984,91.1925,132.3875,51.7125
1187,285900,1.467172,-0.915732,-1.009184,116.2525,105.2625,44.6425
1188,285997,0.965752,-0.07515201,-1.06628,61.145,60.375,30.5725
1189,286094,0.9140241,0.07710399999999999,-1.041636,44.3625,44.9925,18.9175
1190,286191,0.8296,-0.194956,-0.9167081,42.5425,30.2575,13.5625
1191,286288,0.740296,0.09052401,-0.8554641,22.8725,17.3775,5.005
1192,286386,0.66856,0.045872,-0.839116,19.4425,8.3825,2.3625
1193,286483,0.622688,0.045384,-0.8322841000000001,15.4875,4.445,1.715
1194,286580,0.6326921,0.041968,-0.828868,12.39,2.52,0.28
1195,286677,0.606096,0.0488,-0.8095920999999999,11.9175,0.77,-0.56
1196,286774,0.60024,0.041236,-0.8127641,7.735,1.19,-1.26
1197,286871,0.59902,0.062464,-0.8103239999999999,6.3,1.1025,-2.4675
1198,286968,0.6036560999999999,0.060024,-0.807396,5.845,0.8925,-2.6075
1199,287065,0.5948720000000001,0.059536,-0.8066641,5.775,0.805,-2.31
1200,287162,0.596092,0.056608000000000006,-0.8095920999999999,6.755,0.6825,-1.3125
1201,287259,0.589016,0.043188,-0.806908,7.7875,0.875,-0.2625
1202,287356,0.5934081,0.032695999999999996,-0.8127641,7.91,1.435,0.4725
1203,287453,0.5987760999999999,0.04392,-0.81374,6.8775,2.03,0.4025
1204,287550,0.590236,0.030987999999999998,-0.8132520999999999,5.075,2.345,0.07
1205,287648,0.6007279999999999,0.04392,-0.8052,3.885,2.8,-0.315
1206,287745,0.590724,0.035624,-0.800564,3.2725,2.7475,-0.6475
1207,287842,0.596336,0.03172,-0.8020281,2.0475,3.01,-1.3475
1208,287939,0.591212,0.031964,-0.800808,1.295,2.9925,-2.065
1209,288036,0.5858439999999999,0.040992,-0.7978801,0.805,3.1325,-2.6075
1210,288133,0.589016,0.051972000000000004,-0.796172,0.49,3.3075,-2.73
1211,288230,0.585356,0.06075601,-0.797392,0.4375,3.4475,-2.4325
1212,288327,0.5887720000000001,0.07027201,-0.794952,0.77,3.4825,-1.9075
1213,288424,0.5875520000000001,0.057339999999999995,-0.79056,1.19,3.605,-1.225
1214,288521,0.592188,0.045384,-0.791048,0.9625,4.06,-1.47
1215,288619,0.5975560000000001,0.03538,-0.7893399999999999,0.6125,4.34,-1.4
1216,288716,0.5997520000000001,0.0244,-0.7861680999999999,-0.1225,4.4625,-0.9625
1217,288813,0.604876,0.02806,-0.783728,-1.4875,4.97,-2.45
1218,288910,0.5997520000000001,0.026108,-0.780556,-2.6775,5.2675,-5.0225
1219,289007,0.5941401,0.043188,-0.7812880999999999,-3.4825,6.0025,-6.93
1220,289104,0.587064,0.041968,-0.785192,-3.7275,6.7725,-5.18
1221,289201,0.5917,0.056608000000000006,-0.797392,-4.4975,7.3675,-4.7775
1222,289298,0.590236,0.063928,-0.7998321,-5.075,8.3125,-5.81
1223,289395,0.58804,0.046360000000000005,-0.800076,-5.74,9.9575,-5.6
1224,289492,0.584136,0.05563200000000001,-0.8052,-6.475,11.935,-4.4975
1225,289590,0.58316,0.057828,-0.7978801,-7.7,13.895,-5.4775
1226,289687,0.550708,0.061,-0.815204,-9.03,16.8175,-3.9375
1227,289784,0.5753520000000001,0.082228,-0.820572,-10.9375,21.035,-4.375
1228,289881,0.478972,0.046116000000000004,-0.8786440999999999,-12.4425,26.5475,-2.8875
1229,289978,0.590968,0.06636801,-0.8481440999999998,-14.35,35.595,-4.7075
1230,290075,0.596336,-0.016104,-0.8054439999999999,-17.36,44.17,-6.8425
1231,290172,0.5743761,-0.027327999999999998,-0.8071520000000001,-20.51,53.655,-10.1675
1232,290269,0.584136,0.040504000000000005,-0.8317960999999999,-26.985,67.4275,-15.89
1233,290366,0.56242,0.090036,-0.8671761,-29.925,82.3375,-16.9575
1234,290463,0.585356,0.10223600000000001,-0.8571719999999999,-32.6025,100.45,-12.705
1235,290560,0.60512,0.09150001,-0.83936,-36.8025,121.1,-8.9775
1236,290658,0.62098,0.09223200000000001,-0.8430200999999999,-37.9925,143.6925,-3.1675
1237,290755,0.613904,0.110044,-0.85156,-34.9125,171.9725,4.41
1238,290852,0.606096,0.095648,-0.8359440999999999,-25.5325,204.9775,12.74
1239,290949,0.476288,0.220088,-0.8913321,-12.215,239.4,26.2675
1240,291046,0.472384,0.289628,-0.903532,12.5825,279.23,48.86
1241,291143,0.69296,0.3111,-0.9267120000000001,32.9,316.225,80.36
1242,291240,0.6502600000000001,0.274744,-0.99308,39.27,351.645,94.93751
1243,291337,1.1568040000000002,0.322324,-1.007232,40.2325,373.8175,101.5525
1244,291434,1.543788,0.101016,-1.1529,58.205,425.7575,94.90250999999999
1245,291531,1.868064,0.191296,-1.339316,58.7825,482.09,75.9325
1246,291628,1.937116,0.305,-1.56526,30.2575,519.575,77.875
1247,291726,1.9666400000000002,0.33428,-1.7450880000000002,-2.6075,518.525,85.34751
1248,291823,2.112552,0.09418401,-1.7441119999999999,-41.23,474.145,92.5925
1249,291920,2.76452,0.454816,-2.110112,-65.87,428.2425,107.1525
1250,292017,1.010648,0.08174001,-2.2723720000000003,-27.7375,457.905,85.90751
1251,292114,-0.1281,-0.6161,-1.8343919999999998,-89.2675,431.9175,102.8825
1252,292211,2.250168,-0.7571321,-1.018944,-199.0625,374.885,134.575
1253,292308,3.402824,0.179584,-3.3096160000000006,-340.6725,333.5675,153.23
1254,292405,2.939956,1.824632,-3.6153480000000005,-425.39,106.8025,135.6425
1255,292502,1.6933599999999998,2.936784,-3.254716,-382.305,-76.30001,122.115
1256,292599,0.698328,3.1229560000000003,-2.3250759999999997,-214.27,-196.84,112.1925
1257,292696,0.101992,2.358748,-1.343708,-12.705,-241.9025,111.6675
1258,292794,-0.09516001,1.522804,-0.711992,128.73,-241.9725,108.815
1259,292891,-0.2745,0.8823040000000001,-0.329156,180.005,-228.7775,81.18251
1260,292988,-0.273524,0.38356799999999996,-0.181536,159.3725,-210.98,34.4925
1261,293085,-0.017812,0.150304,-0.285724,80.955,-197.8375,-27.5625
1262,293182,0.315736,0.290848,-0.48922,-18.8825,-198.17,-91.49
1263,293279,0.60024,0.587796,-0.716384,-88.6725,-209.825,-139.195
1264,293376,0.8222799999999999,0.8666879999999999,-0.937448,-104.3175,-227.71,-162.645
1265,293473,0.9860040999999999,0.966484,-1.042856,-71.4875,-249.095,-166.5125
1266,293570,1.049444,0.803492,-1.0079639999999999,-15.995,-273.0875,-160.335
1267,293667,1.0279719999999999,0.5160600000000001,-0.8862081,27.9125,-295.8375,-156.6775
1268,293765,0.9769760000000001,0.271328,-0.7622561,42.4025,-315.1925,-162.365
1269,293862,0.9423280999999999,0.096868,-0.6944241,31.01,-329.105,-175.1575
1270,293959,0.998692,0.018788,-0.7017439999999999,6.0025,-335.895,-189.5075
1271,294056,1.118984,-0.000244,-0.749568,-19.8975,-338.87,-199.22
1272,294153,1.235616,0.021716,-0.8244761,-39.76,-340.69,-202.8775
1273,294250,1.362496,0.057339999999999995,-0.9391560999999999,-51.275,-341.4775,-201.2325
1274,294347,1.511824,0.07978801,-1.084824,-55.86,-341.8275,-197.26
1275,294444,1.7326439999999999,0.139812,-1.2724600000000001,-58.1525,-344.54,-194.495
1276,294541,2.006656,0.251564,-1.471076,-59.71,-350.875,-195.9475
1277,294638,2.292136,0.45871999999999996,-1.657736,-58.5725,-362.1625,-202.51
1278,294735,2.594208,0.7044279999999999,-1.8236560000000002,-48.7375,-375.585,-213.29
1279,294832,2.8299119999999998,0.766892,-1.86294,-25.515,-389.06,-228.2175
1280,294930,3.0866,0.348188,-1.713856,4.62,-397.46,-253.82
1281,295027,3.4757800000000003,0.34892,-1.6853080000000003,12.46,-401.7475,-284.4275
1282,295124,3.6983080000000004,0.284748,-1.4313040000000001,30.59,-400.54,-296.2575
1283,295221,3.862764,0.008296000999999999,-0.8669319999999999,60.725,-387.205,-292.775
1284,295318,4.660888,0.42138809999999993,0.274744,87.4125,-372.435,-270.3925
1285,295415,5.58638,-1.188036,2.691564,142.9575,-360.395,-193.6025
1286,295512,4.020388,-4.276344,6.0804800000000006,111.1075,-349.86,-136.185
1287,295609,3.089528,-3.945968,6.118544,-165.9875,-249.06,-123.3925
1288,295706,2.955816,-1.274656,3.868376,-325.955,-65.29251,-37.1175
1289,295803,2.62056,0.735172,1.106296,-194.1275,81.375,130.445
1290,295901,2.5110040000000002,0.20008,0.9528200000000001,98.0525,236.145,316.2425
1291,295998,2.673264,-0.779092,-2.0181240000000003,240.8525,280.385,415.7475
1292,296095,1.80804,0.8281360999999999,-2.388028,169.54,226.73,350.035
1293,296192,-0.642452,0.9511120000000001,0.434564,153.02,174.5275,247.6775
1294,296289,0.4514,0.9564799999999999,-0.35672800000000005,86.31,261.6075,124.32
1295,296386,3.8793559999999996,0.202276,-3.270088,40.285,357.9625,37.4325
1296,296483,2.3140959999999997,-0.6844201,-1.322968,83.2825,258.6325,40.3375
1297,296580,1.6862840000000001,0.652944,-2.25212,63.6475,197.0325,51.45
1298,296677,1.096536,-0.121512,-0.5797441,106.26,174.44,66.36
1299,296774,2.70962,0.215696,-2.015196,82.215,148.6275,48.7725
1300,296871,1.070916,-0.386252,-0.8784,94.93751,85.435,41.3
1301,296969,1.0016200000000002,-0.205692,-1.214388,55.5275,45.2375,17.01
1302,297066,0.7019880000000001,0.0488,-0.882548,35.2975,31.6925,5.7225
1303,297163,0.71004,0.0051240009999999996,-0.8884040000000001,30.345,23.2225,1.6625
1304,297260,0.652212,0.043188,-0.8581479999999999,22.75,17.9375,-0.4025
1305,297357,0.666852,0.05002,-0.840824,17.4475,15.085,-2.2575
1306,297454,0.669292,0.027327999999999998,-0.84546,12.6875,11.97,-4.235
1307,297551,0.620004,0.058072000000000006,-0.823744,7.0175,10.2725,-6.3
1308,297648,0.625372,0.042212,-0.8076399999999999,5.67,8.715,-7.0175
1309,297745,0.625128,0.055388,-0.809836,3.045,8.47,-7.9625
1310,297842,0.6280560000000001,0.058316,-0.8095920999999999,2.0825,7.7175,-8.645
1311,297939,0.6222,0.06588,-0.80886,1.3825,6.65,-8.645
1312,298037,0.62098,0.064172,-0.8100801,1.225,5.6,-8.1025
1313,298134,0.6156119999999999,0.057339999999999995,-0.80276,0.7,5.11,-8.05
1314,298231,0.6034121,0.056608000000000006,-0.8071520000000001,-0.2275,5.04,-8.3475
1315,298328,0.6058520000000001,0.061975999999999996,-0.8127641,-0.665,5.775,-8.3825
1316,298425,0.610488,0.06344,-0.8127641,-1.435,6.7725,-8.5925
1317,298522,0.6161,0.058316,-0.803248,-2.415,7.5775,-9.24
1318,298619,0.618784,0.072712,-0.7991,-3.465,8.015,-9.905
1319,298716,0.6141479999999999,0.07490801,-0.8010520000000001,-4.0775,8.2425,-10.08
1320,298813,0.612684,0.083204,-0.789828,-4.6375,8.505,-9.6425
1321,298910,0.6161,0.07710399999999999,-0.782752,-5.3375,8.6275,-9.1875
1322,299008,0.6068279999999999,0.08954801,-0.78446,-5.8275,7.9975,-8.05
1323,299105,0.6080479999999999,0.08662001,-0.776896,-5.495,7.805,-6.825
1324,299202,0.606096,0.102724,-0.7766521,-5.67,7.91,-6.2825
1325,299299,0.6131721,0.104432,-0.7759199999999999,-4.865,8.0675,-5.355
1326,299396,0.6109760000000001,0.10736,-0.769088,-4.025,8.155,-4.1475
1327,299493,0.61732,0.105652,-0.7673800000000001,-3.7975,8.2775,-2.345
1328,299590,0.612928,0.112728,-0.7659161,-4.165,8.1025,0.175
1329,299687,0.61488,0.128832,-0.756888,-4.585,7.8925,2.835
1330,299784,0.6314721,0.108824,-0.754448,-3.08,8.0325,4.7775
1331,299881,0.630008,0.104432,-0.752984,-1.54,7.6125,5.2675
1332,299979,0.638548,0.06954,-0.7522521,-0.1925,7.105,4.34
1333,300076,0.645868,0.060024,-0.756156,0.4725,6.335,2.3275
1334,300173,0.6373281,0.060267999999999995,-0.758596,-0.07,5.0575,-0.14
1335,300270,0.61854,0.062464,-0.762744,-1.1725,3.8325,-2.24
1336,300367,0.59292,0.080276,-0.7820199999999999,-2.4325,4.0775,-3.7625
1337,300464,0.54778,0.0854,-0.7861680999999999,-3.5175,7.5425,-4.515
1338,300561,0.561688,0.0854,-0.789828,-5.1625,14.315,-5.0925
1339,300658,0.559004,0.079544,-0.782752,-8.1025,21.42,-5.005
1340,300755,0.576328,0.068076,-0.792512,-12.0925,29.33,-4.9525
1341,300852,0.5577840000000001,0.095648,-0.8091041,-17.43,37.8525,-5.4775
1342,300950,0.598288,0.09711201,-0.786656,-22.54,48.055,-6.58
1343,301047,0.623908,0.08857201,-0.778116,-28.56,58.8875,-8.645
1344,301144,0.58194,0.0549,-0.81984,-34.0725,69.86,-10.675
1345,301241,0.643184,0.08784,-0.8003201,-39.4625,78.34751,-7.385
1346,301338,0.633912,0.046116000000000004,-0.7705521,-37.345,89.32,-8.61
1347,301435,0.629764,0.07808001,-0.8030041,-33.915,103.6525,-11.935
1348,301532,0.590968,0.117852,-0.826428,-34.23,121.4325,-12.39
1349,301629,0.5514399999999999,0.156404,-0.8403360000000001,-33.4075,145.705,-6.51
1350,301726,0.572912,0.145424,-0.83204,-29.5575,174.79,0.42
1351,301824,0.5321640000000001,0.18788,-0.8405800999999999,-24.6225,206.465,8.9775
1352,301921,0.5380199999999999,0.216916,-0.8764481,-15.3825,238.665,22.855
1353,302018,0.709064,0.34892,-0.8291120999999999,-2.6075,259.63,44.38
1354,302115,0.51484,0.298168,-0.773724,3.2725,288.47,61.0575
1355,302212,1.059936,0.262056,-0.960384,8.05,323.68,83.93001
1356,302309,1.7385,0.20837600000000003,-1.051396,28.9975,378.9275,86.975
1357,302406,1.6504159999999999,0.15616,-1.226344,29.4525,466.375,68.6
1358,302503,1.6399240000000002,0.32866799999999996,-1.3466360000000002,-0.49,524.195,59.5
1359,302600,1.9834759999999998,0.32256799999999997,-1.559404,-27.3525,549.955,70.315
1360,302698,2.1301200000000002,0.33818400000000004,-1.6814040000000001,-34.685,527.0475,69.52750999999999
1361,302795,1.879044,0.217892,-1.691164,-57.96,464.38,67.585
1362,302892,2.8809080000000002,0.320128,-1.8778240000000002,-65.065,477.4875,69.87751
1363,302989,0.828624,-0.32866799999999996,-1.992016,-46.235,508.935,71.8375
1364,303086,0.11345999999999999,-0.8396040000000001,-1.92638,-111.055,500.64,99.015
1365,303183,3.715632,-0.21716,-1.607472,-253.7325,459.6025,116.69
1366,303280,4.220224,0.8254520000000001,-4.055524,-374.4825,344.925,132.965
1367,303377,3.134912,2.5498,-4.336856,-403.8475,49.1225,110.7575
1368,303474,1.42618,3.017792,-3.398432,-296.2575,-168.98,87.78
1369,303571,0.582916,2.624708,-1.9612720000000001,-99.68,-280.035,78.4525
1370,303668,0.12932000000000002,1.6918959999999998,-1.053104,78.295,-308.9975,94.2725
1371,303766,-0.014884,1.0382200000000001,-0.5231359999999999,171.9375,-295.8375,106.855
1372,303863,-0.12029200000000001,0.5726680000000001,-0.271328,192.29,-278.32,101.08
1373,303960,-0.040748,0.28694400000000003,-0.254004,158.2175,-260.155,78.68
1374,304057,0.21862399999999999,0.156892,-0.37112399999999995,90.65001,-250.635,43.68
1375,304154,0.41260399999999997,0.15616,-0.457988,11.445,-255.395,3.9025
1376,304251,0.525088,0.36722,-0.549244,-63.595,-269.535,-34.9825
1377,304348,0.6182960999999999,0.6663640000000001,-0.654652,-108.3425,-284.83,-65.03
1378,304445,0.771528,0.9242720999999999,-0.784704,-111.6675,-297.675,-82.88
1379,304542,0.9252481,1.000644,-0.8579041,-80.325,-310.52,-92.225
1380,304640,0.98088,0.8762040000000001,-0.8403360000000001,-36.4,-325.9375,-99.785
1381,304737,0.94916,0.6375721,-0.759084,-3.7975,-340.375,-112.2975
1382,304834,0.9386681,0.403088,-0.6958880000000001,4.935,-349.7025,-132.1425
1383,304931,1.040904,0.266936,-0.711992,-7.84,-354.13,-156.0125
1384,305028,1.216584,0.205204,-0.792024,-28.7525,-356.4925,-176.8375
1385,305125,1.398364,0.186904,-0.9125601000000001,-46.9875,-359.73,-190.5225
1386,305222,1.5403719999999999,0.20008,-1.026996,-58.66,-364.2975,-197.575
1387,305319,1.71288,0.24326799999999998,-1.1716879999999998,-62.9475,-368.2875,-200.235
1388,305416,1.958588,0.317688,-1.340048,-61.4425,-371.7875,-202.09
1389,305513,2.210884,0.46726,-1.49694,-55.685,-377.965,-207.0425
1390,305611,2.496364,0.633912,-1.6972639999999999,-43.68,-385.1225,-217.21
1391,305708,2.84626,0.68808,-1.8343919999999998,-25.69,-393.5225,-234.5175
1392,305805,3.030968,0.1952,-1.7160520000000001,-5.2325,-404.915,-264.6525
1393,305902,3.447476,0.156648,-1.707024,-7.2275,-412.9475,-307.51
1394,305999,3.7205120000000003,0.294996,-1.552084,-0.455,-415.835,-332.7625
1395,306096,3.9698800000000003,0.164212,-1.257576,39.795,-404.04,-331.205
1396,306193,4.219004,0.30378,-0.312564,92.1375,-387.5725,-308.5775
1397,306290,4.8495,-0.01098,1.3298,154.5775,-371.2975,-237.7375
1398,306387,4.85804,-3.244712,4.610624,189.595,-349.1775,-143.08
1399,306484,3.611932,-5.240632,6.335459999999999,-52.185,-301.6125,-107.1525
1400,306582,3.423808,-2.030812,4.725304,-374.815,-157.5525,-72.4325
1401,306679,3.0317,0.48702399999999996,2.424384,-365.4,-18.62,29.1725
1402,306776,3.07196,1.017724,0.373076,-110.95,91.1575,186.6375
1403,306873,2.715964,-0.238632,-1.057496,112.9975,127.54,284.83
1404,306970,0.6280560000000001,0.538508,-0.09272000000000001,170.135,170.17,328.65
1405,307067,-0.04514,1.4884,-1.874164,144.69,176.12,291.5325
1406,307164,0.128344,0.897432,-0.49776000000000004,180.5125,202.23,244.195
1407,307261,-0.225456,0.493856,0.9098761000000001,160.0725,251.755,157.29
1408,307358,2.216008,0.071248,-2.0374,72.45,333.585,57.5925
1409,307455,3.4438160000000004,-0.72224,-2.406816,73.9375,326.97,25.6725
1410,307552,2.105476,-0.9333,-1.4539959999999998,73.29,239.995,33.0225
1411,307650,1.7204439999999999,0.2989,-1.647488,32.5675,201.1275,45.7625
1412,307747,1.827072,0.29524,-0.8801081000000001,56.8925,171.92,62.1775
1413,307844,1.281,0.32574000000000003,-1.143384,72.1,122.9025,44.8525
1414,307941,1.374208,-0.176656,-1.21878,82.425,104.4575,32.655
1415,308038,0.959408,0.058803999999999995,-1.0230920000000001,65.66,69.4575,30.0125
1416,308135,0.9198799999999999,-0.188368,-1.0760399999999999,52.15,50.505,17.8325
1417,308232,0.7793359999999999,-0.029524,-0.9530641,39.13,34.9125,10.64
1418,308329,0.667096,0.09394001,-0.8784,27.685,25.095,4.8125
1419,308426,0.7137001000000001,0.020008,-0.8664440000000001,24.955,20.265,3.29
1420,308523,0.685884,-0.014884,-0.8520479999999999,18.5675,14.7525,1.33
1421,308620,0.61732,0.063196,-0.8476561,12.39,10.0975,-1.155
1422,308718,0.650748,0.01586,-0.8117880000000001,9.5025,9.415,-2.1
1423,308815,0.6229319999999999,0.014884,-0.807396,6.475,7.49,-3.3075
1424,308912,0.6082920999999999,0.035624,-0.807884,2.7475,5.7575,-5.0925
1425,309009,0.61366,0.044407999999999996,-0.798124,1.4525,5.46,-5.88
1426,309106,0.618052,0.047580000000000004,-0.793244,0.77,5.5825,-6.4925
1427,309203,0.608536,0.059048,-0.8081281,0.4725,5.18,-6.79
1428,309300,0.61,0.06588,-0.8095920999999999,0.3675,5.0575,-6.7025
1429,309397,0.6109760000000001,0.05856,-0.8095920999999999,0.5425,5.3725,-6.335
1430,309494,0.61732,0.071004,-0.803492,0.2625,5.67,-6.37
1431,309592,0.60878,0.056852,-0.8025161,-0.105,5.9675,-6.5625
1432,309689,0.6219561,0.061488,-0.7849480999999999,-0.4725,6.44,-6.9125
1433,309786,0.610244,0.064172,-0.798124,-0.8400001,7.07,-6.79
1434,309883,0.61488,0.06832001,-0.797148,-0.91,7.35,-6.51
1435,309980,0.6082920999999999,0.06636801,-0.786656,-0.9625,7.315,-5.985
1436,310077,0.6141479999999999,0.07393200000000001,-0.7849480999999999,-0.945,7.1225,-5.7225
1437,310174,0.610244,0.08417999999999999,-0.7849480999999999,-0.9275,7.0175,-5.1975
1438,310271,0.616588,0.091744,-0.783972,-0.8925,6.7375,-4.5325
1439,310368,0.6141479999999999,0.089792,-0.777384,-0.6125,6.5625,-3.5525
1440,310465,0.6182960999999999,0.081984,-0.7808001,-0.3675,6.4225,-2.3975
1441,310563,0.616588,0.079056,-0.7754321,-0.5425,6.3175,-1.33
1442,310660,0.61366,0.062220000000000004,-0.777384,-0.98,6.1075,-0.14
1443,310757,0.6161,0.046116000000000004,-0.7673800000000001,-2.31,6.055,0.6125
1444,310854,0.62098,0.040016,-0.7686,-4.6375,6.1425,0.805
1445,310951,0.637084,0.054167999999999994,-0.757864,-5.4775,6.0375,-0.4725
1446,311048,0.633424,0.060512,-0.757376,-4.48,4.83,-3.36
1447,311145,0.606584,0.08003201,-0.763476,-3.9025,3.43,-5.6175
1448,311242,0.592432,0.10223600000000001,-0.7617681,-4.445,2.555,-5.9325
1449,311339,0.572912,0.098088,-0.771772,-4.8825,2.4675,-4.6025
1450,311436,0.5694961,0.08174001,-0.7834840000000001,-5.04,4.0425,-2.1
1451,311533,0.556076,0.09711201,-0.784704,-5.7575,7.4725,-0.0175
1452,311631,0.5380199999999999,0.09711201,-0.792512,-5.46,11.4275,3.22
1453,311728,0.6070720000000001,0.08344800000000001,-0.7993439999999999,-5.2675,17.3425,7.315
1454,311825,0.630008,0.041236,-0.798124,-7.105,22.2075,9.485
1455,311922,0.58194,0.048068,-0.797392,-9.9575,26.145,7.7525
1456,312019,0.5892601,0.059536,-0.8039801,-13.93,33.6875,2.87
1457,312116,0.599508,0.06954,-0.791536,-20.9825,43.47,-2.52
1458,312213,0.587064,0.039528,-0.7986121,-26.95,53.34,-6.965
1459,312310,0.6075600999999999,0.018544,-0.7954399999999999,-30.5375,63.1225,-10.71
1460,312407,0.6224441,0.049288,-0.8042239999999999,-30.275,74.0775,-15.75
1461,312504,0.598532,0.091012,-0.8117880000000001,-28.455,87.53501,-17.9025
1462,312602,0.581696,0.12248800000000001,-0.8405800999999999,-30.9575,105.21,-17.8675
1463,312699,0.599508,0.15372,-0.8637601,-34.02,127.2075,-12.425
1464,312796,0.615368,0.11467999999999999,-0.8369200000000001,-32.305,152.6875,-3.3775
1465,312893,0.6075600999999999,0.170312,-0.863516,-27.0375,184.03,4.55
1466,312990,0.586088,0.191296,-0.8247200000000001,-13.93,214.4625,18.76
1467,313087,0.5516840000000001,0.23887600000000003,-0.8971879999999999,4.445,248.01,43.3475
1468,313184,0.755424,0.294508,-0.844972,19.985,282.345,70.14
1469,313281,0.6380600000000001,0.30841599999999997,-0.961116,16.4675,319.6025,84.1925
1470,313378,1.086288,0.284748,-0.958432,15.3125,350.385,102.6375
1471,313475,1.7226400000000002,0.19885999999999998,-1.2336639999999999,36.26,403.3575,108.5
1472,313572,1.8788,0.21520799999999998,-1.378112,53.13,467.5475,86.625
1473,313670,1.720932,0.35160399999999997,-1.518168,26.9675,517.37,81.7075
1474,313767,1.973716,0.30353600000000003,-1.6348,4.7775,528.9375,93.87
1475,313864,1.920768,0.149816,-1.7951080000000001,-30.765,505.3475,93.5025
1476,313961,2.227964,0.35672800000000005,-1.897588,-59.6925,450.17,112.28
1477,314058,2.1596439999999997,0.096624,-2.12768,-42.455,460.915,104.3875
1478,314155,0.489464,-0.205448,-2.164524,-49.3325,467.0575,98.98001
1479,314252,0.6131721,-0.8310639999999999,0.028304000000000003,-137.6025,411.6875,127.82
1480,314349,4.180452,-0.009516001,-3.8769160000000005,-247.205,399.63,161.1925
1481,314446,3.2117720000000003,1.3481,-3.7175839999999996,-331.7825,172.8825,144.7075
1482,314543,2.096204,2.567856,-3.7588199999999996,-321.02,-32.1825,128.94
1483,314640,0.849608,2.757688,-2.564196,-180.95,-178.465,119.91
1484,314738,0.168848,2.226988,-1.4635120000000001,-8.26,-234.4475,120.5925
1485,314835,-0.10540799999999999,1.505724,-0.782752,128.8175,-240.4675,126.805
1486,314932,-0.254004,0.9413520000000001,-0.387716,187.705,-226.3275,115.01
1487,315029,-0.24034,0.51118,-0.26156799999999997,181.7725,-208.565,83.09000999999999
1488,315126,-0.038064,0.22472399999999998,-0.320372,124.6175,-196.5425,36.1025
1489,315223,0.250832,0.20984,-0.47677600000000003,34.8775,-197.2425,-20.23
1490,315320,0.522404,0.460916,-0.677344,-51.3625,-211.4875,-73.2025
1491,315417,0.720776,0.7998321,-0.850096,-96.1975,-233.205,-109.7075
1492,315514,0.8935280999999999,1.024556,-0.9777081,-86.835,-256.3925,-126.21
1493,315611,0.9821,0.983564,-0.981612,-39.3925,-279.8075,-128.45
1494,315708,1.0065,0.726876,-0.8893800999999999,11.8125,-302.155,-127.4175
1495,315805,0.9691681000000001,0.45603599999999994,-0.7473721,38.3425,-322.5775,-133.875
1496,315903,0.9267120000000001,0.265716,-0.64294,35.56,-338.52,-148.89
1497,316000,0.915732,0.16226,-0.6117081,16.0475,-347.4975,-166.4775
1498,316097,1.0187,0.1281,-0.6414761,-5.845,-349.5975,-179.2175
1499,316194,1.1333799999999998,0.1281,-0.7093081,-22.155,-349.5275,-184.2925
1500,316291,1.2641639999999998,0.136884,-0.8249639999999999,-31.57,-348.2325,-182.8575
1501,316388,1.404708,0.12932000000000002,-0.96014,-35.77,-347.97,-178.36
1502,316485,1.545984,0.123708,-1.10776,-39.6025,-350.49,-174.685
1503,316582,1.7219080000000002,0.147376,-1.2627,-45.7275,-355.3375,-174.5625
1504,316679,1.974204,0.246196,-1.46278,-54.145,-362.4425,-179.8825
1505,316776,2.277984,0.443104,-1.6745720000000002,-60.2175,-372.4,-190.225
1506,316873,2.592988,0.70394,-1.87148,-56.175,-384.755,-203.77
1507,316970,2.9636240000000003,0.921344,-2.0276400000000003,-36.1025,-396.2875,-219.345
1508,317068,3.094896,0.307196,-1.796572,-0.2275,-406.7875,-238.1575
1509,317165,3.604368,0.086132,-1.758752,6.72,-412.755,-273.84
1510,317262,3.784196,0.17519200000000001,-1.474248,1.2425,-420.4025,-298.375
1511,317359,3.98086,0.22277199999999997,-0.7937320999999999,27.055,-411.25,-294.1925
1512,317456,4.74458,0.358192,0.370636,73.8675,-391.7725,-247.905
1513,317553,5.4229,-2.037156,2.98046,133.315,-370.7025,-162.1725
1514,317650,4.079192,-4.5708519999999995,6.122936,21.3325,-352.45,-132.3875
1515,317747,3.2717959999999997,-3.009496,5.649332,-260.61,-246.54,-120.6625
1516,317844,3.111488,-0.7605481,3.5999760000000003,-335.7025,-68.145,-18.235
1517,317941,2.551752,0.8476561,1.492548,-153.755,76.5625,149.3975
1518,318038,2.204052,-0.165432,1.109224,130.095,234.1325,327.705
1519,318135,2.411696,-0.26718000000000003,-2.036912,226.03,282.555,402.43
1520,318233,1.340536,1.248548,-2.010316,156.485,235.235,314.1425
1521,318330,-0.5206960999999999,1.2609920000000001,0.607316,141.505,211.1025,192.71
1522,318427,1.53354,0.564372,-1.343708,76.65,305.9,65.17
1523,318524,3.865448,-0.120048,-3.1476,46.34,344.9425,-0.0525
1524,318621,1.76046,-1.095316,-0.9947881,87.2375,235.4625,18.7425
1525,318718,1.019188,-0.323056,-1.049688,49.9975,198.7125,40.46
1526,318815,1.78486,0.305732,-1.315404,50.47,197.645,68.425
1527,318912,1.9183279999999998,0.9869800999999999,-1.3949479999999999,92.3125,153.7025,75.39
1528,319009,1.8397599999999998,-0.446032,-0.9850280999999999,100.31,118.0725,53.5675
1529,319106,0.8744960999999999,-0.5885281,-1.1477760000000001,83.2475,53.7075,34.475
1530,319204,0.847412,0.187148,-0.958432,41.58,47.075,18.655
1531,319301,0.790072,-0.05929201,-0.946232,41.37,31.9025,12.3375
1532,319398,0.724436,0.00976,-0.927932,31.8675,23.205,8.575
1533,319495,0.6734399999999999,-0.00366,-0.830332,21.63,17.0625,3.9725
1534,319592,0.642696,0.040260000000000004,-0.8308200000000001,15.7675,11.06,1.0675
1535,319689,0.638548,0.037088,-0.831308,11.865,8.4,-0.6475
1536,319786,0.633424,0.032451999999999995,-0.8076399999999999,9.695,6.0025,-1.1725
1537,319883,0.621468,0.041724000000000004,-0.808372,7.0875,4.6725,-2.2925
1538,319980,0.620736,0.056608000000000006,-0.808372,5.915,3.3775,-2.485
1539,320077,0.61732,0.05636401,-0.803736,5.5125,2.7825,-2.2925
1540,320174,0.6109760000000001,0.044896,-0.797392,5.7925,2.2225,-1.715
1541,320271,0.612196,0.046604,-0.805688,5.46,1.9775,-1.68
1542,320369,0.6021920000000001,0.04148,-0.8132520999999999,4.6025,1.9425,-1.96
1543,320466,0.606584,0.044652,-0.817156,4.0075,2.625,-1.9425
1544,320563,0.604388,0.045627999999999995,-0.8113001,3.29,2.87,-1.68
1545,320660,0.601704,0.046116000000000004,-0.8054439999999999,1.855,3.395,-1.89
1546,320757,0.6029241,0.05612,-0.803492,1.015,3.78,-1.995
1547,320854,0.60268,0.059536,-0.802272,0.63,3.99,-1.855
1548,320951,0.6058520000000001,0.057828,-0.797636,0.2975,3.955,-1.61
1549,321048,0.612928,0.067832,-0.7903161,0.21,3.8325,-1.4175
1550,321145,0.604876,0.060512,-0.7890961,0.8575,3.045,-0.805
1551,321242,0.606096,0.061,-0.79178,1.0675,2.38,-0.4725
1552,321339,0.60268,0.06075601,-0.791292,1.1375,1.6975,-0.2975
1553,321437,0.614636,0.058316,-0.791048,0.8925,1.6625,-0.1225
1554,321534,0.59292,0.042456,-0.787388,0.6825,1.3825,-0.0525
1555,321631,0.6107319999999999,0.046116000000000004,-0.785192,-0.1575,1.5925,-0.4025
1556,321728,0.6156119999999999,0.043432,-0.792024,-0.595,1.2775,0.0175
1557,321825,0.609268,0.030012,-0.7861680999999999,-1.365,1.54,-0.665
1558,321922,0.607316,0.022692,-0.7659161,-1.7675,2.065,-0.875
1559,322019,0.61732,0.015372,-0.7625,-2.2575,3.0625,-1.6975
1560,322116,0.613904,0.028548,-0.759572,-2.31,2.835,-3.99
1561,322213,0.597312,0.061732,-0.7771399999999999,-2.59,2.6425,-5.075
1562,322310,0.601704,0.07173600000000001,-0.787388,-1.68,2.2925,-4.27
1563,322407,0.5873079999999999,0.07637200000000001,-0.7761640999999999,-1.1725,2.1525,-3.8675
1564,322505,0.57218,0.060267999999999995,-0.79666,-1.05,3.0625,-4.305
1565,322602,0.57218,0.073688,-0.795928,-1.3125,5.11,-4.8475
1566,322699,0.5875520000000001,0.060267999999999995,-0.790804,-2.94,7.875,-7.21
1567,322796,0.561932,0.06563601,-0.8210601000000001,-5.3375,11.5325,-5.32
1568,322893,0.5941401,0.044652,-0.809836,-7.2975,14.91,-4.725
1569,322990,0.520208,-0.00122,-0.828868,-8.8375,19.3375,-4.6725
1570,323087,0.562176,0.057584,-0.8510719999999999,-12.495,27.16,-6.0025
1571,323184,0.590724,0.062464,-0.8322841000000001,-14.8925,33.6175,-6.055
1572,323281,0.569984,0.013175999999999998,-0.813496,-18.375,41.86,-6.125
1573,323378,0.5948720000000001,0.00976,-0.8071520000000001,-23.765,51.52,-8.12
1574,323475,0.59902,0.02684,-0.809836,-24.7275,61.8625,-10.4825
1575,323573,0.5892601,0.062464,-0.81618,-23.835,74.5325,-13.3525
1576,323670,0.576572,0.10833599999999999,-0.8647360000000001,-26.1275,89.6175,-14.3325
1577,323767,0.59048,0.12029200000000001,-0.8422879999999999,-28.1225,106.5575,-10.15
1578,323864,0.6178081,0.139568,-0.863028,-29.4875,128.4675,-4.3925
1579,323961,0.629764,0.16226,-0.8662001,-24.15,154.7,1.9425
1580,324058,0.6453800000000001,0.16201600000000002,-0.8010520000000001,-15.82,182.98,11.8825
1581,324155,0.5785241,0.12980799999999998,-0.769088,-7.665,215.7575,24.5175
1582,324252,0.531676,0.207156,-0.8337481,6.1775,255.5875,44.9925
1583,324349,0.5577840000000001,0.157136,-0.755424,25.795,297.1325,69.1425
1584,324446,0.8869401,0.267912,-0.9921040999999999,26.39,336.9975,87.0975
1585,324543,0.8086161000000001,0.317688,-1.0084520000000001,28.0175,361.7775,95.865
1586,324640,2.13256,0.195688,-1.072868,37.9925,400.1025,105.5075
1587,324738,1.7931560000000002,0.089304,-1.2587959999999998,65.7125,454.9475,83.0025
1588,324835,1.642364,0.263764,-1.369328,58.17,502.18,76.51
1589,324932,2.007876,0.24278000000000002,-1.5518399999999999,28.315,518.4725,83.9125
1590,325029,2.0108040000000003,0.180316,-1.764364,-7.35,500.2725,85.505
1591,325126,2.165988,0.21520799999999998,-1.828048,-46.8125,435.4,105.315
1592,325223,2.478064,0.111508,-2.212104,-36.2075,427.35,109.1825
1593,325320,0.7795801,-0.21081599999999998,-2.136464,-37.6075,439.3025,87.7625
1594,325417,-0.260592,-1.185352,-0.674172,-128.1175,376.915,104.5275
1595,325514,3.605832,-0.334036,-3.4857839999999998,-225.9775,354.865,151.9
1596,325611,2.753784,0.8174001000000001,-3.2815559999999997,-326.8125,183.19,146.9825
1597,325708,2.050576,2.125484,-3.4221,-343.805,3.7275,144.3225
1598,325805,0.9037761000000001,2.643496,-2.571516,-242.655,-125.195,144.025
1599,325903,0.31451599999999996,2.369484,-1.684088,-84.175,-185.57,140.805
1600,326000,0.04514,1.6960439999999999,-1.0316319999999999,53.97,-207.585,136.0275
1601,326097,-0.11248399999999999,1.1529,-0.596336,120.89,-208.5825,111.0725
1602,326194,-0.142252,0.7288279999999999,-0.395768,125.6325,-202.0025,68.5825
1603,326291,-0.045627999999999995,0.457988,-0.35502,82.1275,-197.365,14.49
1604,326388,0.170068,0.432612,-0.44334799999999996,10.255,-197.715,-45.325
1605,326485,0.434808,0.600484,-0.617564,-56.2625,-204.925,-99.27750999999999
1606,326582,0.6707561,0.8108121,-0.8071520000000001,-87.1325,-219.3275,-136.0625
1607,326679,0.853756,0.9125601000000001,-0.9503799999999999,-76.2125,-238.0,-154.2275
1608,326776,0.9474520000000001,0.815448,-0.9864921,-38.675,-259.49,-159.81
1609,326874,0.9638,0.567788,-0.907192,-0.4725,-281.0325,-162.1375
1610,326971,0.9616040000000001,0.31451599999999996,-0.80642,18.585,-299.8625,-167.7375
1611,327068,0.987224,0.128344,-0.7417600000000001,16.1,-314.86,-176.9425
1612,327165,1.033096,-0.002684,-0.71858,-0.4025,-325.8325,-186.7075
1613,327262,1.099952,-0.06661201,-0.7439560000000001,-22.645,-332.7975,-193.585
1614,327359,1.2456200000000002,-0.083204,-0.79178,-43.4175,-336.07,-195.51
1615,327456,1.354688,-0.056608000000000006,-0.8569280999999999,-58.9925,-339.2375,-192.5
1616,327553,1.4130040000000001,-0.0061,-0.935008,-67.2175,-342.5625,-186.76
1617,327650,1.498404,0.054655999999999996,-1.044808,-68.65250999999999,-343.77,-180.53
1618,327747,1.665056,0.13054000000000002,-1.192672,-66.5875,-343.7875,-176.6975
1619,327844,1.880264,0.256688,-1.353224,-63.7175,-346.2725,-177.87
1620,327942,2.122068,0.42895200000000006,-1.516704,-58.6075,-351.6275,-184.31
1621,328039,2.414136,0.6182960999999999,-1.71776,-48.6325,-358.5225,-195.4925
1622,328136,2.70108,0.641232,-1.8302439999999998,-31.78,-367.22,-211.61
1623,328233,2.978508,0.325008,-1.798768,-12.8625,-376.25,-238.7875
1624,328330,3.4194160000000005,0.357948,-1.784372,-7.56,-384.5975,-271.1625
1625,328427,3.625596,0.348432,-1.517192,13.8075,-392.2625,-283.3425
1626,328524,3.7205120000000003,0.14688800000000002,-0.9796600000000001,52.675,-388.08,-277.9
1627,328621,4.071383999999999,0.425048,0.03904,92.1725,-375.1825,-256.2875
1628,328718,4.8919559999999995,-0.43358800000000003,1.78974,146.3,-355.1625,-188.1425
1629,328815,4.3224599999999995,-3.37574,4.845108,147.77,-337.2775,-124.1625
1630,328912,3.061224,-4.2382800000000005,5.9736080000000005,-85.68,-276.92,-115.3425
1631,329009,2.797216,-1.677988,4.240476,-321.7375,-125.9125,-89.635
1632,329107,2.780624,0.245952,1.8827040000000002,-265.7025,20.4925,31.5175
1633,329204,3.02438,0.44212799999999997,-0.030987999999999998,-42.945,116.8475,188.58
1634,329301,2.085224,0.649284,-1.098976,109.48,129.115,267.995
1635,329398,0.27718400000000004,0.794952,0.065148,184.66,141.4525,297.5
1636,329495,-0.06270801,0.299144,-1.255624,210.035,157.115,282.765
1637,329592,-0.395768,0.8420440999999999,-0.696132,161.07,179.515,205.9925
1638,329689,-0.066856,0.518744,0.46774799999999994,114.6425,243.495,101.675
1639,329786,1.382992,0.01098,-1.215852,69.7025,299.0225,24.0975
1640,329883,3.4789519999999996,-0.59048,-2.725724,64.5225,329.4025,13.8775
1641,329980,2.185752,-0.8581479999999999,-1.356884,72.0825,248.0275,28.35
1642,330077,1.613328,0.17738800000000002,-1.5225600000000001,43.47,202.3525,36.925
1643,330174,1.939312,-0.054412,-0.922076,67.2175,181.9825,54.985
1644,330272,1.404708,0.205936,-1.3146719999999998,78.0325,129.1675,42.9625
1645,330369,1.6108879999999999,-0.19178399999999998,-1.236348,80.465,104.8075,34.02
1646,330466,0.8235001000000001,0.051484,-0.9952761,61.67,59.6575,27.16
1647,330563,0.9745360000000001,-0.17202,-1.031388,51.765,47.915,17.15
1648,330660,0.8215481,-0.018788,-0.927688,38.2725,28.84,11.1475
1649,330757,0.6834439999999999,0.0366,-0.8576601,26.0925,17.6925,4.3225
1650,330854,0.686372,0.058803999999999995,-0.8398479999999999,21.175,11.8475,2.4675
1651,330951,0.636108,0.020496,-0.8383841000000001,16.73,6.6325,1.925
1652,331048,0.61854,0.034404000000000004,-0.8254520000000001,13.0025,4.5675,0.4725
1653,331145,0.636596,0.048312,-0.81862,9.24,3.675,-0.805
1654,331242,0.6378159999999999,0.05636401,-0.8108121,8.1375,2.7475,-1.2775
1655,331339,0.6156119999999999,0.019275999999999998,-0.8091041,6.9475,1.75,-1.995
1656,331436,0.5948720000000001,0.044407999999999996,-0.808372,4.515,1.75,-3.3425
1657,331534,0.599996,0.035624,-0.8049561,3.71,2.1875,-4.165
1658,331631,0.604876,0.04514,-0.8076399999999999,3.64,2.2575,-4.1825
1659,331728,0.592432,0.045384,-0.80276,4.025,2.1875,-3.6225
1660,331825,0.5936520000000001,0.036112,-0.8100801,3.9725,2.4325,-3.15
1661,331922,0.602436,0.03416,-0.8100801,3.5525,3.4475,-2.9575
1662,332019,0.591212,0.035868000000000004,-0.807396,2.2225,3.9025,-3.64
1663,332116,0.599996,0.048068,-0.796172,0.8225,4.48,-4.5325
1664,332213,0.5978,0.045872,-0.797392,-0.0525,4.725,-4.8475
1665,332310,0.60024,0.05612,-0.7998321,-0.2625,4.585,-5.075
1666,332407,0.596336,0.062464,-0.806908,-0.42,4.6375,-4.9875
1667,332504,0.599264,0.067588,-0.798124,-0.5425,4.655,-4.655
1668,332601,0.592188,0.063196,-0.799588,-0.7175,4.795,-4.1825
1669,332699,0.602436,0.073688,-0.7983680000000001,-0.665,4.5325,-3.815
1670,332796,0.60146,0.067588,-0.790072,-0.6125,4.34,-3.0975
1671,332893,0.604144,0.058316,-0.787388,-0.63,4.095,-2.555
1672,332990,0.604876,0.060267999999999995,-0.79056,-0.9275,3.64,-2.0825
1673,333087,0.604144,0.05368,-0.7883640000000001,-0.805,3.7625,-1.68
1674,333184,0.6036560999999999,0.043188,-0.7849480999999999,-0.9275,3.71,-1.4
1675,333281,0.612196,0.036844,-0.7812880999999999,-1.5225,3.815,-1.8725
1676,333378,0.6161,0.038796,-0.7771399999999999,-1.89,3.6575,-2.6775
1677,333475,0.605608,0.049532,-0.7890961,-2.485,3.4125,-3.3775
1678,333572,0.612684,0.0549,-0.7829961,-2.7475,3.255,-3.85
1679,333669,0.6095119999999999,0.057339999999999995,-0.780312,-2.975,2.7825,-4.06
1680,333767,0.6007279999999999,0.062464,-0.7788480999999999,-3.22,2.4675,-4.27
1681,333864,0.5858439999999999,0.071004,-0.7869,-3.5175,3.0275,-4.27
1682,333961,0.57096,0.061,-0.7922680000000001,-3.185,4.0775,-3.395
1683,334058,0.562664,0.073688,-0.803736,-3.535,5.775,-1.89
1684,334155,0.5743761,0.067344,-0.8066641,-4.515,8.1375,-0.9275
1685,334252,0.589016,0.077348,-0.790072,-5.5825,9.8875,-0.98
1686,334349,0.583648,0.07808001,-0.791048,-5.845,11.7775,0.9975
1687,334446,0.579256,0.06075601,-0.80276,-8.365,14.63,-0.245
1688,334543,0.515328,0.067832,-0.8569280999999999,-9.905,20.7725,-1.12
1689,334640,0.568764,0.05856,-0.8188641,-10.99,28.5775,-3.885
1690,334737,0.5516840000000001,0.034648000000000005,-0.822524,-16.205,38.2725,-6.58
1691,334835,0.576572,-0.006587999999999999,-0.8127641,-20.16,46.7425,-9.0825
1692,334932,0.609268,-0.027083999999999997,-0.777384,-26.845,57.925,-14.945
1693,335029,0.59902,0.030012,-0.813008,-31.9375,69.93,-22.155
1694,335126,0.566812,0.1037,-0.8559521000000001,-35.7175,83.79001,-25.2
1695,335223,0.565104,0.09320801,-0.8549761,-36.575,102.3225,-22.645
1696,335320,0.567056,0.127856,-0.836676,-41.2825,124.5825,-18.305
1697,335417,0.583648,0.126148,-0.84546,-43.5225,149.555,-12.4425
1698,335514,0.5511961,0.138104,-0.84546,-40.6525,175.945,-1.155
1699,335611,0.5692520000000001,0.16909200000000002,-0.8476561,-32.4275,209.3175,8.8375
1700,335708,0.438224,0.173484,-0.8479,-17.465,246.4175,22.4175
1701,335805,0.467016,0.20447200000000001,-0.882548,-0.3675,288.0325,40.0225
1702,335903,0.715896,0.25254,-0.859856,12.005,321.1425,59.5525
1703,336000,0.6068279999999999,0.343552,-1.047004,2.8525,358.5225,67.9875
