,T,ax,ay,az,gx,gy,gz
0,161243,0.609024,-0.158356,-0.5843801,16.7475,-16.3625,-17.22
1,161396,0.63318,-0.14713199999999999,-0.676612,13.9825,-91.8575,-127.365
2,161492,0.6653880999999999,-0.1769,-0.7166279999999999,41.23,-169.995,-169.19
3,161589,0.6649,-0.17543599999999998,-0.715164,47.32,-135.1,-59.85
4,161685,0.667828,-0.17568,-0.71736,3.7275,-9.6775,-5.7225
5,161781,0.667096,-0.17568,-0.71736,1.6975,-3.815,-3.4125
6,161877,0.6634359999999999,-0.17812,-0.7200439999999999,1.8025,-3.71,-3.43
7,161973,0.6646561,-0.17543599999999998,-0.72102,1.8025,-3.7625,-3.4825
8,162070,0.6661201,-0.1769,-0.7171161,1.7675,-3.6925,-3.4825
9,162166,0.666608,-0.17763199999999998,-0.72102,1.855,-3.6225,-3.5175
10,162262,0.668072,-0.176656,-0.718824,1.8725,-3.605,-3.5
11,162358,0.6688041,-0.17324,-0.7190681,1.8725,-3.6225,-3.4825
12,162455,0.667828,-0.177144,-0.7178479999999999,1.9075,-3.605,-3.465
13,162551,0.6675840000000001,-0.17568,-0.720288,1.925,-3.6225,-3.43
14,162647,0.668072,-0.175924,-0.721508,1.9425,-3.6575,-3.465
15,162743,0.665632,-0.17641199999999999,-0.720776,1.96,-3.57,-3.5
16,162839,0.66246,-0.17836400000000002,-0.720532,1.96,-3.535,-3.5175
17,162936,0.6634359999999999,-0.17836400000000002,-0.7190681,1.9425,-3.605,-3.5175
18,163032,0.6675840000000001,-0.180316,-0.7156520000000001,1.925,-3.5875,-3.5525
19,163128,0.668316,-0.173484,-0.720776,1.89,-3.7275,-3.57
20,163224,0.666852,-0.17641199999999999,-0.719312,1.855,-3.78,-3.64
21,163321,0.667828,-0.17641199999999999,-0.721264,1.89,-3.7275,-3.6225
22,163417,0.667096,-0.17397200000000002,-0.7171161,1.9075,-3.71,-3.6225
23,163513,0.669292,-0.173728,-0.719312,1.785,-3.71,-3.6925
24,163609,0.66856,-0.17397200000000002,-0.721264,1.7675,-3.78,-3.64
25,163705,0.66856,-0.173728,-0.7200439999999999,1.68,-3.64,-3.6225
26,163802,0.667828,-0.17812,-0.7198,1.785,-3.6225,-3.5875
27,163898,0.665876,-0.17738800000000002,-0.72224,1.82,-3.6225,-3.5525
28,163994,0.6661201,-0.17738800000000002,-0.720532,1.8025,-3.5525,-3.64
29,164090,0.6675840000000001,-0.174216,-0.72102,1.925,-3.5,-3.6225
30,164187,0.670024,-0.175924,-0.720288,1.89,-3.535,-3.6575
31,164283,0.6688041,-0.174216,-0.720288,1.8025,-3.5,-3.64
32,164379,0.667828,-0.17616800000000002,-0.71858,1.89,-3.5,-3.64
33,164475,0.6695361,-0.17616800000000002,-0.7183361,1.89,-3.43,-3.6225
34,164571,0.671244,-0.17446,-0.7190681,1.9775,-3.535,-3.64
35,164668,0.6695361,-0.174216,-0.7190681,1.82,-3.6225,-3.6225
36,164764,0.671244,-0.175924,-0.719312,1.8025,-3.6575,-3.675
37,164860,0.6673399999999999,-0.173484,-0.71858,1.7325,-3.535,-3.6575
38,164956,0.667096,-0.17738800000000002,-0.7195560000000001,1.645,-3.6225,-3.64
39,165053,0.6661201,-0.17641199999999999,-0.71736,1.8025,-3.71,-3.57
40,165149,0.666608,-0.173728,-0.7176041,1.8025,-3.6925,-3.57
41,165245,0.6663640000000001,-0.175924,-0.720288,1.75,-3.5525,-3.5525
42,165341,0.6675840000000001,-0.172996,-0.7198,1.7675,-3.64,-3.605
43,165437,0.6709999999999999,-0.175924,-0.7178479999999999,1.8025,-3.6575,-3.64
44,165534,0.668072,-0.1769,-0.719312,1.7675,-3.6225,-3.57
45,165630,0.669048,-0.172996,-0.7190681,1.7325,-3.535,-3.535
46,165726,0.6675840000000001,-0.17641199999999999,-0.71858,1.6975,-3.57,-3.5175
47,165822,0.6688041,-0.174216,-0.720776,1.7325,-3.605,-3.57
48,165918,0.666852,-0.1769,-0.7190681,1.9075,-3.57,-3.535
49,166015,0.6673399999999999,-0.174704,-0.71736,1.89,-3.605,-3.535
50,166111,0.670512,-0.175924,-0.71858,1.7675,-3.6225,-3.535
51,166207,0.670512,-0.17543599999999998,-0.7195560000000001,1.7325,-3.675,-3.5525
52,166303,0.671732,-0.173728,-0.7171161,1.7675,-3.7625,-3.57
53,166400,0.670268,-0.174948,-0.720288,1.7325,-3.7275,-3.5875
54,166496,0.6695361,-0.17324,-0.7200439999999999,1.645,-3.745,-3.465
55,166592,0.669292,-0.174216,-0.718824,1.61,-3.7275,-3.465
56,166688,0.6663640000000001,-0.17446,-0.71736,1.6275,-3.7625,-3.395
57,166784,0.668072,-0.17543599999999998,-0.719312,1.68,-3.745,-3.4125
58,166881,0.6673399999999999,-0.17641199999999999,-0.72102,1.61,-3.675,-3.4475
59,166977,0.66978,-0.176656,-0.718824,1.5925,-3.71,-3.4825
60,167073,0.6707561,-0.17568,-0.7183361,1.5575,-3.7275,-3.43
61,167169,0.670024,-0.174948,-0.718092,1.575,-3.675,-3.4475
62,167265,0.66856,-0.173484,-0.71736,1.61,-3.7975,-3.4825
63,167362,0.676856,-0.171044,-0.7256560000000001,1.82,-3.7975,-3.255
64,167458,0.6763680000000001,-0.18544000000000002,-0.72346,2.87,-3.78,-2.835
65,167554,0.693692,-0.16958,-0.741272,4.2,-3.78,-2.555
66,167650,0.701256,-0.17934,-0.7427361,7.2625,-4.025,-1.365
67,167746,0.702232,-0.16128399999999998,-0.744444,10.7275,-4.865,0.175
68,167843,0.6985720999999999,-0.17519200000000001,-0.7449321,13.0725,-5.8275,1.5225
69,167939,0.72712,-0.14396,-0.765428,15.225,-7.0,3.0625
70,168035,0.6973520000000001,-0.19154000000000002,-0.721508,18.1125,-8.855,5.0575
71,168131,0.6602640000000001,-0.197884,-0.7095520000000001,18.6725,-10.395,5.7225
72,168228,0.72224,-0.172996,-0.7766521,18.3575,-10.605,5.74
73,168324,0.70638,-0.163724,-0.756888,21.665,-11.62,7.91
74,168420,0.6897880999999999,-0.188612,-0.725168,24.9725,-13.9475,10.115
75,168516,0.661484,-0.116388,-0.759328,25.655,-15.295,10.0275
76,168612,0.677832,-0.23424,-0.7178479999999999,27.09,-16.555,9.6775
77,168709,0.6451359999999999,-0.279136,-0.67832,27.65,-17.43,11.1475
78,168805,0.6329359999999999,-0.238632,-0.6885680999999999,24.78,-16.5375,11.165
79,168901,0.638792,-0.23472800000000002,-0.7241920000000001,21.8925,-16.275,10.36
80,168997,0.7027201,-0.231068,-0.7356600000000001,20.9475,-16.1175,9.8525
81,169094,0.645868,-0.23301999999999998,-0.7176041,20.0375,-18.6725,10.045
82,169190,0.633912,-0.235704,-0.7156520000000001,18.585,-19.46,9.695
83,169286,0.633668,-0.249612,-0.708332,17.2375,-18.7775,9.2225
84,169382,0.6182960999999999,-0.22789600000000002,-0.7324881,14.0,-18.27,7.5075
85,169478,0.604632,-0.275964,-0.693692,11.06,-17.3775,5.145
86,169575,0.5914560000000001,-0.27084,-0.693204,8.6275,-16.38,4.5675
87,169671,0.566812,-0.242048,-0.6993041,6.405,-14.63,3.255
88,169767,0.540216,-0.23887600000000003,-0.6883239999999999,5.0225,-12.6875,1.3825
89,169863,0.5309441,-0.242048,-0.6795401,4.13,-9.52,-0.4375
90,169960,0.5248441,-0.23668000000000003,-0.6802720999999999,3.3075,-5.775,-2.1525
91,170056,0.503128,-0.21862399999999999,-0.665632,2.3275,-1.785,-4.0775
92,170152,0.5009319999999999,-0.22106399999999998,-0.659532,1.05,2.7475,-6.44
93,170248,0.486048,-0.245952,-0.6573359999999999,-0.98,7.5425,-8.855
94,170344,0.5936520000000001,-0.332328,-0.68076,-7.0175,11.8125,-14.0
95,170441,0.581208,-0.329888,-0.620492,-18.0075,12.67,-18.9
96,170537,0.48214399999999996,-0.249612,-0.621712,-29.5575,14.7525,-22.785
97,170633,0.602436,-0.26474000000000003,-0.6919841,-40.3725,20.02,-28.91
98,170729,0.9113399999999999,-0.24912399999999998,-0.9015799999999999,-45.4825,22.4875,-32.235
99,170826,0.9581881,-0.047336,-0.9423280999999999,-32.9525,15.5575,-24.7975
100,170922,0.8481440999999998,-0.158112,-0.86498,-12.5825,3.185,-13.5975
101,171018,0.735416,-0.20105599999999998,-0.764696,1.26,-2.9575,-4.8825
102,171114,0.690032,-0.180072,-0.754448,6.7725,-5.6,-0.63
103,171210,0.66856,-0.20984,-0.72102,9.135,-6.8075,1.1025
104,171307,0.636596,-0.22082,-0.702232,9.065,-7.2975,1.47
105,171403,0.624152,-0.23424,-0.694912,7.07,-7.175,0.6475
106,171499,0.620736,-0.24424400000000002,-0.684908,4.69,-6.8425,-1.015
107,171595,0.6258600000000001,-0.24570799999999998,-0.6893,1.785,-6.4575,-2.8875
108,171692,0.6314721,-0.236436,-0.695156,-0.9975,-6.0725,-4.4975
109,171788,0.625372,-0.229116,-0.690764,-3.745,-5.88,-6.125
110,171884,0.6378159999999999,-0.213256,-0.708088,-6.44,-5.39,-7.63
111,171980,0.65758,-0.21618400000000002,-0.711016,-8.2425,-4.9875,-8.6275
112,172077,0.615124,-0.251076,-0.687348,-9.31,-5.075,-9.73
113,172173,0.554124,-0.270596,-0.659532,-12.39,-4.6025,-12.0925
114,172269,0.613904,-0.163724,-0.7707961,-17.535,-1.4,-15.785
115,172365,0.529724,-0.22277199999999997,-0.715896,-18.83,0.525,-19.4075
116,172462,0.519476,-0.27816,-0.729804,-20.0025,3.535,-23.905
117,172558,0.5158159999999999,-0.267424,-0.8003201,-21.1575,9.0825,-28.9975
118,172654,0.720776,-0.46457600000000004,-0.9298841,-20.7025,15.925,-35.1925
119,172750,0.68686,-0.47555600000000003,-0.9642879999999999,-28.0175,20.4925,-43.365
120,172846,0.5099600000000001,-0.025131999999999998,-0.9874681000000001,-42.245,27.51,-51.4325
121,172943,0.5694961,-0.08417999999999999,-0.9828321,-22.645,52.4475,-65.5725
122,173039,0.7761640999999999,-0.6973520000000001,-1.021628,2.9575,78.995,-86.87
123,173135,0.834968,-0.8291120999999999,-1.092144,-8.4875,90.825,-111.3525
124,173232,0.6883239999999999,-0.9211,-1.297592,-29.1375,92.085,-132.3
125,173328,0.42016800000000004,-1.02724,-1.350784,-40.3725,86.6075,-145.8275
126,173424,0.388448,-0.8810841,-1.525,-39.8475,83.52750999999999,-144.69
127,173520,0.428708,-1.022604,-1.825364,-17.605,78.4,-116.8125
128,173617,0.058072000000000006,-1.474736,-1.625772,20.9475,58.9925,-69.1425
129,173713,-0.348432,-1.4064159999999999,-1.420568,22.4,40.0925,-33.7575
130,173809,-0.53314,-1.0201639999999998,-1.4276440000000001,11.5325,30.9925,-7.0
131,173905,-0.58316,-0.8796200000000001,-1.462536,23.7475,26.4775,22.0675
132,174002,-0.615368,-0.8422879999999999,-1.491572,39.48,18.7075,45.395
133,174098,-0.5843801,-0.67588,-1.553548,44.0825,6.7375,60.5675
134,174194,-0.5551,-0.5363121,-1.5791680000000001,47.4775,-7.8225,73.535
135,174290,-0.546804,-0.453596,-1.5586719999999998,51.0125,-23.695,83.8425
136,174387,-0.492148,-0.34477199999999997,-1.560136,50.715,-38.885,89.1625
137,174483,-0.37551599999999996,-0.269864,-1.57136,50.6275,-53.2,90.545
138,174579,-0.159576,-0.240096,-1.663836,53.2175,-67.2525,90.9125
139,174675,0.063684,-0.283528,-1.7287400000000002,57.4525,-84.9625,92.48751
140,174772,0.177876,-0.290604,-1.713124,57.7325,-107.0825,94.37751
141,174868,0.23448400000000003,-0.251564,-1.630164,53.6375,-128.59,95.655
142,174964,0.26352,-0.192272,-1.5140200000000001,48.055,-144.7775,95.935
143,175060,0.317688,-0.13908,-1.398608,42.91,-153.58,94.60501
144,175157,0.378688,-0.11224,-1.271728,39.2875,-154.8925,91.8925
145,175253,0.458476,-0.096868,-1.15046,36.2425,-149.3275,87.78
146,175349,0.55266,-0.08466801,-1.043588,33.495,-137.4275,83.0025
147,175445,0.665876,-0.08857201,-0.9586761,32.2,-121.3625,78.9425
148,175542,0.79056,-0.112972,-0.8910879999999999,31.745,-103.25,75.565
149,175638,0.9638,-0.160796,-0.885476,32.305,-85.71500999999999,73.185
150,175734,1.265628,-0.20178800000000002,-0.968924,35.315,-71.2425,72.625
151,175830,1.5921,-0.290848,-1.03944,42.6125,-66.64,76.7725
152,175927,1.7802240000000003,-0.432856,-1.0147959999999998,47.9675,-76.0725,84.9275
153,176023,1.8758720000000002,-0.55998,-0.8876719999999999,42.7875,-95.04251,92.085
154,176119,1.873188,-0.5919439999999999,-0.68198,22.4525,-120.0325,94.01
155,176215,1.8058439999999998,-0.48385200000000006,-0.44164,-8.89,-145.565,88.97
156,176312,1.6653,-0.27571999999999997,-0.160064,-39.7075,-165.8125,78.295
157,176408,1.5318319999999999,-0.048556,0.1525,-59.675,-174.8425,64.575
158,176504,1.437892,0.16714,0.459208,-65.73,-170.8175,49.2625
159,176600,1.3466360000000002,0.37454,0.7564001,-58.5725,-153.7025,34.3175
160,176697,1.244888,0.5023960999999999,0.9955200000000001,-39.655,-124.355,22.5225
161,176793,1.1289879999999999,0.47213999999999995,1.147044,-13.9475,-82.9675,14.6825
162,176889,1.083604,0.31598000000000004,1.1690040000000002,8.2075,-32.62,9.1525
163,176985,1.2153639999999999,0.090036,1.029924,18.97,19.6175,5.915
164,177082,1.5006,-0.1098,0.762012,16.9575,64.27750999999999,5.8975
165,177178,1.6406560000000001,-0.349164,0.379664,4.7425,93.0125,9.59
166,177274,1.09556,-0.246196,1.974692,-18.095,130.2,5.0925
167,177370,-0.537532,0.141032,1.037488,-76.1775,199.3075,-36.295
168,177467,1.6979959999999998,-0.4331,-1.671156,-58.8,292.11,-45.3425
169,177563,2.714012,-0.627568,-2.177212,-18.3225,276.535,2.6425
170,177659,1.053836,0.345504,-0.903532,-19.0925,203.245,26.075
171,177755,0.348188,1.354932,-0.9886881,-50.9425,186.55,-19.845
172,177852,2.02398,0.826916,-1.856596,-8.5925,222.705,-65.485
173,177948,2.329956,0.08662001,-1.7746119999999999,5.7925,182.4025,-92.78501
174,178044,1.58356,-0.877912,-0.8671761,4.5325,122.7625,-92.54001
175,178140,0.9857600000000001,-1.005036,-0.595116,-6.965,101.0975,-71.4525
176,178237,1.7626560000000002,-0.696376,-0.9813681000000001,-47.1275,102.41,-63.5775
177,178333,1.226344,0.12712400000000001,-0.892552,-90.70251,64.9425,-63.7525
178,178429,0.780312,-0.265716,-0.839116,-63.6825,34.2825,-54.6
179,178526,0.654408,-0.373076,-0.69662,-56.3675,24.5525,-50.4175
180,178622,1.02968,-0.14274,-0.8764481,-58.765,26.9325,-49.0
181,178718,0.8827921000000001,-0.058803999999999995,-0.856684,-46.6725,13.825,-40.0925
182,178814,0.71858,-0.233264,-0.7378560000000001,-32.6375,5.0225,-29.085
183,178911,0.758108,-0.16714,-0.778116,-28.56,3.325,-24.57
184,179007,0.721264,-0.16689600000000002,-0.7503,-22.4175,1.225,-19.6875
185,179103,0.699792,-0.19642,-0.73688,-16.8525,-0.315,-15.6975
186,179199,0.688812,-0.188612,-0.7373681,-13.965,-1.8725,-13.2475
187,179296,0.6878361,-0.186172,-0.74298,-10.955,-2.9925,-11.6725
188,179392,0.6756361,-0.20008,-0.721996,-8.3475,-3.6575,-9.905
189,179488,0.670024,-0.191296,-0.7183361,-7.0175,-4.305,-8.82
190,179584,0.6663640000000001,-0.193492,-0.720776,-7.2625,-4.8125,-8.4525
191,179680,0.6836880999999999,-0.181292,-0.726144,-8.05,-5.11,-8.4175
192,179777,0.6810039999999999,-0.17202,-0.733464,-6.755,-5.18,-7.8575
193,179873,0.680516,-0.174216,-0.72102,-4.725,-4.9525,-6.72
194,179969,0.6734399999999999,-0.166652,-0.728096,-2.765,-4.62,-5.7925
195,180065,0.6734399999999999,-0.17543599999999998,-0.721264,-1.2425,-3.9375,-5.0225
196,180162,0.661484,-0.176656,-0.721264,-0.14,-3.2375,-4.4625
197,180258,0.659044,-0.173728,-0.720532,0.91,-2.2575,-4.2525
198,180354,0.6539201,-0.181292,-0.7195560000000001,1.82,-1.225,-4.0075
199,180450,0.661972,-0.19276,-0.712236,2.7125,-0.0175,-3.64
200,180547,0.659776,-0.171776,-0.72224,3.6225,0.6825,-3.4825
201,180643,0.659044,-0.20252,-0.703696,4.445,0.98,-3.3425
202,180739,0.6634359999999999,-0.180316,-0.7129681,4.8125,0.9275,-3.5175
203,180835,0.6661201,-0.17543599999999998,-0.710284,4.97,0.77,-3.745
204,180932,0.6675840000000001,-0.165188,-0.71126,5.0575,0.8225,-3.57
205,181028,0.6673399999999999,-0.165188,-0.711016,5.11,1.155,-3.15
206,181124,0.67466,-0.16348,-0.7095520000000001,5.46,1.33,-2.6425
207,181220,0.674416,-0.165188,-0.71004,5.775,1.645,-2.1525
208,181317,0.675148,-0.17519200000000001,-0.707112,5.8975,1.9425,-1.47
209,181413,0.6756361,-0.18251199999999998,-0.6980841,6.09,2.205,-1.2075
210,181509,0.669292,-0.189832,-0.665632,5.985,2.3625,-0.805
211,181605,0.665144,-0.163968,-0.698328,5.39,2.6075,-0.245
212,181702,0.66978,-0.166652,-0.700036,5.74,2.8175,0.0875
213,181798,0.66246,-0.18056,-0.701012,5.8625,3.4125,0.525
214,181894,0.659044,-0.17641199999999999,-0.72346,5.985,4.2,0.7
215,181990,0.64782,-0.1891,-0.7227279999999999,6.58,5.67,0.8400001
216,182087,0.643428,-0.197884,-0.7288279999999999,7.7,7.8925,1.0675
217,182183,0.637084,-0.23301999999999998,-0.72346,8.7325,10.5525,1.2775
218,182279,0.633912,-0.24644000000000002,-0.7046720999999999,9.4325,13.055,0.42
219,182375,0.6265921,-0.214964,-0.71736,9.275,14.0875,-1.785
220,182472,0.6292760000000001,-0.209352,-0.708332,9.1,16.0825,-3.9025
221,182568,0.6197600000000001,-0.209352,-0.711016,9.205,19.04,-5.6175
222,182664,0.5926760999999999,-0.260592,-0.729804,10.955,24.9025,-7.0
223,182760,0.5814520000000001,-0.270352,-0.7639640999999999,14.595,33.5125,-10.325
224,182857,0.466528,-0.32256799999999997,-0.827892,19.915,44.5375,-16.0825
225,182953,0.524112,-0.244732,-0.898164,26.5825,59.7275,-27.055
226,183049,0.525576,-0.25058800000000003,-0.9049959999999999,41.5625,86.3975,-32.5675
227,183145,0.6602640000000001,-0.211792,-0.9403761,48.8075,118.965,-35.105
228,183242,0.36844,-0.25790799999999997,-0.9940559999999999,49.63,155.015,-37.4675
229,183338,0.596336,-0.25742,-0.89426,44.4325,187.7225,-48.965
230,183434,0.731268,-0.338428,-0.74664,31.6925,236.3375,-66.60501
231,183530,0.259128,-0.39771999999999996,-0.9757561,25.375,295.3825,-84.49
232,183627,0.826672,-0.43724799999999997,-1.034316,29.925,342.4575,-103.81
233,183723,1.205116,-0.46921199999999996,-1.287588,35.0175,400.4175,-121.1875
234,183819,1.780468,-0.49263599999999996,-1.3664,31.6575,442.5575,-146.16
235,183915,2.01666,-0.21301199999999998,-1.5286600000000001,20.7375,469.56,-174.4925
236,184012,1.699704,-0.690764,-1.49694,35.1925,487.795,-186.655
237,184108,1.8290240000000002,-0.7983680000000001,-1.7550919999999999,37.205,498.855,-194.1625
238,184204,1.899052,-0.45603599999999994,-1.481568,34.1775,494.41,-204.7675
239,184300,1.8390279999999999,-0.774212,-1.7507,43.9775,498.855,-230.1075
240,184397,1.059692,-0.6895439999999999,-2.0803439999999997,75.9675,502.6875,-212.7125
241,184493,-0.16958,-0.292312,-2.06546,144.5325,495.7925,-195.16
242,184589,3.2178720000000003,-0.534116,-2.108648,226.9225,457.135,-207.1825
243,184685,4.2919599999999996,-2.164036,-3.8417800000000004,273.595,335.6325,-176.2075
244,184782,3.4626040000000002,-3.046584,-3.617056,250.7925,93.4325,-85.6625
245,184878,1.8409799999999998,-2.7425599999999997,-2.23138,144.9875,-120.155,-9.4325
246,184974,0.5795,-1.8463479999999999,-1.0340719999999999,13.16,-251.86,21.6825
247,185070,-0.187392,-1.030656,-0.5077640999999999,-84.77,-297.745,14.6825
248,185167,-0.4575,-0.389424,-0.39771999999999996,-123.865,-289.625,2.8
249,185263,-0.47946000000000005,0.06588,-0.425048,-101.0625,-261.7475,8.82
250,185359,-0.390156,0.11736400000000001,-0.44773999999999997,-29.015,-227.6225,35.7
251,185455,-0.162504,0.017324000000000003,-0.5070319999999999,51.9225,-195.16,69.475
252,185552,0.14152,-0.213988,-0.61854,114.66,-173.9325,97.5625
253,185648,0.500688,-0.5565640000000001,-0.763476,147.9625,-169.225,115.8675
254,185744,0.9435479999999999,-0.8359440999999999,-0.9167081,143.4475,-182.21,126.5775
255,185840,1.30174,-0.906948,-1.054324,108.8325,-214.2875,137.4275
256,185937,1.454728,-0.8020281,-1.0845799999999999,64.7325,-258.7375,152.5825
257,186033,1.40422,-0.533628,-1.017236,27.055,-302.1375,170.24
258,186129,1.251476,-0.24766,-0.89792,6.615,-334.2675,186.515
259,186225,1.092632,-0.045384,-0.7673800000000001,4.2,-351.225,197.365
260,186322,0.998448,0.0549,-0.7019880000000001,12.2675,-354.48,200.8825
261,186418,1.0126,0.114436,-0.7332201,23.4325,-348.6,196.98
262,186514,1.138992,0.114436,-0.8378960999999999,36.61,-339.325,188.3525
263,186610,1.305644,0.050996,-0.9818561,50.4175,-331.2575,179.27
264,186707,1.5103600000000001,-0.042944,-1.118984,61.67,-326.7425,171.78
265,186803,1.7397200000000002,-0.188612,-1.203164,68.25,-325.6925,166.705
266,186899,2.026664,-0.41553199999999996,-1.224636,68.11,-327.495,164.85
267,186995,2.308728,-0.705892,-1.1570479999999999,56.91,-332.5,165.4275
268,187092,2.4931919999999996,-0.879376,-1.02846,26.845,-335.9125,168.21
269,187188,2.6108,-0.744688,-0.9677040000000001,-15.5925,-331.555,177.8
270,187284,2.856264,-0.524112,-0.941108,-46.935,-316.4,199.3425
271,187380,3.230316,-0.34794400000000003,-0.869128,-60.6375,-296.6775,223.8075
272,187477,3.496032,-0.289628,-0.6709999999999999,-65.3275,-281.4175,241.9375
273,187573,3.7044080000000004,-0.398696,-0.25986,-73.815,-271.6175,247.2575
274,187669,3.8678879999999998,-0.48702399999999996,0.406504,-103.495,-270.6725,229.425
275,187765,4.018436,0.121268,1.059448,-151.375,-285.18,184.6425
276,187862,4.752388,1.488156,1.786568,-164.535,-299.9325,141.6975
277,187958,4.346128,2.484896,2.768424,-81.88251,-306.1275,135.5025
278,188054,2.891644,2.514664,3.8229919999999997,75.2675,-265.79,153.86
279,188150,1.0377319999999999,1.549156,4.417132,174.65,-160.895,133.7
280,188247,-0.002196,0.5692520000000001,3.945724,144.585,-20.02,28.5775
281,188343,-0.18056,-0.45261999999999997,1.9190599999999998,39.7075,130.4625,-111.1075
282,188439,-1.026996,-0.8930401,1.788032,-99.89,275.3625,-164.815
283,188535,2.759152,-0.07442,-2.750124,-186.2875,381.9375,-178.71
284,188632,4.124576,-1.092388,-1.8292680000000001,-21.0,374.64,-25.83
285,188728,2.023736,-1.099708,-0.091744,1.3825,300.2825,108.6925
286,188824,0.03538,0.8276481,-0.386008,-76.615,296.835,91.4725
287,188920,2.670092,1.8949040000000001,-2.478064,-47.7575,373.45,34.9475
288,189017,2.595916,1.9522439999999999,-2.35948,-19.53,314.1075,-26.6175
289,189113,2.139636,0.9352520000000001,-1.731912,10.4825,226.45,-90.93
290,189209,2.1472,-0.699792,-1.3449280000000001,56.0,181.5975,-109.7075
291,189305,2.8652919999999997,-2.2448,-0.749324,31.255,138.5125,-97.05501
292,189402,1.479372,-1.266116,-0.012688,-58.485,73.1325,-73.16751
293,189498,0.8193521,0.15372,-1.111664,-74.13,48.4925,-40.11
294,189594,0.6124400999999999,-0.270352,-0.758108,-61.18,34.79,-43.4525
295,189690,0.8405800999999999,-0.6802720999999999,-0.49117200000000005,-52.2025,28.455,-48.6325
296,189787,0.8052,-0.069784,-0.887916,-66.6225,23.7125,-51.38
297,189883,0.915732,-0.13859200000000002,-0.8308200000000001,-56.77,16.2925,-50.47
298,189979,0.8142281,-0.148596,-0.7834840000000001,-41.9825,9.17,-38.6225
299,190075,0.749568,-0.208132,-0.761524,-33.635,4.2525,-30.555
300,190172,0.726388,-0.19276,-0.750544,-27.4225,1.12,-25.0075
301,190268,0.74054,-0.12932000000000002,-0.7707961,-22.9425,-0.4725,-20.4925
302,190364,0.7019880000000001,-0.161528,-0.7612800999999999,-13.5625,-2.7475,-14.6125
303,190460,0.698328,-0.15738,-0.747128,-9.1175,-1.015,-12.39
304,190557,0.67588,-0.187148,-0.7227279999999999,-9.415,-2.345,-9.6775
305,190653,0.6653880999999999,-0.182756,-0.7195560000000001,-8.05,-2.0475,-8.8725
306,190749,0.658312,-0.19642,-0.711016,-7.4375,-1.8375,-8.4
307,190845,0.6480640000000001,-0.21276799999999998,-0.7027201,-7.875,-1.6625,-9.1175
308,190942,0.657824,-0.20447200000000001,-0.7078439999999999,-8.4525,-1.5925,-9.7125
309,191038,0.671976,-0.185196,-0.712236,-8.9075,-1.96,-9.905
310,191134,0.669048,-0.179584,-0.724924,-8.1725,-1.9425,-9.4325
311,191230,0.671488,-0.17568,-0.7241920000000001,-6.5275,-1.6625,-8.785
312,191327,0.6736840000000001,-0.182268,-0.714676,-4.7075,-1.3125,-8.155
313,191423,0.6756361,-0.17324,-0.7171161,-3.29,-1.33,-7.5425
314,191519,0.678808,-0.17446,-0.71858,-1.8725,-1.3475,-6.9475
315,191615,0.6810039999999999,-0.165188,-0.721996,-0.77,-1.4175,-6.1425
316,191712,0.678076,-0.160064,-0.7217521,0.5425,-1.225,-5.2325
317,191808,0.6824680000000001,-0.166408,-0.714676,1.61,-0.9625,-4.375
318,191904,0.68076,-0.173484,-0.708576,2.38,-0.7875,-3.5875
319,192000,0.679784,-0.17519200000000001,-0.704916,3.0975,-0.735,-3.3775
320,192097,0.681492,-0.169336,-0.70394,3.465,-0.6125,-3.2375
321,192193,0.6832,-0.162504,-0.701012,3.57,-0.4025,-2.9225
322,192289,0.684176,-0.159332,-0.7034521,3.6575,0.035,-2.45
323,192385,0.6810039999999999,-0.159576,-0.70028,3.745,0.49,-2.065
324,192482,0.679784,-0.158356,-0.7044279999999999,3.6225,1.1725,-1.785
325,192578,0.670268,-0.160796,-0.7088201,3.7975,1.9775,-1.225
326,192674,0.664412,-0.17763199999999998,-0.716384,4.8475,3.29,-0.42
327,192770,0.665632,-0.185196,-0.720532,6.335,4.725,0.5775
328,192867,0.656116,-0.19959200000000002,-0.729316,7.525,6.5625,1.575
329,192963,0.640256,-0.219112,-0.7229720000000001,9.2225,8.6275,2.3625
330,193059,0.6290319999999999,-0.228384,-0.6973520000000001,10.3775,10.7975,2.275
331,193155,0.608536,-0.225456,-0.698328,9.3275,12.5475,0.035
332,193252,0.630008,-0.217648,-0.6822239999999999,7.56,15.085,-4.585
333,193348,0.620492,-0.21716,-0.69784,6.545,17.605,-6.5275
334,193444,0.6117081,-0.240096,-0.730536,6.37,21.945,-8.365
335,193540,0.5838920999999999,-0.27084,-0.7610359999999999,10.6225,28.2275,-8.7675
336,193637,0.601704,-0.25302800000000003,-0.768356,18.48,37.4675,-11.34
337,193733,0.540216,-0.262056,-0.8432639999999999,26.7575,50.855,-15.89
338,193829,0.5011760000000001,-0.20642399999999997,-0.874984,34.7025,67.5675,-24.22
339,193925,0.654896,-0.182756,-0.8998719999999999,51.45,94.46500999999999,-30.8
340,194022,0.462624,-0.245464,-0.9864921,56.875,127.8025,-30.9225
341,194118,0.44676400000000005,-0.215452,-1.008208,56.63,157.8675,-35.5425
342,194214,0.579256,-0.23887600000000003,-0.9076799999999999,51.1,196.9975,-46.9175
343,194310,0.7622561,-0.386984,-0.930372,46.1475,253.2075,-57.7325
344,194407,0.685884,-0.343064,-0.9247601000000001,43.5225,306.7225,-70.245
345,194503,0.8447280999999999,-0.37332,-1.049688,53.7075,367.15,-83.9125
346,194599,1.300764,-0.453596,-1.399828,62.8075,428.015,-106.575
347,194695,1.765096,-0.41455600000000004,-1.4064159999999999,58.625,467.8975,-131.145
348,194792,1.7931560000000002,-0.445788,-1.492792,48.195,493.7275,-158.725
349,194888,1.682868,-0.693692,-1.4337440000000001,43.2075,509.0225,-173.04
350,194984,1.948584,-0.5892601,-1.65188,37.1,519.3475,-179.4275
351,195081,1.6989720000000001,-0.47067600000000004,-1.39202,47.9675,512.225,-184.6075
352,195177,1.9781080000000002,-0.636108,-1.896368,70.3675,521.36,-205.38
353,195273,1.18218,-0.553636,-2.4573240000000003,112.105,522.375,-183.2775
354,195369,0.101504,-0.10345599999999999,-2.555412,205.5375,497.7525,-144.7425
355,195465,4.0521080000000005,-1.537688,-2.86456,308.8925,422.5375,-130.795
356,195562,4.301232,-3.122468,-4.034052,292.355,231.735,-92.505
357,195658,2.778916,-3.220068,-3.244224,181.5975,-34.9125,-25.1825
358,195754,1.15168,-2.1996599999999997,-1.784616,30.7475,-233.66,17.15
359,195850,0.09272000000000001,-1.10776,-0.863028,-89.79251,-331.2575,16.9225
360,195947,-0.46433199999999997,-0.28938400000000003,-0.655384,-134.4525,-344.225,0.735
361,196043,-0.4933681,0.254492,-0.6280560000000001,-108.71,-316.365,-5.53
362,196139,-0.273768,0.316712,-0.6724640000000001,-24.4475,-282.415,12.8275
363,196235,-0.000244,0.217648,-0.724436,69.9125,-254.765,45.57
364,196332,0.27084,-0.04148,-0.806908,145.635,-240.66,75.845
365,196428,0.590724,-0.454084,-0.8388721,188.8425,-240.9575,96.65250999999999
366,196524,0.968192,-0.8091041,-0.883036,184.9225,-256.6375,106.12
367,196620,1.19682,-0.8723001,-0.9154880999999999,140.42,-286.475,111.1075
368,196717,1.1775440000000001,-0.6480640000000001,-0.8884040000000001,85.3825,-320.5125,119.1575
369,196813,1.0492,-0.297192,-0.8188641,48.16,-344.54,133.91
370,196909,0.9118280000000001,-0.023668,-0.730536,38.5175,-353.325,154.035
371,197006,0.82594,0.09345201,-0.681736,47.67,-348.9325,173.0225
372,197102,0.845216,0.11321600000000001,-0.7046720999999999,60.2175,-336.7,183.9075
373,197198,0.94916,0.082716,-0.821304,67.4975,-323.3125,185.2725
374,197294,1.1346,0.014884,-0.9852719999999999,69.4225,-312.935,179.97
375,197391,1.345172,-0.077592,-1.125084,67.445,-307.545,172.7075
376,197487,1.593076,-0.212036,-1.2395200000000002,62.0725,-306.1625,167.1775
377,197583,1.8648919999999998,-0.41113999999999995,-1.29198,52.0275,-308.3675,164.22
378,197679,2.092788,-0.6009720000000001,-1.259284,32.515,-314.055,163.5375
379,197776,2.276032,-0.6573359999999999,-1.203164,1.6625,-317.73,164.5525
380,197872,2.4949,-0.570472,-1.180228,-31.08,-314.37,170.7475
381,197968,2.8416240000000004,-0.49605200000000005,-1.186084,-55.1425,-303.5725,185.57
382,198064,3.3306,-0.464088,-1.164368,-71.71500999999999,-290.815,202.9475
383,198161,3.785904,-0.42163199999999995,-1.0553,-87.0625,-282.9575,215.565
384,198257,4.103836,-0.43554,-0.7361481,-102.97,-282.31,220.85
385,198353,4.252432,-0.5799880000000001,-0.011956,-125.2475,-290.1325,211.015
386,198449,4.498384,-0.397964,0.9867360999999999,-162.0675,-320.95,167.055
387,198546,5.117656,1.352004,1.831464,-194.32,-356.195,98.175
388,198642,4.8312,3.156384,2.9053080000000002,-91.455,-371.7525,81.935
389,198738,3.3171800000000005,2.881396,4.433724,153.44,-326.06,138.39
390,198834,1.1411879999999999,1.452532,5.414848,292.5475,-211.61,148.995
391,198931,-0.5551,0.10321199999999998,5.1057,221.34,-56.525,48.3525
392,199027,0.489708,0.282064,3.059028,21.9275,121.0475,-140.805
393,199123,2.201368,0.18056,0.9830760000000001,-60.83,257.67,-230.5975
394,199219,1.21512,-2.602504,-1.4483840000000001,-18.34,314.405,-195.6325
395,199316,1.927112,-2.773792,-3.602172,-111.65,298.235,-89.25
396,199412,0.6729520999999999,-0.671976,-2.421944,-154.3325,204.5225,-11.375
397,199508,-0.007564001,-0.211548,1.458144,-48.545,226.17,130.7425
398,199605,0.391376,0.42748800000000003,1.019188,-25.0775,337.435,168.56
399,199701,3.001688,1.985184,-2.9858279999999997,-63.7875,418.495,81.4975
400,199797,2.7511,2.504172,-2.6044560000000003,-53.2525,333.41,4.165
401,199893,2.075952,1.6165,-1.913448,-7.49,239.8725,-66.885
402,199989,2.461472,-0.70516,-1.50304,53.62,195.09,-110.8975
403,200086,2.5573639999999997,-2.431216,-1.019676,42.1575,141.6625,-88.55
404,200182,1.956392,-1.18096,-0.312564,-46.97,96.42501,-65.73
405,200278,0.726144,0.297192,-1.1150799999999998,-67.4275,55.79,-31.395
406,200375,0.538752,-0.23424,-0.735172,-50.0325,39.13,-33.775
407,200471,0.954528,-0.9264680000000001,-0.403332,-41.3,32.8825,-42.07
408,200567,0.793244,-0.11102000000000001,-0.8081281,-60.62,24.4825,-43.0675
409,200663,0.885476,-0.104432,-0.8810841,-56.07,15.6275,-44.17
410,200760,0.8315520000000001,-0.23253200000000002,-0.735904,-39.165,10.185,-33.6875
411,200856,0.718824,-0.28181999999999996,-0.70394,-35.6825,5.4075,-27.9125
412,200952,0.7032079999999999,-0.23301999999999998,-0.736392,-32.5325,4.4625,-25.27
413,201048,0.7217521,-0.161772,-0.7849480999999999,-26.4775,2.1875,-22.54
414,201145,0.706136,-0.20178800000000002,-0.7500560000000001,-20.3525,0.735,-18.2
415,201241,0.7027201,-0.192272,-0.731024,-16.5725,-0.35,-15.015
416,201337,0.692228,-0.179096,-0.73932,-13.7725,-0.8400001,-13.1425
417,201433,0.677832,-0.189344,-0.737124,-11.27,-1.225,-10.92
418,201530,0.6832,-0.188856,-0.7183361,-9.5375,-1.0675,-9.345
419,201626,0.6753920999999999,-0.193004,-0.715164,-8.75,-1.26,-8.82
420,201722,0.673928,-0.179096,-0.7229720000000001,-8.61,-1.3825,-8.645
421,201818,0.673928,-0.186172,-0.7241920000000001,-7.84,-1.0675,-8.3475
422,201915,0.6832,-0.17446,-0.729072,-6.51,-1.0675,-7.735
423,202011,0.679784,-0.18666,-0.7178479999999999,-4.375,-0.945,-6.825
424,202107,0.6729520999999999,-0.183732,-0.720532,-2.5025,-1.12,-5.81
425,202203,0.6653880999999999,-0.20008,-0.711504,-1.5575,-1.435,-5.32
426,202300,0.662948,-0.20837600000000003,-0.705892,-0.8400001,-1.4,-5.1275
427,202396,0.6729520999999999,-0.20374,-0.700036,-0.455,-1.4,-5.3375
428,202492,0.67466,-0.195932,-0.7007680000000001,-0.1575,-1.435,-5.5475
429,202588,0.6795401,-0.17812,-0.702232,-0.07,-1.47,-5.635
430,202685,0.679784,-0.175924,-0.702964,-0.175,-1.75,-5.5825
431,202781,0.681492,-0.19032000000000002,-0.7027201,-0.665,-2.2575,-5.5125
432,202877,0.6893,-0.178852,-0.7005239999999999,-0.98,-2.7475,-5.2325
433,202973,0.687104,-0.172264,-0.699792,-1.155,-3.2375,-4.9875
434,203070,0.687104,-0.174216,-0.696376,-1.4175,-3.36,-4.7775
435,203166,0.678808,-0.171532,-0.702964,-1.155,-3.15,-4.445
436,203262,0.679784,-0.174704,-0.7032079999999999,-0.3325,-2.695,-3.7275
437,203358,0.6724640000000001,-0.179584,-0.7005239999999999,-0.1225,-2.24,-3.0625
438,203455,0.6649,-0.193248,-0.702964,0.2975,-1.225,-2.59
439,203551,0.6612401,-0.19885999999999998,-0.7105279999999999,1.4175,0.21,-1.785
440,203647,0.648552,-0.21716,-0.7324881,3.0625,2.1875,-1.085
441,203743,0.633668,-0.23668000000000003,-0.7134560999999999,5.32,4.27,-0.2275
442,203840,0.6170760000000001,-0.24888000000000002,-0.7019880000000001,7.4025,6.72,0.1575
443,203936,0.604144,-0.23155599999999998,-0.71492,8.505,9.24,-0.455
444,204032,0.58316,-0.2013,-0.70028,8.925,13.4925,-1.8025
445,204128,0.6075600999999999,-0.191296,-0.714432,7.91,19.0225,-3.5175
446,204225,0.5665680000000001,-0.21862399999999999,-0.73444,7.665,25.095,-7.0
447,204321,0.5414359999999999,-0.273036,-0.755424,11.1475,34.405,-8.05
448,204417,0.596092,-0.266204,-0.7788480999999999,18.6025,45.255,-11.0075
449,204513,0.6414761,-0.238632,-0.7922680000000001,29.47,58.9925,-11.235
450,204610,0.419192,-0.21838000000000002,-0.921832,35.0,75.635,-15.82
451,204706,0.6109760000000001,-0.22472399999999998,-0.853756,49.735,101.4475,-26.7575
452,204802,0.5368,-0.19032000000000002,-0.9725841000000001,59.3075,131.425,-29.82
453,204898,0.396256,-0.22033200000000003,-0.9713639999999999,61.8625,161.21,-32.41
454,204995,0.530212,-0.21472,-0.9691681000000001,55.0725,197.365,-42.2275
455,205091,0.8086161000000001,-0.27279200000000003,-0.954528,47.425,252.735,-45.92
456,205187,0.6505041,-0.288408,-0.8513161,36.4525,304.395,-49.21
457,205283,0.8413120000000001,-0.293532,-1.068964,38.0275,364.385,-58.4325
458,205380,1.13094,-0.439688,-1.323212,52.3075,431.095,-80.6925
459,205476,1.831952,-0.406504,-1.452288,50.3825,481.4425,-99.68
460,205572,1.884656,-0.44554399999999994,-1.407636,63.6475,520.8175,-123.13
461,205668,1.7387439999999998,-0.6202479999999999,-1.455704,44.695,530.7925,-140.805
462,205765,1.9612720000000001,-0.634156,-1.6689599999999998,42.2975,538.37,-152.075
463,205861,1.696288,-0.51484,-1.524268,55.475,530.53,-155.5225
464,205957,2.671312,-0.5058121,-1.998116,100.5725,527.835,-172.76
465,206054,1.606252,-0.66978,-2.723528,150.36,515.2525,-163.45
466,206150,-0.26766799999999996,0.20861999999999997,-2.668384,231.84,460.18,-107.17
467,206246,3.436008,-1.292712,-3.314496,318.6225,367.64,-113.0675
468,206342,3.679764,-2.2936,-3.912784,310.5375,186.13,-109.06
469,206439,2.382416,-2.838696,-2.9933919999999996,246.7675,-40.2325,-66.045
470,206535,1.2756319999999999,-2.154764,-1.7685119999999999,116.7425,-211.645,-39.1125
471,206631,0.353556,-1.3146719999999998,-0.9764879999999999,-0.875,-304.71,-34.6325
472,206727,-0.104676,-0.678808,-0.626104,-58.8,-331.66,-41.405
473,206824,-0.296948,-0.21594000000000002,-0.542168,-64.995,-320.11,-43.6625
474,206920,-0.28767600000000004,0.018056,-0.513376,-25.2175,-292.3375,-28.5425
475,207016,-0.182024,-0.009516001,-0.518256,39.62,-261.4325,0.315
476,207112,0.039284,-0.164456,-0.580232,102.445,-233.835,33.495
477,207209,0.368196,-0.447008,-0.6558721,145.88,-217.385,64.89
478,207305,0.714432,-0.7200439999999999,-0.734196,156.415,-216.685,91.5075
479,207401,1.0145520000000001,-0.8596120999999999,-0.8322841000000001,133.7875,-233.135,113.5925
480,207497,1.1953559999999999,-0.803492,-0.902068,91.4025,-261.2925,133.84
481,207594,1.233908,-0.564128,-0.931348,47.705,-292.2675,154.7875
482,207690,1.1651,-0.261324,-0.9032879999999999,18.5325,-317.7825,176.785
483,207786,1.075064,-0.024156,-0.828624,8.365,-333.305,197.155
484,207882,1.001132,0.096624,-0.7564001,10.0975,-339.15,210.9275
485,207979,0.993568,0.14078800000000002,-0.763232,13.3875,-337.225,215.075
486,208075,1.0906799999999999,0.146156,-0.861808,14.14,-331.52,209.8075
487,208171,1.292224,0.100284,-1.015772,14.14,-326.9,199.5175
488,208267,1.5103600000000001,-0.003172,-1.1477760000000001,13.545,-325.9725,188.86
489,208364,1.7690000000000001,-0.155184,-1.245132,10.4475,-328.72,180.39
490,208460,2.068388,-0.39161999999999997,-1.288076,2.275,-333.7075,175.4375
491,208556,2.38754,-0.575596,-1.27734,-16.31,-340.0075,173.6525
492,208652,2.6888799999999997,-0.604876,-1.237568,-45.78,-344.2075,176.365
493,208749,3.065372,-0.58316,-1.1570479999999999,-75.4075,-342.4925,186.795
494,208845,3.5272639999999997,-0.5697399999999999,-1.019432,-101.3425,-335.195,200.76
495,208941,3.9579239999999998,-0.49312399999999995,-0.8439959999999999,-126.735,-326.4275,209.5625
496,209037,4.075532,-0.505324,-0.44847200000000004,-146.0725,-319.2525,210.4375
497,209134,4.173864,-0.88328,0.440176,-162.155,-314.6325,197.5925
498,209230,4.311968,-0.345748,1.187548,-201.67,-328.475,143.7975
499,209326,4.793868,1.5950280000000001,1.896612,-203.42,-341.04,81.6375
500,209422,4.549624,3.117832,2.891156,-48.1425,-331.8,87.115
501,209519,3.412096,2.39852,4.3773599999999995,218.085,-275.59,151.34
502,209615,1.719956,0.8669319999999999,5.256004,312.6725,-174.1425,140.7525
503,209711,0.06661201,-0.14469200000000002,4.7814239999999995,199.185,-48.405,27.23
504,209807,-0.223016,-0.434808,2.234796,4.4975,93.45,-162.7325
505,209904,-1.207068,-1.6165,0.187148,-98.6475,239.4175,-233.1
506,210000,1.429108,-1.032852,-3.0317,-139.265,352.625,-186.97
507,210096,3.122712,-1.128744,-1.218536,14.945,366.625,4.1825
508,210192,2.663748,-1.6750599999999998,0.955016,70.175,343.2625,166.1275
509,210289,0.12761199999999998,0.24644000000000002,-0.064172,-32.585,318.9725,135.9575
510,210385,2.360456,1.842932,-2.617632,-57.3125,378.9975,41.79
511,210481,2.893352,1.712636,-2.43024,-22.8725,332.6925,-16.3275
512,210577,2.136464,1.0023520000000001,-1.7812,3.7275,238.4725,-72.45
513,210674,2.124508,-0.54778,-1.398608,44.905,188.2125,-100.345
514,210770,3.123932,-2.07156,-0.981124,25.48,139.72,-91.7525
515,210866,1.193892,-0.8344801,-0.132004,-62.4925,66.4475,-59.85
516,210962,0.897432,0.209108,-1.2043840000000001,-66.36,48.0375,-32.445
517,211059,0.522892,-0.37942,-0.5948720000000001,-44.7125,31.2725,-36.435
518,211155,0.907192,-0.7107720000000001,-0.485804,-41.0375,29.505,-39.445
519,211251,0.8066641,-0.154452,-0.81374,-56.0175,20.335,-40.18
520,211347,0.8357,-0.195932,-0.8169121,-49.07,11.7425,-39.4275
521,211444,0.8283799999999999,-0.158112,-0.79422,-37.555,7.42,-30.5375
522,211540,0.7376119999999999,-0.242048,-0.7517640999999999,-29.015,3.115,-23.1175
523,211636,0.7005239999999999,-0.236436,-0.7356600000000001,-23.87,0.4025,-18.795
524,211732,0.734684,-0.159576,-0.795928,-21.0875,-0.35,-16.0825
525,211829,0.7005239999999999,-0.177876,-0.7671359999999999,-14.735,-1.8375,-11.62
526,211925,0.680028,-0.228384,-0.712724,-9.9925,-1.925,-8.295
527,212021,0.668072,-0.215696,-0.7176041,-8.5225,-1.995,-6.7025
528,212117,0.659044,-0.204716,-0.71614,-7.8225,-2.17,-6.3175
529,212214,0.6527,-0.216428,-0.7027201,-7.77,-2.0475,-6.4225
530,212310,0.632204,-0.23082399999999997,-0.677344,-9.66,-2.0125,-7.315
531,212406,0.64782,-0.22082,-0.71614,-11.97,-1.785,-9.24
532,212502,0.677832,-0.19251600000000002,-0.743712,-12.495,-1.4525,-10.2725
533,212599,0.6771,-0.190808,-0.73444,-9.17,-1.9775,-9.17
534,212695,0.6661201,-0.193004,-0.731024,-6.1775,-2.1175,-7.77
535,212791,0.667096,-0.190808,-0.7285841,-3.8325,-2.205,-6.6675
536,212887,0.66978,-0.196664,-0.721508,-2.5375,-2.45,-5.4775
537,212984,0.655384,-0.21520799999999998,-0.7117479999999999,-1.1725,-2.3975,-4.655
538,213080,0.650016,-0.219356,-0.70516,-0.7525,-2.1525,-4.5675
539,213176,0.661484,-0.211792,-0.70394,-0.6125,-1.9425,-4.9525
540,213272,0.6661201,-0.201544,-0.710284,-0.4025,-1.995,-5.2325
541,213369,0.6722199999999999,-0.196176,-0.712724,-0.1925,-1.96,-5.18
542,213465,0.674172,-0.192272,-0.7117479999999999,0.1925,-2.0475,-4.865
543,213561,0.6749041,-0.188612,-0.70516,0.455,-2.345,-4.6025
544,213657,0.673196,-0.20861999999999997,-0.7046720999999999,0.595,-2.8175,-4.41
545,213754,0.6724640000000001,-0.196176,-0.701256,0.6125,-3.08,-4.095
546,213850,0.6602640000000001,-0.204716,-0.7015,0.21,-3.5,-3.8675
547,213946,0.656848,-0.21228000000000002,-0.69784,0.035,-3.3425,-3.9375
548,214042,0.652212,-0.195932,-0.701012,-0.385,-2.8525,-4.0425
549,214139,0.660996,-0.19764,-0.705404,-0.7875,-1.7675,-4.305
550,214235,0.664412,-0.19397999999999999,-0.697596,-0.665,-0.8225,-3.885
551,214331,0.66368,-0.184952,-0.71492,-1.0325,0.21,-3.5
552,214427,0.638548,-0.20642399999999997,-0.70028,-1.155,1.4,-2.975
553,214524,0.624884,-0.223016,-0.708576,-1.995,3.255,-3.395
554,214620,0.5726680000000001,-0.2562,-0.70394,-3.465,6.0725,-5.1275
555,214716,0.58316,-0.287188,-0.6785640000000001,-4.3925,10.78,-8.295
556,214813,0.6107319999999999,-0.228872,-0.704916,-4.0075,14.455,-11.4625
557,214909,0.6390359999999999,-0.176656,-0.711992,-2.765,17.9375,-11.7425
558,215005,0.653676,-0.186416,-0.756156,-1.715,21.735,-11.1125
559,215101,0.540216,-0.22935999999999998,-0.768844,0.3675,28.0875,-12.635
560,215198,0.5553441,-0.250344,-0.7922680000000001,7.735,37.8175,-15.33
561,215294,0.5885281,-0.251808,-0.8149601,19.4775,49.49,-14.4375
562,215390,0.6373281,-0.26303200000000004,-0.8571719999999999,28.4725,64.26,-13.5625
563,215486,0.49849209999999994,-0.16714,-0.9628241,36.19,85.61,-20.0375
564,215583,0.589504,-0.231068,-0.8927959999999999,55.5975,115.9025,-26.3025
565,215679,0.378688,-0.211304,-1.009184,61.495,144.725,-28.2275
566,215775,0.485072,-0.18178,-0.9757561,59.29,173.2325,-35.4025
567,215871,0.59902,-0.217892,-0.9179280000000001,51.31,218.4175,-41.7375
568,215968,0.0854,-0.377224,-1.065548,45.2025,275.765,-41.9475
569,216064,0.5858439999999999,-0.177144,-1.0784799999999999,35.8225,319.6375,-48.0025
570,216160,1.090924,-0.36356,-1.085068,48.5275,386.2425,-62.685
571,216256,1.365912,-0.366976,-1.347124,46.62,442.4,-85.55751
572,216353,2.057896,-0.309636,-1.3832360000000001,61.5125,491.26,-100.5725
573,216449,1.9183279999999998,-0.4941,-1.41276,61.285,515.3225,-126.455
574,216545,1.8724560000000001,-0.720288,-1.522316,47.3375,518.9275,-144.2875
575,216641,1.861232,-0.6170760000000001,-1.4598520000000001,50.7675,514.815,-155.82
576,216738,1.62992,-0.538996,-1.3834799999999998,72.9225,503.16,-170.52
577,216834,2.128168,-0.729072,-1.86782,104.545,505.1375,-195.0375
578,216930,0.903532,-0.416996,-2.1286560000000003,144.27,492.275,-173.5125
579,217026,-0.427976,0.790804,-1.626016,216.3875,459.8825,-152.1275
580,217123,3.261548,-1.240984,-2.7349959999999998,270.9175,412.5275,-190.9425
581,217219,3.5038400000000003,-1.87758,-3.382572,239.1725,260.6625,-204.9425
582,217315,2.940932,-2.226744,-3.179564,187.95,55.615,-169.2075
583,217411,2.011536,-1.9337,-2.294088,119.8575,-130.0775,-110.1975
584,217508,1.117032,-1.42008,-1.3139399999999999,54.25,-260.365,-57.3475
585,217604,0.39771999999999996,-0.94916,-0.73932,10.4475,-320.6875,-25.305
586,217700,0.06588,-0.6029241,-0.46921199999999996,-10.01,-332.92,-11.9875
587,217796,-0.053924,-0.41577600000000003,-0.320616,-2.975,-319.8825,2.135
588,217893,-0.048312,-0.36844,-0.273036,19.5475,-298.0775,22.4
589,217989,0.039528,-0.400404,-0.270108,45.6925,-274.75,46.97
590,218085,0.18251199999999998,-0.5058121,-0.30841599999999997,66.3075,-254.7825,73.29
591,218181,0.39405999999999997,-0.626104,-0.36892800000000003,74.165,-241.815,97.23001
592,218278,0.611952,-0.7032079999999999,-0.4758,67.095,-238.63,117.32
593,218374,0.818132,-0.7032079999999999,-0.5702281,49.9975,-245.3675,134.435
594,218470,0.9882001,-0.640256,-0.667828,30.2925,-259.7525,150.7975
595,218566,1.100196,-0.533628,-0.728096,14.7875,-278.635,166.6525
596,218663,1.146068,-0.413336,-0.746396,5.6,-297.99,180.95
597,218759,1.181448,-0.312564,-0.743712,2.9225,-315.21,190.8725
598,218855,1.19682,-0.249856,-0.735904,4.0075,-329.4725,194.5825
599,218951,1.231468,-0.20861999999999997,-0.7468840999999999,7.1225,-340.0075,192.0625
600,219048,1.2932,-0.19397999999999999,-0.7954399999999999,11.935,-346.7625,184.3625
601,219144,1.40666,-0.205448,-0.869616,18.865,-349.615,174.58
602,219240,1.6047879999999999,-0.281088,-0.9720960999999999,29.26,-350.3325,165.6375
603,219336,1.8404919999999998,-0.4636,-1.0208959999999998,40.18,-350.4025,160.6675
604,219433,2.1008400000000003,-0.755912,-1.0140639999999999,43.47,-350.6125,160.1425
605,219529,2.357772,-1.039684,-1.00284,29.435,-349.685,162.9075
606,219625,2.6388599999999998,-1.17608,-1.022116,-1.1725,-344.0675,168.595
607,219721,2.889204,-0.7417600000000001,-1.099708,-37.66,-332.9375,180.705
608,219818,3.2339759999999997,-0.403088,-1.1775440000000001,-46.0425,-311.1325,215.04
609,219914,3.7088,-0.256932,-1.0565200000000001,-27.72,-286.965,251.1775
610,220010,3.9262040000000002,-0.20642399999999997,-0.707112,-13.6675,-270.305,269.325
611,220106,4.044055999999999,-0.16689600000000002,-0.030256,-14.49,-261.0475,266.1925
612,220203,4.360524,0.116876,0.9806360000000001,-39.375,-268.695,232.6975
613,220299,5.195004,1.35176,2.132072,-74.515,-296.205,168.7875
614,220395,4.8678,2.472208,3.335968,-49.1925,-327.565,121.8
615,220491,3.23422,2.7833080000000003,4.26146,60.0425,-308.6125,102.76
616,220588,1.1570479999999999,1.874164,4.852428,163.695,-207.235,74.165
617,220684,-0.280844,0.599996,4.432992,176.5925,-43.89,8.645
618,220780,-0.424804,-1.425936,2.673752,78.575,134.4175,-109.62
619,220876,-1.163392,-1.3388280000000001,0.626836,-184.765,290.15,-99.24251
620,220973,2.561512,0.29158,-3.8198199999999995,-252.28,363.2475,-116.2875
621,221069,2.965576,-0.6505041,-0.9049959999999999,-27.86,319.5325,62.405
622,221165,0.630008,0.2806,0.494832,-37.975,275.9925,126.9275
623,221261,0.188856,1.5523280000000002,-0.7869,-74.655,320.3725,80.92
624,221358,3.076108,2.391932,-3.053172,-34.09,377.37,1.8025
625,221454,2.668872,1.693848,-2.148908,3.2375,296.5025,-64.855
626,221550,2.3833919999999997,-0.32696,-1.488888,39.655,217.7875,-109.8125
627,221646,2.467572,-1.813896,-1.2817319999999999,55.9475,173.39,-101.395
628,221743,2.5183240000000002,-1.7355720000000001,-0.5060560000000001,-20.0025,125.7725,-72.485
629,221839,1.042856,0.105652,-0.9296399999999999,-88.16501,69.405,-38.465
630,221935,0.8862081,0.317932,-1.193648,-69.44,49.8575,-33.11
631,222031,0.7076001000000001,-0.7007680000000001,-0.47653199999999996,-37.5375,32.1475,-33.775
632,222128,0.865468,-0.46726,-0.626104,-45.1675,31.465,-30.7825
633,222224,0.757864,-0.163236,-0.823256,-52.2725,18.6375,-35.3675
634,222320,0.8337481,-0.194956,-0.799588,-42.875,12.3375,-33.5125
635,222416,0.781532,-0.192028,-0.780068,-34.265,7.98,-25.9875
636,222513,0.698816,-0.238144,-0.7449321,-27.86,3.43,-21.0875
637,222609,0.69052,-0.24863600000000002,-0.731024,-23.3625,2.1525,-17.36
638,222705,0.700036,-0.173728,-0.771772,-21.1225,2.1175,-14.8575
639,222801,0.69052,-0.188856,-0.763476,-16.8,1.575,-11.3575
640,222898,0.6895439999999999,-0.21618400000000002,-0.7327321,-12.25,-0.21,-8.855
641,222994,0.6605081,-0.20837600000000003,-0.720532,-10.1675,-0.91,-6.825
642,223090,0.654896,-0.202032,-0.7259001,-9.2225,-1.1025,-6.4225
643,223186,0.6480640000000001,-0.219356,-0.705404,-8.575,-0.9275,-6.5975
644,223283,0.636108,-0.236436,-0.6912520000000001,-9.0125,-0.9975,-7.5425
645,223379,0.646844,-0.22448,-0.71248,-11.4625,-1.015,-9.485
646,223475,0.68198,-0.189344,-0.74542,-11.6725,-0.735,-10.4125
647,223571,0.682956,-0.20178800000000002,-0.74054,-8.33,-1.4,-9.1525
648,223668,0.671732,-0.202276,-0.729804,-5.0575,-2.03,-7.21
649,223764,0.667096,-0.197884,-0.724924,-3.22,-2.415,-6.02
650,223860,0.664412,-0.205448,-0.7195560000000001,-1.7675,-2.6775,-5.1625
651,223956,0.662704,-0.20788800000000002,-0.7168720000000001,-0.945,-2.8875,-4.725
652,224053,0.6541640000000001,-0.21472,-0.71248,-0.49,-2.8525,-4.76
653,224149,0.656116,-0.21374400000000002,-0.710284,-0.2625,-2.8525,-5.145
654,224245,0.653676,-0.21374400000000002,-0.707356,-0.3325,-2.6775,-5.67
655,224341,0.661728,-0.20837600000000003,-0.699792,-0.4725,-2.7475,-6.4575
656,224438,0.6724640000000001,-0.196176,-0.7093081,-0.8225,-2.94,-6.9125
657,224534,0.6753920999999999,-0.202032,-0.7078439999999999,-0.525,-3.5175,-6.6325
658,224630,0.67588,-0.194712,-0.7093081,-0.385,-3.85,-5.9325
659,224726,0.670512,-0.20178800000000002,-0.707112,-0.42,-4.2,-5.145
660,224822,0.655628,-0.202276,-0.706624,-0.14,-4.445,-5.11
661,224919,0.659044,-0.191052,-0.7178479999999999,-0.2975,-4.0075,-4.865
662,225015,0.661728,-0.189344,-0.7139439999999999,0.07,-3.255,-4.445
663,225111,0.666608,-0.185684,-0.708088,0.4725,-2.6075,-3.8675
664,225207,0.6653880999999999,-0.188612,-0.715164,0.4725,-1.7675,-3.9725
665,225304,0.657092,-0.19959200000000002,-0.705404,0.91,-0.8575,-3.535
666,225400,0.641232,-0.235704,-0.6824680000000001,0.35,0.035,-3.2375
667,225496,0.6178081,-0.234972,-0.688812,-0.6825,1.54,-4.4625
668,225592,0.577548,-0.26961999999999997,-0.6753920999999999,-1.6975,3.64,-6.16
669,225689,0.54168,-0.255468,-0.676612,-4.4275,7.245,-9.45
670,225785,0.556076,-0.277672,-0.6749041,-8.75,12.04,-14.77
671,225881,0.615368,-0.22106399999999998,-0.703696,-11.445,17.045,-18.0775
672,225977,0.6304960000000001,-0.17128800000000002,-0.7612800999999999,-9.38,21.105,-20.3525
673,226074,0.575596,-0.239852,-0.750788,-3.115,26.565,-17.8325
674,226170,0.543876,-0.229604,-0.8613200000000001,5.3375,35.56,-18.13
675,226266,0.543632,-0.24107199999999998,-0.847412,20.195,46.9875,-17.2725
676,226362,0.6649,-0.236192,-0.8664440000000001,35.2625,63.1925,-16.765
677,226459,0.536068,-0.112728,-0.9381801,44.5375,86.7825,-20.2475
678,226555,0.588284,-0.240096,-0.8845,59.57,117.6525,-24.7975
679,226651,0.36966,-0.177876,-1.068232,67.095,147.175,-27.09
680,226747,0.499468,-0.195932,-0.9684360999999999,66.99,176.54,-34.055
681,226844,0.5546121,-0.21081599999999998,-0.8971879999999999,56.6475,219.975,-39.76
682,226940,0.118828,-0.343064,-1.112152,51.9575,276.3425,-38.3075
683,227036,0.5873079999999999,-0.174704,-1.057496,47.5125,319.41,-43.0675
684,227132,1.054568,-0.361608,-1.034804,60.095,382.7775,-56.14
685,227229,1.343952,-0.2989,-1.259772,54.3025,434.3325,-77.8225
686,227325,2.019344,-0.22496799999999997,-1.3266280000000001,68.53,480.7425,-92.2075
687,227421,1.832684,-0.401624,-1.340048,71.85501,503.6675,-112.875
688,227517,1.7916919999999998,-0.633424,-1.42862,56.91,503.72,-122.5525
689,227614,1.820728,-0.532408,-1.3261399999999999,64.34751,501.235,-128.5375
690,227710,1.562088,-0.46628400000000003,-1.18218,86.1,492.1525,-137.795
691,227806,2.292868,-0.41113999999999995,-1.586488,120.995,489.4575,-161.5775
692,227902,0.9525761,-0.489464,-2.0559439999999998,159.1625,481.46,-153.8425
693,227999,-0.24522,0.050752,-1.6487080000000003,221.7075,447.79,-122.815
694,228095,2.212592,-0.6292760000000001,-1.362252,269.2025,411.95,-153.86
695,228191,3.182004,-1.442772,-2.865536,250.32,325.955,-205.8525
696,228287,3.2891199999999996,-1.8351240000000002,-3.390136,193.2175,135.87,-205.205
697,228384,2.538088,-1.8756279999999999,-2.7054720000000003,141.575,-63.7,-158.2525
698,228480,1.6108879999999999,-1.436672,-1.724104,89.0575,-222.5475,-95.2
699,228576,0.8215481,-1.027484,-0.944524,47.845,-313.915,-48.3525
700,228672,0.37942,-0.702232,-0.5246,21.0175,-346.6925,-24.29
701,228769,0.174948,-0.5121560000000001,-0.323544,13.8075,-346.4825,-8.575
702,228865,0.081496,-0.4404201,-0.197884,20.7025,-331.8525,9.24
703,228961,0.064416,-0.41382399999999997,-0.15006,31.15,-312.0425,28.035
704,229057,0.09345201,-0.43505200000000005,-0.144204,41.8075,-290.5875,47.8625
705,229153,0.16689600000000002,-0.487756,-0.18104800000000001,49.0525,-269.955,68.18
706,229250,0.31402800000000003,-0.534604,-0.265228,50.8725,-252.945,87.3075
707,229346,0.522648,-0.57706,-0.401868,47.4075,-241.9725,105.6475
708,229442,0.7700640999999999,-0.604632,-0.540216,40.5125,-240.2225,123.445
709,229538,0.96624,-0.594384,-0.663924,30.94,-248.4825,140.595
710,229635,1.113372,-0.5282600000000001,-0.785924,21.175,-264.005,156.555
711,229731,1.220976,-0.457012,-0.8459479999999999,14.245,-283.5525,170.975
712,229827,1.299056,-0.378932,-0.8518040000000001,10.3775,-304.6225,181.51
713,229924,1.325164,-0.30841599999999997,-0.8376520000000001,8.68,-324.52,186.5325
714,230020,1.32736,-0.256444,-0.823744,8.645,-340.305,184.9225
715,230116,1.37616,-0.227408,-0.8378960999999999,10.5175,-350.0,177.485
716,230212,1.489376,-0.23253200000000002,-0.8954801,16.0125,-354.165,167.4225
717,230308,1.69092,-0.30012,-0.9696561,25.83,-354.7425,158.6725
718,230405,1.9056400000000002,-0.47702,-0.9945440000000001,36.89,-353.71,153.9475
719,230501,2.112796,-0.7671359999999999,-0.9340321,39.5325,-351.8025,152.5825
720,230597,2.317756,-1.0004,-0.8857200999999999,24.64,-344.68,153.0025
721,230693,2.528572,-1.08946,-0.809348,-4.5325,-329.2625,154.42
722,230789,2.752564,-0.5355800999999999,-0.84546,-34.8075,-306.2675,160.09
723,230886,3.117588,-0.114436,-0.9486720999999999,-27.86,-273.2275,191.1875
724,230982,3.577772,-0.041968,-0.7944641,14.0875,-243.2675,228.2175
725,231078,3.8656919999999997,-0.08442401,-0.41675200000000007,40.39,-224.6825,250.53
726,231174,4.030392,-0.056608000000000006,0.204716,35.315,-223.3525,252.6125
727,231271,4.486672,0.439932,1.033096,0.2275,-245.1575,224.6825
728,231367,4.9431959999999995,1.268312,2.104988,-31.36,-287.21,179.13
729,231463,4.3066,1.98616,3.26228,-26.1625,-322.0,137.7775
730,231559,2.452688,2.520276,4.089928,21.385,-298.55,93.8525
731,231656,0.396988,1.963468,4.448852,98.68251,-189.63,44.5025
732,231752,-0.49141599999999996,0.57462,3.5109160000000004,142.31,-12.1975,-22.7675
733,231848,-0.8371639999999999,-3.0575639999999997,2.866756,30.1,176.1375,-62.8775
734,231944,1.7890080000000002,0.535092,-2.8862759999999996,-259.7175,324.5725,-68.9675
735,232041,3.1985959999999998,-0.173484,-3.019256,-112.63,355.39,-23.52
736,232137,1.8583040000000002,-0.644892,0.027572000000000003,13.72,271.3025,145.8275
737,232233,-0.6075600999999999,1.5135319999999999,0.316224,-73.5525,255.85,123.6725
738,232329,1.586244,2.152812,-1.9468759999999998,-37.8525,353.4125,40.215
739,232426,3.159312,1.92272,-2.8552880000000003,4.8475,339.745,-43.0675
740,232522,2.081808,0.61732,-1.625284,32.27,234.395,-107.0475
741,232618,2.404132,-1.142408,-1.2078,64.8375,186.1125,-127.8375
742,232714,1.62382,-1.7202,-0.6795401,40.0225,142.17,-99.82
743,232811,2.1469560000000003,-1.7446,-0.5575399999999999,-15.26,125.195,-70.14
744,232907,1.13582,-0.031232,-0.7986121,-92.995,81.62001,-48.3175
745,233003,1.047492,0.315736,-1.213168,-78.55751,58.9575,-43.575
746,233099,0.788852,-0.643428,-0.516792,-45.15,37.38,-42.56
747,233196,0.8420440999999999,-0.393572,-0.689056,-50.89,29.7675,-39.1825
748,233292,0.8676640999999999,0.003904,-0.9413520000000001,-56.3325,20.405,-39.4975
749,233388,0.863516,-0.254492,-0.758108,-38.9375,12.2325,-31.885
750,233484,0.7283400999999999,-0.215696,-0.7510321,-32.2175,5.845,-25.6725
751,233581,0.734684,-0.236436,-0.7483479999999999,-27.5275,3.78,-21.315
752,233677,0.706136,-0.21862399999999999,-0.740296,-22.9775,1.3125,-17.9375
753,233773,0.7076001000000001,-0.19885999999999998,-0.750544,-19.53,0.315,-15.295
754,233869,0.693692,-0.231312,-0.720532,-15.505,-0.4025,-12.4425
755,233965,0.68198,-0.221308,-0.721508,-13.0375,-1.1725,-10.7275
756,234062,0.670512,-0.20252,-0.730292,-11.5675,-1.54,-10.0625
757,234158,0.664412,-0.21374400000000002,-0.7168720000000001,-9.765,-1.715,-9.2925
758,234254,0.6634359999999999,-0.228872,-0.698328,-9.17,-1.8025,-9.1175
759,234350,0.658556,-0.215452,-0.71248,-9.38,-1.9075,-9.52
760,234447,0.663924,-0.21520799999999998,-0.715408,-9.0825,-2.0125,-9.835
761,234543,0.671488,-0.21447600000000003,-0.716384,-8.3475,-1.925,-9.6775
762,234639,0.6763680000000001,-0.203008,-0.721264,-7.4375,-2.03,-9.3625
763,234735,0.676612,-0.21228000000000002,-0.7137001000000001,-5.9325,-2.275,-8.5925
764,234832,0.6646561,-0.21838000000000002,-0.707356,-4.585,-2.52,-7.875
765,234928,0.66246,-0.225456,-0.699792,-4.165,-2.8875,-7.875
766,235024,0.6573359999999999,-0.22862800000000003,-0.6973520000000001,-4.1825,-3.1675,-8.1375
767,235120,0.665876,-0.2196,-0.707112,-4.3925,-3.0275,-8.61
768,235217,0.670512,-0.20837600000000003,-0.706136,-3.9375,-2.905,-8.715
769,235313,0.6729520999999999,-0.202764,-0.710284,-3.185,-2.835,-8.5225
770,235409,0.676612,-0.200324,-0.709064,-2.5025,-2.695,-7.945
771,235505,0.685396,-0.190076,-0.7095520000000001,-1.785,-2.6425,-7.1925
772,235602,0.6844201,-0.197884,-0.702964,-1.0325,-2.695,-6.405
773,235698,0.6856399999999999,-0.187636,-0.70394,-0.5775,-2.94,-5.5825
774,235794,0.6832,-0.18422,-0.71004,-0.5425,-3.3425,-5.3025
775,235890,0.6736840000000001,-0.186416,-0.7076001000000001,0.07,-3.255,-5.0575
776,235987,0.668072,-0.20008,-0.70028,0.35,-3.2725,-4.2875
777,236083,0.662704,-0.189588,-0.6919841,0.1575,-2.8875,-4.06
778,236179,0.6695361,-0.19885999999999998,-0.7093081,0.9275,-2.275,-3.5875
779,236275,0.662704,-0.199348,-0.7034521,0.4375,-1.505,-3.29
780,236372,0.66246,-0.205448,-0.710284,0.2625,-0.3325,-2.94
781,236468,0.648552,-0.225212,-0.696864,0.2625,0.9975,-3.3075
782,236564,0.633424,-0.232044,-0.693204,-0.175,2.24,-3.85
783,236660,0.612196,-0.250344,-0.691496,-0.98,4.2525,-5.0225
784,236757,0.593164,-0.238144,-0.703696,-1.715,6.895,-6.195
785,236853,0.601704,-0.23301999999999998,-0.678808,-2.065,11.025,-8.505
786,236949,0.6317159999999999,-0.220088,-0.688812,-2.4325,15.295,-10.395
787,237045,0.61,-0.21276799999999998,-0.706136,-1.6625,18.55,-10.885
788,237142,0.58682,-0.23448400000000003,-0.721264,1.295,23.905,-10.5175
789,237238,0.58194,-0.21886799999999998,-0.7747001,6.3875,31.36,-12.46
790,237334,0.5697399999999999,-0.259372,-0.786412,15.33,41.51,-12.11
791,237430,0.6290319999999999,-0.2135,-0.791048,25.4275,54.4075,-10.9725
792,237527,0.552904,-0.2562,-0.886452,32.655,70.875,-10.185
793,237623,0.572912,-0.142008,-0.9108521,41.1075,92.7325,-16.73
794,237719,0.5314321,-0.193004,-0.9415959999999999,56.6125,122.8675,-20.685
795,237815,0.47482399999999997,-0.26718000000000003,-0.968192,61.8975,151.095,-24.535
796,237912,0.5665680000000001,-0.21862399999999999,-0.96014,61.7225,183.33,-31.0275
797,238008,0.6258600000000001,-0.2623,-0.8525360000000001,59.1675,226.695,-34.335
798,238104,0.2562,-0.33013200000000004,-0.9850280999999999,53.375,276.1325,-36.1025
799,238200,0.6456241,-0.17568,-1.010404,51.5025,318.885,-40.11
800,238297,1.077016,-0.38356799999999996,-0.9225639999999999,70.2625,380.6425,-54.2325
801,238393,1.3973879999999999,-0.332084,-1.248304,70.665,427.7,-75.775
802,238489,1.927844,-0.333548,-1.20536,83.16001,466.1475,-93.38
803,238585,1.8919759999999999,-0.50142,-1.2505,70.7875,478.905,-116.3575
804,238682,1.8648919999999998,-0.643672,-1.4483840000000001,59.92,477.0325,-126.5425
805,238778,1.6296760000000001,-0.496296,-1.123376,79.3625,470.715,-126.8575
806,238874,1.46644,-0.49434399999999995,-1.11996,115.92,465.8675,-134.015
807,238971,2.0986439999999997,-0.471896,-1.520608,156.1,466.55,-155.7675
808,239067,0.8569280999999999,-0.411628,-1.808284,204.54,456.9425,-142.5025
809,239163,0.005368,0.067832,-1.7348400000000002,280.4725,426.125,-111.615
810,239259,2.223328,-0.390644,-1.321748,359.835,383.4075,-129.605
811,239356,3.1839560000000002,-1.6384599999999998,-2.785504,375.6025,291.06,-158.1825
812,239452,3.035604,-2.4368279999999998,-2.845528,335.0375,102.4275,-131.25
813,239548,2.1935599999999997,-2.527108,-2.054724,241.6925,-81.0775,-77.2625
814,239644,1.2993,-1.89222,-1.249524,118.02,-219.695,-25.865
815,239740,0.566812,-1.2397639999999999,-0.6378159999999999,15.995,-300.615,1.68
816,239837,0.139568,-0.770308,-0.35843600000000003,-47.39,-327.635,7.5775
817,239933,-0.05612,-0.39161999999999997,-0.321348,-73.78,-322.385,8.2075
818,240029,-0.100284,-0.050263999999999996,-0.34648,-63.9275,-298.69,18.585
819,240125,-0.045872,0.069052,-0.375272,-21.0,-270.34,42.2975
820,240222,0.07808001,0.056852,-0.424804,35.805,-244.93,74.0075
821,240318,0.248148,-0.056852,-0.502884,85.365,-225.1375,104.265
822,240414,0.494588,-0.276208,-0.5936520000000001,116.725,-215.565,126.84
823,240510,0.8025161,-0.474092,-0.714676,120.1025,-219.9925,138.9675
824,240607,1.041148,-0.553148,-0.806908,97.5975,-240.275,143.15
825,240703,1.186084,-0.46311199999999997,-0.9150001,63.0525,-270.0775,144.725
826,240799,1.260016,-0.250344,-0.9791719999999999,36.68,-300.58,149.905
827,240895,1.244644,-0.049288,-0.964044,29.05,-326.9875,160.5275
828,240992,1.197552,0.07393200000000001,-0.900848,37.275,-345.59,172.3575
829,241088,1.158512,0.125904,-0.8471681000000001,51.4675,-355.915,180.53
830,241184,1.1477760000000001,0.153476,-0.8554641,63.245,-359.17,181.16
831,241280,1.247084,0.130052,-0.9345201,71.575,-357.0175,174.44
832,241377,1.4496040000000001,0.08003201,-1.052616,76.755,-352.6075,164.045
833,241473,1.7028759999999998,-0.0034159999999999998,-1.17486,79.73001,-349.0025,155.5225
834,241569,1.964932,-0.134444,-1.21024,80.465,-347.9175,151.1825
835,241665,2.13378,-0.258884,-1.18706,75.705,-346.7625,152.705
836,241762,2.312144,-0.281088,-1.1712,60.865,-339.36,158.305
837,241858,2.572736,-0.18470799999999998,-1.1714440000000002,38.5525,-324.065,167.475
838,241954,2.953864,-0.077592,-1.143628,15.085,-306.3025,174.51
839,242050,3.3637839999999994,-0.010248,-1.0316319999999999,-9.6075,-293.86,172.41
840,242147,3.6031480000000005,0.12468399999999999,-0.8361879999999999,-37.415,-290.1325,160.4225
841,242243,3.665368,0.568276,-0.5192319999999999,-61.53,-288.12,144.1825
842,242339,3.698552,1.16388,0.139568,-64.1725,-287.945,131.11
843,242435,3.981104,1.44326,1.301252,-37.695,-301.8575,108.36
844,242532,4.0972480000000004,2.470744,2.2753,-4.7075,-318.605,50.9425
845,242628,2.9872919999999996,3.035848,3.131984,93.555,-306.04,-4.69
846,242724,1.510604,2.073756,3.7785839999999995,232.9075,-229.8275,-35.7
847,242820,0.396012,0.7046720999999999,3.724416,267.3475,-111.3525,-98.2625
848,242917,0.386252,0.134444,2.721088,181.0025,19.95,-203.2625
849,243013,0.10833599999999999,-1.5586719999999998,1.264896,74.0775,131.1625,-289.485
850,243109,0.296704,-2.3528919999999998,-0.359656,-126.2275,225.89,-284.9175
851,243205,2.508076,-0.9208561,-3.7776080000000003,-247.52,231.7,-276.8325
852,243302,2.401936,-1.14802,-1.616012,-111.2125,172.69,-105.9275
853,243398,-0.016347999999999998,-0.344528,0.892064,-86.04751,123.6725,12.005
854,243494,-0.8457040000000001,0.476288,0.125172,-106.9775,190.4175,28.35
855,243590,1.5669680000000001,1.163392,-2.157692,-68.985,292.32,4.375
856,243687,2.672532,1.301008,-2.079124,-58.31,270.515,-36.1725
857,243783,1.710684,0.9296399999999999,-1.3886040000000002,-48.6675,197.855,-71.54
858,243879,1.963956,-0.198128,-1.350296,-8.82,175.2625,-84.595
859,243975,2.919216,-1.759728,-0.886452,-10.115,143.745,-72.5375
860,244072,0.9730721,-0.475312,-0.276452,-91.1575,77.28,-58.5025
861,244168,0.8808401,0.318664,-1.2700200000000001,-81.83001,55.65,-36.89
862,244264,0.7539600000000001,-0.214232,-0.718824,-62.2825,38.4475,-41.72
863,244360,0.8193521,-0.543876,-0.574132,-55.3875,30.45,-41.125
864,244457,0.8488761,-0.152256,-0.8178880999999999,-63.84,25.06,-42.035
865,244553,0.856684,-0.17641199999999999,-0.802272,-54.9325,15.015,-41.23
866,244649,0.82594,-0.11955999999999999,-0.8457040000000001,-44.7125,8.295,-34.7375
867,244745,0.7856801,-0.10931199999999999,-0.8508280999999999,-35.0875,5.145,-26.4425
868,244842,0.724436,-0.17397200000000002,-0.774212,-24.0275,1.8375,-18.8125
869,244938,0.712236,-0.179096,-0.764696,-20.5275,1.05,-14.35
870,245034,0.71248,-0.134688,-0.78446,-16.87,0.595,-11.76
871,245130,0.6832,-0.162504,-0.7622561,-11.97,0.5075,-8.575
872,245227,0.673928,-0.189832,-0.7327321,-8.4525,1.1025,-6.545
873,245323,0.6695361,-0.1891,-0.729804,-6.965,1.4175,-5.5475
874,245419,0.670512,-0.200324,-0.715896,-6.3525,1.4525,-5.1275
875,245515,0.663192,-0.227652,-0.696376,-6.1775,0.8400001,-5.04
876,245612,0.654652,-0.233264,-0.6954,-6.37,0.21,-5.8275
877,245708,0.6602640000000001,-0.235704,-0.692472,-6.545,-0.035,-6.9125
878,245804,0.6588,-0.24326799999999998,-0.6878361,-6.265,-0.6825,-7.2975
879,245900,0.667828,-0.21228000000000002,-0.70394,-6.475,-0.875,-7.6825
880,245997,0.6688041,-0.20496,-0.715164,-6.1075,-0.8925,-7.77
881,246093,0.6763680000000001,-0.183,-0.7232161,-5.005,-0.6475,-7.2625
882,246189,0.677588,-0.194468,-0.7129681,-3.325,-0.5075,-6.5275
883,246285,0.67466,-0.193492,-0.7117479999999999,-2.0475,-0.56,-5.81
884,246382,0.6749041,-0.1952,-0.712236,-1.0675,-0.5425,-5.1625
885,246478,0.678808,-0.19983599999999999,-0.7105279999999999,-0.2275,-0.4725,-4.795
886,246574,0.676612,-0.188856,-0.71248,0.595,-0.315,-4.3225
887,246670,0.67832,-0.181536,-0.712236,1.3475,-0.14,-3.7625
888,246767,0.6729520999999999,-0.189344,-0.711016,2.135,0.28,-3.36
889,246863,0.666608,-0.18446400000000002,-0.7134560999999999,2.59,0.91,-3.0975
890,246959,0.661728,-0.190808,-0.7005239999999999,3.2025,1.785,-2.625
891,247055,0.652456,-0.20984,-0.7095520000000001,3.6575,2.87,-2.0825
892,247152,0.692228,-0.189588,-0.7088201,4.7775,4.06,-0.91
893,247248,0.68076,-0.202032,-0.701012,4.795,3.85,-0.8925
894,247344,0.671488,-0.182268,-0.69784,4.9175,4.3575,-1.015
895,247440,0.69052,-0.18666,-0.69296,6.055,5.425,0.5775
896,247537,0.6944241,-0.186904,-0.695156,6.125,5.495,0.6125
897,247633,0.6822239999999999,-0.1891,-0.69052,5.915,5.32,0.35
898,247729,0.665632,-0.183976,-0.69418,5.39,5.81,1.0675
899,247825,0.6902761,-0.19983599999999999,-0.686128,5.5475,6.5275,2.8875
900,247922,0.6753920999999999,-0.21032800000000001,-0.7017439999999999,4.515,6.65,1.05
901,248018,0.652944,-0.216916,-0.7095520000000001,4.5675,8.4175,0.385
902,248114,0.681736,-0.2074,-0.7327321,5.705,11.5675,0.8925
903,248210,0.635864,-0.22204000000000002,-0.6980841,8.0325,15.2075,2.205
904,248307,0.573156,-0.248148,-0.696132,10.3425,19.005,0.7
905,248403,0.559004,-0.27889200000000003,-0.7088201,14.7875,25.48,-2.2925
906,248499,0.5675439999999999,-0.261812,-0.7327321,20.1075,33.4775,-5.9325
907,248595,0.5355800999999999,-0.254736,-0.788852,31.045,43.5925,-9.9575
908,248692,0.5458281,-0.40016,-0.743468,48.1075,54.95,-16.1175
909,248788,0.610488,-0.105896,-0.8447280999999999,49.9975,66.57,-27.8775
910,248884,0.571936,-0.119316,-0.8413120000000001,64.54,82.0225,-36.3825
911,248980,0.589504,-0.116876,-0.889136,90.7375,98.7,-48.5625
912,249077,0.509228,-0.23521599999999998,-0.9059721,116.795,121.345,-65.38
913,249173,0.5246,-0.312564,-0.8918200000000001,146.23,153.5275,-84.3675
914,249269,0.520208,-0.323056,-0.792756,164.815,189.6475,-102.2175
915,249365,0.45896400000000004,-0.452376,-0.686372,189.3325,232.4175,-117.1275
916,249462,0.8525360000000001,-0.58194,-0.555832,206.8675,281.015,-132.405
917,249558,1.062376,-0.513376,-0.8788879999999999,204.19,324.3975,-143.22
918,249654,1.4945,-0.634156,-1.080432,218.05,356.7025,-160.5975
919,249750,1.7694880000000002,-0.590724,-1.192428,218.3825,365.9775,-177.94
920,249847,1.7221520000000001,-0.758596,-1.28954,203.4375,341.67,-183.5925
921,249943,1.7812,-0.5192319999999999,-1.211948,237.6325,326.3575,-178.955
922,250039,2.000556,-0.42114399999999996,-0.987712,296.2925,303.415,-174.545
923,250135,2.438536,-0.2318,-1.133868,353.99,268.905,-185.255
924,250231,1.9236959999999999,-0.10052799999999999,-1.442528,415.275,240.94,-171.3775
925,250328,0.07588400000000001,-0.283528,-1.449116,475.475,187.74,-118.3
926,250424,2.084004,-0.48556000000000005,-2.113284,498.645,90.125,-137.6375
927,250520,1.371524,-1.605764,-1.8290240000000002,483.315,-22.925,-190.1725
928,250616,0.336476,-2.101816,-1.047248,392.0525,-109.6025,-191.345
929,250713,-0.176656,-1.658468,-0.831308,273.4025,-132.2475,-163.73
930,250809,-0.446032,-1.067988,-0.868152,202.79,-119.0,-107.17
931,250905,-0.322812,-0.701256,-1.0467600000000001,202.16,-87.4125,-20.8425
932,251001,-0.132492,-0.688812,-1.200968,233.0475,-62.335,71.99501
933,251098,0.11126400000000002,-0.69052,-1.383724,241.9725,-55.125,145.74
934,251194,0.34428400000000003,-0.42187600000000003,-1.590392,215.0925,-67.4625,192.6925
935,251290,0.515328,0.015128,-1.777296,177.7825,-93.6075,223.0025
936,251386,0.593896,0.45115600000000006,-1.874896,153.09,-126.875,244.0725
937,251483,0.647332,0.8840120000000001,-1.8971,143.465,-159.845,255.5525
938,251579,0.720288,1.2343959999999998,-1.87392,148.68,-190.4525,256.025
939,251675,0.76494,1.4454559999999999,-1.800232,163.7125,-220.395,243.0575
940,251771,0.791292,1.5464719999999998,-1.7048279999999998,178.2725,-248.185,215.495
941,251868,0.8359440999999999,1.571604,-1.626992,186.235,-272.615,176.365
942,251964,0.9057280999999999,1.580144,-1.58844,187.4075,-294.28,130.3225
943,252060,1.011624,1.545984,-1.581364,186.9525,-312.6725,84.6825
944,252156,1.11386,1.44448,-1.5701399999999999,188.405,-328.4575,44.17
945,252253,1.249036,1.272216,-1.555988,191.38,-341.81,10.85
946,252349,1.3847,1.089216,-1.510116,192.92,-353.08,-14.0175
947,252445,1.458876,0.944524,-1.430084,191.415,-362.3375,-28.7175
948,252541,1.51158,0.84424,-1.316624,188.825,-366.66,-33.67
949,252638,1.555012,0.837408,-1.2282959999999998,182.7525,-362.355,-30.8525
950,252734,1.651148,0.942084,-1.204628,173.2325,-350.5425,-25.025
951,252830,1.922964,1.143872,-1.220488,162.4875,-335.3,-24.2725
952,252926,2.318488,1.436672,-1.230736,154.7875,-324.345,-35.455
953,253023,2.657648,1.6662759999999999,-1.087752,156.0125,-321.055,-58.8
954,253119,2.820152,1.735084,-0.6917399999999999,160.5625,-323.9775,-93.87
955,253215,2.742316,1.61894,-0.132004,158.3575,-325.5175,-136.745
956,253311,2.509296,1.380552,0.474092,144.2175,-315.7175,-181.2825
957,253408,2.345572,1.1575360000000001,0.837408,122.4475,-288.785,-219.905
958,253504,2.2953080000000003,0.812276,1.933212,105.315,-237.9125,-257.2325
959,253600,2.2936,1.495476,2.031056,48.23,-166.53,-334.0575
960,253696,3.039508,1.3207719999999998,1.7028759999999998,42.77,-91.2975,-371.455
961,253793,3.436984,0.17543599999999998,1.85684,61.425,-38.7275,-348.0225
962,253889,2.1042560000000003,-0.016592,1.009428,-19.1975,-12.11,-320.32
963,253985,1.423984,-2.458788,-1.054324,-60.06,17.6925,-256.3925
964,254081,1.4818120000000001,-3.038776,-0.85034,-20.8075,72.3975,-126.4375
965,254178,2.4234080000000002,-1.033828,-1.0182120000000001,-85.12,118.125,-52.43
966,254274,1.760704,1.283196,-1.7641200000000001,-145.25,73.22,-31.955
967,254370,0.000976,0.528016,-0.700036,-53.3225,30.975,-14.35
968,254466,0.71126,-0.862784,-0.590968,-55.475,33.3725,-37.0475
969,254563,0.8976761000000001,-0.298168,-0.633424,-64.33,35.7875,-39.6025
970,254659,0.9799041,0.243756,-1.0584719999999999,-61.915,24.01,-38.4475
971,254755,0.7856801,-0.046604,-0.8605879999999999,-39.41,9.135,-30.975
972,254851,0.7476161,-0.07637200000000001,-0.8491200000000001,-26.495,6.4225,-22.5925
973,254948,0.7468840999999999,-0.11053199999999999,-0.7861680999999999,-19.8275,6.8425,-16.485
974,255044,0.673928,-0.190564,-0.737124,-13.7375,5.1275,-12.25
975,255140,0.684908,-0.156648,-0.7510321,-12.5825,4.655,-10.6925
976,255236,0.68686,-0.185684,-0.733464,-11.8825,3.6575,-9.6775
977,255333,0.672708,-0.199104,-0.7283400999999999,-10.9725,2.415,-8.89
978,255429,0.6709999999999999,-0.22643200000000002,-0.70394,-9.73,1.8375,-9.1175
979,255525,0.674416,-0.211304,-0.7168720000000001,-9.45,0.91,-9.205
980,255621,0.673196,-0.223504,-0.714432,-8.5575,0.035,-9.59
981,255718,0.684176,-0.20178800000000002,-0.721264,-7.3675,-0.7175,-9.835
982,255814,0.6844201,-0.188368,-0.724924,-5.95,-1.4175,-9.975
983,255910,0.674172,-0.185928,-0.724924,-4.235,-2.4325,-9.4325
984,256006,0.677588,-0.159088,-0.735416,-2.9925,-2.6425,-9.0475
985,256103,0.6753920999999999,-0.148108,-0.740052,-1.6275,-2.7475,-8.33
986,256199,0.6753920999999999,-0.14078800000000002,-0.734684,-0.3325,-2.66,-7.49
987,256295,0.682712,-0.146156,-0.7217521,0.77,-2.6425,-6.9125
988,256392,0.6810039999999999,-0.154452,-0.72712,1.8375,-2.485,-6.0725
989,256488,0.6663640000000001,-0.168604,-0.72102,2.905,-2.205,-5.4775
990,256584,0.66368,-0.192028,-0.71004,3.7275,-2.3275,-5.4075
991,256680,0.658556,-0.194468,-0.706136,4.3225,-2.2925,-6.02
992,256777,0.656116,-0.193492,-0.708332,4.585,-2.1175,-6.6675
993,256873,0.664168,-0.200812,-0.702476,4.445,-2.0125,-7.2975
994,256969,0.6736840000000001,-0.17543599999999998,-0.709796,4.06,-1.8725,-7.7525
995,257065,0.669048,-0.165188,-0.712236,4.0425,-2.24,-8.05
996,257162,0.665632,-0.181292,-0.71248,4.165,-2.2575,-7.735
997,257258,0.680028,-0.1586,-0.71858,3.57,-2.1,-7.0175
998,257354,0.6771,-0.16104000000000002,-0.720532,3.605,-1.855,-6.125
999,257450,0.67588,-0.169824,-0.716384,3.6575,-1.9075,-4.83
1000,257547,0.680516,-0.167384,-0.7107720000000001,3.605,-1.9075,-3.71
1001,257643,0.68686,-0.16128399999999998,-0.7166279999999999,3.325,-2.1875,-2.2575
1002,257739,0.68808,-0.160064,-0.718824,3.2725,-2.73,-0.6825
1003,257835,0.6912520000000001,-0.145424,-0.7266321,3.4825,-3.08,0.9625
1004,257932,0.696132,-0.141032,-0.729072,3.9375,-3.465,2.8875
1005,258028,0.6980841,-0.148352,-0.7300479999999999,4.2175,-3.395,4.7425
1006,258124,0.690032,-0.177876,-0.7176041,4.585,-3.1325,6.3525
1007,258220,0.6695361,-0.190808,-0.720776,4.3225,-2.905,7.735
1008,258317,0.6439159999999999,-0.209108,-0.718092,3.955,-1.3825,8.54
1009,258413,0.624152,-0.223748,-0.7088201,3.92,0.9275,8.8375
1010,258509,0.61122,-0.23228800000000002,-0.7046720999999999,4.025,4.1475,8.365
1011,258605,0.633912,-0.23228800000000002,-0.6946681,2.9575,8.4,6.7025
1012,258702,0.640744,-0.21301199999999998,-0.69906,0.8400001,11.095,5.0925
1013,258798,0.5653481,-0.273768,-0.697108,-0.735,13.4925,4.9175
1014,258894,0.490684,-0.276696,-0.6946681,0.0525,18.97,3.43
1015,258990,0.5267960999999999,-0.263276,-0.7232161,5.4425,28.5075,-2.2925
1016,259087,0.537044,-0.204716,-0.7944641,15.1025,36.435,-5.495
1017,259183,0.631228,-0.13908,-0.828624,30.38,45.9725,-6.65
1018,259279,0.634156,-0.135176,-0.806176,47.11,57.085,-5.4075
1019,259375,0.696376,-0.12053599999999999,-0.813496,61.8975,70.525,-1.8725
1020,259472,0.61732,-0.1525,-0.8081281,67.0425,86.0125,-1.0675
1021,259568,0.6082920999999999,-0.123708,-0.838628,66.255,107.24,-1.75
1022,259664,0.5919439999999999,-0.177144,-0.9108521,77.6825,131.6875,1.155
1023,259760,0.5873079999999999,-0.21081599999999998,-0.879864,83.2125,159.1275,3.36
1024,259857,0.5919439999999999,-0.269376,-0.815692,91.665,190.7325,4.935
1025,259953,0.542412,-0.281332,-0.800564,97.5625,223.51,6.055
1026,260049,0.5453399999999999,-0.24326799999999998,-0.7956840999999999,113.7325,260.9075,7.945
1027,260145,0.5892601,-0.279624,-0.989176,147.175,311.57,10.4475
1028,260242,1.0919,-0.293532,-1.021384,170.03,355.6875,1.785
1029,260338,1.319064,-0.34867600000000004,-1.2214639999999999,186.6025,400.925,-19.005
1030,260434,1.55916,-0.42944,-1.0528600000000001,181.02,428.26,-40.915
1031,260530,1.538908,-0.404796,-1.146556,138.0575,425.5475,-57.505
1032,260627,1.8646479999999999,-0.444324,-1.260748,125.755,430.78,-52.5525
1033,260723,1.578192,-0.229604,-1.141676,154.7,445.5325,-44.2925
1034,260819,1.286612,-0.381616,-1.230492,188.475,449.5575,-46.55
1035,260915,1.5525719999999998,-0.15176800000000001,-1.48474,222.565,452.4625,-66.43
1036,261012,1.19682,0.05612,-1.9124720000000002,276.99,464.5725,-58.3975
1037,261108,0.782508,0.714676,-2.209176,383.2325,451.43,16.3625
1038,261204,3.4611400000000003,-0.6956439999999999,-2.0586279999999997,515.69,364.56,38.465
1039,261300,3.571428,-2.272616,-3.442108,499.4675,201.95,-53.305
1040,261397,3.0744,-2.411452,-3.0624439999999997,366.9225,-38.115,-89.2325
1041,261493,1.707512,-2.017148,-1.8585479999999999,212.135,-230.2825,-82.5825
1042,261589,0.765428,-1.231956,-1.1004399999999999,79.9575,-333.3225,-80.71
1043,261686,0.29646,-0.685396,-0.798124,9.8175,-363.6675,-83.1425
1044,261782,0.04392,-0.30109600000000003,-0.692228,-8.9425,-352.6425,-76.02
1045,261878,0.0305,0.002684,-0.7288279999999999,7.07,-326.3225,-56.7525
1046,261974,0.120048,0.12688,-0.790072,49.4025,-299.1975,-25.6025
1047,262070,0.23448400000000003,0.06661201,-0.8342360000000001,99.5575,-278.075,11.48
1048,262167,0.366976,-0.104432,-0.8466800999999999,134.925,-266.525,45.3075
1049,262263,0.534604,-0.279136,-0.8525360000000001,142.03,-264.7925,69.66751
1050,262359,0.68808,-0.321104,-0.891576,120.295,-271.9325,84.4725
1051,262455,0.8030041,-0.19885999999999998,-0.9384239999999999,84.245,-284.655,94.58751
1052,262552,0.846924,0.002196,-0.9525761,52.675,-298.55,104.825
1053,262648,0.868884,0.179096,-0.945744,35.245,-310.2575,115.3425
1054,262744,0.8840120000000001,0.297192,-0.9191481,30.2225,-319.3225,124.1275
1055,262840,0.8908440999999999,0.392596,-0.9098761000000001,31.3775,-325.43,128.2575
1056,262937,0.9384239999999999,0.42700000000000005,-0.9389120000000001,35.91,-328.16,127.9775
1057,263033,1.030412,0.404796,-0.9952761,40.285,-329.665,123.305
1058,263129,1.1631479999999998,0.327204,-1.054324,41.405,-331.9575,115.5
1059,263225,1.249524,0.23253200000000002,-1.0906799999999999,37.415,-334.2325,107.9925
1060,263322,1.3729879999999999,0.091988,-1.1224,29.47,-334.5475,103.145
1061,263418,1.5845360000000002,-0.07637200000000001,-1.1895,17.5875,-333.6025,100.6075
1062,263514,1.860744,-0.273036,-1.281244,1.2775,-333.9,102.3925
1063,263610,2.169404,-0.447008,-1.328336,-21.0525,-336.07,107.66
1064,263707,2.5222279999999997,-0.5214281,-1.373964,-48.125,-337.19,116.27
1065,263803,2.970944,-0.6034121,-1.379332,-71.6625,-336.42,127.4875
1066,263899,3.457968,-0.7176041,-1.312964,-91.5775,-335.6325,137.6725
1067,263995,3.8544680000000002,-0.9140241,-1.031144,-112.7,-340.935,139.3525
1068,264092,3.962804,-0.992592,-0.5382640000000001,-138.39,-356.335,121.38
1069,264188,3.8183559999999996,-0.805932,0.20178800000000002,-155.575,-374.01,87.67501
1070,264284,3.333528,0.289628,0.90036,-141.7675,-373.7125,50.26
1071,264380,3.108072,1.548424,2.045208,-45.8325,-330.8025,51.1525
1072,264477,3.096116,1.974936,3.414048,114.87,-253.995,89.4425
1073,264573,3.005348,1.286612,4.3773599999999995,233.9575,-158.13,126.07
1074,264669,2.506856,0.568276,4.378336,201.11,-63.595,92.33001
1075,264766,1.8512279999999999,0.450424,3.184688,65.765,10.92,-37.1175
1076,264862,1.5001120000000001,0.11028800000000001,1.181448,-29.225,81.515,-162.4175
1077,264958,0.26913200000000004,-1.198284,0.163968,-40.6175,158.9525,-194.6875
1078,265054,1.036756,-1.068232,-2.358504,-79.03,215.9675,-160.895
1079,265151,1.6677400000000002,-0.8810841,-1.483032,-5.1975,246.2075,-53.1475
1080,265247,1.5142639999999998,-0.9945440000000001,0.378444,46.3925,251.3525,52.185
1081,265343,0.42724399999999996,0.233264,-0.4553041,-7.49,260.9775,52.7275
1082,265439,1.8178,0.985516,-1.990796,-16.555,300.3175,1.7675
1083,265536,2.17282,1.2641639999999998,-2.032764,-7.875,265.2125,-45.85
1084,265632,1.6918959999999998,0.49044,-1.4757120000000001,22.8025,208.6,-80.745
1085,265728,1.771928,-0.6512359999999999,-1.250744,43.8375,174.65,-98.175
1086,265824,1.263188,-0.8935280999999999,-0.683932,35.7,140.5425,-88.46251
1087,265921,1.7707080000000002,-1.8995400000000002,-1.048224,16.8,128.135,-71.75
1088,266017,2.1652560000000003,-0.850096,-0.628544,-58.87,100.17,-64.9775
1089,266113,0.8845,0.195688,-1.052616,-75.5125,54.0575,-40.0225
1090,266209,0.71004,-0.104432,-0.8762040000000001,-59.185,38.115,-35.1225
1091,266306,0.8317960999999999,-0.552416,-0.589992,-47.9675,28.9275,-38.6925
1092,266402,0.820816,-0.15372,-0.8086161000000001,-53.9525,24.4125,-37.0825
1093,266498,0.834724,-0.168604,-0.8249639999999999,-48.0725,16.0475,-34.685
1094,266594,0.80886,-0.22448,-0.769576,-37.66,9.1875,-28.665
1095,266691,0.6993041,-0.23668000000000003,-0.743468,-31.57,4.1475,-23.625
1096,266787,0.6944241,-0.220088,-0.752008,-27.755,1.5925,-22.3475
1097,266883,0.701256,-0.17763199999999998,-0.7705521,-23.87,-0.07,-20.6325
1098,266979,0.682956,-0.20837600000000003,-0.7422481,-18.55,-1.925,-18.375
1099,267076,0.665876,-0.230336,-0.70516,-15.89,-2.975,-17.2725
1100,267172,0.69418,-0.2074,-0.7168720000000001,-16.0125,-2.695,-16.38
1101,267268,0.681492,-0.184952,-0.7366361,-15.68,-2.03,-14.2625
1102,267364,0.66978,-0.196176,-0.7224841,-14.315,-2.1875,-12.67
1103,267461,0.692228,-0.17519200000000001,-0.740296,-13.3175,-1.68,-11.585
1104,267557,0.692716,-0.16226,-0.749568,-11.2,-1.785,-9.9225
1105,267653,0.682712,-0.174216,-0.7356600000000001,-7.7,-1.89,-8.12
1106,267750,0.676124,-0.181536,-0.7315119999999999,-5.11,-1.9075,-6.65
1107,267846,0.665876,-0.190564,-0.7227279999999999,-2.94,-2.0125,-5.7225
1108,267942,0.6675840000000001,-0.188124,-0.7239479999999999,-1.6975,-2.0825,-5.145
1109,268038,0.6612401,-0.189588,-0.7183361,-0.77,-2.31,-4.69
1110,268135,0.6588,-0.194956,-0.716384,-0.14,-2.5725,-4.4625
1111,268231,0.655628,-0.199104,-0.709064,-0.0175,-2.9225,-4.5325
1112,268327,0.6512359999999999,-0.202032,-0.712236,-0.1225,-2.9225,-4.83
1113,268423,0.6514800000000001,-0.198128,-0.7107720000000001,-0.2975,-2.835,-5.285
1114,268520,0.659288,-0.185684,-0.7156520000000001,-0.525,-2.59,-5.6175
1115,268616,0.657092,-0.19032000000000002,-0.711992,-0.735,-2.6075,-5.7225
1116,268712,0.659288,-0.1891,-0.7093081,-1.19,-2.4325,-5.7925
1117,268808,0.664168,-0.180804,-0.715164,-1.54,-2.24,-5.845
1118,268905,0.665876,-0.178608,-0.71126,-1.5925,-2.3275,-5.6175
1119,269001,0.659288,-0.182756,-0.702476,-1.6975,-2.5025,-5.46
1120,269097,0.656848,-0.182268,-0.708576,-1.75,-2.66,-5.845
1121,269193,0.65758,-0.201544,-0.707112,-1.2775,-2.24,-5.915
1122,269290,0.662216,-0.183976,-0.720288,-1.12,-1.4175,-5.6
1123,269386,0.678808,-0.163236,-0.726388,-0.4375,-0.2975,-4.7775
1124,269482,0.690764,-0.16714,-0.7217521,0.8575,0.5775,-3.255
1125,269578,0.688812,-0.159088,-0.721508,2.66,2.5725,-1.4875
1126,269675,0.658068,-0.199104,-0.7078439999999999,4.55,3.9725,-0.2975
1127,269771,0.619516,-0.255712,-0.7178479999999999,5.6875,5.3025,0.1925
1128,269867,0.6124400999999999,-0.261324,-0.6895439999999999,6.1775,7.7525,-0.6825
1129,269963,0.613416,-0.21008400000000002,-0.725168,4.935,10.395,-2.9925
1130,270060,0.616344,-0.209596,-0.699792,3.815,13.72,-5.0925
1131,270156,0.6075600999999999,-0.216916,-0.699792,2.135,18.2525,-6.8775
1132,270252,0.5795,-0.247416,-0.733952,1.435,23.24,-9.135
1133,270348,0.5663239999999999,-0.24156,-0.76494,4.3225,28.7,-11.4275
1134,270445,0.524356,-0.276696,-0.7883640000000001,12.0225,35.1225,-14.175
1135,270541,0.686616,-0.17738800000000002,-0.78446,21.4025,44.8175,-17.3425
1136,270637,0.6329359999999999,-0.19764,-0.8493641,32.13,59.605,-17.4475
1137,270733,0.553148,-0.125904,-0.9171961,37.835,82.075,-20.1425
1138,270830,0.577304,-0.19032000000000002,-0.9203680000000001,53.795,112.3675,-18.48
1139,270926,0.423584,-0.19861600000000001,-0.993812,59.9375,142.2225,-17.7275
1140,271022,0.48385200000000006,-0.190808,-0.9799041,58.135,173.81,-23.0125
1141,271118,0.518256,-0.2501,-0.9396440999999999,50.89,215.95,-30.2225
1142,271215,0.37112399999999995,-0.382104,-1.1392360000000001,44.905,273.245,-35.63
1143,271311,0.711992,-0.277428,-0.9091440000000001,39.2175,320.075,-45.43
1144,271407,1.021384,-0.366732,-1.112884,50.9425,386.3125,-62.16
1145,271503,1.236592,-0.48312,-1.5142639999999998,63.91,448.1225,-93.0125
1146,271600,1.936384,-0.401624,-1.336632,57.9775,488.4425,-116.6375
1147,271696,1.862696,-0.5499761,-1.373476,56.595,518.8575,-147.7
1148,271792,1.833904,-0.7788480999999999,-1.503284,41.6675,526.96,-164.395
1149,271888,1.862696,-0.7178479999999999,-1.531344,39.865,525.525,-173.425
1150,271985,1.57136,-0.5941401,-1.4330120000000002,57.2075,514.99,-184.345
1151,272081,2.3006759999999997,-0.646844,-2.0032400000000004,96.88,519.96,-208.18
1152,272177,1.0972680000000001,-0.522648,-2.4612279999999997,149.03,509.25,-189.07
1153,272273,-0.086132,0.721508,-2.198196,238.91,471.555,-155.1025
1154,272370,3.9042440000000003,-1.5462280000000002,-3.3506080000000003,324.5725,404.425,-166.8275
1155,272466,4.020876,-2.702544,-3.895948,310.9925,218.6275,-141.1025
1156,272562,2.850164,-2.989488,-3.222264,229.5825,-24.7975,-71.7675
1157,272659,1.535248,-2.2770080000000004,-1.867088,100.4325,-222.1975,-13.055
1158,272755,0.438468,-1.359324,-0.9106081,-21.455,-329.9275,9.45
1159,272851,-0.13176,-0.6973520000000001,-0.5546121,-89.425,-361.6725,3.255
1160,272947,-0.354532,-0.174948,-0.489464,-104.02,-348.18,-7.315
1161,273044,-0.294752,0.11102000000000001,-0.492392,-67.8825,-316.9425,-1.365
1162,273140,-0.109556,0.10809200000000001,-0.564128,2.2575,-286.1075,25.2
1163,273236,0.13761600000000002,-0.02074,-0.6380600000000001,71.9075,-262.4475,57.47
1164,273332,0.422364,-0.307684,-0.724924,122.9025,-250.985,86.0825
1165,273429,0.7300479999999999,-0.622688,-0.754448,140.6125,-254.3275,106.1025
1166,273525,0.964044,-0.7617681,-0.788852,120.1025,-271.7575,117.7225
1167,273621,1.0523719999999999,-0.6785640000000001,-0.796416,80.4825,-297.0275,125.6675
1168,273717,1.0553,-0.47067600000000004,-0.793244,45.2025,-319.4975,136.22
1169,273814,1.033828,-0.247416,-0.7664041,27.2125,-333.97,150.5
1170,273910,1.0147959999999998,-0.09589201,-0.746396,27.1075,-340.165,166.11
1171,274006,1.056276,-0.030256,-0.763476,37.1525,-339.815,179.2525
1172,274102,1.1446040000000002,-0.038551999999999996,-0.8291120999999999,48.0375,-336.6825,186.4975
1173,274198,1.3005200000000001,-0.10223600000000001,-0.931348,54.985,-333.795,187.18
1174,274295,1.4762,-0.20105599999999998,-1.034804,56.4725,-332.395,183.785
1175,274391,1.711416,-0.36844,-1.127768,52.9375,-332.325,179.8475
1176,274487,2.023736,-0.618052,-1.188768,41.7725,-333.55,177.3625
1177,274583,2.373144,-0.8613200000000001,-1.224392,19.53,-337.0325,178.22
1178,274680,2.677412,-0.9494040000000001,-1.19194,-14.91,-341.6,184.3975
1179,274776,2.929708,-0.758596,-1.210728,-52.15,-340.795,201.355
1180,274872,3.2952199999999996,-0.6168319999999999,-1.1895,-73.97251,-331.835,230.195
1181,274968,3.7776080000000003,-0.506544,-1.069696,-86.34501,-318.8675,256.9
1182,275065,4.056255999999999,-0.34281999999999996,-0.8666879999999999,-96.5825,-308.2275,271.7225
1183,275161,4.1846,-0.32452,-0.385764,-101.0975,-298.095,276.1675
1184,275257,4.275368,-0.49873599999999996,0.59536,-116.1475,-298.445,252.3325
1185,275353,5.07764,0.324276,1.5950280000000001,-164.15,-324.555,175.8925
1186,275450,5.4778,2.517348,2.357284,-170.1525,-364.315,94.4125
1187,275546,4.297084,3.40624,3.4467440000000003,3.395,-371.1225,87.0275
1188,275642,2.522472,2.552484,4.65674,233.52,-298.8475,110.25
1189,275738,0.444812,0.5743761,5.13132,304.4825,-173.8275,59.6925
1190,275835,-0.34526,-0.22082,4.195092,177.6775,-7.77,-71.155
1191,275931,0.766892,-0.003172,2.3785119999999997,1.61,159.3725,-227.22
1192,276027,2.395104,-0.187636,0.6317159999999999,-44.6075,289.3625,-243.8975
1193,276123,2.4551279999999998,-1.9354080000000002,-1.9715200000000002,6.1425,345.9925,-172.7775
1194,276220,2.273592,-4.701148,-3.330112,-14.07,311.4475,-46.1475
1195,276316,0.8701040000000001,-1.317356,-4.399564,-203.6825,200.8825,23.7475
1196,276412,-0.29572800000000005,1.126792,-0.212524,-109.3925,173.9325,134.54
1197,276508,-1.019188,0.466528,2.3370319999999998,-14.14,246.785,206.99
1198,276605,1.2444,1.9468759999999998,-1.3139399999999999,-35.595,376.6525,120.995
1199,276701,3.3020519999999998,2.564196,-3.4469879999999997,-42.21,364.6475,-0.6475
1200,276797,2.079612,1.77266,-1.878068,2.2575,251.8775,-70.56
1201,276893,2.576152,-0.8437520000000001,-1.395924,60.2,201.1275,-117.4075
1202,276990,2.30458,-2.0801,-1.0584719999999999,52.43,154.63,-95.04251
1203,277086,2.3990080000000003,-1.253184,-0.62342,-27.23,116.865,-60.9175
1204,277182,1.011624,0.487756,-1.22488,-75.21500999999999,65.7125,-27.23
1205,277278,0.5172800999999999,-0.13664,-0.835456,-45.255,40.88,-22.75
1206,277375,0.9235399999999999,-1.000644,-0.357948,-26.9325,36.61,-28.3675
1207,277471,0.883036,-0.182024,-0.792756,-48.8075,29.7675,-27.895
1208,277567,0.793488,-0.144204,-0.9638,-47.355,15.5225,-28.735
1209,277664,0.826672,-0.2867,-0.7317560000000001,-31.57,11.3575,-22.5575
1210,277760,0.6902761,-0.304512,-0.7007680000000001,-27.6325,4.935,-17.745
1211,277856,0.664168,-0.34721199999999997,-0.66246,-25.725,2.1875,-17.465
1212,277952,0.7046720999999999,-0.24034,-0.7515201,-25.8475,1.5925,-17.955
1213,278049,0.712724,-0.182024,-0.778116,-22.8725,0.5775,-15.89
1214,278145,0.6973520000000001,-0.212524,-0.741028,-17.5,-0.21,-12.8975
1215,278241,0.681248,-0.21081599999999998,-0.725168,-14.9625,-0.7875,-10.29
1216,278337,0.678808,-0.184952,-0.7503,-14.1225,-0.8400001,-8.2425
1217,278434,0.660752,-0.19959200000000002,-0.7332201,-12.8975,-0.8925,-7.0525
1218,278530,0.6497721,-0.233508,-0.7088201,-11.585,-0.8925,-6.79
1219,278626,0.6439159999999999,-0.239608,-0.6944241,-11.76,-1.12,-7.49
1220,278723,0.660752,-0.235948,-0.712236,-12.46,-1.645,-8.89
1221,278819,0.6541640000000001,-0.233264,-0.711016,-11.515,-2.835,-9.065
1222,278915,0.659776,-0.221552,-0.7232161,-10.115,-3.4125,-9.1525
1223,279011,0.6566041,-0.21228000000000002,-0.7288279999999999,-8.2425,-3.6575,-8.925
1224,279108,0.6649,-0.21081599999999998,-0.7176041,-6.23,-3.6575,-8.33
1225,279204,0.656116,-0.214232,-0.7078439999999999,-4.69,-3.815,-7.8575
1226,279300,0.6441600000000001,-0.232776,-0.6956439999999999,-4.2525,-4.4625,-8.5225
1227,279396,0.669292,-0.21716,-0.701256,-4.48,-4.7425,-9.6075
1228,279493,0.663192,-0.21228000000000002,-0.7034521,-4.5675,-5.3025,-10.185
1229,279589,0.6463561,-0.206668,-0.696864,-4.6025,-6.055,-11.1825
1230,279685,0.6422081000000001,-0.21472,-0.684908,-5.215,-6.755,-12.985
1231,279781,0.624152,-0.260104,-0.671488,-6.1775,-6.755,-15.1725
1232,279878,0.6405,-0.25302800000000003,-0.707356,-7.56,-5.565,-16.03
1233,279974,0.663192,-0.190076,-0.74542,-7.8925,-3.5175,-14.735
1234,280070,0.6810039999999999,-0.18470799999999998,-0.7449321,-5.5825,-1.5225,-11.585
1235,280166,0.66978,-0.188368,-0.72468,-2.8875,0.0,-7.9975
1236,280263,0.676856,-0.183,-0.7288279999999999,-1.26,0.91,-5.635
1237,280359,0.6802720999999999,-0.188368,-0.72224,0.2275,1.925,-3.8325
1238,280455,0.67588,-0.198372,-0.7095520000000001,1.05,2.6425,-3.1325
1239,280551,0.6695361,-0.211548,-0.6912520000000001,1.7675,3.5525,-3.0625
1240,280648,0.657092,-0.23155599999999998,-0.686616,1.75,3.8325,-3.325
1241,280744,0.633912,-0.23692399999999997,-0.68808,0.525,3.9375,-3.9725
1242,280840,0.607316,-0.257664,-0.691008,-0.6825,5.6525,-5.2675
1243,280937,0.587064,-0.27279200000000003,-0.6771,-1.05,9.205,-7.2975
1244,281033,0.594384,-0.255712,-0.6993041,-2.3275,13.405,-10.325
1245,281129,0.626104,-0.221308,-0.686616,-3.4475,18.165,-13.02
1246,281225,0.659044,-0.189832,-0.7510321,-3.7625,22.1725,-13.545
1247,281322,0.5414359999999999,-0.242292,-0.7324881,-1.6275,27.37,-14.595
1248,281418,0.5309441,-0.23692399999999997,-0.820572,3.43,37.3275,-16.2925
1249,281514,0.512644,-0.271328,-0.836676,15.1375,48.8075,-17.185
1250,281610,0.6834439999999999,-0.214964,-0.840824,28.175,63.6825,-18.7075
1251,281707,0.513376,-0.179584,-0.9450120000000001,35.105,84.665,-21.0875
1252,281803,0.536068,-0.231068,-0.9152440000000001,51.975,118.1425,-25.2
1253,281899,0.402844,-0.186172,-1.0499319999999999,63.6475,149.8175,-26.565
1254,281995,0.441396,-0.23692399999999997,-1.016748,64.365,183.4,-33.8625
1255,282092,0.62342,-0.25742,-0.8471681000000001,57.9075,230.51,-46.4275
1256,282188,0.10418800000000002,-0.381128,-0.966484,55.2825,293.405,-52.9725
1257,282284,0.662704,-0.178852,-1.0504200000000001,52.6575,345.6425,-61.6525
1258,282380,1.0889719999999998,-0.41382399999999997,-1.191452,74.165,419.44,-79.6425
1259,282477,1.710684,-0.48995200000000005,-1.5767280000000001,76.8075,476.455,-103.9675
1260,282573,1.993724,-0.409188,-1.3534680000000001,80.745,515.27,-127.3475
1261,282669,1.9478520000000001,-0.634644,-1.520852,61.11,530.2325,-156.1875
1262,282766,1.914668,-0.769088,-1.668716,59.71,531.9125,-163.0825
1263,282862,1.518168,-0.5023960999999999,-1.4069040000000002,70.035,520.8525,-165.5325
1264,282958,1.934188,-0.481412,-1.569896,106.8375,517.615,-187.5475
1265,283054,1.563796,-0.698328,-2.2387,136.4475,516.075,-202.7375
1266,283151,0.36136399999999996,-0.177876,-1.9415080000000002,196.2275,481.565,-168.6825
1267,283247,2.200392,-0.318176,-1.311256,268.94,437.85,-173.9675
1268,283343,3.2530080000000003,-1.549888,-3.167852,279.195,345.17,-207.6375
1269,283439,3.263256,-2.135976,-3.470656,233.52,146.3175,-190.575
1270,283536,2.3963240000000003,-2.2545599999999997,-2.7115720000000003,169.19,-53.2,-137.4275
1271,283632,1.520364,-1.7038520000000001,-1.747284,85.82,-211.1725,-80.7625
1272,283728,0.6956439999999999,-1.218048,-0.957944,20.0725,-305.7775,-41.02
1273,283824,0.22448,-0.8091041,-0.527528,-20.5625,-341.0225,-25.1125
1274,283921,-0.016592,-0.540704,-0.33305999999999997,-33.3725,-340.1475,-18.7425
1275,284017,-0.100772,-0.423828,-0.21862399999999999,-18.2525,-320.4775,-1.5225
1276,284113,-0.096868,-0.444324,-0.1525,10.465,-292.8625,25.9
1277,284209,-0.014396,-0.552416,-0.155184,37.5025,-263.55,56.6475
1278,284306,0.188368,-0.6902761,-0.228872,52.4825,-237.9825,85.05
1279,284402,0.493612,-0.8071520000000001,-0.37698000000000004,52.465,-223.1775,108.64
1280,284498,0.8298440999999999,-0.8620521000000001,-0.5551,39.6725,-223.58,128.5025
1281,284594,1.1150799999999998,-0.8554641,-0.7027201,20.1775,-240.45,146.8425
1282,284691,1.2444,-0.7666480999999999,-0.781532,-0.6825,-268.7125,163.905
1283,284787,1.236836,-0.604876,-0.791536,-17.15,-298.865,178.3775
1284,284883,1.203408,-0.43163599999999996,-0.7556681,-23.9225,-323.015,189.245
1285,284979,1.16022,-0.308904,-0.69906,-20.8775,-340.0075,194.915
1286,285076,1.155828,-0.23887600000000003,-0.6836880999999999,-11.41,-349.7025,194.4075
1287,285172,1.2275639999999999,-0.22033200000000003,-0.727364,1.4175,-352.975,188.72
1288,285268,1.356884,-0.24668400000000001,-0.8188641,15.925,-353.395,180.775
1289,285364,1.536956,-0.35892399999999997,-0.9340321,30.625,-352.205,174.2125
1290,285461,1.8126759999999997,-0.5429,-1.030412,42.035,-351.1025,171.15
1291,285557,2.073512,-0.793976,-1.081408,43.9775,-350.84,172.5325
1292,285653,2.3977880000000003,-1.0523719999999999,-1.110688,29.82,-350.8925,177.065
1293,285749,2.766228,-1.192916,-1.174128,1.225,-349.405,185.15
1294,285846,3.093676,-0.795928,-1.2099959999999998,-34.3175,-345.7825,199.8325
1295,285942,3.4255160000000004,-0.327204,-1.301252,-47.95,-334.005,236.1975
1296,286038,3.9293760000000004,-0.14469200000000002,-1.173152,-30.31,-319.34,276.36
1297,286134,4.0948080000000004,-0.039528,-0.8030041,-20.5975,-309.3825,292.11
1298,286231,4.170204,0.10223600000000001,-0.18104800000000001,-25.3925,-300.405,282.59
1299,286327,4.435188,0.325252,0.9628241,-48.5625,-298.4625,243.95
1300,286423,5.121316,1.356884,2.499536,-85.34751,-316.0325,163.8525
1301,286519,4.6421,2.88286,3.653168,-81.4975,-336.875,74.305
1302,286616,3.125884,3.121004,4.571096,56.21,-304.5875,30.625
1303,286712,1.5730680000000001,1.944192,4.972476,209.4225,-189.2275,2.835
1304,286808,0.407968,0.28377199999999997,4.4586120000000005,248.4125,-25.1125,-47.95
1305,286904,1.1831559999999999,-0.340624,2.689368,147.07,139.0375,-148.3825
1306,287001,0.73078,-2.614948,0.35477600000000004,48.1775,246.54,-189.8925
1307,287097,1.462536,-2.3616759999999997,-2.4321919999999997,-179.375,299.985,-110.5825
1308,287193,2.027152,-0.413092,-3.9781760000000004,-239.365,243.3375,-58.1175
1309,287289,0.5499761,0.05124001,0.31646799999999997,-68.53,201.985,113.54
1310,287386,-0.779824,0.8549761,1.626016,-52.0975,260.295,167.5625
1311,287482,1.3603,2.1838,-1.7985240000000002,-68.46,379.225,91.9625
1312,287578,3.3835480000000002,2.609824,-3.307664,-42.21,364.945,-13.2125
1313,287674,2.0825400000000003,1.56892,-1.7877880000000002,-3.29,249.9175,-86.45
1314,287771,2.520276,-1.033096,-1.327604,53.06,199.9725,-126.1925
1315,287867,2.5998200000000002,-2.718648,-0.9860040999999999,37.52,158.55,-94.4125
1316,287963,1.9703,-0.9362280000000001,-0.371612,-67.795,112.98,-61.46
1317,288059,1.11264,0.793488,-1.51524,-92.645,70.3325,-36.19
1318,288156,0.657824,-0.20008,-0.769332,-51.6425,42.56,-35.8575
1319,288252,0.820084,-0.9186601000000001,-0.377956,-36.96,32.9175,-36.82
1320,288348,0.8940161,-0.068076,-0.89426,-58.6775,25.8125,-38.255
1321,288444,0.85034,-0.152256,-0.8640040000000001,-49.6125,12.39,-38.4475
1322,288541,0.8052,-0.22326,-0.757376,-34.825,6.335,-29.6625
1323,288637,0.70516,-0.228384,-0.75762,-29.61,2.1525,-23.415
1324,288733,0.7078439999999999,-0.25522399999999995,-0.7256560000000001,-25.1825,-0.35,-20.755
1325,288829,0.7239479999999999,-0.16104000000000002,-0.785192,-22.505,-1.68,-18.4975
1326,288926,0.7019880000000001,-0.15372,-0.78446,-17.2025,-2.5375,-14.455
1327,289022,0.684664,-0.193248,-0.7427361,-11.8125,-2.5725,-10.7975
1328,289118,0.6497721,-0.217404,-0.71614,-9.275,-2.94,-8.96
1329,289214,0.6439159999999999,-0.219844,-0.7168720000000001,-9.1175,-2.7125,-9.1875
1330,289311,0.6405,-0.233752,-0.70394,-9.485,-2.6775,-10.1325
1331,289407,0.636108,-0.24668400000000001,-0.6912520000000001,-10.255,-2.8175,-11.7075
1332,289503,0.633668,-0.249612,-0.68808,-11.795,-3.3775,-13.7375
1333,289599,0.65758,-0.22252800000000003,-0.709796,-13.475,-3.325,-15.61
1334,289696,0.661972,-0.20984,-0.7195560000000001,-13.37,-3.1675,-16.24
1335,289792,0.6709999999999999,-0.19276,-0.7241920000000001,-12.1625,-3.43,-15.9425
1336,289888,0.6734399999999999,-0.178608,-0.734684,-10.465,-3.675,-15.0675
1337,289984,0.6790520999999999,-0.172752,-0.72956,-8.155,-3.6575,-13.2475
1338,290081,0.6878361,-0.162748,-0.731268,-5.88,-3.22,-11.0425
1339,290177,0.679296,-0.177876,-0.7285841,-3.8325,-2.6775,-8.855
1340,290273,0.6785640000000001,-0.163968,-0.730292,-2.1875,-2.24,-6.72
1341,290369,0.674416,-0.17397200000000002,-0.7190681,-0.91,-2.345,-5.285
1342,290466,0.673196,-0.191296,-0.719312,0.105,-2.38,-4.6725
1343,290562,0.6605081,-0.180316,-0.7137001000000001,0.805,-2.52,-3.9375
1344,290658,0.668316,-0.19032000000000002,-0.7034521,1.2425,-2.7125,-3.92
1345,290755,0.6539201,-0.20008,-0.7168720000000001,0.875,-3.01,-3.78
1346,290851,0.6378159999999999,-0.19983599999999999,-0.7190681,0.7175,-2.695,-3.6225
1347,290947,0.650016,-0.193736,-0.720776,0.5775,-1.4,-3.29
1348,291043,0.662948,-0.179828,-0.724436,0.8225,-0.1925,-2.52
1349,291140,0.664168,-0.176656,-0.721996,1.435,0.875,-1.855
1350,291236,0.663192,-0.186172,-0.7178479999999999,2.2925,1.6625,-1.19
1351,291332,0.6646561,-0.190564,-0.714432,3.15,2.6775,-0.6125
1352,291428,0.659776,-0.20837600000000003,-0.7095520000000001,3.8325,3.71,0.1225
1353,291525,0.65514,-0.222284,-0.7027201,4.6025,4.9525,0.5075
1354,291621,0.6197600000000001,-0.235948,-0.715896,3.885,7.2625,-0.315
1355,291717,0.607804,-0.25864000000000004,-0.70028,4.0075,10.3075,-1.2425
1356,291813,0.59902,-0.22691999999999998,-0.71736,3.92,12.845,-2.52
1357,291910,0.599508,-0.220088,-0.6985720999999999,4.4625,16.5725,-4.375
1358,292006,0.60024,-0.209108,-0.6939361,3.7275,21.175,-7.2975
1359,292102,0.590724,-0.199348,-0.7468840999999999,2.73,26.145,-9.3275
1360,292198,0.5353359999999999,-0.293532,-0.731024,6.8425,33.04,-12.04
1361,292295,0.565836,-0.25522399999999995,-0.805932,13.9475,41.405,-15.5575
1362,292391,0.61488,-0.260836,-0.7500560000000001,25.2875,53.095,-16.7825
1363,292487,0.4819,-0.291092,-0.8913321,30.205,69.685,-19.6875
1364,292583,0.58804,-0.196664,-0.898652,41.825,95.4625,-25.2
1365,292680,0.5353359999999999,-0.168848,-0.9864921,55.09,125.475,-26.0575
1366,292776,0.42431599999999997,-0.239852,-0.981124,57.6625,155.715,-28.5075
1367,292872,0.5514399999999999,-0.230336,-0.944768,50.2075,190.68,-39.8825
1368,292968,0.8708360999999999,-0.223992,-0.8281360999999999,42.9975,241.36,-47.18
1369,293065,0.380152,-0.357948,-0.782508,36.6625,295.68,-52.2375
1370,293161,0.635376,-0.25351599999999996,-1.0706719999999998,35.1925,346.0625,-59.99
1371,293257,1.116544,-0.38186,-1.210728,50.855,410.3225,-80.22
1372,293353,1.730936,-0.451888,-1.449116,52.2375,461.23,-104.1425
1373,293450,1.9422400000000002,-0.318664,-1.40666,51.7125,493.71,-125.4225
1374,293546,1.7995,-0.609024,-1.428376,57.8025,515.62,-149.9225
1375,293642,1.859768,-0.767868,-1.597224,45.7275,517.86,-159.0225
1376,293738,1.531588,-0.457744,-1.387384,44.8525,510.685,-163.2925
1377,293835,2.044476,-0.39161999999999997,-1.465708,82.81,510.9125,-178.6925
1378,293931,1.3290680000000001,-0.5511961,-2.068632,118.4575,516.53,-183.26
1379,294027,0.219112,0.0305,-1.7162959999999998,193.55,501.795,-143.8325
1380,294123,1.6352879999999999,0.234972,-0.8698601,284.2875,477.2775,-150.9375
1381,294220,3.844464,-1.437648,-3.0951400000000002,346.185,428.82,-183.9075
1382,294316,3.903024,-2.63642,-3.4821239999999998,319.55,230.65,-165.97
1383,294412,2.949472,-2.828448,-2.9209240000000003,231.3675,1.9775,-101.815
1384,294508,1.8004759999999997,-2.2069799999999997,-1.810236,111.5275,-191.975,-33.495
1385,294605,0.7881199999999999,-1.4339879999999998,-0.8574161,1.505,-309.5575,2.52
1386,294701,0.246196,-0.855708,-0.438712,-70.5425,-353.4825,5.145
1387,294797,-0.067344,-0.44554399999999994,-0.351848,-100.2225,-356.8775,-5.11
1388,294893,-0.16592,-0.08808401,-0.30012,-89.495,-334.425,-5.9325
1389,294990,-0.162504,-0.015128,-0.278648,-42.63,-305.5325,8.295
1390,295086,-0.072712,-0.057339999999999995,-0.302072,14.9975,-275.765,32.3575
1391,295182,0.114924,-0.183,-0.37088000000000004,66.9375,-249.8475,57.8025
1392,295279,0.305,-0.45554799999999995,-0.437492,104.4925,-232.8725,80.675
1393,295375,0.611464,-0.7134560999999999,-0.52094,115.29,-227.2375,96.8975
1394,295471,0.9391560999999999,-0.865956,-0.647576,100.03,-236.46,109.7775
1395,295567,1.155584,-0.8701040000000001,-0.7503,70.9975,-258.6675,123.8475
1396,295664,1.266604,-0.759084,-0.8044680999999999,41.72,-286.545,141.365
1397,295760,1.3176,-0.592188,-0.8020281,22.365,-313.2325,160.8425
1398,295856,1.310524,-0.431148,-0.7622561,14.98,-335.02,179.6375
1399,295952,1.2780719999999999,-0.31402800000000003,-0.729072,16.5025,-350.14,194.32
1400,296049,1.2566,-0.249856,-0.715164,22.3475,-357.7,201.915
1401,296145,1.303204,-0.235948,-0.746396,28.7,-358.4525,202.4925
1402,296241,1.4217879999999998,-0.268888,-0.8420440999999999,33.81,-354.76,198.59
1403,296337,1.66408,-0.354288,-0.9767321,38.3075,-349.2825,193.9525
1404,296434,1.940288,-0.524112,-1.071648,39.935,-344.925,192.885
1405,296530,2.240164,-0.759328,-1.125816,33.7925,-342.44,196.105
1406,296626,2.556632,-0.98088,-1.139968,14.14,-341.2675,201.88
1407,296722,2.837964,-0.820816,-1.136796,-18.83,-337.6275,211.89
1408,296819,3.0924560000000003,-0.510204,-1.20536,-45.71,-327.005,237.3
1409,296915,3.566792,-0.351848,-1.136064,-50.8025,-310.6075,269.2375
1410,297011,3.8366559999999996,-0.189832,-0.9091440000000001,-55.9475,-296.4325,287.0875
1411,297107,3.9467,-0.064416,-0.4933681,-63.0,-284.62,288.3825
1412,297204,4.066016,0.101748,0.227408,-78.68,-273.2625,272.23
1413,297300,4.669916000000001,0.138836,1.479128,-108.185,-282.625,227.6575
1414,297396,5.499516000000001,1.609912,2.562488,-160.8775,-320.5125,139.7025
1415,297492,4.541816000000001,3.249104,3.313764,-124.915,-355.04,70.805
1416,297589,2.7276759999999998,3.22202,4.210464,65.6425,-309.2075,62.9825
1417,297685,0.8679081,1.730204,4.638684,228.41,-178.605,47.6175
1418,297781,-0.23253200000000002,0.158356,4.164104,232.505,-16.3975,-30.9925
1419,297877,0.849608,-0.098088,2.43512,91.84000999999999,147.7,-168.1925
1420,297974,-0.293044,-3.263988,-0.6634359999999999,-32.83,261.24,-214.34
1421,298070,1.694336,-0.6070720000000001,-4.1911879999999995,-218.4,324.9225,-192.675
1422,298166,2.262368,-0.31354,-2.451956,-94.71,272.475,-76.7375
1423,298262,1.273192,-0.7017439999999999,1.0614,8.0325,237.2475,81.81251
1424,298359,-0.36892800000000003,0.36209600000000003,1.072624,-25.2175,283.5875,110.6
1425,298455,1.979084,1.3583479999999999,-2.376072,-33.6875,388.115,42.525
1426,298551,2.9548400000000004,1.8004759999999997,-2.529792,-27.02,350.945,-30.3975
1427,298647,1.8770919999999998,0.952332,-1.4454559999999999,8.89,262.045,-79.3275
1428,298744,2.617388,-0.72346,-1.444724,44.835,232.435,-108.5
1429,298840,3.5048160000000004,-2.3494759999999997,-1.030656,16.87,179.655,-87.7275
1430,298936,1.6089360000000001,-0.48922,-0.342332,-90.52750999999999,94.29,-63.9275
1431,299032,1.1094680000000001,0.377224,-1.4069040000000002,-78.55751,55.5975,-34.8775
1432,299129,0.538752,-0.41675200000000007,-0.595604,-42.665,31.9375,-30.38
1433,299225,0.850096,-0.6368401,-0.521672,-39.795,28.7525,-31.5
1434,299321,0.87108,-0.158356,-0.823744,-50.3825,21.0,-32.585
1435,299417,0.767868,-0.242536,-0.7522521,-41.09,8.295,-32.095
1436,299514,0.807396,-0.150304,-0.807396,-33.3375,4.235,-26.53
1437,299610,0.745908,-0.207156,-0.7610359999999999,-24.6575,0.735,-19.25
1438,299706,0.695156,-0.254736,-0.720288,-17.4825,-2.7825,-14.49
1439,299802,0.7329760000000001,-0.159576,-0.7832399999999999,-14.9275,-3.29,-12.4775
1440,299899,0.706136,-0.182024,-0.756888,-10.36,-4.13,-8.995
1441,299995,0.702476,-0.17738800000000002,-0.754204,-5.9325,-4.27,-5.46
1442,300091,0.676612,-0.19885999999999998,-0.7381001,-2.8875,-4.2875,-3.115
1443,300187,0.667096,-0.205204,-0.725168,-0.945,-4.27,-1.575
1444,300284,0.650992,-0.22667600000000002,-0.707112,-0.2975,-4.2525,-1.0675
1445,300380,0.6368401,-0.24790399999999999,-0.687348,-0.98,-4.4275,-1.925
1446,300476,0.631228,-0.261324,-0.678076,-2.8175,-4.375,-4.0425
1447,300572,0.625128,-0.25058800000000003,-0.685396,-5.0575,-4.3925,-6.475
1448,300669,0.626104,-0.24570799999999998,-0.6946681,-6.7725,-4.095,-9.0475
1449,300765,0.644404,-0.233752,-0.707356,-8.05,-3.675,-10.78
1450,300861,0.646844,-0.223992,-0.7137001000000001,-8.225,-3.36,-11.3925
1451,300957,0.656848,-0.21106,-0.7227279999999999,-7.735,-3.15,-11.1825
1452,301054,0.669292,-0.19885999999999998,-0.725168,-6.545,-3.08,-10.465
1453,301150,0.678076,-0.202276,-0.7176041,-5.04,-3.22,-9.6775
1454,301246,0.677832,-0.20008,-0.708576,-4.0075,-3.6575,-8.75
1455,301342,0.6736840000000001,-0.200568,-0.711992,-3.395,-4.095,-8.12
1456,301439,0.669048,-0.202032,-0.709064,-2.73,-4.6375,-7.4375
1457,301535,0.6588,-0.219112,-0.707356,-2.1175,-4.7425,-6.86
1458,301631,0.650992,-0.223748,-0.703696,-1.645,-4.865,-6.5625
1459,301727,0.6380600000000001,-0.22252800000000003,-0.7117479999999999,-1.7325,-4.5325,-6.4925
1460,301824,0.6463561,-0.205448,-0.7320001,-1.8025,-3.4825,-6.0725
1461,301920,0.662216,-0.183732,-0.7356600000000001,-1.225,-1.9775,-5.005
1462,302016,0.662948,-0.192028,-0.7278521,0.1225,-1.015,-3.9375
1463,302113,0.668316,-0.195932,-0.715896,0.77,-0.0525,-2.9925
1464,302209,0.671244,-0.190076,-0.724436,1.4175,1.1375,-2.345
1465,302305,0.6695361,-0.202276,-0.71614,2.2925,1.8375,-1.3475
1466,302401,0.660752,-0.2013,-0.715408,2.59,2.59,-0.5775
1467,302498,0.6514800000000001,-0.215696,-0.696864,2.9225,3.78,-0.35
1468,302594,0.6502600000000001,-0.233508,-0.6946681,2.7125,5.2675,-0.8925
1469,302690,0.611464,-0.25742,-0.6944241,1.5575,6.3875,-1.9075
1470,302786,0.58316,-0.27571999999999997,-0.6878361,0.0,8.4,-3.5525
1471,302883,0.5799880000000001,-0.26596,-0.6973520000000001,0.1225,12.4425,-5.705
1472,302979,0.555588,-0.248148,-0.669292,-1.085,17.29,-8.12
1473,303075,0.6292760000000001,-0.214964,-0.70028,-3.325,22.4875,-12.32
1474,303171,0.577304,-0.21276799999999998,-0.727608,-2.6075,26.775,-13.2125
1475,303268,0.5702281,-0.25376,-0.7686,0.7525,33.67,-14.875
1476,303364,0.5575399999999999,-0.233508,-0.8344801,9.59,43.2425,-15.085
1477,303460,0.671244,-0.219356,-0.8276481,22.82,56.805,-15.085
1478,303556,0.483364,-0.36234,-0.8525360000000001,33.8275,74.04251,-14.175
1479,303653,0.5751081,-0.153476,-0.915732,41.1775,99.8375,-22.785
1480,303749,0.568032,-0.167628,-0.993568,58.45,130.6025,-26.985
1481,303845,0.39284,-0.262056,-0.9950319999999999,61.5825,161.5775,-29.295
1482,303941,0.550708,-0.250344,-0.975024,59.4825,197.9775,-38.4125
1483,304038,0.9059721,-0.25986,-0.7705521,56.5425,251.2125,-46.165
1484,304134,0.40528400000000003,-0.318664,-0.72224,55.1425,308.77,-53.1125
1485,304230,0.907436,-0.30744,-1.073844,66.2725,369.6525,-67.0075
1486,304326,1.102636,-0.454816,-1.4186159999999999,87.71,440.545,-94.1325
1487,304423,1.9049080000000003,-0.525088,-1.508652,80.36,485.3975,-116.585
1488,304519,2.007632,-0.52582,-1.374452,79.94,515.7775,-142.555
1489,304615,1.938824,-0.7366361,-1.5738,63.21,523.565,-160.8075
1490,304712,1.921256,-0.60268,-1.619428,67.0775,520.275,-164.5875
1491,304808,1.5074319999999999,-0.558516,-1.424472,88.11251,509.2675,-171.885
1492,304904,2.35338,-0.479216,-1.8648919999999998,125.7725,511.0175,-196.0175
1493,305000,1.1192280000000001,-0.329888,-2.358504,178.3775,507.01,-180.4775
1494,305097,-0.539972,0.8949921000000001,-1.8397599999999998,283.0625,477.155,-135.59
1495,305193,3.268136,-1.13216,-2.325564,384.0025,430.815,-149.45
1496,305289,3.41112,-2.482212,-3.013156,385.0875,299.67,-147.2275
1497,305385,2.95606,-3.227388,-2.85236,298.305,99.82,-104.265
1498,305482,2.0815639999999997,-2.841868,-2.098888,146.5275,-93.3275,-55.0025
1499,305578,1.12972,-1.933456,-1.267824,-1.505,-236.215,-12.705
1500,305674,0.374296,-1.2014559999999999,-0.670268,-103.46,-311.6925,6.3875
1501,305770,-0.022692,-0.638304,-0.488,-154.8575,-335.6325,3.4475
1502,305867,-0.192272,-0.109556,-0.5160600000000001,-157.2375,-325.3425,1.0325
1503,305963,-0.194468,0.164944,-0.5072760000000001,-109.4975,-299.495,13.5625
1504,306059,-0.109556,0.13761600000000002,-0.503616,-31.325,-272.755,41.5975
1505,306155,0.041968,0.031476,-0.511424,39.8475,-248.64,70.8925
1506,306252,0.221796,-0.188124,-0.5502199999999999,91.735,-232.7675,94.08
1507,306348,0.49263599999999996,-0.48214399999999996,-0.6178081,115.9025,-226.975,107.485
1508,306444,0.8422879999999999,-0.6956439999999999,-0.706624,107.695,-234.2725,113.7675
1509,306540,1.1468,-0.7539600000000001,-0.8230120999999999,75.5125,-257.6,118.9825
1510,306637,1.298568,-0.6810039999999999,-0.893284,37.275,-291.0075,127.54
1511,306733,1.357372,-0.491904,-0.8998719999999999,7.3325,-324.905,139.9125
1512,306829,1.319064,-0.298412,-0.8308200000000001,-6.5275,-352.94,154.455
1513,306925,1.24074,-0.16128399999999998,-0.749568,-5.3375,-371.42,167.5975
1514,307022,1.1812040000000001,-0.10492,-0.6919841,4.1125,-379.6275,174.9125
1515,307118,1.2038959999999999,-0.130052,-0.70028,15.05,-378.9975,175.1925
1516,307214,1.325896,-0.20178800000000002,-0.7671359999999999,23.31,-372.6975,170.415
1517,307310,1.5762399999999999,-0.368684,-0.8866961,28.6475,-364.6125,165.025
1518,307407,1.891,-0.6229319999999999,-0.9618481,27.51,-358.7325,161.6125
1519,307503,2.230892,-0.8964561,-1.0084520000000001,13.5275,-355.6,161.5775
1520,307599,2.564684,-1.0208959999999998,-1.0345600000000001,-14.735,-353.3075,166.2325
1521,307695,2.87676,-0.8352120000000001,-1.105076,-48.5975,-347.585,182.105
1522,307792,3.284728,-0.6558721,-1.156316,-66.60501,-335.0725,213.92
1523,307888,3.8022519999999997,-0.488976,-1.10532,-71.7325,-319.7075,248.045
1524,307984,4.11994,-0.281088,-0.9320801,-73.5875,-308.5775,270.4275
1525,308080,4.277808,-0.209352,-0.5038600000000001,-70.245,-300.475,281.225
1526,308177,4.276344,-0.2928,0.388692,-76.16001,-296.695,272.4925
1527,308273,4.756292,0.10858,1.452776,-115.255,-313.6525,219.415
1528,308369,5.368244,1.8751400000000003,2.3333720000000002,-152.565,-347.97,139.055
1529,308465,4.5079,3.16224,3.3447519999999997,-68.635,-363.055,106.0325
1530,308562,2.823568,2.953864,4.375164,119.8925,-309.47,107.9925
1531,308658,0.9950319999999999,1.49084,4.937828,235.655,-188.72,65.38
1532,308754,-0.23009200000000002,0.21667199999999998,4.410788,198.1875,-32.34,-41.4225
1533,308850,-0.454816,-0.693204,2.005436,52.1325,134.61,-195.545
1534,308947,-1.398364,-2.528572,-0.608536,-103.4425,273.0175,-223.7025
1535,309043,1.2014559999999999,-0.40211199999999997,-4.511316000000001,-240.2225,344.05,-212.7475
1536,309139,3.18664,-0.5702281,-1.967616,-38.4475,316.4175,-29.0675
1537,309236,2.107184,-1.026508,0.9389120000000001,35.42,261.7125,132.6325
1538,309332,0.06636801,-0.01098,0.9113399999999999,-10.0275,275.345,156.905
1539,309428,1.1829120000000002,1.030412,-1.880996,-23.345,355.705,96.4425
1540,309524,2.477088,2.213324,-2.679364,-37.24,340.655,9.4675
1541,309621,1.662616,1.288564,-1.41276,11.5325,269.395,-46.4275
1542,309717,2.424872,-0.30012,-1.724592,48.02,235.375,-97.0375
1543,309813,1.9849400000000001,-1.030412,-1.067256,56.6475,182.42,-91.5075
1544,309909,2.877736,-1.8641599999999998,-0.8317960999999999,6.4575,140.1575,-76.4225
1545,310006,1.175592,-0.35233600000000004,-0.512888,-74.655,77.665,-51.6425
1546,310102,0.8488761,0.176656,-1.145092,-67.095,50.4525,-34.4925
1547,310198,0.6107319999999999,-0.483608,-0.5587601,-44.415,34.8425,-37.38
1548,310294,0.948184,-0.5926760999999999,-0.547292,-46.0425,31.675,-39.3925
1549,310391,0.844972,-0.126392,-0.83204,-55.6325,20.23,-38.71
1550,310487,0.8418,-0.209352,-0.784704,-45.885,10.955,-35.7875
1551,310583,0.812032,-0.172996,-0.79056,-36.015,5.7575,-28.2275
1552,310679,0.7478600000000001,-0.21447600000000003,-0.758108,-27.9475,1.7675,-20.8775
1553,310776,0.7200439999999999,-0.219356,-0.7478600000000001,-21.63,-0.8575,-16.24
1554,310872,0.72468,-0.172752,-0.7686,-17.5175,-1.5575,-13.23
1555,310968,0.7076001000000001,-0.19154000000000002,-0.752008,-12.04,-2.38,-9.7125
1556,311065,0.692228,-0.205448,-0.72712,-8.12,-2.7825,-6.895
1557,311161,0.678076,-0.207156,-0.7241920000000001,-5.9675,-2.975,-5.39
1558,311257,0.670512,-0.211548,-0.711016,-4.725,-3.185,-4.06
1559,311353,0.660752,-0.221796,-0.7076001000000001,-4.9525,-3.36,-3.955
1560,311450,0.65514,-0.223992,-0.699792,-5.11,-3.185,-4.7425
1561,311546,0.654408,-0.223748,-0.700036,-5.565,-3.185,-5.5825
1562,311642,0.654896,-0.22033200000000003,-0.7076001000000001,-6.09,-2.9925,-6.4575
1563,311738,0.665144,-0.2196,-0.71248,-5.915,-2.975,-7.105
1564,311835,0.6661201,-0.221796,-0.711504,-4.935,-3.01,-6.9825
1565,311931,0.661728,-0.219356,-0.7129681,-3.885,-3.115,-6.7375
1566,312027,0.661728,-0.21472,-0.715408,-2.94,-3.22,-6.2825
1567,312123,0.664412,-0.21716,-0.712236,-1.9425,-3.185,-5.67
1568,312220,0.666852,-0.212524,-0.70638,-1.2425,-3.3075,-5.2325
1569,312316,0.6675840000000001,-0.216428,-0.7032079999999999,-0.6825,-3.395,-5.1275
1570,312412,0.665632,-0.208132,-0.7032079999999999,-0.3675,-3.465,-4.9875
1571,312508,0.670512,-0.21276799999999998,-0.701256,-0.21,-3.6575,-5.0575
1572,312605,0.668072,-0.206668,-0.70394,-0.1575,-4.0075,-5.075
1573,312701,0.6749041,-0.205204,-0.706136,-0.3675,-4.2,-4.9175
1574,312797,0.668072,-0.213988,-0.70028,-0.175,-4.48,-4.7775
1575,312893,0.663924,-0.214964,-0.702232,-0.21,-4.7075,-4.4625
1576,312990,0.663924,-0.205692,-0.708332,-0.5775,-4.515,-4.3575
1577,313086,0.6612401,-0.209108,-0.7078439999999999,-0.385,-4.3575,-3.9025
1578,313182,0.663924,-0.205448,-0.705892,-0.28,-3.8325,-3.395
1579,313278,0.664412,-0.194956,-0.7093081,-0.0175,-3.185,-2.94
1580,313375,0.67588,-0.19032000000000002,-0.7134560999999999,0.42,-2.275,-2.1
1581,313471,0.6649,-0.21008400000000002,-0.7046720999999999,0.245,-1.1725,-1.68
1582,313567,0.659532,-0.20837600000000003,-0.698816,0.35,-0.1225,-1.4525
1583,313663,0.6539201,-0.220088,-0.704916,-0.0875,0.7175,-1.75
1584,313760,0.6168319999999999,-0.233508,-0.705892,-0.2975,2.0125,-2.4675
1585,313856,0.594384,-0.257176,-0.696132,-1.12,5.1275,-3.92
1586,313952,0.5975560000000001,-0.236436,-0.7015,-1.4525,8.365,-5.5475
1587,314048,0.589504,-0.237168,-0.679296,-1.61,12.145,-7.2275
1588,314145,0.607316,-0.23301999999999998,-0.670024,-3.0975,16.45,-9.17
1589,314241,0.620004,-0.21057199999999998,-0.708576,-5.4075,20.23,-11.1825
1590,314337,0.540216,-0.257176,-0.7044279999999999,-3.535,25.2525,-13.4925
1591,314434,0.553636,-0.26474000000000003,-0.772016,0.8575,33.4775,-16.94
1592,314530,0.598288,-0.229604,-0.83204,9.66,42.9275,-18.13
1593,314626,0.61122,-0.24424400000000002,-0.8091041,22.6275,54.0225,-16.8875
1594,314722,0.6161,-0.252784,-0.8574161,31.9375,69.80751,-15.82
1595,314819,0.54778,-0.11248399999999999,-0.969412,39.5675,92.7325,-20.125
1596,314915,0.577304,-0.23253200000000002,-0.903532,57.785,122.885,-23.8525
1597,315011,0.42114399999999996,-0.242536,-0.9933241,62.8425,151.0775,-27.5625
1598,315107,0.534116,-0.209108,-0.9435479999999999,63.665,182.0875,-35.175
1599,315203,0.5936520000000001,-0.24570799999999998,-0.8520479999999999,59.36,225.9775,-40.3375
1600,315300,0.17836400000000002,-0.327448,-1.057496,51.415,279.7375,-42.2625
1601,315396,0.619028,-0.19861600000000001,-1.0345600000000001,47.7575,324.59,-47.1975
1602,315492,1.077016,-0.43944399999999995,-1.040904,65.36251,392.63,-64.41751
1603,315589,1.418372,-0.451888,-1.359324,65.625,446.215,-90.16001
1604,315685,2.018612,-0.30036399999999996,-1.23708,68.775,486.1325,-108.9025
1605,315781,1.993236,-0.547536,-1.3954360000000001,68.915,509.215,-132.9825
1606,315877,1.9093,-0.6944241,-1.5669680000000001,52.045,506.5375,-142.7125
1607,315974,1.5986879999999999,-0.492392,-1.2871,55.02,496.1425,-147.5075
1608,316070,1.5340280000000002,-0.526552,-1.3529799999999998,87.3075,491.19,-160.1425
1609,316166,2.064484,-0.593164,-1.957856,121.0475,493.185,-178.745
1610,316262,0.744688,-0.155184,-1.93248,177.59,477.4525,-148.4175
1611,316359,-0.068076,1.048712,-1.000644,263.1475,448.035,-127.3475
1612,316455,2.980948,-1.035536,-2.369972,323.645,418.985,-172.4275
1613,316551,3.214944,-1.8526919999999998,-2.801364,294.4725,289.8525,-196.665
1614,316647,2.870904,-2.329712,-2.753052,227.7625,104.7375,-175.6475
1615,316744,2.166964,-2.121336,-2.1411,133.07,-72.5025,-126.7
1616,316840,1.3888479999999999,-1.586732,-1.39324,46.6375,-209.3875,-70.245
1617,316936,0.737124,-1.099952,-0.768356,-13.5275,-291.1475,-29.89
1618,317032,0.369172,-0.699792,-0.459696,-50.26,-325.8325,-13.58
1619,317129,0.188856,-0.43212399999999995,-0.332084,-57.7675,-332.115,-6.09
1620,317225,0.116388,-0.283528,-0.24717199999999998,-41.2825,-322.2975,6.6675
1621,317321,0.095648,-0.253272,-0.196908,-12.7575,-306.215,24.43
1622,317417,0.1159,-0.304512,-0.177876,16.3975,-288.225,43.6975
1623,317514,0.179828,-0.399916,-0.194224,37.9225,-270.8825,60.7775
1624,317610,0.339648,-0.5124001,-0.25351599999999996,49.035,-256.83,75.5125
1625,317706,0.547292,-0.612684,-0.361852,49.84,-249.795,89.145
1626,317803,0.787876,-0.670512,-0.48922,43.12,-252.385,103.6175
1627,317899,0.989908,-0.68686,-0.59536,33.2675,-264.1625,120.785
1628,317995,1.140944,-0.6573359999999999,-0.677588,23.065,-282.1175,139.44
1629,318091,1.242692,-0.58682,-0.708576,14.5775,-303.03,156.9575
1630,318188,1.2944200000000001,-0.49532,-0.7107720000000001,9.03,-324.1,170.835
1631,318284,1.303692,-0.393572,-0.6985720999999999,8.295,-341.8625,180.0575
1632,318380,1.306132,-0.335256,-0.6885680999999999,12.95,-354.095,184.8175
1633,318476,1.339804,-0.315492,-0.695156,21.0525,-359.2575,185.605
1634,318573,1.4391120000000002,-0.357704,-0.753228,29.8375,-357.91,184.0825
1635,318669,1.654564,-0.46457600000000004,-0.8513161,37.3275,-352.6075,182.1925
1636,318765,1.916132,-0.626836,-0.934276,40.425,-346.64,183.3825
1637,318861,2.1884360000000003,-0.8105680000000001,-0.9796600000000001,33.39,-341.1275,187.0925
1638,318958,2.489288,-0.9335440999999999,-1.0084520000000001,16.24,-333.725,192.255
1639,319054,2.785992,-0.8039801,-0.9415959999999999,-6.9825,-321.895,199.255
1640,319150,2.997052,-0.262544,-1.0706719999999998,-24.01,-302.365,219.7125
1641,319246,3.5421480000000005,-0.0427,-1.047492,-8.1025,-276.6575,253.12
1642,319343,3.86984,0.047336,-0.801784,4.9,-260.8025,269.64
1643,319439,4.033564,0.14713199999999999,-0.386252,-2.7125,-258.545,264.5825
1644,319535,4.10896,0.6541640000000001,0.190564,-33.985,-265.6675,238.2975
1645,319631,4.164104,0.9354959999999999,1.3651799999999998,-58.5025,-286.4925,198.275
1646,319728,4.398832,1.6745720000000002,2.662528,-81.95251,-315.7525,128.625
1647,319824,3.507256,2.901404,3.500668,-71.6275,-325.9375,38.045
1648,319920,2.1935599999999997,3.011448,4.062112,52.4475,-268.87,-23.38
1649,320016,0.9335440999999999,1.7489919999999999,4.090416,199.7275,-140.49,-59.7625
1650,320113,0.104676,0.045872,2.942884,235.0425,12.915,-112.945
1651,320209,-1.154364,-3.802496,2.333616,59.78,157.08,-124.8975
1652,320305,0.54656,0.06954,-2.566392,-301.7,285.6875,-175.8225
1653,320402,3.1981080000000004,-0.08174001,-3.2757,-157.1325,340.6725,-161.5775
1654,320498,2.9977840000000002,-1.067256,-0.404552,18.025,271.18,63.875
1655,320594,-0.04514,0.171044,0.489464,-43.435,217.28,110.2325
1656,320690,0.567788,1.6567599999999998,-1.240008,-62.3525,297.5875,57.785
1657,320787,3.015352,2.071072,-2.797948,-21.63,336.175,-9.73
1658,320883,1.9712759999999998,1.29564,-1.8463479999999999,7.175,242.5325,-75.11
1659,320979,1.9839639999999998,-0.7998321,-1.145092,46.025,188.3875,-110.915
1660,321075,3.0927,-2.9492279999999997,-0.839116,36.19,161.0525,-97.45749
1661,321172,1.5103600000000001,-0.9725841000000001,0.026595999999999998,-83.23001,94.5,-64.47
1662,321268,0.9174399999999999,0.6390359999999999,-1.378356,-94.4125,64.47,-38.36
1663,321364,0.704916,-0.216916,-0.763232,-62.2125,43.19,-47.81
1664,321460,0.9032879999999999,-0.576084,-0.584868,-52.4125,32.2,-50.4175
1665,321557,0.893284,-0.01586,-0.90402,-59.29,24.5175,-45.01
1666,321653,0.8510719999999999,-0.217404,-0.791536,-44.625,10.0625,-39.725
1667,321749,0.813496,-0.08906,-0.8315520000000001,-33.845,4.865,-29.6975
1668,321845,0.754204,-0.143228,-0.787144,-22.785,1.05,-21.5425
1669,321942,0.7095520000000001,-0.198372,-0.745908,-16.87,-0.7175,-15.085
1670,322038,0.7134560999999999,-0.165188,-0.766892,-13.86,-1.5925,-12.11
1671,322134,0.690032,-0.186904,-0.741272,-9.8525,-1.89,-9.2575
1672,322230,0.681736,-0.19764,-0.7237041,-7.525,-1.8025,-7.2275
1673,322327,0.662704,-0.223748,-0.7129681,-5.8625,-1.9075,-5.635
1674,322423,0.6573359999999999,-0.22667600000000002,-0.7044279999999999,-5.53,-2.45,-5.915
1675,322519,0.65514,-0.21057199999999998,-0.70638,-6.0725,-2.9225,-7.105
1676,322615,0.648552,-0.217404,-0.6993041,-6.7725,-3.0975,-8.05
1677,322712,0.6463561,-0.217892,-0.704916,-8.19,-3.255,-9.45
1678,322808,0.6634359999999999,-0.211792,-0.7198,-9.4325,-3.0625,-10.85
1679,322904,0.662704,-0.211304,-0.7156520000000001,-8.575,-3.325,-11.3225
1680,323000,0.663924,-0.209352,-0.715408,-7.4725,-3.7275,-11.55
1681,323097,0.667828,-0.203008,-0.712236,-6.405,-3.71,-11.4975
1682,323193,0.671244,-0.206668,-0.7117479999999999,-5.46,-3.78,-10.885
