,T,ax,ay,az,gx,gy,gz
0,9215009,0.8309421,-0.088328,-0.242048,18.3925,-16.03,-15.575
1,9215161,0.903898,-0.036112,-0.326716,-56.8575,47.6525,-138.9325
2,9215259,0.9444020000000001,-0.028792,-0.354166,-88.34000999999999,35.2275,-275.0825
3,9215357,0.9261021,-0.018666,-0.366732,9.2925,-91.5075,-89.4425
4,9215455,0.9097540000000001,-0.028548,-0.37027,-5.0225,-14.385,-10.43
5,9215553,0.9036540000000001,-0.04087,-0.37246599999999996,-5.67,-9.38,-4.9
6,9215651,0.9254921,-0.037698,-0.381128,-6.1075,-9.9575,-5.32
7,9215749,0.952942,-0.032208,-0.391986,-6.79,-10.9725,-5.4075
8,9215846,0.9585541,-0.024888,-0.401746,-6.895,-12.7575,-5.25
9,9215944,0.949526,-0.04867801,-0.373808,-7.4375,-14.21,-5.145
10,9216042,0.9204901,0.023180000000000003,-0.39723200000000003,-7.105,-16.52,-5.2675
11,9216140,0.8819381,0.03294,-0.41711800000000004,-4.8475,-17.71,-3.745
12,9216238,0.8579041,0.037698,-0.42907399999999996,-1.6625,-17.01,-2.4675
13,9216336,0.859856,0.015372,-0.401014,1.7675,-14.8575,-1.085
14,9216434,0.8611979999999999,-0.006222,-0.387838,1.4525,-10.6225,-0.5775
15,9216532,0.874984,-0.017568,-0.38491,-2.03,-4.41,-1.3825
16,9216630,0.9097540000000001,-0.01769,-0.39174200000000003,-5.88,1.925,-2.275
17,9216728,0.9150001,-0.039284,-0.337574,-10.745,4.2875,-2.6075
18,9216826,0.936106,-0.067344,-0.335988,-12.5825,6.86,-3.7625
19,9216923,0.9541620000000001,0.0017079999999999999,-0.438346,-27.44,0.945,-6.755
20,9217021,0.9010921000000001,0.05185,-0.399794,-20.895,-8.82,-11.48
21,9217119,0.9195141,-0.001342,-0.40076999999999996,-10.9025,-7.0525,-4.34
22,9217217,0.9026780000000001,-0.006587999999999999,-0.398086,-15.6625,-7.2625,-5.005
23,9217315,0.88999,0.006832001,-0.387838,-16.73,-9.135,-6.86
24,9217413,0.86803,0.035013999999999997,-0.377834,-12.1975,-9.7825,-6.2475
25,9217511,0.8815719999999999,0.018056,-0.386984,-4.025,-8.0675,-4.48
26,9217609,0.9070700999999999,0.003782,-0.401136,-2.52,-7.665,-3.7625
27,9217707,0.9085340000000001,0.002318,-0.396988,-3.0975,-9.24,-4.095
28,9217805,0.9097540000000001,-0.0032939999999999996,-0.396988,-2.275,-8.7675,-3.9725
29,9217903,0.901458,-0.003904,-0.39479200000000003,-2.0475,-7.945,-3.85
30,9218000,0.8959681,-0.003904,-0.39161999999999997,-2.03,-7.945,-4.0425
31,9218098,0.8963341,-0.002196,-0.38918,-1.82,-8.05,-4.095
32,9218196,0.897432,-0.00488,-0.389424,-1.715,-8.365,-3.85
33,9218294,0.9030440000000001,-0.005246,-0.38795999999999997,-1.8025,-8.5225,-3.7625
34,9218392,0.9098761000000001,-0.0051240009999999996,-0.38808200000000004,-1.785,-8.4525,-3.7975
35,9218490,0.9118280000000001,-0.0034159999999999998,-0.386984,-1.68,-8.6975,-3.6575
36,9218588,0.9108521,-0.0035380000000000003,-0.382226,-1.82,-8.5225,-3.7275
37,9218686,0.907436,-0.002196,-0.382226,-1.925,-8.3825,-3.7275
38,9218784,0.9036540000000001,-0.000366,-0.380884,-1.82,-8.19,-3.7275
39,9218882,0.9053620000000001,-0.000122,-0.379298,-1.82,-8.19,-3.815
40,9218980,0.9060940000000001,0.002684,-0.380762,-1.68,-7.945,-3.78
41,9219078,0.9056061,0.003904,-0.379176,-1.47,-7.9625,-3.7975
42,9219176,0.903898,0.006222,-0.378688,-1.2075,-7.8575,-3.955
43,9219273,0.9046301,0.00671,-0.379176,-1.1025,-7.6475,-4.2
44,9219371,0.9063379999999999,0.003782,-0.379786,-1.085,-7.7175,-4.305
45,9219469,0.9076799999999999,0.00183,-0.381616,-1.1375,-7.6825,-4.375
46,9219567,0.9063379999999999,0.000244,-0.37990799999999997,-0.945,-7.49,-4.41
47,9219665,0.903532,0.000732,-0.380152,-0.9275,-7.3325,-4.48
48,9219763,0.9030440000000001,0.0,-0.378688,-0.9625,-7.4025,-4.5675
49,9219861,0.903898,0.002196,-0.381128,-0.8225,-7.2275,-4.7075
50,9219959,0.9042641,0.000732,-0.381738,-0.735,-6.9125,-4.655
51,9220057,0.9023121,-0.002318,-0.382348,-0.9625,-6.825,-4.6375
52,9220155,0.903532,-0.00244,-0.384422,-1.12,-7.035,-4.5675
53,9220253,0.9042641,-0.00183,-0.38491,-1.0675,-7.0875,-4.3925
54,9220351,0.904386,-0.0008540001,-0.383324,-1.05,-6.9825,-4.235
55,9220449,0.9054840000000001,-0.003172,-0.38356799999999996,-1.1025,-6.8075,-4.27
56,9220547,0.9075581,-0.001464,-0.385276,-1.155,-6.755,-4.27
57,9220645,0.9065821,-0.001098,-0.38674000000000003,-1.3475,-6.545,-4.27
58,9220742,0.904752,-0.00305,-0.386496,-1.5225,-6.2125,-4.2875
59,9220840,0.9025559999999999,-0.005002,-0.388204,-1.5225,-6.2825,-4.235
60,9220938,0.9023121,-0.006344,-0.387228,-1.47,-6.2825,-4.165
61,9221036,0.9019459999999999,-0.005246,-0.388448,-1.6275,-6.265,-4.13
62,9221134,0.9036540000000001,-0.0051240009999999996,-0.389424,-1.96,-6.3175,-4.095
63,9221232,0.9037761000000001,-0.004514,-0.393084,-2.24,-6.3525,-3.99
64,9221330,0.9057280999999999,-0.005246,-0.391864,-2.38,-6.405,-3.8675
65,9221428,0.906948,-0.00488,-0.393816,-2.5025,-6.58,-3.78
66,9221526,0.906826,-0.003172,-0.396012,-2.6075,-6.755,-3.675
67,9221624,0.9084121,-0.004026,-0.395158,-2.6425,-6.7025,-3.64
68,9221722,0.907192,-0.004514,-0.396744,-2.8,-6.72,-3.64
69,9221820,0.9052401,-0.002928,-0.395768,-2.8525,-7.07,-3.5875
70,9221918,0.9046301,0.001098,-0.395036,-2.73,-7.245,-3.57
71,9222016,0.9076799999999999,0.00244,-0.392352,-2.87,-7.28,-3.64
72,9222113,0.9103641,0.0,-0.393572,-2.905,-7.35,-3.7975
73,9222211,0.91195,-0.004514,-0.392352,-2.8525,-7.2975,-3.8325
74,9222309,0.9087780000000001,-0.008052001,-0.38979,-2.8525,-7.4025,-3.92
75,9222407,0.904874,-0.010858,-0.390278,-2.9575,-7.5425,-4.095
76,9222505,0.9034101000000001,-0.009637999999999999,-0.392474,-3.1675,-7.4375,-4.0775
77,9222603,0.9018241,-0.008296000999999999,-0.393206,-3.4125,-7.3675,-3.815
78,9222701,0.901702,-0.005246,-0.396744,-3.535,-7.4375,-3.5175
79,9222799,0.8991401,-0.0035380000000000003,-0.39918400000000004,-3.43,-7.5775,-3.185
80,9222897,0.901702,-0.002074,-0.39833,-3.36,-7.735,-3.0275
81,9222995,0.904142,0.0,-0.397964,-3.3775,-7.7525,-3.185
82,9223093,0.90646,-0.00427,-0.39894,-3.0975,-7.665,-3.2725
83,9223191,0.9060940000000001,-0.000732,-0.39223,-2.9925,-7.6475,-3.325
84,9223288,0.904752,-0.001464,-0.390766,-2.835,-7.8225,-3.605
85,9223386,0.9010921000000001,-0.002318,-0.390034,-2.7825,-7.9275,-3.64
86,9223484,0.902068,-0.0032939999999999996,-0.388326,-2.5025,-7.77,-3.6225
87,9223582,0.9056061,-0.0034159999999999998,-0.390278,-2.31,-7.7175,-3.605
88,9223680,0.9079241,-0.006222,-0.387838,-2.275,-7.77,-3.57
89,9223778,0.9063379999999999,-0.007564001,-0.389302,-2.3975,-7.8575,-3.6925
90,9223876,0.902068,-0.005368,-0.387472,-2.31,-7.6125,-3.815
91,9223974,0.8999940000000001,-0.004026,-0.389424,-2.4325,-7.5775,-3.8325
92,9224072,0.901336,-0.001464,-0.389546,-2.4325,-7.7175,-3.815
93,9224170,0.9028,0.000732,-0.386374,-2.2225,-7.9275,-3.78
94,9224268,0.9034101000000001,0.000488,-0.38661799999999996,-1.995,-7.63,-3.745
95,9224366,0.904874,-0.003172,-0.388814,-2.0125,-7.595,-3.605
96,9224464,0.9052401,-0.004514,-0.388936,-1.995,-7.945,-3.64
97,9224562,0.907192,-0.004514,-0.386862,-2.065,-7.875,-3.745
98,9224659,0.9082899999999999,-0.0051240009999999996,-0.388204,-2.065,-7.7,-3.7625
99,9224757,0.9059721,-0.004514,-0.386862,-1.995,-7.7,-3.815
100,9224855,0.9053620000000001,-0.000488,-0.383934,-1.8725,-7.875,-3.99
101,9224953,0.9067040000000001,0.00183,-0.383812,-1.7675,-7.7175,-4.0775
102,9225051,0.910486,0.001342,-0.386252,-1.5925,-7.595,-4.13
103,9225149,0.909998,0.0008540001,-0.384544,-1.435,-7.665,-4.3925
104,9225247,0.904508,-0.000488,-0.384056,-1.33,-7.735,-4.515
105,9225345,0.901214,-0.004514,-0.38661799999999996,-1.2075,-7.805,-4.76
106,9225443,0.8995059999999999,-0.00549,-0.386496,-1.1375,-7.735,-4.9
107,9225541,0.9009700999999999,-0.00427,-0.386496,-1.295,-7.35,-5.04
108,9225639,0.9010921000000001,-0.004514,-0.386984,-1.4525,-7.175,-5.1625
109,9225737,0.899384,-0.004148001,-0.388692,-1.4875,-7.0875,-5.0225
110,9225835,0.9010921000000001,-0.003782,-0.387716,-1.365,-6.895,-4.935
111,9225932,0.9006040999999999,-0.003172,-0.387838,-1.19,-6.79,-4.8475
112,9226030,0.90036,-0.00305,-0.388936,-1.155,-6.545,-4.7775
113,9226128,0.898652,-0.004026,-0.388692,-1.1725,-6.23,-4.795
114,9226226,0.8959681,-0.004758,-0.38966799999999996,-1.19,-5.8275,-4.69
115,9226324,0.89426,-0.00488,-0.391254,-1.1725,-5.53,-4.795
116,9226422,0.894748,-0.003782,-0.391376,-1.155,-5.2675,-4.8125
117,9226520,0.8964561,-0.004392,-0.39271799999999996,-1.33,-4.97,-4.585
118,9226618,0.8998719999999999,-0.004758,-0.393938,-1.4,-4.83,-4.585
119,9226716,0.8998719999999999,-0.005856,-0.39161999999999997,-1.4875,-4.515,-4.655
120,9226814,0.8987741,-0.004758,-0.39284,-1.5575,-4.3225,-4.7425
121,9226912,0.8971879999999999,-0.00427,-0.39418200000000003,-1.645,-4.165,-4.7775
122,9227010,0.8964561,-0.00305,-0.39418200000000003,-1.8375,-3.92,-4.655
123,9227108,0.897432,-0.004148001,-0.395158,-1.7675,-3.92,-4.5675
124,9227206,0.8996280999999999,-0.0035380000000000003,-0.396256,-1.89,-4.025,-4.655
125,9227304,0.902068,-0.002318,-0.39771999999999996,-1.785,-4.0775,-4.6725
126,9227401,0.9025559999999999,0.0,-0.39955,-1.9075,-3.9025,-4.6375
127,9227499,0.9002379999999999,-0.00183,-0.40272199999999997,-1.96,-3.8675,-4.6725
128,9227597,0.901336,-0.002074,-0.4026,-1.9075,-3.85,-4.7775
129,9227695,0.900726,-0.00427,-0.40223400000000004,-1.8375,-3.885,-4.7425
130,9227793,0.901702,-0.00366,-0.40443,-1.96,-3.99,-4.6375
131,9227891,0.9015799999999999,-0.00366,-0.40528400000000003,-1.925,-4.0775,-4.6025
132,9227989,0.9021899999999999,-0.002196,-0.40357600000000005,-1.75,-4.305,-4.4625
133,9228087,0.90036,-0.001952,-0.404064,-1.54,-4.515,-4.4275
134,9228185,0.9009700999999999,-0.000488,-0.404308,-1.54,-4.7425,-4.3575
135,9228283,0.9028,-0.003172,-0.407236,-1.5575,-4.7775,-4.445
136,9228381,0.904386,-0.0035380000000000003,-0.407358,-1.5225,-4.4975,-4.585
137,9228479,0.9019459999999999,-0.00244,-0.406748,-1.26,-4.41,-4.69
138,9228577,0.8990181,0.000244,-0.40516199999999997,-1.19,-4.7775,-4.725
139,9228675,0.8990181,0.0008540001,-0.401624,-1.0675,-5.0225,-4.6725
140,9228773,0.8991401,-0.002196,-0.40223400000000004,-0.9625,-5.25,-4.5675
141,9228870,0.898042,-0.0008540001,-0.40138,-0.8575,-5.1275,-4.585
142,9228968,0.8991401,0.001098,-0.400404,-0.8225,-4.9175,-4.725
143,9229066,0.8995059999999999,-0.000732,-0.402966,-0.875,-4.8125,-4.62
144,9229164,0.8996280999999999,-0.0032939999999999996,-0.402966,-1.0325,-4.97,-4.62
145,9229262,0.8996280999999999,-0.005246,-0.400282,-1.0325,-4.7775,-4.55
146,9229360,0.898408,-0.007442,-0.39771999999999996,-1.3125,-4.55,-4.4275
147,9229458,0.8985301,-0.005368,-0.39955,-1.3825,-4.235,-4.2
148,9229556,0.8995059999999999,-0.004392,-0.39955,-1.3125,-4.13,-4.1125
149,9229654,0.9015799999999999,-0.004392,-0.398574,-1.4875,-4.0425,-4.0075
150,9229752,0.9006040999999999,-0.0008540001,-0.396988,-1.47,-4.095,-3.99
151,9229850,0.9009700999999999,0.001098,-0.396866,-1.435,-4.0425,-3.92
152,9229948,0.900848,0.004026,-0.3965,-1.435,-3.6925,-3.8325
153,9230046,0.8985301,0.004636001,-0.395402,-1.3125,-3.5,-3.955
154,9230144,0.8990181,0.004026,-0.38966799999999996,-1.1025,-3.465,-4.235
155,9230241,0.8995059999999999,0.00305,-0.38856999999999997,-0.875,-3.3425,-4.515
156,9230339,0.8965780000000001,0.000488,-0.38735,-0.7875,-3.045,-4.83
157,9230437,0.8957241,-0.004392,-0.386862,-1.05,-2.87,-4.9525
158,9230535,0.8982860999999999,-0.005368,-0.38674000000000003,-1.3475,-2.73,-4.935
159,9230633,0.9009700999999999,-0.007564001,-0.388326,-1.61,-2.625,-4.8825
160,9230731,0.90036,-0.006344,-0.388326,-1.8725,-2.2575,-4.7775
161,9230829,0.8996280999999999,0.002562,-0.386496,-1.855,-1.82,-4.725
162,9230927,0.904386,0.007320001,-0.38503200000000004,-1.75,-2.03,-4.5325
163,9231025,0.9086559999999999,0.009394,-0.38552,-1.61,-2.5025,-4.375
164,9231123,0.9118280000000001,0.008784,-0.385276,-1.3125,-2.87,-4.41
165,9231221,0.9142680000000001,0.005978,-0.38295799999999997,-1.05,-3.185,-4.6025
166,9231319,0.915976,0.004392,-0.383934,-0.9625,-3.64,-4.655
167,9231417,0.9201241,0.004636001,-0.38247,-0.8575,-4.0425,-4.69
168,9231515,0.92171,0.00427,-0.382348,-0.945,-4.55,-4.725
169,9231612,0.921344,0.004636001,-0.382714,-0.8925,-4.97,-4.865
170,9231710,0.91805,0.003782,-0.382226,-0.7875,-5.355,-4.97
171,9231808,0.9153661,0.000732,-0.382104,-0.735,-5.775,-4.9525
172,9231906,0.9120720999999999,0.00122,-0.38186,-0.525,-6.1075,-5.075
173,9232004,0.907192,0.002074,-0.380152,-0.455,-6.2475,-5.215
174,9232102,0.907192,0.004148001,-0.381006,-0.49,-6.5275,-5.2325
175,9232200,0.9114620000000001,0.002196,-0.382714,-0.6125,-6.7375,-5.32
176,9232298,0.9118280000000001,0.0032939999999999996,-0.382104,-0.7875,-6.7025,-5.355
177,9232396,0.9103641,0.00244,-0.384056,-0.6825,-6.7375,-5.4425
178,9232494,0.904386,0.000976,-0.385398,-0.6475,-6.825,-5.495
179,9232592,0.9019459999999999,0.000366,-0.382836,-0.5075,-6.895,-5.495
180,9232690,0.901336,-0.000244,-0.381616,-0.4725,-7.035,-5.4775
181,9232787,0.9025559999999999,-0.002074,-0.38295799999999997,-0.6125,-6.965,-5.3725
182,9232885,0.9051181,-0.002928,-0.384056,-0.875,-6.7375,-5.3025
183,9232983,0.9067040000000001,-0.0035380000000000003,-0.385154,-1.0325,-6.6325,-5.2675
184,9233081,0.9060940000000001,-0.005002,-0.385276,-1.2075,-6.6325,-5.11
185,9233179,0.9023121,-0.0064659999999999995,-0.384056,-1.365,-6.475,-4.9525
186,9233277,0.9001161,-0.0061,-0.383324,-1.4,-6.2825,-4.7775
187,9233375,0.8996280999999999,-0.004514,-0.38552,-1.61,-6.02,-4.655
188,9233473,0.901458,-0.0034159999999999998,-0.38552,-1.645,-5.915,-4.5675
189,9233571,0.9034101000000001,-0.0008540001,-0.386496,-1.5575,-5.8975,-4.5325
190,9233669,0.904142,0.001098,-0.38613000000000003,-1.505,-5.985,-4.445
191,9233767,0.903532,0.003172,-0.386496,-1.33,-6.02,-4.4275
192,9233865,0.9030440000000001,0.000122,-0.385642,-1.19,-5.9325,-4.55
193,9233963,0.9030440000000001,-0.001098,-0.388326,-1.19,-5.7925,-4.6375
194,9234061,0.9037761000000001,-0.000488,-0.388692,-1.05,-5.6875,-4.585
195,9234158,0.9019459999999999,-0.002806,-0.389302,-0.8400001,-5.5825,-4.6025
196,9234256,0.9009700999999999,-0.003904,-0.390034,-0.735,-5.5475,-4.6025
197,9234354,0.901214,-0.004148001,-0.3904,-0.6125,-5.4775,-4.6725
198,9234452,0.9021899999999999,-0.004026,-0.390888,-0.595,-5.4425,-4.725
199,9234550,0.904874,-0.002806,-0.389912,-0.5775,-5.3375,-4.7075
200,9234648,0.9053620000000001,-0.001586,-0.390766,-0.42,-5.355,-4.7075
201,9234746,0.9051181,-0.001464,-0.389058,-0.245,-5.2325,-4.8475
202,9234844,0.9034101000000001,-0.00061,-0.388692,-0.07,-5.04,-4.8825
203,9234942,0.9024341,-0.002318,-0.390766,0.0,-5.0925,-4.9525
204,9235040,0.9025559999999999,-0.00183,-0.390034,0.21,-5.3025,-5.11
205,9235138,0.9026780000000001,-0.002562,-0.388692,0.35,-5.285,-5.1275
206,9235236,0.9037761000000001,-0.00427,-0.389546,0.2975,-5.3025,-5.04
207,9235334,0.9049959999999999,-0.005002,-0.389546,0.315,-5.215,-5.0575
208,9235432,0.904508,-0.004758,-0.390888,0.3675,-5.215,-5.04
209,9235530,0.904142,-0.005368,-0.388814,0.21,-5.11,-4.9
210,9235628,0.903532,-0.006344,-0.387838,0.07,-5.04,-4.935
211,9235725,0.9051181,-0.004758,-0.389302,0.0875,-5.0575,-4.865
212,9235823,0.903166,-0.0061,-0.386984,-0.0875,-4.865,-4.76
213,9235921,0.904386,-0.0061,-0.387594,-0.2275,-4.7075,-4.62
214,9236019,0.9046301,-0.005368,-0.388326,-0.4375,-4.725,-4.76
215,9236117,0.904386,-0.005002,-0.388814,-0.5425,-4.83,-4.62
216,9236215,0.9029221,-0.006222,-0.387594,-0.8400001,-5.005,-4.5325
217,9236313,0.9015799999999999,-0.007320001,-0.38735,-1.085,-5.0225,-4.4625
218,9236411,0.903898,-0.005978,-0.387106,-1.295,-5.215,-4.41
219,9236509,0.904386,-0.005612,-0.38808200000000004,-1.5575,-5.215,-4.2875
220,9236607,0.9056061,-0.00488,-0.388204,-1.575,-5.145,-4.2
221,9236705,0.906948,-0.001342,-0.385276,-1.5925,-5.0575,-4.1475
222,9236803,0.9073141,-0.003904,-0.386252,-1.7675,-5.04,-4.2175
223,9236901,0.907436,-0.002928,-0.386374,-1.9775,-5.18,-4.2525
224,9236998,0.9060940000000001,-0.00244,-0.384422,-2.1175,-5.215,-4.2
225,9237096,0.904508,-0.00061,-0.383812,-2.24,-5.215,-4.1125
226,9237194,0.90585,-0.001586,-0.385642,-2.275,-5.285,-3.9025
227,9237292,0.9090219999999999,-0.0034159999999999998,-0.387472,-2.2225,-5.2675,-3.8325
228,9237390,0.9082899999999999,-0.003782,-0.38674000000000003,-1.995,-5.3375,-3.78
229,9237488,0.906826,0.000244,-0.38674000000000003,-1.9425,-5.3725,-3.92
230,9237586,0.9059721,0.002318,-0.387716,-1.9075,-5.4775,-3.92
231,9237684,0.9057280999999999,0.0051240009999999996,-0.387228,-1.9075,-5.565,-3.955
232,9237782,0.9080459999999999,0.0061,-0.38661799999999996,-1.82,-5.705,-4.1125
233,9237880,0.906826,0.005856,-0.384666,-1.61,-5.8275,-4.41
234,9237978,0.907192,0.004392,-0.382836,-1.33,-6.0375,-4.55
235,9238076,0.906948,0.000732,-0.379054,-1.1025,-6.195,-4.7775
236,9238174,0.907436,-0.00366,-0.381494,-1.0325,-6.1775,-4.8125
237,9238272,0.907192,-0.00488,-0.382836,-1.295,-6.125,-4.83
238,9238369,0.906948,-0.007076001,-0.37881,-1.435,-5.8975,-4.8125
239,9238467,0.903532,-0.00549,-0.380274,-1.6275,-5.7225,-4.6025
240,9238565,0.900848,-0.004514,-0.37990799999999997,-1.82,-5.5825,-4.55
241,9238663,0.9009700999999999,-0.002806,-0.38198200000000004,-1.9425,-5.5475,-4.375
242,9238761,0.902068,-0.00061,-0.382104,-1.925,-5.3025,-4.2175
243,9238859,0.903898,0.0,-0.38503200000000004,-1.925,-5.11,-4.0425
244,9238957,0.906216,-0.002318,-0.385886,-2.03,-5.18,-4.0775
245,9239055,0.9056061,-0.004392,-0.38674000000000003,-2.1525,-5.285,-4.1475
246,9239153,0.9059721,-0.003904,-0.387106,-2.065,-5.215,-4.3225
247,9239251,0.907802,-0.00183,-0.385276,-1.9775,-5.145,-4.34
248,9239349,0.91012,-0.001342,-0.386008,-1.8725,-5.32,-4.375
249,9239447,0.90646,0.0017079999999999999,-0.38552,-1.8725,-5.32,-4.4625
250,9239545,0.9042641,0.0017079999999999999,-0.382714,-1.855,-5.4075,-4.6375
251,9239642,0.904142,0.000366,-0.384056,-1.82,-5.6875,-4.6025
252,9239740,0.9067040000000001,-0.00061,-0.384178,-1.8025,-5.8625,-4.5675
253,9239838,0.9052401,0.000122,-0.385276,-1.7325,-5.7225,-4.445
254,9239936,0.904874,0.000488,-0.38674000000000003,-1.645,-5.4775,-4.515
255,9240034,0.9059721,0.00244,-0.388692,-1.6275,-5.46,-4.41
256,9240132,0.9065821,0.0034159999999999998,-0.387228,-1.4525,-5.39,-4.515
257,9240230,0.9060940000000001,0.00366,-0.385154,-1.33,-5.4075,-4.6025
258,9240328,0.904386,0.004636001,-0.38674000000000003,-1.12,-5.425,-4.5675
259,9240426,0.9032879999999999,0.001952,-0.387838,-0.9275,-5.5125,-4.62
260,9240524,0.9026780000000001,0.000366,-0.387716,-0.8575,-5.53,-4.6725
261,9240622,0.9037761000000001,-0.00061,-0.388936,-0.8400001,-5.565,-4.9
262,9240720,0.904874,-0.00366,-0.388692,-0.875,-5.5475,-4.9
263,9240818,0.904142,-0.005368,-0.38979,-0.9275,-5.355,-4.865
264,9240916,0.904752,-0.005978,-0.388204,-0.9275,-5.3375,-4.83
265,9241014,0.9056061,-0.004392,-0.389912,-0.945,-5.6525,-4.795
266,9241112,0.9060940000000001,-0.002684,-0.389424,-1.015,-5.6175,-4.865
267,9241209,0.9056061,0.0,-0.387472,-0.98,-5.6,-4.7775
268,9241307,0.9037761000000001,-0.00061,-0.387106,-1.0325,-5.565,-4.9
269,9241405,0.904508,0.0,-0.38735,-0.945,-5.67,-4.8825
270,9241503,0.906216,0.0,-0.38674000000000003,-0.8575,-5.74,-4.9
271,9241601,0.906216,-0.004026,-0.389058,-0.875,-5.915,-4.8125
272,9241699,0.9059721,-0.00427,-0.389302,-0.9275,-5.8275,-4.7775
273,9241797,0.9032879999999999,-0.00427,-0.387716,-0.805,-5.705,-4.7775
274,9241895,0.9026780000000001,-0.00427,-0.388814,-0.8225,-5.7925,-4.6725
275,9241993,0.904142,-0.00305,-0.388814,-0.8225,-5.74,-4.655
276,9242091,0.9034101000000001,-0.00366,-0.389546,-0.9275,-5.5475,-4.6725
277,9242189,0.903532,-0.0032939999999999996,-0.389912,-1.0675,-5.53,-4.69
278,9242287,0.9019459999999999,-0.0032939999999999996,-0.38795999999999997,-0.9275,-5.6175,-4.6375
279,9242384,0.901458,-0.000732,-0.387594,-0.8925,-5.6175,-4.515
280,9242482,0.9034101000000001,0.0008540001,-0.38795999999999997,-0.8575,-5.46,-4.4975
281,9242580,0.904386,-0.001952,-0.387228,-0.735,-5.32,-4.445
282,9242678,0.9030440000000001,-0.003782,-0.387472,-0.7525,-5.4075,-4.5325
283,9242776,0.901336,-0.002318,-0.38674000000000003,-0.7525,-5.5475,-4.6025
284,9242874,0.9024341,-0.00183,-0.388204,-0.91,-5.6525,-4.515
285,9242972,0.9034101000000001,-0.001342,-0.387838,-1.015,-5.8275,-4.4625
286,9243070,0.907192,-0.003172,-0.387716,-1.015,-5.985,-4.445
287,9243168,0.9065821,-0.002806,-0.388936,-1.0675,-6.0375,-4.3925
288,9243265,0.90585,-0.004514,-0.389058,-1.19,-6.0375,-4.34
289,9243363,0.906948,-0.0035380000000000003,-0.388936,-1.33,-6.02,-4.2175
290,9243461,0.907192,-0.000732,-0.38856999999999997,-1.225,-6.0375,-4.445
291,9243559,0.9076799999999999,0.000366,-0.38808200000000004,-1.4175,-5.985,-4.34
292,9243657,0.906948,-0.00122,-0.38613000000000003,-1.4875,-5.88,-4.41
293,9243755,0.9053620000000001,-0.0017079999999999999,-0.38674000000000003,-1.4875,-5.9675,-4.34
294,9243853,0.904752,-0.000366,-0.386984,-1.4875,-6.0725,-4.2875
295,9243951,0.9025559999999999,0.000366,-0.38795999999999997,-1.4875,-6.0375,-4.2
296,9244049,0.904874,-0.00122,-0.38808200000000004,-1.68,-6.0375,-4.2875
297,9244146,0.906216,-0.00183,-0.38856999999999997,-1.8025,-6.16,-4.2875
298,9244244,0.907436,-0.000976,-0.387838,-1.9075,-6.02,-4.2525
299,9244342,0.9084121,0.0,-0.38808200000000004,-2.0825,-6.1075,-4.2
300,9244440,0.9084121,0.000976,-0.386496,-2.1875,-6.195,-4.2175
301,9244538,0.90646,0.000976,-0.385154,-2.135,-6.2125,-4.2875
302,9244636,0.9032879999999999,-0.0008540001,-0.385154,-2.1525,-6.125,-4.235
303,9244734,0.900848,-0.0017079999999999999,-0.38491,-2.275,-6.1075,-4.305
304,9244832,0.8991401,-0.00305,-0.383934,-2.415,-6.0375,-4.2
305,9244930,0.902068,-0.00183,-0.38503200000000004,-2.555,-5.915,-4.165
306,9245028,0.906948,-0.002196,-0.384056,-2.555,-5.81,-4.095
307,9245125,0.9052401,-0.000976,-0.385642,-2.7475,-5.6875,-4.0075
308,9245223,0.9057280999999999,-0.00061,-0.384666,-2.765,-5.6525,-3.8325
309,9245321,0.9042641,0.00244,-0.3843,-2.8875,-5.705,-3.8675
310,9245419,0.9026780000000001,0.003172,-0.386008,-2.8175,-5.6875,-3.815
311,9245517,0.903532,0.00366,-0.385398,-2.87,-5.635,-3.7275
312,9245615,0.9051181,0.002196,-0.382714,-2.8175,-5.5825,-3.7625
313,9245713,0.906216,0.002196,-0.38295799999999997,-2.6775,-5.565,-3.85
314,9245811,0.9073141,0.0017079999999999999,-0.38186,-2.4675,-5.74,-3.955
315,9245909,0.9085340000000001,-0.000976,-0.379786,-2.3975,-5.9325,-4.1475
316,9246007,0.907802,-0.000366,-0.38003000000000003,-2.2925,-5.7925,-4.1125
317,9246105,0.907436,-0.001952,-0.38295799999999997,-2.38,-5.5825,-4.1125
318,9246203,0.903166,-0.002806,-0.385276,-2.555,-5.425,-4.0425
319,9246301,0.9018241,-0.001464,-0.385642,-2.625,-5.215,-3.9725
320,9246399,0.9002379999999999,0.000976,-0.38491,-2.5725,-5.2325,-3.8675
321,9246497,0.9001161,0.004148001,-0.38356799999999996,-2.6075,-5.1625,-3.885
322,9246594,0.9032879999999999,0.003904,-0.384788,-2.52,-5.2325,-3.885
323,9246692,0.9056061,0.0035380000000000003,-0.38356799999999996,-2.4325,-5.285,-3.8675
324,9246790,0.9075581,0.002928,-0.382714,-2.3625,-5.3025,-3.9725
325,9246888,0.9084121,0.00183,-0.38369000000000003,-2.2225,-5.0575,-3.8675
326,9246986,0.9059721,0.001586,-0.382836,-2.205,-4.865,-3.9025
327,9247084,0.9063379999999999,0.002684,-0.384544,-2.135,-4.865,-3.78
328,9247182,0.9076799999999999,0.00305,-0.384056,-1.9775,-4.9875,-3.92
329,9247280,0.9054840000000001,0.004514,-0.38308000000000003,-1.82,-4.9175,-4.13
330,9247378,0.9023121,0.0035380000000000003,-0.38186,-1.75,-4.795,-4.1475
331,9247476,0.9015799999999999,0.004026,-0.382592,-1.6275,-4.7775,-4.2875
332,9247574,0.9010921000000001,0.002562,-0.384666,-1.61,-4.7425,-4.2875
333,9247672,0.901336,0.0017079999999999999,-0.384788,-1.61,-4.6725,-4.375
334,9247770,0.9051181,-0.000732,-0.38503200000000004,-1.68,-4.83,-4.41
335,9247867,0.9070700999999999,0.00305,-0.38613000000000003,-1.5225,-4.8475,-4.3575
336,9247965,0.9059721,0.0035380000000000003,-0.38613000000000003,-1.435,-4.7775,-4.2
337,9248063,0.9034101000000001,0.005978,-0.38503200000000004,-1.3475,-4.69,-4.2175
338,9248161,0.904752,0.007686,-0.38503200000000004,-1.0325,-4.7075,-4.165
339,9248259,0.9070700999999999,0.007442,-0.386496,-0.875,-4.8125,-4.27
340,9248357,0.9089001,0.004392,-0.38552,-0.8225,-4.97,-4.375
341,9248455,0.9084121,0.002562,-0.384056,-0.7175,-4.795,-4.6025
342,9248553,0.9051181,0.004026,-0.384178,-0.6125,-4.865,-4.6375
343,9248651,0.9051181,0.0035380000000000003,-0.386252,-0.63,-5.005,-4.7075
344,9248749,0.904752,0.000732,-0.387472,-0.7175,-5.1275,-4.6375
345,9248847,0.9067040000000001,0.002196,-0.387594,-0.665,-5.2325,-4.6025
346,9248945,0.9079241,0.002806,-0.387472,-0.735,-5.285,-4.655
347,9249042,0.9054840000000001,0.002074,-0.386984,-0.7525,-5.1975,-4.585
348,9249140,0.904386,0.002196,-0.384178,-0.8400001,-5.04,-4.515
349,9249238,0.9053620000000001,0.004514,-0.385886,-0.77,-5.25,-4.6025
350,9249336,0.9057280999999999,0.007320001,-0.383202,-0.63,-5.2325,-4.7425
351,9249434,0.904142,0.003904,-0.383934,-0.6125,-5.0575,-4.725
352,9249532,0.904142,0.00122,-0.38503200000000004,-0.5425,-5.075,-4.725
353,9249630,0.9049959999999999,0.00122,-0.38503200000000004,-0.56,-5.25,-4.7425
354,9249728,0.9049959999999999,0.001586,-0.385764,-0.6825,-5.3025,-4.7425
355,9249826,0.907192,0.00122,-0.386252,-0.7,-5.1975,-4.69
356,9249924,0.906826,0.001464,-0.385764,-0.7525,-5.0925,-4.6025
357,9250022,0.9042641,0.000488,-0.3843,-0.77,-5.1275,-4.585
358,9250120,0.9002379999999999,0.00061,-0.38369000000000003,-0.91,-5.075,-4.55
359,9250217,0.9006040999999999,0.001098,-0.384178,-0.98,-5.0225,-4.62
360,9250316,0.9052401,0.002318,-0.38369000000000003,-1.085,-5.2325,-4.6025
361,9250413,0.90951,0.00305,-0.384056,-1.0675,-4.97,-4.62
362,9250511,0.9089001,0.0008540001,-0.384666,-1.05,-4.9525,-4.5675
363,9250609,0.904752,0.001586,-0.383812,-1.015,-5.0575,-4.5675
364,9250707,0.903532,0.002196,-0.38308000000000003,-1.085,-5.04,-4.725
365,9250805,0.9034101000000001,0.00244,-0.38369000000000003,-1.0325,-5.1625,-4.69
366,9250903,0.9067040000000001,-0.000122,-0.383446,-1.085,-5.25,-4.5675
367,9251001,0.9076799999999999,0.0,-0.384544,-1.155,-5.2675,-4.4975
368,9251099,0.9052401,0.000244,-0.384178,-1.1375,-5.3025,-4.48
369,9251197,0.9042641,-0.000122,-0.38295799999999997,-1.19,-5.1625,-4.445
370,9251295,0.9052401,-0.001098,-0.382836,-1.2425,-5.215,-4.515
371,9251392,0.907802,-0.00183,-0.3843,-1.33,-5.285,-4.41
372,9251490,0.9091440000000001,-0.000122,-0.38308000000000003,-1.3475,-5.2325,-4.4625
373,9251588,0.9076799999999999,0.00183,-0.382836,-1.2775,-5.0225,-4.41
374,9251686,0.9076799999999999,0.000732,-0.38247,-1.4,-5.005,-4.4625
375,9251784,0.9075581,0.0008540001,-0.385886,-1.3825,-5.0575,-4.515
376,9251882,0.907192,0.002196,-0.384056,-1.3475,-4.9875,-4.5325
377,9251980,0.9051181,0.001464,-0.38552,-1.4175,-4.9875,-4.5325
378,9252078,0.904142,0.0008540001,-0.386008,-1.54,-5.18,-4.55
379,9252176,0.904386,-0.00061,-0.384544,-1.505,-5.2675,-4.4625
380,9252274,0.904386,-0.000732,-0.383202,-1.435,-5.4775,-4.4975
381,9252372,0.9042641,-0.0008540001,-0.383446,-1.4525,-5.46,-4.3925
382,9252470,0.9063379999999999,-0.000976,-0.383934,-1.5575,-5.4775,-4.41
383,9252568,0.908168,-0.001952,-0.38247,-1.645,-5.5825,-4.445
384,9252665,0.9093880999999999,-0.00183,-0.38356799999999996,-1.645,-5.4775,-4.3925
385,9252763,0.9076799999999999,0.000244,-0.38356799999999996,-1.6625,-5.3725,-4.445
386,9252861,0.9054840000000001,0.002562,-0.383446,-1.715,-5.32,-4.55
387,9252959,0.9056061,0.000732,-0.38308000000000003,-1.6975,-5.3025,-4.445
388,9253057,0.9049959999999999,-0.000976,-0.38308000000000003,-1.785,-5.0925,-4.3575
389,9253155,0.9063379999999999,-0.00122,-0.383324,-1.7675,-5.145,-4.2525
390,9253253,0.904142,0.002318,-0.38295799999999997,-1.645,-5.2675,-4.165
391,9253351,0.9052401,0.000976,-0.382592,-1.7325,-5.2325,-4.025
392,9253449,0.9067040000000001,0.0008540001,-0.381128,-1.8025,-5.285,-4.095
393,9253547,0.9089001,0.001342,-0.378688,-1.7675,-5.2325,-4.1825
394,9253645,0.9106081,0.0008540001,-0.377712,-1.61,-5.355,-4.165
395,9253743,0.910242,-0.00244,-0.378444,-1.6275,-5.6875,-4.235
396,9253841,0.9080459999999999,-0.003172,-0.3782,-1.6975,-5.7225,-4.3925
397,9253938,0.9051181,-0.004514,-0.378932,-1.75,-5.635,-4.48
398,9254036,0.904142,-0.002806,-0.379176,-2.03,-5.3375,-4.445
399,9254134,0.9046301,-0.002318,-0.379542,-2.24,-5.285,-4.2875
400,9254232,0.9037761000000001,-0.002196,-0.379664,-2.45,-5.0925,-4.2525
401,9254330,0.904874,0.0017079999999999999,-0.37990799999999997,-2.38,-5.0925,-4.13
402,9254428,0.9059721,0.004026,-0.38003000000000003,-2.38,-5.11,-4.0425
403,9254526,0.9063379999999999,0.004148001,-0.380152,-2.38,-4.9525,-4.0075
404,9254624,0.9060940000000001,0.002074,-0.379786,-2.31,-5.0575,-3.9375
405,9254722,0.9067040000000001,0.002318,-0.378322,-2.2575,-5.18,-3.92
406,9254820,0.9073141,0.00305,-0.37698000000000004,-2.31,-5.18,-4.0075
407,9254918,0.9093880999999999,0.000122,-0.377834,-2.3975,-5.3375,-3.9725
408,9255016,0.910242,-0.000488,-0.377712,-2.38,-5.46,-3.9375
409,9255114,0.9115840000000001,0.0008540001,-0.380274,-2.45,-5.3725,-4.06
410,9255211,0.9121940999999999,0.000488,-0.38064000000000003,-2.52,-5.1975,-4.0775
411,9255309,0.9110959999999999,0.00366,-0.378688,-2.3625,-5.3725,-4.095
412,9255407,0.91012,0.0035380000000000003,-0.379664,-2.275,-5.4775,-4.06
413,9255505,0.9075581,0.0034159999999999998,-0.381372,-2.17,-5.495,-4.1825
414,9255603,0.9021899999999999,0.00427,-0.38356799999999996,-2.065,-5.425,-4.2875
415,9255701,0.9032879999999999,0.006222,-0.384178,-1.9425,-5.565,-4.2525
416,9255799,0.907802,0.007686,-0.384788,-1.645,-5.7575,-4.13
417,9255897,0.9121940999999999,0.006832001,-0.384788,-1.47,-5.95,-4.2
418,9255995,0.913536,0.008296000999999999,-0.38247,-1.155,-6.1775,-4.3225
419,9256093,0.9131700999999999,0.00793,-0.381372,-0.7875,-6.5275,-4.445
420,9256191,0.913292,0.007076001,-0.379298,-0.7,-6.825,-4.5325
421,9256289,0.9146340000000001,0.0032939999999999996,-0.379176,-0.5075,-7.0525,-4.4975
422,9256387,0.915732,0.004148001,-0.37881,-0.2975,-7.28,-4.69
423,9256485,0.915732,0.003172,-0.37990799999999997,-0.035,-7.3675,-4.69
424,9256583,0.9148780000000001,0.0017079999999999999,-0.379664,0.035,-7.4375,-4.9175
425,9256680,0.9126820999999999,0.00183,-0.378078,0.2625,-7.6125,-4.9525
426,9256778,0.9120720999999999,0.004148001,-0.37746799999999997,0.4025,-7.7525,-5.25
427,9256876,0.910486,0.001464,-0.376736,0.245,-7.91,-5.3375
428,9256974,0.909632,-0.001464,-0.373198,0.3675,-8.0675,-5.285
429,9257072,0.907802,-0.000976,-0.371856,0.455,-8.0675,-5.32
430,9257170,0.9075581,-0.004148001,-0.374296,0.4025,-8.0675,-5.18
431,9257268,0.9075581,-0.00488,-0.373442,0.35,-8.155,-5.0925
432,9257366,0.904508,-0.005612,-0.370514,0.2975,-7.8575,-5.11
433,9257464,0.90402,-0.005368,-0.371734,0.035,-7.6125,-4.935
434,9257562,0.9032879999999999,-0.007198,-0.371612,-0.3325,-7.4375,-4.795
435,9257660,0.9060940000000001,-0.00671,-0.373198,-0.5775,-7.21,-4.7075
436,9257758,0.9052401,-0.007076001,-0.373442,-0.875,-7.0,-4.55
437,9257856,0.9034101000000001,-0.005246,-0.37502800000000003,-1.0675,-6.895,-4.3575
438,9257954,0.904874,-0.004758,-0.37698000000000004,-1.3125,-6.65,-4.3225
439,9258052,0.9060940000000001,-0.005368,-0.377712,-1.4175,-6.4225,-4.13
440,9258150,0.9054840000000001,-0.005246,-0.377834,-1.5575,-6.2475,-4.0775
441,9258248,0.9046301,-0.004392,-0.379054,-1.6975,-6.0375,-4.0425
442,9258346,0.9023121,-0.005612,-0.37881,-1.855,-5.8275,-4.06
443,9258443,0.901458,-0.005246,-0.380884,-1.9425,-5.5125,-3.9725
444,9258541,0.8988959999999999,-0.002684,-0.38003000000000003,-2.03,-5.215,-3.8325
445,9258639,0.8976761000000001,-0.0034159999999999998,-0.380152,-2.17,-4.83,-3.78
446,9258737,0.895114,-0.004514,-0.381494,-2.38,-4.2525,-3.7275
447,9258835,0.8958459999999999,-0.00366,-0.381738,-2.52,-3.7275,-3.7975
448,9258933,0.8998719999999999,-0.0035380000000000003,-0.383202,-2.6775,-3.64,-3.7975
449,9259031,0.9026780000000001,-0.004392,-0.385398,-2.94,-3.6575,-3.745
450,9259129,0.9034101000000001,-0.000732,-0.385764,-2.975,-3.4825,-3.8325
451,9259227,0.9021899999999999,0.001342,-0.385886,-2.94,-3.3075,-3.675
452,9259325,0.904386,0.0035380000000000003,-0.384544,-2.8175,-3.3425,-3.5875
453,9259423,0.903532,0.00305,-0.38356799999999996,-2.625,-3.325,-3.71
454,9259521,0.9036540000000001,0.003904,-0.38369000000000003,-2.485,-3.255,-3.6575
455,9259619,0.9032879999999999,0.005612,-0.385642,-2.24,-3.185,-3.85
456,9259717,0.9056061,0.004758,-0.382714,-2.24,-3.2725,-3.9025
457,9259815,0.9051181,-0.000366,-0.3843,-2.3625,-3.3425,-4.0075
458,9259913,0.9060940000000001,-0.002074,-0.38491,-2.3625,-3.535,-4.025
459,9260011,0.907436,-0.00244,-0.385154,-2.3625,-3.4125,-3.885
460,9260109,0.90646,0.000366,-0.38356799999999996,-2.38,-3.4825,-3.6925
461,9260207,0.9073141,0.001586,-0.382226,-2.1875,-3.7975,-3.64
462,9260305,0.9089001,0.002562,-0.38369000000000003,-2.0125,-4.0775,-3.885
463,9260403,0.908168,0.0034159999999999998,-0.38503200000000004,-1.715,-4.0425,-3.92
464,9260501,0.9108521,0.005734,-0.383812,-1.5925,-3.9725,-4.1125
465,9260599,0.9110959999999999,0.0032939999999999996,-0.385276,-1.505,-4.305,-4.515
466,9260697,0.9106081,0.003904,-0.383446,-1.33,-4.3575,-4.69
467,9260795,0.9079241,0.00122,-0.38308000000000003,-1.1025,-4.2,-4.76
468,9260892,0.907436,0.000122,-0.38295799999999997,-0.735,-4.1475,-4.83
469,9260990,0.90646,0.001098,-0.383812,-0.5775,-4.1825,-4.8125
470,9261088,0.9073141,0.003782,-0.386008,-0.49,-4.1125,-4.7425
471,9261186,0.9114620000000001,0.002806,-0.387228,-0.3675,-4.1475,-4.7075
472,9261284,0.9113399999999999,0.001342,-0.386984,-0.2975,-4.3575,-4.7075
473,9261382,0.90951,-0.002196,-0.38735,-0.105,-4.445,-4.6375
474,9261480,0.9080459999999999,-0.004636001,-0.385154,-0.1225,-4.4975,-4.6725
475,9261578,0.909632,-0.0051240009999999996,-0.379542,-0.0525,-4.6725,-4.76
476,9261676,0.9115840000000001,-0.003904,-0.37990799999999997,-0.1925,-4.9175,-4.8125
477,9261774,0.91622,-0.00427,-0.379542,-0.1925,-4.9175,-4.7775
478,9261872,0.9173181,-0.00488,-0.378078,-0.42,-5.0225,-4.7075
479,9261970,0.9154880999999999,-0.004758,-0.376614,-0.56,-5.075,-4.585
480,9262067,0.913658,-0.0034159999999999998,-0.37698000000000004,-0.6125,-5.2325,-4.5675
481,9262165,0.9090219999999999,0.000244,-0.37454,-0.665,-5.25,-4.4625
482,9262263,0.907802,0.000366,-0.375882,-0.6475,-5.355,-4.515
483,9262361,0.9090219999999999,-0.001952,-0.378444,-0.77,-5.5475,-4.41
484,9262459,0.9093880999999999,-0.002196,-0.38051799999999997,-0.8400001,-5.67,-4.34
485,9262557,0.9090219999999999,0.000122,-0.378322,-0.8925,-5.6525,-4.3575
486,9262655,0.9090219999999999,-0.0008540001,-0.377712,-0.98,-5.7575,-4.3925
487,9262753,0.9076799999999999,0.00061,-0.37881,-0.9975,-5.6875,-4.4275
488,9262851,0.9060940000000001,0.001586,-0.379298,-1.015,-5.915,-4.34
489,9262949,0.907802,0.002928,-0.377956,-1.0325,-5.8975,-4.3575
490,9263047,0.9056061,0.002196,-0.377956,-1.1375,-5.775,-4.41
491,9263144,0.9036540000000001,0.005612,-0.37856599999999996,-1.05,-5.6875,-4.5325
492,9263242,0.903166,0.00427,-0.377834,-1.015,-5.5825,-4.655
493,9263340,0.9053620000000001,0.00122,-0.378444,-1.26,-5.5475,-4.655
494,9263438,0.9087780000000001,-0.001952,-0.382592,-1.365,-5.705,-4.5675
495,9263536,0.910486,-0.0017079999999999999,-0.384056,-1.3825,-5.7225,-4.41
496,9263634,0.9092661,0.000244,-0.383934,-1.5925,-5.635,-4.41
497,9263732,0.9106081,0.002074,-0.385276,-1.5575,-5.775,-4.2525
498,9263830,0.9092661,0.001464,-0.385642,-1.4875,-5.74,-4.1825
499,9263928,0.9057280999999999,0.001952,-0.385398,-1.5575,-5.6525,-4.27
500,9264026,0.903532,0.001342,-0.386252,-1.6275,-5.6175,-4.2525
501,9264124,0.90402,0.00244,-0.38308000000000003,-1.8025,-5.74,-4.48
502,9264222,0.903898,0.00244,-0.381006,-1.8025,-5.985,-4.4975
503,9264319,0.9036540000000001,0.002196,-0.38369000000000003,-2.0125,-6.055,-4.4625
504,9264417,0.9067040000000001,0.000976,-0.384178,-2.17,-6.195,-4.445
505,9264515,0.9086559999999999,-0.00122,-0.384666,-2.2925,-6.23,-4.34
506,9264613,0.9092661,-0.000366,-0.383812,-2.2225,-6.1425,-4.0775
507,9264711,0.9052401,-0.0008540001,-0.38369000000000003,-2.2925,-6.055,-4.095
508,9264809,0.9028,0.000122,-0.384422,-2.345,-6.055,-4.0775
509,9264907,0.904752,0.002562,-0.384666,-2.45,-6.23,-4.235
510,9265005,0.9091440000000001,0.004026,-0.384544,-2.4675,-6.37,-4.27
511,9265103,0.9110959999999999,0.004148001,-0.386252,-2.3975,-6.4575,-4.235
512,9265201,0.9114620000000001,0.00366,-0.38808200000000004,-2.3275,-6.4925,-4.165
513,9265299,0.910974,0.00305,-0.388692,-2.1875,-6.545,-4.1475
514,9265396,0.9059721,0.001098,-0.386862,-2.0125,-6.5625,-4.1475
515,9265494,0.9036540000000001,0.002196,-0.386862,-1.8725,-6.685,-4.2175
516,9265592,0.8998719999999999,0.0017079999999999999,-0.384788,-1.7675,-6.6675,-4.3925
517,9265690,0.8996280999999999,0.001464,-0.385154,-1.645,-6.4925,-4.48
518,9265788,0.9028,-0.002318,-0.386252,-1.715,-6.5625,-4.515
519,9265886,0.9024341,-0.002806,-0.386252,-1.715,-6.4925,-4.55
520,9265984,0.900848,-0.001586,-0.386984,-1.7325,-6.5625,-4.6375
521,9266082,0.9001161,-0.002928,-0.387594,-1.75,-6.58,-4.7075
522,9266180,0.9023121,-0.003904,-0.387838,-1.575,-6.6325,-4.55
523,9266278,0.9025559999999999,-0.00305,-0.387838,-1.61,-6.4575,-4.3575
524,9266376,0.903166,-0.002318,-0.386496,-1.6975,-6.3175,-4.305
525,9266473,0.9015799999999999,-0.002318,-0.385642,-1.715,-6.23,-4.3575
526,9266571,0.9018241,-0.000488,-0.3843,-1.785,-6.3175,-4.41
527,9266669,0.9042641,-0.000488,-0.385398,-1.8725,-6.3175,-4.27
528,9266767,0.9054840000000001,-0.002196,-0.386008,-1.96,-6.195,-4.2175
529,9266865,0.9075581,-0.003782,-0.385154,-2.0125,-6.125,-4.1825
530,9266963,0.9075581,-0.0032939999999999996,-0.384178,-2.1175,-6.055,-4.165
531,9267061,0.910486,0.0,-0.384422,-1.9425,-5.8975,-3.99
532,9267159,0.909632,0.001098,-0.382226,-1.7325,-5.8275,-3.9025
533,9267257,0.9053620000000001,0.002928,-0.383202,-1.5925,-5.67,-3.885
534,9267355,0.901458,0.005246,-0.384178,-1.435,-5.565,-4.0775
535,9267453,0.900848,0.006587999999999999,-0.383934,-1.33,-5.32,-4.27
536,9267551,0.902068,0.006344,-0.384544,-1.295,-5.3725,-4.41
537,9267648,0.904386,0.004026,-0.384422,-1.3125,-5.18,-4.48
538,9267746,0.9046301,0.002806,-0.382104,-1.155,-4.83,-4.515
539,9267844,0.9046301,0.002074,-0.38295799999999997,-1.0325,-4.6725,-4.5325
540,9267942,0.9028,0.001586,-0.38308000000000003,-0.945,-4.6725,-4.4625
541,9268040,0.90402,0.0035380000000000003,-0.381494,-1.12,-4.585,-4.585
542,9268138,0.907802,0.00122,-0.381616,-1.12,-4.7075,-4.6025
543,9268236,0.9091440000000001,0.000122,-0.382226,-1.155,-4.9,-4.7775
544,9268334,0.9097540000000001,-0.000122,-0.380762,-1.1025,-4.8125,-4.655
545,9268432,0.906826,0.0008540001,-0.381494,-1.085,-4.8475,-4.62
546,9268530,0.90402,0.002562,-0.38295799999999997,-0.9275,-5.005,-4.515
547,9268627,0.903166,0.002562,-0.382226,-0.98,-4.8825,-4.4625
548,9268725,0.901458,0.002928,-0.381372,-0.8925,-4.7425,-4.4275
549,9268823,0.9049959999999999,0.003172,-0.383934,-1.015,-4.7425,-4.5325
550,9268921,0.9063379999999999,0.003172,-0.38491,-0.98,-4.655,-4.585
551,9269019,0.9082899999999999,0.001342,-0.38491,-1.12,-4.7425,-4.6025
552,9269117,0.9091440000000001,0.001098,-0.38369000000000003,-1.2075,-4.795,-4.6725
553,9269215,0.90951,-0.002074,-0.382226,-0.91,-4.865,-4.55
554,9269313,0.9076799999999999,0.000122,-0.381006,-0.77,-4.83,-4.6725
555,9269411,0.90585,0.001952,-0.380762,-0.7525,-4.83,-4.7075
556,9269509,0.9063379999999999,0.0017079999999999999,-0.38186,-0.7,-4.8825,-4.8125
557,9269607,0.9049959999999999,-0.002806,-0.382836,-0.7,-4.8475,-4.62
558,9269704,0.9051181,-0.002196,-0.38369000000000003,-0.8225,-4.795,-4.69
559,9269802,0.9056061,-0.001464,-0.383446,-0.8400001,-4.62,-4.725
560,9269900,0.9024341,-0.000976,-0.382714,-0.875,-4.6025,-4.6725
561,9269998,0.9001161,-0.00244,-0.385886,-0.9275,-4.4275,-4.6375
562,9270096,0.901458,-0.00244,-0.384422,-0.9625,-4.1825,-4.6025
563,9270194,0.903166,-0.003172,-0.38503200000000004,-1.05,-4.165,-4.585
564,9270292,0.9056061,-0.003782,-0.384422,-1.2075,-4.0425,-4.515
565,9270390,0.9042641,-0.002684,-0.383934,-1.295,-3.92,-4.6025
566,9270488,0.903898,-0.001464,-0.38369000000000003,-1.295,-3.8675,-4.48
567,9270586,0.903898,-0.001952,-0.384544,-1.47,-3.8675,-4.34
568,9270684,0.9049959999999999,-0.003782,-0.38674000000000003,-1.6975,-3.8325,-4.305
569,9270781,0.904752,-0.002562,-0.386008,-1.8025,-3.7625,-4.1825
570,9270879,0.9025559999999999,-0.004392,-0.387594,-1.96,-3.605,-4.235
571,9270977,0.9019459999999999,-0.003172,-0.386496,-2.205,-3.36,-4.1475
572,9271075,0.9030440000000001,-0.003172,-0.385642,-2.4675,-3.43,-3.99
573,9271173,0.9059721,-0.000732,-0.3843,-2.7125,-3.605,-3.9375
574,9271271,0.907192,0.00122,-0.38295799999999997,-2.905,-3.7975,-3.9375
575,9271369,0.9103641,0.002928,-0.38356799999999996,-2.9925,-3.9375,-3.8325
576,9271467,0.907802,0.004026,-0.38247,-2.9575,-3.9025,-3.7275
577,9271565,0.908168,0.00671,-0.38003000000000003,-2.905,-3.955,-3.71
578,9271663,0.9084121,0.004636001,-0.381494,-2.87,-4.1125,-3.7975
579,9271761,0.909632,0.0035380000000000003,-0.382104,-2.7825,-4.2,-3.85
580,9271859,0.9112181,0.004392,-0.379786,-2.6775,-4.2175,-3.9725
581,9271956,0.9097540000000001,0.006587999999999999,-0.379542,-2.5375,-4.2525,-3.92
582,9272054,0.9080459999999999,0.007686,-0.380274,-2.205,-4.34,-3.7625
583,9272152,0.9076799999999999,0.007442,-0.381006,-2.1,-4.445,-3.9725
584,9272250,0.9060940000000001,0.005246,-0.379298,-1.9775,-4.515,-4.2875
585,9272348,0.9051181,0.006344,-0.378932,-1.61,-4.5325,-4.375
586,9272446,0.9053620000000001,0.007808001,-0.377956,-1.4175,-4.375,-4.305
587,9272544,0.904386,0.005246,-0.37698000000000004,-1.26,-4.375,-4.34
588,9272642,0.9037761000000001,0.007076001,-0.374296,-1.0325,-4.4625,-4.5675
589,9272740,0.908168,0.007808001,-0.37515,-0.77,-4.4975,-4.515
590,9272838,0.9151219999999999,0.00671,-0.373076,-0.6825,-4.55,-4.34
591,9272936,0.919758,0.002928,-0.370148,-0.7,-4.62,-4.445
592,9273034,0.919636,0.000488,-0.36905,-0.6475,-4.69,-4.585
593,9273131,0.9141459999999999,0.000976,-0.369172,-0.4375,-4.725,-4.445
594,9273229,0.9075581,0.00122,-0.367464,-0.3675,-4.4975,-4.2175
595,9273327,0.9067040000000001,0.0035380000000000003,-0.36905,-0.35,-4.62,-4.095
596,9273425,0.904752,0.00488,-0.367464,-0.4375,-4.6725,-4.025
597,9273523,0.90646,0.001952,-0.367342,-0.455,-4.4975,-3.92
598,9273621,0.9082899999999999,0.001342,-0.366122,-0.42,-4.375,-4.0425
599,9273719,0.9128040000000001,-0.000244,-0.366244,-0.3325,-4.34,-3.955
600,9273817,0.9137799999999999,0.001952,-0.364536,-0.2975,-4.235,-3.7975
601,9273915,0.913292,0.008540001,-0.36417,-0.1575,-3.9025,-3.9025
602,9274013,0.9131700999999999,0.009394,-0.36148600000000003,0.0525,-3.7275,-4.3225
603,9274111,0.91561,0.011101999999999999,-0.36136399999999996,0.07,-3.64,-4.4275
604,9274208,0.9179280000000001,0.009882,-0.360144,0.245,-3.885,-4.48
605,9274306,0.9191481,0.00671,-0.357216,0.21,-4.1125,-4.5675
606,9274404,0.918782,0.003904,-0.356606,-0.0175,-4.515,-4.725
607,9274502,0.918782,0.0035380000000000003,-0.35465399999999997,-0.175,-4.76,-4.865
608,9274600,0.9200021,0.004148001,-0.355996,-0.2625,-4.6725,-4.7075
609,9274698,0.92171,0.003904,-0.356118,-0.4025,-4.7775,-4.62
610,9274796,0.91927,0.00549,-0.355142,-0.525,-4.9,-4.655
611,9274894,0.9181720999999999,0.008296000999999999,-0.35746,-0.4725,-4.725,-4.6375
612,9274992,0.916464,0.007076001,-0.360754,-0.4025,-4.655,-4.83
613,9275090,0.9117061,0.007198,-0.363316,-0.245,-4.6725,-4.935
614,9275187,0.9084121,0.004392,-0.365634,-0.07,-4.62,-4.97
615,9275285,0.904386,0.004026,-0.366,0.0875,-4.3925,-5.005
616,9275383,0.9036540000000001,0.005978,-0.36502399999999996,0.14,-4.0425,-5.3375
617,9275481,0.907802,0.0064659999999999995,-0.366854,0.2275,-4.165,-5.46
618,9275579,0.9110959999999999,0.002562,-0.36783000000000005,0.3675,-4.27,-5.4775
619,9275677,0.916342,0.00122,-0.367098,0.56,-4.515,-5.565
620,9275775,0.9203680000000001,-0.002806,-0.369782,0.665,-4.7075,-5.6875
621,9275873,0.92171,-0.004392,-0.37027,0.6475,-4.935,-5.7225
622,9275971,0.9200021,-0.005978,-0.366732,0.63,-4.9525,-5.7225
623,9276069,0.917684,-0.0051240009999999996,-0.367586,0.735,-4.9525,-5.6525
624,9276167,0.916586,-0.0051240009999999996,-0.36966,0.7,-4.9525,-5.4425
625,9276265,0.9181720999999999,-0.005002,-0.36953800000000003,0.6825,-5.1625,-5.2675
626,9276362,0.919026,-0.00427,-0.369172,0.8400001,-5.145,-5.2325
627,9276460,0.916342,-0.002196,-0.36892800000000003,0.8925,-5.25,-5.145
628,9276558,0.9153661,-0.000366,-0.371002,0.7525,-5.2325,-5.1625
629,9276656,0.915976,-0.000732,-0.371734,0.5075,-5.46,-5.0925
630,9276754,0.9153661,-0.003172,-0.371246,0.4025,-5.7925,-5.0225
631,9276852,0.9145120999999999,-0.004758,-0.370758,0.2275,-6.09,-4.9525
632,9276950,0.9152440000000001,-0.00488,-0.369294,0.2625,-6.3175,-4.9875
633,9277048,0.9152440000000001,-0.005002,-0.367098,0.175,-6.4225,-4.9525
634,9277146,0.915976,-0.003904,-0.36783000000000005,0.1225,-6.3175,-5.005
635,9277244,0.915732,-0.0032939999999999996,-0.367342,0.0875,-6.125,-5.1275
636,9277342,0.915976,-0.0035380000000000003,-0.371368,0.0525,-5.985,-5.11
637,9277440,0.9140241,-0.00061,-0.367952,0.0875,-5.7575,-5.0925
638,9277538,0.9087780000000001,0.000244,-0.36722,0.14,-5.7575,-5.1275
639,9277636,0.9042641,0.000366,-0.367952,0.0875,-6.0025,-5.11
640,9277733,0.9029221,-0.004148001,-0.36966,0.1225,-6.02,-5.0575
641,9277831,0.9018241,-0.005978,-0.36953800000000003,0.105,-5.8275,-4.97
642,9277929,0.9067040000000001,-0.005856,-0.37027,0.0175,-5.775,-4.8825
643,9278027,0.9152440000000001,-0.00122,-0.371734,-0.1575,-5.8275,-4.76
644,9278125,0.9189040999999999,0.002806,-0.37246599999999996,-0.2975,-5.7925,-4.6375
645,9278223,0.919636,0.00305,-0.37393000000000004,-0.21,-5.9325,-4.6375
646,9278321,0.9198799999999999,0.001586,-0.371002,0.1575,-5.9675,-4.5675
647,9278419,0.918294,0.000732,-0.36905,0.3325,-6.1075,-4.5325
648,9278517,0.9115840000000001,0.002074,-0.365512,0.5075,-6.1075,-4.725
649,9278615,0.9097540000000001,-0.000122,-0.36587800000000004,0.4375,-6.16,-4.8475
650,9278713,0.909632,-0.002074,-0.36648800000000004,0.42,-6.3875,-4.9175
651,9278811,0.912316,-0.001342,-0.36478,0.315,-6.3875,-4.9
652,9278909,0.9154880999999999,-0.0032939999999999996,-0.36636599999999997,0.2275,-6.405,-4.7775
653,9279007,0.9158540999999999,-0.000976,-0.36661,0.14,-6.5275,-4.585
654,9279104,0.9153661,0.001342,-0.366732,0.0175,-6.4925,-4.4625
655,9279202,0.9145120999999999,0.0017079999999999999,-0.36587800000000004,0.1225,-6.5975,-4.41
656,9279300,0.9115840000000001,0.000976,-0.362706,0.2275,-6.4925,-4.34
657,9279398,0.9106081,0.002562,-0.36295,0.1575,-6.65,-4.4275
658,9279496,0.9141459999999999,0.00427,-0.36002199999999995,0.14,-6.8425,-4.4275
659,9279594,0.91927,0.002196,-0.35929,0.1225,-6.8425,-4.5675
660,9279692,0.920734,-0.001098,-0.356606,0.0,-6.825,-4.6725
661,9279790,0.9202459999999999,-0.002196,-0.35526399999999997,0.0,-6.7725,-4.7075
662,9279888,0.9198799999999999,-0.00122,-0.354532,0.1575,-6.5975,-4.7075
663,9279986,0.915976,-0.000366,-0.35465399999999997,0.1225,-6.4225,-4.62
664,9280084,0.9148780000000001,-0.000366,-0.354898,0.0175,-6.2475,-4.7075
665,9280182,0.913536,-0.00122,-0.357338,-0.1225,-6.23,-4.6725
666,9280279,0.915732,-0.0034159999999999998,-0.359656,-0.315,-6.1775,-4.7775
667,9280377,0.91805,-0.004392,-0.360632,-0.63,-6.4225,-4.8475
668,9280475,0.916952,-0.00427,-0.36197399999999996,-0.7,-6.4925,-4.8475
669,9280573,0.9150001,-0.00305,-0.3599,-0.8400001,-6.37,-4.76
670,9280671,0.9158540999999999,-0.000488,-0.36002199999999995,-0.8400001,-6.51,-4.725
671,9280769,0.9186601000000001,-0.000976,-0.36051,-0.8575,-6.6325,-4.5325
672,9280867,0.918416,-0.00061,-0.360388,-0.8400001,-6.5275,-4.515
673,9280965,0.9171961,0.0,-0.36002199999999995,-0.875,-6.2125,-4.4275
674,9281063,0.9147559999999999,-0.00061,-0.362706,-0.875,-6.2125,-4.4275
675,9281161,0.9143899999999999,-0.002806,-0.36209600000000003,-0.8575,-6.1425,-4.5325
676,9281259,0.9117061,-0.000976,-0.363438,-0.8400001,-6.09,-4.6375
677,9281357,0.909998,-0.0032939999999999996,-0.363926,-0.8400001,-5.95,-4.795
678,9281455,0.9110959999999999,-0.0035380000000000003,-0.366,-0.945,-5.9675,-4.9
679,9281552,0.9137799999999999,-0.002318,-0.364048,-0.9975,-6.0725,-4.9875
680,9281650,0.9153661,-0.0008540001,-0.36234,-1.015,-6.02,-5.0575
681,9281748,0.9150001,-0.004392,-0.36282800000000004,-1.085,-6.0375,-4.9875
682,9281846,0.9152440000000001,-0.005856,-0.360998,-1.085,-6.1775,-4.8475
683,9281944,0.9139021,-0.0051240009999999996,-0.364292,-1.12,-6.055,-4.7775
684,9282042,0.9151219999999999,-0.004514,-0.366244,-1.155,-5.9675,-4.655
685,9282140,0.9168301,-0.0017079999999999999,-0.367952,-1.295,-5.775,-4.7075
686,9282238,0.912438,-0.003172,-0.37112399999999995,-1.3475,-5.53,-4.55
687,9282336,0.9098761000000001,-0.004148001,-0.373808,-1.4875,-5.5475,-4.6375
688,9282434,0.9076799999999999,-0.005246,-0.372222,-1.3475,-5.6175,-4.6025
689,9282532,0.907192,-0.005002,-0.37197800000000003,-1.4175,-5.6,-4.4275
690,9282630,0.907436,-0.004148001,-0.37417399999999995,-1.4525,-5.67,-4.445
691,9282727,0.9098761000000001,-0.00427,-0.372954,-1.5575,-5.7575,-4.62
692,9282825,0.9108521,-0.000732,-0.370758,-1.54,-5.8275,-4.515
693,9282923,0.9125601000000001,0.00061,-0.370148,-1.61,-5.7225,-4.6025
694,9283021,0.9121940999999999,-0.001952,-0.369782,-1.7675,-5.7925,-4.69
695,9283119,0.9140241,-0.004026,-0.36892800000000003,-1.7675,-5.845,-4.585
696,9283217,0.9147559999999999,-0.004026,-0.371002,-1.8375,-5.88,-4.55
697,9283315,0.916952,-0.004758,-0.371856,-1.89,-5.8975,-4.55
698,9283413,0.9143899999999999,-0.00427,-0.37417399999999995,-1.9775,-6.0375,-4.5325
699,9283511,0.9137799999999999,-0.00305,-0.376004,-1.9775,-6.125,-4.3925
700,9283609,0.9110959999999999,-0.002562,-0.376614,-1.9425,-6.1425,-4.4275
701,9283707,0.9098761000000001,-0.00244,-0.375882,-2.065,-6.195,-4.41
702,9283805,0.9110959999999999,-0.002806,-0.374052,-1.995,-6.37,-4.375
703,9283903,0.9106081,-0.004026,-0.376126,-1.9775,-6.4925,-4.34
704,9284001,0.9118280000000001,-0.003782,-0.377346,-2.0475,-6.5625,-4.34
705,9284098,0.909998,-0.002928,-0.377712,-2.1875,-6.5625,-4.3925
706,9284196,0.9092661,-0.001464,-0.37698000000000004,-2.1525,-6.5275,-4.375
707,9284294,0.9063379999999999,-0.00061,-0.376004,-2.205,-6.5625,-4.2525
708,9284392,0.904752,-0.001586,-0.37502800000000003,-2.24,-6.4225,-4.235
709,9284490,0.9036540000000001,-0.002928,-0.37698000000000004,-2.205,-6.4225,-4.1475
710,9284588,0.9060940000000001,-0.003172,-0.376248,-2.275,-6.475,-4.06
711,9284686,0.9079241,-0.004636001,-0.375638,-2.2925,-6.51,-4.06
712,9284784,0.9115840000000001,-0.001464,-0.376614,-2.2225,-6.4925,-4.06
713,9284882,0.9150001,0.00427,-0.377346,-2.17,-6.44,-4.13
714,9284980,0.9142680000000001,0.006587999999999999,-0.377224,-2.205,-6.4925,-4.095
715,9285078,0.9120720999999999,0.0064659999999999995,-0.37515,-1.995,-6.51,-4.13
716,9285176,0.9098761000000001,0.002928,-0.373198,-1.89,-6.545,-4.27
717,9285274,0.908168,-0.00122,-0.371002,-1.995,-6.7375,-4.4275
718,9285372,0.9097540000000001,-0.002806,-0.3721,-1.995,-6.9475,-4.445
719,9285469,0.9080459999999999,-0.006344,-0.367952,-1.96,-6.9475,-4.3925
720,9285567,0.90951,-0.005612,-0.36941599999999997,-2.24,-6.9825,-4.305
721,9285665,0.9082899999999999,-0.003782,-0.36905,-2.4325,-6.8075,-4.235
722,9285763,0.9086559999999999,0.000122,-0.36880599999999997,-2.3975,-6.7025,-3.9725
723,9285861,0.9073141,0.004026,-0.371246,-2.2225,-7.0175,-3.8675
724,9285959,0.9089001,0.008052001,-0.373076,-2.0475,-7.245,-3.8325
725,9286057,0.9076799999999999,0.008784,-0.37637,-1.8725,-7.5775,-3.745
726,9286155,0.906826,0.011468,-0.376736,-2.1525,-7.7525,-4.1825
727,9286253,0.9056061,0.011956,-0.37393000000000004,-2.31,-8.0325,-4.55
728,9286351,0.909632,0.013786000000000001,-0.37698000000000004,-2.59,-8.4525,-4.6725
729,9286449,0.9148780000000001,0.011346,-0.3721,-2.66,-8.9775,-4.655
730,9286547,0.913536,0.009394,-0.365146,-2.6775,-9.1175,-4.4625
731,9286645,0.9143899999999999,0.01098,-0.359412,-2.94,-9.1525,-4.305
732,9286743,0.9121940999999999,0.015616,-0.35136,-3.4475,-9.485,-4.165
733,9286840,0.910242,0.01769,-0.347578,-4.305,-9.835,-3.78
734,9286938,0.9082899999999999,0.019886,-0.341966,-4.8475,-9.94,-3.465
735,9287036,0.9065821,0.021472,-0.331108,-5.3375,-10.0275,-3.0275
736,9287134,0.9063379999999999,0.026718000000000002,-0.327814,-5.915,-9.94,-2.5375
737,9287232,0.9046301,0.03721,-0.32208000000000003,-6.2125,-9.415,-2.03
738,9287330,0.906216,0.04867801,-0.316102,-6.2125,-8.9775,-1.4
739,9287428,0.9151219999999999,0.055388,-0.317078,-5.6875,-8.715,-0.8400001
740,9287526,0.9302501,0.063196,-0.320738,-4.8125,-8.5925,-0.595
741,9287624,0.9467200000000001,0.077836,-0.322324,-3.885,-8.0675,-0.6475
742,9287722,0.954284,0.093086,-0.325984,-2.8175,-7.77,-0.875
743,9287820,0.951356,0.10528599999999999,-0.32818,-1.5575,-7.2975,-1.61
744,9287918,0.9524540000000001,0.10650599999999999,-0.334646,-0.63,-7.1575,-2.835
745,9288016,0.9531860000000001,0.10089400000000001,-0.338428,0.28,-7.6825,-4.06
746,9288113,0.9492821,0.10004,-0.34111199999999997,1.4,-8.2425,-5.1625
747,9288211,0.945866,0.09028,-0.330986,1.8025,-8.8375,-6.1775
748,9288309,0.9412299999999999,0.07637200000000001,-0.3294,1.75,-9.73,-6.9825
749,9288407,0.9439139999999999,0.06746601,-0.330742,1.645,-10.7625,-7.7175
750,9288505,0.945866,0.070882,-0.334646,1.295,-11.7425,-8.3475
751,9288603,0.9414741,0.07503,-0.341966,0.63,-12.7225,-8.3475
752,9288701,0.9301280000000001,0.07137001,-0.349896,0.105,-13.6675,-7.91
753,9288799,0.91561,0.06490399999999999,-0.36356,-0.2275,-14.4025,-7.4725
754,9288897,0.9091440000000001,0.060146000000000005,-0.376492,-0.3325,-14.56,-7.0875
755,9288995,0.9211,0.063684,-0.38003000000000003,-1.3475,-14.21,-7.1225
756,9289093,0.9287861,0.06771001,-0.36441399999999996,-2.975,-13.895,-7.0875
757,9289191,0.9267120000000001,0.052703999999999994,-0.351848,-3.395,-14.315,-6.5275
758,9289289,0.9287861,0.041724000000000004,-0.353312,-3.8325,-15.12,-5.7225
759,9289387,0.940742,0.048922,-0.341356,-4.7425,-15.995,-5.355
760,9289484,0.9463540000000001,0.07039400000000001,-0.33794,-5.32,-17.115,-4.725
761,9289582,0.9412299999999999,0.089792,-0.34221,-5.1275,-18.4625,-3.605
762,9289680,0.933666,0.100162,-0.35526399999999997,-4.655,-19.4775,-2.7475
763,9289778,0.9242720999999999,0.09845401,-0.36966,-3.9025,-19.88,-2.7125
764,9289876,0.9120720999999999,0.09247601,-0.375882,-2.94,-19.18,-3.255
765,9289974,0.901214,0.082472,-0.375882,-2.31,-18.48,-3.8325
766,9290072,0.8890140999999999,0.062341999999999995,-0.365146,-2.2575,-18.2875,-4.2175
767,9290170,0.883768,0.041846,-0.362706,-2.3625,-19.005,-4.2875
768,9290268,0.8877940000000001,0.040138,-0.359168,-2.73,-19.985,-4.8475
769,9290366,0.8913321,0.04404201,-0.362218,-2.52,-20.6325,-4.4625
770,9290464,0.893284,0.049776,-0.375394,-1.645,-21.385,-3.5
771,9290562,0.892552,0.058316,-0.392352,0.5425,-23.2225,-2.66
772,9290659,0.886818,0.078446,-0.412116,3.675,-25.935,-2.275
773,9290757,0.879986,0.09345201,-0.43785799999999997,7.105,-29.12,-2.8
774,9290855,0.855342,0.082472,-0.42114399999999996,11.55,-31.325,-4.3925
775,9290953,0.791536,0.035013999999999997,-0.4023561,16.1525,-31.85,-7.0525
776,9291051,0.723338,-0.046116000000000004,-0.376736,19.7225,-33.32,-11.83
777,9291149,0.682712,-0.120902,-0.356362,20.4575,-34.9125,-18.2
778,9291247,0.688446,-0.191052,-0.339404,19.46,-35.455,-25.235
779,9291345,0.7661600000000001,-0.22716399999999998,-0.36722,15.75,-34.8075,-31.57
780,9291443,0.917074,-0.19580999999999998,-0.39613400000000004,10.92,-32.3225,-36.0325
781,9291541,1.0673780000000002,-0.128832,-0.38051799999999997,5.775,-25.83,-38.0275
782,9291639,1.114226,-0.078202,-0.33855,3.0625,-20.6325,-35.1575
783,9291737,1.114348,-0.055998,-0.32561799999999996,2.275,-17.92,-29.12
784,9291835,1.102758,0.031232,-0.355508,3.3425,-10.115,-25.06
785,9291932,1.068354,0.110654,-0.369904,5.2325,-7.0875,-20.02
786,9292030,1.0523719999999999,0.059902,-0.342332,10.8325,-11.025,-8.4875
787,9292128,1.026996,0.00671,-0.37197800000000003,12.5475,-13.7025,2.5025
788,9292226,1.007232,0.000122,-0.362706,13.37,-13.475,7.0525
789,9292324,1.0084520000000001,-0.01708,-0.357704,11.76,-14.5075,14.0875
790,9292422,0.989176,-0.056729999999999996,-0.34721199999999997,9.8,-13.65,21.665
791,9292520,0.95099,-0.08857201,-0.324886,7.1575,-10.22,26.985
792,9292618,0.9375700000000001,-0.090768,-0.30853800000000003,5.5475,-6.2125,28.805
793,9292716,0.912926,-0.08100801,-0.2928,4.4625,-2.0825,29.2425
794,9292814,0.8876719999999999,-0.030744,-0.270474,3.8675,0.4025,27.055
795,9292912,0.8812059999999999,0.00366,-0.25803000000000004,4.2,0.56,25.2525
796,9293009,0.8601,0.007320001,-0.23887600000000003,7.1225,0.035,22.7675
797,9293107,0.8554641,0.01952,-0.2257,9.1525,-1.5225,19.1275
798,9293205,0.838994,0.005246,-0.217892,11.1125,-3.64,17.535
799,9293303,0.82655,-0.032086,-0.217892,12.6175,-5.53,15.3825
800,9293401,0.81618,-0.050142,-0.215574,13.37,-6.0375,13.0025
801,9293499,0.80093,-0.08625401,-0.215696,13.1425,-4.9525,10.4475
802,9293597,0.786656,-0.109678,-0.22106399999999998,11.3925,-3.22,7.945
803,9293695,0.7766521,-0.126636,-0.215574,9.87,-1.715,3.92
804,9293793,0.767624,-0.129564,-0.208254,7.84,-0.28,-0.5425
805,9293891,0.772992,-0.11736400000000001,-0.205692,5.4775,1.085,-5.11
806,9293989,0.776042,-0.11224,-0.198006,3.15,1.295,-7.21
807,9294087,0.7792140000000001,-0.102968,-0.196176,1.9425,0.63,-9.415
808,9294184,0.791292,-0.09235399999999999,-0.18483,0.1925,0.4375,-11.9
809,9294282,0.8133739999999999,-0.08881599,-0.174704,-1.8725,-0.245,-14.4025
810,9294380,0.853512,-0.090646,-0.177754,-4.1125,-2.9575,-16.59
811,9294478,0.885964,-0.08662001,-0.18324400000000002,-6.16,-4.935,-18.3225
812,9294576,0.9086559999999999,-0.094306,-0.19483399999999998,-7.84,-5.425,-20.125
813,9294674,0.916098,-0.09223200000000001,-0.212402,-10.36,-5.3025,-20.8425
814,9294772,0.9250040999999999,-0.090646,-0.227408,-12.9675,-3.5175,-20.545
815,9294870,0.93086,-0.081862,-0.24034,-16.03,-1.1375,-19.3025
816,9294968,0.9385460999999999,-0.08881599,-0.26156799999999997,-18.025,1.0325,-16.6075
817,9295066,0.9419620999999999,-0.087108,-0.277428,-19.495,3.1325,-12.0225
818,9295164,0.964532,-0.083936,-0.29743600000000003,-20.1775,5.845,-7.525
819,9295262,0.998692,-0.072102,-0.310002,-19.4775,8.05,-4.48
820,9295359,1.041026,-0.039772,-0.306708,-18.6375,9.5725,-2.695
821,9295457,1.066402,-0.021594,-0.296094,-16.4325,8.68,1.9075
822,9295555,1.107394,-0.047092,-0.263276,-14.1225,6.2125,7.455
823,9295653,1.153022,-0.09333,-0.233386,-12.775,3.6575,11.48
824,9295751,1.209264,-0.140544,-0.186904,-12.5125,2.0475,15.085
825,9295849,1.258674,-0.19397999999999999,-0.126636,-14.525,1.8025,18.83
826,9295947,1.386164,-0.241682,-0.282674,-18.76,1.4175,21.6825
827,9296045,1.4903520000000001,-0.316102,-0.24436599999999997,-23.0825,5.8975,29.47
828,9296143,1.509018,-0.243146,-0.24131599999999997,-31.745,17.185,30.9575
829,9296241,1.4526540000000001,-0.098088,-0.263642,-32.9,21.4725,26.425
830,9296339,1.3649360000000001,-0.013175999999999998,-0.410286,-30.24,20.8775,28.7
831,9296437,1.2908819999999999,0.105652,-0.5198421,-25.4625,21.7,35.315
832,9296535,1.169126,0.23167800000000002,-0.49702799999999997,-20.7025,26.1275,34.6325
833,9296632,1.080554,0.191662,-0.49593000000000004,-15.61,19.4075,32.9
834,9296730,1.042612,0.100406,-0.457866,-7.385,4.76,31.6575
835,9296828,1.079944,0.12285399999999999,-0.41553199999999996,-0.56,-6.6325,20.1775
836,9296926,1.128866,0.029036000000000003,-0.540094,2.2225,-16.275,11.83
837,9297024,1.105076,-0.095282,-0.675026,5.11,-22.2425,10.85
838,9297122,1.048712,-0.11333800000000001,-0.6736840000000001,2.625,-20.2125,6.335
839,9297220,1.027606,-0.038308,-0.698206,-2.38,-21.42,0.595
840,9297318,0.998448,0.043798000000000004,-0.7439560000000001,-9.1525,-27.86,1.1025
841,9297416,0.964044,0.090158,-0.733952,-10.08,-38.395,4.235
842,9297514,0.957822,0.08235001,-0.7093081,-9.3275,-47.6,6.195
843,9297612,0.9519661,0.050508,-0.6918621,-7.0,-50.155,9.6075
844,9297710,0.9414741,-0.026962,-0.667828,-5.2675,-48.825,15.5925
845,9297808,0.9264680000000001,-0.14945,-0.6469659999999999,-5.2675,-44.52,20.51
846,9297906,0.9106081,-0.259372,-0.6137819999999999,-7.28,-39.27,21.105
847,9298003,0.885476,-0.317932,-0.5968241,-11.6725,-32.97,18.2
848,9298101,0.8460700999999999,-0.296704,-0.573156,-18.06,-24.745,12.9675
849,9298199,0.80825,-0.254736,-0.554124,-23.7125,-18.3575,9.2225
850,9298297,0.7787261,-0.24497600000000003,-0.522526,-27.51,-15.3475,7.2275
851,9298395,0.743346,-0.193736,-0.48116800000000004,-32.8475,-12.53,2.17
852,9298493,0.717482,-0.11846199999999998,-0.447618,-36.61,-10.1675,-2.38
853,9298591,0.69479,-0.040260000000000004,-0.41016400000000003,-37.625,-8.6975,-7.1575
854,9298689,0.66856,0.014762,-0.384422,-38.5875,-7.105,-9.415
855,9298787,0.6368401,0.045506,-0.358558,-37.73,-6.3,-11.0075
856,9298885,0.6131721,0.076738,-0.335622,-37.8525,-5.5825,-12.985
857,9298983,0.583282,0.09821001,-0.323422,-37.52,-4.9875,-14.7175
858,9299081,0.556076,0.10394400000000001,-0.302072,-34.055,-4.6025,-17.4125
859,9299178,0.521672,0.116754,-0.28304,-30.5375,-3.01,-18.235
860,9299276,0.47372600000000004,0.124196,-0.263764,-25.865,-1.96,-18.0425
861,9299374,0.45896400000000004,0.13785999999999998,-0.24827,-20.8075,-1.9775,-18.2
862,9299472,0.456768,0.154452,-0.246928,-16.065,-1.61,-16.2575
863,9299570,0.465186,0.15420799999999998,-0.238998,-9.065,-0.63,-15.1725
864,9299668,0.48397399999999996,0.156892,-0.2318,-2.24,1.3825,-15.225
865,9299766,0.49910200000000005,0.157502,-0.217648,4.9175,3.92,-14.0875
866,9299864,0.524356,0.1525,-0.21606199999999998,11.5675,6.755,-12.845
867,9299962,0.543266,0.129076,-0.196786,18.865,10.1325,-11.1125
868,9300060,0.5437541,0.135298,-0.183976,25.13,15.47,-8.505
869,9300158,0.538752,0.131272,-0.162504,32.1475,21.6475,-4.41
870,9300256,0.546194,0.11943800000000002,-0.13078399999999998,38.3775,27.5625,-0.735
871,9300354,0.5887720000000001,0.118828,-0.102724,41.2475,30.4675,0.8575
872,9300452,0.678076,0.13602999999999998,-0.106018,44.38,27.1075,-0.4375
873,9300549,0.780922,0.162626,-0.09674601,48.65,20.72,-2.66
874,9300647,0.8773021000000001,0.160552,-0.07015,53.55,19.25,-3.045
875,9300745,0.9328120000000001,0.146278,-0.05636401,59.115,22.295,-4.41
876,9300843,0.964532,0.106018,-0.127246,62.1775,25.025,-9.94
877,9300941,1.022116,0.002318,-0.20069,61.8975,23.7475,-17.15
878,9301039,1.003328,-0.125416,-0.228872,62.545,25.2525,-18.865
879,9301137,0.9707541,-0.22204000000000002,-0.27328,58.205,24.57,-16.6775
880,9301235,0.964532,-0.148108,-0.197762,39.3225,29.9425,-17.395
881,9301333,0.9325680000000001,-0.080154,-0.06588,16.17,40.775,-15.4525
882,9301431,0.9242720999999999,-0.34709,-0.024522,-0.735,44.2575,-10.57
883,9301529,0.939766,-0.675148,-0.07039400000000001,2.8,30.485,-10.9025
884,9301627,1.171932,-0.362218,-0.242048,-13.0725,2.3275,-36.6625
885,9301725,1.432768,-0.011346,-0.38918,-28.7,-7.5425,-63.5775
886,9301823,1.486448,0.035746,-0.549366,-19.145,-5.635,-69.4225
887,9301921,1.670302,0.174216,-0.701256,-14.4025,8.3825,-79.94
888,9302018,1.815848,0.22423600000000002,-0.72468,-10.2375,25.69,-77.455
889,9302116,1.63114,0.116022,-0.8285021,-31.15,34.58,-60.97
890,9302214,1.4339879999999998,-0.14457,-0.712846,-40.9325,36.1025,-38.29
891,9302312,1.3113780000000002,-0.07332201,-0.522892,-33.7225,17.5,-30.485
892,9302410,1.100196,0.13785999999999998,-0.79422,-34.58,-9.94,-29.4875
893,9302508,1.07665,0.09942999999999999,-0.9112181,-30.59,-10.885,-14.77
894,9302606,1.2086540000000001,0.09125599999999999,-0.882914,-16.1175,-5.7575,-11.935
895,9302704,1.2134120000000002,0.022692,-0.856074,-6.0375,-14.6475,-16.5025
896,9302802,1.115812,-0.07490801,-0.7953180000000001,-3.115,-21.9975,-18.8475
897,9302900,1.08336,-0.109678,-0.7169939999999999,-1.575,-24.78,-25.2875
898,9302998,1.12301,-0.091012,-0.7239479999999999,-1.9775,-34.72,-33.635
899,9303096,1.1834,-0.042822000000000006,-0.732122,-2.4675,-40.95,-42.42
900,9303194,1.239398,0.0976,-0.690764,-1.6625,-32.69,-48.545
901,9303291,1.1744940000000001,0.2379,-0.663192,-1.645,-21.3325,-49.805
902,9303389,1.055788,0.32025,-0.647698,3.22,-16.87,-44.205
903,9303487,0.95221,0.31659,-0.6140260000000001,11.5325,-17.535,-34.545
904,9303585,0.8967,0.24216999999999997,-0.5669341,19.4775,-19.145,-26.1975
905,9303683,0.882548,0.13115,-0.555588,23.73,-20.02,-21.6125
906,9303781,0.90036,0.033306,-0.527528,25.4625,-18.795,-19.005
907,9303879,0.898042,-0.02257,-0.496174,25.7775,-15.96,-14.14
908,9303977,0.87718,-0.053191999999999996,-0.465552,24.7625,-13.755,-6.65
909,9304075,0.8461921,-0.06819800000000001,-0.431392,22.96,-12.9675,-0.245
910,9304173,0.80825,-0.08601,-0.393572,21.0525,-11.76,4.5325
911,9304271,0.740296,-0.10492,-0.358802,18.5675,-10.6925,9.6075
912,9304369,0.6722199999999999,-0.15237799999999999,-0.328058,14.6825,-11.375,15.085
913,9304466,0.62098,-0.22106399999999998,-0.29682600000000003,9.765,-11.585,19.285
914,9304564,0.589016,-0.26156799999999997,-0.27584200000000003,3.71,-9.7825,22.33
915,9304662,0.5927979999999999,-0.274256,-0.265106,-2.765,-7.3325,23.7825
916,9304760,0.629154,-0.262422,-0.257664,-9.0825,-4.2525,25.5325
917,9304858,0.647698,-0.22423600000000002,-0.256322,-15.365,-1.0325,24.9025
918,9304956,0.608902,-0.163602,-0.25681,-20.9825,2.31,24.465
919,9305054,0.570716,-0.11650999999999999,-0.24497600000000003,-24.7275,4.935,22.5575
920,9305152,0.550952,-0.055265999999999996,-0.22789600000000002,-27.2475,7.245,19.6525
921,9305250,0.5355800999999999,-0.003904,-0.206546,-27.9475,8.4,14.7525
922,9305348,0.508618,0.008906,-0.186538,-25.76,8.26,9.6075
923,9305446,0.49837,0.01769,-0.169824,-23.275,7.5775,4.6025
924,9305544,0.492392,0.05246,-0.15396400000000002,-21.14,6.8425,-1.7675
925,9305642,0.48836599999999997,0.08003201,-0.15274400000000002,-19.04,5.3025,-6.3
926,9305739,0.47518999999999995,0.049288,-0.15420799999999998,-16.205,0.8400001,-10.22
927,9305837,0.457988,0.002806,-0.168604,-17.115,-1.8725,-13.9825
928,9305935,0.44334799999999996,-0.05368,-0.18470799999999998,-20.6675,-2.4675,-15.4525
929,9306033,0.44225,-0.11016600000000001,-0.199226,-26.845,-1.435,-15.7325
930,9306131,0.453962,-0.17641199999999999,-0.191662,-34.055,2.6425,-14.175
931,9306229,0.481412,-0.21886799999999998,-0.18873399999999999,-42.0,8.8375,-12.565
932,9306327,0.525332,-0.236436,-0.149816,-49.805,15.6625,-12.46
933,9306425,0.5777920999999999,-0.225212,-0.08771799999999999,-55.1775,22.96,-11.3925
934,9306523,0.6707561,-0.164456,-0.057462,-59.0275,25.935,-8.6975
935,9306621,0.8304541,-0.0488,-0.12212200000000001,-60.6375,22.9425,-5.32
936,9306719,1.006866,0.07076001,-0.252784,-55.3525,18.0075,-1.085
937,9306816,1.209142,0.17616800000000002,-0.361852,-44.66,21.105,3.78
938,9306914,1.408734,0.266692,-0.380762,-38.1675,40.74,4.5675
939,9307012,1.586854,0.404308,-0.239852,-32.9175,59.465,-6.055
940,9307110,1.624918,0.63989,-0.09394001,-18.585,58.625,-19.5475
941,9307208,1.4665620000000001,0.7584741,-0.019154,6.2825,37.5725,-13.4575
942,9307306,1.320284,0.49727200000000005,-0.116632,29.0325,2.3625,8.68
943,9307404,1.4088559999999999,0.13237000000000002,-0.275354,42.1925,-24.6225,20.5625
944,9307502,1.595882,-0.011834,-0.190686,35.0,-16.31,24.045
945,9307600,1.6750599999999998,-0.08430201,-0.079178,24.1325,9.6775,27.9825
946,9307698,1.6897,-0.17385,-0.21386599999999997,10.6225,27.4225,30.065
947,9307796,1.74826,-0.15237799999999999,-0.565226,6.93,41.1425,34.9125
948,9307894,1.604056,0.016714,-0.733586,19.3025,64.1025,41.825
949,9307992,1.3163799999999999,0.23485,-0.7622561,36.7325,78.085,41.825
950,9308089,1.218048,0.294996,-0.604876,47.39,57.68,44.6075
951,9308187,1.009672,0.132736,-0.5325300000000001,51.1875,18.2525,45.3075
952,9308285,0.8576601,-0.011590000000000001,-0.662094,58.3275,-16.6425,26.18
953,9308383,0.8805960999999999,-0.124196,-0.761524,53.025,-32.7425,11.0075
954,9308481,0.996862,-0.25864000000000004,-0.646112,36.225,-36.505,14.77
955,9308579,1.055544,-0.290848,-0.593042,21.35,-50.2425,16.5725
956,9308677,1.1825459999999999,-0.229238,-0.6265921,6.685,-64.6975,13.51
957,9308775,1.2591620000000001,-0.25363800000000003,-0.6638021,-3.1675,-66.745,21.315
958,9308873,1.155828,-0.31964000000000004,-0.661118,-9.59,-62.5625,34.9125
959,9308971,1.116544,-0.28548,-0.621834,-17.6575,-49.105,40.9325
960,9309069,1.0467600000000001,-0.235948,-0.59292,-25.7775,-33.6,41.93
961,9309167,0.8784,-0.178974,-0.567178,-26.1275,-29.61,37.73
962,9309265,0.7822640000000001,-0.09418401,-0.52704,-26.95,-29.435,27.4925
963,9309362,0.71248,-0.049044,-0.48128999999999994,-29.8375,-28.035,19.075
964,9309460,0.658556,-0.037942000000000004,-0.452254,-31.8325,-27.335,12.6875
965,9309558,0.650992,-0.05819401,-0.42395,-33.0575,-27.475,6.8425
966,9309656,0.6703899999999999,-0.067588,-0.396378,-34.1075,-26.25,1.0675
967,9309754,0.6481859999999999,-0.031964,-0.36209600000000003,-33.11,-22.6975,-6.5975
968,9309852,0.5976779999999999,0.038796,-0.33366999999999997,-30.695,-18.8825,-13.7025
969,9309950,0.546804,0.11028800000000001,-0.303658,-27.3175,-16.17,-18.3225
970,9310048,0.5139859999999999,0.1891,-0.28548,-22.8725,-14.2975,-22.015
971,9310146,0.487512,0.260226,-0.270962,-16.6775,-13.6325,-25.8475
972,9310244,0.482388,0.29829,-0.2562,-10.185,-14.245,-28.63
973,9310342,0.484706,0.343918,-0.24558600000000003,-4.795,-16.0475,-28.56
974,9310439,0.542168,0.327814,-0.236314,1.4,-17.115,-28.385
975,9310537,0.6068279999999999,0.306586,-0.22582199999999997,9.275,-16.7125,-28.6825
976,9310635,0.635254,0.239364,-0.214964,15.4175,-14.0175,-26.1625
977,9310733,0.6724640000000001,0.17202,-0.196542,21.7175,-10.92,-22.3825
978,9310831,0.674416,0.10638399999999999,-0.17641199999999999,26.495,-6.3875,-16.7475
979,9310929,0.6864941,0.02196,-0.143716,31.045,-0.455,-13.09
980,9311027,0.694546,-0.031598,-0.10687200000000001,34.125,5.635,-9.7475
981,9311125,0.678686,-0.057339999999999995,-0.07698201,35.6125,10.3075,-5.18
982,9311223,0.661728,-0.08662001,-0.05843801,37.03,12.67,-0.42
983,9311321,0.6463561,-0.09613601,-0.045994,37.8875,14.385,2.7825
984,9311419,0.663558,-0.069174,-0.04453,39.445,14.595,3.815
985,9311517,0.71126,-0.027572000000000003,-0.060267999999999995,41.8425,12.215,6.3525
986,9311614,0.755912,0.021106,-0.07381001,44.9575,7.8925,9.5025
987,9311712,0.79056,0.072712,-0.082838,45.3425,8.82,11.025
988,9311810,0.8331381,0.111508,-0.05941401,47.7575,11.9875,10.92
989,9311908,0.9191481,0.12871,-0.072956,51.8175,13.3175,9.17
990,9312006,1.0171139999999999,0.07527400000000001,-0.130418,56.945,9.835,6.475
991,9312104,1.078968,-0.04404201,-0.205204,59.08,1.155,1.505
992,9312202,1.0169920000000001,-0.07551801,-0.36941599999999997,48.8075,-8.5925,-7.0525
993,9312300,0.9372040999999999,-0.046848,-0.28853,27.965,-6.825,-14.42
994,9312398,0.848266,-0.059902,-0.008784,7.0875,17.71,-8.155
995,9312496,0.7582300000000001,-0.33855,0.08113001,-6.6325,41.3525,2.17
996,9312594,0.7451760000000001,-0.687592,0.14896199999999998,-11.795,34.405,-4.2
997,9312692,0.901336,-0.553026,0.011468,-21.175,5.9325,-30.1175
998,9312789,1.1836440000000001,-0.151646,-0.15176800000000001,-36.61,-17.255,-57.155
999,9312887,1.441552,0.028548,-0.31756599999999996,-31.78,-21.35,-73.85
1000,9312985,1.586244,0.17995,-0.407114,-17.045,-11.55,-92.85501
1001,9313083,1.7317900000000002,0.30780599999999997,-0.50325,-8.4,12.53,-101.2375
1002,9313181,1.871846,0.25607800000000003,-0.694058,-25.1825,30.3975,-85.5925
1003,9313279,1.656394,-0.15311,-0.8489979999999999,-55.055,41.7725,-54.495
1004,9313377,1.358592,-0.483242,-0.625616,-62.8425,46.3225,-32.795
1005,9313475,1.212924,-0.21752600000000002,-0.53741,-58.975,11.6725,-40.6175
1006,9313573,1.028338,0.080886,-0.790194,-62.65,-28.7875,-38.3425
1007,9313671,0.9263459999999999,0.1098,-0.87718,-54.4775,-19.67,-15.3475
1008,9313769,1.088118,0.116876,-0.8625401,-37.1525,-12.7575,-10.465
1009,9313867,1.226222,0.09942999999999999,-0.839116,-21.42,-27.79,-18.0425
1010,9313964,1.188524,0.017568,-0.762988,-12.7225,-41.1775,-23.52
1011,9314062,1.212192,-0.01342,-0.7612800999999999,-6.9475,-46.025,-32.0425
1012,9314160,1.29564,0.066978,-0.74115,-0.4725,-51.7825,-43.995
1013,9314258,1.362862,0.12383,-0.713212,2.765,-46.7775,-49.5425
1014,9314356,1.3024719999999999,0.20252,-0.635864,5.495,-33.9325,-52.29
1015,9314454,1.184498,0.321714,-0.579622,8.7675,-25.795,-55.5625
1016,9314552,1.041514,0.368684,-0.540826,16.205,-26.6525,-49.245
1017,9314650,0.9392780000000001,0.327204,-0.5002,22.33,-28.84,-38.1675
1018,9314748,0.876814,0.226798,-0.47653199999999996,26.915,-29.8725,-26.4775
1019,9314846,0.8934059999999999,0.10736,-0.465308,30.38,-30.17,-18.27
1020,9314944,0.9386681,0.017812,-0.428342,30.1875,-27.7375,-11.34
1021,9315042,0.9152440000000001,-0.0488,-0.386374,28.3675,-22.54,-3.4825
1022,9315140,0.8309421,-0.090646,-0.360388,25.7425,-18.725,5.565
1023,9315237,0.7626221,-0.11224,-0.33061999999999997,22.47,-17.115,13.72
1024,9315335,0.6952781,-0.13602999999999998,-0.290238,19.915,-15.05,21.105
1025,9315433,0.633302,-0.17214200000000002,-0.254736,17.395,-13.23,27.79
1026,9315531,0.58499,-0.213378,-0.224846,13.265,-12.4075,32.4275
1027,9315629,0.553392,-0.24278000000000002,-0.20483800000000002,7.7175,-11.41,35.8925
1028,9315727,0.55205,-0.254492,-0.188002,2.5725,-9.1,37.1875
1029,9315825,0.5614439999999999,-0.233386,-0.188124,-3.8675,-6.1075,36.995
1030,9315923,0.580598,-0.19276,-0.197884,-9.8,-1.26,35.3325
1031,9316021,0.5574180999999999,-0.1342,-0.203984,-15.2775,2.415,34.8775
1032,9316119,0.5248441,-0.08869401,-0.205448,-18.83,4.9,32.2525
1033,9316217,0.48568199999999995,-0.054412,-0.203374,-20.6675,6.79,28.1925
1034,9316315,0.47079799999999994,-0.022203999999999998,-0.19483399999999998,-20.72,8.7675,20.4925
1035,9316412,0.4819,0.001464,-0.17836400000000002,-18.7075,8.3475,11.62
1036,9316510,0.49861400000000006,0.019886,-0.16897,-15.8025,6.335,1.645
1037,9316608,0.511302,0.026351999999999997,-0.15921,-13.37,4.0425,-7.2625
1038,9316706,0.521794,0.033672,-0.167872,-12.005,0.6825,-12.88
1039,9316804,0.5239901,-0.002928,-0.17921800000000002,-12.635,-4.6725,-16.345
1040,9316902,0.539606,-0.05453401,-0.19739600000000002,-16.2225,-8.085,-21.6475
1041,9317000,0.56181,-0.097966,-0.203984,-21.735,-7.8925,-25.865
1042,9317098,0.58987,-0.131394,-0.17616800000000002,-27.4925,-3.9025,-27.4225
1043,9317196,0.647454,-0.15018199999999998,-0.12175599999999999,-32.7775,2.8175,-27.51
1044,9317294,0.715408,-0.134322,-0.054655999999999996,-38.0625,10.255,-26.4775
1045,9317392,0.789218,-0.082472,-0.017446,-43.0675,17.3425,-23.2925
1046,9317490,0.868396,-0.028792,-0.067832,-43.12,21.0175,-19.075
1047,9317588,0.9943001,0.06039,-0.11138599999999999,-39.2175,20.86,-14.0
1048,9317686,1.138992,0.15396400000000002,-0.24802600000000002,-34.02,24.3775,-9.205
1049,9317784,1.227808,0.188368,-0.401136,-20.4575,28.1925,-9.0125
1050,9317881,1.2902719999999999,0.271572,-0.44103000000000003,-8.225,36.295,-14.5775
1051,9317979,1.351394,0.28486999999999996,-0.264496,-0.56,43.6975,-18.445
1052,9318077,1.366034,0.251198,-0.074298,11.1825,43.6275,-18.6725
1053,9318175,1.314916,0.342698,-0.016714,25.55,28.035,-15.7325
1054,9318273,1.278316,0.277672,-0.034648000000000005,35.385,3.71,-1.505
1055,9318371,1.340048,0.04404201,0.047824,38.885,-12.7225,11.0775
1056,9318469,1.44265,-0.14713199999999999,-0.03904,36.2425,-21.42,11.5675
1057,9318567,1.556964,-0.414678,-0.14579,30.1525,-24.115,21.385
1058,9318665,1.669082,-0.523746,-0.128466,2.1875,4.5325,33.3025
1059,9318763,1.62748,-0.48153409999999996,-0.24802600000000002,-25.5675,63.28,35.035
1060,9318861,1.486082,-0.164822,-0.5206960999999999,-17.99,92.85501,29.5225
1061,9318958,1.267702,0.30378,-0.737246,11.165,90.685,31.22
1062,9319056,1.19316,0.57462,-0.8880380999999999,26.985,83.9825,39.655
1063,9319154,1.2141440000000001,0.5453399999999999,-0.619516,27.9475,59.5525,51.555
1064,9319252,0.921588,0.44944799999999996,-0.531798,38.57,19.9325,47.145
1065,9319350,0.663558,0.20984,-0.6470880999999999,59.395,-21.175,26.285
1066,9319448,0.6514800000000001,0.029036000000000003,-0.655262,53.305,-36.1375,5.5825
1067,9319546,0.781044,-0.08442401,-0.518378,29.3825,-38.01,4.235
1068,9319644,0.9688021000000001,-0.167872,-0.583404,17.255,-61.635,12.425
1069,9319742,1.235128,-0.168238,-0.655628,8.4875,-88.34000999999999,19.145
1070,9319840,1.499868,-0.289018,-0.6541640000000001,-5.18,-83.6325,32.8475
1071,9319938,1.433622,-0.49129399999999995,-0.6304960000000001,-15.8025,-59.5,50.6975
1072,9320036,1.2141440000000001,-0.48836599999999997,-0.6095119999999999,-21.3325,-37.73,56.2275
1073,9320134,1.004182,-0.292678,-0.5941401,-26.075,-24.6225,50.3825
1074,9320231,0.83936,-0.096014,-0.575596,-27.4225,-20.93,41.65
1075,9320329,0.820572,-0.015128,-0.53375,-27.335,-21.8225,35.105
1076,9320427,0.8554641,-0.027206,-0.47165200000000007,-26.3375,-21.945,26.2675
1077,9320525,0.8160581,-0.017568,-0.432612,-26.4075,-20.475,13.8425
1078,9320623,0.783972,-0.01708,-0.40016,-24.6225,-20.79,1.645
1079,9320721,0.787266,-0.040748,-0.363072,-23.38,-21.315,-4.3925
1080,9320819,0.7721380999999999,-0.015372,-0.319884,-23.38,-20.1775,-11.2
1081,9320917,0.7407841,0.053924,-0.296216,-21.8575,-17.5875,-17.535
1082,9321015,0.686616,0.116998,-0.27205999999999997,-17.675,-15.2775,-22.26
1083,9321113,0.60939,0.193614,-0.25925,-12.8975,-14.8925,-26.4425
1084,9321211,0.550342,0.254492,-0.25058800000000003,-7.035,-16.835,-29.8025
1085,9321309,0.558638,0.2867,-0.24644000000000002,-0.4375,-18.97,-30.7125
1086,9321406,0.58804,0.312076,-0.23826599999999998,6.1075,-20.895,-31.395
1087,9321504,0.593286,0.294508,-0.22935999999999998,13.2825,-22.4175,-28.875
1088,9321602,0.582916,0.268766,-0.214964,21.6475,-22.225,-27.72
1089,9321700,0.5814520000000001,0.22862800000000003,-0.195322,28.385,-21.525,-27.0375
1090,9321798,0.584746,0.182756,-0.183976,33.32,-21.3675,-26.3725
1091,9321896,0.612196,0.133956,-0.16775,37.59,-20.0375,-25.935
1092,9321994,0.6430621,0.067832,-0.151036,41.3525,-16.8525,-22.9775
1093,9322092,0.665266,0.002806,-0.121146,43.8725,-11.515,-17.5175
1094,9322190,0.6777101,-0.051118000000000004,-0.08064199,46.3575,-5.705,-12.32
1095,9322288,0.680638,-0.11577799999999999,-0.06380599999999999,46.585,-0.9275,-8.5575
1096,9322386,0.668926,-0.11248399999999999,-0.038308,46.8825,-0.4725,-6.2825
1097,9322483,0.658922,-0.11053199999999999,-0.021472,47.7925,1.3125,-0.945
1098,9322581,0.6954,-0.089426,-0.00793,48.405,3.64,3.115
1099,9322679,0.746274,-0.032695999999999996,-0.02623,46.795,3.675,6.615
1100,9322777,0.770918,0.015616,-0.02501,46.27,3.745,9.87
1101,9322875,0.796416,0.058072000000000006,-0.012688,46.025,4.935,11.8125
1102,9322973,0.8433860999999999,0.048068,-0.053191999999999996,46.0075,8.1725,12.495
1103,9323071,0.9118280000000001,-0.059536,-0.114924,47.2325,10.115,12.6
1104,9323169,0.9900300999999999,-0.21289,-0.18141400000000002,44.3975,4.935,10.3075
1105,9323267,0.98759,-0.272548,-0.331108,30.205,-4.1125,5.2325
1106,9323365,0.9465981,-0.22582199999999997,-0.2135,6.4925,-1.05,0.035
1107,9323463,0.812886,-0.16287000000000001,0.007442,-19.565,25.655,1.9075
1108,9323561,0.664168,-0.36722,0.084912,-36.1725,40.845,2.5025
1109,9323658,0.683932,-0.6307401,0.156404,-40.215,28.315,-5.005
1110,9323756,0.9418401,-0.417728,0.02928,-46.6375,0.3675,-28.98
1111,9323854,1.203286,-0.073688,-0.15237799999999999,-52.675,-24.0275,-47.8275
1112,9323952,1.532442,0.159576,-0.209352,-42.21,-26.53,-65.1
1113,9324050,1.7730259999999998,0.45871999999999996,-0.27571999999999997,-23.8,-9.38,-87.045
1114,9324148,1.8264619999999998,0.635254,-0.404064,-4.235,14.84,-95.655
1115,9324246,1.7908380000000002,0.555588,-0.644404,-12.6,27.195,-85.33
1116,9324344,1.72935,0.187392,-0.94245,-43.6275,37.485,-67.8475
1117,9324442,1.61162,-0.34465,-0.8282579999999999,-60.0075,55.7725,-45.2725
1118,9324540,1.276242,-0.676124,-0.401502,-43.0675,42.9625,-29.225
1119,9324638,1.0384639999999998,-0.25961599999999996,-0.595604,-48.1775,-11.9,-42.6825
1120,9324736,0.8403360000000001,0.08893801,-0.8396040000000001,-52.2025,-36.5575,-37.6775
1121,9324834,0.9264680000000001,0.181292,-0.861442,-30.38,-24.9725,-22.4875
1122,9324931,1.1869379999999998,0.20691199999999998,-0.8810841,-14.805,-31.815,-28.665
1123,9325029,1.339194,0.112972,-0.7975140000000001,-5.53,-39.025,-35.315
1124,9325127,1.408978,0.093696,-0.7178479999999999,2.835,-47.5825,-39.725
1125,9325225,1.429718,0.155672,-0.72651,7.63,-50.225,-44.3975
1126,9325323,1.388482,0.080398,-0.710284,13.0725,-46.41,-42.245
1127,9325421,1.28954,0.067588,-0.636718,12.81,-35.7525,-41.0725
1128,9325519,1.1660760000000001,0.16201600000000002,-0.611464,11.515,-30.9575,-41.58
1129,9325617,1.009306,0.198982,-0.5769380999999999,12.18,-30.415,-32.585
1130,9325715,0.866078,0.15201199999999998,-0.508862,13.0725,-28.945,-20.0725
1131,9325813,0.813984,0.097966,-0.501908,13.4575,-27.44,-10.885
1132,9325911,0.826916,0.08479,-0.47946000000000005,13.8075,-25.76,-5.81
1133,9326009,0.8458261,0.07625,-0.438712,14.7,-22.295,-1.68
1134,9326107,0.81984,0.05795,-0.40577199999999997,15.855,-19.7925,3.1325
1135,9326204,0.781776,0.016714,-0.36356,17.78,-19.1625,10.5
1136,9326302,0.7169939999999999,-0.0427,-0.327204,19.2325,-18.6025,17.92
1137,9326400,0.65758,-0.11358199999999999,-0.28328400000000004,19.4425,-18.13,23.135
1138,9326498,0.595116,-0.17836400000000002,-0.247538,17.29,-16.6425,26.6
1139,9326596,0.542656,-0.211914,-0.219478,13.8075,-14.4375,28.35
1140,9326694,0.509716,-0.225944,-0.20288599999999998,9.205,-11.7775,28.9275
1141,9326792,0.511668,-0.20642399999999997,-0.183976,3.3425,-9.31,30.5375
1142,9326890,0.520574,-0.180804,-0.167872,-3.22,-5.915,32.97
1143,9326988,0.53009,-0.17519200000000001,-0.17873,-8.925,-0.9975,32.0075
1144,9327086,0.5165481,-0.158844,-0.188246,-14.665,2.695,28.6825
1145,9327184,0.49837,-0.10321199999999998,-0.189222,-18.4975,4.9875,25.76
1146,9327282,0.5003221,-0.078446,-0.191296,-20.8775,8.365,18.6725
1147,9327379,0.526918,-0.039162,-0.18287799999999999,-21.49,10.815,9.94
1148,9327477,0.563762,-0.000488,-0.170312,-21.7,10.3775,1.26
1149,9327575,0.60329,0.03782,-0.158966,-19.95,8.19,-7.3675
1150,9327673,0.634522,0.06929600000000001,-0.14396,-17.255,4.025,-13.4925
1151,9327771,0.647576,0.09235399999999999,-0.151524,-15.6275,-1.2425,-18.06
1152,9327869,0.6497721,0.076616,-0.161406,-15.54,-6.3875,-19.0925
1153,9327967,0.647332,0.010736,-0.17507,-17.78,-11.6025,-19.7225
1154,9328065,0.667218,-0.053070000000000006,-0.18470799999999998,-22.1375,-13.9825,-21.4025
1155,9328163,0.694546,-0.11834000000000001,-0.17995,-26.18,-9.4325,-21.7525
1156,9328261,0.7116260999999999,-0.14993800000000002,-0.139568,-30.73,0.735,-21.2975
1157,9328359,0.7269979999999999,-0.138348,-0.076616,-37.2225,13.6675,-20.195
1158,9328457,0.741394,-0.121024,-0.050508,-43.715,22.5225,-18.34
1159,9328555,0.788852,-0.11467999999999999,-0.08625401,-45.7625,22.3475,-14.735
1160,9328652,0.8760819999999999,-0.01464,-0.160552,-47.355,18.2175,-9.205
1161,9328750,1.019798,0.081862,-0.33428,-41.5975,15.12,-2.52
1162,9328848,1.1120299999999999,0.09540401,-0.47458,-26.8625,15.05,5.46
1163,9328946,1.142652,0.08893801,-0.42016800000000004,-16.0125,31.745,4.9875
1164,9329044,1.2341520000000001,0.20984,-0.245952,-7.4375,54.04,-10.5
1165,9329142,1.344562,0.3538,-0.05624199999999999,9.415,56.8925,-22.295
1166,9329240,1.4337440000000001,0.537776,-0.024766,28.035,41.86,-20.195
1167,9329338,1.400316,0.506788,-0.149816,44.275,11.235,-6.475
1168,9329436,1.461438,0.16348,-0.23753400000000002,61.4775,-17.5175,11.8125
1169,9329534,1.633092,0.01037,-0.116998,57.155,-15.785,18.2875
1170,9329632,1.622234,-0.102846,0.047336,35.245,-2.765,24.36
1171,9329729,1.336388,-0.33000999999999997,-0.11760799999999999,10.5525,5.5125,24.2025
1172,9329827,1.280146,-0.400038,-0.49129399999999995,8.925,23.5725,21.8575
1173,9329925,1.417274,-0.24351199999999998,-0.776774,21.945,60.585,23.2225
1174,9330023,1.429352,0.030133999999999998,-0.8100801,35.0525,93.975,28.7
1175,9330121,1.329556,0.46250209999999997,-0.514718,40.1625,92.2075,24.5875
1176,9330219,1.090924,0.589016,-0.454816,43.2075,53.06,26.53
1177,9330317,0.8880380999999999,0.132736,-0.6505041,65.8175,-13.23,40.74
1178,9330415,0.8764481,-0.09991799999999999,-0.6605081,63.4725,-44.94,32.585
1179,9330513,0.9230520000000001,-0.164212,-0.522282,42.8225,-41.02,22.855
1180,9330611,0.9949100000000001,-0.18043800000000002,-0.584014,26.4775,-54.18,20.1425
1181,9330709,1.091412,-0.23058,-0.6753920999999999,8.47,-72.5725,26.5475
1182,9330807,1.168882,-0.330742,-0.70089,-8.5925,-74.55,34.51
1183,9330905,1.2364700000000002,-0.370392,-0.659654,-22.435,-61.635,40.6875
1184,9331002,1.31882,-0.353434,-0.6206141,-32.1825,-45.045,53.41
1185,9331100,1.1977959999999999,-0.257176,-0.58987,-37.94,-31.7975,58.6425
1186,9331198,0.93879,-0.07612801,-0.5551,-40.705,-28.9625,51.555
1187,9331296,0.856684,0.007320001,-0.522404,-39.9,-28.7875,42.2975
1188,9331394,0.8400921,0.001952,-0.469944,-37.6425,-26.95,34.0375
1189,9331492,0.778604,0.006587999999999999,-0.432246,-36.295,-25.2875,22.54
1190,9331590,0.765062,0.00671,-0.401868,-32.305,-23.9575,10.745
1191,9331688,0.7812880999999999,-0.005368,-0.370148,-29.6625,-22.4,1.995
1192,9331786,0.76372,-0.006832001,-0.34038,-28.28,-21.665,-6.1775
1193,9331884,0.7257781,0.04575,-0.306586,-25.5675,-21.4375,-16.205
1194,9331982,0.662704,0.127368,-0.273646,-22.575,-21.5075,-24.045
1195,9332080,0.6240300999999999,0.183122,-0.257054,-18.69,-22.4175,-27.23
1196,9332178,0.583404,0.196664,-0.240706,-14.385,-24.15,-28.0525
1197,9332275,0.554124,0.213988,-0.244,-10.9375,-25.9525,-28.0525
1198,9332373,0.536922,0.20752199999999998,-0.230458,-6.475,-28.1575,-25.8475
1199,9332471,0.555954,0.203252,-0.216916,-3.4475,-29.7325,-22.61
1200,9332569,0.599874,0.180926,-0.204228,-0.735,-30.065,-19.075
1201,9332667,0.637694,0.13639600000000002,-0.199348,2.4675,-27.9825,-16.2575
1202,9332765,0.66368,0.077958,-0.185196,5.6175,-22.715,-14.2625
1203,9332863,0.677222,0.047336,-0.17519200000000001,7.4025,-16.485,-13.125
1204,9332961,0.662582,-0.00183,-0.15945399999999998,9.415,-11.8125,-9.59
1205,9333059,0.643428,-0.008540001,-0.133102,12.285,-7.7175,-5.7225
1206,9333157,0.6311060000000001,-0.018666,-0.11614400000000001,13.8425,-4.235,-0.8225
1207,9333255,0.610122,-0.021838,-0.093696,15.9775,-1.3125,3.0975
1208,9333353,0.610122,-0.005246,-0.079178,16.345,1.9075,5.5475
1209,9333450,0.628666,0.005856,-0.059902,18.27,3.5525,9.205
1210,9333548,0.657092,0.03416,-0.05843801,22.1025,3.01,13.16
1211,9333646,0.705892,0.06466001,-0.070882,24.5525,3.36,17.6225
1212,9333744,0.759572,0.08820599999999999,-0.05977999999999999,26.6875,4.095,21.1575
1213,9333842,0.7865340000000001,0.09930800000000001,-0.045627999999999995,29.015,5.88,23.17
1214,9333940,0.7870221,0.097966,-0.03294,31.71,8.155,23.7125
1215,9334038,0.8260620000000001,0.098332,-0.028792,34.2475,11.06,21.9275
1216,9334136,0.88999,0.081618,-0.152988,33.88,10.92,18.4625
1217,9334234,1.003206,-0.071858,-0.188856,31.4125,5.775,14.5075
1218,9334332,1.044442,-0.261202,-0.32757,29.9775,-2.3975,12.215
1219,9334430,0.9944221,-0.30988000000000004,-0.40748,15.8025,-12.32,7.3675
1220,9334528,0.9267120000000001,-0.205326,-0.082472,-6.4575,1.8375,2.59
1221,9334626,0.729438,-0.189344,0.056852,-27.51,34.02,8.26
1222,9334723,0.658068,-0.50752,0.036112,-38.8325,35.2625,7.84
1223,9334821,0.823256,-0.561932,-0.020130000000000002,-42.2625,10.5175,-8.9775
1224,9334919,1.1285,-0.186904,-0.224846,-48.7025,-12.4075,-33.6175
1225,9335017,1.458998,0.066246,-0.321104,-41.9475,-22.715,-48.0725
1226,9335115,1.7511880000000002,0.338428,-0.29743600000000003,-21.455,-14.945,-71.155
1227,9335213,1.8160919999999998,0.5854779999999999,-0.38918,4.3925,2.065,-87.5
1228,9335311,1.812798,0.5693739999999999,-0.6015821,11.795,18.445,-83.52750999999999
1229,9335409,1.672986,0.24668400000000001,-0.873764,-13.93,27.09,-71.575
1230,9335507,1.539518,-0.21008400000000002,-0.9479401,-44.7125,46.935,-55.0725
1231,9335605,1.3613979999999999,-0.527406,-0.48958599999999997,-36.0675,41.9825,-39.515
1232,9335703,1.1259379999999999,-0.47250600000000004,-0.562908,-31.885,-3.22,-45.85
1233,9335801,0.9620920000000001,-0.089914,-0.855708,-47.95,-35.6825,-49.5425
1234,9335899,0.9480620000000001,0.081496,-0.9032879999999999,-41.895,-29.015,-31.395
1235,9335997,1.122278,0.166408,-0.887916,-21.77,-37.485,-28.2975
1236,9336094,1.263066,0.15921,-0.857294,-16.065,-42.4025,-35.035
1237,9336192,1.278438,0.167994,-0.8086161000000001,-9.5725,-40.985,-39.2
1238,9336290,1.248548,0.21032800000000001,-0.737734,-0.5075,-46.8125,-41.7375
1239,9336388,1.222318,0.175314,-0.7078439999999999,6.9475,-44.9925,-43.5925
1240,9336486,1.202798,0.134444,-0.652944,9.6075,-36.225,-45.01
1241,9336584,1.14924,0.165554,-0.5852341,10.605,-32.76,-45.815
1242,9336682,1.036146,0.182024,-0.535702,11.095,-30.9925,-38.115
1243,9336780,0.913048,0.132736,-0.507642,11.9875,-28.63,-26.215
1244,9336878,0.812276,0.061366,-0.46128199999999997,11.795,-26.2675,-14.9275
1245,9336976,0.768844,0.017568,-0.44371400000000005,11.0425,-24.43,-5.6875
1246,9337074,0.77653,-0.006587999999999999,-0.42602399999999996,8.75,-22.6275,-0.2625
1247,9337172,0.79178,-0.010736,-0.406016,6.0725,-19.18,2.4675
1248,9337270,0.7704300000000001,-0.017934000000000002,-0.385276,5.11,-15.1025,6.1075
1249,9337368,0.7324881,-0.034038,-0.359046,4.585,-13.265,12.3725
1250,9337465,0.6864941,-0.057462,-0.33623200000000003,4.06,-13.475,19.1625
1251,9337563,0.64904,-0.11650999999999999,-0.309026,2.9575,-13.3,26.7925
1252,9337661,0.59963,-0.157502,-0.28426,0.175,-12.5125,30.695
1253,9337759,0.56547,-0.184098,-0.257054,-4.0075,-11.8125,33.6875
1254,9337857,0.5703501,-0.23009200000000002,-0.233264,-8.0325,-9.6775,35.0
1255,9337955,0.545462,-0.253882,-0.213378,-13.3525,-5.775,35.0
1256,9338053,0.5565640000000001,-0.24107199999999998,-0.20374,-19.495,-1.2775,33.985
1257,9338151,0.565714,-0.193126,-0.200812,-25.165,2.2925,34.125
1258,9338249,0.5743761,-0.156038,-0.19702999999999998,-29.225,4.725,34.09
1259,9338347,0.596214,-0.115168,-0.199226,-32.725,7.665,29.8025
1260,9338445,0.619394,-0.07344400000000001,-0.185318,-35.1575,10.43,22.33
1261,9338543,0.63135,-0.039772,-0.174216,-34.3525,11.9,14.28
1262,9338640,0.639524,0.005002,-0.177876,-32.375,12.11,4.025
1263,9338738,0.638548,0.05063,-0.18068199999999998,-29.9425,10.9725,-4.34
1264,9338836,0.6378159999999999,0.07381001,-0.182024,-26.8975,8.6975,-10.7975
1265,9338934,0.630374,0.082106,-0.198494,-25.69,4.69,-14.8225
1266,9339032,0.640256,0.060877999999999995,-0.204228,-25.4275,-0.9625,-17.2375
1267,9339130,0.64965,0.023180000000000003,-0.211182,-26.355,-5.845,-18.48
1268,9339228,0.6674621000000001,-0.013175999999999998,-0.205936,-30.2225,-7.5075,-20.545
1269,9339326,0.6943020000000001,-0.029158,-0.167994,-34.1425,-4.97,-21.14
1270,9339424,0.73139,-0.050142,-0.137006,-36.2425,-1.05,-20.5975
1271,9339522,0.772382,-0.049898000000000005,-0.09259801,-35.805,5.2325,-17.3425
1272,9339620,0.8053220999999999,-0.009637999999999999,-0.066124,-34.545,13.5275,-13.58
1273,9339718,0.809714,0.05246,-0.091744,-30.415,17.4825,-9.7825
1274,9339815,0.8629061,0.130662,-0.169214,-22.6975,19.11,-5.3025
1275,9339913,0.9691681000000001,0.240218,-0.239486,-14.91,23.9225,-2.415
1276,9340011,1.091412,0.29902199999999995,-0.37551599999999996,-6.125,30.3625,-2.3275
1277,9340109,1.1747379999999998,0.312198,-0.4514,5.355,33.67,-4.69
1278,9340207,1.2579420000000001,0.310002,-0.398818,13.1775,36.925,-13.58
1279,9340305,1.3316299999999999,0.229116,-0.163236,18.2,37.1525,-23.4675
1280,9340403,1.2669700000000002,0.18141400000000002,-0.004392,20.09,32.2875,-27.93
1281,9340501,1.170712,0.269864,0.026108,27.2825,16.2925,-28.77
1282,9340599,1.2225620000000001,0.15372,-0.17263,31.85,-1.155,-20.2825
1283,9340697,1.483154,0.056974000000000004,-0.17738800000000002,36.015,-16.9575,-9.695
1284,9340795,1.6394360000000001,-0.05160601,-0.04148,17.955,-22.0675,4.795
1285,9340893,1.5494,-0.36941599999999997,-0.040138,-5.67,-10.3075,25.3925
1286,9340991,1.4518,-0.58255,-0.363804,-21.14,12.5825,38.675
1287,9341088,1.4064159999999999,-0.495076,-0.69784,-19.67,41.3175,40.7225
1288,9341186,1.462048,-0.18995399999999998,-0.931348,-7.0175,71.575,39.3225
1289,9341284,1.5738,0.281454,-0.764696,4.5325,87.22,30.1875
1290,9341382,1.408002,0.8260620000000001,-0.59109,0.945,70.14,17.5175
1291,9341480,0.9470860000000001,0.738344,-0.604876,25.1825,21.0525,28.175
1292,9341578,0.6851520999999999,0.20776599999999998,-0.6124400999999999,59.2725,-33.53,38.0275
1293,9341676,0.672708,-0.002928,-0.5602239999999999,45.1325,-48.1075,20.405
1294,9341774,0.742858,-0.061975999999999996,-0.536434,30.8175,-57.8375,12.915
1295,9341872,0.9053620000000001,-0.15189,-0.59353,17.9375,-76.8425,18.725
1296,9341970,1.0828719999999998,-0.30548800000000004,-0.630252,2.835,-79.73001,31.1675
1297,9342068,1.287344,-0.45554799999999995,-0.6362300000000001,-10.5175,-65.1875,42.665
1298,9342165,1.366034,-0.577304,-0.55266,-20.265,-39.97,51.345
1299,9342263,1.137406,-0.503128,-0.5158159999999999,-27.7725,-23.1875,52.7275
1300,9342361,0.9267120000000001,-0.21166999999999997,-0.546072,-30.3625,-22.015,41.0725
1301,9342459,0.842166,0.018666,-0.518988,-31.43,-18.13,33.2675
1302,9342557,0.789828,0.08954801,-0.46543,-28.455,-15.1725,28.9275
1303,9342655,0.7401741,0.138348,-0.44115200000000004,-24.78,-16.8175,19.215
1304,9342753,0.717726,0.13761600000000002,-0.41785,-20.545,-18.7775,7.7525
1305,9342851,0.744444,0.08174001,-0.399062,-16.7475,-18.9875,-3.0975
1306,9342949,0.785558,0.039162,-0.378932,-14.7175,-18.585,-11.445
1307,9343047,0.755912,-0.0035380000000000003,-0.35746,-13.65,-18.3575,-15.785
1308,9343145,0.699548,-0.019642,-0.33305999999999997,-12.495,-18.97,-19.495
1309,9343242,0.665876,0.003904,-0.318786,-12.705,-19.46,-22.855
1310,9343340,0.639402,0.053436000000000004,-0.29707,-10.9375,-20.055,-26.075
1311,9343438,0.622322,0.12163399999999999,-0.282674,-8.3125,-20.4925,-27.8075
1312,9343536,0.618052,0.18324400000000002,-0.268156,-5.0925,-19.4075,-29.015
1313,9343634,0.61854,0.23460599999999998,-0.256444,-1.365,-18.935,-29.225
1314,9343732,0.624762,0.252418,-0.24997800000000003,3.57,-19.5125,-27.195
1315,9343830,0.63989,0.23485,-0.24034,9.135,-19.355,-23.8
1316,9343928,0.6603859999999999,0.17616800000000002,-0.237168,13.86,-18.0075,-19.95
1317,9344026,0.6679501,0.109556,-0.21618400000000002,18.095,-15.1725,-17.29
1318,9344124,0.6802720999999999,0.05002,-0.19947,20.965,-11.2525,-14.245
1319,9344222,0.6980841,-0.0061,-0.177754,24.535,-7.3325,-12.285
1320,9344319,0.6952781,-0.031476,-0.14871800000000002,25.48,-3.8325,-9.73
1321,9344417,0.688446,-0.05185,-0.122732,25.865,-1.2425,-6.1425
1322,9344515,0.690764,-0.08527801,-0.11211800000000001,25.4625,0.245,-1.47
1323,9344613,0.690642,-0.07332201,-0.10418800000000002,26.6875,-1.995,1.05
1324,9344711,0.714066,-0.05002,-0.089426,29.015,-4.725,5.4075
1325,9344809,0.76067,-0.013908000000000002,-0.074298,31.0625,-6.4225,10.5875
1326,9344907,0.796172,0.008540001,-0.05795,33.3375,-8.26,15.365
1327,9345005,0.8160581,0.026474,-0.05429,36.0675,-8.855,18.8825
1328,9345103,0.8165460999999999,0.053801999999999996,-0.057584,37.4325,-6.9125,20.7025
1329,9345201,0.8148380000000001,0.07137001,-0.05648601,34.0725,-1.96,18.8825
1330,9345299,0.788852,0.032330000000000005,-0.08064199,32.48,3.7275,15.5925
1331,9345397,0.805932,-0.06039,-0.101016,29.2425,8.5925,11.6025
1332,9345495,0.8430200999999999,-0.197762,-0.185806,25.13,11.7075,7.315
1333,9345592,0.8781559999999999,-0.30988000000000004,-0.373076,14.6475,9.1,3.535
1334,9345690,0.9076799999999999,-0.332816,-0.400648,-6.685,6.23,-1.2775
1335,9345788,0.889258,-0.24461,-0.110654,-25.6025,20.0725,-2.38
1336,9345886,0.7248020000000001,-0.229238,0.07246799999999999,-32.8475,37.135,3.64
1337,9345984,0.6539201,-0.41053,0.040992,-29.785,28.56,6.7375
1338,9346082,0.870714,-0.287554,-0.13237000000000002,-29.0325,-1.05,-1.2075
1339,9346180,1.176568,-0.060146000000000005,-0.359046,-37.9225,-22.435,-14.8225
1340,9346278,1.480104,0.055754,-0.447374,-27.79,-18.515,-33.215
1341,9346376,1.702754,0.369172,-0.39784200000000003,-4.4625,-1.2425,-65.0125
1342,9346474,1.7355720000000001,0.576084,-0.46201400000000004,10.115,13.9475,-87.115
1343,9346572,1.688114,0.467138,-0.619028,0.7525,22.715,-89.7575
1344,9346670,1.6862840000000001,0.030866,-0.796904,-23.7475,40.4425,-72.9575
1345,9346768,1.586366,-0.60634,-0.494954,-28.3675,43.435,-43.33
1346,9346866,1.184864,-0.5917,-0.27084,-22.4,13.72,-44.66
1347,9346964,1.074454,0.020008,-0.6679501,-34.3875,-32.6725,-58.7825
1348,9347061,1.036268,0.18141400000000002,-0.8476561,-35.525,-32.27,-42.245
1349,9347159,1.119106,0.200812,-0.9028,-29.5925,-15.6975,-29.6275
1350,9347257,1.218292,0.158844,-0.857294,-18.27,-12.3725,-28.8575
1351,9347355,1.1544860000000001,0.049044,-0.789706,-7.77,-21.4375,-24.5
1352,9347453,1.106662,-0.015006,-0.749202,-0.1225,-32.0425,-20.86
1353,9347551,1.15229,-0.025986000000000002,-0.703086,5.8625,-37.9225,-23.8175
1354,9347649,1.188158,0.03477,-0.675026,8.75,-35.07,-33.3725
1355,9347747,1.1636360000000001,0.14457,-0.614392,11.2175,-32.305,-42.455
1356,9347845,1.112152,0.208986,-0.56181,12.6875,-29.225,-44.2575
1357,9347943,1.016626,0.206058,-0.525576,14.49,-25.235,-38.4825
1358,9348041,0.9178061,0.155916,-0.5038600000000001,15.5575,-22.575,-29.9075
1359,9348139,0.856806,0.097478,-0.465674,15.1375,-23.2925,-19.67
1360,9348237,0.8409459999999999,0.037332,-0.43236800000000003,13.86,-23.0125,-11.5675
1361,9348335,0.83814,-0.002928,-0.42822,9.905,-22.54,-6.58
1362,9348433,0.8428979999999999,-0.035624,-0.41504399999999997,5.6,-19.95,-2.9925
1363,9348531,0.828624,-0.08527801,-0.40381999999999996,2.5025,-16.24,2.17
1364,9348629,0.780434,-0.136518,-0.38186,0.5425,-13.44,10.15
1365,9348726,0.7241920000000001,-0.160552,-0.359168,-1.8725,-11.305,18.41
1366,9348824,0.6724640000000001,-0.16775,-0.327936,-3.8675,-9.8875,24.7975
1367,9348922,0.623054,-0.175924,-0.30475599999999997,-6.7375,-8.75,29.6625
1368,9349020,0.5988979999999999,-0.177266,-0.276818,-10.1325,-7.9275,32.34
1369,9349118,0.588406,-0.171776,-0.25925,-14.1225,-6.9125,33.7575
1370,9349216,0.59658,-0.158478,-0.246196,-17.885,-5.4775,34.3525
1371,9349314,0.6080479999999999,-0.155672,-0.240706,-22.015,-2.73,34.4225
1372,9349412,0.6228100000000001,-0.132004,-0.233996,-26.075,0.9275,31.0625
1373,9349510,0.6229319999999999,-0.09320801,-0.222162,-30.24,3.9025,28.21
1374,9349608,0.624274,-0.044286,-0.217038,-32.375,6.16,23.345
1375,9349706,0.625738,0.0,-0.205814,-33.6525,7.9625,17.01
1376,9349804,0.633668,0.028792,-0.194468,-32.375,9.0125,11.0425
1377,9349902,0.6420859999999999,0.031232,-0.18605,-29.5925,9.17,4.725
1378,9350000,0.654896,0.046726,-0.18361,-25.69,8.715,-2.2925
1379,9350098,0.6646561,0.08405800000000001,-0.173484,-21.665,7.805,-8.1725
1380,9350196,0.6753920999999999,0.095038,-0.160308,-16.5025,5.985,-11.7075
1381,9350293,0.6821020000000001,0.104432,-0.16835999999999998,-11.3575,2.94,-16.24
1382,9350391,0.6836880999999999,0.09906401,-0.175558,-8.05,-0.0525,-19.11
1383,9350489,0.6946681,0.07076001,-0.176656,-5.7575,-2.7825,-21.42
1384,9350587,0.7165060000000001,0.043554,-0.171166,-5.8275,-5.3725,-23.7475
1385,9350685,0.7237041,0.018788,-0.16689600000000002,-7.1225,-6.8075,-24.4825
1386,9350783,0.729804,-0.019032,-0.161772,-8.9075,-5.0575,-24.885
1387,9350881,0.7537159999999999,-0.09442801,-0.1281,-9.9575,0.525,-24.0275
1388,9350979,0.7747001,-0.13115,-0.118218,-11.375,7.6825,-20.4225
1389,9351077,0.794952,-0.136518,-0.141764,-10.7975,11.06,-16.59
1390,9351175,0.885842,-0.058072000000000006,-0.19702999999999998,-7.945,12.845,-13.02
1391,9351273,0.999302,0.082838,-0.261446,-6.895,16.3625,-11.83
1392,9351371,1.102148,0.228262,-0.335744,-3.815,24.57,-9.6075
1393,9351469,1.198772,0.269498,-0.365268,2.03,34.615,-8.505
1394,9351567,1.268312,0.24424400000000002,-0.27828200000000003,10.7975,39.97,-17.22
1395,9351665,1.3144280000000002,0.195322,-0.08417999999999999,18.69,38.9725,-24.325
1396,9351763,1.253428,0.223748,0.017202000000000002,24.395,27.545,-23.17
1397,9351861,1.1805940000000001,0.224846,-0.08527801,31.85,7.8225,-15.645
1398,9351958,1.268556,-0.0034159999999999998,-0.139812,33.0575,-5.5125,-2.8
1399,9352056,1.4909620000000001,-0.02623,-0.095282,23.415,-7.98,3.955
1400,9352154,1.5512299999999999,-0.147376,-0.050263999999999996,1.4525,-10.7625,13.4925
1401,9352252,1.4629020000000001,-0.42065600000000003,-0.23741199999999998,-20.4575,-0.7875,30.6425
1402,9352350,1.464732,-0.50813,-0.49605200000000005,-30.9575,23.94,42.245
1403,9352448,1.4391120000000002,-0.37685799999999997,-0.700036,-23.905,53.27,49.07
1404,9352546,1.4509459999999998,-0.08308201,-0.798002,-5.355,70.5775,42.2975
1405,9352644,1.4957200000000002,0.426634,-0.6219561,1.5925,67.7425,24.4475
1406,9352742,1.309304,0.77653,-0.482998,2.7475,40.3375,18.725
1407,9352840,0.847412,0.36941599999999997,-0.48824399999999996,30.135,-8.26,32.2875
1408,9352938,0.690398,0.048312,-0.595238,43.575,-42.1575,25.7075
1409,9353036,0.728096,-0.09552601,-0.580842,23.065,-50.295,13.65
1410,9353134,0.827892,-0.13542,-0.6137819999999999,11.1825,-56.035,12.3025
1411,9353232,0.981124,-0.139934,-0.60329,-3.5,-62.79,15.5925
1412,9353329,1.115324,-0.19702999999999998,-0.6228100000000001,-18.025,-62.3525,27.825
1413,9353427,1.27368,-0.320006,-0.62464,-22.9075,-54.3375,42.4025
1414,9353525,1.26636,-0.35465399999999997,-0.546438,-27.7375,-37.31,51.0475
1415,9353623,1.0826280000000001,-0.239608,-0.5288701,-30.625,-24.4825,50.225
1416,9353721,0.91195,-0.085888,-0.525332,-28.595,-21.6125,43.3125
1417,9353819,0.82411,-0.019032,-0.48678,-25.585,-19.1275,34.2475
1418,9353917,0.7672581,0.026474,-0.46176999999999996,-22.2425,-17.29,25.235
1419,9354015,0.7348060000000001,0.067832,-0.44225,-18.2,-16.6775,14.4025
1420,9354113,0.751642,0.05819401,-0.419314,-14.07,-15.7675,2.9925
1421,9354211,0.785192,0.04148,-0.399916,-11.725,-14.3675,-7.245
1422,9354309,0.7755541,0.011956,-0.378932,-10.325,-13.965,-14.0
1423,9354406,0.732244,0.00793,-0.356484,-8.82,-14.7525,-20.02
1424,9354504,0.7067460999999999,0.028304000000000003,-0.3355,-8.365,-15.715,-24.9025
1425,9354602,0.696376,0.07307801,-0.31049,-6.86,-16.6075,-29.225
1426,9354700,0.68381,0.12871,-0.28486999999999996,-3.955,-17.2375,-31.675
1427,9354798,0.6720981,0.158112,-0.266326,-0.1575,-17.5175,-32.8825
1428,9354896,0.6634359999999999,0.17519200000000001,-0.24802600000000002,3.92,-17.0975,-32.795
1429,9354994,0.661606,0.19702999999999998,-0.240096,7.5075,-16.73,-31.22
1430,9355092,0.6653880999999999,0.196176,-0.228384,11.83,-16.1875,-28.7175
1431,9355190,0.672708,0.177754,-0.22472399999999998,15.8725,-15.05,-24.99
1432,9355288,0.675148,0.124074,-0.212036,19.705,-13.195,-21.315
1433,9355386,0.6828341,0.06490399999999999,-0.198494,23.0825,-9.6075,-18.2875
1434,9355483,0.696986,0.01098,-0.176046,25.62,-5.0225,-15.4175
1435,9355581,0.6994260999999999,-0.022082,-0.148596,26.7925,-0.2975,-12.9675
1436,9355679,0.703574,-0.048068,-0.134932,25.6375,3.115,-9.45
1437,9355777,0.70089,-0.06124401,-0.11626600000000001,26.4425,5.3375,-5.6525
1438,9355875,0.6855180000000001,-0.06661201,-0.1159,27.3525,5.18,-0.7
1439,9355973,0.6821020000000001,-0.06588,-0.111142,28.2275,4.8125,3.92
1440,9356071,0.7046720999999999,-0.044774,-0.09991799999999999,29.855,3.465,7.875
1441,9356169,0.7374901,-0.016104,-0.09150001,32.0075,1.54,12.39
1442,9356267,0.772504,0.009272001,-0.083936,34.475,0.315,16.2225
1443,9356365,0.7984899999999999,0.047092,-0.09479401,35.5075,1.19,18.13
1444,9356463,0.841556,0.09821001,-0.070882,34.5975,3.3775,18.3575
1445,9356560,0.8853540000000001,0.101748,-0.07503,31.2375,7.28,16.5025
1446,9356658,0.892064,0.027938,-0.07881200000000001,30.905,11.165,14.7175
1447,9356756,0.9036540000000001,-0.09247601,-0.10638399999999999,29.7325,11.76,12.915
1448,9356854,0.925736,-0.21801399999999999,-0.20752199999999998,25.0775,7.4725,9.905
1449,9356952,0.916342,-0.270108,-0.38369000000000003,11.795,-0.6125,4.5675
1450,9357050,0.940254,-0.280844,-0.3355,-10.6575,-2.835,-1.155
1451,9357148,0.86803,-0.23973000000000003,-0.0671,-28.84,12.5475,-0.1575
1452,9357246,0.751154,-0.24631799999999998,0.051118000000000004,-35.7525,30.3625,-0.0525
1453,9357344,0.73932,-0.38661799999999996,-0.02684,-32.8475,24.8675,-4.83
1454,9357442,0.9716081,-0.22167399999999998,-0.09711201,-36.96,-0.2275,-18.5325
1455,9357540,1.212314,0.012322,-0.21106,-42.6125,-16.275,-30.8175
1456,9357637,1.410198,0.21228000000000002,-0.284504,-26.6175,-13.8775,-44.9225
1457,9357735,1.5462280000000002,0.45457200000000003,-0.294508,-5.88,0.9625,-67.0075
1458,9357833,1.4631459999999998,0.516304,-0.31646799999999997,10.395,15.785,-82.67
1459,9357931,1.396168,0.41785,-0.5165481,4.2875,28.9975,-87.7625
1460,9358029,1.419958,0.137372,-0.7567659999999999,-15.3125,41.5625,-79.905
1461,9358127,1.605032,-0.418338,-0.540582,-15.6275,41.8425,-59.5525
1462,9358225,1.3668879999999999,-0.599264,-0.31842,-3.57,15.8375,-52.045
1463,9358323,1.23769,-0.09125599999999999,-0.596092,-7.0,-21.5075,-65.1175
1464,9358421,1.143262,0.119316,-0.738954,-7.3675,-28.4725,-56.805
1465,9358519,1.062254,0.23155599999999998,-0.81862,-1.1725,-16.2925,-41.6675
1466,9358617,1.102026,0.180926,-0.824232,9.94,-12.7225,-36.75
1467,9358714,1.123132,0.035746,-0.7984899999999999,20.405,-16.835,-31.2725
1468,9358812,1.095072,-0.064172,-0.7245581,27.2475,-27.23,-32.69
1469,9358910,1.121668,-0.123464,-0.6954,30.8875,-34.8075,-37.3275
1470,9359008,1.199382,-0.1403,-0.68015,31.0275,-37.905,-45.64
1471,9359106,1.212314,-0.089304,-0.630984,30.9575,-34.8425,-54.5475
1472,9359204,1.161562,0.020862000000000002,-0.587674,28.91,-30.73,-57.715
1473,9359302,1.1039780000000001,0.09735601,-0.564006,25.865,-24.8675,-53.305
1474,9359400,1.0187,0.155306,-0.527406,25.8475,-19.705,-43.8375
1475,9359498,0.9446460999999999,0.15945399999999998,-0.498126,26.6525,-19.2675,-33.565
1476,9359596,0.8797421000000001,0.112972,-0.44810600000000006,28.8575,-19.1275,-24.64
1477,9359694,0.8703481,0.063196,-0.42468199999999995,29.82,-18.6725,-18.7775
1478,9359791,0.8847440999999999,0.013786000000000001,-0.40662600000000004,29.365,-19.0575,-14.735
1479,9359889,0.8960899999999999,-0.026108,-0.39723200000000003,27.1775,-16.0825,-10.535
1480,9359987,0.8554641,-0.066856,-0.382226,25.0425,-12.0575,-4.69
1481,9360085,0.7895840999999999,-0.095648,-0.366122,23.3975,-10.465,2.275
1482,9360183,0.741272,-0.116754,-0.343186,22.19,-9.9575,7.3325
1483,9360281,0.697596,-0.10919000000000001,-0.320616,20.3875,-9.52,10.115
1484,9360379,0.6729520999999999,-0.11053199999999999,-0.294142,18.3925,-8.96,12.0925
1485,9360477,0.6588,-0.1159,-0.265106,16.345,-7.8925,12.6875
1486,9360575,0.68137,-0.11614400000000001,-0.24558600000000003,14.035,-6.4925,12.1625
1487,9360673,0.6916180000000001,-0.10797000000000001,-0.23301999999999998,11.3225,-3.9725,11.48
1488,9360770,0.680516,-0.115168,-0.22021,9.5025,-1.05,10.5175
1489,9360868,0.6586781,-0.09272000000000001,-0.21313400000000002,6.9825,0.98,9.1175
1490,9360966,0.6533100000000001,-0.07283401,-0.21581799999999998,4.1475,3.6225,6.7025
1491,9361064,0.6530661,-0.041968,-0.20556999999999997,3.3425,6.2825,2.4325
1492,9361162,0.6466,0.006587999999999999,-0.19459,2.87,8.5575,-3.815
1493,9361260,0.641598,0.037576,-0.17873,3.9375,9.7475,-9.905
1494,9361358,0.640744,0.054167999999999994,-0.163724,6.6325,9.03,-13.58
1495,9361456,0.65514,0.057218,-0.152988,9.4675,7.315,-17.5525
1496,9361554,0.673806,0.05917000000000001,-0.14566800000000002,12.6875,6.3175,-21.9275
1497,9361652,0.68015,0.052216,-0.116022,16.2225,5.355,-24.71
1498,9361749,0.67466,0.038674,-0.108946,19.145,4.3225,-27.895
1499,9361847,0.686616,0.023790000000000002,-0.10858,21.175,3.255,-30.835
1500,9361945,0.715896,0.008174001,-0.11333800000000001,22.0325,1.225,-33.4075
1501,9362043,0.739564,-0.004514,-0.121024,21.3675,-1.015,-35.21
1502,9362141,0.7409060000000001,-0.040504000000000005,-0.127246,19.915,-1.6625,-36.5225
1503,9362239,0.7378560000000001,-0.067832,-0.136274,16.8875,0.9625,-35.8225
1504,9362337,0.758596,-0.103578,-0.120902,12.9675,4.655,-35.9975
1505,9362435,0.7801899999999999,-0.12895399999999999,-0.115656,8.5225,6.8775,-35.4375
1506,9362533,0.8471681000000001,-0.139202,-0.188978,6.58,6.4925,-34.4575
1507,9362630,0.9121940999999999,-0.112606,-0.284748,8.435,2.835,-34.5625
1508,9362728,1.013332,0.012931999999999999,-0.33000999999999997,10.5,4.0775,-33.145
1509,9362826,1.123132,0.199348,-0.399794,12.355,13.79,-33.67
1510,9362924,1.230126,0.305732,-0.43053800000000003,14.49,25.375,-34.58
1511,9363022,1.263798,0.29219,-0.268522,18.4625,35.0525,-36.0675
1512,9363120,1.187182,0.302804,-0.05648601,28.665,40.1975,-43.9775
1513,9363218,1.078968,0.42187600000000003,-0.012444,46.06,24.9375,-42.49
1514,9363316,1.0147959999999998,0.23228800000000002,-0.07259,58.24,-7.42,-25.095
1515,9363414,1.13765,0.040504000000000005,-0.1403,58.66,-29.89,-18.83
1516,9363511,1.32187,-0.01342,-0.107482,46.2875,-34.4575,-18.55
1517,9363609,1.423374,-0.21166999999999997,-0.040138,28.91,-23.7125,-8.6975
1518,9363707,1.4082459999999999,-0.42736599999999997,-0.044774,1.1375,1.19,1.9775
1519,9363805,1.3603,-0.43724799999999997,-0.293288,-15.9775,29.12,3.6225
1520,9363903,1.4217879999999998,-0.23253200000000002,-0.5636399999999999,-7.5425,51.065,8.855
1521,9364001,1.520974,0.046116000000000004,-0.709918,5.46,67.865,26.285
1522,9364099,1.4818120000000001,0.22753,-0.689178,18.1475,77.8575,38.1675
1523,9364197,1.427522,0.50874,-0.5655920999999999,26.9325,64.4525,26.915
1524,9364295,1.133624,0.570472,-0.552538,47.3025,24.9375,20.825
1525,9364392,0.7793359999999999,0.23216599999999998,-0.6289100000000001,77.2975,-19.6875,20.58
1526,9364490,0.653554,0.009150001,-0.571204,82.32,-37.415,6.2125
1527,9364588,0.652334,-0.076738,-0.5288701,72.24,-49.6125,-4.7775
1528,9364686,0.786046,-0.17214200000000002,-0.577426,62.8425,-71.99501,-1.89
1529,9364784,0.9974719999999999,-0.29292199999999996,-0.665266,49.2975,-86.695,9.59
1530,9364882,1.229882,-0.40577199999999997,-0.656848,35.8225,-74.6725,22.085
1531,9364980,1.2425700000000002,-0.388814,-0.58682,23.0475,-46.935,27.65
1532,9365078,1.070184,-0.256932,-0.576084,19.005,-29.505,24.7975
1533,9365176,0.939766,-0.05941401,-0.560834,21.98,-21.77,16.5375
1534,9365273,0.8930401,0.079178,-0.541802,24.535,-15.89,9.8525
1535,9365371,0.904874,0.157868,-0.48836599999999997,31.5875,-15.3825,0.6125
1536,9365469,0.8730319999999999,0.221552,-0.446642,38.99,-19.11,-13.86
1537,9365567,0.818742,0.206668,-0.43798000000000004,47.8275,-21.1925,-28.6475
1538,9365665,0.791658,0.16348,-0.42724399999999996,55.16,-21.455,-40.39
1539,9365763,0.776896,0.11345999999999999,-0.41846000000000005,60.0075,-20.9825,-49.2275
1540,9365861,0.7707961,0.08503401,-0.40272199999999997,63.63,-21.3675,-55.4575
1541,9365959,0.803858,0.091012,-0.391864,64.26,-21.21,-59.85
1542,9366057,0.847412,0.128588,-0.37393000000000004,65.7125,-22.4,-61.5125
1543,9366154,0.84729,0.197884,-0.35075,69.3525,-25.095,-61.5475
1544,9366252,0.8289901,0.267912,-0.336598,75.28501,-26.705,-62.7725
1545,9366350,0.8145941,0.318786,-0.32561799999999996,81.77750999999999,-27.44,-63.56
1546,9366448,0.8003201,0.310856,-0.312686,88.53251,-30.5025,-62.1775
1547,9366546,0.8020281,0.266326,-0.30439,95.3575,-32.8125,-62.5275
1548,9366644,0.8141060999999999,0.200324,-0.30439,100.17,-34.3875,-62.3875
1549,9366742,0.8215481,0.12566,-0.290604,104.1775,-35.7875,-63.56
1550,9366840,0.805932,0.063684,-0.286456,107.2225,-36.3475,-64.6975
1551,9366938,0.7821421,0.02501,-0.271084,109.725,-35.595,-65.415
1552,9367036,0.7584741,-0.010126000000000001,-0.25559,111.0025,-33.355,-64.715
1553,9367133,0.7245581,-0.027938,-0.24326799999999998,111.3875,-30.3625,-62.055
1554,9367231,0.693448,-0.047580000000000004,-0.22789600000000002,111.72,-26.39,-58.8875
1555,9367329,0.6674621000000001,-0.050874,-0.206668,111.965,-21.245,-54.705
1556,9367427,0.64965,-0.045384,-0.180194,112.1225,-15.715,-49.1925
1557,9367525,0.6573359999999999,-0.039528,-0.161528,111.6325,-10.8675,-44.135
1558,9367623,0.684054,-0.040992,-0.137738,109.9175,-6.2825,-40.2675
1559,9367721,0.732854,-0.036478,-0.11760799999999999,107.5725,-2.625,-37.7825
1560,9367819,0.790194,-0.030987999999999998,-0.101016,106.015,0.8400001,-35.595
1561,9367917,0.834358,-0.014152000000000001,-0.09028,104.0375,3.325,-32.9525
1562,9368014,0.883158,0.014762,-0.102358,101.9025,3.6925,-31.955
1563,9368112,0.9232961,0.032818,-0.163358,101.2375,1.4,-31.43
1564,9368210,0.9158540999999999,0.035136,-0.23729,100.8875,-2.52,-30.485
1565,9368308,0.8810841,0.045384,-0.330742,95.6725,-4.6725,-32.34
1566,9368406,0.8897459999999999,-0.0008540001,-0.421754,87.99,-9.3625,-38.605
1567,9368504,0.8664440000000001,-0.08357,-0.4933681,78.9775,-16.66,-42.2625
1568,9368602,0.80642,-0.13908,-0.45591400000000004,69.58,-17.4825,-44.8875
1569,9368700,0.763476,-0.18666,-0.31171,60.0075,-7.6125,-46.97
1570,9368797,0.7792140000000001,-0.245342,-0.22789600000000002,55.545,-0.875,-43.47
1571,9368895,0.8918200000000001,-0.13639600000000002,-0.19764,53.3225,-2.625,-37.1
1572,9368993,1.01443,0.020496,-0.232898,54.1275,-2.1175,-36.4875
1573,9369091,1.137894,0.24827,-0.195322,58.765,8.155,-47.0575
1574,9369189,1.147532,0.44822799999999996,-0.197152,71.1025,17.4825,-66.045
1575,9369287,1.04249,0.504104,-0.257664,92.61001,12.5825,-75.81
1576,9369385,0.9442801,0.431392,-0.37246599999999996,99.505,9.415,-82.6175
1577,9369483,0.9702661,0.29133600000000004,-0.6168319999999999,97.5275,4.4625,-91.98001
1578,9369581,1.166442,0.007320001,-0.79666,94.09751,-2.905,-100.9925
1579,9369679,1.4187379999999998,-0.373564,-0.770918,95.26999,-1.8025,-110.4425
1580,9369777,1.388116,-0.734196,-0.589626,98.385,2.0125,-109.2175
1581,9369875,0.9707541,-0.6734399999999999,-0.556198,93.205,-4.97,-104.3525
1582,9369973,0.838994,-0.25302800000000003,-0.6197600000000001,83.37001,-13.7725,-101.29
1583,9370071,0.9154880999999999,0.06954,-0.614758,83.475,-8.2775,-92.62751
1584,9370169,1.074088,0.34782199999999996,-0.6541640000000001,82.7225,9.45,-89.4075
1585,9370266,1.1476540000000002,0.447618,-0.67588,91.875,18.9875,-88.6725
1586,9370364,1.111664,0.385886,-0.6612401,114.6425,13.7725,-87.43
1587,9370462,1.050542,0.22448,-0.65209,130.6025,6.0375,-82.39
1588,9370560,1.0401719999999999,0.079178,-0.62342,140.7175,-2.24,-82.775
1589,9370658,1.0534700000000001,-0.020130000000000002,-0.6010939999999999,143.2725,-8.7675,-82.985
1590,9370756,1.0798219999999998,-0.128222,-0.5815739999999999,141.155,-11.5675,-80.29
1591,9370854,1.1064180000000001,-0.20410599999999998,-0.559736,136.5525,-12.9325,-75.705
1592,9370952,1.105442,-0.19885999999999998,-0.527406,131.5475,-10.9025,-70.735
1593,9371050,1.097634,-0.160064,-0.547048,127.47,-7.1925,-65.555
1594,9371148,1.070062,-0.137128,-0.54778,125.9475,-3.7975,-58.38
1595,9371246,1.050664,-0.10614000000000001,-0.536678,126.9625,-1.2075,-53.655
1596,9371344,1.02175,-0.048556,-0.5119121,127.365,0.63,-51.905
1597,9371441,0.9853940999999999,-0.042212,-0.489708,130.9875,0.8225,-50.855
1598,9371539,0.9590420000000001,-0.05795,-0.45323,134.8375,-1.33,-54.4775
1599,9371637,0.9214661,-0.045627999999999995,-0.423828,137.27,-3.36,-61.0925
1600,9371735,0.8819381,-0.01647,-0.390766,138.5825,-5.635,-66.7275
1601,9371833,0.852902,-0.0051240009999999996,-0.36539,139.3,-7.9625,-69.3175
1602,9371931,0.829234,-0.000732,-0.345504,140.1225,-10.7625,-72.87
1603,9372029,0.84851,-0.007564001,-0.32147,141.6275,-12.6525,-76.16001
1604,9372127,0.8522921,-0.039406000000000004,-0.30073,143.5,-12.74,-77.77
1605,9372225,0.8487540000000001,-0.07344400000000001,-0.285358,144.8475,-11.9,-79.205
1606,9372323,0.831308,-0.07881200000000001,-0.268766,143.815,-10.5,-80.43
1607,9372421,0.793976,-0.07808001,-0.24558600000000003,142.0825,-9.31,-81.69001
1608,9372518,0.773602,-0.07881200000000001,-0.231068,140.2275,-8.0675,-83.09000999999999
1609,9372616,0.7518859999999999,-0.089304,-0.209718,138.88,-6.685,-84.595
1610,9372714,0.7418819999999999,-0.08893801,-0.190686,137.06,-5.1625,-86.87
1611,9372812,0.7004020000000001,-0.07173600000000001,-0.177998,135.7125,-3.885,-88.6025
1612,9372910,0.6756361,-0.077592,-0.14213,135.485,-1.4875,-89.7575
1613,9373008,0.6645340000000001,-0.076738,-0.138104,132.86,2.03,-89.705
1614,9373106,0.6695361,-0.08332601,-0.118218,129.0625,1.1725,-89.4425
1615,9373204,0.680516,-0.113704,-0.106628,125.7725,0.525,-89.145
1616,9373302,0.709674,-0.148352,-0.118218,122.22,2.8175,-87.7275
1617,9373400,0.7044279999999999,-0.159942,-0.131028,117.1975,5.145,-86.9575
1618,9373498,0.6855180000000001,-0.160796,-0.129686,113.68,10.2025,-86.22251
1619,9373595,0.6791739999999999,-0.13480999999999999,-0.12895399999999999,109.655,19.3375,-84.15751
1620,9373693,0.6911301,-0.09613601,-0.14188599999999998,105.665,25.69,-83.265
1621,9373791,0.70638,-0.08100801,-0.162504,103.04,27.8425,-82.4425
1622,9373889,0.765428,-0.052703999999999994,-0.173118,100.3275,28.525,-80.4825
1623,9373987,0.813862,-0.038186000000000005,-0.17641199999999999,95.5325,27.335,-79.7825
1624,9374085,0.874862,-0.05453401,-0.262056,90.70251,25.1475,-78.435
1625,9374183,0.9651421,-0.082716,-0.29902199999999995,88.51501,23.9925,-75.2675
1626,9374281,1.027484,-0.082106,-0.320616,86.695,26.4425,-70.175
1627,9374379,1.057496,-0.02684,-0.311954,84.98,27.755,-68.88
1628,9374477,1.0821399999999999,0.020374,-0.367342,81.25251,26.4425,-69.02
1629,9374575,1.1575360000000001,0.054778,-0.769698,85.48751,20.6325,-66.7625
1630,9374673,1.41642,0.093086,-0.99369,94.60501,21.77,-56.7
1631,9374770,1.5323200000000001,0.10687200000000001,-0.69296,92.3825,44.8875,-36.5575
1632,9374868,1.21939,0.023180000000000003,-0.49263599999999996,102.69,45.7275,-28.35
1633,9374966,0.8377741,-0.008174001,-0.337208,113.295,15.68,-36.2075
1634,9375064,0.8666879999999999,-0.06941801,-0.30134,102.095,-1.4525,-42.7175
1635,9375162,0.9806360000000001,-0.236192,-0.45018,96.7575,-28.315,-35.0175
1636,9375260,1.027606,-0.46603999999999995,-0.57462,85.5925,-31.745,-27.79
1637,9375358,1.06384,-0.5321640000000001,-0.662338,75.4425,-9.275,-31.71
1638,9375456,1.075064,-0.357704,-0.6851520999999999,70.3325,4.8825,-36.715
1639,9375554,1.021994,-0.082716,-0.640378,67.725,8.12,-33.635
1640,9375652,0.9561139999999999,0.159698,-0.6109760000000001,67.6025,7.6825,-27.6325
1641,9375750,0.9749021000000001,0.223016,-0.577548,71.26,5.8275,-23.52
1642,9375847,1.005036,0.15945399999999998,-0.537776,78.925,7.105,-25.305
1643,9375945,0.9975940999999999,0.06636801,-0.508984,85.05,7.28,-30.2925
1644,9376043,0.9708760000000001,-0.061732,-0.5009319999999999,89.11,4.795,-36.0325
1645,9376141,0.9356180000000001,-0.09650201,-0.5063,90.52750999999999,7.0525,-47.2675
1646,9376239,0.9480620000000001,-0.030133999999999998,-0.477508,89.67,10.71,-60.76
1647,9376337,0.9590420000000001,0.036844,-0.45323,88.69,11.1475,-69.93
1648,9376435,0.940254,0.08954801,-0.44078599999999996,87.5,10.8675,-73.7275
1649,9376533,0.9195141,0.12431800000000001,-0.41675200000000007,87.3425,9.2575,-73.90250999999999
1650,9376631,0.9075581,0.18141400000000002,-0.407968,88.04251,7.9275,-72.835
1651,9376729,0.9206120000000001,0.221308,-0.380396,91.1575,6.3525,-73.5
1652,9376827,0.900848,0.215452,-0.364292,93.8525,6.2825,-75.9675
1653,9376925,0.88999,0.195078,-0.34586999999999996,95.935,6.195,-79.3275
1654,9377023,0.8881600000000001,0.141764,-0.325008,96.91501,6.72,-80.5525
1655,9377120,0.8591241,0.08808401,-0.30134,96.63501,7.9275,-80.78
1656,9377218,0.8127641,0.033306,-0.287066,95.515,8.9775,-79.4675
1657,9377316,0.7890961,-0.014396,-0.268156,94.09751,9.38,-78.6625
1658,9377414,0.769576,-0.032330000000000005,-0.255346,90.70251,10.675,-77.8225
1659,9377512,0.74847,-0.038796,-0.238144,87.7625,12.04,-75.81
1660,9377610,0.743224,-0.045018,-0.22448,84.2625,12.145,-71.9775
1661,9377708,0.7381001,-0.042212,-0.22265,80.0975,12.18,-65.905
1662,9377806,0.72529,-0.04514,-0.210694,75.985,12.2675,-57.7325
1663,9377904,0.7108941,-0.071492,-0.193492,71.0325,12.915,-48.265
1664,9378002,0.7047939999999999,-0.085888,-0.18251199999999998,65.8,12.8275,-39.8825
1665,9378100,0.694058,-0.097966,-0.160918,61.9325,12.6175,-30.6075
1666,9378198,0.692472,-0.09589201,-0.146522,58.59,11.76,-22.05
1667,9378295,0.69479,-0.07015,-0.135176,54.285,12.32,-13.1425
1668,9378393,0.690642,-0.060146000000000005,-0.117852,48.3175,14.665,-5.0225
1669,9378491,0.6985720999999999,-0.052703999999999994,-0.126148,42.035,17.6575,2.8175
1670,9378589,0.714554,-0.05929201,-0.137982,36.995,19.915,10.3425
1671,9378687,0.7610359999999999,-0.0671,-0.152866,32.305,21.98,17.745
1672,9378785,0.789828,-0.08296,-0.181658,26.53,20.5975,23.6075
1673,9378883,0.858392,-0.12871,-0.20252,16.8,21.8925,24.8675
1674,9378981,0.880352,-0.197152,-0.263398,9.345,27.895,23.8175
1675,9379079,0.876692,-0.280356,-0.344894,3.0625,28.245,21.9275
1676,9379177,0.8912100000000001,-0.31646799999999997,-0.42114399999999996,-6.3525,21.945,20.6325
1677,9379275,0.8720559999999999,-0.260104,-0.319152,-17.9375,18.13,20.37
1678,9379372,0.807884,-0.10504200000000001,-0.147254,-23.1175,22.5925,21.945
1679,9379470,0.8254520000000001,-0.09455001,-0.061975999999999996,-27.895,23.975,29.8025
1680,9379568,0.9964959999999999,-0.17055599999999999,-0.04514,-29.925,19.4425,36.7325
1681,9379666,1.23037,-0.09247601,-0.06661201,-28.6475,8.19,23.415
1682,9379764,1.441552,0.113826,-0.11285,-22.4,-5.6525,0.8400001
