,T,ax,ay,az,gx,gy,gz
0,161270,0.606584,0.17763199999999998,-0.594384,16.6775,-16.7475,-15.89
1,161421,0.62342,0.182024,-0.671488,48.125,-100.205,-112.175
2,161517,0.660996,0.188368,-0.7190681,41.825,-169.715,-171.605
3,161613,0.66246,0.186172,-0.71492,47.67,-136.08,-60.6725
4,161710,0.662704,0.189832,-0.7195560000000001,3.8675,-9.9925,-6.0375
5,161806,0.662948,0.186416,-0.721508,1.6975,-3.745,-3.36
6,161902,0.660996,0.188368,-0.721508,1.715,-3.78,-3.22
7,161998,0.663192,0.186172,-0.721996,1.7325,-3.6925,-3.15
8,162095,0.6634359999999999,0.18470799999999998,-0.72346,1.715,-3.675,-3.22
9,162191,0.662704,0.18422,-0.7224841,1.715,-3.6575,-3.325
10,162287,0.6634359999999999,0.189344,-0.7224841,1.75,-3.64,-3.2725
11,162383,0.66368,0.189832,-0.7227279999999999,1.75,-3.6225,-3.2725
12,162480,0.662704,0.187636,-0.7217521,1.8025,-3.71,-3.2025
13,162576,0.663192,0.186904,-0.7224841,1.8025,-3.7625,-3.185
14,162672,0.66368,0.185684,-0.7256560000000001,1.785,-3.6575,-3.115
15,162768,0.665876,0.183976,-0.720776,1.8025,-3.5875,-3.115
16,162865,0.66368,0.18446400000000002,-0.724436,1.7675,-3.57,-3.29
17,162961,0.662948,0.18788,-0.7232161,1.715,-3.605,-3.3775
18,163057,0.662948,0.18251199999999998,-0.7237041,1.6975,-3.605,-3.3075
19,163153,0.664168,0.18178,-0.721264,1.645,-3.6925,-3.4125
20,163250,0.66246,0.187392,-0.721508,1.5575,-3.605,-3.4125
21,163346,0.663924,0.18446400000000002,-0.7217521,1.61,-3.605,-3.395
22,163442,0.661972,0.183976,-0.7239479999999999,1.645,-3.6225,-3.465
23,163538,0.662948,0.185196,-0.725168,1.5925,-3.6575,-3.535
24,163634,0.662948,0.189344,-0.72224,1.54,-3.7275,-3.4475
25,163731,0.66246,0.189588,-0.7217521,1.575,-3.71,-3.395
26,163827,0.660996,0.18422,-0.7237041,1.6975,-3.605,-3.3075
27,163923,0.661972,0.184952,-0.7241920000000001,1.61,-3.5875,-3.3775
28,164019,0.665144,0.186416,-0.7229720000000001,1.61,-3.5525,-3.43
29,164116,0.662948,0.18422,-0.721996,1.505,-3.4125,-3.465
30,164212,0.663192,0.185196,-0.7232161,1.4,-3.43,-3.5175
31,164308,0.661728,0.18422,-0.7232161,1.3825,-3.4475,-3.5875
32,164405,0.6634359999999999,0.188368,-0.7227279999999999,1.435,-3.36,-3.6225
33,164501,0.664168,0.18544000000000002,-0.72224,1.4175,-3.36,-3.535
34,164597,0.6649,0.187148,-0.7224841,1.47,-3.395,-3.465
35,164693,0.66246,0.185928,-0.7237041,1.47,-3.4125,-3.4475
36,164790,0.6600201,0.18788,-0.7227279999999999,1.4875,-3.4825,-3.3425
37,164886,0.6634359999999999,0.186904,-0.721996,1.575,-3.5175,-3.3425
38,164982,0.66368,0.186172,-0.7227279999999999,1.575,-3.5175,-3.3425
39,165078,0.6646561,0.18666,-0.7227279999999999,1.61,-3.4825,-3.3775
40,165175,0.662704,0.186172,-0.721508,1.54,-3.4825,-3.3425
41,165271,0.662948,0.18544000000000002,-0.719312,1.5225,-3.4475,-3.4125
42,165367,0.662948,0.188612,-0.72102,1.54,-3.5175,-3.4825
43,165464,0.664412,0.186904,-0.7229720000000001,1.5925,-3.5175,-3.3425
44,165560,0.664412,0.185684,-0.72102,1.645,-3.5525,-3.3075
45,165656,0.6663640000000001,0.185684,-0.72102,1.6625,-3.5175,-3.3775
46,165752,0.663192,0.18446400000000002,-0.7227279999999999,1.6625,-3.4825,-3.3425
47,165849,0.665632,0.186416,-0.7227279999999999,1.61,-3.4475,-3.3075
48,165945,0.662948,0.188368,-0.7217521,1.61,-3.6225,-3.395
49,166041,0.6653880999999999,0.183732,-0.720776,1.575,-3.5875,-3.43
50,166137,0.664412,0.18446400000000002,-0.72102,1.5925,-3.605,-3.3425
51,166234,0.665632,0.18470799999999998,-0.720288,1.61,-3.605,-3.4825
52,166330,0.666852,0.18666,-0.72346,1.61,-3.5875,-3.465
53,166426,0.66246,0.185684,-0.721996,1.645,-3.5875,-3.395
54,166523,0.66368,0.185196,-0.721508,1.6275,-3.64,-3.5
55,166619,0.6602640000000001,0.188368,-0.7229720000000001,1.575,-3.6225,-3.4475
56,166715,0.6646561,0.186172,-0.7200439999999999,1.61,-3.5175,-3.4475
57,166811,0.6634359999999999,0.186904,-0.721508,1.5925,-3.5175,-3.4475
58,166908,0.663192,0.186172,-0.7198,1.54,-3.5,-3.5
59,167004,0.665876,0.186416,-0.7195560000000001,1.54,-3.535,-3.4475
60,167100,0.6612401,0.184952,-0.7224841,1.5925,-3.5525,-3.4125
61,167196,0.662704,0.18544000000000002,-0.7190681,1.6625,-3.6575,-3.43
62,167293,0.662704,0.186172,-0.721996,1.6625,-3.6225,-3.43
63,167389,0.664412,0.18422,-0.7200439999999999,1.575,-3.5175,-3.325
64,167485,0.664168,0.184952,-0.721264,1.645,-3.5525,-3.36
65,167582,0.6653880999999999,0.185684,-0.720288,1.5575,-3.5175,-3.36
66,167678,0.663924,0.18470799999999998,-0.720776,1.575,-3.605,-3.3425
67,167774,0.665632,0.185928,-0.721264,1.5925,-3.605,-3.2375
68,167870,0.665876,0.183,-0.7200439999999999,1.6625,-3.5875,-3.29
69,167967,0.667096,0.18422,-0.7198,1.6275,-3.675,-3.3425
70,168063,0.662704,0.186904,-0.7190681,1.645,-3.5525,-3.395
71,168159,0.6634359999999999,0.187148,-0.7195560000000001,1.5925,-3.6575,-3.3425
72,168255,0.662216,0.188368,-0.7227279999999999,1.7325,-3.6575,-3.2725
73,168352,0.664412,0.187148,-0.720776,1.785,-3.675,-3.29
74,168448,0.6675840000000001,0.185196,-0.7190681,1.715,-3.5875,-3.29
75,168544,0.666852,0.184952,-0.7195560000000001,1.6625,-3.6575,-3.2725
76,168641,0.663924,0.18470799999999998,-0.72102,1.6975,-3.71,-3.255
77,168737,0.661972,0.187148,-0.7198,1.645,-3.6925,-3.395
78,168833,0.662704,0.185684,-0.7217521,1.75,-3.7275,-3.395
79,168929,0.664168,0.18544000000000002,-0.7198,1.75,-3.8325,-3.325
80,169026,0.6661201,0.185196,-0.7200439999999999,1.68,-3.6925,-3.3425
81,169122,0.665144,0.18666,-0.72102,1.68,-3.6575,-3.4125
82,169218,0.662948,0.18446400000000002,-0.7195560000000001,1.6975,-3.71,-3.4125
83,169314,0.6653880999999999,0.186172,-0.720288,1.7325,-3.7975,-3.325
84,169411,0.665876,0.185196,-0.7195560000000001,1.7675,-3.815,-3.3775
85,169507,0.664412,0.186172,-0.72346,1.75,-3.7625,-3.3425
86,169603,0.663924,0.185684,-0.721508,1.7325,-3.85,-3.4125
87,169700,0.6649,0.18324400000000002,-0.7195560000000001,1.715,-3.85,-3.5
88,169796,0.663924,0.185196,-0.721996,1.715,-3.815,-3.535
89,169892,0.6663640000000001,0.18544000000000002,-0.721508,1.715,-3.955,-3.535
90,169988,0.66368,0.185196,-0.721264,1.7325,-3.92,-3.3775
91,170085,0.6649,0.185928,-0.720532,1.715,-3.9025,-3.36
92,170181,0.667096,0.18470799999999998,-0.720776,1.785,-3.92,-3.43
93,170277,0.6653880999999999,0.184952,-0.7195560000000001,1.8025,-3.9725,-3.5
94,170373,0.66246,0.18666,-0.7200439999999999,1.8375,-4.0775,-3.43
95,170470,0.665144,0.183488,-0.720532,1.785,-4.025,-3.43
96,170566,0.662948,0.18251199999999998,-0.7195560000000001,1.6975,-4.095,-3.465
97,170662,0.6646561,0.183976,-0.720288,1.715,-4.1125,-3.5875
98,170759,0.662948,0.185684,-0.72224,1.6975,-3.92,-3.64
99,170855,0.6663640000000001,0.185684,-0.7198,1.68,-3.9375,-3.64
100,170951,0.6653880999999999,0.183976,-0.718824,1.6625,-4.06,-3.71
101,171047,0.6634359999999999,0.17934,-0.7217521,1.4175,-3.815,-3.71
102,171144,0.668072,0.202276,-0.7241920000000001,0.735,-2.5025,-3.3775
103,171240,0.674416,0.175924,-0.71858,1.1725,-2.24,-2.9925
104,171336,0.6661201,0.19178399999999998,-0.7327321,0.805,-3.0275,-3.2375
105,171432,0.674172,0.159088,-0.727364,0.6475,-2.4325,-3.0975
106,171529,0.679296,0.1769,-0.7232161,-0.4725,-1.8725,-3.8675
107,171625,0.690032,0.157136,-0.731268,-2.135,-2.625,-4.8825
108,171721,0.686128,0.176656,-0.706624,-4.34,-3.7975,-5.32
109,171817,0.670512,0.196908,-0.733952,-5.5125,-4.0425,-5.5475
110,171914,0.674416,0.196908,-0.738344,-4.7775,-5.39,-4.935
111,172010,0.71492,0.10321199999999998,-0.7388319999999999,-4.6025,-6.4925,-4.13
112,172106,0.7107720000000001,0.001464,-0.753228,-6.1425,-9.4325,2.695
113,172202,0.624884,0.335012,-0.69052,-13.0375,-13.16,6.7375
114,172299,0.606096,0.34648,-0.733952,-6.6325,-12.18,6.0725
115,172395,0.5968241,0.380396,-0.7046720999999999,-1.2775,-11.865,3.9375
116,172491,0.6512359999999999,0.271816,-0.7332201,4.3575,-10.0975,2.2225
117,172588,0.725168,0.06661201,-0.7439560000000001,7.035,-8.7675,2.625
118,172684,0.686616,0.132492,-0.724436,1.1375,-12.5475,1.8025
119,172780,0.708088,0.077836,-0.7612800999999999,-1.68,-14.4025,0.7875
120,172876,0.792512,0.037332,-0.754448,-4.9525,-16.87,1.155
121,172973,0.748592,0.052948,-0.750788,-9.4675,-24.08,1.925
122,173069,0.66368,0.151524,-0.7451760000000001,-12.04,-29.4,3.9725
123,173165,0.658312,0.24888000000000002,-0.7266321,-13.9475,-30.415,2.7475
124,173261,0.633424,0.249612,-0.72102,-13.1775,-30.345,-0.8225
125,173358,0.620492,0.233508,-0.7476161,-12.355,-29.5225,-3.9375
126,173454,0.639768,0.225944,-0.7503,-13.1425,-27.9125,-6.685
127,173550,0.596336,0.192272,-0.7139439999999999,-13.16,-28.4025,-7.8925
128,173646,0.5697399999999999,0.23472800000000002,-0.7288279999999999,-12.705,-26.9675,-7.455
129,173743,0.57584,0.256444,-0.7176041,-11.6025,-23.66,-7.385
130,173839,0.564616,0.284016,-0.7056479999999999,-10.0625,-20.895,-8.4875
131,173935,0.5936520000000001,0.273768,-0.745908,-7.0875,-17.57,-9.205
132,174032,0.6414761,0.217892,-0.738344,-5.67,-15.47,-10.745
133,174128,0.565836,0.172508,-0.7015,-4.27,-16.73,-11.0075
134,174224,0.49556400000000006,0.171776,-0.6885680999999999,-4.8475,-13.9825,-9.8175
135,174320,0.532652,0.166408,-0.699548,-6.4225,-8.575,-8.995
136,174417,0.633668,0.24131599999999997,-0.7893399999999999,-8.12,-4.0075,-8.925
137,174513,0.5631520000000001,0.253272,-0.702964,-5.46,-3.92,-8.715
138,174609,0.5260640000000001,0.23668000000000003,-0.7056479999999999,-3.6925,-2.31,-8.9775
139,174705,0.559248,0.21301199999999998,-0.702964,-1.855,2.3975,-8.015
140,174802,0.529968,0.23228800000000002,-0.698816,0.3675,4.795,-6.51
141,174898,0.567788,0.249856,-0.7390760000000001,2.975,8.4525,-5.32
142,174994,0.59658,0.251076,-0.73078,6.0025,10.78,-4.025
143,175090,0.66246,0.301584,-0.790804,9.0825,11.97,-2.3275
144,175187,0.728096,0.219356,-0.771528,11.025,11.13,-1.8375
145,175283,0.6368401,0.239608,-0.743712,11.4975,6.1075,-0.7875
146,175379,0.6158561,0.274012,-0.752496,12.18,5.4075,0.8400001
147,175476,0.6480640000000001,0.22448,-0.7500560000000001,14.525,6.335,1.8725
148,175572,0.65758,0.202764,-0.7571321,15.33,6.1775,2.6075
149,175668,0.654896,0.195444,-0.746396,14.7875,5.0925,2.835
150,175764,0.656848,0.192028,-0.755424,14.315,3.8325,2.59
151,175861,0.666608,0.16811600000000002,-0.756888,13.2825,3.36,1.645
152,175957,0.6470880999999999,0.204228,-0.7442,11.55,1.855,0.875
153,176053,0.6541640000000001,0.19861600000000001,-0.754204,11.095,1.82,0.42
154,176149,0.6600201,0.18544000000000002,-0.746152,10.745,1.575,-0.035
155,176246,0.647576,0.202764,-0.7473721,9.8525,1.015,-0.315
156,176342,0.669292,0.183732,-0.746152,9.765,0.7875,-0.3675
157,176438,0.652212,0.17934,-0.745908,9.1,-0.14,-0.525
158,176534,0.6439159999999999,0.196908,-0.73932,8.3825,-0.9625,-0.8225
159,176631,0.6463561,0.192028,-0.7503,8.505,-1.155,-0.56
160,176727,0.667828,0.161772,-0.746396,7.6825,-1.19,-0.7175
161,176823,0.650748,0.183732,-0.7476161,5.215,-2.1875,-1.26
162,176920,0.6378159999999999,0.191296,-0.7442,4.4275,-2.905,-1.47
163,177016,0.6405,0.181536,-0.7327321,4.2525,-2.9225,-1.75
164,177112,0.64294,0.19251600000000002,-0.743468,3.9025,-2.905,-1.855
165,177208,0.634156,0.194468,-0.730536,3.955,-3.22,-2.1875
166,177305,0.642452,0.182024,-0.7285841,4.4275,-2.8875,-2.0475
167,177401,0.6539201,0.174216,-0.734928,4.7075,-2.905,-1.785
168,177497,0.6219561,0.217404,-0.741028,4.9,-3.2725,-1.5925
169,177593,0.6197600000000001,0.183732,-0.733708,5.6525,-3.15,-1.8725
170,177690,0.610244,0.19397999999999999,-0.712724,6.825,-3.08,-1.365
171,177786,0.6373281,0.19642,-0.736392,7.2975,-2.5025,-1.0675
172,177882,0.650016,0.163968,-0.739564,7.7875,-2.3275,-1.05
173,177978,0.643672,0.185196,-0.7317560000000001,6.44,-2.275,-1.435
174,178075,0.6290319999999999,0.18446400000000002,-0.738588,6.1075,-2.52,-1.6625
175,178171,0.626104,0.187636,-0.737124,5.8975,-2.73,-1.7675
176,178267,0.6007279999999999,0.191296,-0.743224,5.8275,-3.36,-1.645
177,178363,0.635864,0.166408,-0.7373681,5.46,-2.6425,-1.785
178,178460,0.637084,0.165676,-0.7439560000000001,5.1975,-2.66,-1.785
179,178556,0.635864,0.16592,-0.7390760000000001,4.2875,-2.59,-2.1
180,178652,0.63562,0.174216,-0.749812,3.255,-1.82,-2.3975
181,178749,0.652212,0.165432,-0.7407841,3.2025,-0.35,-2.1175
182,178845,0.6573359999999999,0.168848,-0.733464,3.15,0.6825,-1.645
183,178941,0.649528,0.174216,-0.744688,2.8525,1.89,-1.19
184,179037,0.6734399999999999,0.14274,-0.7141881,2.9225,3.5875,-0.8400001
185,179134,0.6380600000000001,0.205692,-0.74542,1.855,4.7075,-0.805
186,179230,0.681736,0.183976,-0.718824,3.535,5.2325,0.56
187,179326,0.633424,0.20374,-0.754204,5.46,5.5125,0.7175
188,179422,0.643672,0.188856,-0.7622561,5.81,6.8775,1.26
189,179519,0.6439159999999999,0.18788,-0.769576,6.9475,8.4175,2.94
190,179615,0.639768,0.174216,-0.776408,7.455,11.2875,4.165
191,179711,0.6107319999999999,0.1769,-0.782508,8.4175,16.415,5.6
192,179807,0.6263479999999999,0.2745,-0.9403761,9.345,25.1125,7.56
193,179904,0.538996,0.23009200000000002,-0.8203280000000001,17.99,31.6225,9.415
194,180000,0.609024,0.24058400000000002,-0.8991401,4.025,48.9125,19.355
195,180096,0.567056,0.14347200000000002,-0.9052401,8.2775,65.9225,30.1525
196,180192,0.5675439999999999,0.121024,-0.8718120999999999,8.085,87.5175,30.31
197,180289,0.57828,0.176656,-0.8862081,7.7175,107.45,28.4375
198,180385,0.567056,0.16689600000000002,-0.898164,11.445,128.485,32.0775
199,180481,0.599996,0.225456,-0.901336,17.2025,149.3625,39.235
200,180578,0.598288,0.254492,-0.8937719999999999,24.745,165.4275,51.87
201,180674,0.606096,0.184952,-0.9352520000000001,31.43,179.8825,68.72251
202,180770,0.618784,0.29646,-0.9650200999999999,39.235,194.53,88.9175
203,180866,0.6512359999999999,0.326228,-0.9679481,63.7175,214.4625,111.4575
204,180963,0.779824,0.38674000000000003,-0.9103641,90.52750999999999,233.17,134.085
205,181059,1.018944,0.42748800000000003,-0.883524,108.4825,251.195,154.1925
206,181155,0.993568,0.5602239999999999,-1.208532,113.9775,267.015,163.835
207,181251,1.58844,0.21618400000000002,-1.009916,101.9375,269.1675,151.62
208,181348,1.928088,0.143716,-0.919392,100.73,318.0275,152.7575
209,181444,2.0242240000000002,0.299144,-0.9799041,96.42501,333.3225,162.68
210,181540,2.192828,0.652212,-1.1651,89.8975,336.9275,160.825
211,181636,2.125728,0.7266321,-1.251232,84.77,342.895,155.015
212,181733,1.69458,0.5267960999999999,-1.61284,81.375,350.9625,146.405
213,181829,0.8801081000000001,0.8930401,-1.997872,75.3025,304.115,138.4075
214,181925,0.5023960999999999,1.199016,-2.106696,79.9925,213.36,114.1
215,182021,0.7922680000000001,1.198284,-1.9942119999999999,80.2375,72.3275,53.4975
216,182118,0.1464,1.272216,-1.60552,41.79,1.96,-15.0325
217,182214,-0.214232,1.157292,-1.318332,41.02,-36.8375,-49.7875
218,182310,-0.24107199999999998,0.8310639999999999,-1.179252,51.66,-43.2075,-68.95
219,182406,-0.187392,0.625128,-1.167784,47.3025,-50.3475,-78.54
220,182503,-0.066124,0.519476,-1.230248,28.245,-63.42,-85.85501
221,182599,0.080276,0.5206960999999999,-1.310524,6.7375,-84.42,-90.8775
222,182695,0.211304,0.5502199999999999,-1.344684,-7.105,-111.3525,-93.9575
223,182791,0.323788,0.552904,-1.322724,-11.3225,-140.91,-96.98501
224,182888,0.42578,0.521184,-1.244156,-10.325,-169.2425,-101.7975
225,182984,0.51118,0.49751599999999996,-1.155828,-9.3625,-194.11,-109.13
226,183080,0.601216,0.481412,-1.071892,-8.645,-215.67,-117.7225
227,183176,0.6851520999999999,0.462624,-0.9950319999999999,-7.665,-234.3775,-126.6825
228,183273,0.7707961,0.444568,-0.9274440999999999,-6.2475,-249.83,-134.96
229,183369,0.8713241,0.429196,-0.880352,-4.4275,-262.08,-141.505
230,183465,0.9857600000000001,0.409432,-0.8615640999999999,-2.6775,-270.97,-146.7025
231,183561,1.10532,0.38552,-0.8637601,-2.415,-277.9175,-150.465
232,183658,1.1958440000000001,0.37502800000000003,-0.8613200000000001,-4.3925,-285.25,-152.5475
233,183754,1.276608,0.371856,-0.8847440999999999,-8.645,-290.99,-153.79
234,183850,1.363228,0.384056,-0.931348,-13.9475,-293.79,-153.545
235,183947,1.473272,0.40381999999999996,-0.9967401,-20.195,-295.7325,-152.0225
236,184043,1.58844,0.41894799999999993,-1.078236,-26.705,-298.27,-150.0625
237,184139,1.7214200000000002,0.42724399999999996,-1.151924,-34.7025,-301.4375,-149.065
238,184235,1.850008,0.454816,-1.2056040000000001,-43.4175,-306.8275,-148.82
239,184332,2.000068,0.498004,-1.242448,-51.6425,-311.9025,-149.415
240,184428,2.212592,0.49117200000000005,-1.213168,-56.63,-314.23,-150.9375
241,184524,2.4461,0.393572,-1.090436,-58.5025,-313.53,-153.09
242,184620,2.6522799999999997,0.219112,-0.815204,-59.0625,-311.2725,-151.3575
243,184717,2.840404,0.11028800000000001,-0.46481999999999996,-62.16,-305.5675,-142.5025
244,184813,2.87676,-0.06466001,0.0034159999999999998,-66.045,-295.925,-125.3175
245,184909,2.652768,-0.471164,0.656848,-72.555,-279.7375,-105.7175
246,185005,2.488068,-0.9969841,1.2688,-92.40001,-241.185,-88.4975
247,185102,2.7301159999999998,-1.3825040000000002,1.765584,-123.2,-185.4825,-73.395
248,185198,3.100752,-1.432768,2.143052,-142.065,-131.3375,-55.8075
249,185294,3.027796,-1.380064,2.297016,-116.585,-85.76751,-27.3875
250,185390,2.680584,-1.2519639999999999,2.138904,-51.24,-30.24,7.28
251,185487,2.461472,-1.1033680000000001,1.695312,19.4775,33.915,38.955
252,185583,1.902468,-0.576084,0.76372,56.4725,88.8475,52.92
253,185679,0.5885281,0.9479401,-1.367132,107.6075,84.5425,102.41
254,185775,-2.784528,0.6019479999999999,-3.843976,184.9925,80.43,152.285
255,185872,-0.6527,0.15982000000000002,-0.353312,144.375,151.8125,109.0425
256,185968,1.1529,-2.12036,1.473028,197.7675,282.94,56.49
257,186064,2.870172,-0.9386681,-1.934188,36.505,357.595,20.79
258,186161,2.3780240000000004,-1.093608,-1.279048,26.0225,301.3325,41.65
259,186257,1.702632,-0.34794400000000003,-0.9450120000000001,2.415,222.2325,72.06501
260,186353,1.574288,1.16632,-1.214388,-33.0925,204.9425,56.665
261,186449,2.548092,2.5800560000000003,-2.257488,26.5825,192.9375,60.3225
262,186546,0.8869401,-0.9335440999999999,0.203984,180.32,45.185,34.09
263,186642,1.61772,-0.22789600000000002,-1.441552,66.675,63.0,24.29
264,186738,1.074576,0.07637200000000001,-0.567788,29.645,26.25,-2.3625
265,186834,0.791048,-0.012444,-0.730536,26.2325,5.3025,3.465
266,186931,0.7390760000000001,0.242292,-0.715408,10.6225,12.46,1.645
267,187027,0.68198,0.16958,-0.748104,12.355,9.065,2.765
268,187123,0.688812,0.188856,-0.7376119999999999,11.83,7.35,3.43
269,187219,0.695156,0.1525,-0.736392,11.375,6.02,3.395
270,187316,0.6756361,0.13176,-0.7537159999999999,9.835,4.6725,2.8
271,187412,0.672708,0.176656,-0.7468840999999999,6.44,5.145,1.12
272,187508,0.6675840000000001,0.19178399999999998,-0.729316,5.32,5.1975,0.5425
273,187604,0.6663640000000001,0.194468,-0.7200439999999999,6.6325,4.2875,1.0325
274,187701,0.663924,0.185928,-0.727364,6.93,3.605,0.9275
275,187797,0.6541640000000001,0.192028,-0.73688,6.4925,3.3425,0.6125
276,187893,0.659776,0.24107199999999998,-0.727608,5.67,3.57,0.5425
277,187989,0.670024,0.22496799999999997,-0.709064,6.7025,2.7475,2.0475
278,188086,0.661972,0.20496,-0.7134560999999999,8.19,1.0675,3.7975
279,188182,0.6612401,0.182268,-0.7105279999999999,9.1525,-0.35,4.4975
280,188278,0.6600201,0.15762400000000001,-0.7329760000000001,8.575,-1.12,3.9725
281,188374,0.662216,0.153232,-0.72468,7.8575,-0.4025,3.255
282,188471,0.6729520999999999,0.16104000000000002,-0.71004,7.3325,0.8225,2.59
283,188567,0.665876,0.17128800000000002,-0.718824,7.14,1.5575,2.485
284,188663,0.668072,0.16104000000000002,-0.718824,7.3675,1.75,2.6775
285,188759,0.676124,0.156648,-0.7156520000000001,6.825,2.1,2.2225
286,188856,0.6646561,0.156892,-0.7278521,5.88,2.205,1.5925
287,188952,0.666608,0.149084,-0.72346,4.69,2.275,0.9275
288,189048,0.669048,0.154452,-0.733464,2.555,3.395,0.105
289,189145,0.670268,0.172264,-0.7195560000000001,1.575,3.9725,-0.1925
290,189241,0.66978,0.180804,-0.7324881,1.12,3.9025,0.07
291,189337,0.665144,0.1647,-0.726144,1.0675,4.6025,0.805
292,189433,0.678076,0.149816,-0.7171161,0.56,7.42,1.085
293,189530,0.674416,0.15762400000000001,-0.715164,-0.4025,9.7825,0.7525
294,189626,0.6649,0.158844,-0.7134560999999999,-1.12,11.585,0.56
295,189722,0.682956,0.17738800000000002,-0.708332,-2.2575,14.245,1.295
296,189818,0.638548,0.146156,-0.7320001,-5.2325,17.395,2.4675
297,189915,0.664412,0.199104,-0.748104,-12.6175,22.995,4.7425
298,190011,0.6453800000000001,0.151036,-0.7639640999999999,-9.5375,27.37,8.96
299,190107,0.659044,0.188368,-0.777384,-5.7225,33.4075,10.1675
300,190203,0.6307401,0.160308,-0.7890961,-6.6325,41.5975,10.5875
301,190300,0.633424,0.172752,-0.799588,-5.81,52.4125,11.6025
302,190396,0.644892,0.13664,-0.7834840000000001,-4.9525,64.015,12.11
303,190492,0.657092,0.125172,-0.7659161,-3.745,76.16001,11.7425
304,190588,0.66246,0.16592,-0.7712840999999999,-3.8325,88.46251,11.4625
305,190685,0.6646561,0.21618400000000002,-0.7659161,-4.27,100.03,14.6125
306,190781,0.671732,0.203496,-0.788608,-3.57,111.7025,22.085
307,190877,0.6558721,0.223992,-0.8396040000000001,-0.9975,126.3325,30.5025
308,190973,0.6512359999999999,0.30109600000000003,-0.820084,8.7675,147.105,40.88
309,191070,0.61122,0.251564,-0.81618,15.96,167.65,60.5675
310,191166,0.5702281,0.142984,-0.882548,17.71,187.6875,82.1625
311,191262,0.502152,0.183732,-0.9650200999999999,26.705,215.4775,97.21251
312,191358,1.594052,0.139324,-0.540216,34.37,271.215,110.145
313,191455,1.121668,-0.057339999999999995,-1.241716,19.985,394.5725,125.5975
314,191551,-0.687592,0.35624,-0.299632,-16.975,289.38,140.07
315,191647,1.666032,0.416508,-0.6158561,-3.36,320.3375,147.8225
316,191744,2.6169,0.7659161,-1.604544,-61.215,461.5625,140.28
317,191840,2.7894080000000003,0.452132,-1.975912,-45.64,483.98,125.265
318,191936,2.1655,0.018056,-0.739564,-0.0175,447.4225,137.62
319,192032,3.029016,0.46945600000000004,-1.8605,-2.975,440.1425,154.91
320,192129,2.221864,0.6980841,-0.9711200999999999,-57.3475,389.5325,133.7175
321,192225,1.7807119999999999,0.7503,-2.019344,-107.065,445.6725,123.9175
322,192321,1.606984,0.517524,-3.3018080000000003,-89.495,447.5275,128.2575
323,192417,1.6104,1.321748,-3.063908,-57.155,237.58,148.9425
324,192514,1.4661959999999998,1.460828,-2.7886759999999997,-46.1825,-0.8925,122.08
325,192610,0.29597199999999996,1.45546,-1.9468759999999998,-26.565,-124.6,75.6875
326,192706,-0.43188000000000004,1.223416,-1.291248,10.6575,-172.375,48.2475
327,192802,-0.46921199999999996,0.944524,-0.9967401,37.415,-169.68,21.63
328,192899,-0.26596,0.787876,-0.9345201,37.45,-160.475,-3.9375
329,192995,-0.07710399999999999,0.719312,-0.9547720999999999,20.6325,-162.75,-29.2775
330,193091,0.11248399999999999,0.74054,-1.036512,-0.63,-175.8225,-54.9325
331,193187,0.262056,0.7476161,-1.0826280000000001,-12.005,-198.905,-77.595
332,193284,0.392596,0.6822239999999999,-1.068964,-11.8825,-224.7875,-95.4625
333,193380,0.536068,0.5702281,-1.026508,-7.3675,-250.0575,-109.9875
334,193476,0.6558721,0.44847200000000004,-0.9562360999999999,-4.2,-274.645,-121.9925
335,193573,0.7707961,0.34721199999999997,-0.885964,-4.69,-296.9575,-131.81
336,193669,0.8559521000000001,0.293532,-0.8115439999999999,-6.965,-315.98,-138.6
337,193765,0.935008,0.24326799999999998,-0.7673800000000001,-9.24,-330.4175,-142.31
338,193861,1.000644,0.22643200000000002,-0.746396,-11.9,-340.1825,-144.095
339,193958,1.13094,0.227652,-0.794952,-15.2775,-345.415,-144.9
340,194054,1.2963719999999999,0.255956,-0.8842561,-18.3925,-348.915,-146.5275
341,194150,1.43106,0.26352,-0.978928,-19.9675,-355.18,-149.6425
342,194246,1.52134,0.24766,-1.056276,-21.1225,-363.5275,-153.79
343,194343,1.62382,0.229604,-1.153144,-24.22,-370.4925,-157.15
344,194439,1.783396,0.203252,-1.2871,-29.8375,-374.465,-158.2525
345,194535,2.0496,0.21301199999999998,-1.4088559999999999,-38.4125,-376.7225,-157.2025
346,194632,2.36314,0.273768,-1.46522,-48.9475,-379.715,-156.4325
347,194728,2.756468,0.28377199999999997,-1.422764,-55.685,-382.3225,-160.0725
348,194824,3.122468,0.150792,-1.244156,-56.455,-382.515,-166.88
349,194920,3.4077040000000003,0.029036000000000003,-0.9298841,-56.49,-381.4125,-170.7475
350,195017,3.736616,0.08637601,0.528992,-52.1675,-378.1225,-158.375
351,195113,3.8493440000000003,-0.0183,0.20374,-28.5075,-304.115,-144.76
352,195209,4.108472,-0.5463161,0.619516,-6.055,-326.1125,-134.7325
353,195305,3.6270599999999997,-1.522804,2.008364,-38.43,-310.2925,-137.9
354,195402,3.4911519999999996,-1.8949040000000001,3.3476800000000004,-117.8275,-279.055,-128.9925
355,195498,3.6163239999999996,-1.9002720000000002,3.851296,-193.655,-196.5425,-103.5475
356,195594,2.568588,-1.0018639999999999,3.457968,-179.0775,-97.1075,-42.595
357,195690,2.42658,-0.21594000000000002,2.3550880000000003,-68.635,11.7425,30.345
358,195787,0.14274,-0.209352,0.26913200000000004,146.72,170.87,111.8775
359,195883,-1.367376,-0.226188,-3.232512,210.875,214.69,159.215
360,195979,0.643428,-0.072956,-0.5382640000000001,110.425,278.635,111.5975
361,196075,1.514752,-1.278316,0.183732,120.6975,324.8875,68.4775
362,196172,1.8953919999999997,-0.540948,-1.11386,38.71,324.2575,21.8575
363,196268,2.34362,-1.140456,-1.166808,20.7725,328.4925,26.9675
364,196364,2.50466,-0.9113399999999999,-1.1089799999999999,-6.5275,288.61,52.15
365,196460,2.277252,0.395036,-1.41032,-57.995,231.21,56.07
366,196557,3.159068,3.0768400000000002,-2.805512,-40.1625,188.2125,58.1525
367,196653,0.576328,0.09735601,0.5499761,121.59,24.3075,36.7675
368,196749,0.9398880999999999,-0.45579200000000003,-1.292224,105.175,40.1625,51.03
369,196846,1.128012,0.260104,-0.7666480999999999,33.9675,69.2475,7.0875
370,196942,1.0431,0.08954801,-0.8166680000000001,32.4275,10.9025,8.365
371,197038,0.7076001000000001,0.032208,-0.6329359999999999,27.3175,10.01,3.78
372,197134,0.764696,0.22716399999999998,-0.7610359999999999,15.4525,5.8275,4.62
373,197231,0.690764,0.148596,-0.7417600000000001,16.7475,5.39,5.0575
374,197327,0.7007680000000001,0.180072,-0.759084,14.4725,3.0275,6.3
375,197423,0.670024,0.162504,-0.738588,12.635,1.3125,5.635
376,197519,0.6753920999999999,0.162504,-0.749812,10.8675,-0.525,4.5675
377,197616,0.662216,0.15420799999999998,-0.743224,9.59,-1.1375,3.0975
378,197712,0.654652,0.17568,-0.752984,7.945,-1.435,1.4
379,197808,0.644404,0.175924,-0.742492,7.7175,-1.82,0.8575
380,197905,0.6566041,0.190808,-0.7415161,7.0875,-1.7325,0.5075
381,198001,0.659776,0.20496,-0.726876,6.8425,-1.8725,0.8400001
382,198097,0.662216,0.193004,-0.731268,6.7375,-2.8525,1.435
383,198193,0.653188,0.186416,-0.7283400999999999,6.72,-3.955,1.68
384,198290,0.646844,0.202276,-0.733708,6.79,-4.62,1.96
385,198386,0.651968,0.202032,-0.73688,7.6125,-5.8275,2.9575
386,198482,0.646844,0.187636,-0.7366361,9.0125,-7.2975,4.655
387,198578,0.638548,0.163968,-0.735172,9.4675,-8.0325,5.74
388,198675,0.643428,0.14396,-0.735904,8.785,-7.455,5.425
389,198771,0.640012,0.144448,-0.7473721,7.21,-5.425,4.165
390,198867,0.6329359999999999,0.133224,-0.7483479999999999,6.335,-3.7975,2.8875
391,198964,0.638548,0.15616,-0.7510321,5.425,-1.47,1.7325
392,199060,0.64904,0.163968,-0.731024,4.83,0.42,1.1725
393,199156,0.6502600000000001,0.16811600000000002,-0.7288279999999999,4.5675,1.645,1.505
394,199252,0.64904,0.153476,-0.7320001,3.955,2.31,1.6625
395,199349,0.6480640000000001,0.126636,-0.727608,3.395,3.7975,1.8375
396,199445,0.6563601,0.15054800000000002,-0.7320001,1.54,6.65,0.8400001
397,199541,0.653188,0.160552,-0.7329760000000001,-0.0525,8.855,0.3675
398,199637,0.651968,0.161772,-0.7415161,-1.0325,10.57,0.8925
399,199734,0.66246,0.180072,-0.73078,-1.8725,12.0225,1.6275
400,199830,0.666608,0.200568,-0.735172,-2.0825,12.9325,2.8875
401,199926,0.6688041,0.194712,-0.7300479999999999,-1.5225,13.475,5.74
402,200023,0.661728,0.188368,-0.7198,-1.925,15.435,8.2075
403,200119,0.6688041,0.205936,-0.673928,-4.13,17.3775,11.1125
404,200215,0.5968241,0.162748,-0.84424,-4.375,20.265,16.905
405,200311,0.6602640000000001,0.168604,-0.7722600000000001,-1.4525,26.565,21.7525
406,200408,0.614636,0.1769,-0.832528,-4.095,36.33,23.3625
407,200504,0.6222,0.12566,-0.815204,-1.435,46.655,24.1325
408,200600,0.607316,0.09589201,-0.8422879999999999,1.5575,60.305,21.3675
409,200696,0.612196,0.10833599999999999,-0.8298440999999999,1.3825,75.075,18.7075
410,200793,0.6368401,0.13054000000000002,-0.8230120999999999,3.1325,90.685,16.8
411,200889,0.6348881,0.186904,-0.8510719999999999,4.515,105.6825,18.2175
412,200985,0.6502600000000001,0.21472,-0.8518040000000001,8.645,119.5775,23.1875
413,201081,0.651968,0.296948,-0.8759601,14.9275,136.9025,32.865
414,201178,0.633912,0.274012,-0.87474,19.88,153.51,51.2575
415,201274,0.649284,0.16835999999999998,-0.9208561,20.2475,171.815,74.48
416,201370,0.5489999999999999,0.316712,-0.98088,28.105,189.63,100.31
417,201466,0.50874,0.25132,-0.9391560999999999,51.205,214.3575,128.345
418,201563,1.033828,-0.112728,-0.643672,55.51,248.0625,153.6675
419,201659,0.374784,0.125416,-0.620004,19.18,277.1125,181.23
420,201755,1.312964,0.356484,-0.30866,-18.48,331.0125,193.515
421,201851,3.00486,0.55632,-1.628944,-0.5425,472.64,223.5975
422,201948,2.8247880000000003,0.840824,-2.463912,-9.695,518.14,215.4075
423,202044,1.8534240000000002,0.49556400000000006,-1.536956,10.395,452.3925,198.975
424,202140,2.393152,0.6944241,-1.713368,24.395,423.99,202.615
425,202236,2.3333720000000002,0.654652,-1.575508,9.0125,398.23,185.885
426,202333,1.7985240000000002,0.8359440999999999,-1.898564,-42.7175,458.3075,175.3675
427,202429,1.441308,1.2014559999999999,-3.388672,-45.78,488.6525,164.2375
428,202525,1.266604,1.7814439999999998,-2.94142,9.1875,264.7225,139.825
429,202622,1.501576,1.7048279999999998,-2.81576,22.715,17.605,57.05
430,202718,0.07490801,1.494744,-1.814628,24.7275,-104.265,-21.91
431,202814,-0.562176,1.037,-1.141432,46.3575,-150.045,-60.13
432,202910,-0.47775200000000007,0.659288,-0.9389120000000001,50.2425,-133.875,-81.2
433,203007,-0.20374,0.48116800000000004,-0.987956,31.43,-124.0925,-90.52750999999999
434,203103,0.013175999999999998,0.443104,-1.08336,5.0225,-132.86,-95.5675
435,203199,0.209108,0.453108,-1.184376,-14.56,-155.9775,-98.6475
436,203295,0.333304,0.434564,-1.191452,-23.66,-187.0225,-101.045
437,203392,0.457988,0.376492,-1.148508,-27.685,-218.575,-106.155
438,203488,0.5260640000000001,0.326228,-1.050908,-31.29,-248.045,-114.66
439,203584,0.574864,0.27694,-0.9476959999999999,-34.2125,-272.5275,-124.0925
440,203680,0.666608,0.221552,-0.8847440999999999,-36.295,-289.835,-131.4775
441,203777,0.7605481,0.182756,-0.8540000000000001,-37.415,-301.0175,-136.9375
442,203873,0.864492,0.1586,-0.8471681000000001,-38.3425,-310.4325,-140.42
443,203969,0.9703879999999999,0.156892,-0.8815719999999999,-39.4975,-318.745,-143.92
444,204065,1.083604,0.18470799999999998,-0.9376921,-39.8475,-326.375,-147.2975
445,204162,1.217316,0.21008400000000002,-1.000156,-39.0425,-332.605,-150.7975
446,204258,1.342488,0.221552,-1.0643280000000002,-37.1525,-339.2375,-155.0675
447,204354,1.47376,0.213988,-1.1394799999999998,-36.3825,-345.345,-159.775
448,204451,1.624064,0.205692,-1.253184,-38.255,-350.91,-163.5375
449,204547,1.815848,0.19397999999999999,-1.4034879999999998,-42.7525,-355.4775,-164.71
450,204643,2.123288,0.2135,-1.532076,-49.1925,-360.6225,-163.0825
451,204739,2.470012,0.266448,-1.565016,-57.575,-368.2525,-161.63
452,204836,2.8796880000000002,0.27816,-1.482544,-64.4525,-377.0725,-164.5875
453,204932,3.226656,0.138104,-1.257576,-68.04,-383.6525,-172.0425
454,205028,3.457236,0.036844,-0.9015799999999999,-74.9525,-388.9725,-180.4425
455,205124,3.5694760000000003,0.16128399999999998,-0.483364,-78.5925,-387.5025,-181.79
456,205221,3.746132,0.09979600000000001,0.08052000000000001,-63.1575,-368.7775,-173.74
457,205317,3.7475959999999997,-0.48531599999999997,0.945256,-33.6875,-333.13,-161.42
458,205413,3.3257199999999996,-1.523536,2.14964,-29.61,-298.3225,-142.0475
459,205509,3.527508,-2.077904,3.3593919999999997,-99.715,-239.4175,-128.38
460,205606,3.917664,-2.197464,3.7327120000000003,-206.115,-156.6075,-107.4675
461,205702,2.88042,-1.17486,3.2696,-195.3525,-71.54,-45.675
462,205798,2.296284,-0.667828,2.459276,-79.8875,28.28,20.1775
463,205894,2.6059200000000002,-0.5958479999999999,1.260504,46.585,163.5725,75.7225
464,205991,2.306288,0.17763199999999998,-1.500844,106.2775,176.295,121.24
465,206087,-1.7890080000000002,0.433832,-4.266584,167.8425,178.6925,187.7925
466,206183,-2.381928,1.76656,-3.114904,156.1525,118.6325,193.9
467,206279,0.49044,-2.161352,2.622268,236.215,236.7925,92.1725
468,206376,1.802916,-0.8796200000000001,-0.9293961,94.3425,304.08,37.8175
469,206472,2.9933919999999996,-1.01016,-1.963224,12.3375,372.8725,32.27
470,206568,1.86782,-1.1270360000000001,-0.6956439999999999,23.3975,227.9725,61.4075
471,206665,1.83122,-0.08369201,-1.2907600000000001,-35.35,224.49,75.3025
472,206761,2.306532,1.8541560000000001,-2.453908,-56.2275,192.43,61.425
473,206857,2.052772,1.6933599999999998,-0.8291120999999999,57.4875,143.36,59.185
474,206953,0.393572,-0.491904,-0.366244,155.9775,18.0775,39.3225
475,207050,1.3949479999999999,-0.164456,-1.094584,51.8875,87.2375,18.3575
476,207146,0.91622,0.400404,-0.6902761,31.6925,28.9975,6.545
477,207242,0.7890961,-0.146644,-0.7195560000000001,29.8725,15.82,3.9025
478,207338,0.744444,0.271084,-0.739808,14.5775,8.4,1.82
479,207435,0.7078439999999999,0.196664,-0.7320001,15.4525,10.43,3.535
480,207531,0.697108,0.18544000000000002,-0.7422481,16.695,5.4075,6.5625
481,207627,0.685884,0.179096,-0.745664,14.42,3.7275,6.8425
482,207724,0.6790520999999999,0.155428,-0.739808,13.615,1.5225,6.7025
483,207820,0.6756361,0.153232,-0.752496,10.955,0.63,5.18
484,207916,0.653188,0.16592,-0.7571321,9.31,-0.105,3.78
485,208012,0.6414761,0.163968,-0.753228,8.7325,-0.5425,2.94
486,208109,0.661972,0.17934,-0.739808,7.84,0.0175,2.345
487,208205,0.6749041,0.180072,-0.72102,7.42,0.42,2.135
488,208301,0.665876,0.182756,-0.725168,7.0175,-0.245,2.345
489,208397,0.659288,0.180316,-0.7324881,7.2625,-1.225,2.59
490,208494,0.665876,0.170312,-0.7278521,7.6475,-2.065,2.94
491,208590,0.664412,0.17763199999999998,-0.724924,7.805,-2.765,3.1325
492,208686,0.656848,0.181536,-0.731024,7.805,-3.71,3.22
493,208782,0.658556,0.17763199999999998,-0.729072,8.015,-4.27,3.78
494,208879,0.657092,0.153476,-0.73444,8.1375,-4.3925,4.34
495,208975,0.651968,0.148108,-0.7320001,6.965,-3.9025,3.71
496,209071,0.6480640000000001,0.151524,-0.7451760000000001,6.125,-2.765,2.7825
497,209167,0.6505041,0.15372,-0.7332201,5.565,-1.2425,2.1
498,209264,0.663192,0.171044,-0.721264,4.9875,0.2625,1.96
499,209360,0.664168,0.16909200000000002,-0.7239479999999999,5.18,0.91,2.52
500,209456,0.661972,0.162992,-0.7285841,5.215,0.98,2.9925
501,209552,0.661484,0.144448,-0.731024,4.9175,1.2075,3.185
502,209649,0.6663640000000001,0.137128,-0.71614,4.2175,2.4675,3.255
503,209745,0.658068,0.147376,-0.7300479999999999,2.87,4.48,2.87
504,209841,0.659776,0.145424,-0.7285841,1.5575,6.195,2.73
505,209938,0.662948,0.16104000000000002,-0.731024,0.2975,7.9975,3.395
506,210034,0.6649,0.16592,-0.7224841,-0.0875,9.2225,4.3925
507,210130,0.6675840000000001,0.173484,-0.721264,-0.9625,10.5875,5.5475
508,210226,0.6675840000000001,0.15274400000000002,-0.7176041,-2.17,11.795,6.7375
509,210323,0.6600201,0.193004,-0.640012,-4.2,13.755,7.9275
510,210419,0.62464,0.12468399999999999,-0.8252079999999999,-5.3375,17.1325,9.4675
511,210515,0.6158561,0.16714,-0.834968,-5.3025,19.6,11.69
512,210611,0.621468,0.160308,-0.80886,-0.665,32.0775,13.755
513,210708,0.626104,0.12566,-0.8127641,-4.655,43.05,14.8575
514,210804,0.62098,0.10394400000000001,-0.8188641,-2.5025,56.63,15.1025
515,210900,0.629764,0.11760799999999999,-0.7951961,-2.17,69.9475,13.3
516,210996,0.64172,0.15201199999999998,-0.7956840999999999,-1.1025,83.335,12.18
517,211093,0.646844,0.172752,-0.826428,-0.315,97.3525,14.5075
518,211189,0.662948,0.23155599999999998,-0.8369200000000001,2.6425,111.9825,19.1975
519,211285,0.659532,0.28694400000000003,-0.833992,6.5975,127.645,28.8925
520,211382,0.626836,0.238632,-0.8652241,7.7175,146.125,46.7425
521,211478,0.6007279999999999,0.128344,-0.8874280999999999,8.575,165.515,66.6575
522,211574,0.510936,0.28426,-0.999668,15.9775,186.5325,85.99501
523,211670,0.490684,0.20837600000000003,-0.9821,39.795,213.115,107.1175
524,211767,1.526952,-0.026108,-0.450668,51.7125,249.69,129.4475
525,211863,-0.51484,0.09394001,-1.826096,35.63,295.855,158.55
526,211959,0.41455600000000004,0.570472,-0.025376,19.11,255.1675,167.37
527,212055,1.781932,0.3904,-0.370148,-8.19,394.415,167.58
528,212152,3.0746439999999997,0.8071520000000001,-2.42536,-29.1725,505.4875,172.5325
529,212248,2.281156,0.321836,-1.2336639999999999,-15.2775,483.77,166.8625
530,212344,2.262612,0.066856,-1.159244,32.4275,459.585,182.7
531,212441,2.660576,0.6946681,-1.813652,-11.7075,419.545,172.1825
532,212537,2.22528,0.649528,-1.135332,-46.2175,365.785,154.525
533,212633,1.382016,0.7078439999999999,-2.227476,-88.69,442.715,159.95
534,212729,1.58112,0.9345201,-4.093588,-79.555,467.5825,152.04
535,212826,1.1033680000000001,1.5767280000000001,-2.985584,-25.7425,123.1825,132.9475
536,212922,0.922076,1.464732,-2.5693200000000003,-27.7375,-73.64,62.72
537,213018,-0.42944,1.337364,-1.482056,-20.72,-165.935,6.3
538,213114,-0.6348881,1.017968,-1.086288,-1.96,-168.42,-29.8725
539,213211,-0.40894400000000003,0.767868,-1.004548,5.775,-147.5775,-54.425
540,213307,-0.117852,0.63318,-1.11142,-2.3975,-139.965,-72.17
541,213403,0.174216,0.60268,-1.279048,-16.835,-150.465,-89.72251
542,213500,0.404796,0.586088,-1.398608,-25.13,-178.0275,-106.155
543,213596,0.46774799999999994,0.48092399999999996,-1.346392,-23.4325,-215.0575,-120.26
544,213692,0.478972,0.32452,-1.2021879999999998,-18.935,-248.4825,-132.3875
545,213788,0.532896,0.19154000000000002,-1.072136,-19.0225,-271.7925,-141.9425
546,213885,0.6168319999999999,0.12322000000000001,-0.9813681000000001,-22.3475,-285.775,-148.54
547,213981,0.711992,0.07393200000000001,-0.9437921,-24.3425,-295.89,-151.0425
548,214077,0.84546,0.049044,-0.964044,-24.3425,-303.4325,-150.7975
549,214173,0.996008,0.042212,-1.026508,-23.8525,-311.465,-149.5025
550,214270,1.127768,0.051484,-1.1041,-23.73,-322.805,-147.98
551,214366,1.23586,0.062952,-1.154364,-23.6425,-335.755,-146.685
552,214462,1.294908,0.07515201,-1.16266,-24.0275,-348.705,-145.635
553,214559,1.373476,0.096868,-1.18706,-25.6725,-357.455,-144.3225
554,214655,1.481324,0.130052,-1.244644,-28.9975,-360.9375,-142.7825
555,214751,1.610644,0.14493599999999998,-1.342976,-33.1975,-360.815,-141.26
556,214847,1.8478119999999998,0.2074,-1.423252,-39.865,-358.225,-139.5625
557,214944,2.214544,0.3843,-1.457168,-48.44,-353.675,-137.6725
558,215040,2.649108,0.566812,-1.381772,-49.6125,-350.385,-138.32
559,215136,3.022184,0.42578,-1.23464,-37.6425,-347.0075,-146.1425
560,215232,3.5155519999999996,0.139324,-1.02236,-32.1825,-341.3375,-161.2975
561,215329,3.8981440000000003,0.0305,-0.748592,-46.27,-343.5075,-172.3925
562,215425,4.0643080000000005,-0.130296,-0.21667199999999998,-64.61,-356.5275,-176.365
563,215521,3.936208,-0.6058520000000001,0.691008,-70.4025,-356.8425,-182.5775
564,215617,3.6102239999999997,-1.281244,1.9541959999999998,-72.7125,-342.2125,-186.3925
565,215714,3.943772,-1.7341080000000002,3.3049800000000005,-100.135,-292.04,-192.99
566,215810,4.10896,-2.0764400000000003,4.164348,-144.3225,-215.8975,-174.37
567,215906,2.996564,-1.533052,3.895948,-140.3325,-130.935,-97.895
568,216003,1.794864,-0.7617681,3.202256,-58.5375,-30.6775,-2.9575
569,216099,0.8176439999999999,-0.6439159999999999,0.486292,43.5225,137.4275,77.42
570,216195,-1.043344,-0.133224,-2.265052,116.8825,208.7575,164.8675
571,216291,-2.738412,1.45912,-3.9469440000000002,101.325,190.19,191.45
572,216388,0.79178,-0.39918400000000004,1.48474,97.72,273.0,152.7575
573,216484,2.160376,-0.678808,-0.388204,88.69,371.035,79.2925
574,216580,2.551752,0.08637601,-1.8602560000000001,13.265,345.7825,44.3625
575,216676,2.0191,-0.87108,-0.9701440999999998,36.5925,268.1525,49.5425
576,216773,2.23748,-0.772748,-1.1155680000000001,14.07,249.41,69.58
577,216869,2.045208,0.20447200000000001,-1.598932,-43.47,223.3,61.775
578,216965,2.731336,2.543456,-2.716208,-24.22,173.67,70.175
579,217061,1.153144,0.639768,0.133956,88.55,72.2225,58.9575
580,217158,0.66856,-0.167628,-1.003328,114.625,34.9475,52.8675
581,217254,1.085068,-0.100284,-0.79422,56.525,73.90250999999999,18.2
582,217350,1.129232,0.26108000000000003,-0.82594,37.1525,30.2575,17.5875
583,217447,0.927932,-0.184952,-0.731268,34.16,16.17,7.105
584,217543,0.70028,0.305244,-0.7278521,18.3575,6.5975,6.65
585,217639,0.7388319999999999,0.177876,-0.735172,18.1125,10.78,6.86
586,217735,0.700036,0.164212,-0.7478600000000001,18.97,5.3725,8.1375
587,217832,0.702232,0.1891,-0.7449321,15.4175,4.6375,7.4375
588,217928,0.6836880999999999,0.16835999999999998,-0.744688,14.6825,1.9775,7.3325
589,218024,0.6709999999999999,0.164456,-0.74664,12.95,0.56,6.23
590,218120,0.658312,0.171532,-0.75274,11.06,-0.0175,4.7075
591,218217,0.644648,0.193736,-0.7503,10.2375,-0.595,3.675
592,218313,0.6390359999999999,0.19032000000000002,-0.74542,9.4325,-1.0675,2.9575
593,218409,0.665632,0.187636,-0.7300479999999999,8.47,-1.47,2.8175
594,218505,0.6663640000000001,0.19983599999999999,-0.7237041,9.2225,-2.1175,3.85
595,218602,0.6612401,0.19764,-0.727364,9.7475,-3.08,4.7075
596,218698,0.647576,0.192272,-0.7256560000000001,10.43,-4.6025,5.3725
597,218794,0.6441600000000001,0.187148,-0.7332201,10.7625,-5.95,5.9325
598,218890,0.6502600000000001,0.179828,-0.735416,10.745,-7.1225,6.0025
599,218987,0.648308,0.19032000000000002,-0.7388319999999999,10.22,-7.4025,5.7575
600,219083,0.6588,0.179828,-0.727608,10.0975,-7.6475,6.65
601,219179,0.6558721,0.14713199999999999,-0.731268,9.695,-7.3675,7.3325
602,219275,0.6512359999999999,0.130052,-0.729072,8.4875,-5.845,6.72
603,219372,0.648308,0.142984,-0.743468,7.6125,-4.305,5.6175
604,219468,0.648308,0.145912,-0.729316,6.615,-3.15,5.04
605,219564,0.65758,0.14884,-0.7317560000000001,5.74,-1.33,4.795
606,219661,0.6605081,0.142008,-0.7317560000000001,5.04,0.5075,4.865
607,219757,0.660752,0.140544,-0.7283400999999999,4.27,1.96,4.4975
608,219853,0.657824,0.12395199999999999,-0.7320001,2.695,4.0425,3.92
609,219949,0.655384,0.141276,-0.7329760000000001,1.12,6.685,3.29
610,220046,0.6649,0.155916,-0.73078,-0.8400001,9.03,3.08
611,220142,0.6653880999999999,0.161528,-0.7239479999999999,-1.365,10.43,3.85
612,220238,0.662948,0.15372,-0.725412,-1.8725,11.34,4.725
613,220334,0.665144,0.165676,-0.7229720000000001,-2.8525,12.8275,5.6525
614,220431,0.665144,0.16226,-0.7217521,-4.445,15.1725,7.595
615,220527,0.6517241,0.217648,-0.7556681,-5.88,17.885,11.235
616,220623,0.681492,0.2013,-0.73078,-1.9425,20.9825,15.68
617,220719,0.6219561,0.10931199999999999,-0.764696,-0.7,26.1625,16.9575
618,220816,0.61366,0.194224,-0.8044680999999999,-4.6725,35.42,17.4475
619,220912,0.6229319999999999,0.114192,-0.813496,-2.415,46.3575,17.675
620,221008,0.613904,0.13054000000000002,-0.8332601000000001,0.245,60.6375,17.325
621,221105,0.6390359999999999,0.09150001,-0.797392,1.33,75.1275,15.89
622,221201,0.630984,0.135664,-0.8230120999999999,2.3625,90.37001,14.875
623,221297,0.641232,0.14078800000000002,-0.808372,5.67,105.805,15.855
624,221393,0.655628,0.20618000000000003,-0.8510719999999999,9.555,122.1325,19.9325
625,221490,0.681492,0.251808,-0.815448,13.8775,134.085,27.9825
626,221586,0.6456241,0.260104,-0.821792,18.445,147.0525,43.8025
627,221682,0.6541640000000001,0.189344,-0.8845,20.195,162.61,61.8975
628,221778,0.61732,0.266692,-0.9572120999999999,26.4775,178.465,81.06
629,221875,0.54656,0.334036,-0.951356,46.41,194.355,105.56
630,221971,1.5001120000000001,0.136152,-0.6753920999999999,69.73751,232.6975,132.5625
631,222067,-0.8425321,0.22326,-1.706048,66.395,243.8625,162.3825
632,222163,0.873764,0.126636,-0.156648,42.1925,202.5275,164.36
633,222260,1.4715639999999999,0.7217521,-0.75274,11.55,365.925,189.77
634,222356,2.95362,0.6939361,-2.0693639999999998,42.9275,459.9525,206.395
635,222452,2.472208,0.160064,-1.405196,46.2525,453.215,199.7275
636,222549,2.30702,0.406748,-1.287588,57.68,425.915,202.6675
637,222645,2.692296,0.8483879999999999,-1.8602560000000001,30.59,394.555,192.465
638,222741,2.189412,0.7390760000000001,-1.1712,12.32,361.9525,182.455
639,222837,1.295152,0.83204,-2.053992,-16.59,461.405,188.3875
640,222934,1.6521240000000001,0.9772200999999999,-3.6360879999999995,1.8725,479.465,175.3325
641,223030,1.386164,1.630896,-2.817956,39.445,156.345,139.055
642,223126,1.15534,1.596248,-2.4573240000000003,11.13,-24.955,43.0325
643,223222,-0.1586,1.443748,-1.486936,8.33,-131.5475,-21.6125
644,223319,-0.484584,1.04554,-1.03944,26.25,-142.7475,-58.415
645,223415,-0.456768,0.7617681,-0.8591241,33.6525,-129.6575,-74.41
646,223511,-0.233264,0.593164,-0.9118280000000001,22.575,-118.195,-82.0575
647,223607,0.038796,0.5663239999999999,-1.057496,2.3625,-122.36,-88.585
648,223704,0.319884,0.612684,-1.229516,-15.155,-141.715,-96.86251
649,223800,0.477264,0.623908,-1.2702639999999998,-22.015,-175.525,-106.505
650,223896,0.534116,0.558028,-1.186816,-21.1925,-213.71,-118.2825
651,223992,0.558516,0.46848,-1.041636,-20.1075,-246.1375,-131.1975
652,224089,0.604388,0.365512,-0.9137799999999999,-21.35,-269.5175,-142.7825
653,224185,0.692228,0.288652,-0.820816,-25.2,-285.2675,-151.6725
654,224281,0.764696,0.230336,-0.7700640999999999,-30.3275,-295.365,-158.69
655,224378,0.8708360999999999,0.197884,-0.7832399999999999,-34.7725,-301.91,-163.6075
656,224474,1.016504,0.187392,-0.854244,-36.8025,-306.495,-166.6875
657,224570,1.134844,0.17738800000000002,-0.917684,-36.2775,-312.69,-168.105
658,224666,1.233176,0.1525,-0.967216,-35.6125,-319.62,-169.12
659,224763,1.328092,0.125172,-1.0262639999999998,-36.1725,-325.815,-170.7125
660,224859,1.418372,0.100284,-1.097024,-38.7275,-330.6275,-171.605
661,224955,1.511336,0.085156,-1.187548,-42.7,-333.48,-170.2575
662,225051,1.634312,0.08003201,-1.3139399999999999,-47.985,-334.95,-166.53
663,225148,1.8109680000000001,0.07686,-1.455704,-54.1625,-335.58,-161.56
664,225244,2.179408,0.10394400000000001,-1.5603799999999999,-62.1775,-334.285,-157.0625
665,225340,2.6593560000000003,0.110776,-1.547936,-69.685,-334.74,-155.5925
666,225436,3.1354,0.025376,-1.407148,-74.445,-340.2525,-158.7425
667,225533,3.45382,-0.12566,-1.135332,-76.1775,-350.4025,-162.7675
668,225629,3.5868,-0.05929201,-0.765428,-77.28,-365.785,-162.715
669,225725,3.685132,-0.122244,-0.208132,-65.135,-371.2625,-156.1525
670,225822,3.64658,-0.5665680000000001,0.644648,-42.98,-354.4975,-152.18
671,225918,3.347924,-1.476688,1.8934400000000002,-33.74,-324.7125,-146.09
672,226014,3.6009519999999995,-2.075708,3.222752,-67.8125,-269.0625,-132.8075
673,226110,3.958412,-2.382416,3.841536,-137.13,-189.875,-113.365
674,226207,3.024868,-1.506212,3.372324,-138.5475,-108.2025,-61.2675
675,226303,1.9903080000000002,-0.849852,2.693516,-45.92,-19.005,8.4525
676,226399,1.640412,-0.922076,0.475312,62.0025,120.3825,63.9275
677,226496,-0.8527800999999999,-0.022203999999999998,-2.151104,138.6175,184.7475,151.095
678,226592,-2.30824,1.1916959999999999,-3.4513800000000003,115.4825,163.59,164.7625
679,226688,0.394548,-0.704916,1.297836,124.8625,251.16,144.8475
680,226784,2.189168,-0.9511120000000001,-0.5975560000000001,108.325,363.3175,94.4825
681,226881,2.547116,-0.22935999999999998,-1.7755880000000002,17.0275,346.7275,61.3375
682,226977,2.043744,-0.8698601,-0.759328,32.62,254.1175,67.935
683,227073,2.385344,-0.17738800000000002,-1.458876,-16.6775,255.8325,66.6575
684,227169,2.798192,1.7333759999999998,-2.811124,-38.9375,210.4025,53.48
685,227266,2.133048,1.214388,-0.811056,62.0025,133.4725,59.2375
686,227362,0.066124,-0.171044,-0.443592,154.63,2.2925,55.755
687,227458,1.236348,-0.246928,-1.067256,54.5825,84.0525,19.565
688,227555,0.9325680000000001,0.391864,-0.741028,36.5225,30.1875,10.36
689,227651,0.9650200999999999,-0.151524,-0.8052,31.43,19.355,4.8475
690,227747,0.7329760000000001,0.167872,-0.6675840000000001,17.57,7.21,0.8925
691,227843,0.7241920000000001,0.23301999999999998,-0.7551800000000001,10.71,9.17,2.4325
692,227940,0.684908,0.183,-0.7417600000000001,13.93,5.565,2.3975
693,228036,0.682956,0.219844,-0.743224,11.4625,4.3225,3.4475
694,228132,0.663924,0.180072,-0.741028,12.705,2.345,4.5675
695,228228,0.663924,0.17934,-0.748592,12.075,1.12,4.7075
696,228325,0.6517241,0.17128800000000002,-0.749812,10.99,0.6825,3.85
697,228421,0.646844,0.183976,-0.74664,9.765,0.0875,2.9225
698,228517,0.646112,0.18324400000000002,-0.74298,9.03,-0.2275,2.4675
699,228614,0.6497721,0.19861600000000001,-0.730536,8.8375,-0.8575,2.59
700,228710,0.670268,0.20788800000000002,-0.729072,7.8225,-1.2425,2.59
701,228806,0.6541640000000001,0.195444,-0.7356600000000001,8.9425,-2.2225,3.7975
702,228902,0.653432,0.200568,-0.733708,9.5725,-3.255,4.6025
703,228999,0.6463561,0.186904,-0.7381001,10.5875,-4.585,5.215
704,229095,0.647332,0.170312,-0.735416,10.745,-5.53,5.3375
705,229191,0.637084,0.179096,-0.741272,9.485,-5.845,4.9875
706,229288,0.6414761,0.172264,-0.7327321,8.4875,-5.46,4.8125
707,229384,0.648308,0.168604,-0.739564,7.9625,-4.97,4.5675
708,229480,0.6453800000000001,0.158356,-0.7381001,7.2975,-3.9025,3.8675
709,229576,0.643184,0.168848,-0.743712,6.195,-3.4125,3.4125
710,229673,0.649284,0.164456,-0.73444,6.1425,-2.4675,3.1325
711,229769,0.6539201,0.174948,-0.726388,5.6875,-1.2425,3.0975
712,229865,0.6527,0.1708,-0.7332201,5.5475,-0.455,3.465
713,229961,0.6497721,0.156892,-0.73688,4.7075,0.28,3.605
714,230058,0.654652,0.13859200000000002,-0.7317560000000001,3.9025,1.9075,3.255
715,230154,0.652456,0.142008,-0.73688,2.5725,4.2525,2.1525
716,230250,0.650748,0.149572,-0.7381001,1.015,6.5975,1.0675
717,230346,0.649284,0.16714,-0.738588,0.105,8.645,0.875
718,230443,0.6612401,0.17055599999999999,-0.732244,-0.7525,10.0975,1.2075
719,230539,0.659044,0.16958,-0.7327321,-1.19,11.235,1.9075
720,230635,0.667828,0.174704,-0.729072,-1.855,13.09,2.9925
721,230732,0.652212,0.176656,-0.7285841,-2.66,15.1025,4.7425
722,230828,0.656116,0.195932,-0.7241920000000001,-4.0075,17.8675,7.1225
723,230924,0.593164,0.121268,-0.8108121,-3.08,22.3125,11.235
724,231020,0.6441600000000001,0.142496,-0.7956840999999999,-2.5725,30.695,14.21
725,231117,0.6182960999999999,0.14786400000000002,-0.815936,-3.99,40.9675,13.335
726,231213,0.624396,0.130296,-0.822768,-3.5875,53.3225,12.67
727,231309,0.610488,0.12468399999999999,-0.823744,-2.03,67.655,12.215
728,231405,0.624396,0.137128,-0.8103239999999999,-1.33,82.3375,11.655
729,231502,0.632448,0.15420799999999998,-0.79666,0.1575,96.28501,11.795
730,231598,0.642452,0.198128,-0.7922680000000001,2.2925,110.2675,13.86
731,231694,0.652944,0.223992,-0.8203280000000001,4.55,123.305,19.845
732,231790,0.677832,0.258152,-0.826672,8.015,135.205,28.525
733,231887,0.6512359999999999,0.313052,-0.833016,13.4575,149.59,43.8375
734,231983,0.596336,0.305976,-0.8698601,17.5525,162.8725,67.725
735,232079,0.5751081,0.23838800000000002,-0.930372,30.3625,185.1675,92.4525
736,232175,0.8471681000000001,0.231068,-0.8174001000000001,51.0825,214.0775,113.8025
737,232272,2.00446,0.04514,-1.021384,69.9475,306.6175,139.2825
738,232368,-0.5214281,0.07564,-1.9337,74.9525,377.125,150.0625
739,232464,0.306464,0.64904,1.34322,26.0225,180.6875,179.6725
740,232561,1.765584,0.2745,-0.733464,6.3525,368.1475,168.9625
741,232657,3.3928199999999995,0.807884,-2.178188,-23.1175,495.53,179.935
742,232753,2.5756639999999997,0.64904,-1.83,8.54,483.8925,175.5775
743,232849,1.848544,0.050263999999999996,-0.8964561,58.52,443.6775,188.7025
744,232946,2.5695639999999997,0.6229319999999999,-1.72386,24.8325,422.7475,185.64
745,233042,2.107184,0.7407841,-1.215852,-14.4725,387.94,165.2
746,233138,1.6989720000000001,0.805688,-2.141588,-58.73,465.465,165.5675
747,233234,1.496208,0.868396,-3.6722,-38.43,470.3125,164.92
748,233331,1.3764040000000002,1.434964,-2.978508,1.0675,200.55,149.135
749,233427,1.4313040000000001,1.4483840000000001,-2.753784,-22.5225,-31.535,71.5925
750,233523,-0.038308,1.436672,-1.7111720000000001,-35.56,-154.0875,-1.05
751,233620,-0.44944799999999996,1.112152,-1.1529,-14.6475,-186.165,-40.0575
752,233716,-0.423828,0.794708,-0.8908440999999999,0.77,-175.7175,-63.35
753,233812,-0.24766,0.592188,-0.8430200999999999,-1.9775,-166.4075,-75.2675
754,233908,0.000244,0.498004,-0.921344,-18.3575,-164.3775,-86.31
755,234005,0.225212,0.49995600000000007,-1.045296,-35.6825,-175.7,-98.28
756,234101,0.429928,0.499224,-1.136308,-43.5925,-196.385,-110.5125
757,234197,0.5734,0.42163199999999995,-1.14924,-41.0025,-222.53,-123.165
758,234293,0.676612,0.30402399999999996,-1.1102,-36.365,-250.425,-136.675
759,234390,0.725412,0.188856,-1.022604,-34.3,-275.135,-150.0275
760,234486,0.7983680000000001,0.091988,-0.96014,-35.6475,-294.28,-160.8075
761,234582,0.8769360999999999,0.029768,-0.918416,-38.885,-308.0875,-167.9125
762,234678,0.944768,-0.005368,-0.9154880999999999,-41.3875,-318.8325,-170.8525
763,234775,1.02846,-0.017812,-0.945744,-41.9475,-327.0225,-170.555
764,234871,1.13094,-0.020252000000000003,-1.006744,-40.67,-332.1325,-167.895
765,234967,1.23586,-0.032695999999999996,-1.062132,-38.2375,-336.315,-164.08
766,235063,1.332484,-0.048556,-1.1192280000000001,-36.995,-340.5675,-159.39
767,235160,1.441552,-0.050996,-1.190232,-38.815,-343.6475,-154.28
768,235256,1.54818,-0.001952,-1.262456,-43.6625,-345.66,-148.89
769,235352,1.731424,0.092964,-1.338096,-49.245,-344.61,-144.2525
770,235449,2.040816,0.199104,-1.38226,-52.22,-340.3925,-141.9775
771,235545,2.482212,0.271572,-1.3620079999999999,-49.6125,-335.65,-143.885
772,235641,2.9872919999999996,0.183,-1.2761200000000001,-41.72,-333.06,-151.69
773,235737,3.4953,0.0017079999999999999,-1.0765280000000002,-36.925,-334.18,-161.9275
774,235834,3.792004,-0.031964,-0.750788,-41.5975,-346.6575,-169.0325
775,235930,3.842024,-0.023912,-0.237168,-45.045,-365.925,-168.91
776,236026,3.815672,-0.407236,0.566812,-36.12,-364.49,-167.1425
777,236123,3.5136,-1.09556,1.63724,-32.165,-345.9575,-165.06
778,236219,3.280824,-1.60796,2.85724,-52.2025,-307.93,-153.9475
779,236315,3.4077040000000003,-1.9776200000000002,3.874476,-93.905,-235.5675,-135.7125
780,236411,3.4311279999999997,-1.9398,3.8891160000000005,-119.4725,-137.8825,-88.795
781,236508,1.323456,-0.9291520000000001,2.473672,-67.4975,-36.7325,-5.005
782,236604,0.2379,-0.254492,2.436096,59.9375,81.655,102.9525
783,236700,-1.316868,-0.511668,-2.602016,136.605,221.0075,170.8525
784,236796,0.424804,0.45896400000000004,-1.637728,67.7425,291.48,175.91
785,236893,2.137928,-0.7983680000000001,-0.048556,59.6225,349.6325,142.5725
786,236989,1.72386,-0.345016,-0.9154880999999999,51.66,292.005,127.715
787,237085,2.191608,-0.310856,-1.06628,15.155,291.935,111.58
788,237182,2.623488,-0.07637200000000001,-1.310768,-7.4375,280.455,100.345
789,237278,3.0624439999999997,1.7448439999999998,-2.803804,-30.1525,226.5725,69.055
790,237374,2.610312,1.074088,-1.276608,59.7275,151.27,50.0675
791,237470,0.135176,-0.502152,-0.278648,174.4575,-13.545,50.6975
792,237567,1.247816,-0.160552,-1.117032,40.8625,75.81,16.2225
793,237663,0.819108,0.309148,-0.6280560000000001,29.645,27.4575,7.5775
794,237759,0.9467200000000001,-0.07246799999999999,-0.7795801,24.4475,20.2475,-0.1575
795,237855,0.7468840999999999,0.14884,-0.657092,12.18,10.8675,-4.6375
796,237952,0.7241920000000001,0.25742,-0.743468,4.0075,9.6425,-2.485
797,238048,0.7044279999999999,0.119316,-0.743712,7.0875,7.175,-2.59
798,238144,0.681248,0.225456,-0.743712,3.535,6.615,-2.45
799,238241,0.672708,0.214232,-0.74542,4.025,5.215,-1.8025
800,238337,0.6663640000000001,0.190808,-0.7449321,4.83,3.92,-1.3825
801,238433,0.649284,0.183488,-0.74908,4.2875,3.185,-1.295
802,238529,0.637084,0.171532,-0.75274,3.6225,2.59,-1.6625
803,238626,0.6375721,0.17934,-0.7415161,2.8525,3.57,-2.4325
804,238722,0.6573359999999999,0.18470799999999998,-0.736392,1.645,4.8125,-3.3075
805,238818,0.656116,0.211548,-0.726388,0.6825,5.355,-3.4475
806,238914,0.6470880999999999,0.222284,-0.7241920000000001,0.8400001,4.725,-2.905
807,239011,0.670024,0.203252,-0.724924,1.2425,3.9725,-2.275
808,239107,0.642452,0.209352,-0.7237041,1.4175,2.73,-1.505
809,239203,0.642696,0.207644,-0.736392,1.645,2.52,-0.8925
810,239300,0.64904,0.208864,-0.72956,2.555,1.9075,-0.42
811,239396,0.648308,0.20837600000000003,-0.7229720000000001,3.0275,1.7675,0.3675
812,239492,0.6502600000000001,0.192272,-0.72468,4.2875,1.75,1.3825
813,239588,0.650992,0.181292,-0.7320001,5.075,2.03,1.96
814,239685,0.6497721,0.182756,-0.731024,5.18,2.3275,1.995
815,239781,0.659288,0.172996,-0.72102,4.9525,3.5875,1.785
816,239877,0.6649,0.174704,-0.7224841,4.8475,4.34,1.7325
817,239973,0.6661201,0.178852,-0.7139439999999999,4.7425,4.2175,1.89
818,240070,0.6634359999999999,0.193248,-0.7190681,5.1625,3.8675,2.555
819,240166,0.6653880999999999,0.188124,-0.7178479999999999,5.5825,3.57,3.325
820,240262,0.669048,0.17397200000000002,-0.715164,5.3375,3.605,3.535
821,240359,0.659532,0.173728,-0.7171161,4.48,3.9375,3.4825
822,240455,0.6707561,0.166652,-0.70638,3.325,4.0425,3.6575
823,240551,0.669048,0.20496,-0.71126,4.06,3.9375,4.5325
824,240647,0.66978,0.19885999999999998,-0.710284,4.095,3.99,5.81
825,240744,0.674416,0.17519200000000001,-0.712724,4.0775,4.0425,7.1225
826,240840,0.674416,0.171532,-0.7190681,3.3075,4.7775,7.7175
827,240936,0.6724640000000001,0.17836400000000002,-0.718092,1.61,6.3525,8.4175
828,241033,0.674416,0.17128800000000002,-0.7256560000000001,-0.4025,8.9775,9.3625
829,241129,0.6749041,0.176656,-0.7139439999999999,-3.2375,12.4075,10.535
830,241225,0.699792,0.15762400000000001,-0.764452,-5.215,15.96,12.67
831,241321,0.593896,0.197884,-0.8166680000000001,-6.7725,18.9175,14.385
832,241418,0.6502600000000001,0.073688,-0.7217521,-2.9925,27.6325,14.7875
833,241514,0.6178081,0.18104800000000001,-0.823744,-4.48,37.0125,13.37
834,241610,0.624884,0.089792,-0.7903161,-2.975,49.035,12.53
835,241706,0.638792,0.11345999999999999,-0.797636,-4.4625,62.545,8.96
836,241803,0.64294,0.162504,-0.7937320999999999,-4.0775,75.6175,5.81
837,241899,0.63318,0.194956,-0.8030041,-2.5725,88.2175,6.1425
838,241995,0.639768,0.221552,-0.81618,-1.1375,101.4475,9.5725
839,242091,0.64782,0.30353600000000003,-0.8476561,0.8575,117.005,15.995
840,242188,0.6182960999999999,0.329156,-0.8425321,2.3975,133.5075,30.3625
841,242284,0.6075600999999999,0.24351199999999998,-0.8840120000000001,2.6075,153.72,52.115
842,242380,0.522404,0.214964,-0.9269561,10.3425,177.765,73.71
843,242477,0.547048,0.133712,-0.9616040000000001,28.07,207.9525,90.545
844,242573,1.073356,0.11955999999999999,-0.603168,43.75,241.9375,109.8825
845,242669,2.08376,-0.008052001,-1.0887280000000001,47.845,365.4175,130.97
846,242765,0.256444,0.305732,-1.444236,43.05,445.8475,135.52
847,242862,-0.24497600000000003,0.7929999999999999,0.259372,-8.435,251.09,178.1325
848,242958,2.609092,0.7673800000000001,-1.905884,17.9725,332.3775,177.9575
849,243054,2.754028,0.629764,-1.6513919999999997,-6.58,439.215,152.53
850,243151,2.072292,-0.194224,-0.7366361,60.5675,436.1,162.1725
851,243247,2.556876,0.391376,-1.44692,42.385,441.07,171.9025
852,243343,2.1752599999999997,0.727608,-1.30174,-12.2325,414.82,156.4675
853,243439,1.874408,0.6919841,-1.712392,-49.6475,444.955,143.675
854,243536,1.319796,0.696132,-2.48026,-45.045,450.17,156.3275
855,243632,1.347856,0.850584,-3.1339360000000003,-11.4275,346.5,177.6075
856,243728,1.856596,1.336144,-3.1985959999999998,2.205,91.7,155.0325
857,243824,0.949892,1.40422,-2.5439439999999998,-15.1375,-87.8675,84.6825
858,243921,-0.14005599999999999,1.3827479999999999,-1.666764,-5.285,-197.89,35.2275
859,244017,-0.417728,1.064084,-1.178276,18.5325,-219.0475,0.0525
860,244113,-0.45286400000000004,0.8398479999999999,-0.8913321,30.3275,-214.3925,-22.505
861,244209,-0.24717199999999998,0.729072,-0.84546,21.805,-203.35,-40.53
862,244306,0.064416,0.7168720000000001,-0.9435479999999999,3.885,-201.075,-57.785
863,244402,0.31232,0.772016,-1.049444,-11.515,-216.8075,-75.495
864,244498,0.41455600000000004,0.754204,-1.045052,-15.2075,-244.02,-92.7325
865,244595,0.454816,0.652944,-0.9764879999999999,-11.9,-270.4625,-108.885
866,244691,0.5734,0.534116,-0.8935280999999999,-10.57,-289.975,-124.39
867,244787,0.672708,0.44554399999999994,-0.8091041,-13.7025,-303.9225,-139.1075
868,244883,0.7622561,0.388692,-0.7442,-18.865,-315.0175,-150.71
869,244980,0.8881600000000001,0.36844,-0.7332201,-23.0475,-321.125,-159.0925
870,245076,1.030412,0.377712,-0.7754321,-24.1325,-325.0625,-164.4825
871,245172,1.221708,0.40381999999999996,-0.885476,-21.6825,-328.055,-168.49
872,245268,1.384212,0.419192,-0.987712,-15.4875,-333.4625,-171.885
873,245365,1.492792,0.3843,-1.0614,-8.8725,-341.7925,-175.84
874,245461,1.600884,0.325496,-1.136064,-7.1575,-349.2475,-180.11
875,245557,1.735328,0.255468,-1.234884,-13.02,-353.5175,-183.7325
876,245654,1.974936,0.24863600000000002,-1.3298,-26.39,-353.535,-185.115
877,245750,2.36314,0.357704,-1.378844,-44.065,-351.82,-184.415
878,245846,2.855044,0.5282600000000001,-1.365912,-55.825,-353.0275,-184.4325
879,245942,3.299612,0.44090799999999997,-1.249524,-53.375,-354.9875,-185.4825
880,246039,3.5309239999999997,0.21228000000000002,-0.9596520000000001,-48.6675,-360.675,-188.4225
881,246135,3.732468,0.15738,-0.552416,-56.945,-365.3125,-190.05
882,246231,3.952068,0.041724000000000004,0.016347999999999998,-63.2975,-360.8325,-186.2
883,246327,3.8783800000000004,-0.502152,0.9413520000000001,-55.405,-346.99,-178.5875
884,246424,3.3059559999999997,-1.491572,2.267736,-52.15,-329.385,-167.195
885,246520,3.3867199999999995,-1.997628,3.5553239999999997,-97.93,-280.3325,-162.645
886,246616,3.782488,-2.1508599999999998,3.9772,-168.14,-195.79,-149.17
887,246713,2.7337759999999998,-1.35176,3.3654919999999997,-140.84,-87.85,-66.08
888,246809,1.47864,-0.6222,2.4199919999999997,-32.935,11.8825,28.6125
889,246905,0.820084,0.664168,0.52094,99.41751,139.8425,113.2775
890,247001,-0.885476,-0.5614439999999999,-2.628612,207.5675,226.5025,147.49
891,247098,-0.388448,0.135176,-1.516948,132.5625,217.42,118.3
892,247194,1.272948,-1.230248,0.594384,102.6025,309.26,63.385
893,247290,2.22894,-0.8927959999999999,-1.0826280000000001,68.005,337.9425,42.7875
894,247386,2.490752,-1.016748,-1.5542799999999999,25.445,315.315,50.96
895,247483,2.229184,-0.8971879999999999,-0.9547720999999999,7.875,251.335,82.6
896,247579,2.102304,0.7198,-1.2961280000000002,-53.865,227.325,79.135
897,247675,3.244712,3.2351959999999997,-2.74744,-25.1825,197.1375,70.8575
898,247772,0.670268,-0.236436,0.522648,147.315,35.4025,54.8275
899,247868,1.21268,-0.687104,-1.3917760000000001,108.185,46.4625,45.325
900,247964,1.036512,0.18178,-0.5856,29.2775,53.8475,6.6325
901,248060,1.0084520000000001,0.10004,-0.840824,27.3,13.7025,10.8675
902,248157,0.708088,-0.025863999999999998,-0.642452,24.64,15.2775,2.24
903,248253,0.7661600000000001,0.273524,-0.7612800999999999,9.9225,9.5025,3.0625
904,248349,0.702964,0.142008,-0.7381001,14.175,8.33,3.4825
905,248446,0.699792,0.194468,-0.749812,12.46,5.075,5.0225
906,248542,0.691496,0.172508,-0.751276,11.9525,2.0125,5.495
907,248638,0.6832,0.149084,-0.7549359999999999,12.25,-0.595,6.02
908,248734,0.6756361,0.138104,-0.7503,10.7975,-1.89,5.18
909,248831,0.649284,0.16348,-0.760792,9.1175,-2.3275,3.605
910,248927,0.644648,0.155916,-0.749568,9.2925,-2.31,2.73
911,249023,0.650016,0.193004,-0.750544,8.8025,-2.3975,2.3275
912,249119,0.6600201,0.16226,-0.7315119999999999,9.6775,-2.4675,3.0625
913,249216,0.6612401,0.17519200000000001,-0.733952,9.17,-2.485,3.1675
914,249312,0.64904,0.18470799999999998,-0.73078,9.2225,-3.185,3.3775
915,249408,0.625372,0.20496,-0.7415161,9.345,-5.1625,3.885
916,249505,0.6348881,0.165432,-0.7439560000000001,9.835,-7.1575,4.5675
917,249601,0.636352,0.18104800000000001,-0.7390760000000001,9.3275,-8.0675,4.9
918,249697,0.628544,0.17641199999999999,-0.7427361,9.31,-8.6625,5.46
919,249793,0.630008,0.191052,-0.745908,8.82,-8.9775,5.95
920,249890,0.644892,0.164944,-0.73932,8.9425,-8.5575,6.335
921,249986,0.6497721,0.127368,-0.748592,8.2425,-7.42,6.4925
922,250082,0.6392800000000001,0.10516400000000001,-0.749568,6.6675,-5.2325,5.25
923,250178,0.6378159999999999,0.115168,-0.7539600000000001,4.76,-2.205,3.885
924,250275,0.660996,0.141764,-0.733708,3.535,0.315,3.2025
925,250371,0.6541640000000001,0.136884,-0.7232161,2.66,1.33,3.3075
926,250467,0.6558721,0.133956,-0.747128,1.5925,1.8025,3.3775
927,250564,0.644404,0.12468399999999999,-0.740296,0.91,2.6075,3.01
928,250660,0.6480640000000001,0.139324,-0.746396,-0.735,4.655,2.1
929,250756,0.652456,0.160796,-0.752984,-1.575,6.79,1.6975
930,250852,0.654896,0.169336,-0.7483479999999999,-1.785,7.7175,2.835
931,250949,0.658312,0.16201600000000002,-0.756888,-1.54,9.3975,3.9725
932,251045,0.659288,0.166652,-0.744444,-1.89,11.76,5.285
933,251141,0.6588,0.155672,-0.739808,-2.52,14.9625,7.1925
934,251237,0.640012,0.163236,-0.756644,-3.85,17.99,9.2225
935,251334,0.6231760999999999,0.163968,-0.768844,-2.7475,22.4175,13.125
936,251430,0.5697399999999999,0.033184,-0.83814,1.9075,29.995,15.645
937,251526,0.6414761,0.133712,-0.815692,-2.9225,41.79,14.805
938,251622,0.6034121,0.11102000000000001,-0.8396040000000001,-1.785,54.11,14.3325
939,251719,0.630252,0.08003201,-0.8142281,-0.14,66.5875,12.3025
940,251815,0.614636,0.11955999999999999,-0.829356,1.2775,80.255,8.6625
941,251911,0.6348881,0.14566800000000002,-0.8081281,3.5875,94.2725,7.07
942,252007,0.6373281,0.159576,-0.827892,7.7525,106.7325,7.945
943,252104,0.6344,0.195688,-0.8376520000000001,12.9675,117.1625,10.955
944,252200,0.6517241,0.27938,-0.837408,19.285,131.635,18.1125
945,252296,0.60634,0.269864,-0.8620521000000001,24.5875,145.425,33.04
946,252392,0.589992,0.265716,-0.9450120000000001,23.7125,161.0875,52.92
947,252489,0.542168,0.346724,-0.9867360999999999,34.195,180.355,75.81
948,252585,0.48726800000000003,0.282064,-1.0262639999999998,60.8125,206.5525,101.535
949,252681,1.01504,0.236192,-0.9916161,79.835,241.0975,125.58
950,252778,0.07027201,0.519964,-1.452288,89.32,251.8775,150.535
951,252874,0.745664,0.332084,-0.5826720000000001,104.545,254.8175,148.47
952,252970,1.725812,0.37746799999999997,-0.9206120000000001,112.9275,370.23,157.955
953,253066,2.617876,0.209596,-1.6445599999999998,104.8075,451.8325,160.685
954,253163,2.44488,-0.022448,-1.056764,106.33,451.3425,159.145
955,253259,2.3724119999999997,0.5321640000000001,-1.611864,101.5,434.35,168.665
956,253355,2.3851,0.7224841,-1.551596,102.025,391.93,165.445
957,253451,1.72386,0.7005239999999999,-1.0079639999999999,87.255,393.54,159.4075
958,253548,1.3207719999999998,0.615124,-2.495144,63.7,506.0825,150.2725
959,253644,1.097512,0.498004,-3.376228,85.92501,426.7375,146.9475
960,253740,1.4940120000000001,0.98088,-2.9031119999999997,80.535,127.3825,114.5025
961,253836,0.9254921,1.1794959999999999,-2.4748919999999996,17.6225,-37.0825,34.3175
962,253933,-0.24863600000000002,1.1211799999999998,-1.577216,7.98,-147.28,-9.765
963,254029,-0.4636,0.8459479999999999,-1.172664,26.11,-158.6725,-33.18
964,254125,-0.407724,0.6219561,-0.965996,37.6425,-154.945,-45.3075
965,254221,-0.159332,0.521184,-0.987956,31.955,-149.1875,-54.0225
966,254318,0.1037,0.5170359999999999,-1.096048,17.64,-159.88,-64.8375
967,254414,0.2806,0.5675439999999999,-1.181692,6.2475,-185.9025,-77.42
968,254510,0.334036,0.5511961,-1.134844,3.99,-220.395,-90.23001
969,254607,0.38795999999999997,0.49824799999999997,-1.039928,5.39,-251.51,-102.9175
970,254703,0.45871999999999996,0.45335200000000003,-0.9284200999999999,7.315,-273.385,-115.7625
971,254799,0.554856,0.41284799999999994,-0.835456,9.8525,-287.98,-126.07
972,254895,0.6707561,0.387228,-0.79422,12.39,-297.7275,-133.8575
973,254992,0.8054439999999999,0.389424,-0.793244,15.0675,-305.235,-140.63
974,255088,1.005768,0.43358800000000003,-0.865956,17.15,-311.3425,-147.35
975,255184,1.200236,0.515572,-0.9489161,19.915,-319.9,-155.2775
976,255280,1.330288,0.6036560999999999,-0.9962521000000001,26.1625,-331.8875,-164.6225
977,255377,1.418372,0.648796,-1.012844,36.82,-342.335,-175.1575
978,255473,1.5372,0.6902761,-1.027484,47.915,-347.9875,-185.465
979,255569,1.6979959999999998,0.7176041,-1.0645719999999999,56.7525,-348.5125,-194.32
980,255665,1.874164,0.772748,-1.10776,62.4925,-346.0625,-202.1425
981,255762,2.1408560000000003,0.895236,-1.118252,65.6075,-339.7975,-207.06
982,255858,2.565172,1.053592,-1.0443200000000001,69.3875,-328.9125,-210.4375
983,255954,3.151504,1.086044,-0.9464761,75.0225,-316.925,-215.32
984,256050,3.4648,0.9940559999999999,-0.620004,80.5875,-323.4525,-219.8175
985,256147,3.78444,0.830576,-0.279136,72.87,-326.1125,-224.84
986,256243,4.009896,0.759084,0.13761600000000002,48.1775,-330.96,-226.3975
987,256339,3.9711,0.431148,0.721996,23.6075,-334.705,-220.08
988,256436,3.354024,-0.260348,1.568432,-4.5325,-327.3725,-213.22
989,256532,3.057076,-0.9352520000000001,2.663992,-57.4525,-290.64,-220.29
990,256628,3.45016,-0.869128,3.387208,-128.0825,-211.33,-236.8975
991,256724,3.178588,-0.708576,3.7441800000000005,-136.3775,-129.535,-215.915
992,256821,1.788764,-0.48556000000000005,3.080012,-75.1975,-44.3275,-145.11
993,256917,1.3115,-0.204716,3.192496,12.845,72.06501,-62.7725
994,257013,0.12688,-0.300608,0.5392399999999999,84.00001,230.545,-20.7725
995,257109,0.26961999999999997,0.46335600000000005,-3.15614,69.195,317.3975,-25.0425
996,257206,1.01626,0.5382640000000001,-0.5934081,18.725,311.9725,-66.115
997,257302,1.14192,-0.42602399999999996,0.5121560000000001,54.6,316.4,-59.465
998,257398,2.089128,-0.8901120000000001,-0.921832,70.56,381.8325,-45.64
999,257494,2.158424,-1.216584,-1.404464,53.0775,369.5475,-9.03
1000,257591,4.82998,1.198528,-4.486916000000001,49.1925,346.115,74.5325
1001,257687,2.980216,-0.582184,0.288652,85.3125,102.4275,83.125
1002,257783,0.36209600000000003,1.3066200000000001,-0.571448,45.4475,-87.74501,63.385
1003,257880,0.748104,0.12468399999999999,-0.8744960999999999,39.585,31.78,26.0225
1004,257976,0.6573359999999999,-0.06270801,-0.812276,51.4325,-1.96,25.8125
1005,258072,0.6688041,0.410408,-0.7229720000000001,24.36,-6.5275,16.7475
1006,258168,0.701012,0.288164,-0.740296,26.705,-11.165,17.8325
1007,258265,0.7320001,0.03172,-0.6456241,28.28,-14.0175,21.0175
1008,258361,0.715896,0.171044,-0.783972,18.9175,-8.47,14.84
1009,258457,0.6441600000000001,0.120048,-0.770308,16.275,-9.345,12.8275
1010,258554,0.6893,0.052703999999999994,-0.7361481,15.3125,-5.18,12.1275
1011,258650,0.6653880999999999,0.155184,-0.778604,9.17,-1.4,7.385
1012,258746,0.6688041,0.105652,-0.7478600000000001,8.4175,-0.49,5.985
1013,258842,0.6517241,0.157136,-0.7700640999999999,5.9675,1.295,4.1475
1014,258939,0.662704,0.145424,-0.7510321,4.7075,2.975,3.1675
1015,259035,0.657092,0.15982000000000002,-0.7451760000000001,3.7975,3.8675,2.4675
1016,259131,0.662216,0.16958,-0.748104,2.345,4.4625,1.995
1017,259228,0.6566041,0.182024,-0.752984,2.38,4.095,2.2225
1018,259324,0.654896,0.171776,-0.7517640999999999,2.1525,3.955,2.905
1019,259420,0.658068,0.155916,-0.737124,2.0125,4.0075,3.955
1020,259516,0.6634359999999999,0.160796,-0.7361481,1.015,4.83,4.7775
1021,259613,0.659532,0.163968,-0.7373681,0.7,5.355,5.46
1022,259709,0.659044,0.162992,-0.735904,0.595,5.915,6.0025
1023,259805,0.665632,0.157868,-0.7300479999999999,0.4375,6.65,6.6675
1024,259901,0.66246,0.159088,-0.7361481,0.56,6.72,7.0175
1025,259998,0.662704,0.155916,-0.73444,-0.7175,7.665,7.945
1026,260094,0.658556,0.159332,-0.735172,-2.2225,9.205,9.1175
1027,260190,0.6527,0.158112,-0.75762,-1.7675,11.445,11.0775
1028,260287,0.650016,0.114436,-0.7551800000000001,2.45,14.665,12.5475
1029,260383,0.645868,0.113704,-0.756888,1.155,18.1475,11.4275
1030,260479,0.6505041,0.09272000000000001,-0.739808,0.9625,23.59,9.2925
1031,260575,0.657824,0.08808401,-0.7366361,-0.35,27.965,6.895
1032,260672,0.664168,0.08564401,-0.72956,-0.8925,32.34,3.8325
1033,260768,0.677832,0.10638399999999999,-0.7190681,-2.275,36.1375,0.5425
1034,260864,0.681736,0.121512,-0.7068681,-3.01,38.92,-1.3825
1035,260961,0.686616,0.142984,-0.7088201,-4.025,41.58,-2.31
1036,261057,0.6956439999999999,0.16835999999999998,-0.711992,-4.41,44.0825,-1.575
1037,261153,0.6954,0.183488,-0.7105279999999999,-3.7625,46.1475,0.525
1038,261249,0.702476,0.185928,-0.7076001000000001,-2.38,48.2125,3.5
1039,261346,0.6985720999999999,0.151036,-0.7137001000000001,-0.2275,51.0125,6.265
1040,261442,0.709064,0.12175599999999999,-0.71858,2.59,54.5475,6.9125
1041,261538,0.70394,0.10833599999999999,-0.714432,5.6875,58.4325,5.4075
1042,261635,0.697596,0.129076,-0.7285841,9.24,64.435,3.4475
1043,261731,0.687592,0.15762400000000001,-0.761524,13.265,72.2225,1.9425
1044,261827,0.677588,0.17763199999999998,-0.770308,18.62,81.55001,3.185
1045,261923,0.665632,0.153232,-0.7622561,24.78,92.155,6.1775
1046,262020,0.649284,0.11834000000000001,-0.7598161,28.4725,104.2475,9.94
1047,262116,0.618052,0.11053199999999999,-0.7956840999999999,31.0275,119.35,14.665
1048,262212,0.5546121,0.032695999999999996,-0.8610761,38.01,141.0675,20.7375
1049,262308,0.500688,0.10004,-0.9894200000000001,46.655,174.51,27.0725
1050,262405,1.027728,0.29158,-0.780312,66.15,218.05,37.695
1051,262501,1.541592,0.323788,-1.4278879999999998,99.085,308.3675,58.135
1052,262597,-1.667984,0.376492,-2.276032,133.735,281.1375,81.62001
1053,262694,0.55266,0.490684,-0.720288,168.21,223.895,103.565
1054,262790,1.32126,0.33671999999999996,-0.482388,161.7175,383.6525,71.85501
1055,262886,2.806244,0.105896,-1.350784,154.735,483.28,66.4475
1056,262982,2.779648,0.202764,-1.02236,158.095,495.635,75.0575
1057,263079,2.740364,0.060512,-1.387628,206.885,469.735,108.3775
1058,263175,2.505148,0.5934081,-1.7141,240.5375,399.385,136.36
1059,263271,1.950292,0.690764,-0.658556,216.1775,338.73,110.5825
1060,263367,1.142652,0.696132,-1.2099959999999998,162.89,430.22,87.46500999999999
1061,263464,1.6897,-0.217648,-2.800144,158.235,501.69,85.7325
1062,263560,1.4252040000000001,0.171776,-1.9820119999999999,155.085,226.1875,124.0925
1063,263656,1.8470799999999998,0.6527,-2.227232,101.4475,31.395,129.4475
1064,263753,0.9821,0.9677040000000001,-1.6226,72.0125,-84.56,117.2675
1065,263849,0.488,1.109224,-1.2341520000000001,89.95,-153.965,121.625
1066,263945,0.285236,1.085068,-0.86864,128.6425,-186.655,124.845
1067,264041,0.303292,1.070916,-0.6893,162.365,-202.5975,126.0875
1068,264138,0.375272,1.110444,-0.59536,181.9825,-214.8825,121.3625
1069,264234,0.47213999999999995,1.184864,-0.558516,190.015,-227.605,108.0975
1070,264330,0.5392399999999999,1.30784,-0.528748,189.28,-243.53,87.115
1071,264427,0.555588,1.456192,-0.464088,184.6075,-262.115,59.325
1072,264523,0.582184,1.585024,-0.365268,181.6325,-277.27,26.775
1073,264619,0.640012,1.681648,-0.254492,183.3125,-287.5775,-6.2825
1074,264715,0.729072,1.701412,-0.153476,189.5775,-293.7375,-37.6075
1075,264812,0.798856,1.670912,-0.07442,196.595,-298.34,-67.2
1076,264908,0.8971879999999999,1.619184,-0.036112,199.5875,-301.805,-95.83
1077,265004,0.9718521000000001,1.5823399999999999,-0.017568,198.625,-305.48,-122.045
1078,265101,1.079456,1.578192,-0.03904,194.985,-309.26,-145.3025
1079,265197,1.1712,1.5967360000000002,-0.050508,190.61,-315.105,-165.27
1080,265293,1.2378120000000001,1.6108879999999999,-0.033428,186.48,-321.615,-183.89
1081,265390,1.3176,1.5986879999999999,-0.010248,181.1425,-325.85,-202.8425
1082,265486,1.377868,1.53354,-0.030987999999999998,172.97,-326.13,-219.905
1083,265582,1.425692,1.468636,-0.08296,159.565,-323.33,-235.2175
1084,265678,1.5677,1.440332,-0.20496,139.7725,-317.45,-250.3375
1085,265775,1.833904,1.557696,-0.358192,118.685,-312.83,-265.3875
1086,265871,2.1569599999999998,1.7141,-0.47067600000000004,107.695,-311.5175,-281.82
1087,265967,2.4624479999999997,1.8666,-0.499468,112.77,-314.58,-301.735
1088,266063,2.669848,1.960784,-0.39284,134.3825,-318.4825,-323.365
1089,266160,2.846016,1.986648,-0.174216,167.755,-319.3575,-342.09
1090,266256,2.983388,1.88978,0.112728,202.0025,-313.915,-354.3225
1091,266352,3.0026639999999998,1.492548,0.4553041,225.4525,-304.675,-360.0275
1092,266449,3.060736,0.973316,0.798124,216.5275,-288.0325,-364.7875
1093,266545,3.114172,0.64782,1.14802,164.08,-260.225,-359.59
1094,266641,2.7764759999999997,0.374052,1.486204,94.78,-222.2675,-334.9675
1095,266737,2.5827400000000003,0.056608000000000006,1.7099520000000001,22.4175,-166.565,-312.3925
1096,266834,2.735728,0.180072,1.773636,-39.0075,-99.33001,-310.205
1097,266930,2.864072,0.41358,1.7951080000000001,-45.6225,-36.435,-307.3175
1098,267026,2.314828,0.225456,1.5525719999999998,10.885,15.5925,-284.62
1099,267123,2.292868,-0.5038600000000001,2.694492,54.915,66.92,-260.68
1100,267219,1.1204479999999999,-0.250832,1.9656639999999999,55.16,178.7975,-265.9825
1101,267315,1.113372,-0.205448,-1.908568,66.6925,244.335,-249.69
1102,267411,0.4697,-0.203252,-1.3139399999999999,60.1125,276.08,-236.565
1103,267508,1.378112,-1.386164,-0.7088201,80.15,300.2825,-163.5025
1104,267604,2.397544,-2.4212119999999997,-1.508652,90.965,328.51,-50.155
1105,267700,4.359792,-0.21716,-4.166056,54.4425,277.6025,48.7375
1106,267796,2.674728,-0.8652241,-0.942572,32.97,103.5125,77.0
1107,267893,-0.211792,0.454816,-0.105896,9.6075,-65.03,68.985
1108,267989,0.792512,0.9252481,-1.0121120000000001,-7.2975,35.35,59.465
1109,268085,0.742004,0.74054,-0.5070319999999999,7.1225,16.3625,36.715
1110,268182,0.8254520000000001,0.47555600000000003,-0.6646561,17.4825,13.6325,23.6425
1111,268278,0.70516,0.24570799999999998,-0.760792,24.185,5.4075,16.0125
1112,268374,0.755424,0.288896,-0.743712,18.6725,-3.955,13.545
1113,268470,0.708088,0.355508,-0.6653880999999999,13.895,-12.635,13.0025
1114,268567,0.625128,0.22691999999999998,-0.7239479999999999,17.255,-17.4125,11.2
1115,268663,0.6182960999999999,0.08296,-0.794708,16.8525,-14.2275,8.89
1116,268759,0.661484,0.10492,-0.7849480999999999,9.7125,-9.17,6.3
1117,268855,0.670024,0.13078399999999998,-0.750788,5.9675,-3.92,3.3425
1118,268952,0.6649,0.15762400000000001,-0.7324881,3.78,-0.315,1.015
1119,269048,0.644892,0.14469200000000002,-0.764208,2.03,1.4875,-0.455
1120,269144,0.6600201,0.193004,-0.7476161,0.385,2.59,-0.945
1121,269241,0.6514800000000001,0.18422,-0.7439560000000001,0.2275,3.0625,-0.735
1122,269337,0.66246,0.182756,-0.7378560000000001,0.2625,3.4825,-0.1575
1123,269433,0.65514,0.175924,-0.7439560000000001,0.455,4.55,0.0175
1124,269529,0.6441600000000001,0.201544,-0.7476161,0.315,5.005,0.3675
1125,269626,0.6600201,0.19032000000000002,-0.73688,1.05,5.25,1.8375
1126,269722,0.670268,0.171044,-0.730536,1.4525,5.74,2.73
1127,269818,0.661484,0.152988,-0.738344,1.155,5.915,2.345
1128,269915,0.6602640000000001,0.145912,-0.746152,0.49,7.3325,1.05
1129,270011,0.6563601,0.152988,-0.7417600000000001,-0.28,10.4475,-0.1575
1130,270107,0.666852,0.10345599999999999,-0.715896,0.665,13.09,-0.9625
1131,270203,0.637084,0.121512,-0.74908,3.185,16.4325,-3.08
1132,270300,0.691008,0.15176800000000001,-0.748592,8.1375,18.76,-6.72
1133,270396,0.6414761,0.11345999999999999,-0.7373681,9.835,22.12,-9.94
1134,270492,0.636596,0.182268,-0.774212,5.8625,26.9675,-12.705
1135,270588,0.6263479999999999,0.172264,-0.774456,4.795,31.885,-15.0325
1136,270685,0.653432,0.17055599999999999,-0.746396,6.1775,37.87,-15.3125
1137,270781,0.661484,0.149084,-0.747128,10.1675,44.1525,-15.645
1138,270877,0.66978,0.136152,-0.7439560000000001,14.2625,48.93,-18.515
1139,270974,0.6771,0.14493599999999998,-0.7361481,21.2275,53.7425,-22.855
1140,271070,0.6836880999999999,0.13176,-0.726388,29.5225,57.82,-27.2825
1141,271166,0.6878361,0.13054000000000002,-0.708332,37.2225,61.9675,-31.7275
1142,271262,0.696376,0.13054000000000002,-0.7015,43.6975,66.15,-36.015
1143,271359,0.704916,0.137128,-0.685884,48.825,69.545,-39.76
1144,271455,0.7156520000000001,0.148108,-0.66856,53.6375,72.2225,-42.665
1145,271551,0.724436,0.172264,-0.650016,56.2275,75.005,-43.9775
1146,271648,0.727364,0.190076,-0.644404,56.6825,77.54251,-42.9625
1147,271744,0.737124,0.197884,-0.638304,55.6325,80.29,-39.515
1148,271840,0.7476161,0.194712,-0.6314721,54.1275,82.6525,-34.9475
1149,271936,0.7500560000000001,0.195688,-0.634644,53.375,84.945,-30.8175
1150,272033,0.752984,0.190076,-0.638304,55.44,88.1475,-27.405
1151,272129,0.756156,0.18324400000000002,-0.6304960000000001,59.6925,93.1175,-24.22
1152,272225,0.7664041,0.17324,-0.6307401,65.0825,98.7175,-21.525
1153,272322,0.756644,0.15054800000000002,-0.6263479999999999,71.26,105.245,-19.2325
1154,272418,0.7661600000000001,0.155428,-0.6202479999999999,77.5075,112.6475,-18.1125
1155,272514,0.7503,0.15494000000000002,-0.643184,85.62751,121.94,-15.2425
1156,272610,0.7315119999999999,0.17812,-0.681736,92.54001,133.735,-11.27
1157,272707,1.044564,0.26766799999999996,-0.388936,101.675,151.0775,-4.9525
1158,272803,1.255136,0.24156,-0.6470880999999999,108.99,214.76,4.9525
1159,272899,0.9852719999999999,0.19764,-0.8927959999999999,116.13,274.6275,15.8725
1160,272995,0.921344,0.14884,-0.796416,115.5525,285.5125,27.3
1161,273092,0.855708,0.09247601,-0.7929999999999999,108.5875,317.1875,40.775
1162,273188,-1.713124,-0.285724,-2.38022,82.3375,254.6775,76.195
1163,273284,2.391444,-0.279868,0.6939361,124.6175,175.875,92.435
1164,273381,2.5376,0.7198,-1.08092,45.5,424.165,51.3275
1165,273477,2.554436,0.658556,-1.701168,63.77,458.745,56.3675
1166,273573,2.40462,0.114192,-1.22122,108.43,434.35,60.515
1167,273669,2.334836,0.041968,-1.36274,87.1675,414.6975,66.0625
1168,273766,2.0632639999999998,0.452132,-1.028948,18.305,379.4,45.4475
1169,273862,1.7824200000000001,0.677344,-1.295152,-60.2,412.3525,17.0625
1170,273958,2.040572,0.215452,-1.7333759999999998,-86.415,454.93,21.595
1171,274054,2.165012,-0.780312,-2.471476,-92.9425,396.1125,66.2725
1172,274151,2.210152,0.589504,-2.596892,-134.4175,220.2725,130.3225
1173,274247,2.062288,1.1472879999999999,-2.668628,-149.065,22.2775,136.0625
1174,274343,1.060424,1.392508,-2.143052,-111.72,-106.4,118.16
1175,274440,0.273524,1.199748,-1.521584,-38.185,-173.845,106.6625
1176,274536,0.042456,0.9633120999999999,-1.199992,20.0725,-190.26,94.46500999999999
1177,274632,0.014396,0.8020281,-1.033828,44.9225,-188.5625,73.675
1178,274728,-0.002196,0.754448,-0.9335440999999999,46.7425,-191.555,47.355
1179,274825,0.083204,0.7478600000000001,-0.908168,37.345,-196.9625,18.9525
1180,274921,0.12566,0.784216,-0.8893800999999999,25.865,-206.7975,-7.77
1181,275017,0.179096,0.786656,-0.8596120999999999,19.775,-217.875,-31.22
1182,275114,0.284992,0.7500560000000001,-0.8430200999999999,18.4975,-228.305,-51.7475
1183,275210,0.43505200000000005,0.693204,-0.828868,18.2175,-240.5375,-71.78501
1184,275306,0.5724239999999999,0.633668,-0.8220360000000001,17.9725,-256.9875,-91.42
1185,275402,0.6919841,0.5587601,-0.8086161000000001,17.5,-276.255,-109.2
1186,275499,0.822524,0.48312,-0.793244,15.1725,-295.61,-124.8625
1187,275595,0.901336,0.42212,-0.752984,10.7275,-316.0675,-137.13
1188,275691,0.9950319999999999,0.386008,-0.7288279999999999,5.25,-333.9175,-145.1975
1189,275787,1.105076,0.363316,-0.7422481,-0.455,-347.725,-149.415
1190,275884,1.243668,0.350628,-0.803492,-6.4575,-359.0825,-151.095
1191,275980,1.4154440000000001,0.37258800000000003,-0.889868,-13.265,-369.5125,-152.565
1192,276076,1.6592,0.447496,-0.9828321,-20.265,-380.205,-155.1025
1193,276173,1.920036,0.59292,-1.029924,-22.8375,-392.1925,-160.8775
1194,276269,2.2008799999999997,0.725168,-1.020408,-16.695,-404.6525,-171.6575
1195,276365,2.488556,0.666852,-0.9552601000000001,-0.4375,-413.1575,-188.0025
1196,276461,2.844796,0.48848800000000003,-0.834968,15.6275,-413.1225,-208.74
1197,276558,3.2469080000000003,0.221796,-0.5797441,20.3,-409.675,-228.3925
1198,276654,3.532632,-0.08369201,-0.18470799999999998,15.3475,-399.7,-239.925
1199,276750,3.793468,-0.272304,0.191052,4.6375,-377.4575,-239.575
1200,276846,4.063332,-0.309392,0.581696,3.7975,-347.6725,-224.385
1201,276943,4.131896,-0.36575599999999997,1.101416,20.9125,-324.3275,-186.6025
1202,277039,3.762968,-0.6973520000000001,1.878312,46.62,-296.205,-124.7575
1203,277135,3.189568,-1.2195120000000002,2.614216,41.9825,-253.0325,-67.2
1204,277232,3.064152,-1.454972,3.013888,-13.65,-186.7775,-26.075
1205,277328,3.054636,-1.074332,2.77428,-89.3375,-113.085,0.5425
1206,277424,2.2143,-0.8640040000000001,2.0486240000000002,-103.32,-58.6425,25.69
1207,277520,0.892308,-0.31232,2.133292,-49.2625,31.0975,60.1825
1208,277617,-1.1448479999999999,-0.552172,-2.083028,0.07,92.995,89.2675
1209,277713,-0.711992,1.035292,-1.9825,-61.495,186.7075,116.235
1210,277809,1.802672,0.35477600000000004,0.166164,-40.635,291.06,113.085
1211,277905,1.6750599999999998,0.143716,-0.761524,7.105,291.0425,114.59
1212,278002,2.015684,0.917684,-1.21512,-33.285,267.365,70.525
1213,278098,1.653344,0.160796,-0.8769360999999999,3.5,234.29,58.17
1214,278194,2.136464,0.93696,-1.6928720000000002,-9.6425,216.65,35.525
1215,278291,3.205428,0.758596,-2.061556,35.455,183.8025,32.9
1216,278387,0.355508,-0.07588400000000001,0.082472,133.1575,3.2725,52.4825
1217,278483,1.083848,0.32696,-1.003572,44.135,47.25,36.0675
1218,278579,0.79422,0.275476,-0.646112,57.4525,32.795,32.7425
1219,278676,1.000156,-0.067832,-0.799588,47.425,28.035,27.7025
1220,278772,0.868884,0.056852,-0.7986121,35.0,9.9225,23.205
1221,278868,0.7329760000000001,0.08662001,-0.750788,23.73,9.2925,16.2925
1222,278965,0.70516,0.127368,-0.7951961,18.725,4.865,11.27
1223,279061,0.7044279999999999,0.132736,-0.779824,14.9275,6.685,7.175
1224,279157,0.683932,0.131028,-0.7659161,11.62,5.04,4.8125
1225,279253,0.6810039999999999,0.11467999999999999,-0.76494,9.38,3.7275,2.5025
1226,279350,0.673196,0.11224,-0.758352,6.5625,3.2725,-0.1575
1227,279446,0.6675840000000001,0.147376,-0.7549359999999999,3.675,3.43,-2.555
1228,279542,0.662948,0.168848,-0.7537159999999999,2.345,3.2725,-3.85
1229,279638,0.661728,0.172996,-0.7373681,2.7825,2.6075,-3.71
1230,279735,0.658312,0.199104,-0.734196,3.0275,2.24,-3.15
1231,279831,0.659288,0.204228,-0.730292,3.71,1.5575,-2.0125
1232,279927,0.659532,0.186904,-0.725412,5.215,0.1925,-0.4375
1233,280023,0.655384,0.186172,-0.7278521,6.02,-0.9275,1.015
1234,280120,0.6409881,0.17202,-0.731268,6.1775,-2.065,2.275
1235,280216,0.612196,0.2196,-0.7476161,6.125,-3.5875,3.3075
1236,280312,0.61122,0.22057600000000002,-0.74542,7.6125,-4.34,4.0775
1237,280409,0.6290319999999999,0.18178,-0.739564,9.94,-4.62,4.4975
1238,280505,0.619028,0.200324,-0.738344,10.78,-5.075,4.515
1239,280601,0.6502600000000001,0.17568,-0.74054,11.795,-5.81,4.2875
1240,280697,0.62342,0.141764,-0.7427361,12.0225,-6.23,3.4825
1241,280794,0.6219561,0.16201600000000002,-0.7388319999999999,11.27,-7.6475,3.1675
1242,280890,0.6197600000000001,0.144448,-0.7442,10.3075,-8.1375,2.835
1243,280986,0.630008,0.155672,-0.7500560000000001,9.1175,-7.56,2.4325
1244,281082,0.618784,0.12322000000000001,-0.73932,8.085,-7.2625,1.8725
1245,281179,0.6219561,0.172508,-0.757376,6.1425,-5.005,1.645
1246,281275,0.6304960000000001,0.155916,-0.7388319999999999,5.6875,-3.045,2.485
1247,281371,0.654896,0.13859200000000002,-0.729804,5.7925,-1.6625,3.3075
1248,281468,0.6612401,0.122244,-0.7300479999999999,4.1125,0.4375,3.4825
1249,281564,0.659776,0.110776,-0.739808,2.625,2.4675,3.5875
1250,281660,0.658312,0.11321600000000001,-0.733708,0.7525,4.69,2.8175
1251,281756,0.660752,0.13639600000000002,-0.748104,-1.0675,7.1225,1.82
1252,281853,0.656116,0.15738,-0.74664,-1.75,9.31,1.2775
1253,281949,0.663192,0.165432,-0.745664,-2.2925,10.885,2.1
1254,282045,0.662948,0.1769,-0.746396,-2.1175,10.4125,3.815
1255,282141,0.656848,0.16592,-0.758352,-1.0325,10.08,5.5125
1256,282238,0.658068,0.17519200000000001,-0.76372,-0.5775,12.2325,7.2625
1257,282334,0.647332,0.16128399999999998,-0.7793359999999999,-0.35,16.7475,9.3275
1258,282430,0.61854,0.139324,-0.79422,-0.21,23.17,10.9725
1259,282526,0.546072,0.012688,-0.853024,7.735,34.37,13.9125
1260,282623,0.64172,0.263276,-0.8818159999999999,0.5775,53.7775,15.015
1261,282719,0.5873079999999999,0.1464,-0.863028,4.5675,66.955,18.7775
1262,282815,0.602436,0.185196,-0.876692,5.88,79.24,22.6625
1263,282912,0.608536,0.25302800000000003,-0.902068,10.64,98.7875,26.67
1264,283008,0.58682,0.266448,-0.887184,15.33,118.2475,36.75
1265,283104,0.571448,0.187392,-0.9696561,15.54,142.31,51.765
1266,283200,0.532408,0.15128,-1.012844,18.6375,169.855,65.66
1267,283297,0.5353359999999999,0.13785999999999998,-1.0589600000000001,25.7425,198.835,79.2575
1268,283393,0.480192,0.168848,-1.121668,31.64,224.84,99.8375
1269,283489,0.425048,0.12053599999999999,-0.9557479999999999,51.5725,254.9925,129.43
1270,283585,0.604144,0.141032,-0.659776,75.32,306.9675,154.3325
1271,283682,1.2993,0.248392,-0.9330560999999999,79.415,370.9125,173.2675
1272,283778,2.033252,0.30182800000000004,-0.5653481,75.8975,393.89,201.32
1273,283874,3.244712,0.732244,-2.668628,80.92,492.765,212.6425
1274,283970,2.22894,0.8813280000000001,-2.089372,74.1475,450.8875,187.1975
1275,284067,2.0364240000000002,0.619028,-1.306864,120.33,409.7975,184.1525
1276,284163,2.124508,0.670512,-1.339316,125.4925,397.04,185.5875
1277,284259,1.6879919999999997,0.691008,-2.287744,103.2675,431.9,174.58
1278,284356,0.9964959999999999,0.36478,-3.044388,107.8,378.8575,168.875
1279,284452,1.1472879999999999,1.036756,-2.717428,79.03,197.925,134.9775
1280,284548,1.130696,1.282708,-2.521252,11.3575,23.6425,56.5075
1281,284644,-0.063196,1.411784,-1.6662759999999999,-17.115,-86.3975,-1.7325
1282,284741,-0.472872,1.160464,-1.135332,3.71,-117.2675,-32.3925
1283,284837,-0.476288,0.829356,-0.8671761,26.6,-115.36,-50.4875
1284,284933,-0.30012,0.615124,-0.84424,26.39,-109.27,-60.795
1285,285029,-0.110776,0.5248441,-0.9201241,8.7675,-114.695,-70.5075
1286,285126,0.05563200000000001,0.5343600000000001,-1.007476,-12.46,-130.7775,-80.2025
1287,285222,0.206668,0.543144,-1.066768,-25.1125,-153.055,-88.83
1288,285318,0.374784,0.5002,-1.083604,-28.91,-178.115,-97.2475
1289,285414,0.50508,0.43066000000000004,-1.0521280000000002,-30.3625,-203.9975,-107.1
1290,285511,0.590236,0.36087600000000003,-0.987712,-32.8825,-230.1425,-117.915
1291,285607,0.670024,0.302804,-0.9198799999999999,-36.925,-253.2775,-128.485
1292,285703,0.7373681,0.255956,-0.8701040000000001,-40.1975,-272.5625,-137.0075
1293,285799,0.813984,0.23253200000000002,-0.847412,-42.4025,-288.295,-143.325
1294,285896,0.9110959999999999,0.230336,-0.8662001,-42.8575,-298.865,-148.575
1295,285992,1.059936,0.23521599999999998,-0.921344,-40.32,-306.4425,-152.11
1296,286088,1.198528,0.23082399999999997,-0.959408,-36.015,-314.9475,-154.105
1297,286184,1.3024719999999999,0.216916,-0.9830760000000001,-32.48,-323.8725,-156.66
1298,286281,1.3917760000000001,0.21594000000000002,-1.000644,-32.0425,-330.9075,-160.9475
1299,286377,1.48108,0.2074,-1.057252,-34.3175,-334.2675,-165.83
1300,286473,1.61162,0.16104000000000002,-1.1599760000000001,-37.38,-333.375,-168.735
1301,286570,1.7641200000000001,0.096868,-1.266116,-42.77,-330.785,-168.35
1302,286666,2.024468,0.048068,-1.365912,-52.465,-327.53,-164.955
1303,286762,2.47172,0.030012,-1.4276440000000001,-63.4025,-323.4875,-160.2125
1304,286858,2.99876,-0.10418800000000002,-1.3834799999999998,-71.54,-323.19,-156.1175
1305,286955,3.410876,-0.266448,-1.136064,-80.7625,-333.6375,-153.0725
1306,287051,2.9941240000000002,-0.132492,-1.01626,-91.385,-352.9575,-147.84
1307,287147,3.3110800000000005,-0.003172,-0.11102000000000001,-70.1925,-344.4,-115.4475
1308,287243,3.4535760000000004,-0.796172,0.8071520000000001,-36.05,-302.645,-106.12
1309,287340,3.499692,-1.374452,1.306132,-48.895,-294.525,-102.935
1310,287436,3.429908,-1.7868119999999998,2.217228,-105.98,-273.5425,-98.75251
1311,287532,3.268868,-1.8634279999999999,3.009008,-159.74,-234.5,-67.725
1312,287628,2.409744,-1.1995040000000001,3.201524,-137.8825,-158.9525,0.4725
1313,287725,1.969812,-0.8657120999999999,3.03536,-5.39,-18.62,76.2825
1314,287821,0.12761199999999998,-1.1934040000000001,2.160376,143.115,134.9075,132.8425
1315,287917,-0.931348,-0.41894799999999993,-3.199084,141.155,204.645,162.3475
1316,288013,1.4391120000000002,0.349652,-1.7453319999999999,42.5075,309.0675,105.5425
1317,288110,1.255136,-1.067256,0.202032,81.0075,255.605,80.2375
1318,288206,1.2395200000000002,-0.712724,-0.7549359999999999,42.6475,247.24,79.3625
1319,288302,2.4148680000000002,-0.590236,-1.4539959999999998,-6.0025,310.2225,74.18251
1320,288399,2.2540720000000003,-0.159332,-1.210972,-36.26,264.32,79.8175
1321,288495,2.285792,1.263676,-1.6867720000000002,-55.2475,207.9,73.7625
1322,288591,2.5559,2.253828,-1.619184,-1.225,157.0625,61.495
1323,288687,0.089304,-0.122,0.013175999999999998,149.66,-8.715,48.5975
1324,288784,1.155096,-0.41113999999999995,-1.15168,72.9225,68.6,32.095
1325,288880,0.809836,0.499224,-0.74664,42.175,38.9725,10.64
1326,288976,0.9767321,0.0549,-0.708332,34.37,29.6975,6.9475
1327,289072,0.8554641,-0.098088,-0.777872,31.7275,14.3675,0.4725
1328,289169,0.7381001,0.22667600000000002,-0.7068681,13.8425,9.5375,0.6475
1329,289265,0.71126,0.116632,-0.744444,13.9825,7.6125,2.1
1330,289361,0.6993041,0.153476,-0.738344,12.7225,6.1775,1.96
1331,289457,0.6795401,0.171776,-0.739564,10.5525,4.7425,1.96
1332,289554,0.670512,0.15274400000000002,-0.7427361,10.3425,4.0775,1.89
1333,289650,0.663192,0.14347200000000002,-0.7468840999999999,9.0475,3.99,1.1025
1334,289746,0.66246,0.14762,-0.7500560000000001,7.7525,4.1125,-0.0875
1335,289842,0.651968,0.17641199999999999,-0.73444,6.16,4.235,-1.015
1336,289939,0.671488,0.182268,-0.721508,4.97,4.27,-1.4875
1337,290035,0.678808,0.18178,-0.7237041,4.9875,3.885,-1.0325
1338,290131,0.660752,0.202032,-0.72712,5.0925,3.1675,-0.07
1339,290227,0.662704,0.21301199999999998,-0.7227279999999999,5.67,2.135,0.91
1340,290324,0.67588,0.190564,-0.7315119999999999,5.915,0.805,1.7325
1341,290420,0.660996,0.183976,-0.730292,7.1925,-1.0325,3.255
1342,290516,0.666608,0.164456,-0.7259001,7.5425,-1.575,4.1475
1343,290613,0.664412,0.15494000000000002,-0.736392,7.385,-1.9775,4.305
1344,290709,0.659288,0.136152,-0.736392,6.8075,-1.645,3.815
1345,290805,0.6634359999999999,0.136884,-0.733464,5.3725,-0.77,2.2925
1346,290901,0.656848,0.15201199999999998,-0.7324881,3.885,1.0325,0.7525
1347,290998,0.6724640000000001,0.17446,-0.716384,3.5,2.8,0.455
1348,291094,0.6661201,0.175924,-0.715896,4.025,2.45,1.26
1349,291190,0.6673399999999999,0.167628,-0.720532,4.0775,1.61,1.82
1350,291286,0.6736840000000001,0.154696,-0.7232161,3.4825,1.715,2.135
1351,291383,0.664412,0.133468,-0.7195560000000001,3.2725,2.485,2.0825
1352,291479,0.674416,0.14518,-0.720776,2.03,3.5875,1.9075
1353,291575,0.667096,0.161772,-0.72224,1.5225,4.515,1.785
1354,291671,0.6734399999999999,0.166652,-0.721508,0.595,5.215,1.9425
1355,291768,0.671488,0.166408,-0.7200439999999999,0.35,5.495,2.5725
1356,291864,0.673196,0.171532,-0.727608,0.1925,6.3875,3.3425
1357,291960,0.6763680000000001,0.167872,-0.7227279999999999,-0.035,7.49,4.5675
1358,292057,0.6675840000000001,0.166408,-0.730536,-0.7175,9.3975,6.0725
1359,292153,0.6663640000000001,0.17397200000000002,-0.671732,-2.7825,11.9525,7.945
1360,292249,0.6158561,0.169824,-0.818376,-7.56,16.87,11.235
1361,292345,0.633912,0.15738,-0.758352,-7.735,22.1725,16.6425
1362,292442,0.6497721,0.12932000000000002,-0.7832399999999999,-3.605,33.6875,18.3225
1363,292538,0.6273241,0.114924,-0.7929999999999999,-7.735,39.0075,17.185
1364,292634,0.634644,0.11834000000000001,-0.807884,-5.18,50.89,14.9625
1365,292730,0.62342,0.12029200000000001,-0.8164239999999999,-4.7775,63.28,12.565
1366,292827,0.639524,0.10858,-0.796172,-3.2375,75.845,10.5875
1367,292923,0.652944,0.12688,-0.79056,-3.43,89.11,9.0475
1368,293019,0.6602640000000001,0.169336,-0.785924,-2.9575,101.22,9.52
1369,293115,0.6573359999999999,0.191052,-0.7991,-1.505,113.61,13.4575
1370,293212,0.66978,0.24131599999999997,-0.8176439999999999,2.4675,126.735,20.0375
1371,293308,0.6673399999999999,0.328912,-0.81374,8.715,141.295,33.0925
1372,293404,0.609268,0.293044,-0.8296,15.19,158.06,55.5975
1373,293501,0.5814520000000001,0.20178800000000002,-0.9006040999999999,22.4525,182.4025,77.8225
1374,293597,0.534604,0.21374400000000002,-0.9620920000000001,35.735,211.4525,96.91501
1375,293693,0.8547319999999999,-0.002684,-0.699548,46.1125,243.5475,116.0775
1376,293789,0.040504000000000005,-0.0366,-1.4417959999999999,34.5975,296.4675,141.995
1377,293886,0.621712,0.318664,0.17055599999999999,17.7625,274.4,157.8325
1378,293982,1.6982400000000002,0.449692,-0.24326799999999998,-20.9125,387.3625,158.375
1379,294078,3.271064,0.726876,-2.275544,-58.3625,502.425,160.3525
1380,294175,2.53638,0.767868,-2.173064,-36.6975,491.4,161.6825
1381,294271,1.658956,0.23741199999999998,-1.0016200000000002,28.0175,440.72,173.495
1382,294367,2.480016,0.43236800000000003,-1.651636,28.9975,420.875,181.0725
1383,294463,2.0559439999999998,0.753472,-1.2456200000000002,-21.735,393.925,161.2975
1384,294560,1.5603799999999999,0.7991,-1.970056,-76.09000999999999,468.3175,153.685
1385,294656,1.565748,0.937448,-3.3430440000000003,-55.405,481.915,157.43
1386,294752,1.494988,1.419592,-2.9807040000000002,-8.6625,240.6425,158.8125
1387,294848,1.687016,1.393728,-2.917752,-10.2375,-9.905,101.43
1388,294945,0.140544,1.41398,-1.8229240000000002,-19.565,-146.4575,28.3675
1389,295041,-0.5260640000000001,1.1392360000000001,-1.143384,2.1,-195.8775,-10.465
1390,295137,-0.5023960999999999,0.8188641,-0.8527800999999999,20.7375,-180.88,-37.03
1391,295233,-0.277428,0.6097560000000001,-0.792024,19.705,-165.025,-52.4125
1392,295330,-0.015616,0.5294800000000001,-0.879376,2.17,-161.3325,-66.29
1393,295426,0.23082399999999997,0.56852,-1.0126,-17.4475,-173.705,-80.4825
1394,295522,0.387228,0.5702281,-1.084092,-25.3575,-196.7875,-92.995
1395,295619,0.489464,0.485072,-1.06628,-22.785,-223.79,-105.0525
1396,295715,0.5694961,0.366244,-0.998692,-20.055,-248.5175,-118.2125
1397,295811,0.630252,0.263764,-0.9284200999999999,-21.175,-269.36,-131.0925
1398,295907,0.7332201,0.186904,-0.863028,-24.185,-286.3,-141.6625
1399,296004,0.8113001,0.12761199999999998,-0.834724,-26.6525,-298.76,-148.5575
1400,296100,0.8815719999999999,0.083936,-0.8230120999999999,-27.825,-308.5425,-151.5325
1401,296196,1.0140639999999999,0.06636801,-0.886452,-27.8075,-315.245,-152.2325
1402,296292,1.136796,0.062952,-0.9684360999999999,-26.67,-321.8075,-151.235
1403,296389,1.250988,0.040748,-1.027728,-24.8325,-329.91,-149.485
1404,296485,1.34322,0.021228,-1.0760399999999999,-25.165,-338.8525,-148.225
1405,296581,1.4483840000000001,0.03172,-1.137772,-28.6125,-346.3775,-147.1925
1406,296677,1.565016,0.06588,-1.218292,-33.775,-351.8725,-145.4075
1407,296774,1.7267880000000002,0.11955999999999999,-1.32736,-39.83,-354.9525,-143.2375
1408,296870,1.998116,0.196908,-1.410076,-46.1825,-355.74,-141.5575
1409,296966,2.4199919999999997,0.27523200000000003,-1.434964,-51.625,-354.725,-143.6575
1410,297063,2.8904240000000003,0.26352,-1.370792,-52.955,-356.335,-152.3725
1411,297159,3.35744,0.112728,-1.199748,-52.22,-359.45,-164.9725
1412,297255,3.6814720000000003,-0.001952,-0.8866961,-55.09,-368.655,-174.2475
1413,297351,3.7573559999999997,0.118828,0.5397281,-50.9425,-385.4375,-161.7
1414,297448,3.86374,-0.401868,0.557052,-20.9475,-320.39,-147.21
1415,297544,3.726368,-1.000156,0.9613601,-11.3225,-327.39,-142.625
1416,297640,3.6163239999999996,-1.512312,1.968104,-50.8025,-310.17,-152.705
1417,297736,3.603392,-1.74948,3.142232,-100.3625,-281.645,-137.7775
1418,297833,3.255936,-1.895636,3.650728,-130.2175,-205.5375,-94.23751
1419,297929,2.02886,-0.996008,3.7602839999999995,-88.6725,-107.9225,-4.06
1420,298025,0.9916161,-0.7041841,3.5841160000000003,35.6475,74.9875,70.3325
1421,298122,-1.181692,-0.7137001000000001,-1.304668,126.6475,203.1925,156.3275
1422,298218,1.557452,0.494588,-2.980216,61.8275,364.4375,159.985
1423,298314,2.46806,-0.635864,-0.618052,56.56,362.845,92.41751
1424,298410,0.42065600000000003,-0.6897880999999999,0.4575,70.595,185.185,97.3875
1425,298507,2.13988,-0.43602799999999997,-1.2139,11.865,323.9075,91.9975
1426,298603,2.927512,0.022692,-1.6479759999999999,-36.12,343.4025,71.6625
1427,298699,2.726456,1.565748,-2.4199919999999997,-27.23,223.195,69.1425
1428,298795,2.90604,1.500356,-1.511092,51.3975,182.21,60.795
1429,298892,0.143228,-0.661972,0.057096,184.7825,-11.34,48.0375
1430,298988,1.513776,-0.10126,-1.338096,49.455,86.04751,28.735
1431,299084,0.821792,0.132248,-0.521184,38.675,32.4275,7.1225
1432,299180,0.868396,-0.062952,-0.7761640999999999,28.4725,19.635,5.7225
1433,299277,0.7324881,0.16909200000000002,-0.721264,15.365,8.82,0.98
1434,299373,0.7224841,0.195688,-0.755912,9.7475,12.11,-0.595
1435,299469,0.674172,0.213988,-0.7517640999999999,9.1875,6.825,0.6825
1436,299566,0.6790520999999999,0.205204,-0.7376119999999999,7.9975,5.9675,0.455
1437,299662,0.66246,0.21472,-0.744444,7.6825,3.535,1.2425
1438,299758,0.6688041,0.16226,-0.7417600000000001,7.91,2.17,1.4525
1439,299854,0.659288,0.16835999999999998,-0.754448,5.915,1.5225,0.5425
1440,299951,0.635376,0.17641199999999999,-0.750544,4.375,1.61,0.0
1441,300047,0.6602640000000001,0.16811600000000002,-0.7427361,2.9225,1.68,-0.7875
1442,300143,0.6653880999999999,0.179584,-0.73078,1.575,1.925,-1.4525
1443,300239,0.655628,0.17738800000000002,-0.7327321,1.7675,1.7675,-0.9625
1444,300336,0.6646561,0.18788,-0.7324881,1.9075,1.5225,-0.8925
1445,300432,0.666608,0.19032000000000002,-0.726876,2.415,0.595,-0.4375
1446,300528,0.663924,0.191052,-0.7366361,3.15,0.3675,0.175
1447,300625,0.648552,0.205448,-0.7256560000000001,4.1475,0.0875,1.155
1448,300721,0.651968,0.204716,-0.734196,4.9875,-0.6475,2.2575
1449,300817,0.6527,0.188856,-0.727608,6.3525,-1.365,3.885
1450,300913,0.65514,0.171776,-0.731024,6.9125,-1.6625,4.515
1451,301010,0.6541640000000001,0.179828,-0.73444,6.545,-1.1725,4.1125
1452,301106,0.6573359999999999,0.18544000000000002,-0.728096,6.5975,-0.6475,4.235
1453,301202,0.662948,0.189832,-0.726876,7.1225,-0.6125,5.04
1454,301298,0.6675840000000001,0.19764,-0.718092,7.6825,-0.7,6.5975
1455,301395,0.667096,0.17568,-0.721264,7.5075,-0.77,7.77
1456,301491,0.664168,0.167628,-0.720776,6.8425,-0.735,8.33
1457,301587,0.6605081,0.153232,-0.72712,5.985,-0.385,8.0675
1458,301684,0.6634359999999999,0.154452,-0.730292,4.865,0.6125,7.2625
1459,301780,0.666608,0.155428,-0.729316,3.9725,2.6775,6.7025
1460,301876,0.662704,0.132736,-0.731268,2.94,4.6025,6.6325
1461,301972,0.6810039999999999,0.156404,-0.7176041,-0.6125,6.7725,6.6325
1462,302069,0.667828,0.17128800000000002,-0.727364,-1.4525,9.17,7.56
1463,302165,0.6749041,0.177144,-0.7198,-4.7425,10.885,8.54
1464,302261,0.6673399999999999,0.191052,-0.7198,-7.945,13.0025,11.4275
1465,302358,0.676856,0.19959200000000002,-0.769576,-9.135,15.89,14.91
1466,302454,0.605364,0.102724,-0.749812,-3.115,19.11,20.1075
1467,302550,0.662948,0.12932000000000002,-0.743712,-5.6875,29.225,21.945
1468,302646,0.619516,0.105652,-0.778116,-8.155,37.1175,20.825
1469,302743,0.6314721,0.09320801,-0.800076,-9.52,44.1525,17.57
1470,302839,0.606096,0.10614000000000001,-0.8195960999999999,-7.1575,54.8975,11.6375
1471,302935,0.626836,0.12248800000000001,-0.8054439999999999,-6.685,68.705,7.3675
1472,303032,0.619028,0.115656,-0.8052,-6.72,83.87751,5.145
1473,303128,0.636596,0.126636,-0.7937320999999999,-8.3125,99.41751,3.5175
1474,303224,0.643184,0.177876,-0.806908,-8.61,113.9075,4.3575
1475,303320,0.637084,0.186904,-0.812032,-8.54,128.45,9.4325
1476,303417,0.636108,0.186416,-0.8427761,-6.37,142.9925,17.4125
1477,303513,0.604876,0.32208000000000003,-0.870592,0.3325,159.355,29.7325
1478,303609,0.5511961,0.326716,-0.863516,14.7175,181.4925,49.8575
1479,303705,0.524356,0.252052,-0.9242720999999999,25.3225,210.4375,73.6925
1480,303802,1.357372,0.198372,-0.417484,38.22,246.155,95.8125
1481,303898,1.991772,0.072712,-1.085068,42.5425,373.345,119.3325
1482,303994,-0.652212,0.08906,-1.802428,29.9425,426.37,137.8825
1483,304091,0.94916,0.604876,1.4217879999999998,3.7625,245.07,173.5125
1484,304187,2.239432,0.9037761000000001,-1.418372,-8.1025,414.155,151.0425
1485,304283,3.126372,0.921344,-2.17404,-38.675,482.16,137.8475
1486,304379,2.134512,-0.062220000000000004,-0.8220360000000001,37.905,464.52,144.8125
1487,304476,2.408036,0.08442401,-1.468148,50.54,462.735,172.165
1488,304572,2.471476,0.727364,-1.3090600000000001,-1.5225,427.3325,162.155
1489,304668,1.802428,0.7415161,-1.357372,-45.3775,435.5925,142.275
1490,304764,1.844396,0.73078,-2.37778,-72.8875,501.795,134.9775
1491,304861,1.35786,0.84424,-3.472608,-33.25,428.155,156.0475
1492,304957,1.7836400000000001,1.253916,-2.992416,7.6125,171.9725,157.5
1493,305053,1.667252,1.242204,-2.82674,-6.0725,-60.7775,97.28251
1494,305150,0.111996,1.262456,-1.724104,-11.0775,-199.745,33.1625
1495,305246,-0.333304,0.9598959999999999,-1.132892,10.5875,-240.6425,-0.385
1496,305342,-0.365512,0.66856,-0.81252,22.995,-232.8725,-22.1725
1497,305438,-0.213988,0.5160600000000001,-0.701256,13.4575,-224.875,-35.7175
1498,305535,0.020008,0.48824399999999996,-0.758596,-9.8175,-219.4325,-49.56
1499,305631,0.255956,0.55266,-0.8815719999999999,-30.9575,-226.9575,-64.34751
1500,305727,0.381616,0.571936,-0.9403761,-38.08,-244.6675,-78.34751
1501,305824,0.477264,0.49898000000000003,-0.9230520000000001,-34.3875,-264.7575,-92.505
1502,305920,0.576816,0.406992,-0.8876719999999999,-30.0125,-281.9425,-107.8875
1503,306016,0.6539201,0.312808,-0.8332601000000001,-28.175,-296.73,-122.675
1504,306112,0.765428,0.227652,-0.8117880000000001,-28.91,-308.4375,-135.345
1505,306209,0.8486319999999999,0.17446,-0.7983680000000001,-30.59,-318.2375,-144.5325
1506,306305,0.9320801,0.12175599999999999,-0.8142281,-32.305,-325.7625,-150.255
1507,306401,1.045784,0.10760399999999999,-0.88328,-34.4925,-329.875,-153.965
1508,306497,1.1568040000000002,0.09930800000000001,-0.9696561,-35.4725,-333.9875,-156.5025
1509,306594,1.2817319999999999,0.07417601,-1.048468,-34.8075,-337.82,-158.2175
1510,306690,1.390312,0.039772,-1.125572,-34.93,-342.65,-159.145
1511,306786,1.5135319999999999,0.012688,-1.208776,-37.4325,-347.0775,-158.7425
1512,306883,1.67018,0.047580000000000004,-1.322724,-42.7875,-350.875,-156.6075
1513,306979,1.9117400000000002,0.111508,-1.4252040000000001,-47.565,-352.6425,-153.4575
1514,307075,2.2265,0.1525,-1.46888,-49.3675,-353.3075,-153.65
1515,307171,2.628124,0.135664,-1.461072,-48.1075,-353.3775,-160.7025
1516,307268,3.165412,0.045872,-1.3642040000000002,-42.6475,-352.31,-172.095
1517,307364,3.670004,-0.01342,-1.16022,-36.47,-356.86,-180.3725
1518,307460,3.872036,0.155184,-0.727364,-28.2625,-378.7525,-179.025
1519,307556,3.8244559999999996,0.093696,-0.05977999999999999,-3.395,-390.3375,-167.3875
1520,307653,3.725392,-0.41968,0.9340321,26.67,-376.3025,-155.3125
1521,307749,3.44772,-1.219268,2.155252,24.5525,-343.6825,-136.7625
1522,307845,3.275944,-1.698484,3.323768,-47.9675,-292.5475,-119.6125
1523,307941,3.5558120000000004,-1.8297560000000002,3.742228,-170.8,-224.9975,-122.57
1524,308038,2.766228,-0.8884040000000001,3.248128,-216.44,-125.2825,-103.6175
1525,308134,1.80682,-0.184952,2.47538,-137.095,-30.8,-56.455
1526,308230,0.785192,-0.067588,2.44,5.5825,81.7075,33.425
1527,308326,-0.9864921,-0.338428,-2.0059240000000003,99.05001,205.2925,122.7275
1528,308423,-0.190076,0.6897880999999999,-1.98616,72.7825,264.8275,161.8225
1529,308519,1.8463479999999999,-0.274744,0.11102000000000001,52.5525,316.12,133.3675
1530,308615,2.065216,-0.137372,-0.983564,65.38,318.15,113.4175
1531,308712,1.8788,0.16104000000000002,-1.098732,36.05,270.9875,84.4725
1532,308808,1.943216,-0.046116000000000004,-1.0340719999999999,40.81,253.19,74.655
1533,308904,1.9842080000000002,-0.29133600000000004,-1.169736,29.4,237.8775,62.7025
1534,309000,1.813652,0.440176,-1.1660760000000001,-3.0275,203.5425,38.745
1535,309097,2.760616,1.57746,-2.23138,24.64,177.7825,54.4775
1536,309193,0.57584,-0.14469200000000002,0.09735601,131.2675,32.9875,49.945
1537,309289,1.103124,-0.243756,-1.148508,71.78501,59.0275,41.9825
1538,309385,1.033584,0.17397200000000002,-0.83814,40.425,47.985,16.03
1539,309482,0.8754719999999999,0.121268,-0.6902761,28.595,22.2075,9.765
1540,309578,0.803248,0.029524,-0.749324,23.6075,13.615,5.845
1541,309674,0.740052,0.27889200000000003,-0.730536,13.44,8.4175,4.06
1542,309770,0.6912520000000001,0.17324,-0.741028,15.645,7.63,5.0925
1543,309867,0.700036,0.215696,-0.7388319999999999,15.435,4.76,6.23
1544,309963,0.6883239999999999,0.188612,-0.7376119999999999,15.7325,2.52,7.21
1545,310059,0.6856399999999999,0.159332,-0.7476161,15.855,0.3675,7.63
1546,310156,0.662948,0.165676,-0.744688,14.595,-0.56,6.8075
1547,310252,0.649284,0.1952,-0.750788,13.4225,-1.4,6.1075
1548,310348,0.650992,0.174216,-0.752496,13.7725,-1.9075,5.7225
1549,310444,0.6600201,0.205692,-0.75274,12.985,-2.17,5.3725
1550,310541,0.6566041,0.19276,-0.7390760000000001,12.7225,-3.465,5.985
1551,310637,0.654896,0.199348,-0.73444,12.4075,-4.5325,6.58
1552,310733,0.653188,0.189588,-0.7378560000000001,12.1275,-5.88,6.7725
1553,310830,0.64294,0.188612,-0.734684,12.425,-7.4025,7.14
1554,310926,0.635864,0.17519200000000001,-0.738588,12.1275,-8.7325,6.4925
1555,311022,0.645868,0.175924,-0.747128,10.7975,-9.2225,5.5475
1556,311118,0.642696,0.159332,-0.7390760000000001,9.8525,-9.0125,5.6
1557,311215,0.640744,0.162992,-0.7439560000000001,8.365,-8.015,5.5825
1558,311311,0.6422081000000001,0.14005599999999999,-0.7285841,7.63,-7.105,5.1275
1559,311407,0.64294,0.13908,-0.74908,6.335,-5.6,4.4975
1560,311503,0.641964,0.151036,-0.7366361,5.95,-4.34,3.395
1561,311600,0.6439159999999999,0.13664,-0.7439560000000001,4.7775,-2.87,2.7825
1562,311696,0.653676,0.143228,-0.736392,3.605,-1.5925,2.485
1563,311792,0.648552,0.131272,-0.739808,2.4675,-0.455,1.9075
1564,311888,0.652456,0.15396400000000002,-0.7324881,1.295,0.875,1.2425
1565,311985,0.6463561,0.14786400000000002,-0.7449321,0.3675,2.38,1.3475
1566,312081,0.6527,0.143716,-0.7200439999999999,0.175,4.13,1.2425
1567,312177,0.6602640000000001,0.125416,-0.720532,-1.015,5.7225,0.9625
1568,312274,0.6558721,0.14152,-0.7407841,-1.68,7.035,0.8225
1569,312370,0.655384,0.147376,-0.7324881,-1.9775,8.1025,1.19
1570,312466,0.664412,0.16592,-0.7422481,-3.115,9.0825,2.1875
1571,312562,0.660752,0.171044,-0.7415161,-3.395,10.3425,3.4125
1572,312659,0.6602640000000001,0.17324,-0.7417600000000001,-3.7625,11.6725,4.97
1573,312755,0.6527,0.148352,-0.7522521,-4.445,13.7025,6.615
1574,312851,0.637084,0.159332,-0.753472,-5.9675,17.2725,7.5075
1575,312947,0.5785241,0.15494000000000002,-0.9093880999999999,-5.215,23.7475,10.2725
1576,313044,0.5897479999999999,0.15762400000000001,-0.8235001000000001,0.3675,36.435,13.7725
1577,313140,0.627568,0.112728,-0.8396040000000001,-4.5675,53.795,13.51
1578,313236,0.613904,0.10394400000000001,-0.826916,-2.87,65.485,13.7725
1579,313332,0.6283,0.131272,-0.831308,-2.1,79.7475,11.865
1580,313429,0.6405,0.167384,-0.7986121,-2.1525,91.84000999999999,11.585
1581,313525,0.6392800000000001,0.175924,-0.8166680000000001,-0.91,104.685,14.6475
1582,313621,0.635864,0.21716,-0.844972,1.4875,119.7175,19.6525
1583,313717,0.631228,0.298656,-0.85888,5.775,137.165,27.93
1584,313814,0.589016,0.267424,-0.892552,9.5725,155.2425,45.885
1585,313910,0.568764,0.16104000000000002,-0.9186601000000001,9.415,172.5325,67.2175
1586,314006,0.51118,0.22472399999999998,-0.9635560999999999,18.9875,194.9325,86.22251
1587,314102,0.467992,0.16128399999999998,-0.989908,42.98,226.59,104.51
1588,314199,0.762744,0.024156,-0.777872,57.715,260.995,121.0125
1589,314295,0.213256,0.165676,-1.274412,51.31,296.555,144.5325
1590,314391,0.49044,0.33428,0.005368,49.7,293.685,161.035
1591,314488,2.1655,0.456768,-0.671488,11.55,402.535,166.005
1592,314584,2.94508,0.9474520000000001,-2.433168,3.29,496.3175,174.475
1593,314680,2.1716,0.31476,-1.317112,40.9325,460.88,166.3025
1594,314776,2.157204,0.16104000000000002,-1.211948,85.085,435.7325,183.6975
1595,314873,2.549068,0.653676,-1.534516,45.3075,403.8125,176.2075
1596,314969,2.0474040000000002,0.728096,-1.032608,10.675,372.0325,161.5425
1597,315065,1.5225600000000001,0.701256,-2.173552,-29.47,464.87,159.005
1598,315162,1.44692,0.610488,-3.441132,-13.4225,451.01,157.99
1599,315258,1.307352,1.1631479999999998,-2.6837560000000003,14.2975,174.58,157.7625
1600,315354,1.448628,1.330044,-2.650816,-16.975,-23.3625,95.2175
1601,315450,0.147376,1.4091,-1.678964,-31.5175,-144.585,29.1725
1602,315547,-0.30353600000000003,1.2104840000000001,-1.1411879999999999,-8.8725,-185.115,-7.84
1603,315643,-0.38064000000000003,0.921832,-0.8220360000000001,14.105,-182.7,-35.5425
1604,315739,-0.298656,0.736392,-0.692716,19.6,-175.035,-51.9225
1605,315835,-0.067588,0.649284,-0.740052,8.1025,-168.49,-66.2375
1606,315932,0.212036,0.667828,-0.870592,-7.7875,-173.46,-80.5175
1607,316028,0.41723999999999994,0.6895439999999999,-0.9801479999999999,-16.1525,-190.6975,-94.88501
1608,316124,0.5353359999999999,0.6348881,-0.9921040999999999,-14.1225,-215.845,-108.9025
1609,316220,0.614392,0.518012,-0.9406200000000001,-9.2925,-241.2375,-122.605
1610,316317,0.6722199999999999,0.39918400000000004,-0.8615640999999999,-8.12,-263.795,-135.8875
1611,316413,0.742492,0.30256,-0.7944641,-11.725,-281.7325,-147.2625
1612,316509,0.822524,0.21667199999999998,-0.7671359999999999,-17.99,-294.8225,-155.2775
1613,316606,0.863516,0.16592,-0.748836,-25.305,-304.08,-160.2125
1614,316702,0.9274440999999999,0.1342,-0.7754321,-32.025,-309.54,-163.135
1615,316798,1.03944,0.139568,-0.8508280999999999,-37.1525,-311.22,-164.71
1616,316894,1.1509479999999999,0.136884,-0.944524,-39.06,-312.515,-165.4975
1617,316991,1.277584,0.107116,-1.0377319999999999,-38.5525,-314.23,-166.4775
1618,317087,1.399096,0.07832401,-1.138992,-39.0075,-317.3975,-167.265
1619,317183,1.5189,0.05612,-1.2402520000000001,-41.23,-321.895,-167.0025
1620,317279,1.6743279999999998,0.043432,-1.366156,-45.3775,-325.465,-165.2875
1621,317376,1.8931959999999999,0.058072000000000006,-1.505236,-51.5725,-328.195,-162.8025
1622,317472,2.222108,0.1098,-1.612108,-58.555,-331.205,-160.23
1623,317568,2.655452,0.11467999999999999,-1.631628,-61.4425,-336.4375,-160.9475
1624,317664,3.171024,0.006832001,-1.550376,-60.0075,-342.1425,-165.935
1625,317761,3.573868,-0.057339999999999995,-1.300032,-59.57,-355.075,-171.9725
1626,317857,3.6844,0.05368,-0.8693719999999999,-57.155,-378.245,-172.1475
1627,317953,3.664392,-0.07442,-0.148352,-39.76,-390.915,-168.245
1628,318049,3.530436,-0.665632,0.86498,-14.9275,-375.585,-162.4525
1629,318146,3.35134,-1.4398440000000001,2.164524,-20.3875,-341.775,-147.28
1630,318242,3.476268,-2.0364240000000002,3.3745199999999995,-93.7475,-291.2,-133.805
1631,318338,3.709288,-2.255536,3.700992,-194.355,-220.185,-120.1375
1632,318435,2.44122,-1.036024,3.1293,-203.525,-136.2025,-79.695
1633,318531,1.905884,-0.4453,2.2884759999999997,-95.06,-21.8925,-18.0775
1634,318627,1.62626,-0.550708,1.40178,55.1775,106.2425,72.135
1635,318723,-0.400648,-0.446032,-2.109868,145.5125,178.43,174.895
1636,318820,-0.7571321,0.524112,-2.221132,119.2625,182.0525,201.88
1637,318916,0.6736840000000001,-0.708576,0.317932,101.22,239.6975,196.77
1638,319012,1.9900639999999998,-0.601216,-0.9777081,88.18251,304.92,178.4825
1639,319108,1.97396,0.22057600000000002,-1.514508,28.6125,279.825,139.1775
1640,319205,1.574776,0.057096,-0.593896,35.7525,220.3075,112.49
1641,319301,2.1347560000000003,0.166164,-1.20658,14.035,243.8975,86.27501
1642,319397,1.706536,0.298412,-1.2822200000000001,-1.715,208.215,48.65
1643,319493,2.36558,1.7348400000000002,-2.7227959999999998,21.6825,165.6725,53.585
1644,319590,1.6357760000000001,-0.256444,-0.35087199999999996,108.465,100.9575,48.44
1645,319686,0.67588,-0.19032000000000002,-0.9442801,106.3825,27.335,38.92
1646,319782,1.260016,0.022448,-0.949892,38.9025,65.0125,11.725
1647,319879,0.8718120999999999,0.086864,-0.620004,28.6475,24.7625,5.9325
1648,319975,0.865956,0.005368,-0.79422,20.2825,15.9425,1.155
1649,320071,0.665144,0.264984,-0.736392,10.64,8.26,0.1575
1650,320167,0.712236,0.16592,-0.7500560000000001,10.3425,8.645,1.1725
1651,320264,0.690032,0.197152,-0.7483479999999999,9.03,5.775,0.525
1652,320360,0.673196,0.211792,-0.7483479999999999,8.1025,5.3375,1.4
1653,320456,0.666852,0.159332,-0.74908,9.205,3.6925,1.925
1654,320552,0.6517241,0.17202,-0.75762,7.8575,2.975,1.1725
1655,320649,0.6456241,0.165432,-0.752496,7.1225,2.7125,0.5075
1656,320745,0.645868,0.17543599999999998,-0.7510321,5.915,2.8525,-0.2975
1657,320841,0.64904,0.187636,-0.7388319999999999,5.3375,2.7125,-0.7175
1658,320938,0.645868,0.211304,-0.735172,4.76,2.3975,-0.6475
1659,321034,0.6505041,0.204228,-0.7283400999999999,4.76,1.505,-0.0875
1660,321130,0.64782,0.20618000000000003,-0.732244,5.1625,0.385,0.7525
1661,321226,0.652944,0.188368,-0.729316,6.58,-0.7175,2.0125
1662,321323,0.64782,0.18544000000000002,-0.733708,7.42,-1.82,2.94
1663,321419,0.6480640000000001,0.165432,-0.731024,8.82,-2.1525,4.095
1664,321515,0.652944,0.179584,-0.7407841,8.9075,-2.4325,4.69
1665,321611,0.6497721,0.15762400000000001,-0.736392,8.9425,-2.38,4.8125
1666,321708,0.654652,0.15201199999999998,-0.741028,7.98,-2.38,4.1825
1667,321804,0.652944,0.146156,-0.7378560000000001,6.6675,-1.96,3.1325
1668,321900,0.6480640000000001,0.160308,-0.736392,6.0725,-1.1375,2.4675
1669,321996,0.655628,0.16226,-0.73688,5.985,-0.3325,2.555
1670,322093,0.6612401,0.166408,-0.726876,6.23,-0.0175,2.905
1671,322189,0.661972,0.164456,-0.725412,6.055,-0.1575,3.29
1672,322285,0.660996,0.17055599999999999,-0.728096,5.39,0.0,3.6575
1673,322382,0.654896,0.157136,-0.7266321,5.075,0.5075,4.025
1674,322478,0.6649,0.149328,-0.7356600000000001,4.445,1.54,4.305
1675,322574,0.662948,0.146156,-0.7317560000000001,3.71,2.7475,3.99
1676,322670,0.658556,0.15201199999999998,-0.730536,2.6775,3.9025,3.71
1677,322767,0.6605081,0.158356,-0.729316,2.065,4.9,3.7625
1678,322863,0.6634359999999999,0.1647,-0.730536,1.505,5.7925,4.2
1679,322959,0.663924,0.15372,-0.7483479999999999,0.665,7.0525,5.075
1680,323055,0.67466,0.181536,-0.7356600000000001,-1.6275,9.03,6.4925
1681,323152,0.6600201,0.171776,-0.742492,-3.3075,11.9525,8.6975
1682,323248,0.693204,0.25864000000000004,-0.6392800000000001,-6.65,14.8225,10.815
1683,323344,0.603168,0.139324,-0.853024,-5.5125,19.04,14.315
1684,323440,0.5887720000000001,0.023424,-0.7747001,-1.47,23.2225,17.92
1685,323537,0.628544,0.144204,-0.8276481,-2.9225,39.8475,16.59
1686,323633,0.6036560999999999,0.087352,-0.8230120999999999,-3.9025,49.1925,14.455
1687,323729,0.6156119999999999,0.08954801,-0.8274040000000001,-2.8875,62.5975,11.97
1688,323825,0.631228,0.111508,-0.788852,-2.45,77.735,8.6275
1689,323922,0.640012,0.156892,-0.786656,-2.9925,91.2625,7.4725
1690,324018,0.6409881,0.20105599999999998,-0.806176,-2.45,102.48,10.0275
1691,324114,0.646844,0.21447600000000003,-0.8261841000000001,-0.5075,114.345,16.3975
1692,324210,0.636352,0.24034,-0.850096,1.5575,130.795,25.0775
1693,324307,0.640744,0.279136,-0.8764481,5.3025,150.2725,39.4625
1694,324403,0.576816,0.24717199999999998,-0.8559521000000001,8.3825,168.105,62.02
1695,324499,0.5690081,0.15201199999999998,-0.8918200000000001,19.5475,193.165,83.335
1696,324595,0.468724,0.141276,-0.9874681000000001,34.895,225.925,100.59
1697,324692,1.7109279999999998,0.0017079999999999999,-0.466772,49.035,275.9575,117.1625
1698,324788,-0.053436000000000004,0.149816,-2.005436,39.935,369.775,137.55
1699,324884,0.624396,0.481412,0.9037761000000001,38.8325,247.4325,166.6525
1700,324980,1.67018,0.567056,-0.523868,5.6175,396.725,164.675
1701,325077,3.206892,0.9262239999999999,-2.52296,-37.625,508.48,168.1575
1702,325173,2.284084,0.5734,-1.537444,12.915,491.5225,163.2575
1703,325269,2.054968,-0.142008,-0.6505041,77.2975,459.5325,179.7775
1704,325365,2.713524,0.6463561,-1.6872599999999998,24.1675,437.71,177.8
1705,325462,2.218204,0.80276,-1.043344,-14.56,380.9225,156.8875
1706,325558,1.440576,0.679784,-1.939556,-58.59,453.005,154.1225
1707,325654,1.6021040000000002,1.013332,-3.889848,-49.525,496.685,150.7275
1708,325751,1.40544,1.493524,-3.137352,3.8675,196.49,142.0125
1709,325847,1.510604,1.46522,-2.906528,4.095,-57.2775,79.6775
1710,325943,-0.007076001,1.38104,-1.740696,1.6625,-181.16,11.8125
1711,326039,-0.39894,1.02846,-1.151192,24.01,-217.665,-22.75
1712,326136,-0.37942,0.719312,-0.8576601,34.5975,-209.0025,-44.065
1713,326232,-0.206668,0.579012,-0.770308,23.9225,-202.02,-56.7
1714,326328,0.046604,0.5738880000000001,-0.8359440999999999,3.045,-199.85,-66.955
1715,326424,0.31598000000000004,0.62952,-0.9552601000000001,-13.4225,-210.105,-77.595
1716,326521,0.471164,0.6329359999999999,-0.999668,-17.2375,-232.12,-88.97
1717,326617,0.5612,0.5551,-0.9716081,-13.3,-257.565,-102.1125
1718,326713,0.654408,0.44554399999999994,-0.8940161,-10.29,-280.5425,-116.4975
1719,326809,0.7473721,0.34257600000000005,-0.820816,-12.04,-298.7425,-131.04
1720,326906,0.833992,0.262788,-0.7771399999999999,-16.8875,-312.305,-143.045
1721,327002,0.904752,0.209352,-0.7442,-21.98,-323.155,-151.48
1722,327098,0.9557479999999999,0.158112,-0.7478600000000001,-25.6375,-330.4175,-155.9075
1723,327194,1.046516,0.141032,-0.79178,-28.8925,-332.85,-158.62
1724,327291,1.1455799999999998,0.139568,-0.8796200000000001,-30.6775,-333.1825,-160.3
1725,327387,1.273924,0.127368,-0.981612,-30.59,-333.34,-161.6825
1726,327483,1.392752,0.11345999999999999,-1.075796,-30.5375,-336.315,-162.085
