,T,ax,ay,az,gx,gy,gz
0,9345507,0.8457040000000001,-0.135054,-0.1342,18.83,-16.7825,-15.155
1,9345662,0.882914,-0.12444000000000001,-0.188368,0.91,-15.0675,-138.39
2,9345760,0.9648979999999999,-0.127856,-0.216428,-86.94,41.86,-272.4575
3,9345858,0.9934460999999999,-0.128466,-0.21228000000000002,4.06,-68.79251,-90.1775
4,9345956,0.995886,-0.131882,-0.204716,-13.3,16.345,-12.46
5,9346054,0.987102,-0.143594,-0.200446,-15.19,24.43,-7.6825
6,9346152,0.974658,-0.11358199999999999,-0.264252,-18.865,25.9525,-8.3825
7,9346249,0.9648979999999999,-0.146522,-0.24851399999999998,-16.905,28.0525,-8.7325
8,9346347,0.9741700000000001,-0.124928,-0.26169000000000003,-14.035,38.08,-9.4325
9,9346445,0.9669721,-0.108702,-0.215574,-8.085,43.1725,-9.24
10,9346543,0.9833200000000001,-0.10675,-0.08564401,0.105,38.99,-8.1725
11,9346641,1.0384639999999998,-0.11919400000000001,0.268644,6.195,21.63,-5.8975
12,9346739,0.8937719999999999,-0.09589201,0.22948200000000002,-2.0125,-3.57,-3.85
13,9346837,0.9348860999999999,-0.107116,-0.06929600000000001,-5.8275,-20.895,-2.94
14,9346935,0.993568,-0.111752,-0.19032000000000002,-3.3075,-14.91,-3.7625
15,9347033,0.992348,-0.114924,-0.168238,-3.01,-5.8975,-4.025
16,9347131,0.9627020000000001,-0.114192,-0.12065799999999999,-2.3975,-3.7625,-4.0775
17,9347229,0.9622141,-0.114558,-0.114192,-2.87,-6.7725,-4.165
18,9347326,0.9777081,-0.11394800000000001,-0.126392,-3.01,-8.225,-4.2875
19,9347424,0.9851501,-0.115168,-0.126026,-2.9575,-7.2275,-4.41
20,9347522,0.9840521000000001,-0.11577799999999999,-0.12248800000000001,-2.905,-6.3175,-4.375
21,9347620,0.978196,-0.117852,-0.120902,-2.87,-6.9825,-4.3925
22,9347718,0.975024,-0.117974,-0.125172,-2.695,-8.225,-4.4625
23,9347816,0.971974,-0.119316,-0.131882,-2.6075,-8.575,-4.515
24,9347914,0.9701440999999998,-0.117974,-0.128832,-2.73,-8.0325,-4.5325
25,9348012,0.97356,-0.11846199999999998,-0.12456199999999999,-2.975,-7.4725,-4.655
26,9348110,0.9767321,-0.12078,-0.12261,-3.1675,-7.4725,-4.7075
27,9348208,0.9767321,-0.11943800000000002,-0.12322000000000001,-3.1675,-7.91,-4.6725
28,9348306,0.9753901,-0.118828,-0.122976,-3.185,-8.085,-4.6025
29,9348403,0.9739261,-0.11712,-0.12322000000000001,-3.3075,-7.9275,-4.55
30,9348501,0.9739261,-0.11626600000000001,-0.12322000000000001,-3.5525,-7.945,-4.55
31,9348599,0.9713639999999999,-0.11467999999999999,-0.119682,-3.71,-7.875,-4.48
32,9348697,0.9713639999999999,-0.114802,-0.118584,-3.9025,-7.7175,-4.515
33,9348795,0.96929,-0.116388,-0.120048,-3.99,-7.49,-4.3925
34,9348893,0.9705101,-0.11614400000000001,-0.121146,-3.885,-7.4375,-4.445
35,9348991,0.9696561,-0.11431400000000001,-0.12029200000000001,-4.095,-7.245,-4.48
36,9349089,0.9678261,-0.11407,-0.119072,-4.1475,-7.07,-4.515
37,9349187,0.9700219999999999,-0.111508,-0.119682,-4.1475,-6.79,-4.5325
38,9349284,0.9720960999999999,-0.11285,-0.12041400000000001,-4.0425,-6.825,-4.515
39,9349382,0.9740479999999999,-0.11041,-0.121146,-3.9725,-6.9125,-4.585
40,9349480,0.977342,-0.108946,-0.11919400000000001,-3.815,-6.545,-4.6025
41,9349578,0.978684,-0.108702,-0.12078,-3.8325,-6.16,-4.62
42,9349676,0.977342,-0.109922,-0.12334200000000001,-3.675,-5.9675,-4.5675
43,9349774,0.9769760000000001,-0.1098,-0.12334200000000001,-3.5175,-5.9325,-4.4625
44,9349872,0.9744141,-0.10943399999999999,-0.12053599999999999,-3.5,-5.8275,-4.515
45,9349970,0.974658,-0.11138599999999999,-0.12212200000000001,-3.5,-5.95,-4.585
46,9350068,0.9749021000000001,-0.113094,-0.122732,-3.185,-6.1775,-4.55
47,9350166,0.9752681000000001,-0.11333800000000001,-0.124074,-2.87,-6.2125,-4.48
48,9350263,0.973316,-0.11211800000000001,-0.126148,-2.73,-6.37,-4.55
49,9350361,0.9745360000000001,-0.108824,-0.127734,-2.6425,-6.4925,-4.55
50,9350459,0.9762440999999998,-0.10906800000000001,-0.126636,-2.52,-6.5625,-4.48
51,9350557,0.9785620999999999,-0.10906800000000001,-0.125538,-2.3975,-6.755,-4.48
52,9350655,0.9801479999999999,-0.11053199999999999,-0.12431800000000001,-2.1525,-6.895,-4.4275
53,9350753,0.9799041,-0.112606,-0.121024,-1.8375,-7.1225,-4.4275
54,9350851,0.978196,-0.112606,-0.12395199999999999,-1.925,-6.9825,-4.55
55,9350949,0.976,-0.11321600000000001,-0.125416,-2.2575,-6.895,-4.655
56,9351047,0.9767321,-0.11626600000000001,-0.126392,-2.3975,-6.86,-4.48
57,9351145,0.9753901,-0.11736400000000001,-0.12749000000000002,-2.345,-6.825,-4.5325
58,9351243,0.9741700000000001,-0.11541199999999999,-0.12675799999999998,-2.38,-7.07,-4.62
59,9351340,0.9749021000000001,-0.114436,-0.130296,-2.5375,-7.035,-4.55
60,9351438,0.9730721,-0.11541199999999999,-0.131882,-2.485,-6.79,-4.445
61,9351536,0.97478,-0.11407,-0.128344,-2.4675,-6.825,-4.3575
62,9351634,0.9768540000000001,-0.11248399999999999,-0.127978,-2.5375,-7.105,-4.48
63,9351732,0.9779521000000001,-0.115168,-0.12993,-2.835,-7.1575,-4.515
64,9351830,0.97783,-0.118218,-0.130418,-3.0975,-7.1575,-4.6025
65,9351928,0.9791719999999999,-0.11943800000000002,-0.12749000000000002,-3.255,-7.2975,-4.655
66,9352026,0.9791719999999999,-0.115656,-0.12980799999999998,-3.535,-7.4025,-4.6725
67,9352124,0.977342,-0.113704,-0.13115,-3.9375,-7.3675,-4.725
68,9352222,0.978928,-0.114436,-0.13151600000000002,-4.1825,-7.2975,-4.76
69,9352319,0.980514,-0.112606,-0.131882,-4.1125,-7.1925,-4.7075
70,9352417,0.9769760000000001,-0.10943399999999999,-0.129442,-4.1125,-7.175,-4.6725
71,9352515,0.97234,-0.10553,-0.133346,-4.375,-7.28,-4.585
72,9352613,0.9714860000000001,-0.107116,-0.13383399999999998,-4.305,-7.4025,-4.6025
73,9352711,0.9684360999999999,-0.107848,-0.135176,-4.165,-7.49,-4.6025
74,9352809,0.968924,-0.10809200000000001,-0.135664,-4.13,-7.5075,-4.6375
75,9352907,0.9683141,-0.10760399999999999,-0.134078,-4.095,-7.5075,-4.8125
76,9353005,0.9697780999999999,-0.106018,-0.13456600000000002,-4.27,-7.3325,-4.9875
77,9353103,0.971974,-0.1098,-0.136518,-4.445,-7.07,-5.1275
78,9353201,0.9729501,-0.11028800000000001,-0.134444,-4.62,-6.965,-5.25
79,9353299,0.972218,-0.1098,-0.133956,-4.8825,-6.72,-5.32
80,9353396,0.9701440999999998,-0.111996,-0.134688,-5.0925,-6.475,-5.3025
81,9353494,0.9680700000000001,-0.11236199999999999,-0.135908,-5.2675,-6.545,-5.25
82,9353592,0.9697780999999999,-0.111996,-0.134078,-5.495,-6.6325,-5.18
83,9353690,0.9713639999999999,-0.112606,-0.13542,-5.5475,-6.65,-4.935
84,9353788,0.9734381,-0.11126400000000002,-0.135664,-5.39,-6.6325,-4.725
85,9353886,0.9749021000000001,-0.11163,-0.136274,-5.2675,-6.65,-4.55
86,9353984,0.9751460999999999,-0.109678,-0.13944600000000001,-5.4075,-6.51,-4.5325
87,9354082,0.9745360000000001,-0.108824,-0.1403,-5.6,-6.3,-4.4975
88,9354180,0.971974,-0.109556,-0.138348,-5.6875,-6.335,-4.41
89,9354278,0.97234,-0.11358199999999999,-0.140422,-5.88,-6.4925,-4.445
90,9354375,0.9716081,-0.11285,-0.14152,-5.9675,-6.5275,-4.3575
91,9354473,0.9711200999999999,-0.110898,-0.142618,-6.055,-6.5275,-4.3925
92,9354571,0.9706319999999999,-0.110776,-0.142984,-6.1075,-6.685,-4.235
93,9354669,0.9741700000000001,-0.10919000000000001,-0.14310599999999998,-6.195,-6.755,-4.095
94,9354767,0.9752681000000001,-0.108824,-0.143594,-6.3,-6.685,-4.0425
95,9354865,0.9749021000000001,-0.107482,-0.142008,-6.3525,-6.8425,-3.85
96,9354963,0.9751460999999999,-0.10760399999999999,-0.140422,-6.4575,-7.07,-3.8325
97,9355061,0.9752681000000001,-0.107726,-0.14188599999999998,-6.37,-7.1925,-3.71
98,9355159,0.975512,-0.10528599999999999,-0.14090999999999998,-6.16,-7.3325,-3.6925
99,9355257,0.973194,-0.104554,-0.141032,-5.985,-7.5775,-3.8325
100,9355355,0.972828,-0.10516400000000001,-0.139934,-5.845,-7.63,-3.85
101,9355452,0.969534,-0.105896,-0.138104,-5.7225,-7.4725,-3.885
102,9355550,0.9706319999999999,-0.10504200000000001,-0.139934,-5.6175,-7.455,-3.92
103,9355648,0.9686799999999999,-0.10430999999999999,-0.14213,-5.6175,-7.42,-3.9725
104,9355746,0.9678261,-0.10553,-0.14164200000000002,-5.88,-7.14,-4.0425
105,9355844,0.9675819999999999,-0.106628,-0.143228,-6.0375,-7.0,-4.06
106,9355942,0.969412,-0.108214,-0.145302,-6.125,-6.9125,-4.0075
107,9356040,0.9686799999999999,-0.10797000000000001,-0.14566800000000002,-6.265,-6.6675,-4.0775
108,9356138,0.968924,-0.10858,-0.14579,-6.4225,-6.3,-4.0075
109,9356236,0.968192,-0.10809200000000001,-0.142496,-6.545,-5.95,-3.92
110,9356334,0.9679481,-0.105774,-0.140544,-6.65,-6.195,-3.92
111,9356432,0.9711200999999999,-0.10394400000000001,-0.14347200000000002,-6.8775,-6.3,-3.9375
112,9356530,0.9714860000000001,-0.10492,-0.14469200000000002,-7.0175,-6.0025,-4.06
113,9356627,0.9707541,-0.10675,-0.146156,-7.035,-5.6,-4.0775
114,9356725,0.969412,-0.10760399999999999,-0.145912,-7.035,-5.4425,-4.13
115,9356823,0.968558,-0.10833599999999999,-0.14786400000000002,-7.0525,-5.6525,-4.13
116,9356921,0.9684360999999999,-0.10650599999999999,-0.152622,-6.965,-5.9325,-3.9375
117,9357019,0.966606,-0.10504200000000001,-0.153476,-6.93,-6.1425,-3.885
118,9357117,0.969412,-0.102114,-0.155306,-7.0,-6.4225,-3.7625
119,9357215,0.9734381,-0.103334,-0.15494000000000002,-7.105,-6.7025,-3.78
120,9357313,0.975512,-0.10614000000000001,-0.15201199999999998,-7.105,-7.1225,-3.6575
121,9357411,0.9813681000000001,-0.10858,-0.15433,-6.8775,-7.77,-3.4825
122,9357509,0.9845401,-0.11102000000000001,-0.156648,-6.7725,-8.1725,-3.4125
123,9357606,0.9860040999999999,-0.11041,-0.153232,-6.8075,-8.7675,-3.3075
124,9357704,0.987956,-0.105774,-0.151402,-7.1925,-9.6425,-3.115
125,9357802,0.9939341,-0.10394400000000001,-0.15506199999999998,-7.7175,-10.4475,-3.15
126,9357900,0.9929581000000001,-0.102968,-0.156892,-7.945,-10.64,-3.2375
127,9357998,0.990884,-0.10345599999999999,-0.158966,-7.84,-10.5175,-3.2025
128,9358096,0.987956,-0.101748,-0.158356,-7.665,-11.06,-3.3425
129,9358194,0.9829540000000001,-0.0976,-0.160552,-7.4725,-12.1275,-3.255
130,9358292,0.9828321,-0.09625801,-0.1647,-7.245,-12.8625,-3.1325
131,9358390,0.9833200000000001,-0.09540401,-0.166774,-7.07,-13.37,-3.1675
132,9358488,0.9813681000000001,-0.094916,-0.168604,-6.965,-14.0,-3.3075
133,9358586,0.9791719999999999,-0.094062,-0.166408,-6.86,-14.8225,-3.36
134,9358684,0.979294,-0.09381801,-0.16592,-7.1225,-15.19,-3.43
135,9358781,0.9795381,-0.09589201,-0.165676,-7.14,-15.3825,-3.535
136,9358879,0.976366,-0.09942999999999999,-0.164212,-7.245,-15.645,-3.5
137,9358977,0.97173,-0.09930800000000001,-0.16433399999999998,-7.0175,-15.505,-3.6225
138,9359075,0.966484,-0.09869801,-0.163358,-6.9125,-15.4175,-3.6575
139,9359173,0.9620920000000001,-0.095282,-0.16128399999999998,-6.72,-15.47,-3.465
140,9359271,0.9602620999999999,-0.09455001,-0.161528,-6.7025,-15.3475,-3.465
141,9359369,0.9600181000000001,-0.09577000000000001,-0.162382,-6.44,-15.225,-3.4825
142,9359467,0.95831,-0.09674601,-0.161894,-6.3,-14.9275,-3.4475
143,9359565,0.9586761,-0.095648,-0.161162,-6.23,-14.385,-3.3775
144,9359663,0.9575780999999999,-0.095282,-0.162626,-6.1075,-14.175,-3.395
145,9359761,0.9587979999999999,-0.09552601,-0.163846,-6.09,-14.07,-3.5525
146,9359858,0.9600181000000001,-0.09698999999999999,-0.16433399999999998,-5.88,-13.72,-3.5525
147,9359956,0.960384,-0.09845401,-0.165798,-5.74,-13.125,-3.5875
148,9360054,0.9577,-0.100162,-0.164944,-5.6875,-12.74,-3.64
149,9360152,0.9608721,-0.10052799999999999,-0.163846,-5.6175,-12.215,-3.7975
150,9360250,0.9577,-0.101138,-0.165676,-5.7225,-11.4975,-3.955
151,9360348,0.9585541,-0.10418800000000002,-0.167384,-5.8275,-10.955,-3.92
152,9360446,0.955992,-0.10345599999999999,-0.16592,-5.6175,-10.5,-3.8325
153,9360544,0.9564799999999999,-0.103578,-0.16909200000000002,-5.3725,-10.15,-3.7975
154,9360642,0.9567241,-0.102114,-0.17019,-5.0925,-9.835,-3.745
155,9360740,0.9586761,-0.09638,-0.171776,-4.9875,-9.7475,-3.675
156,9360838,0.9629459999999999,-0.093086,-0.17238599999999998,-4.795,-9.7475,-3.605
157,9360935,0.967094,-0.093574,-0.17385,-4.7425,-9.2225,-3.535
158,9361033,0.968558,-0.09516001,-0.17433800000000002,-4.55,-8.5925,-3.43
159,9361131,0.965996,-0.096624,-0.173118,-4.4625,-8.4175,-3.43
160,9361229,0.9648979999999999,-0.095648,-0.17616800000000002,-4.2525,-8.19,-3.5
161,9361327,0.9627020000000001,-0.095282,-0.17568,-4.0075,-7.805,-3.535
162,9361425,0.962458,-0.09589201,-0.17629,-3.6575,-7.49,-3.5525
163,9361523,0.9620920000000001,-0.094916,-0.1769,-3.325,-7.07,-3.64
164,9361621,0.9589200999999999,-0.09186601,-0.177876,-2.94,-6.6675,-3.6925
165,9361719,0.957822,-0.091988,-0.181292,-2.5725,-6.5275,-3.675
166,9361817,0.96014,-0.09235399999999999,-0.18178,-2.3275,-6.405,-3.7975
167,9361915,0.9630681000000001,-0.09223200000000001,-0.179096,-2.0475,-6.125,-3.745
168,9362013,0.963922,-0.09272000000000001,-0.17848599999999998,-1.8025,-5.74,-3.815
169,9362110,0.9635560999999999,-0.09223200000000001,-0.17568,-1.4875,-5.705,-3.885
170,9362208,0.9627020000000001,-0.091378,-0.178974,-1.4,-5.74,-3.9725
171,9362306,0.96441,-0.09211,-0.178608,-1.3825,-5.3025,-3.9725
172,9362404,0.9633120999999999,-0.09625801,-0.17873,-1.225,-4.8475,-3.955
173,9362502,0.9638,-0.10065,-0.18104800000000001,-0.9275,-4.725,-3.8675
174,9362600,0.9625799999999999,-0.099674,-0.18361,-0.77,-4.585,-3.85
175,9362698,0.962458,-0.098332,-0.184952,-0.6475,-4.585,-3.8325
176,9362796,0.96319,-0.09674601,-0.185318,-0.525,-4.41,-3.78
177,9362894,0.964044,-0.09882,-0.18605,-0.5775,-4.2875,-3.6575
178,9362992,0.9650200999999999,-0.09821001,-0.18483,-0.245,-4.165,-3.535
179,9363090,0.9653860000000001,-0.09821001,-0.185684,0.1575,-4.0075,-3.57
180,9363188,0.9646541,-0.09930800000000001,-0.187026,0.385,-4.13,-3.5525
181,9363285,0.9638,-0.100406,-0.18361,0.7175,-4.235,-3.4825
182,9363383,0.9646541,-0.10126,-0.183976,0.91,-4.2525,-3.535
183,9363481,0.966484,-0.100406,-0.18324400000000002,0.9625,-4.3225,-3.6225
184,9363579,0.9651421,-0.10065,-0.18324400000000002,0.8400001,-4.165,-3.78
185,9363677,0.966118,-0.099674,-0.183366,0.8925,-4.0425,-3.7975
186,9363775,0.9653860000000001,-0.10126,-0.18324400000000002,0.9275,-3.92,-3.9025
187,9363873,0.9648979999999999,-0.100284,-0.18287799999999999,1.1725,-3.85,-3.8325
188,9363971,0.9629459999999999,-0.09821001,-0.183732,1.2775,-3.9375,-3.8325
189,9364069,0.964044,-0.101016,-0.18239,1.5925,-3.8675,-3.8675
190,9364167,0.9642879999999999,-0.10065,-0.182024,1.9075,-3.8675,-3.8325
191,9364265,0.9638,-0.100162,-0.180804,2.135,-3.64,-3.7275
192,9364362,0.964532,-0.09906401,-0.18068199999999998,2.3275,-3.5875,-3.7975
193,9364460,0.9636780999999999,-0.102114,-0.179584,2.3275,-3.605,-3.8325
194,9364558,0.965874,-0.10614000000000001,-0.180194,2.3975,-3.64,-3.9375
195,9364656,0.9663620999999999,-0.1098,-0.18104800000000001,2.3275,-3.4825,-4.0775
196,9364754,0.965752,-0.109556,-0.17921800000000002,2.205,-3.4825,-4.1475
197,9364852,0.967216,-0.10858,-0.17946199999999998,2.03,-3.465,-4.095
198,9364950,0.9663620999999999,-0.10906800000000001,-0.178852,1.9425,-3.0625,-3.99
199,9365048,0.9663620999999999,-0.108946,-0.177876,2.0825,-2.94,-3.9375
200,9365146,0.9646541,-0.10833599999999999,-0.177022,2.3275,-3.1325,-3.815
201,9365244,0.9653860000000001,-0.10858,-0.177876,2.38,-3.4125,-3.7275
202,9365342,0.964776,-0.108702,-0.180316,2.3275,-3.5,-3.815
203,9365440,0.9675819999999999,-0.10858,-0.17848599999999998,2.2925,-3.325,-3.8325
204,9365538,0.9696561,-0.11016600000000001,-0.179096,2.275,-3.2025,-3.8325
205,9365635,0.968558,-0.11126400000000002,-0.180316,2.1175,-3.115,-3.885
206,9365733,0.9683141,-0.11102000000000001,-0.181658,2.3275,-2.8,-3.9375
207,9365831,0.96624,-0.109556,-0.180926,2.4325,-2.87,-3.99
208,9365929,0.9625799999999999,-0.107726,-0.179096,2.4675,-3.4125,-3.92
209,9366027,0.9635560999999999,-0.105774,-0.18251199999999998,2.3625,-3.85,-3.9725
210,9366125,0.96441,-0.10687200000000001,-0.18239,2.275,-4.165,-4.0425
211,9366223,0.9677040000000001,-0.10797000000000001,-0.180316,2.275,-4.27,-4.025
212,9366321,0.9674601,-0.10736,-0.176778,2.38,-4.48,-4.13
213,9366419,0.967094,-0.106994,-0.17385,2.52,-4.4625,-4.235
214,9366517,0.9678261,-0.10906800000000001,-0.174704,2.485,-4.375,-4.3925
215,9366615,0.9680700000000001,-0.11321600000000001,-0.17763199999999998,2.5025,-4.515,-4.3225
216,9366713,0.967216,-0.112728,-0.17580199999999999,2.59,-4.48,-4.4625
217,9366810,0.96624,-0.11345999999999999,-0.177876,2.52,-4.48,-4.445
218,9366908,0.9651421,-0.11333800000000001,-0.177022,2.555,-4.55,-4.4625
219,9367006,0.964532,-0.11345999999999999,-0.176534,2.31,-4.5325,-4.41
220,9367104,0.9651421,-0.11285,-0.175314,2.17,-4.585,-4.41
221,9367202,0.967216,-0.114192,-0.177266,1.82,-5.005,-4.4975
222,9367300,0.9686799999999999,-0.11504600000000001,-0.17751,1.5925,-5.3025,-4.3925
223,9367398,0.9729501,-0.116754,-0.177754,1.505,-5.6875,-4.305
224,9367496,0.9769760000000001,-0.11541199999999999,-0.180072,1.3825,-5.7925,-4.235
225,9367594,0.9753901,-0.11358199999999999,-0.181658,1.1725,-5.88,-4.2175
226,9367692,0.9709979999999999,-0.109678,-0.17934,1.05,-6.02,-4.2525
227,9367790,0.9700219999999999,-0.10833599999999999,-0.179706,0.8400001,-6.4225,-4.3225
228,9367888,0.9711200999999999,-0.110044,-0.18178,0.7175,-7.035,-4.4275
229,9367986,0.9716081,-0.111996,-0.181536,0.595,-7.3675,-4.4625
230,9368083,0.9705101,-0.11504600000000001,-0.180316,0.665,-7.3675,-4.48
231,9368181,0.9684360999999999,-0.1159,-0.18324400000000002,0.7525,-7.595,-4.4625
232,9368279,0.965996,-0.11333800000000001,-0.18556199999999998,0.63,-7.945,-4.48
233,9368377,0.9636780999999999,-0.11321600000000001,-0.185196,0.6125,-8.0325,-4.4275
234,9368475,0.96319,-0.113094,-0.185196,0.42,-8.12,-4.3925
235,9368573,0.9618481,-0.11236199999999999,-0.18666,0.1925,-8.1025,-4.2175
236,9368671,0.9638,-0.11236199999999999,-0.187392,0.1575,-8.0325,-4.13
237,9368769,0.965752,-0.114924,-0.18470799999999998,0.035,-8.1725,-4.0425
238,9368867,0.964776,-0.11760799999999999,-0.186416,-0.28,-8.4525,-4.1125
239,9368965,0.964776,-0.11943800000000002,-0.186538,-0.4375,-8.7325,-4.13
240,9369063,0.9652639999999999,-0.119682,-0.18751400000000001,-0.42,-8.855,-4.025
241,9369161,0.9648979999999999,-0.11577799999999999,-0.18971,-0.4375,-8.9775,-4.0075
242,9369258,0.967216,-0.112728,-0.190564,-0.56,-9.0825,-3.99
243,9369356,0.968924,-0.112606,-0.191906,-0.665,-9.5375,-3.9375
244,9369454,0.9686799999999999,-0.112606,-0.19276,-0.5775,-10.1675,-3.92
245,9369552,0.9701440999999998,-0.11431400000000001,-0.18995399999999998,-0.4375,-10.36,-3.8675
246,9369650,0.9677040000000001,-0.115656,-0.195322,-0.3675,-10.325,-3.955
247,9369748,0.965996,-0.11285,-0.194468,-0.4025,-10.4475,-3.99
248,9369846,0.966484,-0.110776,-0.191662,-0.35,-10.64,-4.095
249,9369944,0.9696561,-0.11224,-0.191174,-0.56,-11.13,-4.1475
250,9370042,0.9708760000000001,-0.11358199999999999,-0.193614,-0.6825,-11.76,-4.095
251,9370140,0.9745360000000001,-0.116632,-0.19093,-0.6475,-12.2675,-4.095
252,9370238,0.9740479999999999,-0.11712,-0.188978,-0.2275,-12.6875,-4.095
253,9370336,0.973316,-0.11577799999999999,-0.188612,-0.0875,-13.09,-4.0775
254,9370433,0.969046,-0.110654,-0.192394,-0.1925,-13.2475,-4.165
255,9370531,0.9668501,-0.10943399999999999,-0.19276,-0.1925,-13.2825,-4.27
256,9370629,0.963434,-0.10906800000000001,-0.19483399999999998,0.21,-13.8425,-4.2525
257,9370727,0.963922,-0.110898,-0.193004,0.5425,-14.2975,-4.3225
258,9370825,0.966728,-0.11870599999999999,-0.188368,0.98,-14.6125,-4.305
259,9370923,0.9675819999999999,-0.116998,-0.187636,1.12,-14.805,-4.2525
260,9371021,0.9642879999999999,-0.11724200000000001,-0.18788,1.155,-14.98,-4.4275
261,9371119,0.962458,-0.119072,-0.188856,1.015,-14.7525,-4.62
262,9371217,0.9575780999999999,-0.11955999999999999,-0.190076,0.98,-14.4725,-4.8825
263,9371315,0.9558701,-0.12078,-0.191662,0.945,-14.4375,-4.9525
264,9371413,0.9551379999999999,-0.122,-0.193004,0.7,-14.385,-5.0925
265,9371511,0.9562360999999999,-0.122366,-0.195688,0.5425,-14.035,-5.2325
266,9371608,0.9553821,-0.122366,-0.19702999999999998,0.49,-13.825,-5.18
267,9371706,0.953674,-0.12078,-0.202398,0.63,-13.8425,-5.0925
268,9371804,0.9564799999999999,-0.12431800000000001,-0.200812,0.8925,-13.9825,-5.04
269,9371902,0.9586761,-0.123464,-0.198738,0.735,-14.035,-4.9175
270,9372000,0.9585541,-0.12285399999999999,-0.199714,0.21,-13.86,-4.8125
271,9372098,0.955016,-0.12566,-0.202764,-0.315,-13.335,-4.7425
272,9372196,0.9537959999999999,-0.12980799999999998,-0.204228,-0.525,-12.74,-4.8475
273,9372294,0.9534301,-0.130052,-0.20618000000000003,-0.5075,-12.6525,-4.8125
274,9372392,0.9514780999999999,-0.12895399999999999,-0.20727800000000002,-0.77,-12.6175,-4.725
275,9372490,0.9492821,-0.12675799999999998,-0.20642399999999997,-1.0325,-12.2675,-4.6725
276,9372587,0.9492821,-0.123464,-0.208742,-1.1725,-11.9525,-4.48
277,9372685,0.948184,-0.122366,-0.20642399999999997,-1.3825,-11.83,-4.4975
278,9372783,0.9467200000000001,-0.122244,-0.20801,-1.435,-11.6375,-4.4275
279,9372881,0.946842,-0.12383,-0.20642399999999997,-1.4525,-11.5325,-4.375
280,9372979,0.9472079999999999,-0.12383,-0.205204,-1.4,-11.0075,-4.235
281,9373077,0.9497701,-0.122244,-0.20556999999999997,-1.3825,-10.4475,-4.2525
282,9373175,0.9489161,-0.121512,-0.203984,-1.3825,-9.7825,-4.1475
283,9373273,0.9479401,-0.117974,-0.203862,-1.4,-9.065,-4.27
284,9373371,0.9463540000000001,-0.114924,-0.20435,-1.61,-8.8025,-4.4975
285,9373469,0.9474520000000001,-0.11333800000000001,-0.20642399999999997,-1.435,-8.8025,-4.4625
286,9373567,0.9492821,-0.116022,-0.20861999999999997,-1.295,-8.89,-4.4275
287,9373665,0.951722,-0.120902,-0.205936,-1.3475,-8.5925,-4.305
288,9373763,0.9540401,-0.123098,-0.203496,-1.225,-8.12,-4.3225
289,9373860,0.954284,-0.12175599999999999,-0.203862,-1.2775,-7.4375,-4.34
290,9373958,0.955016,-0.121268,-0.203496,-1.4175,-6.72,-4.3575
291,9374056,0.9537959999999999,-0.121146,-0.203862,-1.575,-6.23,-4.3925
292,9374154,0.9531860000000001,-0.119316,-0.20556999999999997,-1.4875,-5.9675,-4.3225
293,9374252,0.955992,-0.12029200000000001,-0.208498,-1.2075,-5.8975,-4.34
294,9374350,0.95831,-0.11895,-0.21228000000000002,-1.1375,-5.985,-4.3225
295,9374448,0.9629459999999999,-0.11724200000000001,-0.21899000000000002,-1.4175,-6.16,-4.3575
296,9374546,0.9655081,-0.12041400000000001,-0.21838000000000002,-1.96,-5.95,-4.41
297,9374644,0.9638,-0.12358599999999999,-0.21777,-2.2575,-5.46,-4.515
298,9374742,0.9651421,-0.122366,-0.219966,-2.6775,-4.9525,-4.6375
299,9374840,0.95831,-0.124074,-0.217038,-3.0625,-4.515,-4.55
300,9374938,0.9535521,-0.122366,-0.21801399999999999,-3.43,-4.4275,-4.4625
301,9375035,0.9503799999999999,-0.121268,-0.22496799999999997,-3.7975,-4.725,-4.3575
302,9375133,0.9490379999999999,-0.12139000000000001,-0.226554,-4.095,-4.7425,-4.27
303,9375231,0.9496479999999999,-0.12212200000000001,-0.227042,-4.1825,-4.795,-4.165
304,9375329,0.95099,-0.12285399999999999,-0.228506,-4.3575,-5.005,-4.095
305,9375427,0.951356,-0.118584,-0.229848,-4.62,-5.3375,-4.0075
306,9375525,0.951356,-0.118096,-0.22948200000000002,-4.7075,-5.39,-3.8325
307,9375623,0.9486720999999999,-0.117974,-0.227408,-4.83,-5.4425,-3.815
308,9375721,0.947574,-0.115656,-0.22667600000000002,-4.8125,-5.4425,-3.7975
309,9375819,0.948184,-0.11345999999999999,-0.225456,-4.8475,-5.565,-3.7975
310,9375917,0.948306,-0.111142,-0.224358,-4.83,-5.46,-3.9025
311,9376015,0.94855,-0.11236199999999999,-0.223748,-4.76,-5.46,-4.0775
312,9376113,0.9507460999999999,-0.111874,-0.223016,-4.5325,-5.495,-4.2
313,9376210,0.95221,-0.112606,-0.222894,-4.48,-5.46,-4.2875
314,9376308,0.9525761,-0.11236199999999999,-0.222894,-4.4275,-5.3375,-4.1825
315,9376406,0.954528,-0.111142,-0.22033200000000003,-4.5325,-5.1975,-4.13
316,9376504,0.9561139999999999,-0.11163,-0.219234,-4.69,-5.04,-4.2525
317,9376602,0.9558701,-0.11407,-0.22204000000000002,-4.6375,-4.76,-4.095
318,9376700,0.95709,-0.11577799999999999,-0.22191799999999998,-4.4625,-4.4975,-4.06
319,9376798,0.9557479999999999,-0.118096,-0.221308,-4.235,-4.41,-3.955
320,9376896,0.9563581,-0.11626600000000001,-0.22167399999999998,-4.2,-4.305,-3.92
321,9376994,0.9562360999999999,-0.1159,-0.22118600000000002,-4.235,-4.0425,-3.885
322,9377092,0.9552601000000001,-0.115656,-0.22143000000000002,-4.3225,-4.0425,-3.92
323,9377190,0.9540401,-0.11333800000000001,-0.22033200000000003,-4.375,-4.1825,-3.7975
324,9377288,0.9512341000000001,-0.11248399999999999,-0.221796,-4.3925,-4.2875,-3.8675
325,9377385,0.9519661,-0.11236199999999999,-0.22252800000000003,-4.34,-4.5675,-3.85
326,9377483,0.954284,-0.10931199999999999,-0.219966,-4.48,-4.41,-3.7625
327,9377581,0.9557479999999999,-0.10760399999999999,-0.22033200000000003,-4.6725,-4.095,-3.78
328,9377679,0.9563581,-0.10797000000000001,-0.220088,-4.6025,-4.095,-3.8325
329,9377777,0.9585541,-0.108824,-0.22265,-4.515,-4.1125,-3.955
330,9377875,0.9590420000000001,-0.108946,-0.22472399999999998,-4.375,-4.06,-4.095
331,9377973,0.95831,-0.10638399999999999,-0.223992,-4.1825,-4.0425,-4.095
332,9378071,0.9568459999999999,-0.108214,-0.226188,-4.0425,-4.06,-4.1125
333,9378169,0.95465,-0.10943399999999999,-0.22753,-3.9375,-4.305,-3.9725
334,9378267,0.9547720999999999,-0.11041,-0.22814,-3.675,-4.4625,-3.9375
335,9378365,0.955626,-0.1098,-0.228262,-3.6575,-4.585,-4.0425
336,9378463,0.9562360999999999,-0.10797000000000001,-0.22814,-3.9725,-4.5675,-4.165
337,9378561,0.955016,-0.11102000000000001,-0.22667600000000002,-4.165,-4.48,-4.27
338,9378658,0.9540401,-0.11321600000000001,-0.22875,-4.235,-4.55,-4.2175
339,9378756,0.9540401,-0.112728,-0.228994,-4.1125,-4.9525,-4.2175
340,9378854,0.954406,-0.11102000000000001,-0.225944,-3.9375,-4.9525,-4.165
341,9378952,0.9540401,-0.107482,-0.228262,-3.6225,-4.9,-4.0425
342,9379050,0.954284,-0.103334,-0.222894,-3.5,-4.9525,-4.095
343,9379148,0.955992,-0.09991799999999999,-0.2257,-3.5175,-5.18,-4.1475
344,9379246,0.9553821,-0.10004,-0.223992,-3.255,-5.3025,-4.3225
345,9379344,0.955992,-0.102602,-0.22472399999999998,-2.8,-5.215,-4.4275
346,9379442,0.9558701,-0.10614000000000001,-0.22753,-2.4325,-5.1975,-4.3575
347,9379540,0.9553821,-0.10638399999999999,-0.227652,-2.1,-5.25,-4.3575
348,9379638,0.954284,-0.10760399999999999,-0.228872,-1.995,-5.145,-4.3225
349,9379736,0.9531860000000001,-0.108458,-0.23082399999999997,-1.9775,-5.1625,-4.41
350,9379833,0.952942,-0.107116,-0.229238,-2.1525,-5.39,-4.48
351,9379931,0.9537959999999999,-0.10736,-0.22948200000000002,-2.1525,-5.705,-4.585
352,9380029,0.954528,-0.107482,-0.226798,-1.9775,-5.81,-4.6025
353,9380127,0.9530641,-0.108702,-0.226554,-2.0475,-5.8275,-4.5325
354,9380225,0.953308,-0.10858,-0.22448,-2.03,-5.8625,-4.515
355,9380323,0.9553821,-0.108214,-0.225334,-1.9425,-6.02,-4.585
356,9380421,0.9555040000000001,-0.10931199999999999,-0.22557800000000003,-1.8725,-6.0725,-4.4975
357,9380519,0.9564799999999999,-0.10687200000000001,-0.22423600000000002,-1.89,-5.8275,-4.41
358,9380617,0.955016,-0.106262,-0.22496799999999997,-1.7325,-5.635,-4.3925
359,9380715,0.951356,-0.105652,-0.226554,-1.5575,-5.6175,-4.48
360,9380813,0.950868,-0.10638399999999999,-0.22557800000000003,-1.4175,-5.7575,-4.445
361,9380911,0.952332,-0.101992,-0.22448,-1.4875,-5.775,-4.4975
362,9381008,0.952332,-0.100162,-0.224358,-1.6275,-5.8275,-4.6725
363,9381106,0.9534301,-0.101504,-0.22496799999999997,-1.505,-5.915,-4.69
364,9381204,0.954406,-0.100284,-0.22509,-1.4525,-5.9675,-4.7775
365,9381302,0.9547720999999999,-0.102114,-0.22582199999999997,-1.505,-6.0375,-4.9175
366,9381400,0.955992,-0.10309000000000001,-0.224846,-1.505,-6.3,-4.9525
367,9381498,0.9572120999999999,-0.102846,-0.223016,-1.4175,-6.23,-4.9525
368,9381596,0.958432,-0.1037,-0.223016,-1.365,-5.8625,-4.97
369,9381694,0.9591639999999999,-0.10492,-0.22143000000000002,-1.26,-5.5475,-4.9525
370,9381792,0.9567241,-0.10394400000000001,-0.22033200000000003,-1.225,-5.5475,-4.9525
371,9381890,0.9541620000000001,-0.101992,-0.222162,-1.2425,-5.7925,-4.9
372,9381988,0.954284,-0.10126,-0.22143000000000002,-1.2075,-5.81,-5.11
373,9382086,0.9537959999999999,-0.10248,-0.222894,-1.1725,-5.7225,-5.0925
374,9382184,0.9531860000000001,-0.100162,-0.221552,-1.12,-5.74,-5.11
375,9382281,0.9548940999999999,-0.10004,-0.22143000000000002,-1.2075,-5.7925,-5.1625
376,9382379,0.95709,-0.10223600000000001,-0.222162,-1.1375,-5.67,-5.2675
377,9382477,0.9587979999999999,-0.10223600000000001,-0.218746,-0.9275,-5.5125,-5.11
378,9382575,0.957944,-0.101138,-0.21862399999999999,-0.91,-5.3725,-5.04
379,9382673,0.957822,-0.099186,-0.21899000000000002,-0.7525,-5.425,-5.1625
380,9382771,0.9562360999999999,-0.09906401,-0.21752600000000002,-0.63,-5.285,-5.215
381,9382869,0.9562360999999999,-0.099674,-0.216428,-0.4725,-5.145,-5.25
382,9382967,0.9558701,-0.09882,-0.21667199999999998,-0.28,-5.005,-5.2325
383,9383065,0.9568459999999999,-0.100162,-0.217282,-0.0175,-5.075,-5.25
384,9383163,0.9568459999999999,-0.10248,-0.21752600000000002,0.035,-5.1975,-5.215
385,9383261,0.9572120999999999,-0.10345599999999999,-0.21606199999999998,0.07,-5.25,-5.2675
386,9383359,0.955626,-0.103578,-0.215696,0.1225,-5.2325,-5.18
387,9383456,0.9564799999999999,-0.1037,-0.21581799999999998,0.035,-5.1625,-5.1975
388,9383555,0.9566020000000001,-0.1037,-0.216428,0.0175,-5.0225,-4.9875
389,9383652,0.957456,-0.104066,-0.216306,0.0525,-4.9525,-5.0925
390,9383750,0.957822,-0.1037,-0.215452,0.1575,-4.795,-5.11
391,9383848,0.9563581,-0.10504200000000001,-0.21679400000000001,-0.0175,-4.7775,-5.145
392,9383946,0.9551379999999999,-0.103822,-0.214354,-0.1225,-4.4625,-5.11
393,9384044,0.95465,-0.1037,-0.212646,0.0175,-4.2875,-5.0925
394,9384142,0.9547720999999999,-0.104676,-0.214964,0.035,-4.235,-5.0225
395,9384240,0.9534301,-0.105896,-0.214964,0.0525,-4.025,-4.8825
396,9384338,0.955016,-0.10528599999999999,-0.2135,0.245,-3.8675,-4.9525
397,9384436,0.9534301,-0.10553,-0.214598,0.385,-3.85,-4.8125
398,9384534,0.9555040000000001,-0.102602,-0.215696,0.4025,-3.7275,-4.76
399,9384631,0.9558701,-0.100772,-0.215574,0.35,-3.3775,-4.8475
400,9384729,0.95709,-0.097478,-0.211792,0.42,-3.4475,-4.9175
401,9384827,0.95831,-0.100162,-0.21008400000000002,0.4025,-3.7975,-4.8125
402,9384925,0.9595300999999999,-0.1037,-0.211792,0.5425,-3.8325,-4.7425
403,9385023,0.958432,-0.10687200000000001,-0.211548,0.7,-3.57,-4.8125
404,9385121,0.9567241,-0.107726,-0.211792,0.5775,-3.36,-4.935
405,9385219,0.954406,-0.10906800000000001,-0.211792,0.385,-3.255,-4.97
406,9385317,0.9552601000000001,-0.106018,-0.21166999999999997,0.315,-3.15,-4.9
407,9385415,0.957822,-0.104432,-0.21276799999999998,0.1225,-3.0275,-5.005
408,9385513,0.9585541,-0.10675,-0.210694,0.035,-2.8875,-4.9175
409,9385611,0.9580661,-0.108458,-0.21045,0.0875,-3.08,-4.725
410,9385709,0.95709,-0.10687200000000001,-0.21166999999999997,0.14,-3.2025,-4.6725
411,9385807,0.9558701,-0.104066,-0.21411,0.07,-3.0625,-4.725
412,9385905,0.95709,-0.10418800000000002,-0.212402,-0.0175,-2.94,-4.6725
413,9386002,0.957944,-0.10504200000000001,-0.21093800000000001,-0.105,-2.835,-4.6025
414,9386100,0.9568459999999999,-0.10650599999999999,-0.210694,-0.0875,-2.765,-4.6725
415,9386198,0.9581881,-0.10504200000000001,-0.210206,-0.28,-2.555,-4.725
416,9386296,0.9577,-0.10540799999999999,-0.210694,-0.49,-2.4675,-4.725
417,9386394,0.956968,-0.10736,-0.21032800000000001,-0.735,-2.485,-4.69
418,9386492,0.957456,-0.106628,-0.210694,-0.7875,-2.59,-4.62
419,9386590,0.9580661,-0.10516400000000001,-0.21008400000000002,-0.9275,-2.52,-4.5675
420,9386688,0.9561139999999999,-0.104554,-0.2074,-0.8925,-2.31,-4.5325
421,9386786,0.9585541,-0.1037,-0.20679,-0.945,-2.17,-4.585
422,9386884,0.9581881,-0.104432,-0.207156,-1.0675,-2.135,-4.5675
423,9386982,0.9575780999999999,-0.104676,-0.20703400000000002,-1.085,-2.17,-4.55
424,9387080,0.9564799999999999,-0.104066,-0.207644,-0.91,-2.24,-4.585
425,9387178,0.955016,-0.10394400000000001,-0.20679,-0.9975,-2.2225,-4.5675
426,9387275,0.9557479999999999,-0.10650599999999999,-0.20703400000000002,-1.015,-2.38,-4.5675
427,9387373,0.9580661,-0.10516400000000001,-0.20630199999999999,-1.0325,-2.3275,-4.6025
428,9387471,0.959408,-0.10492,-0.20679,-1.1375,-2.3275,-4.6725
429,9387569,0.9605060999999999,-0.10394400000000001,-0.207156,-1.33,-2.135,-4.62
430,9387667,0.9620920000000001,-0.104432,-0.205814,-1.5575,-2.17,-4.62
431,9387765,0.9613601,-0.10504200000000001,-0.20447200000000001,-1.68,-2.38,-4.48
432,9387863,0.961726,-0.105774,-0.20313,-1.61,-2.24,-4.34
433,9387961,0.9609940999999999,-0.10553,-0.20374,-1.4,-2.24,-4.2875
434,9388059,0.9628241,-0.1037,-0.203008,-1.54,-2.1175,-4.2525
435,9388157,0.9613601,-0.101748,-0.201666,-1.5575,-2.2575,-4.1125
436,9388255,0.9616040000000001,-0.103578,-0.20008,-1.68,-2.3625,-4.1825
437,9388353,0.9619700000000001,-0.103578,-0.200812,-1.8375,-2.2925,-4.13
438,9388451,0.9618481,-0.1037,-0.20190999999999998,-1.8725,-2.415,-4.2525
439,9388549,0.9636780999999999,-0.107116,-0.200568,-1.82,-2.24,-4.3575
440,9388647,0.9641661,-0.106262,-0.200446,-1.89,-2.1525,-4.445
441,9388745,0.9641661,-0.104432,-0.20105599999999998,-1.8725,-2.275,-4.3575
442,9388843,0.9623360999999999,-0.101016,-0.201544,-1.7675,-2.2225,-4.27
443,9388941,0.961482,-0.099674,-0.202032,-1.6625,-2.2575,-4.27
444,9389038,0.9628241,-0.09845401,-0.20252,-1.7325,-2.485,-4.165
445,9389136,0.9648979999999999,-0.09991799999999999,-0.202398,-1.6625,-2.695,-4.235
446,9389234,0.9636780999999999,-0.102602,-0.20264200000000002,-1.5575,-2.8875,-4.13
447,9389332,0.9638,-0.106018,-0.20252,-1.435,-3.045,-4.235
448,9389430,0.9616040000000001,-0.107848,-0.199348,-1.2425,-3.0275,-4.165
449,9389528,0.9592860000000001,-0.10540799999999999,-0.19959200000000002,-1.12,-2.9225,-4.2
450,9389626,0.9586761,-0.10248,-0.198372,-1.1725,-2.9225,-4.235
451,9389724,0.9564799999999999,-0.10052799999999999,-0.199104,-1.4875,-2.9225,-4.2875
452,9389822,0.9591639999999999,-0.101016,-0.199714,-1.6625,-2.9925,-4.34
453,9389920,0.9598959999999999,-0.101382,-0.199348,-1.6275,-3.2725,-4.305
454,9390018,0.96441,-0.104798,-0.19580999999999998,-1.7675,-3.745,-4.305
455,9390116,0.9655081,-0.10760399999999999,-0.196176,-1.9075,-3.885,-4.2875
456,9390213,0.9651421,-0.1098,-0.19580999999999998,-1.6975,-3.6925,-4.27
457,9390311,0.965874,-0.10650599999999999,-0.19580999999999998,-1.47,-3.6225,-4.06
458,9390409,0.963434,-0.102602,-0.19459,-1.4,-3.5,-4.0425
459,9390507,0.9627020000000001,-0.09991799999999999,-0.19032000000000002,-1.435,-3.605,-4.06
460,9390605,0.96441,-0.09942999999999999,-0.19215,-1.505,-3.815,-4.1125
461,9390703,0.964776,-0.10089400000000001,-0.190808,-1.4875,-3.9375,-4.305
462,9390801,0.9655081,-0.102358,-0.191906,-1.47,-3.78,-4.41
463,9390899,0.9642879999999999,-0.10516400000000001,-0.191906,-1.47,-3.7275,-4.4275
464,9390997,0.9635560999999999,-0.10760399999999999,-0.190442,-1.4175,-3.71,-4.4625
465,9391095,0.9651421,-0.10492,-0.19397999999999999,-1.365,-4.0075,-4.515
466,9391193,0.9650200999999999,-0.104554,-0.192882,-1.295,-4.2175,-4.305
467,9391291,0.9653860000000001,-0.104798,-0.191906,-1.2775,-4.34,-4.165
468,9391389,0.9651421,-0.103334,-0.19178399999999998,-1.2775,-4.2175,-4.1825
469,9391486,0.9627020000000001,-0.104676,-0.189832,-1.3825,-4.27,-4.1475
470,9391584,0.9636780999999999,-0.10833599999999999,-0.18849000000000002,-1.47,-4.445,-4.1475
471,9391682,0.9652639999999999,-0.10736,-0.189466,-1.5925,-4.62,-4.0775
472,9391780,0.965874,-0.108214,-0.187026,-1.785,-4.4975,-4.2
473,9391878,0.964532,-0.106994,-0.18605,-1.8375,-4.3925,-4.2175
474,9391976,0.963434,-0.105896,-0.185684,-1.8025,-4.4275,-4.0775
475,9392074,0.961726,-0.103578,-0.18446400000000002,-1.785,-4.48,-4.095
476,9392172,0.9613601,-0.10065,-0.18470799999999998,-1.785,-4.6725,-4.1475
477,9392270,0.9623360999999999,-0.100162,-0.18605,-1.6275,-4.62,-4.235
478,9392368,0.9620920000000001,-0.099674,-0.18422,-1.5925,-4.655,-4.2525
479,9392466,0.9622141,-0.099552,-0.183,-1.5225,-4.69,-4.305
480,9392564,0.965752,-0.100772,-0.18239,-1.435,-4.9,-4.27
481,9392661,0.96624,-0.10248,-0.18141400000000002,-1.435,-4.865,-4.27
482,9392759,0.965752,-0.102358,-0.180316,-1.4875,-4.515,-4.2875
483,9392857,0.96624,-0.103822,-0.177022,-1.4525,-4.3225,-4.3575
484,9392955,0.966728,-0.102846,-0.176534,-1.365,-4.235,-4.34
485,9393053,0.966118,-0.101992,-0.177144,-1.3125,-4.165,-4.2525
486,9393151,0.9674601,-0.102114,-0.176534,-1.3475,-4.235,-4.235
487,9393249,0.9656300999999999,-0.103578,-0.175924,-1.4,-4.305,-4.2175
488,9393347,0.967216,-0.10418800000000002,-0.174826,-1.4525,-4.34,-4.2875
489,9393445,0.965996,-0.10248,-0.17629,-1.4,-4.1125,-4.375
490,9393543,0.9648979999999999,-0.102968,-0.175558,-1.3125,-4.1125,-4.375
491,9393641,0.9668501,-0.10321199999999998,-0.175558,-1.2775,-4.06,-4.4275
492,9393739,0.965874,-0.101626,-0.17641199999999999,-1.26,-4.095,-4.375
493,9393836,0.967216,-0.101016,-0.17580199999999999,-1.26,-4.0425,-4.305
494,9393934,0.966606,-0.101992,-0.17580199999999999,-1.2425,-3.99,-4.2175
495,9394032,0.9691681000000001,-0.102968,-0.173362,-1.2075,-3.92,-4.2175
496,9394130,0.9675819999999999,-0.101016,-0.172752,-1.3125,-3.745,-4.27
497,9394228,0.9663620999999999,-0.101504,-0.173484,-1.2775,-3.64,-4.305
498,9394326,0.9642879999999999,-0.101992,-0.17202,-1.2775,-3.57,-4.34
499,9394424,0.9629459999999999,-0.102358,-0.17202,-1.365,-3.3075,-4.34
500,9394522,0.9638,-0.10223600000000001,-0.17055599999999999,-1.4,-3.15,-4.41
501,9394620,0.9622141,-0.10004,-0.17055599999999999,-1.155,-3.15,-4.3575
502,9394718,0.962458,-0.101138,-0.17202,-1.085,-2.9575,-4.3575
503,9394816,0.9642879999999999,-0.101748,-0.172264,-1.05,-2.9225,-4.3225
504,9394914,0.96441,-0.10089400000000001,-0.17140999999999998,-1.05,-2.905,-4.3225
505,9395012,0.965874,-0.10065,-0.17140999999999998,-0.945,-2.975,-4.3225
506,9395110,0.96624,-0.10126,-0.17214200000000002,-0.9275,-2.87,-4.3925
507,9395208,0.9680700000000001,-0.10126,-0.172996,-0.91,-2.9225,-4.445
508,9395305,0.969046,-0.103334,-0.171654,-0.98,-2.9925,-4.515
509,9395403,0.9679481,-0.103822,-0.170312,-0.98,-2.975,-4.5325
510,9395501,0.9684360999999999,-0.102846,-0.170312,-0.875,-3.0275,-4.4275
511,9395599,0.9683141,-0.10345599999999999,-0.16958,-0.9275,-3.0275,-4.34
512,9395697,0.9678261,-0.10540799999999999,-0.169336,-0.8925,-3.0975,-4.2525
513,9395795,0.968192,-0.10418800000000002,-0.167628,-0.7875,-2.9925,-4.165
514,9395893,0.9678261,-0.10528599999999999,-0.169824,-0.7175,-3.1325,-4.025
515,9395991,0.967216,-0.102724,-0.167262,-0.77,-3.1325,-4.025
516,9396089,0.964776,-0.10187,-0.16775,-0.77,-3.115,-4.1825
517,9396187,0.9663620999999999,-0.10089400000000001,-0.165676,-0.49,-3.3075,-4.0075
518,9396285,0.9699,-0.099674,-0.164944,-0.28,-3.71,-4.0425
519,9396383,0.9720960999999999,-0.101016,-0.16592,-0.0875,-4.1825,-4.06
520,9396481,0.973316,-0.10065,-0.164212,0.0,-4.165,-4.2
521,9396578,0.974292,-0.103822,-0.163724,0.105,-3.955,-4.3225
522,9396676,0.971974,-0.10833599999999999,-0.162382,0.1575,-3.8675,-4.375
523,9396774,0.9699,-0.106018,-0.161528,0.1925,-3.5875,-4.3225
524,9396872,0.9678261,-0.105896,-0.163236,0.175,-3.43,-4.3575
525,9396970,0.966118,-0.106628,-0.164822,-0.0875,-3.4125,-4.4625
526,9397068,0.965752,-0.10614000000000001,-0.161406,-0.1225,-3.5,-4.305
527,9397166,0.966118,-0.10833599999999999,-0.159088,-0.245,-3.78,-4.2525
528,9397264,0.968558,-0.10736,-0.158478,-0.35,-4.0075,-4.165
529,9397362,0.9700219999999999,-0.10614000000000001,-0.156648,-0.6475,-3.885,-4.1825
530,9397460,0.9709979999999999,-0.10833599999999999,-0.156038,-0.77,-3.71,-4.1125
531,9397558,0.972706,-0.108458,-0.15494000000000002,-0.875,-3.78,-4.025
532,9397656,0.9714860000000001,-0.10516400000000001,-0.15494000000000002,-0.91,-3.745,-3.9725
533,9397754,0.9706319999999999,-0.105652,-0.156282,-0.91,-3.9375,-4.1125
534,9397852,0.97173,-0.10675,-0.156038,-0.9975,-3.9375,-4.095
535,9397949,0.9714860000000001,-0.106262,-0.15506199999999998,-0.98,-4.025,-4.1825
536,9398047,0.9729501,-0.104798,-0.15420799999999998,-0.91,-4.1825,-4.1125
537,9398145,0.9716081,-0.10553,-0.15701400000000001,-0.875,-4.3575,-4.1475
538,9398243,0.9703879999999999,-0.104676,-0.15616,-1.05,-4.6375,-4.13
539,9398341,0.973316,-0.10540799999999999,-0.15494000000000002,-1.26,-4.795,-4.1125
540,9398439,0.975512,-0.106994,-0.1525,-1.4,-4.935,-4.1125
541,9398537,0.9766101,-0.10760399999999999,-0.152256,-1.61,-4.83,-4.27
542,9398635,0.9764879999999999,-0.109556,-0.149816,-1.7325,-4.97,-4.2525
543,9398733,0.974658,-0.11126400000000002,-0.14823,-1.9425,-5.0925,-4.2
544,9398831,0.9738041,-0.111874,-0.14871800000000002,-2.0125,-5.1975,-4.025
545,9398929,0.973316,-0.108214,-0.147498,-1.9425,-5.3375,-4.0075
546,9399027,0.972706,-0.106994,-0.150426,-2.0825,-5.3025,-3.8325
547,9399125,0.9729501,-0.105896,-0.150304,-2.03,-5.2325,-3.6225
548,9399223,0.97173,-0.10504200000000001,-0.150792,-2.1,-5.1975,-3.71
549,9399321,0.9707541,-0.101748,-0.14884,-2.1,-5.355,-3.6575
550,9399418,0.971974,-0.102846,-0.14884,-2.135,-5.67,-3.6925
551,9399516,0.9736819999999999,-0.1037,-0.150426,-2.1525,-5.81,-3.6925
552,9399614,0.97478,-0.1037,-0.14945,-2.1,-5.985,-3.7625
553,9399712,0.9736819999999999,-0.10248,-0.15201199999999998,-2.03,-5.9675,-3.815
554,9399810,0.972706,-0.10430999999999999,-0.153354,-1.96,-5.8975,-3.6225
555,9399908,0.9725841000000001,-0.101992,-0.15372,-1.96,-6.02,-3.64
556,9400006,0.9740479999999999,-0.101748,-0.151646,-1.925,-6.1775,-3.6925
557,9400104,0.974658,-0.10614000000000001,-0.152988,-2.0125,-6.335,-3.6575
558,9400202,0.9745360000000001,-0.1098,-0.152866,-2.065,-6.44,-3.6225
559,9400300,0.9729501,-0.111874,-0.15176800000000001,-2.17,-6.405,-3.57
560,9400398,0.9707541,-0.11236199999999999,-0.152134,-2.3275,-6.405,-3.5
561,9400496,0.9711200999999999,-0.113094,-0.152988,-2.6075,-6.5975,-3.3775
562,9400594,0.9696561,-0.11285,-0.15176800000000001,-2.6775,-6.5975,-3.3775
563,9400691,0.969046,-0.112972,-0.153476,-2.7475,-6.8075,-3.2725
564,9400789,0.9706319999999999,-0.11016600000000001,-0.15494000000000002,-2.765,-7.0525,-3.115
565,9400887,0.9697780999999999,-0.104676,-0.157136,-2.87,-7.035,-2.9925
566,9400985,0.9683141,-0.09979600000000001,-0.157868,-2.9225,-7.0,-2.9925
567,9401083,0.9691681000000001,-0.09613601,-0.157746,-2.975,-7.1575,-2.905
568,9401181,0.9709979999999999,-0.092964,-0.155184,-2.7825,-7.2625,-3.01
569,9401279,0.972828,-0.09150001,-0.152622,-2.38,-7.14,-3.0975
570,9401377,0.9749021000000001,-0.089792,-0.153842,-1.785,-7.3675,-3.2375
571,9401475,0.975024,-0.09028,-0.154818,-1.225,-7.49,-3.5
572,9401573,0.9745360000000001,-0.08820599999999999,-0.15396400000000002,-0.7,-7.0525,-3.9025
573,9401671,0.9730721,-0.090768,-0.158966,-0.2625,-6.475,-4.34
574,9401769,0.967094,-0.09625801,-0.158356,0.315,-6.0375,-4.725
575,9401867,0.9653860000000001,-0.09711201,-0.157502,0.7,-5.705,-5.11
576,9401965,0.9641661,-0.100772,-0.155428,1.12,-5.6875,-5.1975
577,9402063,0.9619700000000001,-0.10492,-0.15506199999999998,1.3475,-5.6175,-5.32
578,9402161,0.964532,-0.11163,-0.15725799999999998,1.47,-5.46,-5.3025
579,9402259,0.9627020000000001,-0.114924,-0.157746,1.4,-5.18,-5.5125
580,9402357,0.9605060999999999,-0.12017,-0.156648,1.1375,-4.9875,-5.4075
581,9402455,0.9622141,-0.121146,-0.156892,0.8400001,-4.725,-5.32
582,9402553,0.961726,-0.12261,-0.160064,0.5075,-4.585,-5.11
583,9402650,0.9612379999999999,-0.122244,-0.162626,0.1925,-4.3225,-4.9175
584,9402748,0.9627020000000001,-0.12248800000000001,-0.161894,0.0175,-3.99,-4.7075
585,9402846,0.9612379999999999,-0.119682,-0.162626,-0.14,-3.85,-4.7075
586,9402944,0.962458,-0.118218,-0.163358,-0.2625,-3.9725,-4.725
587,9403042,0.964776,-0.11919400000000001,-0.162382,-0.4025,-4.0775,-4.5325
588,9403140,0.969046,-0.11895,-0.16592,-0.63,-4.2175,-4.48
589,9403238,0.9708760000000001,-0.118218,-0.163846,-0.7175,-4.2175,-4.375
590,9403336,0.9716081,-0.11943800000000002,-0.163358,-0.805,-4.235,-4.165
591,9403434,0.97173,-0.11614400000000001,-0.163602,-0.91,-4.095,-4.13
592,9403532,0.972218,-0.11248399999999999,-0.163114,-0.945,-3.92,-3.9725
593,9403630,0.97356,-0.111752,-0.163114,-1.085,-3.6925,-3.9375
594,9403728,0.9718521000000001,-0.111874,-0.165798,-1.05,-3.6925,-3.85
595,9403826,0.96929,-0.111508,-0.164578,-1.05,-3.7625,-3.815
596,9403924,0.966484,-0.11028800000000001,-0.165798,-0.98,-4.2175,-3.85
597,9404022,0.9663620999999999,-0.10931199999999999,-0.164944,-0.875,-4.9175,-3.885
598,9404120,0.969046,-0.10723800000000001,-0.16530999999999998,-0.98,-5.5125,-3.9375
599,9404217,0.97234,-0.107726,-0.1647,-0.9975,-5.6875,-3.9725
600,9404315,0.97234,-0.107482,-0.165798,-1.1375,-5.6525,-4.095
601,9404413,0.97234,-0.10919000000000001,-0.164212,-1.3125,-5.8275,-4.095
602,9404511,0.9713639999999999,-0.106994,-0.163358,-1.4875,-5.88,-4.095
603,9404609,0.9738041,-0.107726,-0.161894,-1.505,-5.8275,-4.1125
604,9404707,0.97478,-0.107726,-0.161162,-1.6625,-5.81,-4.1475
605,9404805,0.9707541,-0.10809200000000001,-0.160918,-1.7675,-5.8275,-4.025
606,9404903,0.9686799999999999,-0.10943399999999999,-0.16201600000000002,-1.8375,-6.0375,-3.9375
607,9405001,0.965996,-0.109922,-0.162992,-1.8725,-6.475,-3.8675
608,9405099,0.9678261,-0.11053199999999999,-0.16165,-1.96,-6.5975,-3.9025
609,9405197,0.968558,-0.11028800000000001,-0.161406,-1.995,-6.7375,-3.9025
610,9405295,0.9696561,-0.1098,-0.161772,-2.03,-7.0875,-3.8675
611,9405393,0.973316,-0.109678,-0.160918,-2.1,-7.3325,-3.92
612,9405491,0.9766101,-0.10943399999999999,-0.16104000000000002,-1.9775,-7.2275,-4.0075
613,9405589,0.978074,-0.10809200000000001,-0.159698,-2.0475,-7.0525,-4.1825
614,9405686,0.97356,-0.10736,-0.159698,-2.0125,-6.9825,-4.27
615,9405784,0.9706319999999999,-0.108824,-0.163236,-1.855,-6.9475,-4.2525
616,9405882,0.9684360999999999,-0.107848,-0.164578,-1.785,-7.07,-4.2
617,9405980,0.9669721,-0.10797000000000001,-0.16287000000000001,-1.715,-7.385,-4.3575
618,9406078,0.9668501,-0.107726,-0.164944,-1.645,-7.35,-4.305
619,9406176,0.966118,-0.106994,-0.16652999999999998,-1.4875,-7.245,-4.34
620,9406274,0.9642879999999999,-0.105774,-0.165798,-1.3475,-7.2625,-4.27
621,9406372,0.963434,-0.10638399999999999,-0.16530999999999998,-1.295,-7.42,-4.34
622,9406470,0.9668501,-0.107848,-0.163236,-1.155,-7.525,-4.3575
623,9406568,0.9697780999999999,-0.107848,-0.16348,-1.1375,-7.42,-4.34
624,9406666,0.9679481,-0.10919000000000001,-0.1647,-1.1025,-7.175,-4.3575
625,9406764,0.9669721,-0.110776,-0.165432,-1.015,-7.035,-4.305
626,9406862,0.9641661,-0.108702,-0.164822,-0.875,-7.1225,-4.375
627,9406960,0.9638,-0.109556,-0.166774,-0.8400001,-7.2275,-4.34
628,9407058,0.964532,-0.10858,-0.168726,-0.8925,-7.315,-4.305
629,9407156,0.966118,-0.111508,-0.166286,-0.7875,-7.3325,-4.2875
630,9407253,0.969534,-0.114436,-0.16835999999999998,-0.805,-7.3325,-4.2
631,9407351,0.9697780999999999,-0.110898,-0.166652,-0.875,-7.1925,-4.13
632,9407449,0.969412,-0.107848,-0.16689600000000002,-0.8925,-7.0175,-4.165
633,9407547,0.968192,-0.105652,-0.167994,-0.8575,-6.79,-4.1825
634,9407645,0.9684360999999999,-0.107726,-0.166652,-0.98,-6.685,-4.1475
635,9407743,0.965752,-0.107848,-0.166042,-0.8225,-6.755,-4.1125
636,9407841,0.9651421,-0.107116,-0.165798,-0.5775,-6.79,-4.1475
637,9407939,0.96441,-0.108946,-0.16835999999999998,-0.525,-6.9825,-4.095
638,9408037,0.9652639999999999,-0.11163,-0.166408,-0.5425,-7.105,-4.2875
639,9408135,0.9648979999999999,-0.11224,-0.164822,-0.4375,-6.965,-4.235
640,9408233,0.9655081,-0.111752,-0.16530999999999998,-0.56,-6.7025,-4.2525
641,9408331,0.966606,-0.11102000000000001,-0.166652,-0.5425,-6.5275,-4.375
642,9408429,0.9669721,-0.109678,-0.168726,-0.735,-6.125,-4.34
643,9408527,0.966484,-0.109922,-0.169336,-0.7,-5.915,-4.3925
644,9408625,0.9618481,-0.10809200000000001,-0.170068,-0.5425,-5.8625,-4.3575
645,9408723,0.9622141,-0.108824,-0.17055599999999999,-0.525,-6.0025,-4.305
646,9408821,0.96319,-0.111752,-0.170434,-0.525,-6.1425,-4.34
647,9408918,0.9652639999999999,-0.112728,-0.171166,-0.5775,-6.055,-4.27
648,9409016,0.966606,-0.11467999999999999,-0.17019,-0.525,-5.7925,-4.3575
649,9409114,0.966118,-0.11163,-0.17055599999999999,-0.7875,-5.6875,-4.41
650,9409212,0.965752,-0.11102000000000001,-0.171166,-0.805,-5.5825,-4.3925
651,9409310,0.9669721,-0.11126400000000002,-0.16909200000000002,-0.8575,-5.495,-4.3575
652,9409408,0.9655081,-0.11236199999999999,-0.168848,-0.98,-5.25,-4.3925
653,9409506,0.9641661,-0.111142,-0.169458,-0.945,-5.075,-4.3225
654,9409604,0.964044,-0.111874,-0.171044,-0.7525,-5.04,-4.375
655,9409702,0.9625799999999999,-0.108824,-0.172508,-0.56,-5.04,-4.3925
656,9409800,0.9625799999999999,-0.10687200000000001,-0.17214200000000002,-0.7,-5.075,-4.445
657,9409898,0.9609940999999999,-0.106994,-0.170434,-0.7525,-5.3375,-4.4275
658,9409996,0.9641661,-0.10919000000000001,-0.171654,-0.595,-5.5125,-4.2875
659,9410094,0.9684360999999999,-0.10919000000000001,-0.170434,-0.5075,-5.565,-4.3225
660,9410192,0.968924,-0.109678,-0.170312,-0.455,-5.4425,-4.445
661,9410290,0.9679481,-0.108702,-0.168848,-0.385,-5.39,-4.585
662,9410388,0.9683141,-0.108458,-0.16897,-0.2975,-5.215,-4.6025
663,9410486,0.9663620999999999,-0.110044,-0.171654,-0.3675,-5.0225,-4.5675
664,9410584,0.9673379999999999,-0.111874,-0.169946,-0.4375,-4.9175,-4.585
665,9410681,0.966118,-0.112606,-0.170922,-0.2975,-4.9,-4.515
666,9410779,0.966484,-0.11163,-0.170434,-0.2625,-4.9175,-4.585
667,9410877,0.964776,-0.11138599999999999,-0.17128800000000002,-0.385,-5.1275,-4.55
668,9410975,0.9638,-0.110776,-0.171166,-0.5775,-5.215,-4.55
669,9411073,0.963434,-0.111508,-0.170678,-0.7,-5.04,-4.5325
670,9411171,0.966484,-0.109922,-0.169702,-0.77,-5.005,-4.5325
671,9411269,0.9674601,-0.11016600000000001,-0.169824,-0.7,-4.8475,-4.515
672,9411367,0.966606,-0.10931199999999999,-0.16835999999999998,-0.595,-4.865,-4.515
673,9411465,0.965752,-0.10723800000000001,-0.16811600000000002,-0.56,-4.62,-4.4625
674,9411563,0.9641661,-0.10687200000000001,-0.168726,-0.665,-4.655,-4.48
675,9411661,0.9641661,-0.10931199999999999,-0.16714,-0.63,-4.865,-4.48
676,9411759,0.965874,-0.10906800000000001,-0.16506600000000002,-0.6125,-5.0575,-4.4625
677,9411857,0.965874,-0.108824,-0.166042,-0.49,-5.0925,-4.6025
678,9411955,0.9663620999999999,-0.11028800000000001,-0.166042,-0.28,-5.0925,-4.48
679,9412053,0.9683141,-0.10906800000000001,-0.164578,-0.3675,-5.0575,-4.4625
680,9412151,0.9696561,-0.10931199999999999,-0.16506600000000002,-0.4025,-5.075,-4.5325
681,9412249,0.9699,-0.11224,-0.165432,-0.385,-4.9875,-4.5675
682,9412346,0.9700219999999999,-0.113094,-0.16530999999999998,-0.315,-4.9875,-4.445
683,9412444,0.971242,-0.11102000000000001,-0.165554,-0.28,-4.8125,-4.48
684,9412542,0.9720960999999999,-0.110898,-0.165676,-0.21,-4.8475,-4.34
685,9412640,0.969534,-0.11431400000000001,-0.16201600000000002,-0.1925,-4.9,-4.27
686,9412738,0.9656300999999999,-0.114802,-0.157136,-0.0875,-4.8125,-4.1475
687,9412836,0.961482,-0.113704,-0.151158,-0.14,-4.9175,-3.955
688,9412934,0.956968,-0.108946,-0.150304,-0.21,-5.1625,-3.955
689,9413032,0.9562360999999999,-0.103578,-0.15799000000000002,-0.1225,-5.3375,-4.1125
690,9413130,0.95709,-0.10858,-0.163358,0.1925,-5.5125,-4.34
691,9413228,0.964776,-0.107726,-0.156892,0.5075,-6.02,-4.6025
692,9413326,0.9752681000000001,-0.09821001,-0.146522,0.4025,-5.6525,-4.9525
693,9413424,0.974658,-0.097966,-0.1464,-0.2275,-5.1625,-5.2325
694,9413522,0.9729501,-0.100772,-0.14469200000000002,-0.56,-5.215,-5.2675
695,9413620,0.977342,-0.09930800000000001,-0.155428,-0.665,-5.1275,-4.9525
696,9413717,0.9684360999999999,-0.102846,-0.154574,-1.4525,-4.9175,-4.55
697,9413815,0.9551379999999999,-0.1037,-0.134932,-2.24,-4.7425,-4.2175
698,9413913,0.9450120000000001,-0.103334,-0.11541199999999999,-2.52,-4.6725,-4.025
699,9414011,0.93086,-0.10504200000000001,-0.098088,-2.2575,-5.005,-3.4475
700,9414109,0.9141459999999999,-0.092964,-0.085888,-1.8025,-5.5125,-2.4325
701,9414207,0.897066,-0.07112601,-0.068442,-0.805,-5.495,-1.12
702,9414305,0.9037761000000001,-0.053070000000000006,-0.06527000000000001,-0.1225,-3.8325,0.2275
703,9414403,0.9264680000000001,-0.050996,-0.053924,0.2625,-2.24,1.015
704,9414501,0.9486720999999999,-0.06636801,-0.038674,1.715,-1.1025,1.645
705,9414599,0.9796600000000001,-0.089792,-0.037576,3.5875,-0.035,1.8725
706,9414697,1.0171139999999999,-0.103578,-0.045627999999999995,5.1275,0.91,0.875
707,9414795,1.0437100000000001,-0.10248,-0.054412,6.7025,2.4325,-1.225
708,9414892,1.050664,-0.10492,-0.059658,7.8225,4.935,-3.605
709,9414990,1.0437100000000001,-0.10430999999999999,-0.062464,8.33,7.105,-6.0375
710,9415088,1.0382200000000001,-0.09516001,-0.06600201,8.2775,8.855,-8.0325
711,9415186,1.027728,-0.08344800000000001,-0.06892999999999999,7.84,9.94,-9.2225
712,9415284,1.0110139999999999,-0.07222401,-0.077958,7.49,10.22,-9.45
713,9415382,0.996008,-0.07002799999999999,-0.082838,7.0875,9.975,-9.1875
714,9415480,0.9860040999999999,-0.06588,-0.09394001,6.895,8.5925,-8.225
715,9415578,0.9772200999999999,-0.060267999999999995,-0.102846,7.3675,6.1775,-7.07
716,9415676,0.9678261,-0.06771001,-0.116876,7.665,4.27,-6.23
717,9415774,0.9557479999999999,-0.07710399999999999,-0.12029200000000001,8.6275,1.6975,-5.4425
718,9415871,0.9474520000000001,-0.076494,-0.125904,10.8675,-1.26,-4.97
719,9415969,0.9337880999999999,-0.080154,-0.137494,12.565,-4.27,-5.3025
720,9416067,0.9118280000000001,-0.08235001,-0.143716,14.0875,-7.49,-6.37
721,9416165,0.8907221,-0.077714,-0.14457,16.5375,-10.15,-8.085
722,9416263,0.8697379999999999,-0.07515201,-0.146522,18.34,-12.6,-10.3075
723,9416361,0.8525360000000001,-0.08808401,-0.149694,19.2675,-14.77,-13.0375
724,9416459,0.8481440999999998,-0.100284,-0.152134,19.775,-16.3275,-16.24
725,9416557,0.8620521000000001,-0.11467999999999999,-0.156038,20.195,-17.7975,-20.0375
726,9416655,0.8880380999999999,-0.131394,-0.16689600000000002,21.28,-20.055,-23.66
727,9416753,0.9289081,-0.138104,-0.182756,22.645,-22.4875,-25.83
728,9416850,0.9867360999999999,-0.11285,-0.193126,22.995,-24.3075,-26.32
729,9416948,1.038952,-0.06344,-0.17238599999999998,23.135,-25.2,-25.725
730,9417046,1.074698,-0.048922,-0.13664,22.365,-25.235,-24.4475
731,9417144,1.087996,-0.066734,-0.105652,21.665,-23.765,-22.715
732,9417242,1.0736,-0.093086,-0.07198,21.63,-20.9825,-20.8075
733,9417340,1.039684,-0.13176,-0.0488,21.735,-17.43,-19.25
734,9417438,1.009916,-0.16775,-0.029158,22.225,-14.0175,-18.13
735,9417536,0.9962521000000001,-0.18775799999999998,-0.025498,21.9275,-13.3525,-17.15
736,9417633,0.99979,-0.190686,-0.028304000000000003,20.9475,-16.695,-16.2925
737,9417731,1.044198,-0.180926,-0.032574,19.6525,-22.155,-15.4175
738,9417829,1.107394,-0.17238599999999998,-0.032330000000000005,18.4975,-27.265,-14.2975
739,9417927,1.155706,-0.165432,-0.031110000000000002,17.465,-29.8025,-11.9
740,9418025,1.18096,-0.157746,-0.02928,16.8525,-29.2425,-8.68
741,9418123,1.1812040000000001,-0.152988,-0.028792,16.8,-27.8425,-5.39
742,9418221,1.15595,-0.152622,-0.041236,16.6075,-27.3525,-2.5375
743,9418319,1.11447,-0.148474,-0.049044,16.52,-27.8425,-0.42
744,9418417,1.070306,-0.14945,-0.060146000000000005,16.765,-27.9475,0.6125
745,9418514,1.033096,-0.1525,-0.064294,17.22,-27.58,1.1725
746,9418612,1.0016200000000002,-0.15506199999999998,-0.06771001,17.535,-27.23,1.4175
747,9418710,0.9840521000000001,-0.148352,-0.06771001,17.3075,-27.0375,1.3125
748,9418808,0.9684360999999999,-0.146522,-0.06880801,16.695,-27.79,1.19
749,9418906,0.954284,-0.144204,-0.06771001,15.925,-29.33,0.945
750,9419004,0.9358620999999999,-0.149816,-0.05917000000000001,15.4175,-30.38,0.7175
751,9419102,0.9272,-0.144082,-0.059902,14.7175,-30.94,0.1925
752,9419200,0.9143899999999999,-0.144204,-0.058926,14.7,-32.025,-0.0875
753,9419298,0.9056061,-0.141154,-0.055510000000000004,14.3675,-33.6,-0.7175
754,9419395,0.9019459999999999,-0.13359000000000001,-0.0549,13.965,-35.21,-1.575
755,9419493,0.9052401,-0.12431800000000001,-0.053314,13.93,-36.19,-2.345
756,9419591,0.9073141,-0.123464,-0.044774,14.455,-35.945,-3.325
757,9419689,0.913658,-0.11650999999999999,-0.040748,14.5425,-35.14,-4.9175
758,9419787,0.9224421,-0.104554,-0.034526,14.98,-34.6675,-6.09
759,9419885,0.9239059999999999,-0.10614000000000001,-0.029036000000000003,15.54,-34.37,-6.72
760,9419983,0.9247601000000001,-0.111752,-0.025742,15.9425,-33.705,-7.735
761,9420081,0.9198799999999999,-0.114802,-0.029158,16.1525,-33.46,-8.7325
762,9420179,0.9231739999999999,-0.125538,-0.034648000000000005,16.6775,-33.5825,-9.975
763,9420276,0.9229299999999999,-0.13847,-0.035136,17.22,-33.7925,-10.815
764,9420374,0.9242720999999999,-0.15176800000000001,-0.038551999999999996,17.4475,-33.3725,-11.83
765,9420472,0.9272,-0.154452,-0.036966000000000006,17.43,-31.78,-13.0025
766,9420570,0.9328120000000001,-0.15420799999999998,-0.037088,16.485,-29.8375,-13.6325
767,9420668,0.9383020000000001,-0.16165,-0.038064,15.1375,-28.0,-13.6675
768,9420766,0.943426,-0.17568,-0.037088,13.3,-25.1825,-12.8275
769,9420864,0.9474520000000001,-0.193492,-0.032330000000000005,11.0775,-22.0675,-11.27
770,9420962,0.9459880999999999,-0.22630999999999998,-0.032695999999999996,8.7325,-19.1975,-9.0475
771,9421059,0.9494040000000001,-0.25424800000000003,-0.028914,6.3525,-17.115,-6.1425
772,9421157,0.9501360999999999,-0.285602,-0.022448,3.395,-15.365,-2.7125
773,9421255,0.933422,-0.329644,0.0034159999999999998,-0.175,-13.6675,1.2425
774,9421353,0.9324460999999999,-0.39418200000000003,-0.08881599,-4.62,-12.2675,5.495
775,9421451,0.9641661,-0.459086,-0.270108,-7.105,-12.5475,11.025
776,9421549,1.01321,-0.430172,-0.419314,-5.3375,-14.3675,18.375
777,9421647,1.08641,-0.233386,-0.325008,-2.135,-15.3125,25.725
778,9421745,1.12606,-0.034526,-0.223992,0.175,-13.9125,30.73
779,9421843,1.125328,-0.029768,-0.232654,6.4575,-16.7125,34.0725
780,9421940,1.095438,-0.084912,-0.294142,12.95,-21.0,33.915
781,9422038,1.011258,-0.15701400000000001,-0.23802199999999998,16.24,-19.635,28.6825
782,9422136,1.019798,-0.24668400000000001,-0.203374,17.045,-9.03,18.83
783,9422234,1.089216,-0.30109600000000003,-0.217282,18.2525,-1.2075,8.2425
784,9422332,1.125572,-0.28987199999999996,-0.22277199999999997,16.1525,-1.2775,-0.98
785,9422430,1.165222,-0.296216,-0.313418,8.8725,-1.54,-8.1025
786,9422528,1.24928,-0.309392,-0.393816,2.5375,-3.5175,-12.67
787,9422626,1.314794,-0.250832,-0.412238,-3.7975,-8.645,-14.4025
788,9422724,1.2991780000000002,-0.16909200000000002,-0.422608,-10.675,-11.3225,-14.2625
789,9422821,1.263798,-0.100162,-0.410286,-15.295,-11.795,-14.5075
790,9422919,1.205726,-0.06283,-0.403088,-18.235,-10.57,-15.0675
791,9423017,1.10105,-0.018544,-0.429928,-20.2125,-9.45,-14.9275
792,9423115,0.9964959999999999,0.027694,-0.44090799999999997,-20.7375,-8.8375,-14.4375
793,9423213,0.924882,0.042578,-0.43932200000000005,-20.3525,-7.175,-14.2625
794,9423311,0.8731540999999999,0.031232,-0.416508,-17.9025,-4.725,-13.5975
795,9423409,0.8438741,-0.011468,-0.38613000000000003,-13.65,-3.9025,-12.67
796,9423507,0.8239880999999999,-0.061366,-0.348066,-8.8725,-5.075,-11.795
797,9423605,0.8114220999999999,-0.10418800000000002,-0.316102,-6.195,-7.7,-11.7775
798,9423703,0.8220360000000001,-0.12675799999999998,-0.297802,-4.34,-11.3925,-12.6
799,9423800,0.838994,-0.132614,-0.29402,-3.3425,-14.6825,-14.245
800,9423898,0.8690061,-0.142984,-0.296948,-1.9775,-16.7825,-15.6275
801,9423996,0.9051181,-0.145058,-0.313418,-2.31,-17.5875,-17.92
802,9424094,0.9297620999999999,-0.132736,-0.31158800000000003,-3.4475,-16.0475,-21.035
803,9424192,0.925736,-0.119926,-0.299998,-4.935,-13.0725,-24.325
804,9424290,0.894626,-0.106628,-0.284992,-5.7925,-10.64,-26.985
805,9424388,0.854244,-0.074786,-0.277306,-7.1575,-10.01,-28.6825
806,9424486,0.8086161000000001,-0.034404000000000004,-0.270474,-7.9625,-9.765,-29.4
807,9424584,0.761402,-0.008784,-0.26657,-7.8925,-9.1525,-29.085
808,9424682,0.728096,0.01098,-0.253882,-6.965,-9.31,-27.755
809,9424779,0.7068681,0.032451999999999995,-0.250222,-5.2325,-9.3975,-25.6375
810,9424877,0.6954,0.028548,-0.23802199999999998,-3.0275,-9.7475,-23.135
811,9424975,0.6967420999999999,0.017934000000000002,-0.2135,0.0,-9.03,-20.3175
812,9425073,0.7055260999999999,0.001342,-0.1952,2.59,-6.7725,-17.71
813,9425171,0.711138,-0.002806,-0.177144,4.8125,-3.9725,-15.715
814,9425269,0.72163,0.002684,-0.163724,6.1425,-2.17,-14.385
815,9425367,0.720288,-0.00183,-0.151646,7.98,-1.4875,-12.1275
816,9425465,0.7448100999999999,0.0,-0.146644,9.5375,-2.66,-10.0975
817,9425563,0.770308,-0.004514,-0.144082,11.5325,-2.835,-8.365
818,9425661,0.8025161,-0.005978,-0.13664,12.5825,-1.715,-7.98
819,9425758,0.83631,0.004148001,-0.135298,13.3175,-0.42,-7.7525
820,9425856,0.8704700000000001,0.002074,-0.130662,14.735,1.2075,-6.4925
821,9425954,0.8964561,-0.007320001,-0.11724200000000001,15.785,3.2725,-5.53
822,9426052,0.909632,-0.01342,-0.10919000000000001,16.38,5.0225,-5.0925
823,9426150,0.9080459999999999,-0.02074,-0.098088,16.7475,6.79,-4.9
824,9426248,0.9059721,-0.03904,-0.07259,17.7275,9.625,-4.305
825,9426346,0.907802,-0.0549,-0.055022,19.32,12.8975,-3.3075
826,9426444,0.9001161,-0.057462,-0.063074,20.7025,13.5275,-2.5725
827,9426542,0.8885261000000001,-0.08113001,-0.075762,22.3475,12.81,-2.4675
828,9426640,0.8862081,-0.105896,-0.091012,23.905,14.805,-3.0975
829,9426737,0.893284,-0.12627,-0.09845401,24.605,18.6375,-4.55
830,9426835,0.9023121,-0.135542,-0.105774,25.13,22.8725,-6.265
831,9426933,0.9174399999999999,-0.128588,-0.155184,23.975,25.865,-8.6625
832,9427031,0.9328120000000001,-0.09040201,-0.21057199999999998,21.8575,25.97,-12.04
833,9427129,0.944768,-0.041236,-0.199958,19.7575,25.9175,-15.645
834,9427227,0.9864921,-0.04087,-0.153232,19.46,26.88,-17.71
835,9427325,1.017358,-0.061854,-0.089792,18.62,24.43,-17.045
836,9427423,1.061156,-0.09735601,-0.004514,18.34,18.655,-14.42
837,9427521,1.102392,-0.190198,0.115656,22.61,14.2975,-10.2025
838,9427619,1.1232540000000002,-0.25851799999999997,0.172264,28.245,14.1575,-5.6525
839,9427716,1.186572,-0.155306,-0.063196,29.6275,12.495,-3.255
840,9427814,1.283196,0.013663999999999999,-0.45383999999999997,26.3725,3.01,-6.2825
841,9427912,1.3268719999999998,-0.059902,-0.392108,27.86,-4.4625,-14.7175
842,9428010,1.41337,-0.23997399999999997,-0.14786400000000002,30.6425,3.465,-23.73
843,9428108,1.5614780000000001,-0.23460599999999998,-0.22875,24.9025,11.9875,-28.665
844,9428206,1.570506,-0.15372,-0.5042260000000001,10.045,-1.225,-31.675
845,9428304,1.465708,-0.195444,-0.450058,12.845,-7.6825,-33.565
846,9428402,1.350174,-0.250344,-0.363194,13.965,4.5675,-37.205
847,9428500,1.16571,-0.050874,-0.407602,8.645,11.025,-37.905
848,9428597,1.014186,0.16287000000000001,-0.43859,9.94,4.795,-36.295
849,9428695,0.90951,0.1647,-0.4404201,14.4725,-5.775,-35.385
850,9428793,0.8348459999999999,0.15945399999999998,-0.500444,21.2275,-14.14,-34.37
851,9428891,0.841678,0.146766,-0.49471000000000004,29.645,-21.84,-35.7525
852,9428989,0.9024341,0.09272000000000001,-0.43505200000000005,34.09,-25.865,-40.5125
853,9429087,0.9852719999999999,0.072956,-0.36941599999999997,33.6525,-29.0675,-45.255
854,9429185,1.086898,0.039772,-0.333304,33.985,-32.13,-47.4075
855,9429283,1.155218,-0.002684,-0.329034,34.0725,-32.62,-45.045
856,9429380,1.161318,-0.0427,-0.329278,33.74,-28.9625,-37.8
857,9429478,1.118252,-0.08064199,-0.295606,30.7125,-21.63,-27.6325
858,9429576,1.087264,-0.136152,-0.283528,25.3225,-13.0725,-16.59
859,9429674,1.040538,-0.167384,-0.274744,20.335,-5.565,-5.39
860,9429772,0.9363501000000001,-0.164822,-0.263398,17.255,-0.315,4.6725
861,9429870,0.818132,-0.17202,-0.255468,15.3125,1.1375,12.4075
862,9429968,0.721874,-0.201422,-0.24778200000000003,12.88,-1.1725,17.395
863,9430066,0.670878,-0.237046,-0.23668000000000003,10.0625,-4.9875,20.405
864,9430164,0.639768,-0.25559,-0.236192,6.8425,-7.56,21.5775
865,9430261,0.63379,-0.260348,-0.2379,3.955,-10.71,20.755
866,9430359,0.635376,-0.26608200000000004,-0.22716399999999998,2.345,-13.09,19.81
867,9430457,0.6600201,-0.250222,-0.20947399999999997,-0.35,-13.9125,18.3925
868,9430555,0.6980841,-0.22667600000000002,-0.192638,-4.13,-13.0375,18.165
869,9430653,0.749934,-0.201666,-0.168726,-8.435,-11.095,17.9725
870,9430751,0.7991,-0.151524,-0.157502,-14.07,-8.1725,18.4625
871,9430849,0.834968,-0.10321199999999998,-0.139324,-16.9225,-4.0425,19.53
872,9430947,0.845094,-0.07710399999999999,-0.134932,-19.3725,-0.315,20.7375
873,9431044,0.8522921,-0.06344,-0.124806,-20.5975,2.31,20.9825
874,9431142,0.8510719999999999,-0.047336,-0.12175599999999999,-21.385,3.7975,20.615
875,9431240,0.8437520000000001,-0.056974000000000004,-0.104554,-21.0175,5.425,20.335
876,9431338,0.8443620999999999,-0.06466001,-0.098576,-21.735,8.225,19.4075
877,9431436,0.8365541,-0.06563601,-0.09613601,-22.9075,11.7075,17.8325
878,9431534,0.809348,-0.077592,-0.07856801,-24.78,17.15,15.2075
879,9431632,0.7956840999999999,-0.10736,-0.059048,-27.37,24.99,11.83
880,9431730,0.78141,-0.12651400000000002,-0.047092,-31.29,32.375,8.82
881,9431828,0.768478,-0.149816,-0.054046000000000004,-36.155,37.1175,6.0375
882,9431925,0.75335,-0.177754,-0.06819800000000001,-39.935,38.9025,4.7075
883,9432023,0.7483479999999999,-0.21386599999999997,-0.07564,-42.0875,40.005,4.6375
884,9432121,0.764696,-0.27718400000000004,-0.13542,-40.8275,39.9875,6.2125
885,9432219,0.8011741,-0.267302,-0.20447200000000001,-36.0675,35.3325,8.5575
886,9432317,0.8698601,-0.219966,-0.24778200000000003,-30.975,29.435,10.01
887,9432415,0.9356180000000001,-0.15420799999999998,-0.19764,-26.6525,23.6775,10.71
888,9432513,0.9956421,-0.10345599999999999,-0.100162,-22.645,19.3725,11.655
889,9432611,1.042124,0.012931999999999999,0.01525,-21.4375,18.4975,10.64
890,9432708,1.09861,0.14701,0.08954801,-24.2025,20.8425,5.6
891,9432806,1.123864,0.1891,0.111874,-28.035,22.4875,-1.155
892,9432904,1.2372020000000001,-0.081618,-0.10540799999999999,-31.115,21.1225,-4.9875
893,9433002,1.351638,-0.224846,-0.17446,-32.2,18.585,-2.205
894,9433100,1.4934020000000001,0.055510000000000004,-0.08357,-33.5125,21.7175,4.025
895,9433198,1.4818120000000001,-0.015372,-0.055022,-27.5975,27.9475,15.6625
896,9433296,1.452288,-0.22630999999999998,-0.22789600000000002,-17.4125,23.8,24.3425
897,9433394,1.3969,-0.22423600000000002,-0.34428400000000003,-12.215,9.1875,26.425
898,9433492,1.313574,-0.136152,-0.334646,-8.75,5.5475,27.825
899,9433589,1.247572,-0.01281,-0.32147,-6.195,13.405,29.785
900,9433687,1.116056,-0.09979600000000001,-0.296338,-5.7225,19.845,28.28
901,9433785,1.028826,-0.232898,-0.29377600000000004,-8.155,19.3025,24.2025
902,9433883,0.9633120999999999,-0.158356,-0.373808,-11.7425,9.135,20.405
903,9433981,0.8744960999999999,-0.12712400000000001,-0.426878,-18.34,0.2975,16.975
904,9434079,0.8592460999999999,-0.17934,-0.39589,-26.3725,-2.485,15.9775
905,9434177,0.9200021,-0.166042,-0.31012399999999996,-32.3575,-4.585,17.85
906,9434275,1.002718,-0.166164,-0.269498,-36.12,-7.8925,21.3325
907,9434372,1.067744,-0.190564,-0.225944,-38.255,-16.1175,24.675
908,9434470,1.107882,-0.209718,-0.200568,-38.5,-25.0075,26.1975
909,9434568,1.1300860000000001,-0.217282,-0.21606199999999998,-34.475,-28.14,25.3575
910,9434666,1.1381379999999999,-0.18788,-0.25193000000000004,-29.155,-24.4125,20.2825
911,9434764,1.132526,-0.15091400000000002,-0.26900999999999997,-23.03,-16.03,10.71
912,9434862,1.1028799999999999,-0.10528599999999999,-0.252296,-16.2575,-5.9325,-1.1725
913,9434960,1.043344,-0.05246,-0.22716399999999998,-11.7775,0.0175,-12.8975
914,9435058,0.9720960999999999,0.0032939999999999996,-0.20837600000000003,-9.275,0.5425,-22.715
915,9435156,0.89243,0.0671,-0.203984,-6.8775,-1.82,-29.61
916,9435253,0.815326,0.115168,-0.195688,-4.06,-5.46,-33.4775
917,9435351,0.7598161,0.134078,-0.187026,-0.9975,-8.61,-34.44
918,9435449,0.7340741,0.121878,-0.18775799999999998,1.645,-10.7625,-33.5825
919,9435547,0.726754,0.101992,-0.17995,3.6225,-11.76,-32.06
920,9435645,0.7451760000000001,0.08808401,-0.176046,5.0225,-11.4625,-31.0975
921,9435743,0.76982,0.060634,-0.155184,6.86,-10.43,-30.1525
922,9435841,0.79605,0.025986000000000002,-0.13054000000000002,9.135,-9.1525,-29.3825
923,9435939,0.820938,0.006222,-0.098088,11.0425,-7.9625,-29.295
924,9436037,0.8409459999999999,-0.004392,-0.0671,13.545,-6.9825,-29.68
925,9436134,0.8461921,-0.013054,-0.04404201,15.925,-6.0375,-30.135
926,9436232,0.844484,-0.022082,-0.028914,18.1125,-5.215,-29.47
927,9436330,0.8460700999999999,-0.038186000000000005,-0.02196,19.215,-6.23,-27.6325
928,9436428,0.8409459999999999,-0.053070000000000006,-0.023058000000000002,18.69,-8.295,-25.0075
929,9436526,0.8457040000000001,-0.065514,-0.02562,17.71,-10.1325,-21.7175
930,9436624,0.8371639999999999,-0.068076,-0.027572000000000003,16.555,-11.7425,-18.445
931,9436722,0.8344801,-0.06795401,-0.023424,16.24,-12.915,-15.1725
932,9436820,0.8335040000000001,-0.067344,-0.024278,16.9925,-11.865,-11.935
933,9436917,0.828624,-0.068442,-0.025498,19.425,-7.945,-8.8725
934,9437015,0.812154,-0.06575800000000001,-0.026595999999999998,22.6275,-1.785,-6.23
935,9437113,0.7808001,-0.03904,-0.032086,26.4425,3.4825,-3.815
936,9437211,0.752496,0.014762,-0.036112,29.6275,5.81,-1.9775
937,9437309,0.7448100999999999,0.052216,-0.026595999999999998,32.6725,6.685,-0.595
938,9437407,0.7584741,0.060512,-0.029524,34.86,6.545,0.42
939,9437505,0.8033701,0.041236,-0.14762,33.355,2.5725,0.315
940,9437603,0.8784,0.002074,-0.205448,27.1075,-2.6425,-2.625
941,9437701,0.936594,-0.072712,-0.13359000000000001,19.705,-1.3475,-7.7525
942,9437798,1.015406,-0.19764,-0.008906,13.16,1.435,-12.4425
943,9437896,1.117642,-0.29951,0.118828,5.9325,-0.3325,-15.645
944,9437994,1.20658,-0.370026,0.157868,2.1175,-5.285,-16.9925
945,9438092,1.2688,-0.36197399999999996,0.025498,1.8725,-10.745,-15.8725
946,9438190,1.340536,-0.323666,-0.099186,2.03,-19.3725,-14.7875
947,9438288,1.42313,-0.372222,-0.012688,7.5775,-18.34,-18.0775
948,9438386,1.5323200000000001,-0.312564,0.03416,11.2875,-4.2175,-25.095
949,9438484,1.54635,-0.128832,-0.052338,5.635,2.7475,-32.55
950,9438582,1.464854,-0.0183,-0.1891,-0.805,-2.2575,-35.735
951,9438679,1.408124,0.002318,-0.254004,-3.465,-7.35,-35.07
952,9438777,1.397632,-0.04575,-0.27389,-4.655,-10.395,-35.245
953,9438875,1.347124,-0.030133999999999998,-0.293166,-7.6125,-10.6225,-36.9425
954,9438973,1.250256,0.033306,-0.256322,-9.625,-8.05,-36.82
955,9439071,1.14436,0.082472,-0.19739600000000002,-3.5525,-4.6025,-33.5475
956,9439169,1.0493219999999999,0.16592,-0.289018,4.6025,-7.6125,-29.8025
957,9439267,0.9446460999999999,0.20508200000000001,-0.362462,12.425,-17.9025,-28.2275
958,9439365,0.879864,0.125782,-0.376736,23.9575,-25.375,-29.3125
959,9439463,0.840824,0.044896,-0.380762,30.835,-31.0975,-31.395
960,9439560,0.86193,0.01525,-0.348432,36.61,-34.23,-33.8275
961,9439658,0.918538,0.0,-0.304146,37.9575,-35.1575,-36.5925
962,9439756,0.9623360999999999,-0.014762,-0.271694,36.7675,-35.8575,-37.9575
963,9439854,0.989908,-0.014884,-0.257298,34.5975,-37.03,-36.05
964,9439952,1.019798,-0.021594,-0.245464,32.13,-34.3175,-31.0975
965,9440050,1.032852,-0.031354,-0.232044,27.4225,-26.6525,-23.7825
966,9440148,1.026508,-0.050142,-0.226188,21.9625,-17.465,-14.455
967,9440246,1.000522,-0.07344400000000001,-0.20776599999999998,17.395,-9.345,-4.2175
968,9440344,0.9627020000000001,-0.097722,-0.186538,14.77,-4.13,5.635
969,9440441,0.889868,-0.127368,-0.169336,13.44,-0.8925,13.195
970,9440539,0.811178,-0.16592,-0.15677,12.7225,-1.61,18.165
971,9440637,0.731146,-0.20691199999999998,-0.14579,11.83,-5.705,20.335
972,9440735,0.686128,-0.249734,-0.139568,10.605,-11.34,20.16
973,9440833,0.6767340000000001,-0.27328,-0.14152,9.38,-14.8925,18.76
974,9440931,0.687104,-0.27205999999999997,-0.147742,7.3675,-16.3275,16.59
975,9441029,0.712114,-0.244,-0.14786400000000002,4.5325,-16.1875,14.14
976,9441127,0.7482261,-0.21533000000000002,-0.12980799999999998,1.4,-14.7,12.6175
977,9441225,0.785192,-0.196786,-0.107116,-2.59,-13.09,13.0375
978,9441323,0.83936,-0.18043800000000002,-0.079666,-6.72,-11.9525,15.05
979,9441421,0.8860860999999999,-0.157746,-0.062220000000000004,-10.92,-10.36,17.1675
980,9441518,0.9174399999999999,-0.14152,-0.045262000000000004,-14.9275,-9.0125,18.9175
981,9441616,0.9315921,-0.12980799999999998,-0.045627999999999995,-17.08,-7.6125,19.95
982,9441714,0.916342,-0.123708,-0.050263999999999996,-17.5175,-5.81,20.23
983,9441812,0.9037761000000001,-0.119682,-0.053314,-17.675,-3.92,19.6525
984,9441910,0.883158,-0.135176,-0.04941,-18.1825,-1.4525,18.62
985,9442008,0.8554641,-0.151402,-0.041114,-19.46,2.7125,17.955
986,9442106,0.813008,-0.166286,-0.025254,-22.8025,9.38,16.415
987,9442204,0.772748,-0.180316,-0.028792,-27.9125,17.4125,14.1925
988,9442302,0.7421260000000001,-0.188978,-0.06527000000000001,-33.425,24.955,11.7075
989,9442399,0.711992,-0.21472,-0.08113001,-38.1325,30.0125,9.695
990,9442497,0.681248,-0.25522399999999995,-0.07173600000000001,-43.26,32.7075,8.085
991,9442595,0.67161,-0.283894,-0.081984,-48.16,32.97,6.9475
992,9442693,0.70089,-0.298046,-0.133956,-48.335,31.64,6.3875
993,9442791,0.7823859999999999,-0.318054,-0.183122,-40.845,28.0175,7.4025
994,9442889,0.8643700999999999,-0.261324,-0.12395199999999999,-29.2425,21.28,9.3975
995,9442987,0.936716,-0.16506600000000002,-0.006954000000000001,-19.11,15.54,10.64
996,9443085,0.9901521000000001,-0.038918,0.117852,-14.21,11.97,9.9225
997,9443183,1.0760399999999999,0.085888,0.074298,-13.8775,11.76,7.5775
998,9443280,1.19682,0.132248,-0.110044,-14.2275,9.5725,5.25
999,9443378,1.337974,0.16506600000000002,-0.07600599999999999,-13.7375,3.4125,5.5125
1000,9443476,1.49755,0.25315,-0.00427,-17.9025,7.1575,7.9275
1001,9443574,1.5555,0.050142,-0.12468399999999999,-15.085,15.855,17.3775
1002,9443672,1.523292,-0.11138599999999999,-0.276818,-3.7625,13.195,27.895
1003,9443770,1.495476,-0.159942,-0.296094,3.9375,4.6025,26.8625
1004,9443868,1.4393559999999999,-0.196054,-0.268644,8.9425,5.7225,22.47
1005,9443966,1.348832,-0.211914,-0.363072,11.585,12.4775,18.5325
1006,9444064,1.2280520000000001,-0.317078,-0.33318200000000003,12.4775,12.5125,14.3325
1007,9444161,1.124718,-0.188368,-0.271084,9.765,7.7175,11.025
1008,9444259,0.9890540000000001,-0.12078,-0.28999400000000003,3.0975,2.485,8.4525
1009,9444357,0.888648,-0.180072,-0.36282800000000004,-8.61,-2.695,7.77
1010,9444455,0.8775459999999999,-0.2074,-0.335256,-20.825,-8.4875,10.57
1011,9444553,0.90402,-0.196908,-0.315126,-30.66,-9.485,15.54
1012,9444651,0.967094,-0.25193000000000004,-0.275354,-34.8425,-10.885,22.26
1013,9444749,1.0377319999999999,-0.282186,-0.228384,-37.555,-14.77,28.3325
1014,9444847,1.0942180000000001,-0.287554,-0.21472,-38.325,-20.8775,31.185
1015,9444945,1.102026,-0.269376,-0.219966,-35.77,-27.125,30.415
1016,9445042,1.1100780000000001,-0.20947399999999997,-0.241682,-32.6025,-28.9275,24.7275
1017,9445140,1.122156,-0.15420799999999998,-0.25522399999999995,-29.3475,-23.17,14.875
1018,9445238,1.1100780000000001,-0.10528599999999999,-0.237168,-25.55,-12.0225,3.5525
1019,9445336,1.073966,-0.05819401,-0.211182,-21.6825,-2.17,-7.84
1020,9445434,1.022238,-0.005734,-0.189832,-18.1825,1.4525,-18.0425
1021,9445532,0.9409860999999999,0.06075601,-0.178974,-14.77,0.28,-25.865
1022,9445630,0.833992,0.13761600000000002,-0.165676,-11.0425,-3.2725,-30.94
1023,9445728,0.73627,0.191052,-0.160796,-6.86,-8.2075,-33.32
1024,9445826,0.6825899999999999,0.208864,-0.16506600000000002,-3.1325,-12.565,-33.2325
1025,9445924,0.6663640000000001,0.20313,-0.174948,-0.1925,-14.98,-31.6575
1026,9446021,0.6785640000000001,0.172752,-0.1708,2.975,-16.275,-29.4875
1027,9446119,0.70516,0.14701,-0.15396400000000002,6.3175,-15.6275,-27.4225
1028,9446217,0.7470060000000001,0.09845401,-0.127002,9.6775,-13.5275,-25.6725
1029,9446315,0.793488,0.05563200000000001,-0.09882,12.1625,-11.76,-24.5525
1030,9446413,0.8308200000000001,0.010614,-0.07527400000000001,14.1575,-11.2875,-23.2575
1031,9446511,0.8554641,-0.022448,-0.053070000000000006,15.75,-11.8475,-22.2075
1032,9446609,0.862784,-0.049044,-0.040260000000000004,15.7675,-12.25,-21.5425
1033,9446707,0.8704700000000001,-0.055510000000000004,-0.033428,15.61,-12.3375,-20.545
1034,9446804,0.8721780000000001,-0.07417601,-0.02196,14.3325,-11.9,-18.655
1035,9446902,0.8704700000000001,-0.084912,-0.020130000000000002,12.1625,-11.6025,-16.8525
1036,9447000,0.8587581,-0.08100801,-0.017812,10.0625,-11.7775,-14.5075
1037,9447098,0.8555860999999999,-0.07588400000000001,-0.019032,9.2225,-11.3925,-11.725
1038,9447196,0.8520479999999999,-0.06929600000000001,-0.020496,9.4325,-9.415,-8.8725
1039,9447294,0.8443620999999999,-0.063074,-0.020618,11.2,-5.5475,-5.6875
1040,9447392,0.8249639999999999,-0.05929201,-0.013297999999999999,14.1925,-1.05,-2.8175
1041,9447490,0.7965380999999999,-0.045627999999999995,-0.029401999999999998,17.7275,0.8225,-0.525
1042,9447588,0.774578,-0.026595999999999998,-0.022082,22.085,1.225,1.2075
1043,9447686,0.764452,-0.016104,-0.001342,26.95,3.36,2.1875
1044,9447783,0.780922,-0.003904,-0.046482,29.6625,4.8125,2.3975
1045,9447881,0.8327720999999999,0.044652,-0.196176,28.3675,1.33,1.2075
1046,9447979,0.868274,0.047092,-0.22716399999999998,21.91,-3.045,-3.0275
1047,9448077,0.9262239999999999,-0.010858,-0.15396400000000002,15.365,3.605,-8.8375
1048,9448175,1.003084,-0.14164200000000002,0.0034159999999999998,9.8525,8.19,-13.79
1049,9448273,1.1100780000000001,-0.254858,0.16348,4.9,4.025,-16.17
1050,9448371,1.1686379999999998,-0.375394,0.277062,2.0475,-5.0925,-16.205
1051,9448469,1.13887,-0.40381999999999996,0.309636,3.605,-10.29,-13.265
1052,9448567,1.20658,-0.254858,0.076494,5.0225,-14.9275,-9.52
1053,9448665,1.346148,-0.03477,-0.27145,9.52,-19.5825,-9.8
1054,9448762,1.362374,-0.09625801,-0.127978,20.125,-16.3275,-15.0325
1055,9448860,1.4404540000000001,-0.257298,0.071248,27.6325,-3.7975,-25.0075
1056,9448958,1.497428,-0.170068,-0.023790000000000002,19.635,4.13,-32.6375
1057,9449056,1.444968,-0.063318,-0.29731399999999997,3.535,-4.97,-35.105
1058,9449154,1.350662,-0.097722,-0.328546,0.595,-13.0375,-35.35
1059,9449252,1.363472,-0.22423600000000002,-0.257054,4.69,-6.825,-38.3425
1060,9449350,1.260626,-0.19764,-0.297558,-4.7075,-2.1875,-42.5425
1061,9449448,1.128622,0.057339999999999995,-0.306952,-8.54,-1.505,-42.1575
1062,9449546,1.060546,0.131638,-0.30378,-4.6025,-5.495,-40.6
1063,9449644,0.962458,0.116632,-0.348798,1.2775,-11.06,-39.41
1064,9449742,0.863516,0.137006,-0.37417399999999995,11.935,-17.4475,-38.4475
1065,9449839,0.8392381,0.11394800000000001,-0.372222,23.485,-24.6925,-39.1475
1066,9449937,0.8481440999999998,0.09674601,-0.33916,28.2275,-28.7875,-41.7375
1067,9450035,0.8971879999999999,0.09650201,-0.28914,30.6775,-30.2575,-43.5575
1068,9450133,0.9749021000000001,0.07991000000000001,-0.271938,30.555,-33.635,-43.4175
1069,9450231,1.045906,0.035502,-0.25961599999999996,28.49,-35.945,-40.4075
1070,9450329,1.08641,-0.011346,-0.25851799999999997,25.1825,-33.53,-33.8975
1071,9450427,1.0821399999999999,-0.055510000000000004,-0.24827,20.335,-27.055,-24.01
1072,9450525,1.074088,-0.120902,-0.23582600000000004,15.7325,-16.8175,-12.6
1073,9450623,1.067134,-0.154086,-0.217892,11.9875,-6.1425,-1.4175
1074,9450721,1.013698,-0.171654,-0.186538,9.31,0.945,8.855
1075,9450819,0.9331780000000001,-0.191174,-0.166408,7.2625,2.38,17.255
1076,9450917,0.8524139999999999,-0.214232,-0.155672,4.935,-0.665,22.6275
1077,9451014,0.784338,-0.23314200000000002,-0.147254,2.38,-5.39,24.7275
1078,9451112,0.745542,-0.242414,-0.144814,0.035,-10.325,24.1325
1079,9451210,0.7451760000000001,-0.245952,-0.148108,-2.1525,-14.8925,21.9975
1080,9451308,0.761524,-0.23472800000000002,-0.15420799999999998,-3.64,-17.4125,19.1625
1081,9451406,0.793366,-0.219478,-0.14762,-5.0575,-17.255,16.3625
1082,9451504,0.8280139999999999,-0.182146,-0.13725,-7.525,-16.4325,14.385
1083,9451602,0.8571719999999999,-0.157136,-0.11724200000000001,-10.6225,-15.54,14.21
1084,9451700,0.8874280999999999,-0.130174,-0.10321199999999998,-14.21,-14.3325,15.4175
1085,9451798,0.9009700999999999,-0.115534,-0.08527801,-17.99,-14.175,17.8325
1086,9451896,0.899384,-0.116632,-0.07234600000000001,-21.42,-14.735,20.335
1087,9451994,0.8954801,-0.113826,-0.06270801,-23.9225,-14.28,22.0325
1088,9452092,0.8786440999999999,-0.114924,-0.056608000000000006,-25.725,-12.565,22.8725
1089,9452189,0.853756,-0.120048,-0.045384,-26.5825,-10.1675,22.96
1090,9452287,0.834358,-0.110044,-0.027327999999999998,-26.705,-7.2625,22.19
1091,9452385,0.80703,-0.103334,-0.004026,-26.7225,-2.485,21.63
1092,9452483,0.7801899999999999,-0.10052799999999999,0.015128,-28.245,5.0225,20.3175
1093,9452581,0.762012,-0.10345599999999999,0.027572000000000003,-31.535,14.7525,17.57
1094,9452679,0.737734,-0.09540401,0.016104,-37.2575,22.1025,14.035
1095,9452777,0.712846,-0.123098,-0.022692,-42.455,25.9875,10.6225
1096,9452875,0.687592,-0.16652999999999998,-0.044286,-44.59,28.0525,8.3475
1097,9452973,0.6864941,-0.231068,-0.09735601,-44.2225,28.77,7.175
1098,9453071,0.70821,-0.258274,-0.177144,-40.9675,25.8125,6.7025
1099,9453169,0.7821421,-0.22252800000000003,-0.28157600000000005,-35.7,20.16,6.65
1100,9453267,0.843508,-0.16128399999999998,-0.242536,-27.475,13.4225,6.7025
1101,9453365,0.89975,-0.120048,-0.126636,-19.1275,8.26,6.615
1102,9453463,0.9345201,-0.025376,0.04697001,-14.56,4.8475,5.32
1103,9453560,1.00345,0.06636801,0.14884,-16.24,5.39,1.3825
1104,9453658,1.128622,0.062098,0.001098,-19.04,6.2475,-3.185
1105,9453756,1.27978,0.01281,-0.13725,-17.3775,4.865,-3.3775
1106,9453854,1.396656,0.100162,0.021228,-17.8325,6.8075,1.365
1107,9453952,1.4970620000000001,0.10675,0.07283401,-24.43,17.3425,8.8725
1108,9454050,1.4757120000000001,-0.122732,-0.09845401,-19.6525,18.13,21.3325
1109,9454148,1.428498,-0.23021399999999997,-0.261934,-8.9775,4.305,27.9125
1110,9454246,1.403122,-0.26291,-0.284748,0.945,-3.9375,27.2475
1111,9454344,1.4123940000000001,-0.188978,-0.31781,6.7025,-1.3125,26.8975
1112,9454442,1.390068,-0.16201600000000002,-0.41382399999999997,11.0425,-0.35,27.755
1113,9454540,1.291614,-0.064782,-0.26474000000000003,13.58,-0.6125,26.845
1114,9454638,1.17425,-0.06941801,-0.165676,8.47,4.27,21.6825
1115,9454736,1.042368,-0.183732,-0.260348,-0.3325,4.97,15.82
1116,9454834,0.9629459999999999,-0.27828200000000003,-0.30292600000000003,-11.13,-4.8825,10.57
1117,9454932,0.93086,-0.25217399999999995,-0.33379200000000003,-22.575,-10.5875,7.7175
1118,9455030,0.930616,-0.21667199999999998,-0.34281999999999996,-30.1175,-12.1625,7.385
1119,9455128,0.9608721,-0.23448400000000003,-0.288774,-33.0225,-12.285,10.045
1120,9455226,1.027118,-0.240218,-0.233752,-36.1025,-13.02,13.86
1121,9455324,1.075308,-0.22167399999999998,-0.210694,-38.6575,-18.865,16.765
1122,9455422,1.065426,-0.185318,-0.21618400000000002,-38.185,-26.985,17.6575
1123,9455520,1.05469,-0.144082,-0.24156,-34.93,-29.855,14.98
1124,9455617,1.0559100000000001,-0.11614400000000001,-0.260592,-30.3625,-24.3425,8.5575
1125,9455715,1.047248,-0.09247601,-0.255956,-24.3075,-14.5775,0.1925
1126,9455813,1.015284,-0.064416,-0.24558600000000003,-19.425,-8.0675,-9.555
1127,9455911,0.96624,-0.030744,-0.23533800000000002,-16.2225,-7.805,-18.515
1128,9456009,0.9019459999999999,0.024034,-0.225456,-14.035,-10.465,-25.5675
1129,9456107,0.820938,0.079178,-0.21081599999999998,-11.795,-13.405,-30.3625
1130,9456205,0.753228,0.109678,-0.20483800000000002,-9.4675,-16.555,-32.375
1131,9456303,0.7156520000000001,0.12334200000000001,-0.20252,-7.5425,-18.8125,-32.445
1132,9456401,0.7017439999999999,0.1342,-0.202276,-6.3,-19.53,-31.605
1133,9456499,0.70577,0.127368,-0.193492,-4.795,-18.8825,-30.52
1134,9456597,0.728218,0.104798,-0.17385,-3.01,-17.4125,-29.26
1135,9456695,0.759572,0.07588400000000001,-0.15067,-0.4375,-16.1,-27.9125
1136,9456793,0.7923901,0.047092,-0.116876,2.31,-15.225,-26.635
1137,9456891,0.823866,0.022813999999999997,-0.095038,4.41,-15.0325,-25.795
1138,9456989,0.8471681000000001,-0.002562,-0.08527801,6.44,-15.2775,-24.8675
1139,9457086,0.858392,-0.02623,-0.072956,8.2425,-15.645,-23.52
1140,9457184,0.8647360000000001,-0.033794,-0.069174,8.89,-15.995,-22.26
1141,9457282,0.8666879999999999,-0.03599,-0.06356201,8.89,-16.3975,-20.5275
1142,9457380,0.8613200000000001,-0.02928,-0.055022,8.12,-16.6075,-18.305
1143,9457478,0.856074,-0.02745,-0.045384,6.7025,-16.555,-15.9425
1144,9457576,0.8489979999999999,-0.038918,-0.039894,6.58,-15.5925,-13.0025
1145,9457674,0.834724,-0.052338,-0.033672,7.42,-12.915,-9.9225
1146,9457772,0.8211821,-0.055754,-0.03355,9.2925,-6.3875,-6.9825
1147,9457870,0.79178,-0.042578,-0.028182,11.235,1.3125,-4.5325
1148,9457968,0.749202,-0.028304000000000003,-0.022203999999999998,14.1925,7.35,-2.3975
1149,9458066,0.7200439999999999,-0.002318,0.01403,19.355,11.13,-0.5425
1150,9458164,0.7126020000000001,0.045018,0.037454,25.5675,12.0925,1.2075
1151,9458262,0.736514,0.112606,-0.05612,29.855,10.0625,2.2925
1152,9458360,0.806176,0.169458,-0.22411399999999998,28.0875,5.4775,1.4875
1153,9458457,0.8479,0.156038,-0.199714,23.73,5.9325,-1.6975
1154,9458555,0.9357401,0.08906,-0.14579,18.9525,12.495,-5.7575
1155,9458653,1.019798,-0.058926,-0.001342,12.74,13.65,-8.89
1156,9458751,1.138992,-0.21801399999999999,0.166042,5.285,9.7125,-11.2875
1157,9458849,1.18706,-0.37942,0.29219,1.12,5.6,-11.655
1158,9458947,1.214388,-0.36941599999999997,0.133956,-1.7325,1.4175,-10.0975
1159,9459045,1.31882,-0.23021399999999997,-0.184952,0.0175,-7.77,-9.975
1160,9459143,1.3710360000000001,-0.24522,-0.09540401,11.55,-6.5625,-15.12
1161,9459241,1.4363059999999999,-0.31146599999999997,0.06832001,24.2025,9.8875,-23.9925
1162,9459339,1.45302,-0.11919400000000001,-0.049044,15.61,16.9925,-31.6225
1163,9459437,1.408734,-0.009272001,-0.235094,2.4325,9.065,-33.6525
1164,9459535,1.362496,-0.007320001,-0.311344,-4.0425,2.1875,-31.815
1165,9459633,1.4038540000000002,-0.128588,-0.279258,-6.405,1.26,-33.2325
1166,9459731,1.386774,-0.268034,-0.249856,-13.37,0.0525,-37.03
1167,9459829,1.24745,-0.17055599999999999,-0.230946,-17.325,0.315,-37.1
1168,9459926,1.1598540000000002,-0.029646,-0.223748,-12.8275,0.6475,-35.245
1169,9460024,1.063718,0.016958,-0.22557800000000003,-5.2675,-1.61,-33.6175
1170,9460122,0.95099,0.098576,-0.32208000000000003,1.6625,-8.365,-32.4275
1171,9460220,0.887184,0.146156,-0.372832,13.3175,-19.46,-32.1825
1172,9460318,0.8608319999999999,0.10540799999999999,-0.390522,24.8325,-26.985,-33.3025
1173,9460416,0.8652241,0.084912,-0.359046,32.1125,-28.9975,-35.315
1174,9460514,0.9315921,0.09442801,-0.326106,36.925,-29.05,-37.94
1175,9460612,0.9989360999999999,0.069174,-0.287554,37.6075,-30.7825,-39.8475
1176,9460710,1.0377319999999999,0.018056,-0.25132,36.05,-32.1825,-39.025
1177,9460808,1.068964,-0.02684,-0.24778200000000003,32.8825,-31.08,-34.79
1178,9460906,1.068232,-0.05770599999999999,-0.239608,28.735,-25.62,-27.2825
1179,9461004,1.0504200000000001,-0.08357,-0.23216599999999998,23.8525,-16.87,-18.6025
1180,9461102,1.02785,-0.10943399999999999,-0.211914,19.5125,-6.755,-8.96
1181,9461200,0.993568,-0.117852,-0.189466,16.275,1.1725,1.1025
1182,9461298,0.9275661000000001,-0.14457,-0.157868,14.735,3.7275,10.0975
1183,9461396,0.8493641,-0.184342,-0.132492,13.265,2.0125,17.08
1184,9461493,0.778482,-0.22728600000000002,-0.1159,11.41,-1.61,21.035
1185,9461591,0.71187,-0.25790799999999997,-0.11773,9.6425,-6.195,22.225
1186,9461689,0.67527,-0.276208,-0.12627,8.785,-11.4625,21.4375
1187,9461787,0.67893,-0.280966,-0.13761600000000002,8.1025,-14.875,18.83
1188,9461885,0.6994260999999999,-0.259982,-0.141398,6.86,-15.645,15.9075
1189,9461983,0.737002,-0.22386999999999999,-0.132126,4.515,-14.2275,12.845
1190,9462081,0.792512,-0.188124,-0.11773,1.3825,-11.725,10.9725
1191,9462179,0.8430200999999999,-0.158844,-0.083204,-1.47,-9.345,10.7275
1192,9462277,0.8834021000000001,-0.12993,-0.063684,-5.075,-8.6275,11.6025
1193,9462375,0.9153661,-0.107116,-0.05246,-7.49,-9.5025,12.74
1194,9462473,0.93086,-0.102602,-0.044896,-9.45,-10.6225,13.4575
1195,9462570,0.930494,-0.112606,-0.032695999999999996,-10.045,-9.975,12.9675
1196,9462668,0.919392,-0.128588,-0.03904,-10.185,-8.645,12.39
1197,9462766,0.8945040000000001,-0.13908,-0.02928,-9.5375,-7.28,12.2325
1198,9462864,0.868396,-0.14786400000000002,-0.025863999999999998,-9.7475,-4.375,11.7425
1199,9462962,0.848266,-0.162748,-0.020130000000000002,-11.305,-0.21,10.8675
1200,9463060,0.82411,-0.177876,-0.014762,-14.6825,5.6875,9.45
1201,9463158,0.7956840999999999,-0.19397999999999999,-0.021106,-19.425,13.51,7.5775
1202,9463256,0.7631101,-0.213988,-0.043188,-25.76,21.1575,5.4075
1203,9463354,0.7330979999999999,-0.22996999999999998,-0.072712,-33.495,25.9525,3.0625
1204,9463452,0.71797,-0.285846,-0.066856,-41.125,28.2975,1.61
1205,9463550,0.715408,-0.334646,-0.090036,-46.5325,28.1225,1.4175
1206,9463647,0.779702,-0.38503200000000004,-0.189466,-46.1825,25.445,2.73
1207,9463745,0.8544879999999999,-0.368562,-0.193126,-38.465,21.245,5.67
1208,9463843,0.9052401,-0.296216,-0.09882,-28.98,17.08,8.5575
1209,9463941,0.921588,-0.20447200000000001,0.04392,-21.315,13.9825,9.905
1210,9464039,0.9701440999999998,-0.06539201,0.13602999999999998,-18.305,10.115,8.225
1211,9464137,1.0882399999999999,0.038918,0.043554,-18.34,4.5675,5.5825
1212,9464235,1.239398,0.117852,-0.07893401,-17.1675,-0.875,5.0225
1213,9464333,1.380796,0.21777,0.021228,-14.6125,-2.415,7.91
1214,9464431,1.488766,0.190076,0.05160601,-18.9,6.685,12.67
1215,9464529,1.501576,-0.043554,-0.090158,-20.405,15.33,22.19
1216,9464627,1.47864,-0.126026,-0.252052,-10.64,7.5425,29.0675
1217,9464725,1.464854,-0.171898,-0.307196,1.6275,-5.3025,27.895
1218,9464823,1.453386,-0.14993800000000002,-0.325496,10.815,-5.25,25.6725
1219,9464920,1.404708,-0.104066,-0.45554799999999995,15.89,0.98,25.095
1220,9465018,1.294786,-0.131028,-0.35087199999999996,17.29,2.6775,24.99
1221,9465116,1.1476540000000002,-0.037088,-0.238144,10.8325,3.6575,22.8725
1222,9465214,0.9833200000000001,-0.085522,-0.224602,3.185,4.0075,18.585
1223,9465312,0.8638819999999999,-0.188002,-0.302316,-7.945,-2.2575,14.28
1224,9465410,0.812154,-0.25437,-0.306708,-18.13,-9.6775,12.5125
1225,9465508,0.8054439999999999,-0.245098,-0.309514,-26.355,-12.425,13.195
1226,9465606,0.8460700999999999,-0.246196,-0.277428,-29.4175,-14.2275,15.4525
1227,9465704,0.928054,-0.251564,-0.23826599999999998,-29.6975,-16.275,18.6375
1228,9465802,1.0176020000000001,-0.24107199999999998,-0.218502,-28.7,-21.0175,21.0525
1229,9465900,1.0673780000000002,-0.203374,-0.204228,-26.0575,-28.1925,21.315
1230,9465998,1.099098,-0.14786400000000002,-0.21057199999999998,-22.4875,-31.78,18.305
1231,9466096,1.134112,-0.10052799999999999,-0.22862800000000003,-17.815,-27.51,11.76
1232,9466193,1.14802,-0.064172,-0.23021399999999997,-12.0225,-16.38,3.15
1233,9466291,1.117276,-0.03477,-0.217038,-6.7025,-5.5475,-6.825
1234,9466389,1.0492,0.002928,-0.20313,-2.7475,-0.98,-16.66
1235,9466487,0.9700219999999999,0.058316,-0.202276,0.245,-2.59,-25.0075
1236,9466585,0.8760819999999999,0.10723800000000001,-0.20264200000000002,3.8325,-6.6675,-31.0975
1237,9466683,0.7882421,0.149694,-0.193126,7.875,-10.1325,-34.335
1238,9466781,0.73505,0.166286,-0.185806,10.8325,-12.425,-35.0
1239,9466879,0.7224841,0.155428,-0.181658,13.335,-14.4375,-33.565
1240,9466977,0.729804,0.127734,-0.179584,15.54,-16.2575,-31.2375
1241,9467075,0.745054,0.090036,-0.16201600000000002,18.34,-16.905,-28.6475
1242,9467173,0.7722600000000001,0.053801999999999996,-0.13237000000000002,20.475,-15.7325,-27.09
1243,9467271,0.8108121,0.015982,-0.10638399999999999,21.875,-13.3,-26.5825
1244,9467369,0.84424,-0.005002,-0.08174001,23.275,-12.075,-26.4075
1245,9467467,0.8625401,-0.025498,-0.052582000000000004,25.1475,-11.69,-26.32
1246,9467564,0.8653460999999999,-0.038551999999999996,-0.032818,26.7925,-11.5675,-25.725
1247,9467662,0.859856,-0.033428,-0.031598,26.845,-12.3725,-24.955
1248,9467760,0.8509501,-0.032451999999999995,-0.028548,26.8975,-13.23,-23.17
1249,9467858,0.8439959999999999,-0.036966000000000006,-0.033184,26.18,-13.265,-21.3675
1250,9467956,0.844972,-0.053924,-0.024156,25.4275,-12.88,-19.355
1251,9468054,0.8448501,-0.05563200000000001,-0.01708,24.64,-12.6525,-16.9575
1252,9468152,0.84424,-0.061610000000000005,-0.004026,24.6575,-11.8125,-14.07
1253,9468250,0.8448501,-0.069174,0.004514,26.1275,-9.1175,-10.2375
1254,9468348,0.8261841000000001,-0.07002799999999999,0.005612,27.965,-4.4625,-6.5275
1255,9468446,0.7914140000000001,-0.085888,0.003172,30.31,0.5775,-3.0275
1256,9468544,0.757742,-0.094672,-0.006832001,33.355,4.6025,0.1575
1257,9468642,0.73627,-0.07625,0.010004,36.785,5.845,2.8
1258,9468740,0.7288279999999999,-0.040016,0.022203999999999998,40.4775,6.2475,4.795
1259,9468838,0.757742,0.009028000999999999,-0.04867801,42.315,6.055,6.2475
1260,9468936,0.8215481,0.04941,-0.192638,38.9375,2.2225,6.0025
1261,9469033,0.853512,0.025131999999999998,-0.168848,32.83,1.435,3.115
1262,9469131,0.912926,-0.039772,-0.10638399999999999,24.29,7.63,-1.9775
1263,9469229,0.983564,-0.13944600000000001,0.028426,14.35,7.175,-6.7375
1264,9469327,1.102636,-0.259006,0.192028,7.8225,2.6425,-10.57
1265,9469425,1.174982,-0.36880599999999997,0.29572800000000005,6.86,-1.1025,-11.935
1266,9469523,1.2136559999999998,-0.337696,0.12675799999999998,6.0375,-6.23,-10.8675
1267,9469621,1.3029600000000001,-0.205936,-0.138226,7.595,-18.0075,-10.3075
1268,9469719,1.397632,-0.22789600000000002,-0.069662,19.39,-17.99,-14.35
1269,9469817,1.489376,-0.28377199999999997,0.060512,29.75,-4.06,-24.2025
1270,9469915,1.5170700000000001,-0.1464,-0.041236,24.535,4.76,-32.7075
1271,9470013,1.473028,-0.064416,-0.289628,10.0975,-1.1025,-36.4
1272,9470111,1.42313,-0.117486,-0.340624,0.4375,-9.7475,-37.0125
1273,9470209,1.455338,-0.23851,-0.25790799999999997,-2.9225,-6.3875,-40.355
1274,9470307,1.4241059999999999,-0.23729,-0.283406,-10.7275,-1.855,-44.975
1275,9470404,1.288076,-0.05636401,-0.240096,-14.98,-0.1225,-46.5325
1276,9470502,1.158878,0.0732,-0.170678,-8.61,2.5025,-42.77
1277,9470600,1.039318,0.187392,-0.261324,-2.6425,-1.435,-37.1175
1278,9470698,0.91012,0.25046599999999997,-0.32818,6.265,-12.3025,-32.48
1279,9470796,0.8314301,0.174216,-0.34343,19.3725,-22.995,-30.835
1280,9470894,0.792756,0.12261,-0.340014,26.9325,-30.8,-31.92
1281,9470992,0.833626,0.09223200000000001,-0.313296,33.005,-33.0225,-34.58
1282,9471090,0.9059721,0.054167999999999994,-0.275964,34.895,-31.57,-37.555
1283,9471188,0.9683141,0.005246,-0.231922,33.845,-29.9075,-38.7275
1284,9471286,1.0147959999999998,-0.045994,-0.208498,30.345,-29.8025,-36.715
1285,9471384,1.0443200000000001,-0.08052000000000001,-0.211792,25.97,-28.4025,-30.9575
1286,9471482,1.0406600000000001,-0.112972,-0.198006,21.5425,-22.89,-21.9625
1287,9471580,1.0323639999999998,-0.14310599999999998,-0.197518,17.01,-14.07,-11.725
1288,9471678,1.0077200000000002,-0.156526,-0.18775799999999998,12.8625,-5.11,-1.4
1289,9471775,0.9519661,-0.173484,-0.174826,10.1675,1.33,8.4525
1290,9471873,0.865468,-0.199714,-0.1525,8.47,2.45,16.1875
1291,9471971,0.804346,-0.22789600000000002,-0.139324,6.6325,-0.21,21.0
1292,9472069,0.7470060000000001,-0.25071,-0.133224,4.4625,-3.8675,23.17
1293,9472167,0.720532,-0.26608200000000004,-0.127856,2.3275,-8.9075,23.0475
1294,9472265,0.7237041,-0.271694,-0.130906,0.6125,-12.495,21.5425
1295,9472363,0.742858,-0.257176,-0.140422,-1.3125,-14.245,19.5125
1296,9472461,0.765794,-0.21801399999999999,-0.137982,-3.99,-14.5075,17.5175
1297,9472559,0.796904,-0.18068199999999998,-0.12529400000000002,-6.6675,-13.5625,16.2925
1298,9472657,0.841556,-0.151402,-0.104676,-9.8875,-11.69,16.625
1299,9472755,0.876692,-0.115534,-0.08954801,-13.7375,-9.905,18.235
1300,9472853,0.898164,-0.10809200000000001,-0.05917000000000001,-16.94,-9.94,20.16
1301,9472951,0.918538,-0.102968,-0.05246,-20.58,-10.6575,21.21
1302,9473048,0.924638,-0.114924,-0.047945999999999996,-22.715,-10.8325,22.085
1303,9473146,0.919636,-0.13542,-0.041602,-22.7675,-10.3075,21.9275
1304,9473244,0.915976,-0.144204,-0.03843,-22.5225,-9.6775,21.28
1305,9473342,0.9046301,-0.15579400000000002,-0.029524,-22.3125,-8.68,21.28
1306,9473440,0.89975,-0.16433399999999998,-0.01952,-23.4325,-6.7025,20.2825
1307,9473538,0.8836459999999999,-0.18068199999999998,-0.007320001,-25.515,-2.3275,18.655
1308,9473636,0.8536341000000001,-0.195688,0.010614,-28.595,4.7775,16.6075
1309,9473734,0.825574,-0.194346,0.021472,-34.0375,13.5275,13.9475
1310,9473832,0.792756,-0.190198,0.007442,-41.825,19.915,10.955
1311,9473930,0.7712840999999999,-0.213988,-0.024522,-49.175,21.7875,8.54
1312,9474028,0.7509100000000001,-0.23753400000000002,-0.05002,-52.8325,21.035,7.5775
1313,9474126,0.7539600000000001,-0.279502,-0.09516001,-51.4325,19.88,8.015
1314,9474224,0.8011741,-0.287554,-0.185806,-44.1175,17.2375,9.0825
1315,9474321,0.8633940000000001,-0.24522,-0.236436,-33.11,11.62,10.395
1316,9474419,0.9073141,-0.172752,-0.149694,-21.595,4.585,10.4825
1317,9474517,0.930494,-0.08296,0.005856,-14.07,0.0875,9.24
1318,9474615,0.971242,0.02257,0.13602999999999998,-13.7725,-0.8400001,5.775
1319,9474713,1.030656,0.07564,0.11333800000000001,-17.92,0.175,0.4025
1320,9474811,1.162172,0.009394,-0.08564401,-22.7675,-0.4725,-5.075
1321,9474909,1.3024719999999999,-0.025498,-0.090036,-25.55,-0.98,-6.1425
1322,9475007,1.4335,0.06832001,0.05856,-32.2875,6.93,-3.3775
1323,9475105,1.486448,-0.014762,-0.030012,-34.685,14.7875,5.67
1324,9475203,1.443382,-0.180804,-0.206058,-25.6725,12.285,16.695
1325,9475301,1.3943379999999999,-0.227408,-0.27523200000000003,-16.345,5.18,20.0025
1326,9475399,1.332606,-0.20923000000000003,-0.273036,-10.71,4.76,20.2825
1327,9475497,1.25355,-0.12712400000000001,-0.31537,-7.91,10.535,22.68
1328,9475595,1.150094,-0.180804,-0.312808,-6.7375,12.8625,23.1525
1329,9475693,1.064816,-0.156404,-0.278038,-9.03,11.9525,21.455
1330,9475791,0.9806360000000001,-0.069662,-0.283406,-13.265,7.21,18.1825
1331,9475888,0.903166,-0.08771799999999999,-0.359168,-20.79,2.3625,15.26
1332,9475986,0.8862081,-0.17848599999999998,-0.34892,-27.8425,-2.87,15.365
1333,9476084,0.9140241,-0.174216,-0.320982,-35.875,-5.2675,17.465
1334,9476182,0.9796600000000001,-0.204594,-0.285602,-41.51,-7.035,20.3175
1335,9476280,1.05774,-0.244488,-0.23729,-44.765,-12.285,23.4325
1336,9476378,1.113494,-0.258884,-0.20410599999999998,-46.7775,-20.0725,24.885
1337,9476476,1.128012,-0.255834,-0.189832,-44.415,-26.005,24.43
1338,9476574,1.13765,-0.201422,-0.21374400000000002,-40.67,-24.78,19.7575
1339,9476672,1.1453360000000001,-0.147376,-0.239486,-36.295,-16.2575,11.0425
1340,9476770,1.1259379999999999,-0.09211,-0.22996999999999998,-30.6425,-4.6375,0.875
1341,9476868,1.089216,-0.037454,-0.200812,-25.7075,2.7475,-9.5375
1342,9476966,1.036756,0.008906,-0.17812,-21.7875,3.1325,-18.48
1343,9477064,0.9602620999999999,0.057339999999999995,-0.174826,-18.1125,-0.21,-24.955
1344,9477162,0.8610761,0.108458,-0.17446,-14.6825,-4.9,-28.8575
1345,9477260,0.778604,0.14701,-0.17055599999999999,-11.5675,-9.485,-30.205
1346,9477358,0.7320001,0.16652999999999998,-0.174948,-9.59,-13.4225,-28.805
1347,9477456,0.7147979999999999,0.158112,-0.17751,-8.4175,-16.31,-26.145
1348,9477553,0.724436,0.121878,-0.167872,-6.755,-17.745,-23.0125
1349,9477651,0.747128,0.079056,-0.14896199999999998,-4.5675,-17.85,-19.985
1350,9477749,0.775676,0.05355801,-0.138104,-3.2725,-17.29,-18.025
1351,9477847,0.80703,0.008662000999999999,-0.113704,-1.3825,-16.905,-16.345
1352,9477945,0.8355780999999999,-0.017202000000000002,-0.093574,-0.21,-17.01,-16.0125
1353,9478043,0.8479,-0.025498,-0.077958,1.0325,-17.15,-16.6775
1354,9478141,0.8540000000000001,-0.0244,-0.065026,1.785,-16.4675,-17.57
1355,9478239,0.856074,-0.026474,-0.056974000000000004,1.995,-15.1725,-18.0425
1356,9478337,0.850096,-0.018788,-0.051484,1.8025,-13.6675,-17.92
1357,9478435,0.8459479999999999,-0.010858,-0.044286,1.5225,-13.0025,-16.6775
1358,9478533,0.840824,-0.009028000999999999,-0.025254,1.925,-12.1625,-13.9825
1359,9478631,0.8371639999999999,-0.007198,-0.011346,1.3125,-10.045,-11.2175
1360,9478729,0.8252079999999999,-0.008418,-0.002196,1.0325,-5.7925,-8.47
1361,9478827,0.8011741,-0.013908000000000002,0.00244,1.6975,1.1375,-5.67
1362,9478925,0.756888,-0.018422,0.016225999999999997,3.5875,8.7325,-3.115
1363,9479023,0.7208981,-0.017568,0.015982,6.6675,12.67,-0.945
1364,9479121,0.69357,-0.021716,0.022326,11.9525,12.1625,0.735
1365,9479218,0.6956439999999999,-0.0008540001,0.01891,18.935,10.185,2.275
1366,9479316,0.7361481,0.058803999999999995,-0.06270801,24.1675,6.93,3.2375
1367,9479414,0.807884,0.127246,-0.18251199999999998,25.375,1.785,2.765
1368,9479512,0.8671761,0.130662,-0.17019,24.2725,1.5575,0.28
1369,9479610,0.946232,0.10943399999999999,-0.12980799999999998,21.665,8.2425,-3.5175
1370,9479708,1.000522,0.038308,-0.013663999999999999,15.6625,9.8175,-8.015
1371,9479806,1.0675,-0.07490801,0.117486,8.5225,6.825,-12.145
1372,9479904,1.162416,-0.21374400000000002,0.11870599999999999,4.725,-0.4025,-14.3675
1373,9480002,1.2334200000000002,-0.27633,-0.050386,2.3275,-10.675,-14.875
1374,9480100,1.269776,-0.36087600000000003,-0.030744,6.0025,-17.5875,-16.345
1375,9480198,1.367376,-0.42297399999999996,0.049166,15.0325,-6.9475,-22.4
1376,9480296,1.455094,-0.261202,-0.024278,17.1675,9.2225,-32.06
1377,9480394,1.4210559999999999,-0.098088,-0.194346,13.58,10.6225,-39.97
1378,9480492,1.379942,-0.03355,-0.328302,9.38,1.925,-42.0
1379,9480590,1.417274,-0.11321600000000001,-0.310368,3.4475,-2.8175,-42.2975
1380,9480688,1.493158,-0.196542,-0.311222,-5.6525,-1.225,-44.835
1381,9480786,1.455338,-0.227408,-0.24863600000000002,-15.995,-1.26,-45.535
1382,9480884,1.336022,-0.138714,-0.08906,-11.655,2.4675,-41.4925
1383,9480981,1.236104,0.06832001,-0.145424,-2.275,0.1925,-34.755
1384,9481080,1.1442379999999999,0.22496799999999997,-0.267424,4.9525,-15.2425,-29.085
1385,9481177,1.068232,0.2013,-0.36807399999999996,16.2225,-29.855,-27.3525
1386,9481275,0.9949100000000001,0.124074,-0.41175,26.075,-39.095,-28.175
1387,9481373,0.954528,0.061610000000000005,-0.390644,35.175,-40.5825,-30.555
1388,9481471,0.9718521000000001,0.040016,-0.34172199999999997,39.445,-35.8225,-34.1425
1389,9481569,1.004182,-0.005856,-0.295118,40.25,-30.4675,-37.205
1390,9481667,1.015772,-0.05124001,-0.255346,38.08,-29.26,-36.5925
1391,9481765,1.0255319999999999,-0.088328,-0.22728600000000002,33.88,-29.0325,-32.9
1392,9481863,1.0249219999999999,-0.10430999999999999,-0.21838000000000002,28.8925,-25.41,-27.1775
1393,9481961,0.9929581000000001,-0.107848,-0.211304,21.5425,-18.6025,-19.705
1394,9482059,0.955016,-0.127856,-0.218746,14.035,-11.0075,-10.7625
1395,9482157,0.925858,-0.16226,-0.215086,9.1175,-6.02,-1.2775
1396,9482255,0.879864,-0.193736,-0.201178,6.825,-4.865,7.2625
1397,9482352,0.812886,-0.22472399999999998,-0.177754,5.88,-8.2075,14.035
1398,9482450,0.76189,-0.250954,-0.16043,4.865,-12.2325,18.2
1399,9482548,0.7320001,-0.277062,-0.14896199999999998,3.5875,-13.9125,20.3175
1400,9482646,0.714432,-0.29036,-0.151036,1.6275,-15.505,20.685
1401,9482744,0.7060141,-0.302316,-0.139812,0.1225,-17.71,19.9325
1402,9482842,0.725168,-0.28938400000000003,-0.136762,-2.905,-18.8825,17.5525
1403,9482940,0.74542,-0.25351599999999996,-0.133468,-7.5075,-18.27,15.295
1404,9483038,0.774944,-0.219844,-0.127002,-11.48,-16.765,14.0875
1405,9483136,0.8099581,-0.18605,-0.10906800000000001,-15.5925,-15.1375,13.615
1406,9483234,0.8480221,-0.13847,-0.105896,-19.7925,-13.16,13.475
1407,9483332,0.8731540999999999,-0.11577799999999999,-0.08698601,-21.7525,-11.3225,14.6825
1408,9483430,0.8842561,-0.10418800000000002,-0.069174,-23.3625,-9.9225,15.3125
1409,9483526,0.8875501,-0.095282,-0.06588,-24.815,-8.7675,14.9625
1410,9483624,0.8790100000000001,-0.097478,-0.061975999999999996,-25.6375,-7.84,14.7875
1411,9483722,0.8730319999999999,-0.11138599999999999,-0.061488,-25.7075,-6.8075,13.79
1412,9483820,0.8701040000000001,-0.1159,-0.0549,-25.9525,-5.9675,12.915
1413,9483918,0.8718120999999999,-0.118828,-0.032818,-25.9175,-4.585,12.005
1414,9484015,0.873398,-0.131882,-0.012444,-26.6175,-1.715,10.395
1415,9484113,0.8698601,-0.146034,0.001098,-27.86,2.2925,8.295
1416,9484211,0.8453381,-0.13664,0.031842,-30.135,7.84,5.6525
1417,9484309,0.817522,-0.132126,0.045506,-33.775,15.645,2.31
1418,9484407,0.801906,-0.152622,0.01647,-37.7475,22.785,-0.455
1419,9484505,0.7853140000000001,-0.153476,-0.012078,-40.3025,25.97,-2.1525
1420,9484603,0.7850699999999999,-0.191296,-0.08625401,-42.595,24.885,-2.9225
1421,9484701,0.794708,-0.239608,-0.163358,-41.405,22.295,-2.24
1422,9484799,0.870226,-0.25656599999999996,-0.27999,-36.5225,20.09,-0.735
1423,9484897,0.927932,-0.209596,-0.275598,-26.53,14.9625,1.05
1424,9484995,0.9290299999999999,-0.13859200000000002,-0.160674,-12.8275,8.2075,2.87
1425,9485093,0.91622,0.00488,0.019398,-4.5325,0.2975,1.4525
1426,9485191,0.990274,0.08479,0.125904,-5.6525,-2.94,-2.8875
1427,9485289,1.09251,0.05624199999999999,0.018056,-10.675,-2.4675,-6.72
1428,9485387,1.21451,-0.026718000000000002,-0.11431400000000001,-15.1375,-0.735,-7.5075
1429,9485484,1.282464,-0.021594,0.031110000000000002,-19.565,3.955,-4.025
1430,9485582,1.3674979999999999,0.000488,0.09869801,-30.3975,12.775,1.6275
1431,9485680,1.3618860000000002,-0.159332,-0.040748,-32.27,15.0675,10.7625
1432,9485778,1.349076,-0.310734,-0.21447600000000003,-23.7475,7.9275,16.1175
1433,9485876,1.357616,-0.339404,-0.277062,-14.0875,3.4125,16.2225
1434,9485974,1.35542,-0.24461,-0.29585,-7.2275,4.935,17.115
1435,9486072,1.303448,-0.058926,-0.320494,0.5075,5.775,19.11
1436,9486170,1.21756,-0.027327999999999998,-0.300242,5.0225,5.88,19.145
1437,9486268,1.108492,-0.01281,-0.265716,4.4975,5.0225,17.8675
1438,9486366,0.9790501,-0.026962,-0.26718000000000003,1.26,0.595,15.575
1439,9486464,0.8843781,-0.07112601,-0.348066,-4.9175,-5.53,13.335
1440,9486562,0.8675421,-0.12041400000000001,-0.349896,-9.205,-11.7425,12.25
1441,9486660,0.9067040000000001,-0.111142,-0.332694,-12.9675,-13.055,12.53
1442,9486758,0.971242,-0.137494,-0.29341,-14.56,-13.4925,14.2275
1443,9486856,1.047736,-0.185806,-0.24644000000000002,-15.54,-17.185,17.255
1444,9486953,1.101416,-0.21008400000000002,-0.21618400000000002,-17.5,-23.7825,19.5475
1445,9487051,1.131672,-0.20996199999999998,-0.217648,-17.5,-29.5925,19.215
1446,9487149,1.140334,-0.196664,-0.23448400000000003,-15.4525,-28.84,15.295
1447,9487247,1.125206,-0.17263,-0.243756,-11.515,-21.6475,8.2075
1448,9487345,1.080188,-0.13761600000000002,-0.2379,-6.055,-12.81,-0.8925
1449,9487443,1.022726,-0.08918200000000001,-0.22472399999999998,-1.4525,-7.42,-10.815
1450,9487541,0.9525761,-0.03477,-0.20776599999999998,1.4175,-6.6675,-19.845
1451,9487639,0.876814,0.025376,-0.189222,3.4475,-8.8375,-26.635
1452,9487737,0.817278,0.06795401,-0.174582,5.5475,-11.0425,-31.01
1453,9487835,0.774334,0.093574,-0.16287000000000001,7.77,-11.97,-32.725
1454,9487933,0.7427361,0.116388,-0.1525,9.8875,-12.6525,-32.6725
1455,9488031,0.7260220000000001,0.136152,-0.13761600000000002,12.32,-13.335,-31.3775
1456,9488129,0.7348060000000001,0.139568,-0.130296,14.98,-13.3875,-29.4175
1457,9488227,0.751154,0.13639600000000002,-0.124074,17.9375,-13.3525,-27.685
1458,9488325,0.768478,0.114558,-0.102724,21.56,-13.37,-25.83
1459,9488423,0.7965380999999999,0.09784401,-0.081252,24.3075,-12.5125,-24.255
1460,9488520,0.8249639999999999,0.07112601,-0.0671,26.635,-11.7425,-23.0825
1461,9488618,0.83936,0.048922,-0.0488,29.505,-11.935,-21.77
1462,9488716,0.85583,0.025863999999999998,-0.039284,31.745,-11.6025,-20.8075
1463,9488814,0.86803,-0.010248,-0.024156,33.985,-10.43,-19.8625
1464,9488912,0.870226,-0.030987999999999998,-0.006954000000000001,34.3175,-8.8725,-19.1625
1465,9489010,0.8662001,-0.039772,0.01281,34.2125,-7.6125,-17.8675
1466,9489108,0.8571719999999999,-0.05124001,0.033916,33.7225,-5.3375,-16.1
1467,9489206,0.8520479999999999,-0.05453401,0.04514,33.075,-2.555,-13.755
1468,9489304,0.8459479999999999,-0.063074,0.050874,33.005,1.645,-11.095
1469,9489402,0.8409459999999999,-0.08113001,0.051484,34.0725,6.5975,-8.1375
1470,9489500,0.8221581,-0.08576601,0.051972000000000004,35.6475,9.8875,-5.4425
1471,9489597,0.796904,-0.074054,0.048312,37.66,10.5,-3.395
1472,9489695,0.784826,-0.054167999999999994,0.041968,40.4075,11.515,-2.0475
1473,9489793,0.7922680000000001,-0.033672,0.007808001,42.77,13.2475,-1.4
1474,9489891,0.8433860999999999,-0.01952,-0.156648,42.7,13.0025,-1.9075
1475,9489989,0.8669319999999999,-0.01525,-0.225944,37.8175,9.1,-4.2
1476,9490087,0.9092661,-0.013908000000000002,-0.186538,31.2375,12.1275,-8.155
1477,9490185,0.9646541,-0.093696,-0.082228,23.9225,14.5775,-12.3375
1478,9490283,1.017724,-0.20374,0.068564,17.01,12.705,-14.0525
1479,9490381,1.0790899999999999,-0.29072600000000004,0.211548,12.5125,8.365,-14.21
1480,9490479,1.115324,-0.282796,0.125904,10.4825,-0.315,-11.9
1481,9490577,1.1834,-0.203496,-0.07686,11.48,-15.155,-8.8375
1482,9490675,1.269288,-0.19397999999999999,-0.08918200000000001,22.12,-21.63,-8.3825
1483,9490772,1.3801860000000001,-0.24644000000000002,0.007076001,36.05,-8.61,-14.4725
1484,9490870,1.453508,-0.13761600000000002,-0.00244,37.555,6.265,-25.2175
1485,9490968,1.414712,-0.004758,-0.16165,31.5175,8.5925,-33.2675
1486,9491066,1.3499299999999999,0.03416,-0.267424,24.08,1.015,-35.6825
1487,9491164,1.379942,-0.100162,-0.236436,21.0,-0.35,-37.1175
1488,9491262,1.4295959999999999,-0.19885999999999998,-0.290116,15.61,0.315,-40.81
1489,9491360,1.365424,-0.10248,-0.269742,10.535,-1.8725,-44.1875
1490,9491458,1.262334,-0.065026,-0.142862,16.1175,-1.19,-43.8725
1491,9491556,1.173518,0.032818,-0.21655,19.845,-5.005,-40.6875
1492,9491654,1.053348,0.116876,-0.287554,23.31,-14.35,-37.0125
1493,9491752,0.9764879999999999,0.06819800000000001,-0.317688,33.355,-21.9975,-34.7025
1494,9491850,0.927322,0.017202000000000002,-0.339526,39.06,-28.77,-35.0175
1495,9491948,0.927932,-0.025742,-0.318664,46.0075,-31.4475,-36.785
1496,9492046,0.966484,-0.06039,-0.291946,49.525,-32.2875,-38.815
1497,9492143,1.009794,-0.07515201,-0.252906,49.7875,-32.2,-39.7775
1498,9492241,1.039684,-0.06929600000000001,-0.22252800000000003,47.285,-31.6575,-37.905
1499,9492339,1.0529819999999999,-0.072712,-0.199226,42.98,-29.9775,-32.4275
1500,9492437,1.050542,-0.080886,-0.185318,36.995,-24.9375,-24.185
1501,9492535,1.033828,-0.08369201,-0.183,30.45,-16.6075,-14.63
1502,9492633,0.9858819999999999,-0.115656,-0.17836400000000002,24.5175,-7.945,-4.515
1503,9492731,0.925858,-0.152134,-0.156892,21.1225,-2.5725,5.46
1504,9492829,0.8669319999999999,-0.17568,-0.130296,19.3725,-1.7325,13.51
1505,9492927,0.80276,-0.20996199999999998,-0.10504200000000001,18.445,-4.5325,19.04
1506,9493025,0.745908,-0.24326799999999998,-0.09577000000000001,17.36,-9.1875,21.4375
1507,9493123,0.715896,-0.261812,-0.09845401,16.8875,-13.9475,21.3325
1508,9493221,0.7101621,-0.2684,-0.11236199999999999,16.485,-17.4125,19.635
1509,9493319,0.7259001,-0.25559,-0.12175599999999999,15.4875,-19.7575,16.975
1510,9493417,0.74115,-0.23546,-0.127978,14.665,-20.335,14.56
1511,9493515,0.7733581,-0.20556999999999997,-0.118584,13.405,-19.7575,12.005
1512,9493613,0.824232,-0.172996,-0.109678,10.955,-19.0925,10.815
1513,9493711,0.8665661,-0.155306,-0.087352,9.0475,-18.515,11.8475
1514,9493808,0.9032879999999999,-0.140422,-0.06039,6.5975,-18.445,13.3
1515,9493906,0.9242720999999999,-0.12980799999999998,-0.050508,3.8325,-18.585,14.56
1516,9494004,0.9318360000000001,-0.128832,-0.045872,2.31,-18.41,15.4175
1517,9494102,0.9158540999999999,-0.13383399999999998,-0.045994,1.7675,-17.255,15.295
1518,9494200,0.8999940000000001,-0.148474,-0.048312,2.73,-14.5075,14.945
1519,9494298,0.8874280999999999,-0.151158,-0.050752,2.8175,-12.915,14.4025
1520,9494396,0.8790100000000001,-0.160796,-0.046482,1.6975,-10.99,13.7025
1521,9494494,0.8736421,-0.185806,-0.03355,-0.21,-7.0,12.9325
1522,9494592,0.8527800999999999,-0.194346,-0.005368,-4.165,-0.7525,11.1125
1523,9494690,0.820084,-0.193736,0.025986000000000002,-9.9925,7.385,8.295
1524,9494788,0.7882421,-0.19337000000000001,0.047945999999999996,-17.1675,15.5225,4.76
1525,9494886,0.7722600000000001,-0.215086,0.011712,-24.115,20.895,1.75
1526,9494984,0.787388,-0.27816,-0.03904,-27.37,21.4375,0.98
1527,9495082,0.8033701,-0.29731399999999997,-0.053436000000000004,-24.22,19.705,2.4325
1528,9495180,0.83265,-0.27828200000000003,-0.100406,-17.2025,17.57,3.885
1529,9495278,0.8958459999999999,-0.288652,-0.143594,-8.015,14.9975,4.97
1530,9495376,0.925858,-0.24522,-0.10723800000000001,0.2625,10.8325,4.6725
1531,9495473,0.936472,-0.141032,-0.061,5.1625,6.475,1.2425
1532,9495571,0.9668501,-0.011346,-0.035013999999999997,5.8275,0.42,-4.515
1533,9495669,1.068476,0.082472,-0.12980799999999998,5.705,-3.8675,-9.2575
1534,9495767,1.201578,0.160064,-0.174948,6.51,-7.8575,-11.06
1535,9495865,1.2877100000000001,0.294996,-0.092964,5.915,-7.1575,-9.8525
1536,9495963,1.389946,0.17507,-0.121024,6.16,-0.28,-4.3925
1537,9496061,1.479982,-0.029401999999999998,-0.16909200000000002,10.57,2.555,6.965
1538,9496159,1.500966,-0.160552,-0.18629400000000002,17.5,1.925,16.1875
1539,9496257,1.435086,-0.285846,-0.18751400000000001,23.59,1.295,19.425
1540,9496355,1.302716,-0.371368,-0.296948,26.95,3.5875,19.18
1541,9496453,1.18523,-0.5321640000000001,-0.349042,31.9025,5.18,17.9725
1542,9496551,1.0589600000000001,-0.34172199999999997,-0.339404,33.95,0.98,16.205
1543,9496649,0.9230520000000001,-0.09333,-0.24046199999999998,29.1375,-2.1525,11.9875
1544,9496747,0.805932,-0.019642,-0.24107199999999998,19.4425,-2.7475,7.5775
1545,9496844,0.783362,-0.057218,-0.259372,10.5175,-9.0125,4.13
1546,9496942,0.8067861,-0.11333800000000001,-0.288774,3.78,-14.665,4.2875
1547,9497040,0.8383841000000001,-0.136518,-0.25656599999999996,1.4875,-16.73,6.895
1548,9497138,0.906826,-0.121878,-0.231312,0.8575,-18.095,8.295
1549,9497236,1.009428,-0.14188599999999998,-0.22996999999999998,3.465,-20.93,7.9625
1550,9497334,1.090192,-0.15506199999999998,-0.20788800000000002,9.59,-25.0775,6.72
1551,9497432,1.121302,-0.13115,-0.18287799999999999,15.855,-26.3375,3.57
1552,9497530,1.1350879999999999,-0.1098,-0.201422,20.44,-22.19,-1.47
1553,9497628,1.138382,-0.114802,-0.23228800000000002,24.99,-11.8825,-7.4375
1554,9497726,1.089948,-0.12566,-0.24790399999999999,29.365,-0.595,-14.1575
1555,9497824,0.9962521000000001,-0.10858,-0.240218,31.99,3.885,-20.2825
1556,9497922,0.906948,-0.06941801,-0.230702,33.285,0.8575,-24.605
1557,9498020,0.8425321,-0.030256,-0.23424,34.2475,-4.865,-26.74
1558,9498118,0.795562,0.01464,-0.23729,34.3,-10.15,-27.5975
1559,9498215,0.77531,0.04148,-0.23546,34.16,-13.755,-27.4925
1560,9498313,0.78751,0.057828,-0.220942,34.3525,-17.395,-26.635
1561,9498411,0.838018,0.056608000000000006,-0.20837600000000003,34.9125,-20.79,-25.4975
1562,9498509,0.8926741,0.030012,-0.18849000000000002,36.7325,-21.14,-24.3425
1563,9498607,0.9352520000000001,-0.002074,-0.15823399999999999,38.885,-20.2475,-23.6075
1564,9498705,0.974658,-0.03172,-0.13298,40.5125,-19.6525,-23.835
1565,9498803,0.993568,-0.05648601,-0.10931199999999999,42.105,-18.62,-25.13
1566,9498901,0.995398,-0.06380599999999999,-0.09735601,43.5925,-19.215,-26.635
1567,9498999,0.9799041,-0.068442,-0.09223200000000001,45.115,-20.5975,-27.5275
1568,9499097,0.955992,-0.058682000000000005,-0.091744,45.7275,-21.4375,-28.0525
1569,9499195,0.9323239999999999,-0.037576,-0.09516001,45.3075,-21.5775,-27.7725
1570,9499293,0.9186601000000001,-0.033306,-0.090646,44.8875,-21.945,-26.1975
1571,9499390,0.9151219999999999,-0.027816000000000004,-0.0793,43.925,-22.1025,-23.485
1572,9499488,0.9057280999999999,-0.031110000000000002,-0.052338,43.12,-20.265,-19.9325
1573,9499586,0.8877940000000001,-0.041724000000000004,-0.016592,43.2775,-15.75,-16.17
1574,9499684,0.8638819999999999,-0.043554,0.01647,45.57,-7.9625,-12.67
1575,9499782,0.830332,-0.04453,0.02684,49.3675,-0.14,-9.9575
1576,9499880,0.781776,-0.048312,0.006344,54.5125,3.4125,-7.6825
1577,9499978,0.72346,-0.042456,-0.008052001,60.7775,3.7625,-6.125
1578,9500076,0.68503,-0.029036000000000003,-0.008174001,67.1125,4.8125,-6.2475
1579,9500174,0.6791739999999999,0.05453401,-0.068686,69.545,3.9725,-8.1025
1580,9500272,0.740418,0.14713199999999999,-0.223504,66.7275,-1.4525,-11.5325
1581,9500370,0.8105680000000001,0.132126,-0.23058,63.14,-2.66,-15.75
1582,9500468,0.9057280999999999,0.035868000000000004,-0.157746,61.7225,2.8875,-19.7925
1583,9500566,0.9863700000000001,-0.09040201,-0.03965,58.765,5.32,-22.7325
1584,9500663,1.050908,-0.221796,0.055022,50.8375,3.255,-24.85
1585,9500761,1.108858,-0.297192,0.125538,46.76,-0.4375,-24.8675
1586,9500859,1.138626,-0.32757,0.079056,45.92,-2.6075,-22.26
1587,9500957,1.15351,-0.35319,0.015616,47.285,-7.77,-17.7275
1588,9501055,1.151192,-0.36722,0.020374,55.335,-7.9275,-15.3825
1589,9501153,1.1575360000000001,-0.298534,-0.047092,56.945,-1.5225,-18.445
1590,9501251,1.154242,-0.22045399999999998,-0.17055599999999999,50.8375,-0.0175,-23.73
1591,9501349,1.129964,-0.18629400000000002,-0.262666,45.57,-3.36,-27.0025
1592,9501447,1.1622940000000002,-0.17128800000000002,-0.43334399999999995,42.9975,-9.66,-28.63
1593,9501545,1.282708,-0.215574,-0.487512,38.3075,-22.9075,-34.58
1594,9501643,1.379576,-0.482754,-0.264496,33.915,-30.8175,-42.3675
1595,9501741,1.3642040000000002,-0.411628,-0.13115,36.54,-23.3625,-42.91
1596,9501839,1.294664,-0.044652,-0.17812,38.4475,-19.5475,-42.3325
1597,9501936,1.1842540000000001,0.14383800000000002,-0.22801799999999997,48.3875,-19.5825,-38.92
1598,9502034,1.042978,0.215452,-0.28304,56.5775,-25.34,-33.8975
1599,9502132,0.9414741,0.145302,-0.324886,69.73751,-36.33,-28.4025
1600,9502230,0.9001161,0.06563601,-0.352092,79.17,-43.47,-26.915
1601,9502328,0.8988959999999999,0.005856,-0.330376,85.47,-42.735,-28.8925
1602,9502426,0.9345201,-0.06929600000000001,-0.27718400000000004,88.34000999999999,-39.8125,-31.71
1603,9502524,0.996374,-0.14798599999999998,-0.23119,87.99,-36.7675,-34.965
1604,9502622,1.043588,-0.196298,-0.21752600000000002,85.48751,-36.05,-37.0825
1605,9502720,1.062498,-0.208132,-0.227408,81.655,-36.3125,-37.065
1606,9502818,1.053226,-0.187636,-0.23802199999999998,76.825,-32.1475,-34.965
1607,9502916,1.031754,-0.15054800000000002,-0.252784,71.82,-23.9925,-31.395
1608,9503014,0.9983261,-0.137006,-0.254126,69.825,-17.7275,-26.355
1609,9503111,0.9511120000000001,-0.149084,-0.24351199999999998,70.28,-15.68,-20.7375
1610,9503209,0.8907221,-0.18422,-0.22935999999999998,71.19,-18.41,-16.1
1611,9503307,0.840458,-0.22948200000000002,-0.21447600000000003,71.9075,-23.275,-13.195
1612,9503405,0.815936,-0.26291,-0.202276,72.695,-27.09,-12.6
1613,9503503,0.8091041,-0.27571999999999997,-0.191296,73.08,-29.7675,-13.86
1614,9503601,0.8108121,-0.271206,-0.188002,73.29,-31.7275,-16.065
1615,9503699,0.821304,-0.25864000000000004,-0.17763199999999998,73.2725,-32.8825,-18.6725
1616,9503797,0.85034,-0.228872,-0.166408,72.3275,-32.4275,-21.0
1617,9503895,0.8855980999999999,-0.183854,-0.162382,70.77,-31.255,-22.085
1618,9503993,0.910974,-0.151036,-0.149572,69.545,-29.3475,-22.05
1619,9504091,0.9404981,-0.125172,-0.137128,67.48001,-26.81,-22.3125
1620,9504189,0.9618481,-0.112606,-0.12993,65.695,-24.6925,-22.085
1621,9504287,0.9696561,-0.123464,-0.119804,65.1,-23.38,-21.63
1622,9504385,0.9708760000000001,-0.140422,-0.103578,65.3275,-21.7175,-22.0325
1623,9504482,0.961482,-0.161528,-0.094672,65.8875,-20.055,-22.96
1624,9504580,0.9524540000000001,-0.168238,-0.082228,66.60501,-19.4425,-24.535
1625,9504678,0.933422,-0.169214,-0.05172801,66.64,-18.515,-25.76
1626,9504776,0.9080459999999999,-0.154818,-0.022326,65.59,-15.82,-26.95
1627,9504874,0.859368,-0.14188599999999998,0.00793,63.9975,-11.0775,-27.9825
1628,9504972,0.8077621,-0.131028,0.040992,61.18,-4.4975,-29.05
1629,9505070,0.759938,-0.106994,0.060634,56.665,2.7125,-30.5725
1630,9505168,0.72956,-0.09516001,0.054167999999999994,51.66,9.6425,-32.515
1631,9505266,0.715164,-0.13054000000000002,0.024888,48.6675,14.21,-33.9675
1632,9505364,0.711138,-0.198128,0.00061,49.77,15.68,-34.1075
1633,9505462,0.7291941,-0.273158,-0.023912,54.3725,15.9775,-33.6175
1634,9505560,0.764452,-0.305,-0.046604,60.3925,14.8925,-34.055
1635,9505657,0.811056,-0.272914,-0.07832401,63.9275,11.025,-35.8925
1636,9505755,0.8253299999999999,-0.208864,-0.079544,63.6825,4.585,-39.1475
1637,9505853,0.8075180000000001,-0.133956,-0.05648601,59.36,0.3675,-42.6825
1638,9505951,0.8188641,-0.115534,-0.07307801,53.83,2.0825,-45.815
1639,9506049,0.8843781,-0.170434,-0.216916,53.3575,5.25,-47.635
1640,9506147,0.965752,-0.252784,-0.301706,57.2075,9.45,-46.865
1641,9506245,1.072136,-0.099674,-0.233752,58.9225,16.065,-42.805
1642,9506343,1.21146,-0.051484,-0.25864000000000004,57.26,24.4825,-32.9175
1643,9506441,1.324554,-0.192882,-0.311954,61.04,26.215,-13.58
1644,9506539,1.3146719999999998,-0.160918,-0.290116,67.9,16.45,7.3675
1645,9506637,1.2342739999999999,-0.104798,-0.382592,71.4175,8.47,20.7375
1646,9506735,1.14985,-0.15506199999999998,-0.451888,73.3425,6.3175,30.205
1647,9506833,1.004304,-0.062952,-0.44517799999999996,75.3375,3.4825,35.455
1648,9506930,0.8712021000000001,-0.0427,-0.387716,75.5825,4.4275,34.195
1649,9507028,0.7991,-0.101382,-0.364658,71.2775,4.7075,29.12
1650,9507126,0.7970261,-0.209596,-0.331962,67.025,-4.0775,21.28
1651,9507224,0.9019459999999999,-0.25607800000000003,-0.32574000000000003,64.2075,-16.1525,12.74
1652,9507322,1.034804,-0.239242,-0.337574,66.955,-28.77,4.55
1653,9507420,1.211826,-0.200934,-0.35477600000000004,74.0075,-35.2975,-5.88
1654,9507518,1.42862,-0.105774,-0.31451599999999996,82.14499,-28.42,-17.7625
1655,9507616,1.551596,0.03355,-0.24851399999999998,89.6175,-10.675,-29.505
1656,9507714,1.4367940000000001,0.154574,-0.217892,94.92,2.1,-39.445
1657,9507812,1.22976,0.205204,-0.250344,98.805,2.7825,-47.8975
