,T,ax,ay,az,gx,gy,gz
0,208766,0.684664,-0.08174001,-0.5307,16.8175,-16.73,-17.1675
1,208919,0.7027201,-0.07856801,-0.6182960999999999,39.13,-105.6475,-134.3825
2,209015,0.749324,-0.09320801,-0.6480640000000001,41.5975,-168.1225,-173.425
3,209111,0.750788,-0.09394001,-0.64904,46.6725,-134.015,-59.9025
4,209207,0.7510321,-0.09540401,-0.649284,3.43,-9.3275,-6.0025
5,209304,0.7500560000000001,-0.09345201,-0.652212,1.47,-3.8325,-3.6225
6,209400,0.750788,-0.09394001,-0.651968,1.505,-3.85,-3.6575
7,209496,0.748104,-0.094916,-0.6512359999999999,1.5925,-3.885,-3.675
8,209592,0.752008,-0.09540401,-0.650016,1.4,-3.885,-3.7275
9,209688,0.7522521,-0.094672,-0.650748,1.47,-3.885,-3.815
10,209785,0.7510321,-0.091012,-0.653432,1.47,-3.885,-3.7975
11,209881,0.748104,-0.091988,-0.654652,1.5225,-3.955,-3.7275
12,209977,0.7500560000000001,-0.09125599999999999,-0.652212,1.5575,-3.9025,-3.605
13,210073,0.749812,-0.09345201,-0.650992,1.575,-3.78,-3.5875
14,210169,0.749568,-0.094672,-0.654896,1.6275,-3.7975,-3.57
15,210266,0.750788,-0.094672,-0.653432,1.575,-3.7975,-3.6575
16,210362,0.749812,-0.09345201,-0.652212,1.5575,-3.8675,-3.64
17,210458,0.7515201,-0.093696,-0.6539201,1.575,-3.815,-3.6925
18,210554,0.752984,-0.09320801,-0.654896,1.61,-3.7275,-3.5875
19,210651,0.7515201,-0.09223200000000001,-0.6541640000000001,1.6625,-3.6225,-3.5
20,210747,0.74908,-0.09320801,-0.650748,1.645,-3.6225,-3.5875
21,210843,0.749812,-0.09418401,-0.652944,1.68,-3.7275,-3.64
22,210939,0.750544,-0.093696,-0.6527,1.645,-3.605,-3.5525
23,211035,0.7500560000000001,-0.09150001,-0.651968,1.6975,-3.71,-3.605
24,211132,0.748836,-0.091988,-0.650748,1.7675,-3.605,-3.5875
25,211228,0.7510321,-0.09345201,-0.653188,1.785,-3.605,-3.57
26,211324,0.7515201,-0.09442801,-0.6514800000000001,1.7325,-3.6225,-3.57
27,211420,0.752008,-0.09272000000000001,-0.653188,1.785,-3.675,-3.57
28,211516,0.7500560000000001,-0.091744,-0.6514800000000001,1.6975,-3.675,-3.5175
29,211613,0.749812,-0.091988,-0.6517241,1.715,-3.6225,-3.535
30,211709,0.74908,-0.091988,-0.650992,1.715,-3.64,-3.535
31,211805,0.7500560000000001,-0.09394001,-0.6512359999999999,1.68,-3.675,-3.605
32,211901,0.7500560000000001,-0.09345201,-0.650992,1.5925,-3.5875,-3.5
33,211998,0.749568,-0.09345201,-0.6517241,1.715,-3.64,-3.6225
34,212094,0.7515201,-0.09272000000000001,-0.652944,1.6275,-3.6575,-3.675
35,212190,0.75274,-0.09540401,-0.652456,1.7325,-3.64,-3.57
36,212286,0.7537159999999999,-0.09345201,-0.6527,1.8025,-3.5,-3.535
37,212382,0.755912,-0.090036,-0.658312,1.8725,-3.71,-3.4475
38,212479,0.761524,-0.08808401,-0.659288,2.03,-3.92,-3.3425
39,212575,0.748592,-0.09272000000000001,-0.649528,2.2925,-4.2525,-3.2725
40,212671,0.755424,-0.104432,-0.6463561,2.1175,-4.4275,-3.185
41,212767,0.7503,-0.09735601,-0.6517241,2.205,-4.865,-3.57
42,212864,0.7556681,-0.091012,-0.649284,1.925,-4.76,-3.9725
43,212960,0.762988,-0.09320801,-0.653676,1.89,-4.97,-3.99
44,213056,0.75884,-0.09784401,-0.6527,2.1175,-5.7575,-4.025
45,213152,0.758596,-0.101504,-0.647332,2.1175,-6.3525,-4.235
46,213248,0.7598161,-0.101016,-0.6539201,2.065,-7.0,-4.6025
47,213345,0.762744,-0.094916,-0.656116,1.9075,-7.35,-4.76
48,213441,0.751276,-0.09345201,-0.656116,2.0475,-7.805,-4.7775
49,213537,0.74542,-0.091744,-0.660996,1.995,-7.98,-4.83
50,213633,0.7439560000000001,-0.098332,-0.657092,1.8375,-7.84,-4.8475
51,213730,0.74542,-0.09516001,-0.65758,1.61,-7.4025,-4.935
52,213826,0.748592,-0.094916,-0.654896,1.2775,-7.2625,-5.1975
53,213922,0.749812,-0.09247601,-0.654408,0.91,-7.1225,-5.4775
54,214018,0.753472,-0.09394001,-0.655384,0.8225,-7.0175,-5.565
55,214114,0.753472,-0.08881599,-0.6566041,0.91,-6.9825,-5.3375
56,214211,0.74664,-0.08881599,-0.655384,0.9975,-7.1925,-5.3025
57,214307,0.743224,-0.085156,-0.654652,1.1725,-7.0525,-5.1275
58,214403,0.7417600000000001,-0.08344800000000001,-0.659288,1.295,-6.7025,-4.7775
59,214499,0.741028,-0.086864,-0.656848,1.7325,-6.4225,-4.305
60,214596,0.741272,-0.08784,-0.6600201,1.9775,-6.3175,-3.99
61,214692,0.740296,-0.085156,-0.658068,2.0825,-6.195,-3.7625
62,214788,0.735904,-0.08564401,-0.658312,2.275,-6.0375,-3.535
63,214884,0.729804,-0.08906,-0.653676,2.38,-5.88,-3.4825
64,214980,0.7332201,-0.08564401,-0.659532,2.17,-5.4075,-3.4825
65,215077,0.73688,-0.093696,-0.660752,2.2225,-5.1275,-3.535
66,215173,0.733952,-0.077592,-0.6600201,2.205,-5.11,-3.4475
67,215269,0.7178479999999999,0.00244,-0.651968,2.065,-5.1275,-4.3225
68,215365,0.733708,-0.184952,-0.6348881,4.1125,-4.8825,-6.02
69,215462,0.7390760000000001,-0.11126400000000002,-0.6527,2.8875,-4.4625,-3.3775
70,215558,0.73932,-0.07808001,-0.663192,1.4525,-3.885,-2.975
71,215654,0.73688,-0.09906401,-0.654896,2.765,-4.095,-2.8525
72,215750,0.7332201,-0.087352,-0.6605081,2.2925,-3.9375,-2.8525
73,215847,0.738344,-0.089304,-0.662216,2.1875,-3.64,-3.0275
74,215943,0.7388319999999999,-0.09223200000000001,-0.658556,2.2925,-3.57,-2.7825
75,216039,0.7361481,-0.09638,-0.653676,2.345,-3.675,-2.7475
76,216135,0.735904,-0.09613601,-0.65514,1.9075,-3.5175,-2.94
77,216231,0.735416,-0.09638,-0.655384,1.435,-3.255,-3.185
78,216328,0.735172,-0.09125599999999999,-0.654408,1.015,-3.1325,-3.36
79,216424,0.73688,-0.091012,-0.6539201,0.7,-2.8525,-3.57
80,216520,0.73688,-0.091012,-0.65758,0.3325,-2.4675,-3.815
81,216616,0.7417600000000001,-0.091744,-0.659776,0.0,-2.2225,-4.0075
82,216713,0.7361481,-0.09272000000000001,-0.65758,-0.2625,-2.17,-4.095
83,216809,0.7356600000000001,-0.095648,-0.6512359999999999,-0.56,-1.995,-4.305
84,216905,0.73078,-0.094916,-0.648308,-1.19,-1.54,-4.4975
85,217001,0.734684,-0.09028,-0.6558721,-1.68,-1.645,-4.8825
86,217097,0.739564,-0.09613601,-0.648796,-2.275,-1.505,-5.3025
87,217194,0.737124,-0.09028,-0.654896,-3.0975,-1.9075,-5.8275
88,217290,0.7422481,-0.088328,-0.655628,-3.745,-2.1,-6.2825
89,217386,0.741028,-0.090768,-0.652212,-4.0775,-2.6425,-6.4225
90,217482,0.739808,-0.08881599,-0.657824,-4.34,-3.255,-6.5625
91,217579,0.7483479999999999,-0.092964,-0.6514800000000001,-4.5325,-3.8325,-6.86
92,217675,0.763232,-0.066856,-0.662704,-4.795,-4.1125,-6.8775
93,217771,0.7639640999999999,-0.063684,-0.671244,-3.9375,-4.4975,-6.265
94,217867,0.7598161,-0.073688,-0.672708,-2.3975,-4.41,-5.1975
95,217963,0.7564001,-0.07246799999999999,-0.6707561,-1.365,-4.41,-4.4625
96,218060,0.755424,-0.07490801,-0.6722199999999999,-0.595,-4.1125,-3.815
97,218156,0.753228,-0.07881200000000001,-0.6688041,0.455,-4.025,-3.255
98,218252,0.752496,-0.07490801,-0.66368,1.015,-4.0075,-3.045
99,218348,0.7537159999999999,-0.06490399999999999,-0.666608,1.3125,-3.92,-2.9225
100,218445,0.7539600000000001,-0.058803999999999995,-0.673196,2.24,-3.6925,-2.3625
101,218541,0.752496,-0.061975999999999996,-0.670512,3.6225,-3.2725,-1.4175
102,218637,0.7549359999999999,-0.06539201,-0.6634359999999999,4.9175,-2.625,-0.2975
103,218733,0.749568,-0.07173600000000001,-0.667828,6.3175,-2.1175,0.805
104,218830,0.745664,-0.081984,-0.6695361,7.4725,-1.5925,1.5575
105,218926,0.7442,-0.090036,-0.6661201,8.05,-1.4525,1.82
106,219022,0.742492,-0.09784401,-0.6600201,8.1375,-1.6275,1.715
107,219118,0.741028,-0.11102000000000001,-0.6505041,7.7525,-1.8375,1.015
108,219215,0.736392,-0.118584,-0.645868,6.4925,-2.1175,-0.2275
109,219311,0.733708,-0.122,-0.643428,4.62,-2.5725,-1.995
110,219407,0.734196,-0.121268,-0.643428,2.415,-3.325,-4.0425
111,219503,0.7376119999999999,-0.11834000000000001,-0.641232,0.1925,-4.1475,-6.02
112,219599,0.7327321,-0.116388,-0.6392800000000001,-1.645,-4.9175,-7.77
113,219696,0.7317560000000001,-0.10394400000000001,-0.644892,-3.395,-5.5475,-9.31
114,219792,0.731024,-0.0976,-0.642452,-4.865,-5.8275,-10.6225
115,219888,0.734684,-0.08637601,-0.6541640000000001,-6.16,-5.845,-11.69
116,219984,0.73688,-0.08344800000000001,-0.6527,-6.9475,-5.775,-12.4425
117,220081,0.735416,-0.079056,-0.657092,-7.2275,-5.845,-12.88
118,220177,0.7373681,-0.077348,-0.6675840000000001,-7.315,-5.7925,-13.3
119,220273,0.741028,-0.07490801,-0.6588,-6.5275,-5.6175,-13.7025
120,220369,0.7451760000000001,-0.069784,-0.655384,-6.2825,-5.46,-13.6675
121,220466,0.743224,-0.05929201,-0.6646561,-5.67,-4.9875,-13.335
122,220562,0.739808,-0.0671,-0.661728,-4.8475,-4.2,-12.8975
123,220658,0.739808,-0.06929600000000001,-0.659044,-4.5325,-3.325,-12.7575
124,220754,0.739564,-0.067344,-0.659532,-4.3575,-2.3975,-12.845
125,220851,0.744444,-0.05368,-0.669048,-3.885,-1.085,-12.6525
126,220947,0.7478600000000001,-0.04514,-0.669292,-2.835,0.49,-11.83
127,221043,0.769088,-0.052703999999999994,-0.644648,-1.4875,2.345,-10.6575
128,221139,0.7176041,0.008052001,-0.7551800000000001,-2.135,4.62,-9.2925
129,221236,0.743712,-0.063684,-0.6707561,0.245,6.195,-7.5775
130,221332,0.739564,-0.065148,-0.663192,-1.645,9.4675,-7.175
131,221428,0.744444,-0.058072000000000006,-0.6573359999999999,-1.9425,13.2125,-6.405
132,221524,0.7329760000000001,-0.087108,-0.668072,-3.2375,17.08,-5.845
133,221621,0.726144,-0.157868,-0.641964,-7.9975,23.0125,-6.4225
134,221717,0.6512359999999999,0.106628,-0.9623360999999999,-20.58,31.8675,-7.5425
135,221813,0.638304,-0.128832,-0.768844,-4.76,40.775,-8.0675
136,221909,0.664412,-0.06344,-0.757864,-7.5075,56.63,-14.875
137,222006,0.692472,-0.054412,-0.7283400999999999,-3.885,69.51,-19.67
138,222102,0.694912,-0.037576,-0.7315119999999999,-5.4425,83.16001,-22.1025
139,222198,0.6956439999999999,-0.052703999999999994,-0.7041841,-8.6975,94.86751,-23.7125
140,222294,0.708576,0.007076001,-0.6885680999999999,-14.035,108.5,-24.7975
141,222390,0.740296,0.031964,-0.6109760000000001,-21.1225,125.1775,-22.5925
142,222487,0.72956,-0.043676,-0.53192,-31.22,149.38,-15.715
143,222583,0.70516,0.067344,-0.52094,-50.715,179.8475,-13.125
144,222679,0.739564,0.11614400000000001,-0.382104,-52.4825,215.215,-12.495
145,222775,0.7734800000000001,0.13664,-0.171532,-45.5,257.11,-9.03
146,222872,0.7883640000000001,0.1525,0.037332,-37.0475,308.56,-3.7625
147,222968,0.9860040999999999,0.23472800000000002,-0.11053199999999999,-19.3375,373.1525,2.59
148,223064,1.524512,0.104676,-0.618784,17.5,443.3275,14.14
149,223160,2.026908,-0.016592,-1.286368,62.7025,480.13,28.1925
150,223257,1.610156,0.18324400000000002,-0.9650200999999999,88.3575,473.55,39.0425
151,223353,2.08986,-0.510692,-1.122644,111.1775,486.395,43.47
152,223449,2.21674,-0.6263479999999999,-1.587708,81.39251,467.845,24.4475
153,223545,2.473672,-0.460916,-1.949804,51.345,416.15,0.525
154,223642,1.8004759999999997,-0.43724799999999997,-0.7664041,57.12,350.1225,-14.315
155,223738,2.0769279999999997,-0.663192,-1.621868,94.8325,361.8825,-19.32
156,223834,2.346304,-1.699948,-3.041216,120.47,346.43,1.54
157,223930,2.802828,-1.701168,-3.049512,62.37,192.7975,40.32
158,224027,1.58844,-1.089216,-2.863828,-63.665,5.9675,44.2575
159,224123,0.42431599999999997,-0.29524,-2.027152,-99.995,-124.8625,38.045
160,224219,0.442616,0.044896,-1.955904,-91.175,-105.49,37.38
161,224315,0.48873199999999994,0.150304,-1.90198,-56.0875,-108.535,44.1
162,224412,0.7134560999999999,0.061488,-1.9942119999999999,-16.1875,-118.2125,50.155
163,224508,0.8513161,-0.037088,-1.968836,4.7075,-152.11,49.98
164,224604,0.8357,-0.071248,-1.8112119999999998,3.325,-199.675,42.595
165,224700,0.7015,-0.0122,-1.553304,-10.465,-247.275,30.38
166,224797,0.597068,0.087352,-1.337608,-23.9925,-279.5975,17.395
167,224893,0.590968,0.174704,-1.1746159999999999,-28.3325,-296.6075,6.3175
168,224989,0.619516,0.229116,-1.056276,-22.9425,-306.7225,-2.1175
169,225085,0.6441600000000001,0.21667199999999998,-0.9738041,-11.1825,-313.3025,-8.26
170,225182,0.673928,0.14347200000000002,-0.8857200999999999,1.2425,-316.5925,-13.1075
171,225278,0.7241920000000001,0.071492,-0.8422879999999999,7.35,-315.6475,-18.3225
172,225374,0.805688,-0.011224,-0.828624,8.785,-311.43,-23.0125
173,225470,0.9345201,-0.05612,-0.8525360000000001,5.7925,-306.6,-25.1475
174,225567,1.10776,-0.1037,-0.9032879999999999,3.535,-302.75,-23.3625
175,225663,1.233908,-0.183976,-0.9076799999999999,3.29,-304.605,-16.9925
176,225759,1.2334200000000002,-0.27816,-0.8398479999999999,0.4725,-309.1725,-7.9625
177,225855,1.232444,-0.35014,-0.796172,-7.9975,-306.8975,2.1
178,225952,1.35542,-0.379176,-0.8403360000000001,-18.69,-293.9125,15.295
179,226048,1.555012,-0.40577199999999997,-0.9435479999999999,-26.81,-279.5275,33.6175
180,226144,1.765828,-0.41577600000000003,-1.041392,-34.1775,-271.845,53.8825
181,226240,1.991772,-0.365268,-1.1346,-42.735,-269.7625,69.8425
182,226336,2.168184,-0.260836,-1.1468,-49.805,-275.1525,77.8925
183,226433,2.305556,-0.133224,-1.009672,-50.225,-284.3925,78.33
184,226529,2.435852,0.069784,-0.7366361,-43.1725,-290.7625,72.17
185,226625,2.5283279999999997,0.311344,-0.43358800000000003,-26.705,-290.0625,61.6525
186,226721,2.580788,0.20252,0.014884,4.2,-282.975,46.235
187,226818,2.7223080000000004,0.02196,0.370392,22.995,-267.4525,21.2625
188,226914,2.706448,-0.09930800000000001,0.9120720999999999,25.3225,-255.9725,-7.035
189,227010,2.668384,-0.119316,1.4722959999999998,31.08,-236.845,-25.7775
190,227106,2.564196,-0.194224,2.077904,55.3,-207.5675,-27.405
191,227203,2.567612,-0.26352,2.5171040000000002,82.8275,-162.89,-18.3925
192,227299,2.573468,-0.23668000000000003,2.791848,91.8925,-113.8375,-7.4025
193,227395,2.48148,-0.150792,2.87554,80.675,-67.795,-4.7425
194,227491,2.406084,-0.02928,2.739388,56.665,-22.3125,-12.7225
195,227588,2.369728,0.080276,2.419748,37.1175,22.6275,-24.4125
196,227684,2.300188,0.102968,2.019344,34.0025,56.665,-34.2475
197,227780,0.8957241,-1.255624,1.730448,35.49,89.39,-44.6425
198,227876,-1.7692439999999998,0.9982040000000001,-4.263656,-123.795,180.7575,-107.45
199,227973,2.845284,-0.691008,-1.009428,-20.1425,441.385,-102.235
200,228069,3.183712,0.46238,1.7343520000000001,-152.95,380.1175,-62.9125
201,228165,3.003884,0.580232,-0.8359440999999999,-52.85,239.4525,-22.19
202,228261,2.2469959999999998,1.4335,-1.27978,-75.075,271.565,-19.95
203,228358,1.02236,0.510936,-0.9484280999999999,-7.2625,154.0525,-46.8825
204,228454,2.712304,-0.8322841000000001,-2.988756,37.7125,181.9125,-29.085
205,228550,2.9097,-0.718824,1.238056,24.8675,161.9975,-0.2625
206,228646,0.9598959999999999,-0.09613601,-0.44505600000000006,-39.8125,-101.3775,-41.7375
207,228743,0.94916,-0.014152000000000001,-0.86864,-26.2325,-34.2475,-41.3525
208,228839,0.948184,0.035136,-0.689056,-19.7225,5.0575,-27.09
209,228935,0.8903561,-0.023180000000000003,-0.701012,-17.78,-10.36,-20.8425
210,229031,0.8117880000000001,-0.000488,-0.7137001000000001,-11.5325,-5.1275,-13.9475
211,229128,0.812276,-0.056852,-0.6844201,-5.985,-3.955,-8.9425
212,229224,0.781044,-0.10418800000000002,-0.664412,-3.115,-4.1825,-6.7025
213,229320,0.768112,-0.049288,-0.68076,-2.7825,-4.1825,-6.335
214,229416,0.769332,-0.026108,-0.6885680999999999,-0.8925,-3.2725,-4.6725
215,229513,0.7610359999999999,-0.030744,-0.68198,2.3625,-1.4175,-1.5575
216,229609,0.756888,-0.055144000000000006,-0.676612,5.7575,0.4375,1.575
217,229705,0.744688,-0.07417601,-0.670512,8.0675,1.7675,3.745
218,229801,0.7320001,-0.09052401,-0.6756361,9.905,2.7125,5.1975
219,229898,0.721264,-0.11614400000000001,-0.662216,11.0075,2.975,5.4775
220,229994,0.7227279999999999,-0.119804,-0.657824,10.92,2.9225,4.4975
221,230090,0.71858,-0.09345201,-0.6634359999999999,9.9925,2.415,3.1675
222,230186,0.71492,-0.112728,-0.663924,10.4475,2.1525,2.3975
223,230283,0.72712,-0.10809200000000001,-0.6512359999999999,9.94,2.1175,1.435
224,230379,0.74054,-0.10126,-0.6351319999999999,9.24,2.0125,0.4725
225,230475,0.74054,-0.082228,-0.643672,8.4175,1.3475,-0.175
226,230571,0.735416,-0.07881200000000001,-0.644648,8.1725,0.9625,-0.1925
227,230668,0.726876,-0.098576,-0.6405,8.12,1.1725,-0.035
228,230764,0.713212,-0.129564,-0.630984,7.4025,1.995,-0.7875
229,230860,0.7200439999999999,-0.182756,-0.615124,5.81,2.975,-3.535
230,230956,0.7361481,-0.170312,-0.614636,1.05,3.22,-8.5225
231,231053,0.733708,-0.172752,-0.6075600999999999,-2.695,1.8725,-13.3525
232,231149,0.7366361,-0.151036,-0.625616,-6.2825,1.085,-17.4475
233,231245,0.7332201,-0.136884,-0.6456241,-8.575,1.0325,-20.79
234,231341,0.748836,-0.087108,-0.6602640000000001,-10.7275,1.3125,-23.0475
235,231438,0.752008,-0.05929201,-0.6688041,-10.4825,2.6075,-22.9425
236,231534,0.7417600000000001,-0.07686,-0.6663640000000001,-8.295,4.97,-21.525
237,231630,0.743468,-0.09638,-0.669292,-7.6825,8.4875,-21.2275
238,231726,0.748836,-0.101504,-0.66246,-6.5975,12.845,-22.155
239,231822,0.687348,-0.167628,-0.69296,-6.72,18.7775,-25.34
240,231919,0.64294,0.053191999999999996,-0.9264680000000001,-14.4025,29.785,-29.2075
241,232015,0.643672,-0.09638,-0.778116,-2.835,47.04,-29.96
242,232111,0.676612,-0.008784,-0.753228,-8.925,67.9,-33.6875
243,232208,0.686616,0.057339999999999995,-0.7664041,-5.5475,86.7825,-31.815
244,232304,0.6646561,0.053191999999999996,-0.772748,-7.35,104.44,-25.7775
245,232400,0.640256,0.041236,-0.7856801,-9.1525,121.5725,-18.8475
246,232496,0.605364,0.040260000000000004,-0.788852,-13.475,141.2425,-12.775
247,232592,0.571448,0.016592,-0.797392,-14.1925,166.5475,-7.42
248,232689,0.5504641,0.013908000000000002,-0.7986121,-14.1225,195.5975,-3.6925
249,232785,0.646844,0.10540799999999999,-0.8103239999999999,-12.46,225.4525,-0.0875
250,232881,0.405528,0.04148,-0.44164,-9.73,237.0375,7.42
251,232977,0.44066400000000006,-0.023424,-0.293532,-12.7575,298.7075,14.735
252,233074,0.8271601000000001,0.255468,-0.612928,-25.1125,408.345,17.5875
253,233170,2.578836,-0.09223200000000001,-1.1507040000000002,24.78,485.6075,24.71
254,233266,1.44936,-0.07588400000000001,-1.766804,59.675,543.4975,29.225
255,233362,1.8400040000000002,0.167628,-1.4593639999999999,65.8525,570.0974,42.0175
256,233459,1.824876,-0.6795401,-0.8786440999999999,104.9125,573.405,65.24
257,233555,3.1839560000000002,-0.7390760000000001,-0.8874280999999999,65.36251,573.405,39.585
258,233651,4.220224,-0.6095119999999999,-1.6296760000000001,72.8,567.07,10.8675
259,233747,3.418684,-1.012356,-2.9453240000000003,138.25,495.8625,2.0825
260,233844,2.276032,-2.069608,-4.343444,198.135,371.21,5.8975
261,233940,2.72548,-1.943216,-4.296352,78.34751,135.6425,24.4825
262,234036,1.198772,-1.2334200000000002,-2.97802,-75.46,-67.445,8.3825
263,234132,0.080764,-0.44652,-2.1947799999999997,-136.815,-206.7625,-0.035
264,234229,0.341356,0.03904,-2.106696,-119.5425,-155.6275,1.96
265,234325,0.31232,0.113704,-1.8114560000000002,-67.6025,-184.0475,13.8425
266,234421,0.5453399999999999,-0.0122,-1.708732,-13.895,-197.8375,25.2875
267,234517,0.7476161,-0.171776,-1.605032,15.1375,-231.21,29.2075
268,234613,0.8427761,-0.254736,-1.4515559999999998,15.715,-272.3175,26.8975
269,234710,0.8047121,-0.229604,-1.230492,-1.7325,-315.98,20.72
270,234806,0.7439560000000001,-0.16958,-1.035048,-22.9425,-348.39,13.1775
271,234902,0.7327321,-0.074664,-0.8910879999999999,-40.1625,-366.59,6.265
272,234998,0.766892,0.007076001,-0.7998321,-47.81,-375.97,1.9425
273,235095,0.803492,0.07344400000000001,-0.7356600000000001,-45.9375,-380.6775,-0.6825
274,235191,0.826672,0.08417999999999999,-0.686128,-37.2575,-381.955,-2.6425
275,235287,0.834724,0.062952,-0.6602640000000001,-27.1075,-379.96,-4.235
276,235383,0.883768,0.052703999999999994,-0.68198,-18.865,-371.735,-6.9825
277,235480,1.0138200000000002,0.020008,-0.749324,-10.2025,-358.9775,-10.5175
278,235576,1.198528,-0.022448,-0.8244761,-1.1375,-347.1475,-13.405
279,235672,1.2963719999999999,-0.062220000000000004,-0.8430200999999999,8.505,-341.0575,-15.26
280,235768,1.497672,-0.12566,-0.9552601000000001,18.6725,-332.5175,-15.225
281,235865,1.890756,-0.22204000000000002,-1.193892,30.2925,-320.0925,-9.9225
282,235961,2.2311360000000002,-0.38064000000000003,-1.3644479999999999,40.95,-323.1025,2.1175
283,236057,2.44366,-0.509228,-1.37616,43.05,-341.04,15.715
284,236153,2.5988439999999997,-0.585356,-1.2197559999999998,35.4375,-355.6175,29.75
285,236250,2.830644,-0.3538,-0.86498,22.7675,-359.415,46.2
286,236346,2.882128,0.31232,-0.459696,16.0475,-350.07,70.0525
287,236442,3.022916,0.27523200000000003,0.037088,52.6575,-326.865,85.8025
288,236538,3.1766360000000002,-0.172996,0.6258600000000001,68.3725,-290.395,80.3775
289,236635,3.142232,-0.5975560000000001,1.332484,29.3475,-259.21,58.0825
290,236731,2.815272,-0.5206960999999999,2.02886,-37.24,-238.6125,33.32
291,236827,2.742316,-0.087352,2.518568,-67.3225,-200.34,26.5125
292,236923,2.88286,0.14884,2.985096,-24.08,-135.52,42.455
293,237020,2.850652,0.101504,3.5028639999999998,40.355,-88.25251,61.075
294,237116,2.724748,0.006344,3.6426760000000002,56.63,-39.795,62.755
295,237212,2.736216,0.06075601,3.28424,18.0075,21.1575,46.62
296,237308,2.701812,0.342332,2.650084,-37.3625,73.16751,22.8025
297,237404,2.569076,0.552416,1.9832319999999999,-56.7525,103.11,-0.6125
298,237501,0.868396,-0.8327720999999999,-2.1774560000000003,-25.5325,118.3175,-24.815
299,237597,-3.4096559999999996,1.162416,-5.169384,-102.2175,174.8775,-106.925
300,237693,2.3480119999999998,-0.443104,1.2749,-38.57,365.96,-147.2275
301,237789,4.0338080000000005,0.537288,1.849032,-124.005,509.775,-53.9175
302,237886,3.3664680000000002,0.83204,-1.6958,-31.185,295.3125,4.27
303,237982,2.503196,1.626992,-1.126792,-50.5575,254.9925,-20.86
304,238078,1.316868,-0.011224,-1.18706,39.5325,192.2025,-38.955
305,238174,3.588996,-0.8823040000000001,-3.88814,57.3475,185.78,-11.06
306,238271,2.59738,-0.3599,0.658556,5.1625,125.23,9.6425
307,238367,0.6470880999999999,-0.316712,-0.10516400000000001,0.5075,-123.1125,-33.985
308,238463,1.0023520000000001,-0.10858,-0.7168720000000001,-18.76,-10.955,-22.9075
309,238559,0.934276,-0.021716,-0.646112,-10.64,0.385,-16.87
310,238656,0.8549761,-0.09223200000000001,-0.6663640000000001,-8.085,-5.5125,-11.6725
311,238752,0.800808,-0.13054000000000002,-0.6588,-6.335,-2.94,-9.1525
312,238848,0.7822640000000001,-0.13664,-0.65758,-7.7875,-3.3425,-9.8175
313,238944,0.739808,-0.22472399999999998,-0.624152,-7.7875,-4.375,-11.69
314,239041,0.7139439999999999,-0.24790399999999999,-0.620492,-12.2325,-6.0725,-17.4475
315,239137,0.7427361,-0.125416,-0.655628,-19.495,-7.8575,-24.5525
316,239233,0.75274,-0.040260000000000004,-0.69418,-20.545,-8.12,-26.6175
317,239329,0.754204,-0.036112,-0.695156,-16.2225,-7.3675,-23.9575
318,239426,0.73444,-0.07515201,-0.679296,-12.6875,-6.23,-20.79
319,239522,0.7356600000000001,-0.08174001,-0.671488,-10.4475,-5.4075,-19.5825
320,239618,0.754692,-0.094672,-0.6512359999999999,-10.29,-3.885,-19.53
321,239714,0.7378560000000001,-0.122244,-0.647576,-8.715,-4.935,-19.8975
322,239811,0.7439560000000001,-0.053191999999999996,-0.670024,-11.1125,-5.5825,-21.7525
323,239907,0.7361481,-0.049044,-0.677832,-9.5375,-5.4075,-20.8425
324,240003,0.735172,-0.091012,-0.66368,-6.9825,-4.515,-19.0925
325,240099,0.743712,-0.06832001,-0.65514,-7.63,-3.6225,-19.39
326,240196,0.7373681,-0.057339999999999995,-0.661972,-7.8925,-3.2375,-19.7575
327,240292,0.734196,-0.064416,-0.668316,-7.0525,-2.7125,-19.6
328,240388,0.735172,-0.07027201,-0.664168,-6.895,-1.61,-20.0725
329,240484,0.7329760000000001,-0.060267999999999995,-0.665876,-7.4025,-1.015,-21.2625
330,240581,0.7361481,-0.024156,-0.667828,-7.525,-0.35,-21.6825
331,240677,0.7451760000000001,0.0061,-0.669292,-6.2125,1.155,-20.5275
332,240773,0.7449321,0.010004,-0.6673399999999999,-3.8675,2.52,-17.78
333,240869,0.7422481,-0.001464,-0.6675840000000001,-1.75,3.745,-15.155
334,240965,0.7381001,-0.019032,-0.6673399999999999,-0.525,5.2325,-13.4925
335,241062,0.7356600000000001,-0.040260000000000004,-0.660752,0.1225,7.3325,-12.6525
336,241158,0.72712,-0.054655999999999996,-0.669048,0.1225,10.0625,-13.405
337,241254,0.7056479999999999,-0.196664,-0.6470880999999999,-0.1225,14.1925,-15.365
338,241350,0.625372,0.2196,-0.987224,-16.6075,23.31,-18.305
339,241447,0.6414761,-0.18666,-0.69296,-2.59,37.31,-17.9375
340,241543,0.666852,0.029036000000000003,-0.738344,-8.2425,54.11,-24.29
341,241639,0.6851520999999999,0.014884,-0.7415161,-2.415,71.3825,-26.46
342,241735,0.685396,0.026595999999999998,-0.72468,-5.39,87.7975,-25.41
343,241832,0.676124,0.066124,-0.740296,-6.4225,102.375,-22.505
344,241928,0.647332,0.0793,-0.75274,-9.6425,117.46,-17.78
345,242024,0.618052,0.064416,-0.7722600000000001,-13.09,135.9575,-11.935
346,242120,0.565104,0.010004,-0.778116,-15.75,159.4425,-7.945
347,242217,0.55998,0.014884,-0.733708,-18.585,189.56,-6.5625
348,242313,0.8479,0.159576,-0.59292,-22.1725,226.9575,-8.4525
349,242409,0.479704,0.334036,-0.233264,-21.9275,234.9725,-9.8175
350,242505,0.46628400000000003,0.03538,0.12761199999999998,-4.9525,309.995,-0.6125
351,242602,0.85888,0.327448,-0.163236,-26.11,441.6825,-2.345
352,242698,2.943616,0.08100801,-1.283928,9.03,531.65,-0.0875
353,242794,1.6743279999999998,-0.09418401,-2.1533,71.8375,565.74,18.6025
354,242891,1.7080000000000002,0.13761600000000002,-1.909788,94.22,570.885,46.9
355,242987,1.826584,-0.9633120999999999,-1.9102759999999999,139.475,573.3875,70.9275
356,243083,2.61446,-0.8764481,-0.35502,73.5175,573.0375,18.55
357,243179,4.260484,-0.5897479999999999,-1.791936,32.025,572.5825,-36.75
358,243276,4.768492,-1.0584719999999999,-3.315228,100.03,535.395,-13.335
359,243372,2.612508,-2.6217799999999998,-4.806312,188.055,352.6425,25.025
360,243468,2.330932,-2.471232,-4.0740680000000005,63.5425,73.2375,40.8625
361,243564,0.8300879999999999,-1.5128,-3.1583360000000003,-160.8075,-121.73,26.565
362,243660,-0.147376,-0.30378,-2.287988,-214.6725,-231.35,20.545
363,243757,0.30036399999999996,0.200324,-2.211128,-173.5125,-175.1575,29.89
364,243853,0.408456,0.221552,-1.974936,-90.51001,-201.11,53.375
365,243949,0.779824,0.037576,-1.9834759999999998,-19.0225,-229.1625,63.8925
366,244045,1.074576,-0.11345999999999999,-1.8953919999999997,11.3575,-273.9975,62.58
367,244142,1.138016,-0.1403,-1.6445599999999998,6.86,-334.1275,54.3025
368,244238,1.087752,-0.045384,-1.336632,-15.855,-388.045,41.79
369,244334,1.022116,0.11248399999999999,-1.020408,-37.66,-422.9925,26.7575
370,244430,1.019676,0.274012,-0.8256960999999999,-48.7025,-436.905,12.4425
371,244527,1.007232,0.382592,-0.687592,-44.345,-439.1275,1.4875
372,244623,0.9701440999999998,0.404064,-0.5734,-29.12,-434.5425,-5.9675
373,244719,0.9467200000000001,0.41358,-0.518012,-12.9325,-419.0025,-13.0725
374,244815,0.996008,0.389912,-0.532896,2.205,-393.6275,-22.7325
375,244911,1.181448,0.269376,-0.619516,16.5375,-364.525,-34.5275
376,245008,1.469368,0.116632,-0.757376,24.185,-338.66,-44.17
377,245104,1.513776,0.026108,-0.7893399999999999,25.165,-329.7,-48.7725
378,245200,1.6689599999999998,0.012931999999999999,-0.9113399999999999,27.65,-320.0225,-45.6575
379,245296,1.8178,-0.060024,-1.01626,41.37,-311.2725,-32.8125
380,245393,1.962736,-0.172264,-1.0826280000000001,58.6075,-310.205,-14.14
381,245489,2.281644,-0.363804,-1.111664,72.0475,-308.5775,5.145
382,245585,2.512468,-0.5343600000000001,-0.97234,72.975,-315.21,25.4625
383,245681,2.610312,-0.5463161,-0.6602640000000001,58.6425,-324.5725,48.09
384,245778,2.6108,0.034404000000000004,-0.25864000000000004,35.035,-320.6875,74.725
385,245874,2.761348,0.35502,0.031232,38.465,-291.76,102.795
386,245970,2.9768,0.034404000000000004,0.496296,66.3075,-253.5925,109.55
387,246066,3.059272,-0.2745,1.005768,46.2,-227.745,89.95
388,246163,2.8504080000000003,-0.32452,1.618696,-3.7625,-210.98,63.49
389,246259,2.64374,-0.181536,2.154276,-43.365,-189.4375,45.22
390,246355,2.664968,0.043432,2.542724,-44.135,-145.075,38.92
391,246451,2.6532560000000003,0.18251199999999998,2.8857880000000002,-8.505,-102.3925,42.5775
392,246548,2.589816,0.191052,3.100508,31.64,-62.7725,46.2
393,246644,2.496852,0.158356,3.066104,41.79,-16.0475,37.4675
394,246740,2.48148,0.20618000000000003,2.715232,21.6475,32.0075,15.96
395,246836,2.425848,0.252296,2.205516,-0.63,72.06501,-9.1175
396,246933,2.067412,-0.114924,0.629764,-1.5575,92.295,-33.075
397,247029,-3.3542680000000002,0.039284,-2.789164,-42.6825,163.52,-86.695
398,247125,0.730292,-0.998692,-0.262544,-80.6225,297.6575,-166.5825
399,247221,4.125064,-0.26913200000000004,2.489776,-83.1425,526.4174,-47.4775
400,247318,3.999892,0.075396,-0.6602640000000001,-112.7525,351.2775,19.8975
401,247414,3.015596,1.8458599999999998,-1.45668,-85.83751,269.675,38.885
402,247510,1.611864,1.905152,-1.328092,-57.4525,213.2025,-16.73
403,247606,2.546384,-0.611952,-2.724748,46.795,156.205,-31.2025
404,247703,2.7301159999999998,-0.8332601000000001,0.5219159999999999,73.02750999999999,156.7825,19.04
405,247799,1.397144,-0.514108,-0.055144000000000006,-45.605,-71.89,-36.225
406,247895,0.764696,-0.235704,-0.72712,-14.0175,-45.9375,-34.5975
407,247991,0.9974719999999999,-0.13785999999999998,-0.576572,-24.465,-2.8,-36.1375
408,248088,0.8601,-0.096624,-0.659532,-31.045,-14.56,-35.84
409,248184,0.8420440999999999,-0.122,-0.663192,-24.0975,-9.065,-30.0475
410,248280,0.801296,-0.098088,-0.6695361,-23.94,-9.94,-26.8975
411,248376,0.765184,-0.161528,-0.656848,-20.5625,-9.4675,-24.885
412,248472,0.740296,-0.200324,-0.638548,-21.0525,-11.41,-27.0375
413,248569,0.7522521,-0.08759601,-0.668072,-26.04,-12.635,-31.85
414,248665,0.7612800999999999,-0.027572000000000003,-0.6939361,-25.2175,-12.9675,-32.6025
415,248761,0.757864,0.026595999999999998,-0.70516,-21.2625,-11.27,-29.2775
416,248857,0.74054,-0.006587999999999999,-0.702964,-15.715,-9.1,-23.94
417,248954,0.71858,-0.08344800000000001,-0.68076,-10.1325,-6.895,-19.5825
418,249050,0.735416,-0.052703999999999994,-0.6563601,-10.3075,-5.53,-19.6525
419,249146,0.7422481,-0.10492,-0.644648,-8.995,-4.9875,-19.5825
420,249242,0.72956,-0.08369201,-0.6612401,-9.1175,-5.7575,-20.615
421,249339,0.7378560000000001,-0.009028000999999999,-0.687592,-11.1125,-5.7225,-21.8225
422,249435,0.734928,-0.06539201,-0.6749041,-7.8575,-4.8125,-19.7225
423,249531,0.7361481,-0.098576,-0.653432,-6.1425,-3.8325,-19.3025
424,249627,0.7376119999999999,-0.05612,-0.6661201,-9.03,-3.78,-21.7875
425,249723,0.730536,-0.07173600000000001,-0.669292,-8.54,-3.85,-23.0125
426,249820,0.7320001,-0.073688,-0.6695361,-9.2925,-3.3425,-24.64
427,249916,0.7285841,-0.061975999999999996,-0.6709999999999999,-10.465,-3.255,-27.3
428,250012,0.731024,-0.033184,-0.671488,-11.375,-2.345,-29.54
429,250108,0.7266321,-0.020252000000000003,-0.674416,-11.1475,-0.9275,-30.765
430,250205,0.729804,0.000488,-0.6851520999999999,-10.9375,1.12,-31.465
431,250301,0.729072,-0.00488,-0.685884,-9.765,3.2725,-31.535
432,250397,0.734196,0.014152000000000001,-0.6795401,-8.8025,5.425,-31.185
433,250493,0.7373681,0.031964,-0.679784,-8.12,7.8575,-30.6425
434,250590,0.730292,-0.0034159999999999998,-0.68686,-6.5275,10.4825,-28.7875
435,250686,0.6836880999999999,0.127368,-0.708088,-11.62,14.2975,-24.71
436,250782,0.683932,-0.026351999999999997,-0.636352,-12.95,22.295,-20.125
437,250878,0.6707561,0.06880801,-0.7659161,-1.68,35.945,-19.8275
438,250975,0.676856,0.038308,-0.73688,-2.485,50.4,-20.7375
439,251071,0.684908,0.048068,-0.745664,-1.9775,66.92,-18.5675
440,251167,0.676612,0.039284,-0.736392,-3.395,82.705,-16.3625
441,251263,0.675148,0.080764,-0.735416,-6.3175,98.42,-14.6125
442,251359,0.647576,0.081252,-0.748836,-8.4175,113.9075,-11.655
443,251456,0.623908,0.114924,-0.7617681,-13.125,130.9525,-6.79
444,251552,0.5797441,0.062464,-0.768844,-16.065,152.8625,-1.6975
445,251648,0.534848,0.033916,-0.795928,-19.3725,179.76,1.085
446,251744,0.6736840000000001,0.034404000000000004,-0.9001161,-21.7,212.6075,1.3825
447,251841,0.447496,0.133956,-0.49434399999999995,-19.915,212.8175,-1.54
448,251937,0.39894,0.202276,-0.423584,-15.82,257.775,0.525
449,252033,0.5124001,0.014884,-0.26108000000000003,-10.815,365.75,9.6425
450,252129,2.661796,0.189588,-0.55998,-17.4475,455.1925,2.0125
451,252226,0.09320801,-0.004636001,-1.6469999999999998,28.2625,523.775,3.4825
452,252322,1.748748,0.18056,-1.4520440000000001,57.3475,556.7275,17.6225
453,252418,1.928332,-0.242536,-1.430572,84.98,573.37,46.2
454,252514,2.096204,-0.8274040000000001,-0.686616,113.4525,573.02,50.1725
455,252611,3.803228,-0.8720559999999999,-0.8308200000000001,53.2525,572.7575,-10.8675
456,252707,4.538888,-0.576328,-2.807464,51.9225,555.9225,-35.945
457,252803,3.087576,-1.4330120000000002,-3.908148,140.42,404.5825,-24.1325
458,252899,3.081964,-2.609092,-3.8491,172.515,307.1075,4.69
459,252995,2.0234919999999996,-2.249436,-4.438359999999999,-40.6875,-4.0075,19.775
460,253092,0.2928,-0.9450120000000001,-2.460008,-153.23,-193.2,1.47
461,253188,0.10540799999999999,-0.20105599999999998,-2.245532,-184.4675,-192.36,-13.9125
462,253284,0.310856,0.212524,-2.128412,-133.98,-170.625,4.7775
463,253380,0.3599,0.179584,-1.9415080000000002,-51.1,-213.22,19.67
464,253477,0.5858439999999999,0.014884,-1.837564,13.3175,-240.6075,26.7225
465,253573,0.79178,-0.132736,-1.6982400000000002,43.61,-279.72,27.9825
466,253669,0.850584,-0.208864,-1.458388,48.8425,-325.6925,29.645
467,253765,0.782752,-0.238144,-1.16632,37.17,-367.9375,32.305
468,253862,0.7571321,-0.18104800000000001,-0.9357401,16.1525,-390.8625,35.14
469,253958,0.793976,-0.054167999999999994,-0.803736,-4.2175,-397.6,38.57
470,254054,0.8693719999999999,0.07490801,-0.742492,-15.015,-397.3025,43.4
471,254150,0.9006040999999999,0.160796,-0.705404,-15.47,-396.095,48.7375
472,254246,0.913536,0.202764,-0.692228,-11.0775,-392.42,50.82
473,254343,0.978196,0.226188,-0.7449321,-5.88,-381.2725,46.8475
474,254439,1.165832,0.152256,-0.8620521000000001,0.14,-366.0125,37.4675
475,254535,1.438136,0.06661201,-1.010648,4.76,-354.2,27.0025
476,254631,1.72996,0.019764,-1.133624,8.61,-349.7725,20.86
477,254728,1.9171080000000003,-0.00488,-1.17974,16.975,-355.775,19.67
478,254824,2.084736,-0.075396,-1.1599760000000001,29.9075,-360.255,21.2275
479,254920,2.322148,-0.28328400000000004,-1.1094680000000001,43.2075,-360.99,24.325
480,255016,2.579324,-0.503616,-1.006744,45.4825,-358.155,30.45
481,255113,2.769888,-0.5453399999999999,-0.752008,35.945,-353.955,44.4675
482,255209,2.097668,-0.326716,0.346968,24.9025,-338.0475,66.78
483,255305,3.1934720000000003,0.40504,-0.077836,19.0575,-274.645,88.0075
484,255401,4.441044000000001,0.003172,-0.563884,65.905,-196.2625,119.49
485,255497,2.286036,-0.305976,1.36884,64.4875,-328.7375,126.805
486,255594,2.465864,0.07442,1.680916,8.8725,-293.965,78.55751
487,255690,3.114172,0.027572000000000003,1.83732,-16.555,-131.1625,60.41
488,255786,2.70962,0.07002799999999999,2.344352,-19.8975,-175.8925,54.11
489,255882,2.623732,0.205692,2.8548,-8.855,-128.555,48.86
490,255979,2.531012,0.18446400000000002,3.120516,15.365,-83.825,45.43
491,256075,2.6537439999999997,0.14786400000000002,3.052928,26.3725,-22.7675,39.165
492,256171,2.566392,0.227408,2.8552880000000003,16.765,21.2275,28.0175
493,256267,2.449272,0.3294,2.478064,2.695,61.8975,14.7525
494,256363,2.386564,0.394304,1.86904,-3.9725,101.08,-1.575
495,256460,-0.820816,-1.209508,-1.358592,-0.14,129.325,-31.85
496,256556,-2.6266599999999998,0.86498,-4.170936,-144.725,192.7975,-147.245
497,256652,3.026576,-0.36575599999999997,1.259284,-23.2225,436.625,-147.7175
498,256748,3.724904,0.6070720000000001,1.55062,-150.395,458.2725,-78.9425
499,256845,3.069764,0.916952,-1.529392,-34.825,255.71,-43.505
500,256941,2.212592,1.2580639999999998,-0.861808,-64.4,243.32,-61.04
501,257037,1.152656,0.082472,-1.090436,22.4875,175.0,-52.0275
502,257133,3.7388120000000002,-0.9857600000000001,-4.067236,46.2525,197.7675,-18.0425
503,257230,2.519544,-0.376004,0.6729520999999999,-12.9325,99.8375,-5.6
504,257326,0.6058520000000001,-0.048556,-0.244488,-21.245,-124.775,-50.5925
505,257422,0.9945440000000001,-0.11736400000000001,-0.6497721,-21.9275,-12.5475,-34.195
506,257518,0.9623360999999999,0.058072000000000006,-0.67588,-19.0225,-2.3275,-24.535
507,257614,0.8781559999999999,-0.05563200000000001,-0.676856,-10.7275,-11.34,-16.975
508,257711,0.820816,-0.027816000000000004,-0.6895439999999999,-7.8225,-5.635,-11.4975
509,257807,0.8091041,-0.05368,-0.68808,-4.2525,-5.005,-7.5425
510,257903,0.7661600000000001,-0.113704,-0.6600201,-0.0525,-4.2,-4.6025
511,257999,0.754448,-0.13761600000000002,-0.652456,-0.8400001,-3.64,-5.1975
512,258096,0.744688,-0.11394800000000001,-0.648796,-2.5725,-4.3925,-7.105
513,258192,0.739564,-0.051972000000000004,-0.681492,-3.9375,-4.025,-8.05
514,258288,0.743224,-0.053191999999999996,-0.6763680000000001,-1.5925,-2.6425,-6.3
515,258384,0.739808,-0.053924,-0.674172,0.4375,-1.0325,-4.2525
516,258480,0.7378560000000001,-0.087352,-0.655384,2.38,-0.0175,-2.625
517,258577,0.7315119999999999,-0.08857201,-0.659044,3.01,0.4725,-2.45
518,258673,0.733464,-0.08442401,-0.6563601,2.45,0.8225,-2.9925
519,258769,0.740296,-0.101992,-0.641232,2.45,1.4,-3.6225
520,258865,0.7390760000000001,-0.13785999999999998,-0.62464,2.1875,1.4,-4.795
521,258962,0.742004,-0.122732,-0.632204,-0.1225,0.7875,-7.21
522,259058,0.742004,-0.110776,-0.6378159999999999,-1.61,-0.21,-9.1525
523,259154,0.7378560000000001,-0.105896,-0.645868,-2.73,-0.7175,-10.43
524,259250,0.731268,-0.12322000000000001,-0.644892,-3.115,-1.0675,-11.41
525,259347,0.7332201,-0.132492,-0.638548,-4.095,-0.7875,-13.4925
526,259443,0.739808,-0.126636,-0.638304,-6.195,-0.9625,-16.4675
527,259539,0.743224,-0.11224,-0.641232,-8.3475,-1.4525,-19.6
528,259635,0.7390760000000001,-0.11760799999999999,-0.64294,-9.94,-2.31,-22.7675
529,259732,0.743468,-0.0854,-0.649528,-11.585,-3.185,-25.935
530,259828,0.7473721,-0.036844,-0.6653880999999999,-12.775,-3.1325,-27.755
531,259924,0.7451760000000001,-0.030256,-0.6673399999999999,-11.13,-1.4175,-26.6525
532,260020,0.741272,-0.028304000000000003,-0.6912520000000001,-8.4,1.33,-24.6225
533,260116,0.734928,-0.046848,-0.68076,-6.37,5.285,-23.5375
534,260213,0.730536,-0.061975999999999996,-0.674172,-4.6025,10.8325,-23.485
535,260309,0.7320001,-0.085156,-0.676612,-4.165,17.36,-25.48
536,260405,0.631228,0.061488,-0.8322841000000001,-8.1375,24.4125,-27.8775
537,260501,0.6563601,-0.08052000000000001,-0.686372,-6.6675,39.3925,-27.055
538,260598,0.6661201,0.040992,-0.761524,-2.94,61.53,-27.6325
539,260694,0.679784,0.045872,-0.749324,-1.7675,79.6775,-28.245
540,260790,0.675148,0.08857201,-0.750788,-4.62,98.84000999999999,-23.1
541,260886,0.61732,0.056852,-0.8003201,-5.4775,115.6575,-15.3475
542,260983,0.591212,0.03294,-0.827892,-9.6775,136.7275,-9.6775
543,261079,0.5502199999999999,0.009272001,-0.821304,-11.865,162.33,-6.8075
544,261175,0.648308,0.029524,-0.913292,-13.0375,192.64,-6.3
545,261271,0.49288000000000004,0.122244,-0.9413520000000001,-12.075,192.395,-5.425
546,261368,0.15762400000000001,-0.09247601,-0.638304,1.0325,210.8225,-1.365
547,261464,0.375272,0.0549,-0.446276,-8.8725,310.87,3.2375
548,261560,0.8054439999999999,0.160308,-0.64782,6.8075,412.16,-0.6475
549,261656,2.439268,-0.056852,-1.360056,53.795,494.0425,-0.035
550,261753,1.733132,0.450668,-1.8170680000000001,82.95,560.385,6.545
551,261849,1.72508,-0.121024,-1.1263040000000002,118.51,572.2675,44.555
552,261945,1.8243880000000001,-0.597312,-0.966484,150.045,573.405,60.305
553,262041,3.070496,-0.961116,-0.354044,95.8825,573.405,26.425
554,262138,4.309772,-0.5936520000000001,-2.649108,84.84,571.76,5.8975
555,262234,4.884148000000001,-1.7936439999999998,-3.5872879999999996,136.57,421.8725,-10.22
556,262330,2.296528,-2.889936,-5.071296,178.885,350.035,15.715
557,262426,2.219668,-1.9773759999999998,-4.5891519999999995,-31.08,85.085,46.515
558,262523,0.5636399999999999,-0.9384239999999999,-2.7467080000000004,-178.22,-161.4025,28.735
559,262619,-0.153232,-0.056608000000000006,-2.251144,-210.1225,-209.4225,12.2325
560,262715,0.166652,0.381372,-2.088152,-160.895,-175.4375,8.26
561,262811,0.33184,0.40528400000000003,-1.891732,-80.4125,-198.24,14.9975
562,262908,0.601704,0.203008,-1.779736,-5.88,-224.63,17.6925
563,263004,0.833016,-0.022692,-1.6552959999999999,35.7525,-264.1625,13.9825
564,263100,0.9784401,-0.166408,-1.480348,42.49,-309.7675,5.985
565,263196,0.9415959999999999,-0.18788,-1.203652,27.265,-357.175,-1.54
566,263293,0.8703481,-0.17836400000000002,-0.9362280000000001,7.2275,-389.62,-6.0375
567,263389,0.8344801,-0.131028,-0.7473721,-9.87,-402.2725,-6.09
568,263485,0.887184,-0.07808001,-0.66368,-20.09,-400.68,-1.82
569,263581,0.9757561,-0.03782,-0.655384,-22.2775,-394.205,5.9325
570,263678,1.077504,-0.009272001,-0.686616,-19.0925,-387.205,14.8575
571,263774,1.119716,-0.019764,-0.710284,-13.335,-382.4975,22.155
572,263870,1.172664,-0.06466001,-0.769088,-8.8375,-375.83,24.0275
573,263966,1.328824,-0.11541199999999999,-0.8693719999999999,-6.1775,-363.86,19.9325
574,264063,1.5189,-0.12712400000000001,-0.9628241,-2.31,-353.1675,15.0675
575,264159,1.8317080000000001,-0.13298,-1.114104,9.5375,-344.61,14.1575
576,264255,2.112552,-0.26156799999999997,-1.210972,29.68,-344.75,18.06
577,264351,2.44244,-0.501908,-1.255868,46.5675,-349.9825,23.135
578,264448,2.705716,-0.724436,-1.13582,49.175,-358.645,29.715
579,264544,2.859436,-0.8378960999999999,-0.830332,38.8325,-366.205,41.51
580,264640,2.9697240000000003,-0.703696,-0.40528400000000003,22.8725,-361.795,61.8975
581,264736,2.990464,0.221552,-0.037332,9.17,-338.5375,96.1275
582,264832,3.027308,-0.053191999999999996,0.48922,50.8725,-302.4,131.11
583,264929,3.137108,-0.458232,1.0845799999999999,52.4125,-257.32,129.2375
584,265025,2.990708,-0.313296,1.75558,-15.6625,-227.7625,98.98001
585,265121,2.77428,0.08344800000000001,2.369728,-74.62,-203.07,68.8975
586,265217,2.76574,0.5511961,2.91092,-73.8325,-159.4775,48.0375
587,265314,2.8904240000000003,0.66246,3.4189279999999997,-10.43,-105.595,36.925
588,265410,2.745488,0.413336,3.7175839999999996,56.7525,-60.76,31.36
589,265506,2.59616,0.128832,3.476756,67.4625,-16.0825,15.6275
590,265602,2.602016,0.08784,2.87676,26.8625,49.1575,-3.0975
591,265699,2.535404,0.242536,2.159888,-21.1575,89.2325,-21.1225
592,265795,2.49612,0.42285200000000006,1.46766,-38.9025,115.1675,-40.845
593,265891,1.118252,-0.724924,-3.7454,-9.2225,112.77,-67.4275
594,265987,-4.324168,0.0427,-6.025580000000001,-45.535,149.4675,-151.4275
595,266084,1.318576,-0.46603999999999995,1.936384,-73.395,282.205,-218.4
596,266180,3.8839919999999997,0.506544,2.09108,-115.745,510.16,-90.79
597,266276,3.4340559999999996,0.492148,-1.8390279999999999,-34.5975,335.1425,-4.4275
598,266372,2.175992,1.405928,-0.9479401,-55.8775,240.0825,-9.345
599,266469,1.3527360000000002,0.444568,-0.9882001,-7.7875,215.565,-38.955
600,266565,4.145804,-0.9235399999999999,-4.485208,45.185,211.8725,-17.465
601,266661,2.401936,-0.276696,1.088484,-29.3825,112.805,-0.3675
602,266757,0.6649,-0.150304,0.002196,-17.36,-138.565,-53.2175
603,266854,1.026996,-0.048312,-0.7168720000000001,-24.7625,-13.3525,-35.035
604,266950,0.9535521,0.028792,-0.650992,-17.115,-0.28,-22.7325
605,267046,0.8945040000000001,-0.05977999999999999,-0.6912520000000001,-11.6725,-9.94,-14.665
606,267142,0.8174001000000001,-0.06075601,-0.686616,-7.9275,-5.005,-9.1525
607,267238,0.80886,-0.043188,-0.696132,-4.9175,-4.2525,-5.4075
608,267335,0.759328,-0.114436,-0.669048,1.225,-3.3075,-1.645
609,267431,0.75274,-0.133956,-0.658068,1.2425,-2.4675,-1.575
610,267527,0.741272,-0.13785999999999998,-0.648552,0.1925,-2.7125,-3.325
611,267623,0.743468,-0.09979600000000001,-0.661728,-1.0325,-2.8,-4.9175
612,267720,0.7517640999999999,-0.048556,-0.677832,-0.77,-2.2225,-4.8475
613,267816,0.753472,-0.056608000000000006,-0.671488,1.5925,-0.805,-2.4675
614,267912,0.740296,-0.095648,-0.663192,5.2325,0.49,-0.035
615,268008,0.733952,-0.090768,-0.664168,4.62,1.4525,0.2625
616,268105,0.73932,-0.10345599999999999,-0.6512359999999999,5.3725,2.485,0.1925
617,268201,0.7415161,-0.128588,-0.6380600000000001,5.635,2.9575,-0.42
618,268297,0.7439560000000001,-0.13078399999999998,-0.6326921,4.305,2.6425,-1.925
619,268394,0.7439560000000001,-0.122,-0.639768,3.2025,1.9775,-3.5
620,268490,0.74298,-0.125416,-0.641964,2.415,1.5575,-4.6725
621,268586,0.7417600000000001,-0.130296,-0.6414761,1.6275,1.33,-5.845
622,268682,0.7361481,-0.139568,-0.635864,0.7525,0.7875,-7.4025
623,268778,0.7366361,-0.142008,-0.6344,-0.5425,0.42,-9.31
624,268875,0.741272,-0.13785999999999998,-0.630984,-1.925,0.07,-11.725
625,268971,0.7427361,-0.12980799999999998,-0.634156,-3.9025,-0.2625,-14.3325
626,269067,0.7422481,-0.123464,-0.640256,-5.355,-0.91,-16.6775
627,269163,0.7451760000000001,-0.127368,-0.633668,-6.405,-1.5925,-18.935
628,269260,0.744688,-0.115656,-0.6409881,-7.9625,-2.66,-21.5075
629,269356,0.7515201,-0.07515201,-0.6502600000000001,-9.1175,-3.185,-23.2225
630,269452,0.7483479999999999,-0.058072000000000006,-0.6605081,-8.5575,-2.765,-22.855
631,269548,0.7407841,-0.06588,-0.662704,-6.615,-0.525,-21.525
632,269645,0.7415161,-0.07344400000000001,-0.662704,-5.215,2.9575,-20.93
633,269741,0.7473721,-0.072712,-0.66246,-4.095,7.49,-20.895
634,269837,0.740052,-0.07076001,-0.680028,-3.465,12.3725,-21.3325
635,269933,0.752008,0.01464,-0.7076001000000001,-2.7825,17.9725,-22.12
636,270030,0.5838920999999999,-0.195932,-0.763232,4.48,24.465,-23.205
637,270126,0.707112,0.016347999999999998,-0.744444,-4.7775,45.36,-25.2
638,270222,0.666852,0.010492,-0.7673800000000001,1.5575,64.9425,-23.59
639,270318,0.6836880999999999,0.053924,-0.755912,-1.295,82.9325,-20.2125
640,270415,0.638792,0.049288,-0.8066641,-1.015,102.7425,-13.125
641,270511,0.5968241,-0.001464,-0.8164239999999999,-2.8875,122.955,-5.5475
642,270607,0.570472,-0.004392,-0.840824,-4.795,149.3275,-0.9275
643,270703,0.646112,0.010004,-0.899384,-3.7275,176.89,1.5225
644,270799,0.5948720000000001,0.14518,-0.9015799999999999,-2.485,179.3575,4.445
645,270896,0.2135,-0.063928,-0.877668,11.2175,187.5475,8.3825
646,270992,0.34404,-0.032695999999999996,-0.482876,5.0925,264.6875,17.92
647,271088,0.46896800000000005,0.182756,-0.48824399999999996,8.47,364.9275,22.3475
648,271184,2.8726119999999997,0.002928,-0.8230120999999999,46.8125,450.2225,28.98
649,271281,0.546804,0.33061999999999997,-1.9822560000000002,98.7175,522.2,38.0975
650,271377,1.307352,0.3355,-1.184132,125.965,569.3275,69.2825
651,271473,1.9178400000000002,-0.5124001,-0.8647360000000001,160.125,573.405,96.4425
652,271569,1.8931959999999999,-0.58194,-0.7015,116.9525,573.405,66.78
653,271666,3.5624,-0.6675840000000001,-1.3205280000000001,92.365,573.405,60.7075
654,271762,4.655764,-1.1150799999999998,-3.0392639999999997,126.3325,499.3275,66.2725
655,271858,2.17282,-1.7702200000000001,-3.781512,157.15,316.61,27.335
656,271954,2.2814,-1.154852,-3.5370239999999997,69.6325,237.4925,-23.7125
657,272051,1.198284,-1.10166,-3.9506040000000002,-81.305,-66.8325,-55.8775
658,272147,0.180804,-0.32452,-2.3894919999999997,-113.82,-207.3575,-76.0375
659,272243,-0.050752,-0.29792399999999997,-2.001288,-105.1925,-211.05,-95.1125
660,272340,0.16104000000000002,-0.23253200000000002,-1.764852,-76.44001,-196.49,-80.99
661,272436,0.48263199999999995,-0.28767600000000004,-1.741428,-37.835,-212.5725,-62.9475
662,272532,0.7820199999999999,-0.388936,-1.719468,-5.88,-238.9275,-42.245
663,272628,0.9054840000000001,-0.47506800000000005,-1.581608,7.84,-285.145,-24.045
664,272725,0.9103641,-0.43724799999999997,-1.357616,1.155,-332.4825,-10.2375
665,272821,0.877912,-0.326716,-1.094584,-13.8775,-368.97,-0.4025
666,272917,0.8403360000000001,-0.199104,-0.873764,-27.335,-390.0575,7.3325
667,273013,0.844972,-0.049288,-0.731268,-35.4375,-397.32,12.845
668,273109,0.903532,0.08662001,-0.68808,-35.105,-393.1375,16.17
669,273206,0.9476959999999999,0.157868,-0.676124,-25.585,-386.645,18.0075
670,273302,1.0199200000000002,0.18446400000000002,-0.7178479999999999,-12.6525,-378.21,15.9425
671,273398,1.14802,0.141764,-0.8047121,0.1575,-366.7475,8.575
672,273494,1.358592,0.049044,-0.9203680000000001,9.8875,-355.4425,-2.45
673,273591,1.571848,-0.032695999999999996,-0.961116,16.345,-348.2675,-11.9875
674,273687,1.7550919999999999,-0.046116000000000004,-0.993812,24.29,-346.745,-15.6625
675,273783,1.99958,-0.09882,-1.02846,38.815,-341.04,-12.9325
676,273879,2.175016,-0.23668000000000003,-1.036024,56.42,-340.865,-5.915
677,273976,2.410964,-0.42212,-1.040416,66.4825,-339.22,3.2025
678,274072,2.630808,-0.5885281,-0.908168,64.7325,-339.465,14.8925
679,274168,2.7772080000000003,-0.677588,-0.621468,53.1825,-339.535,28.9975
680,274264,2.8740759999999996,-0.24326799999999998,-0.189588,36.96,-331.94,47.6875
681,274361,2.8355240000000004,0.22667600000000002,0.219112,40.635,-307.8425,75.8975
682,274457,2.909456,0.013663999999999999,0.655628,83.195,-271.0575,89.53
683,274553,2.908236,-0.019275999999999998,1.078724,78.0325,-239.4,76.0725
684,274649,2.744024,0.046848,1.58722,52.815,-213.325,59.5175
685,274746,2.544432,0.06075601,2.123288,33.005,-184.9575,46.06
686,274842,2.545652,0.179096,2.492948,20.51,-145.2325,30.9925
687,274938,2.582984,0.29987600000000003,2.780624,24.71,-101.57,21.2975
688,275034,2.4212119999999997,0.354044,2.976068,38.71,-67.9175,14.4725
689,275131,2.3058,0.306952,2.8355240000000004,46.725,-24.71,3.99
690,275227,2.2955520000000003,0.214232,2.4104759999999996,39.1125,28.5425,-7.385
691,275323,2.227476,0.201544,1.88002,18.34,64.155,-20.3175
692,275419,2.158668,0.254004,1.3327280000000001,-0.1575,90.21251,-35.7875
693,275516,0.68808,-0.07881200000000001,-0.47702,-2.6075,100.065,-52.7625
694,275612,-3.557032,-1.170468,-3.9323040000000002,1.645,124.3025,-98.0525
695,275708,-1.101904,-0.359412,-0.015616,-139.265,171.465,-225.82
696,275804,3.5482480000000005,0.420412,2.249192,-85.83751,480.5325,-158.9875
697,275900,4.036980000000001,0.296948,-0.115656,-113.085,427.245,-54.1275
698,275997,2.256024,0.5997520000000001,-0.539484,-39.6375,201.7925,-9.9925
699,276093,1.8524479999999999,0.820572,-0.6649,-84.7875,233.66,-41.8775
700,276189,1.730936,0.049044,-2.004216,-13.8425,201.32,-23.1875
701,276285,3.048048,-0.6463561,-0.027327999999999998,13.6675,187.7925,-3.3775
702,276382,1.7326439999999999,0.050263999999999996,-0.7166279999999999,-49.7875,-46.5325,-36.75
703,276478,0.798856,0.062220000000000004,-0.8601,-20.0375,-55.685,-36.5925
704,276574,1.063352,-0.043432,-0.627568,-11.865,11.41,-19.88
705,276670,0.8935280999999999,-0.019764,-0.682956,-12.7575,-7.3675,-11.55
706,276767,0.8364321,-0.06563601,-0.680516,-3.5,-1.9425,-4.27
707,276863,0.805688,-0.007076001,-0.7005239999999999,-2.66,-2.17,-0.14
708,276959,0.7639640999999999,-0.06880801,-0.683932,5.1275,-0.9625,5.7225
709,277055,0.7390760000000001,-0.190564,-0.649284,9.2925,-0.6825,8.4
710,277152,0.740296,-0.194956,-0.6317159999999999,6.93,-0.14,5.005
711,277248,0.757864,-0.099552,-0.6517241,2.0825,-0.8925,0.4025
712,277344,0.754692,-0.061732,-0.663924,2.5025,-1.3825,0.595
713,277440,0.7417600000000001,-0.11712,-0.659288,6.3875,-0.6125,2.8525
714,277537,0.752008,-0.05612,-0.666852,5.705,0.7,3.5
715,277633,0.7427361,-0.10736,-0.658312,8.5925,2.5025,5.565
716,277729,0.7422481,-0.156648,-0.644892,10.4825,4.7075,6.2125
717,277825,0.757376,-0.127856,-0.6283,7.6475,5.53,4.2875
718,277921,0.7510321,-0.150792,-0.633668,8.05,5.6175,3.8675
719,278018,0.7515201,-0.130052,-0.6422081000000001,6.6675,5.32,3.01
720,278114,0.754448,-0.125172,-0.64172,5.8975,5.565,2.415
721,278210,0.756888,-0.13151600000000002,-0.640744,6.02,5.985,2.7125
722,278306,0.7478600000000001,-0.146644,-0.640744,5.95,6.1775,2.6775
723,278403,0.7478600000000001,-0.162748,-0.62952,5.4075,6.16,1.785
724,278499,0.7449321,-0.17128800000000002,-0.6292760000000001,4.305,5.95,0.0175
725,278595,0.7468840999999999,-0.17616800000000002,-0.623908,2.5375,5.1975,-2.6075
726,278691,0.749812,-0.175924,-0.621712,0.6125,4.1475,-5.8625
727,278787,0.754204,-0.16128399999999998,-0.62098,-1.0675,3.0275,-8.785
728,278884,0.757376,-0.146156,-0.6182960999999999,-2.38,1.8025,-10.8325
729,278980,0.758108,-0.134688,-0.62952,-3.185,0.77,-12.0575
730,279076,0.758108,-0.129076,-0.636108,-3.6925,-0.21,-12.95
731,279172,0.7551800000000001,-0.13908,-0.626104,-4.3575,-1.0325,-14.0175
732,279269,0.7539600000000001,-0.153232,-0.6222,-5.25,-1.8725,-15.82
733,279365,0.756644,-0.157868,-0.61854,-6.51,-2.73,-18.3925
734,279461,0.7551800000000001,-0.130052,-0.6390359999999999,-7.7175,-2.7825,-20.9475
735,279557,0.749324,-0.13542,-0.6456241,-7.875,-1.0325,-22.3825
736,279653,0.748104,-0.115656,-0.6502600000000001,-7.9975,1.4875,-24.08
737,279750,0.756888,0.011712,-0.715896,-8.1375,5.355,-25.0075
738,279846,0.641964,-0.229116,-0.670024,2.3275,9.345,-24.3425
739,279942,0.7373681,-0.052216,-0.7041841,-9.59,24.4825,-27.4925
740,280038,0.7076001000000001,-0.031476,-0.7241920000000001,-1.4175,35.8575,-26.425
741,280135,0.7156520000000001,-0.033916,-0.7041841,-3.78,48.9125,-24.8325
742,280231,0.6844201,-0.030012,-0.739564,-2.5725,61.11,-21.665
743,280327,0.654408,-0.07076001,-0.7422481,-2.59,76.5275,-19.04
744,280423,0.620736,-0.101992,-0.7625,-4.0425,94.65751,-19.6
745,280520,0.61488,-0.08637601,-0.758596,-5.775,114.7825,-24.0975
746,280616,0.683932,-0.021228,-0.9254921,-7.2625,132.055,-29.4
747,280712,0.5099600000000001,-0.166652,-0.9208561,-4.5675,129.7275,-32.0775
748,280808,0.349164,-0.05002,-0.809348,-8.8025,162.365,-42.49
749,280904,0.320616,0.06539201,-0.767868,7.6125,212.625,-56.1925
750,281001,0.471408,-0.034648000000000005,-0.793488,53.0075,295.365,-69.16
751,281097,0.9708760000000001,-0.25376,-1.0316319999999999,89.705,375.97,-84.84
752,281193,2.071804,-0.12932000000000002,-1.062132,103.005,421.5225,-96.25
753,281289,1.551352,0.334768,-1.0943399999999999,109.6025,467.6175,-97.1775
754,281386,2.061556,0.059048,-1.286856,160.6675,516.8975,-71.71500999999999
755,281482,2.587376,-0.5543680000000001,-1.968836,200.8125,542.9025,-47.775
756,281578,4.068455999999999,-0.40138,-3.6321839999999996,220.675,414.8375,-46.235
757,281674,1.41642,-0.6258600000000001,-3.247884,248.22,147.4725,-97.685
758,281771,-0.14396,-0.85156,-3.029016,229.6875,95.9,-157.7975
759,281867,0.62464,-1.051152,-2.547848,167.7025,60.1125,-151.305
760,281963,0.31012399999999996,-1.2153639999999999,-2.100596,135.1,-30.835,-119.2275
761,282059,0.17568,-1.2500120000000001,-1.8717240000000002,112.6125,-67.795,-68.5125
762,282156,0.387716,-0.972828,-1.9041759999999999,84.8925,-80.01,-20.5275
763,282252,0.29597199999999996,-0.5997520000000001,-1.726056,68.285,-121.765,26.2325
764,282348,0.267912,-0.16226,-1.5847799999999999,62.8775,-151.935,65.0825
765,282444,0.25254,0.25790799999999997,-1.4217879999999998,69.86,-176.155,89.915
766,282540,0.313784,0.6451359999999999,-1.315648,84.245,-194.285,97.00251
767,282637,0.438224,0.9274440999999999,-1.262944,104.615,-209.0725,89.285
768,282733,0.558272,1.104832,-1.222684,128.0825,-224.7525,72.415
769,282829,0.68808,1.1934040000000001,-1.1714440000000002,151.9875,-240.3275,51.135
770,282925,0.7793359999999999,1.158024,-1.10166,174.2825,-255.0625,31.4825
771,283022,0.8493641,1.083604,-1.039928,186.515,-266.0,15.1025
772,283118,0.9289081,1.038952,-1.010648,188.7025,-272.825,2.5025
773,283214,1.017724,1.064816,-0.9757561,184.4325,-275.2925,-5.88
774,283310,1.085068,1.072624,-0.9052401,181.3875,-275.9575,-11.3575
775,283406,1.112396,1.009916,-0.792024,180.5125,-273.6475,-15.3825
776,283503,1.08336,0.9191481,-0.7005239999999999,178.8675,-266.2275,-17.395
777,283599,1.181448,0.8249639999999999,-0.7417600000000001,173.7225,-248.675,-15.155
778,283695,1.384944,0.7324881,-0.887916,167.8075,-230.3875,-7.7175
779,283791,1.525244,0.762744,-0.9969841,157.7975,-223.615,0.4725
780,283888,1.59454,0.887184,-0.999668,147.5775,-227.99,3.3775
781,283984,1.617476,1.089704,-0.915732,142.5025,-233.1,-0.735
782,284080,1.672864,1.334436,-0.7849480999999999,145.18,-233.765,-12.285
783,284176,1.7585080000000002,1.544764,-0.5941401,158.1475,-229.215,-29.9775
784,284272,1.84952,1.634312,-0.284992,177.59,-222.18,-51.2925
785,284369,1.978596,1.61894,0.023424,193.1825,-208.915,-74.5325
786,284465,2.178188,1.514508,0.27571999999999997,200.235,-190.155,-100.205
787,284561,2.234552,1.342976,0.638792,202.685,-174.685,-125.09
788,284657,2.180384,1.033828,1.093608,207.445,-159.145,-141.7675
789,284754,2.159888,0.6856399999999999,1.473028,209.3175,-128.3275,-143.57
790,284850,2.145492,0.391376,1.735816,203.91,-90.44001,-128.24
791,284946,2.096692,0.138836,1.870016,187.6175,-53.6725,-98.9275
792,285042,1.979328,0.011224,1.896368,153.3,-18.7775,-64.33
793,285139,1.825852,0.054167999999999994,1.826828,107.2575,13.93,-26.2675
794,285235,1.6555400000000002,0.213988,1.678232,61.2675,46.5325,11.9
795,285331,1.552084,0.389912,1.4252040000000001,23.4325,77.245,45.395
796,285427,0.23301999999999998,-1.23586,2.107184,-24.2375,133.9275,52.01
797,285524,0.454084,-0.9230520000000001,-2.492216,-133.455,210.7,-26.9675
798,285620,3.4077040000000003,-0.038796,-0.8388721,-80.99,400.26,-82.9675
799,285716,3.89302,0.665876,-0.123464,-247.03,210.84,-151.9175
800,285812,2.5283279999999997,0.332328,-0.84424,-188.7725,58.905,-75.775
801,285908,0.7283400999999999,-0.20008,-0.8115439999999999,-169.645,1.3475,-24.5175
802,286005,0.936716,0.640256,-1.145092,-161.77,37.0475,43.3825
803,286101,1.114104,1.425936,-0.684664,-145.5125,40.53,56.6825
804,286197,1.294176,1.175836,-0.58072,-83.0375,12.915,16.66
805,286293,0.912316,-0.002684,-0.606096,-19.4075,-4.305,-12.74
806,286390,0.8344801,-0.148352,-0.6785640000000001,-12.1275,-8.4525,-18.795
807,286486,0.8357,0.014396,-0.651968,-20.3175,-3.9025,-17.4825
808,286582,0.8427761,-0.0122,-0.640744,-11.8475,-2.975,-11.9
809,286678,0.8176439999999999,-0.048068,-0.632204,-4.62,-3.5175,-7.9625
810,286775,0.8003201,-0.011712,-0.644892,-2.5725,-2.31,-5.04
811,286871,0.7954399999999999,-0.07710399999999999,-0.631228,3.2375,-1.0325,-0.63
812,286967,0.782508,-0.11345999999999999,-0.616588,5.8625,0.2625,1.7675
813,287063,0.778604,-0.111996,-0.6319600000000001,7.42,1.575,2.52
814,287159,0.7812880999999999,-0.09125599999999999,-0.6380600000000001,7.4375,2.625,2.73
815,287256,0.7829961,-0.081496,-0.631228,8.715,4.1475,4.27
816,287352,0.7793359999999999,-0.11834000000000001,-0.6231760999999999,10.71,5.32,6.335
817,287448,0.783728,-0.149816,-0.611952,10.6925,6.475,7.245
818,287544,0.784216,-0.15128,-0.609024,9.17,7.3325,6.9475
819,287641,0.777628,-0.15176800000000001,-0.61366,7.98,7.7,6.09
820,287737,0.780068,-0.15006,-0.619028,7.4375,8.785,5.3025
821,287833,0.775188,-0.163724,-0.612684,6.9475,10.15,4.6025
822,287929,0.7661600000000001,-0.17568,-0.620004,6.7375,11.865,3.675
823,288026,0.7761640999999999,-0.16958,-0.6317159999999999,5.915,13.37,1.8725
824,288122,0.755424,0.027327999999999998,-0.6351319999999999,5.495,14.4025,0.1225
825,288218,0.759084,-0.424804,-0.42626800000000004,26.985,16.59,-3.185
826,288314,0.778604,-0.13761600000000002,-0.591212,22.575,19.2675,-9.9925
827,288410,0.732244,-0.07173600000000001,-0.74542,34.5975,16.17,-12.495
828,288507,0.683932,-0.20008,-0.69906,58.905,14.6825,-20.405
829,288603,0.630984,-0.327448,-0.7324881,81.46251,14.3325,-36.6975
830,288699,0.665876,-0.216428,-0.716384,99.9075,17.115,-60.8475
831,288795,0.6612401,-0.272548,-0.647332,114.9925,24.675,-82.005
832,288892,0.7329760000000001,-0.27279200000000003,-0.649284,145.3375,26.5125,-100.1525
833,288988,0.756644,-0.233508,-0.596092,164.045,22.19,-118.23
834,289084,0.8052,-0.24424400000000002,-0.529724,182.07,17.4825,-132.79
835,289180,0.8581479999999999,-0.203496,-0.47506800000000005,190.4875,12.6175,-142.415
836,289277,0.8701040000000001,-0.180316,-0.435784,191.0475,9.3275,-147.2275
837,289373,0.9028,-0.153476,-0.407968,183.085,7.42,-146.37
838,289469,0.91622,-0.105652,-0.40504,169.75,7.3325,-140.91
839,289565,0.9357401,-0.064416,-0.41968,154.6475,5.635,-131.0575
840,289661,0.9057280999999999,-0.063928,-0.43236800000000003,139.7025,3.955,-119.28
841,289758,0.9010921000000001,-0.070516,-0.45432799999999995,121.38,2.94,-107.73
842,289854,0.8796200000000001,-0.06832001,-0.48726800000000003,103.7225,3.9375,-96.8975
843,289950,0.850096,-0.07832401,-0.50874,87.57,6.195,-88.44501
844,290046,0.83814,-0.07856801,-0.5353359999999999,72.3625,10.4125,-82.4425
845,290143,0.82594,-0.081984,-0.5458281,61.4425,15.4525,-78.0325
846,290239,0.8174001000000001,-0.07417601,-0.557052,55.1775,22.33,-75.5475
847,290335,0.7893399999999999,-0.095648,-0.558272,55.9825,29.645,-74.5325
848,290431,0.7834840000000001,-0.06954,-0.565836,60.4275,40.5475,-76.4925
849,290528,0.778116,-0.0122,-0.5631520000000001,72.31,53.165,-80.395
850,290624,0.735904,0.022203999999999998,-0.602436,94.255,69.965,-83.3875
851,290720,0.669292,-0.035136,-0.696864,121.24,96.005,-85.19
852,290816,0.657824,-0.124196,-0.6856399999999999,139.475,132.4575,-88.62
853,290913,0.7766521,-0.070516,-0.686128,153.3175,172.025,-95.235
854,291009,0.9867360999999999,-0.09589201,-0.7707961,185.92,207.655,-97.405
855,291105,1.22732,-0.040260000000000004,-0.773968,213.9025,239.5925,-91.8225
856,291201,1.077992,0.053436000000000004,-0.809836,239.89,283.605,-84.665
857,291298,1.197308,0.193004,-0.815204,252.84,323.33,-75.0925
858,291394,1.468636,-0.003172,-0.91012,270.165,353.815,-57.8375
859,291490,1.61894,-0.447984,-0.801784,282.3975,368.97,-41.4925
860,291586,1.7570439999999998,-0.167628,-1.276608,277.0775,404.845,-3.15
861,291683,2.90726,-0.85034,-1.976156,302.435,332.01,16.8
862,291779,1.916132,-1.311256,-2.33996,304.185,160.79,11.0775
863,291875,0.772992,-1.4905959999999998,-2.126704,227.92,67.795,-13.0725
864,291971,0.39918400000000004,-1.117276,-2.429264,139.58,82.32,10.9025
865,292068,0.83814,-0.5675439999999999,-2.203564,74.235,33.3375,50.9425
866,292164,0.6753920999999999,-0.197152,-2.1447599999999998,62.86,-71.7675,83.5625
867,292260,0.601216,0.09540401,-1.9764,74.25251,-108.15,107.555
868,292356,0.730292,0.4087,-1.8817279999999998,84.56,-144.13,113.26
869,292453,0.759572,0.719312,-1.7275200000000002,94.0625,-181.195,108.9025
870,292549,0.7707961,1.00894,-1.559404,109.1475,-217.98,96.42501
871,292645,0.798856,1.1951120000000002,-1.402024,129.85,-245.91,78.0675
872,292741,0.8461921,1.272704,-1.24074,152.1975,-268.52,55.825
873,292838,0.8493641,1.2700200000000001,-1.07482,168.9975,-286.3875,31.535
874,292934,0.8605879999999999,1.251232,-0.9391560999999999,176.9775,-296.275,8.1375
875,293030,0.906216,1.2383,-0.8552200000000001,177.205,-296.1525,-11.585
876,293126,0.97234,1.240008,-0.8164239999999999,172.2,-291.9875,-27.685
877,293222,1.047736,1.276852,-0.7956840999999999,164.4825,-286.265,-42.1575
878,293319,1.118496,1.3327280000000001,-0.771528,157.7625,-281.3825,-56.56
879,293415,1.192184,1.348832,-0.7510321,156.17,-276.7275,-71.5225
880,293511,1.249036,1.2963719999999999,-0.712236,157.1675,-272.2475,-87.185
881,293607,1.2944200000000001,1.191208,-0.682956,156.4675,-267.1025,-102.9175
882,293704,1.3588360000000002,1.05408,-0.677832,151.8825,-260.645,-116.165
883,293800,1.434232,0.8876719999999999,-0.686616,144.2875,-254.205,-124.005
884,293896,1.478884,0.718824,-0.6722199999999999,133.84,-249.8825,-124.88
885,293992,1.485228,0.560956,-0.6258600000000001,121.52,-247.5375,-118.2125
886,294089,1.460584,0.45432799999999995,-0.558028,108.3775,-243.46,-105.2275
887,294185,1.459608,0.378444,-0.513864,95.07751,-235.8475,-89.4075
888,294281,1.5098719999999999,0.39771999999999996,-0.510204,82.985,-225.2075,-74.585
889,294377,1.60552,0.418704,-0.475312,77.6475,-215.81,-63.1225
890,294474,1.658468,0.41260399999999997,-0.36575599999999997,78.295,-210.8225,-56.91
891,294570,1.667252,0.43798000000000004,-0.1952,79.5725,-205.905,-54.74
892,294666,1.6836,0.480436,-0.011956,84.455,-195.8425,-53.8125
893,294762,1.749724,0.48873199999999994,0.19885999999999998,93.9225,-180.635,-54.1975
894,294859,1.893684,0.471408,0.40504,102.9175,-162.085,-57.47
895,294955,1.977132,0.47458,0.679296,105.5075,-146.9475,-67.025
896,295051,1.9942119999999999,0.5016641,0.9869800999999999,104.9475,-132.9125,-83.0375
897,295147,2.019832,0.434808,1.2695319999999999,107.38,-111.965,-98.8575
898,295244,2.085224,0.300852,1.456436,109.445,-84.6475,-109.0425
899,295340,2.096448,0.17055599999999999,1.59454,105.56,-58.17,-110.95
900,295436,2.0173919999999996,0.135176,1.6879919999999997,96.145,-33.6875,-103.845
901,295532,1.911984,0.15494000000000002,1.695556,84.10501,-6.09,-87.1325
902,295629,1.78608,0.248392,1.592588,68.705,21.1575,-65.6775
903,295725,1.0121120000000001,0.76372,1.173884,46.935,42.07,-46.4975
904,295821,-0.698816,-0.9557479999999999,-0.39113200000000004,53.095,71.92501,-48.475
905,295917,0.387228,-1.772172,-3.9501160000000004,19.11,131.1625,-115.4825
906,296014,2.21064,-0.014396,-0.209352,-35.28,268.9225,-187.6875
907,296110,0.828624,-0.155672,0.429928,-78.6975,57.47,-138.775
908,296206,2.575176,0.471896,-1.723616,-16.3975,171.8325,-68.6875
909,296302,1.1794959999999999,0.043676,-0.7639640999999999,-19.4425,143.815,-48.9125
910,296398,0.36136399999999996,-0.108824,-0.40381999999999996,-11.865,32.8125,-45.29
911,296495,2.6071400000000002,-0.5504641,-2.3799759999999996,-5.075,150.4825,-26.4425
912,296591,1.399096,0.133712,-0.077592,-36.6275,58.5375,-36.7325
913,296687,0.8791321,0.111996,-0.6466,-33.5125,-42.56,-43.4875
914,296783,0.9823440999999999,-0.000732,-0.7141881,-20.825,18.6725,-34.3875
915,296880,0.9586761,0.049532,-0.69784,-9.905,-7.21,-29.12
916,296976,0.8652241,-0.035868000000000004,-0.662948,-5.3025,-3.605,-21.7175
917,297072,0.8398479999999999,-0.057339999999999995,-0.6722199999999999,-2.0475,-6.4925,-17.29
918,297168,0.8132520999999999,-0.037332,-0.666608,-1.54,-6.1075,-14.0175
919,297265,0.8020281,-0.019275999999999998,-0.6844201,1.435,-5.1625,-9.8525
920,297361,0.7869,-0.01952,-0.6795401,4.865,-3.36,-4.62
921,297457,0.768112,-0.02684,-0.671488,8.715,-1.085,0.63
922,297553,0.762012,-0.046848,-0.67466,11.6725,0.49,4.62
923,297650,0.765428,-0.06588,-0.671244,14.2275,1.925,7.63
924,297746,0.7517640999999999,-0.098088,-0.654408,16.8175,2.765,9.7125
925,297842,0.7564001,-0.11321600000000001,-0.658068,17.815,3.08,10.255
926,297938,0.752984,-0.11760799999999999,-0.6512359999999999,18.0075,2.9225,9.9925
927,298035,0.74298,-0.12932000000000002,-0.6375721,17.9375,2.5375,9.66
928,298131,0.748104,-0.13151600000000002,-0.633668,16.975,2.31,8.8725
929,298227,0.7451760000000001,-0.154452,-0.621712,15.8725,2.1,7.84
930,298323,0.7417600000000001,-0.146156,-0.6231760999999999,13.7725,1.89,6.335
931,298420,0.735904,-0.141032,-0.6292760000000001,11.655,1.9075,5.0225
932,298516,0.735416,-0.13785999999999998,-0.6273241,10.0625,2.0475,3.955
933,298612,0.7451760000000001,-0.13664,-0.626104,8.68,2.1175,3.0625
934,298708,0.7468840999999999,-0.1342,-0.618052,7.7175,2.0125,2.24
935,298804,0.7373681,-0.140544,-0.62098,6.4225,1.435,1.26
936,298901,0.7361481,-0.16201600000000002,-0.6107319999999999,4.6025,1.1725,-0.245
937,298997,0.742004,-0.150792,-0.6131721,2.38,0.5425,-2.45
938,299093,0.733708,-0.14713199999999999,-0.6231760999999999,0.3325,0.735,-4.69
939,299189,0.7329760000000001,-0.158112,-0.6156119999999999,-1.3125,0.665,-6.615
940,299286,0.735904,-0.149572,-0.611464,-3.4825,0.8225,-8.8025
941,299382,0.7417600000000001,-0.152256,-0.6034121,-5.67,0.7525,-11.095
942,299478,0.740052,-0.160308,-0.6029241,-7.91,0.56,-13.72
943,299574,0.743468,-0.149816,-0.592432,-11.0775,-0.5775,-16.9925
944,299671,0.749812,-0.13054000000000002,-0.603168,-13.8775,-1.1375,-19.285
945,299767,0.741028,-0.133956,-0.625616,-14.875,-0.6825,-20.3875
946,299863,0.754204,-0.09394001,-0.64782,-15.6275,1.33,-20.9825
947,299959,0.759084,-0.06539201,-0.662704,-15.05,4.235,-19.915
948,300056,0.768112,-0.088328,-0.6378159999999999,-11.4975,6.965,-17.57
949,300152,0.7666480999999999,-0.11126400000000002,-0.649528,-8.2075,9.5025,-16.52
950,300248,0.768112,-0.059048,-0.66368,-5.075,11.865,-15.9075
951,300344,0.7707961,-0.05929201,-0.669048,-1.33,15.9425,-14.63
952,300441,0.780556,-0.040016,-0.6605081,0.0175,21.8575,-12.7925
953,300537,0.674416,-0.149084,-0.781776,5.565,27.125,-11.34
954,300633,0.633912,-0.024156,-0.813008,2.905,38.29,-12.7575
955,300729,0.679296,-0.11955999999999999,-0.740296,-2.9925,66.6575,-13.055
956,300826,0.6663640000000001,-0.03172,-0.769332,-0.385,86.485,-13.02
957,300922,0.679296,-0.013175999999999998,-0.756156,1.435,107.31,-11.165
958,301018,0.749324,0.01342,-0.8215481,1.68,126.035,-7.385
959,301114,0.709064,0.1098,-0.786656,2.2575,124.18,-3.2375
960,301211,0.5926760999999999,0.10687200000000001,-0.9198799999999999,8.645,125.79,4.1125
961,301307,0.42285200000000006,-0.054412,-0.846924,13.8075,152.0225,22.2075
962,301403,0.4743361,0.011468,-0.6405,11.6025,197.6625,35.385
963,301499,0.498004,0.049044,-0.46628400000000003,24.045,270.34,49.035
964,301596,0.821792,0.07417601,-0.30182800000000004,39.9,357.14,64.015
965,301692,2.208688,0.041968,-0.9189040999999999,66.08,430.7975,73.815
966,301788,1.1387479999999999,0.441884,-1.759728,127.33,513.835,92.19001
967,301884,1.653344,0.028548,-1.756068,172.5675,553.105,127.435
968,301981,1.4149559999999999,-0.7327321,-0.7041841,207.865,551.04,135.94
969,302077,2.966796,-0.7320001,-0.747128,130.7775,572.495,91.105
970,302173,3.5404400000000003,-0.758108,-1.8107240000000002,126.7175,549.43,99.96
971,302269,3.9364519999999996,-1.422276,-3.2813120000000002,155.645,397.2325,79.135
972,302365,1.6145479999999999,-0.8752280000000001,-4.676016000000001,145.2325,339.4125,1.9075
973,302462,2.273592,-0.715896,-4.49326,36.575,161.035,-45.36
974,302558,0.706624,-0.427976,-2.7969720000000002,-13.4575,-112.77,-73.7275
975,302654,-0.004392,-0.478484,-2.141832,-21.3325,-163.625,-87.3775
976,302750,0.185928,-0.44066400000000006,-1.8112119999999998,-10.22,-143.3075,-83.685
977,302847,0.380884,-0.482388,-1.728984,-3.885,-150.0625,-75.4425
978,302943,0.571936,-0.482876,-1.6906759999999998,-3.22,-170.0125,-64.4525
979,303039,0.663924,-0.482388,-1.560624,-5.1275,-205.6075,-52.8325
980,303135,0.65758,-0.456768,-1.381772,-11.9175,-244.0725,-41.86
981,303232,0.6558721,-0.399916,-1.19316,-22.8375,-276.9025,-32.9175
982,303328,0.666852,-0.351848,-1.019676,-34.3875,-301.3325,-26.1625
983,303424,0.7068681,-0.2928,-0.8810841,-45.465,-319.0075,-21.385
984,303520,0.7449321,-0.225944,-0.7822640000000001,-53.97,-331.5725,-17.85
985,303617,0.76372,-0.172996,-0.7046720999999999,-58.0825,-340.5675,-14.4725
986,303713,0.769576,-0.135176,-0.6605081,-57.61,-344.1375,-12.0925
987,303809,0.788608,-0.126636,-0.6600201,-53.725,-341.5825,-10.08
988,303905,0.8723001,-0.117852,-0.7329760000000001,-48.0025,-335.7025,-8.47
989,304002,1.0565200000000001,-0.145424,-0.84424,-40.5125,-327.67,-7.14
990,304098,1.20048,-0.170068,-0.9098761000000001,-33.0225,-325.5175,-6.2475
991,304194,1.3419999999999999,-0.20008,-0.956968,-26.005,-325.605,-5.53
992,304290,1.526708,-0.28181999999999996,-0.9994241,-17.29,-323.855,-4.6375
993,304387,1.8126759999999997,-0.44115200000000004,-1.104588,-10.9725,-319.9525,-1.7675
994,304483,2.191608,-0.6902761,-1.188036,-10.465,-318.4125,3.7275
995,304579,2.436584,-0.858392,-1.0889719999999998,-22.995,-324.94,13.37
996,304675,2.5803,-0.67466,-0.750788,-43.4,-330.295,28.9625
997,304772,2.6474,-0.16835999999999998,-0.38186,-52.0625,-319.2875,53.1825
998,304868,2.942396,0.063928,0.011224,-24.5,-289.3275,75.21500999999999
999,304964,3.1146599999999998,-0.780556,0.431148,15.925,-249.55,83.0025
1000,305060,3.452356,-1.0077200000000002,0.750544,-23.9225,-219.7475,85.1375
1001,305157,2.7511,-0.564616,1.5730680000000001,-70.105,-248.5525,69.1775
1002,305253,2.589328,-0.145912,2.0679,-72.5725,-221.795,44.485
1003,305349,2.684244,-0.033184,2.49612,-20.7375,-163.065,43.6975
1004,305445,2.634224,0.053924,2.990708,33.46,-128.7475,38.815
1005,305542,2.486116,0.05612,3.380132,71.78501,-93.485,33.67
1006,305638,2.4395119999999997,-0.018056,3.4011160000000005,79.66001,-40.74,20.895
1007,305734,2.473672,0.02562,3.051708,55.3175,12.04,-5.18
1008,305830,2.466352,0.06832001,2.5183240000000002,31.5525,51.2225,-29.75
1009,305926,1.277584,-0.520452,1.6684720000000002,21.665,82.25,-50.8025
1010,306023,-1.7223959999999998,0.496784,-4.373456,-58.8175,166.3725,-134.3475
1011,306119,1.8531799999999998,-1.099708,-0.596092,6.7725,391.5975,-106.855
1012,306215,3.0378,-0.131272,1.832928,-69.7025,437.85,-16.8
1013,306311,3.19518,0.513376,-0.6695361,-55.58,284.6725,4.69
1014,306408,3.125396,1.7519200000000001,-1.8180439999999998,-50.96,314.93,6.5975
1015,306504,1.952488,0.47677600000000003,-1.8961240000000001,12.495,156.5025,-28.8925
1016,306600,2.4870919999999996,-0.9293961,-0.089304,79.2575,141.9775,5.425
1017,306696,1.585024,-0.8052,-0.090768,-14.9625,-45.185,-11.9175
1018,306793,0.9677040000000001,-0.021716,-0.8147161,-4.2,-41.3175,-27.125
1019,306889,0.883036,-0.17397200000000002,-0.5575399999999999,-16.3975,-4.1125,-25.0075
1020,306985,0.9886881,-0.10638399999999999,-0.65514,-15.5225,-7.8225,-20.2125
1021,307081,0.8274040000000001,-0.10321199999999998,-0.655384,-10.78,-8.5925,-14.35
1022,307178,0.8261841000000001,-0.10931199999999999,-0.674172,-8.19,-6.9475,-10.325
1023,307274,0.7771399999999999,-0.134932,-0.667828,-5.635,-7.21,-7.8925
1024,307370,0.7671359999999999,-0.167872,-0.644648,-4.4275,-6.195,-7.455
1025,307466,0.750788,-0.156892,-0.6512359999999999,-6.02,-6.93,-9.2925
1026,307563,0.745908,-0.140544,-0.6573359999999999,-7.6825,-7.175,-11.3575
1027,307659,0.7483479999999999,-0.10760399999999999,-0.6602640000000001,-8.5225,-6.9825,-12.67
1028,307755,0.7483479999999999,-0.064416,-0.682956,-8.155,-6.0725,-12.25
1029,307851,0.749324,-0.059536,-0.682956,-4.76,-4.6725,-9.8875
1030,307947,0.746152,-0.082716,-0.66856,-1.5225,-2.905,-6.9125
1031,308044,0.734196,-0.104676,-0.656848,1.015,-2.0125,-5.0575
1032,308140,0.739564,-0.091744,-0.6602640000000001,1.4525,-1.225,-4.5325
1033,308236,0.742004,-0.107116,-0.644648,2.275,-0.5775,-4.27
1034,308332,0.740052,-0.132248,-0.631228,2.4675,-0.35,-4.515
1035,308429,0.740052,-0.13785999999999998,-0.633912,1.4875,-0.77,-5.7225
1036,308525,0.733952,-0.12322000000000001,-0.6439159999999999,-0.0875,-1.61,-7.2975
1037,308621,0.7317560000000001,-0.128832,-0.648796,-0.6475,-1.54,-8.1725
1038,308717,0.72956,-0.148352,-0.633424,-1.085,-1.2775,-9.205
1039,308814,0.73078,-0.150304,-0.627568,-2.6425,-1.3475,-11.3225
1040,308910,0.729804,-0.152256,-0.6351319999999999,-5.1275,-1.855,-14.28
1041,309006,0.7317560000000001,-0.14688800000000002,-0.633668,-8.05,-2.38,-17.71
1042,309102,0.738588,-0.133956,-0.638548,-10.08,-2.8175,-21.14
1043,309199,0.7407841,-0.114924,-0.654896,-11.7425,-3.1325,-23.8875
1044,309295,0.738344,-0.081984,-0.6588,-11.69,-2.6425,-25.13
1045,309391,0.739808,-0.060512,-0.6653880999999999,-11.4275,-1.225,-25.1125
1046,309487,0.745908,-0.06954,-0.6602640000000001,-10.0625,0.6125,-23.94
1047,309583,0.744688,-0.07076001,-0.6675840000000001,-9.1175,2.555,-23.4675
1048,309680,0.74542,-0.05977999999999999,-0.6634359999999999,-8.4525,4.97,-23.5375
1049,309776,0.7373681,-0.079056,-0.66368,-7.735,8.575,-23.94
1050,309872,0.7417600000000001,-0.115168,-0.6646561,-7.28,13.3175,-25.55
1051,309968,0.6326921,0.045384,-0.823256,-13.2475,20.5275,-28.6475
1052,310065,0.703696,-0.18422,-0.5914560000000001,-15.68,33.565,-29.19
1053,310161,0.687592,0.031964,-0.752984,-8.7325,47.6,-30.345
1054,310257,0.695156,-0.01098,-0.737124,-8.365,63.945,-32.0775
1055,310353,0.687592,0.052948,-0.745908,-10.36,81.11251,-28.6475
1056,310450,0.6675840000000001,0.06636801,-0.756156,-9.17,97.72,-22.3125
1057,310546,0.6405,0.08417999999999999,-0.773968,-11.7425,115.4125,-14.1225
1058,310642,0.681248,0.05172801,-0.8625401,-12.6,133.63,-5.4425
1059,310738,0.6558721,0.017568,-0.8439959999999999,-12.95,135.1,0.42
1060,310835,0.493612,0.005856,-0.8352120000000001,-8.365,148.54,2.87
1061,310931,0.35160399999999997,0.08662001,-0.8317960999999999,-3.465,178.0625,4.06
1062,311027,0.269864,-0.057339999999999995,-0.601216,2.6425,238.2975,15.47
1063,311123,0.4514,-0.027572000000000003,-0.41553199999999996,-5.04,325.4125,22.1375
1064,311219,2.661552,0.142252,-0.636108,-6.4575,390.6,12.4775
1065,311316,0.128832,0.167628,-1.5220719999999999,55.615,468.3525,8.225
1066,311412,1.106784,0.28377199999999997,-1.803404,80.36,562.345,30.87
1067,311508,1.8695279999999999,-0.203984,-1.0187,104.9475,573.09,61.53
1068,311604,1.6384599999999998,-0.5206960999999999,-0.8852321,117.495,573.405,69.615
1069,311701,2.515396,-0.8796200000000001,-0.6663640000000001,62.475,572.53,29.4875
1070,311797,3.597292,-0.467504,-3.269112,57.4,566.4925,34.0725
1071,311893,4.901472,-1.36762,-3.7771199999999996,95.9875,380.3625,45.8325
1072,311989,1.9659080000000002,-1.577216,-5.114972,160.5625,315.0175,22.5225
1073,312085,2.3614319999999998,-1.616012,-4.755804,25.2175,129.885,-39.8125
1074,312182,0.570472,-1.145824,-2.537356,-62.44,-172.865,-47.985
1075,312278,0.022692,-0.7747001,-2.072292,-108.885,-186.62,-66.115
1076,312374,0.101748,-0.3782,-1.696532,-103.6175,-175.8575,-54.6525
1077,312470,0.239852,-0.307196,-1.6108879999999999,-68.6175,-183.9425,-31.4475
1078,312567,0.466528,-0.342332,-1.601128,-30.3275,-199.36,-11.655
1079,312663,0.6224441,-0.403088,-1.5586719999999998,-6.1425,-227.8675,3.78
1080,312759,0.7237041,-0.40357600000000005,-1.416908,0.3675,-265.93,16.975
1081,312855,0.72346,-0.335012,-1.18828,-7.4725,-301.7875,27.6325
1082,312951,0.7285841,-0.2379,-0.9921040999999999,-18.095,-328.58,35.6125
1083,313048,0.7476161,-0.146156,-0.84546,-27.0025,-344.4,41.895
1084,313144,0.8003201,-0.049044,-0.764452,-33.46,-353.08,46.515
1085,313240,0.8808401,0.025131999999999998,-0.750544,-35.735,-357.1575,49.28
1086,313336,0.97478,0.073688,-0.7795801,-34.1775,-360.08,49.4025
1087,313433,1.08946,0.12468399999999999,-0.8508280999999999,-29.96,-362.5475,46.2525
1088,313529,1.205116,0.112972,-0.9376921,-22.785,-366.345,40.2325
1089,313625,1.40056,0.07173600000000001,-1.063596,-14.2625,-372.1375,31.64
1090,313721,1.56892,-0.008784,-1.125084,-6.79,-380.5725,22.9425
1091,313817,1.7521639999999998,-0.112972,-1.1660760000000001,-0.7175,-391.1425,14.14
1092,313914,1.9300400000000002,-0.18104800000000001,-1.1636360000000001,2.9925,-399.35,5.32
1093,314010,2.161352,-0.285724,-1.123376,9.5375,-402.3425,-0.56
1094,314106,2.400716,-0.469944,-0.9947881,18.9525,-398.6325,-1.505
1095,314202,2.69132,-0.7107720000000001,-0.8432639999999999,25.2875,-387.275,5.25
1096,314299,3.133692,-0.362584,-0.6029241,21.91,-365.7675,27.65
1097,314395,3.137108,0.050263999999999996,-0.196908,31.1675,-344.6275,70.4025
1098,314491,3.125152,-0.345016,0.39284,62.6675,-317.59,98.28
1099,314587,3.256668,-0.60146,0.9181720999999999,27.1425,-277.4625,87.92
1100,314683,3.187616,-0.329156,1.53354,-45.0275,-239.015,65.8875
1101,314780,2.94508,0.039772,2.158668,-84.875,-210.0875,50.1025
1102,314876,2.794532,0.42724399999999996,2.7359720000000003,-68.005,-175.35,38.885
1103,314972,2.910676,0.5119121,3.195424,-8.3475,-128.59,34.3175
1104,315068,2.839184,0.284748,3.546296,47.495,-87.0275,31.71
1105,315164,2.655452,0.115656,3.532632,46.0075,-41.65,16.905
1106,315261,2.579812,0.111752,3.157604,5.705,18.515,-2.275
1107,315357,2.572492,0.157136,2.454152,-35.7175,71.435,-19.565
1108,315453,2.562,0.235704,1.683112,-53.3575,107.66,-35.14
1109,315549,1.193892,-0.306464,-3.0148639999999998,-34.0375,112.98,-53.83
1110,315646,-4.00282,-0.19032000000000002,-5.337744,-12.95,167.8775,-119.035
1111,315742,0.830332,-0.7944641,2.014464,-31.115,251.2475,-191.275
1112,315838,3.9579239999999998,-0.007808001,1.937848,-78.1375,526.4525,-67.27
1113,315934,3.424784,0.47043199999999996,-1.382016,-35.1925,350.63,16.765
1114,316031,2.350696,1.260504,-0.972828,-38.15,254.03,15.8375
1115,316127,1.569652,0.619272,-0.927932,-16.1525,230.5275,-32.375
1116,316223,3.4962760000000004,-0.78446,-3.840804,42.14,189.245,-20.6325
1117,316319,2.454884,-0.26913200000000004,1.072624,13.5625,129.2375,6.8075
1118,316415,1.124352,-0.416508,-0.04392,-13.7025,-103.5825,-42.8925
1119,316512,0.9128040000000001,-0.000244,-0.796416,-17.4475,-18.725,-26.81
1120,316608,1.021628,-0.06588,-0.60024,-8.6975,-3.85,-20.7375
1121,316704,0.8552200000000001,-0.135664,-0.671732,-11.6725,-8.3475,-14.245
1122,316800,0.834724,-0.146156,-0.656848,-9.8,-7.105,-12.25
1123,316897,0.8015399999999999,-0.049288,-0.6919841,-11.48,-7.6125,-12.46
1124,316993,0.783728,-0.09223200000000001,-0.680028,-6.79,-6.965,-9.5025
1125,317089,0.76494,-0.12688,-0.659288,-4.165,-6.5975,-7.735
1126,317185,0.752984,-0.140544,-0.652456,-5.3375,-6.4925,-8.6625
1127,317282,0.7503,-0.096868,-0.660752,-6.7025,-6.8775,-10.2725
1128,317378,0.747128,-0.063196,-0.68076,-6.4925,-6.51,-10.2025
1129,317474,0.740296,-0.051484,-0.684908,-3.955,-5.0225,-8.2425
1130,317570,0.7427361,-0.048068,-0.678808,-1.2075,-2.94,-5.565
1131,317666,0.737124,-0.07344400000000001,-0.6663640000000001,1.82,-1.3475,-2.905
1132,317763,0.73444,-0.08296,-0.66856,3.4125,-0.2975,-1.4
1133,317859,0.7278521,-0.08662001,-0.669048,4.375,0.56,-0.8925
1134,317955,0.736392,-0.09930800000000001,-0.6573359999999999,5.25,1.5925,-0.7525
1135,318051,0.740296,-0.116632,-0.644892,5.7575,2.0475,-0.945
1136,318148,0.741272,-0.114436,-0.643672,4.9525,1.75,-1.8725
1137,318244,0.740052,-0.110776,-0.6463561,4.27,1.0675,-2.8175
1138,318340,0.743224,-0.10492,-0.647576,3.4125,0.595,-3.465
1139,318436,0.738588,-0.112972,-0.6390359999999999,3.22,0.525,-3.675
1140,318532,0.730292,-0.116632,-0.650748,2.9575,0.3325,-4.41
1141,318629,0.7324881,-0.135908,-0.6378159999999999,1.6275,0.5425,-5.95
1142,318725,0.7366361,-0.13639600000000002,-0.6348881,0.07,0.175,-8.26
1143,318821,0.740052,-0.135908,-0.634644,-2.4325,-0.5075,-11.1825
1144,318917,0.7427361,-0.116876,-0.638792,-4.6725,-1.5925,-14.105
1145,319013,0.741028,-0.111996,-0.644892,-6.685,-2.24,-16.555
1146,319110,0.7378560000000001,-0.100284,-0.6558721,-7.455,-2.66,-18.3925
1147,319206,0.7332201,-0.08466801,-0.658312,-7.9975,-2.835,-19.6525
1148,319302,0.726144,-0.098088,-0.6649,-8.2775,-2.4325,-20.44
1149,319398,0.7232161,-0.132004,-0.653188,-8.505,-1.575,-22.05
1150,319495,0.725412,-0.0976,-0.652212,-10.92,0.5425,-25.6025
1151,319591,0.7327321,-0.10931199999999999,-0.66246,-11.4975,4.7425,-29.2775
1152,319687,0.734196,-0.09638,-0.681248,-11.4975,10.255,-33.6
1153,319783,0.63318,-0.100284,-0.729804,-12.18,18.795,-38.115
1154,319880,0.6753920999999999,0.027572000000000003,-0.72712,-18.585,33.7925,-40.25
1155,319976,0.667828,0.0488,-0.7978801,-4.375,57.785,-37.5375
1156,320072,0.6771,0.058316,-0.7722600000000001,-6.23,78.2075,-35.63
1157,320168,0.648308,0.072956,-0.821304,-4.3575,94.185,-27.72
1158,320264,0.5987760999999999,0.045384,-0.8532681000000001,-5.8625,105.35,-19.285
1159,320361,0.6161,0.040260000000000004,-0.8786440999999999,-7.8225,123.305,-13.4925
1160,320457,0.50752,0.13054000000000002,-0.898164,-5.53,139.3175,-10.5
1161,320553,0.28304,0.037576,-0.996008,0.105,168.0175,-2.1875
1162,320649,0.19251600000000002,-0.150304,-0.8596120999999999,1.75,222.075,7.7
1163,320746,0.343796,0.08296,-0.64904,-3.115,297.1675,8.435
1164,320842,1.29564,0.07710399999999999,-0.686128,19.0575,362.1975,-0.0875
1165,320938,1.8390279999999999,0.011956,-1.093852,52.605,422.625,-12.74
1166,321034,0.8801081000000001,0.2806,-1.882216,75.6525,553.595,3.9725
1167,321130,1.41276,0.30378,-1.128012,88.27,572.915,33.9675
1168,321227,1.772904,-0.49166000000000004,-1.125328,143.0975,573.405,71.4875
1169,321323,1.876116,-0.7869,-0.606584,99.34751,573.405,42.805
1170,321419,3.931572,-0.9191481,-0.676124,59.0275,572.3725,5.425
1171,321515,4.251456,-0.8962120000000001,-2.511736,78.2425,510.2125,36.9425
1172,321612,2.852116,-2.1352439999999997,-3.72344,136.6575,313.46,31.9375
1173,321708,2.979484,-1.966884,-4.049424,80.3775,271.1625,-15.89
1174,321804,1.091412,-1.581364,-3.464312,-85.3825,-79.135,-11.6025
1175,321900,0.15006,-0.785192,-2.334836,-128.905,-192.955,-11.795
1176,321996,0.071248,-0.42163199999999995,-1.94712,-139.5275,-184.0475,-21.8575
1177,322093,0.17812,-0.195688,-1.73118,-117.635,-190.3475,-16.065
1178,322189,0.388936,-0.12761199999999998,-1.641144,-73.675,-207.9875,-7.9975
1179,322285,0.5314321,-0.219112,-1.508408,-30.5025,-236.3375,-1.3825
1180,322381,0.6304960000000001,-0.343064,-1.38104,-6.2475,-270.3225,1.1375
1181,322478,0.710284,-0.42016800000000004,-1.227808,-1.96,-303.45,2.31
1182,322574,0.752496,-0.441396,-1.065548,-10.2375,-332.9025,4.445
1183,322670,0.78446,-0.444568,-0.915976,-23.3275,-355.7225,8.0325
1184,322766,0.8254520000000001,-0.40381999999999996,-0.8100801,-37.0125,-371.07,12.425
1185,322863,0.9057280999999999,-0.346968,-0.7734800000000001,-47.25,-380.3625,17.78
1186,322959,1.019432,-0.292556,-0.7722600000000001,-50.1025,-386.68,24.15
1187,323055,1.080188,-0.25302800000000003,-0.763476,-46.4275,-392.7875,31.1675
1188,323151,1.0584719999999999,-0.23253200000000002,-0.74542,-39.9,-396.13,36.505
1189,323247,1.090924,-0.219356,-0.772504,-31.815,-393.47,37.555
1190,323344,1.256844,-0.24863600000000002,-0.8491200000000001,-23.5375,-381.8325,34.02
1191,323440,1.4600959999999998,-0.295484,-0.9254921,-13.7025,-370.4925,28.1575
1192,323536,1.7397200000000002,-0.332328,-1.045052,-1.61,-359.3275,25.1825
1193,323632,1.9839639999999998,-0.46945600000000004,-1.15534,15.5225,-353.675,28.42
1194,323729,2.367532,-0.720288,-1.2932,29.785,-348.0225,35.315
1195,323825,2.7652520000000003,-0.9286639999999999,-1.292712,31.5875,-345.9225,45.325
1196,323921,2.895304,-1.008208,-0.9696561,23.275,-352.52,60.6725
1197,324017,2.877004,-0.324764,-0.39967199999999997,9.2225,-348.2325,82.1275
1198,324114,2.803804,0.030256,0.116632,27.3875,-314.3525,112.9275
1199,324210,3.038288,-0.37112399999999995,0.570716,78.34751,-268.2575,129.0975
1200,324306,3.2952199999999996,-0.644404,1.087508,61.8625,-226.625,117.3025
1201,324402,3.006812,-0.332572,1.8971,3.8675,-205.555,94.5525
1202,324499,2.7603720000000003,0.228872,2.576396,-34.02,-178.36,72.2575
1203,324595,2.9675279999999997,0.625372,3.055124,-11.6025,-132.79,52.43
1204,324691,2.951668,0.6117081,3.516772,44.2225,-95.6025,37.1525
1205,324787,2.670092,0.396012,3.6329160000000003,74.865,-63.105,19.775
1206,324884,2.596648,0.12444000000000001,3.23544,55.23,-3.01,1.2425
1207,324980,2.584692,0.068564,2.516372,-3.15,54.6,-14.4375
1208,325076,2.549312,0.26718000000000003,1.7550919999999999,-62.1425,92.33001,-28.07
1209,325172,1.2341520000000001,0.424072,-0.046604,-84.945,107.38,-43.2075
1210,325268,-3.552396,-0.376248,-4.297816,-56.595,149.31,-96.9675
1211,325365,-0.429196,0.263764,0.193004,-149.555,230.72,-216.8075
1212,325461,4.000380000000001,0.6158561,2.096936,-104.1425,496.195,-154.0875
1213,325557,3.4948120000000005,0.8569280999999999,-0.8261841000000001,-94.16751,353.08,-69.8425
1214,325653,2.919216,1.344684,-1.390068,-24.15,287.5775,-29.7325
1215,325750,1.559648,0.373564,-0.6822239999999999,-21.5075,235.6025,-54.7575
1216,325846,3.136864,-1.000644,-3.49652,34.0025,209.0375,-30.9925
1217,325942,2.489532,-0.46457600000000004,1.319308,23.0125,133.665,11.5675
1218,326038,1.410808,-0.148352,-0.393328,-45.815,-72.415,-49.84
1219,326135,0.8091041,-0.004392,-0.8317960999999999,-17.395,-24.955,-34.335
1220,326231,1.047492,-0.0671,-0.624152,-14.735,-3.5175,-27.055
1221,326327,0.868152,-0.07515201,-0.671732,-18.165,-11.3925,-21.2625
1222,326423,0.8476561,-0.040748,-0.7041841,-14.0,-9.7475,-16.24
1223,326519,0.80276,-0.02806,-0.70028,-9.7125,-7.6125,-11.0425
1224,326616,0.7795801,-0.063928,-0.687592,-3.885,-5.88,-5.81
1225,326712,0.7549359999999999,-0.106628,-0.68076,-0.2275,-4.8475,-2.87
1226,326808,0.7510321,-0.128832,-0.659776,0.0875,-4.1825,-2.66
1227,326904,0.747128,-0.098332,-0.669048,-0.7175,-3.9025,-3.535
1228,327001,0.746152,-0.07002799999999999,-0.678076,-0.805,-3.115,-3.43
1229,327097,0.737124,-0.060267999999999995,-0.684664,1.19,-1.82,-1.54
1230,327193,0.733708,-0.057584,-0.681248,3.5,0.1925,1.0675
1231,327289,0.726388,-0.091744,-0.671488,6.125,1.6625,3.5175
1232,327385,0.72102,-0.11345999999999999,-0.6612401,7.385,2.2225,4.2875
1233,327482,0.715896,-0.128344,-0.6605081,7.1225,1.89,3.3775
1234,327578,0.7200439999999999,-0.133956,-0.657824,6.125,1.3125,1.7325
1235,327674,0.729804,-0.143228,-0.648308,5.1275,0.6125,-0.315
1236,327770,0.730536,-0.147376,-0.644892,3.7275,-0.2625,-2.5025
1237,327867,0.734196,-0.132248,-0.6456241,2.03,-1.5225,-4.795
1238,327963,0.7324881,-0.12175599999999999,-0.6497721,0.945,-2.275,-6.44
1239,328059,0.734928,-0.118584,-0.632448,0.455,-2.7825,-7.28
1240,328155,0.7300479999999999,-0.114436,-0.6456241,0.0,-3.325,-7.8925
1241,328252,0.7237041,-0.121512,-0.647576,-0.77,-3.5,-8.5225
1242,328348,0.719312,-0.1342,-0.639768,-1.6975,-3.5525,-9.9225
1243,328444,0.7237041,-0.14786400000000002,-0.6405,-3.535,-2.835,-12.2675
1244,328540,0.7217521,-0.141032,-0.640256,-5.88,-2.8875,-15.3825
1245,328636,0.726388,-0.13908,-0.653432,-7.98,-3.2375,-18.515
1246,328733,0.71736,-0.147376,-0.657824,-9.7475,-4.1825,-21.8575
1247,328829,0.720532,-0.140544,-0.66246,-12.74,-5.635,-25.725
1248,328925,0.724436,-0.07076001,-0.6885680999999999,-15.05,-5.1625,-28.7
1249,329021,0.73078,-0.033672,-0.6893,-13.7025,-0.2975,-28.56
1250,329118,0.7417600000000001,-0.039772,-0.689056,-10.0975,6.37,-26.495
1251,329214,0.7366361,-0.061975999999999996,-0.688812,-6.86,11.8125,-25.095
1252,329310,0.7107720000000001,-0.149572,-0.702476,-5.18,18.0425,-25.4625
1253,329406,0.620492,0.085888,-0.9296399999999999,-12.1975,27.8075,-27.3525
1254,329503,0.676856,-0.020008,-0.7861680999999999,-2.975,49.1575,-25.3575
1255,329599,0.710284,0.038551999999999996,-0.769332,-5.9325,66.46500999999999,-23.975
1256,329695,0.658556,0.037332,-0.7793359999999999,-2.9575,74.04251,-18.2525
1257,329791,0.625616,0.016347999999999998,-0.8281360999999999,-5.565,90.00251,-11.1125
1258,329887,0.5968241,-0.014884,-0.853512,-5.7575,104.65,-4.9875
1259,329984,0.528016,-0.005368,-0.849608,-5.9675,122.22,-4.13
1260,330080,0.48116800000000004,0.033916,-0.8203280000000001,-2.555,147.0175,-4.5325
1261,330176,0.37746799999999997,0.134932,-0.9042641,3.6225,183.9425,-1.2775
1262,330272,0.24522,-0.09540401,-0.8015399999999999,14.4025,238.49,11.6025
1263,330369,0.643428,0.009272001,-0.52094,4.41,311.2025,13.685
1264,330465,2.376804,0.072712,-0.5546121,15.9075,359.94,-1.9075
1265,330561,0.463844,0.17568,-1.32492,75.39,485.94,3.8675
1266,330657,1.205848,0.39284,-2.178676,111.58,572.6,33.39
1267,330754,1.635044,0.028548,-1.4879120000000001,152.74,573.405,69.545
1268,330850,1.4781520000000001,-0.6956439999999999,-0.9450120000000001,190.2775,573.3875,94.2025
1269,330946,1.8839240000000002,-0.757864,-0.640256,119.0875,573.3175,45.745
1270,331042,3.896924,-0.8520479999999999,-1.031876,82.53,568.5925,11.2875
1271,331138,4.442508,-1.16754,-2.9636240000000003,121.205,499.9225,47.5125
1272,331235,2.6962,-2.059848,-4.405176,169.365,315.42,52.15
1273,331331,2.6132400000000002,-1.8880720000000002,-4.383216,72.94,199.4825,-6.6675
1274,331427,0.8608319999999999,-1.333704,-3.088064,-85.3125,-142.2925,-16.555
1275,331523,0.02928,-0.67466,-2.223816,-135.1175,-212.87,-30.7825
1276,331620,-0.071004,-0.29524,-1.8012080000000001,-139.7025,-203.8225,-44.3275
1277,331716,0.098576,-0.133224,-1.626016,-113.1725,-201.4075,-35.2275
1278,331812,0.345992,-0.083936,-1.555256,-66.46500999999999,-212.6425,-17.5
1279,331908,0.5612,-0.158112,-1.4988920000000001,-21.1925,-237.51,-0.91
1280,332005,0.759328,-0.246928,-1.43716,4.3575,-268.485,10.3775
1281,332101,0.8437520000000001,-0.27523200000000003,-1.280512,6.895,-306.2675,16.765
1282,332197,0.8579041,-0.22326,-1.089216,-5.3025,-340.9175,19.39
1283,332293,0.855708,-0.15006,-0.916464,-20.86,-364.3325,20.0375
1284,332389,0.889624,-0.062220000000000004,-0.80886,-33.7225,-376.285,19.565
1285,332486,0.9772200999999999,0.022448,-0.7812880999999999,-40.67,-381.4125,19.0225
1286,332582,1.054568,0.08466801,-0.77104,-40.0575,-384.615,18.6375
1287,332678,1.136064,0.130296,-0.801296,-33.425,-386.0325,16.94
1288,332774,1.197064,0.114192,-0.8425321,-23.3625,-385.7875,13.265
1289,332871,1.319796,0.044407999999999996,-0.9433041,-14.2625,-383.775,6.09
1290,332967,1.485472,-0.06832001,-1.035048,-9.0475,-380.695,-3.675
1291,333063,1.69702,-0.19959200000000002,-1.081652,-5.8625,-378.9275,-13.0375
1292,333159,1.891488,-0.281332,-1.091656,-2.6425,-378.1575,-18.305
1293,333256,2.076196,-0.42431599999999997,-1.0979999999999999,4.48,-376.2325,-15.855
1294,333352,2.3250759999999997,-0.677344,-1.13704,12.7925,-369.985,-6.7725
1295,333448,2.749392,-0.9886881,-1.1770559999999999,13.0025,-360.7625,9.205
1296,333544,3.042436,-0.935008,-0.862296,-1.12,-358.6975,34.965
1297,333640,2.94386,-0.10833599999999999,-0.326228,-17.8325,-353.3075,73.36
1298,333737,2.877248,-0.197152,0.262788,11.3225,-326.9525,106.68
1299,333833,3.0041279999999997,-0.5002,0.76372,15.0325,-282.7475,106.61
1300,333929,3.133204,-0.475312,1.21512,-28.4025,-234.185,89.5825
1301,334025,2.9792400000000003,-0.211548,1.8160919999999998,-68.74,-199.185,76.3875
1302,334122,2.827472,0.211304,2.377536,-71.19,-167.265,63.56
1303,334218,2.916044,0.537776,2.837964,-26.7925,-127.1725,49.6825
1304,334314,2.9321479999999998,0.47775200000000007,3.2783839999999995,43.4,-89.65250999999999,38.7625
1305,334410,2.696932,0.27718400000000004,3.4682160000000004,82.075,-53.3575,21.07
1306,334507,2.566392,0.061975999999999996,3.2103080000000004,71.3825,1.19,-2.3275
1307,334603,2.5400400000000003,-0.030987999999999998,2.573224,31.43,57.5225,-22.8725
1308,334699,2.500756,0.028792,1.857816,-4.6725,98.945,-37.7475
1309,334795,1.187792,-0.15616,0.552172,-12.1625,121.1175,-50.4525
1310,334892,-2.470988,-0.7754321,-3.9130279999999997,20.1425,146.8425,-79.2925
1311,334988,-2.2143,-0.472384,-2.373144,-75.145,202.8425,-191.2925
1312,335084,3.0988,-0.432612,2.2709080000000004,-26.075,445.97,-121.87
1313,335180,3.4386919999999996,0.071492,0.489464,-83.545,435.785,-2.345
1314,335277,2.8069759999999997,0.9967401,-1.256844,-14.595,301.28,55.93
1315,335373,1.9898200000000001,1.619672,-1.182668,-57.1025,290.5175,-18.0075
1316,335469,4.05772,-1.249768,-5.074224,63.0175,222.32,-34.895
1317,335565,2.183068,-0.571692,1.54574,43.8375,80.4825,15.7325
1318,335662,1.352248,-0.364536,-0.222284,-50.9075,-58.3625,-59.8325
1319,335758,0.7315119999999999,-0.010736,-0.718824,-23.3625,-25.4625,-38.6225
1320,335854,1.0650600000000001,-0.16714,-0.612928,-16.66,-5.6875,-31.6225
1321,335950,0.818132,-0.12932000000000002,-0.665632,-24.045,-13.3525,-25.3575
1322,336047,0.841556,-0.10492,-0.701012,-21.385,-12.495,-22.3825
1323,336143,0.7795801,-0.06880801,-0.698328,-18.13,-12.775,-19.5475
1324,336239,0.7673800000000001,-0.073688,-0.699792,-14.175,-11.0075,-16.0125
1325,336335,0.742004,-0.146644,-0.674172,-10.395,-10.5,-13.37
1326,336431,0.7378560000000001,-0.1464,-0.665144,-11.6375,-10.7625,-14.5425
1327,336528,0.7259001,-0.133468,-0.671976,-13.51,-11.9,-17.0625
1328,336624,0.718092,-0.081984,-0.6958880000000001,-14.5425,-12.1975,-18.7075
1329,336720,0.7237041,-0.054167999999999994,-0.702232,-12.705,-10.9025,-17.9725
1330,336816,0.734684,-0.012688,-0.701256,-9.87,-8.3825,-15.26
1331,336913,0.7241920000000001,-0.07002799999999999,-0.685884,-4.7075,-6.0025,-10.6925
1332,337009,0.7107720000000001,-0.063684,-0.6946681,-2.3625,-4.5325,-8.19
1333,337105,0.7171161,-0.07612801,-0.686128,-1.0675,-3.185,-7.21
1334,337201,0.719312,-0.09638,-0.669048,-0.21,-1.82,-6.51
1335,337298,0.7256560000000001,-0.081252,-0.6707561,0.3675,-1.435,-6.3175
1336,337394,0.7237041,-0.09125599999999999,-0.6753920999999999,0.63,-1.0325,-6.0375
1337,337490,0.7200439999999999,-0.081496,-0.6824680000000001,1.54,-0.665,-5.4425
1338,337586,0.721996,-0.0854,-0.6756361,2.31,-0.07,-4.795
1339,337683,0.72102,-0.089792,-0.672708,2.7475,0.98,-4.305
1340,337779,0.7217521,-0.11541199999999999,-0.664412,2.625,1.1025,-4.8125
1341,337875,0.721508,-0.126636,-0.659288,1.0325,0.945,-6.6675
1342,337971,0.7229720000000001,-0.121024,-0.6634359999999999,-0.8225,0.1225,-9.1875
1343,338068,0.7237041,-0.10833599999999999,-0.666608,-2.975,-0.7,-11.935
1344,338164,0.7198,-0.10321199999999998,-0.666852,-4.5675,-1.05,-14.42
1345,338260,0.720288,-0.08954801,-0.671732,-5.635,-1.225,-16.4325
1346,338356,0.7195560000000001,-0.080764,-0.671488,-6.3525,-1.365,-17.8325
1347,338453,0.7183361,-0.06466001,-0.681248,-6.7375,-1.1025,-18.3225
1348,338549,0.718092,-0.058803999999999995,-0.6824680000000001,-6.335,0.0175,-17.9025
1349,338645,0.71248,-0.075396,-0.6785640000000001,-5.1625,1.9425,-17.5875
1350,338741,0.7141881,-0.07637200000000001,-0.67832,-4.8825,5.18,-18.55
1351,338837,0.7217521,-0.07393200000000001,-0.6722199999999999,-5.1275,9.4325,-20.3875
1352,338934,0.707356,-0.1647,-0.679784,-5.11,14.455,-22.54
1353,339030,0.626836,0.159332,-0.9272,-15.3125,21.665,-24.3075
1354,339126,0.649528,-0.148108,-0.687104,-6.2125,35.4375,-22.61
1355,339222,0.6944241,0.049532,-0.763232,-6.37,52.3775,-24.185
1356,339319,0.66368,0.050263999999999996,-0.792756,-2.0475,60.62,-21.7175
1357,339415,0.6505041,0.040748,-0.803248,-2.5375,75.3375,-14.805
1358,339511,0.619028,0.044896,-0.8457040000000001,-2.4675,88.41001,-6.895
1359,339607,0.5565640000000001,0.019764,-0.849608,-1.5225,104.545,-0.77
1360,339704,0.50752,0.018056,-0.827892,0.8925,126.6125,1.9425
1361,339800,0.444812,0.10345599999999999,-0.883768,4.7075,156.205,4.515
1362,339896,0.288896,-0.1159,-0.8637601,11.9175,200.0425,12.7225
1363,339992,0.429928,-0.055388,-0.6029241,1.295,263.97,14.56
1364,340089,0.9889319999999999,0.107116,-0.6878361,0.9975,319.7075,2.5725
1365,340185,2.701812,-0.018056,-0.526308,37.7125,381.2375,-15.3475
1366,340281,0.303292,0.153476,-1.668716,83.52750999999999,535.1675,-0.2625
1367,340377,1.070916,0.533384,-2.100352,107.3975,573.09,24.6925
1368,340474,1.70678,-0.477264,-1.1033680000000001,160.8425,573.405,66.6575
1369,340570,1.405928,-0.671976,-0.820084,151.935,573.3875,55.125
1370,340666,2.204784,-0.696376,-0.836676,85.5925,573.1775,3.71
1371,340762,3.701968,-0.7707961,-1.7916919999999998,77.7175,565.285,-6.9825
1372,340859,4.551576,-1.300764,-3.148088,133.0,476.1925,41.5275
1373,340955,2.2448,-2.0037279999999997,-4.697976000000001,189.1575,308.3325,41.0025
1374,341051,2.4221880000000002,-1.9964080000000002,-4.653812,52.6575,141.8025,-12.495
1375,341147,0.662704,-1.337852,-2.665212,-77.7525,-162.89,0.4725
1376,341244,-0.084912,-0.721996,-2.014952,-140.2625,-204.19,-15.0325
1377,341340,-0.04148,-0.261324,-1.647732,-146.65,-190.54,-21.84
1378,341436,0.120048,-0.08881599,-1.543544,-117.7225,-190.4175,-13.86
1379,341532,0.349164,-0.052216,-1.487424,-71.1025,-202.7375,-0.945
1380,341629,0.548756,-0.15738,-1.436672,-28.245,-227.9375,8.5925
1381,341725,0.706624,-0.277428,-1.366644,-7.2275,-260.2425,13.09
1382,341821,0.796904,-0.329156,-1.2402520000000001,-8.9425,-295.295,14.4025
1383,341917,0.846924,-0.299388,-1.093608,-22.4525,-328.5275,14.9625
1384,342014,0.8525360000000001,-0.244732,-0.937448,-36.9075,-354.5675,16.2225
1385,342110,0.853512,-0.19251600000000002,-0.8047121,-47.7225,-371.2275,18.5675
1386,342206,0.9010921000000001,-0.11345999999999999,-0.7427361,-54.6,-378.84,21.0
1387,342302,0.9818561,-0.042456,-0.730536,-54.53,-380.59,23.625
1388,342399,1.0645719999999999,0.017324000000000003,-0.758108,-48.4225,-379.75,25.585
1389,342495,1.116056,0.013663999999999999,-0.796416,-39.0425,-378.665,24.71
1390,342591,1.240008,-0.0427,-0.892308,-31.0625,-375.62,18.7425
1391,342687,1.4015360000000001,-0.132248,-0.983808,-26.5125,-371.315,9.8
1392,342784,1.556476,-0.205448,-1.003816,-24.115,-367.99,1.225
1393,342880,1.7204439999999999,-0.243756,-1.044076,-19.53,-363.965,-3.7625
1394,342976,1.9490720000000001,-0.33671999999999996,-1.136308,-8.1725,-356.1075,-2.2925
1395,343072,2.323368,-0.573156,-1.2961280000000002,8.2775,-346.5175,4.97
1396,343169,2.7694,-0.8610761,-1.3346799999999999,18.6025,-341.0225,18.4625
1397,343265,2.935564,-0.9638,-0.9882001,13.895,-348.6875,39.025
1398,343361,2.863828,-0.18324400000000002,-0.43798000000000004,-3.2725,-347.9,67.3925
1399,343457,2.90848,-0.019764,0.015616,14.7875,-318.2725,101.01
1400,343554,3.0280400000000003,-0.4553041,0.533872,42.665,-283.325,112.4725
1401,343650,3.117588,-0.582916,1.03334,2.7825,-247.2225,95.165
1402,343746,2.951912,-0.225212,1.6616400000000002,-56.63,-220.7275,70.105
1403,343842,2.636908,0.282308,2.330932,-71.5925,-194.11,49.105
1404,343939,2.82186,0.614636,2.804048,-24.6225,-149.415,31.0625
1405,344035,2.914336,0.525332,3.2879,53.1125,-106.89,19.7225
1406,344131,2.695712,0.241804,3.526532,99.03251,-69.72,8.6625
1407,344227,2.552972,-0.046848,3.27082,84.9625,-10.7275,-4.9525
1408,344324,2.5376,-0.15274400000000002,2.609824,28.1925,51.03,-18.3925
1409,344420,2.529792,-0.039528,1.880752,-29.1025,96.18,-28.4725
1410,344516,2.448784,0.163236,1.226344,-51.52,121.3975,-37.5025
1411,344612,-0.36892800000000003,-0.43358800000000003,-4.426159999999999,-14.3325,125.6325,-53.1125
1412,344709,-3.899608,0.341844,-5.432904,-56.98,186.4625,-139.1775
1413,344805,1.6865279999999998,-0.380396,2.094984,-47.5475,354.0075,-165.34
1414,344901,3.69904,-0.022692,1.441064,-80.1325,484.3825,-31.6925
1415,344997,2.870904,0.5002,-1.572092,-15.505,291.235,50.2425
1416,345094,2.267248,1.867088,-1.073356,-51.5025,310.6775,17.64
1417,345190,1.7092200000000002,0.280844,-1.55916,22.085,233.9925,-37.2225
1418,345286,3.3637839999999994,-1.6682279999999998,-0.93086,98.875,163.695,-0.315
1419,345382,2.028372,-0.27889200000000003,-0.28987199999999996,-73.08,-20.6675,-28.0175
1420,345479,0.8957241,-0.047336,-0.8908440999999999,5.2325,-20.3525,-41.265
1421,345575,0.8852321,-0.17128800000000002,-0.5231359999999999,-25.2525,-22.435,-36.1725
1422,345671,0.9906401,-0.15396400000000002,-0.687104,-21.21,0.9625,-26.9675
1423,345767,0.822524,-0.125416,-0.664168,-20.0025,-16.905,-24.29
1424,345864,0.8203280000000001,-0.072956,-0.69784,-21.0525,-9.87,-22.2075
1425,345960,0.781776,-0.053436000000000004,-0.708576,-16.975,-12.81,-18.69
1426,346056,0.7598161,-0.111996,-0.68198,-12.0925,-10.08,-14.3325
1427,346152,0.738588,-0.151036,-0.665632,-9.8,-9.8875,-12.95
1428,346249,0.7259001,-0.1464,-0.6649,-11.585,-10.6575,-14.8925
1429,346345,0.7227279999999999,-0.09613601,-0.6902761,-13.2125,-10.9725,-17.0625
1430,346441,0.738588,-0.057584,-0.6878361,-12.04,-10.395,-16.835
1431,346537,0.7427361,-0.02684,-0.69662,-9.485,-8.47,-14.105
1432,346634,0.7239479999999999,-0.091744,-0.6895439999999999,-4.2,-6.475,-10.0975
1433,346730,0.72224,-0.064172,-0.69052,-3.43,-5.1975,-8.855
1434,346826,0.7241920000000001,-0.075396,-0.681736,-1.925,-3.7275,-7.455
1435,346922,0.7288279999999999,-0.11614400000000001,-0.665632,-0.175,-2.555,-6.3525
1436,347019,0.727608,-0.11541199999999999,-0.66246,-0.5075,-2.73,-7.0875
1437,347115,0.724924,-0.10858,-0.6634359999999999,-1.505,-3.2025,-8.2775
1438,347211,0.716384,-0.09613601,-0.6790520999999999,-1.925,-3.57,-8.7675
1439,347307,0.7195560000000001,-0.09272000000000001,-0.6802720999999999,-1.1725,-2.87,-8.4175
1440,347404,0.71492,-0.09906401,-0.6824680000000001,-0.0525,-1.6625,-7.595
1441,347500,0.7195560000000001,-0.09345201,-0.670512,0.8575,-0.49,-7.28
1442,347596,0.7176041,-0.098088,-0.674172,1.295,0.4025,-7.1575
1443,347692,0.72468,-0.09247601,-0.6709999999999999,1.015,0.8925,-7.525
1444,347788,0.7278521,-0.08637601,-0.666852,0.5775,0.945,-8.2425
1445,347885,0.7232161,-0.10126,-0.660752,-0.1925,0.7875,-9.275
1446,347981,0.7239479999999999,-0.098576,-0.6695361,-1.3825,0.6125,-10.675
1447,348077,0.7217521,-0.091988,-0.669048,-2.065,0.665,-11.725
1448,348174,0.724924,-0.089792,-0.670268,-2.765,0.5775,-12.4425
1449,348270,0.7200439999999999,-0.101992,-0.6649,-3.2375,0.21,-13.1075
1450,348366,0.716384,-0.10809200000000001,-0.669048,-4.165,0.35,-14.7175
1451,348462,0.7134560999999999,-0.096868,-0.677344,-5.3725,1.645,-17.1325
1452,348559,0.7198,-0.079544,-0.671732,-6.0025,4.585,-19.11
1453,348655,0.725168,-0.072956,-0.677344,-6.1075,7.8925,-20.7025
1454,348751,0.7129681,-0.1281,-0.6883239999999999,-6.09,11.865,-21.9275
1455,348847,0.6514800000000001,0.066124,-0.792512,-12.705,18.2875,-23.1875
1456,348944,0.659532,-0.16909200000000002,-0.626104,-13.7025,30.765,-21.6825
1457,349040,0.689056,0.06539201,-0.7712840999999999,-6.5625,46.8825,-21.84
1458,349136,0.674416,0.007808001,-0.7666480999999999,-4.6375,55.44,-21.6825
1459,349232,0.673196,0.024644,-0.7659161,-6.755,68.9675,-16.94
1460,349329,0.6021920000000001,-0.004392,-0.826428,-5.705,81.74251,-10.6925
1461,349425,0.5753520000000001,0.012688,-0.849852,-7.6475,98.4375,-6.7375
1462,349521,0.5160600000000001,-0.0122,-0.815692,-5.8975,118.545,-5.74
1463,349617,0.5121560000000001,0.112728,-0.8549761,-4.2,146.5625,-5.1625
1464,349714,0.326472,-0.07564,-0.879376,2.17,184.9925,2.4675
1465,349810,0.345016,-0.151524,-0.7027201,-7.245,241.9725,7.63
1466,349906,0.749324,0.061732,-0.692228,-21.385,300.7375,-1.96
1467,350002,2.329468,-0.01342,-0.468236,5.1625,340.235,-19.9325
1468,350099,0.508252,0.053924,-1.2517200000000002,44.94,475.405,-15.505
1469,350195,0.799588,0.328912,-2.04716,66.15,566.685,1.225
1470,350291,1.408368,0.142008,-1.209752,96.21500999999999,573.2475,33.7575
1471,350387,1.577948,-0.5309441,-1.009428,142.3275,573.405,63.805
1472,350483,1.943216,-0.660996,-0.7139439999999999,100.9225,573.3525,31.5875
1473,350580,2.958012,-0.883768,-0.9118280000000001,76.1075,559.5974,-0.0525
1474,350676,4.166056,-0.9943001,-3.511892,107.31,530.635,33.8625
1475,350772,3.4391800000000003,-1.88002,-4.200948,138.95,270.76,68.075
1476,350868,2.130852,-1.443016,-3.934256,68.3725,154.0,-5.1975
1477,350965,0.70028,-1.16754,-3.1812720000000003,-97.7025,-99.24251,-40.81
1478,351061,-0.041968,-0.5131319999999999,-2.154032,-125.3,-175.3675,-47.495
1479,351157,-0.116388,-0.287188,-1.8346360000000002,-121.2925,-165.6725,-51.66
1480,351253,0.104676,-0.208132,-1.694824,-91.49,-164.29,-34.335
1481,351350,0.37454,-0.24570799999999998,-1.708488,-50.54,-183.645,-17.2725
1482,351446,0.5511961,-0.346724,-1.677012,-20.51,-215.5825,-2.415
1483,351542,0.642696,-0.402844,-1.555256,-11.165,-254.555,8.8725
1484,351638,0.7183361,-0.347456,-1.3978760000000001,-19.32,-293.58,16.555
1485,351735,0.76982,-0.23424,-1.2056040000000001,-31.1675,-326.2525,22.1725
1486,351831,0.8095920999999999,-0.11834000000000001,-1.030168,-37.695,-350.21,26.88
1487,351927,0.873276,-0.018788,-0.9086559999999999,-37.6075,-365.5225,30.7125
1488,352023,0.9501360999999999,0.05172801,-0.8337481,-32.235,-374.85,33.04
1489,352120,1.021872,0.11345999999999999,-0.806176,-23.695,-379.3475,33.53
1490,352216,1.075308,0.14274,-0.81252,-14.28,-379.2425,31.6925
1491,352312,1.136308,0.14347200000000002,-0.84546,-5.495,-377.545,26.565
1492,352408,1.260504,0.09442801,-0.9415959999999999,0.945,-372.995,17.5875
1493,352504,1.413248,0.014396,-1.0121120000000001,4.585,-367.745,7.035
1494,352601,1.559648,-0.057828,-1.026752,7.98,-362.74,-1.54
1495,352697,1.730448,-0.141032,-1.065792,14.07,-356.72,-4.9
1496,352793,1.990796,-0.248392,-1.1951120000000002,21.9975,-347.4625,-0.6475
1497,352889,2.350696,-0.44115200000000004,-1.350784,30.555,-340.34,9.8525
1498,352986,2.663748,-0.6231760999999999,-1.334924,31.4125,-341.0575,24.9025
1499,353082,2.82552,-0.366732,-0.9867360999999999,19.7925,-345.2575,45.71
1500,353178,2.815028,0.320128,-0.574132,14.5425,-337.4875,72.3625
1501,353274,2.9689919999999996,0.327204,-0.22252800000000003,46.4975,-315.07,89.4075
1502,353371,3.175904,-0.133956,0.141764,58.9925,-289.7825,83.44001
1503,353467,3.153212,-0.4087,0.7217521,15.1025,-273.735,57.2075
1504,353563,2.806244,-0.195444,1.43228,-48.2825,-260.33,28.7175
1505,353659,2.6010400000000002,0.196176,2.03618,-68.72251,-226.94,9.835
1506,353756,2.69742,0.472628,2.479284,-22.4875,-177.7475,2.4675
1507,353852,2.792092,0.407724,2.9487400000000004,60.55,-133.7,5.74
1508,353948,2.679364,0.16811600000000002,3.27814,113.785,-91.6825,6.965
1509,354044,2.512712,-0.03172,3.151748,100.5725,-39.06,-0.5075
1510,354141,2.476112,-0.030256,2.605188,39.3225,21.2975,-14.455
1511,354237,2.3968119999999997,0.141032,1.9239400000000002,-21.2975,67.1475,-30.555
1512,354333,2.2831080000000004,0.320372,1.280268,-42.1925,95.00751,-46.445
1513,354429,0.9089001,0.017568,0.008296000999999999,-16.6775,107.38,-61.075
1514,354526,-3.228852,-0.88328,-4.018924,41.755,126.63,-96.4775
1515,354622,-2.21552,-0.9801479999999999,-0.9850280999999999,-63.245,199.115,-227.5875
1516,354718,3.5611800000000002,-0.471408,1.9715200000000002,-27.265,457.6775,-164.8675
1517,354814,3.494568,-0.03416,0.21276799999999998,-93.8875,398.7025,-18.62
1518,354911,2.766716,0.754692,-1.314916,-14.9275,282.135,39.6725
1519,355007,1.7751,1.168272,-0.6378159999999999,-65.625,263.585,-12.53
1520,355103,1.37616,0.062952,-1.328092,14.7525,225.365,-35.2975
1521,355199,3.8674,-0.8178880999999999,-4.328804,47.145,190.33,-12.46
1522,355296,2.106696,-0.211548,0.43554,-33.1975,47.9675,-14.0875
1523,355392,1.093852,-0.192028,-0.483364,-9.59,-28.3325,-37.45
1524,355488,0.833016,-0.121512,-0.5856,-26.5125,-13.2125,-29.1025
1525,355584,1.022604,-0.010736,-0.7015,-19.9675,-1.9075,-22.68
1526,355681,0.8127641,-0.10492,-0.671976,-15.0675,-12.25,-16.065
1527,355777,0.8244761,-0.045384,-0.715896,-12.565,-6.3525,-11.7075
1528,355873,0.772992,-0.046360000000000005,-0.7017439999999999,-7.7875,-7.49,-7.0
1529,355969,0.7390760000000001,-0.135664,-0.683932,-0.8400001,-4.4975,-2.24
1530,356066,0.727364,-0.169336,-0.6707561,-0.2625,-4.4625,-2.5025
1531,356162,0.729804,-0.12566,-0.6688041,-3.115,-4.585,-5.495
1532,356258,0.74054,-0.075396,-0.675148,-3.6925,-4.305,-6.4925
1533,356354,0.7366361,-0.059536,-0.6763680000000001,-1.5925,-3.465,-4.445
1534,356451,0.72224,-0.11102000000000001,-0.679784,2.625,-2.66,-1.6275
1535,356547,0.72346,-0.073688,-0.68808,2.4675,-1.4875,-0.98
1536,356643,0.72712,-0.132492,-0.663192,5.2325,-0.07,0.42
1537,356739,0.721996,-0.1342,-0.659288,5.4075,0.1925,0.0
1538,356836,0.7315119999999999,-0.099552,-0.6661201,3.605,0.4725,-1.19
1539,356932,0.734196,-0.11955999999999999,-0.658068,4.8475,1.015,-0.7525
1540,357028,0.73078,-0.131272,-0.661484,5.1275,1.435,-0.875
1541,357124,0.7324881,-0.125172,-0.6612401,4.4275,1.7675,-1.6275
1542,357221,0.731268,-0.134932,-0.658068,4.2875,2.2575,-2.17
1543,357317,0.727608,-0.130296,-0.664168,3.64,2.7475,-2.6775
1544,357413,0.730292,-0.12395199999999999,-0.674172,3.0275,2.73,-3.15
1545,357509,0.729072,-0.133956,-0.6673399999999999,2.6425,2.9225,-3.6225
1546,357606,0.729804,-0.14005599999999999,-0.659532,1.9075,3.3425,-4.83
1547,357702,0.73444,-0.136884,-0.659044,0.875,3.535,-6.5275
1548,357798,0.7407841,-0.12566,-0.654652,-0.385,3.465,-8.26
1549,357894,0.743712,-0.1159,-0.656848,-1.225,2.9575,-9.3625
1550,357991,0.7449321,-0.101504,-0.6539201,-1.5225,2.205,-9.7475
1551,358087,0.741272,-0.109556,-0.648308,-1.26,1.9775,-9.4675
1552,358183,0.742004,-0.100284,-0.6646561,-0.875,2.52,-9.17
1553,358279,0.740296,-0.08466801,-0.6724640000000001,-0.21,3.255,-8.9425
1554,358376,0.7381001,-0.113704,-0.6588,0.3325,4.865,-8.8375
1555,358472,0.7407841,-0.12053599999999999,-0.6649,-0.56,5.7925,-9.0125
1556,358568,0.729072,-0.150304,-0.678076,-0.7525,5.7225,-10.2725
1557,358664,0.652456,-0.07588400000000001,-0.8149601,-4.7425,7.385,-12.845
1558,358761,0.696376,-0.155916,-0.708576,-0.63,14.0875,-16.8525
1559,358857,0.706136,-0.143716,-0.68198,-5.39,21.0525,-22.6975
1560,358953,0.7176041,-0.083204,-0.6902761,-6.16,27.65,-26.0925
1561,359049,0.7141881,-0.07978801,-0.69784,-7.3325,34.4225,-27.65
1562,359146,0.685396,-0.090768,-0.7237041,-7.8575,41.58,-28.4725
1563,359242,0.654652,-0.111752,-0.7373681,-9.1875,50.4,-30.6775
1564,359338,0.6451359999999999,-0.118096,-0.75762,-11.6725,61.425,-35.105
1565,359434,0.636596,-0.07173600000000001,-0.7317560000000001,-13.16,73.745,-40.3725
1566,359531,0.6265921,0.005368,-0.768356,-11.725,87.88501,-46.0425
1567,359627,0.515328,-0.080276,-0.8364321,-3.325,108.3775,-50.26
1568,359723,0.48824399999999996,-0.049044,-0.767624,-3.255,142.3275,-58.485
1569,359819,0.514596,-0.01098,-0.749568,1.9425,184.975,-75.28501
1570,359916,0.5751081,-0.094916,-0.8215481,26.7575,230.545,-97.51
1571,360012,0.8025161,-0.27816,-0.9979600000000001,44.485,271.18,-121.555
1572,360108,1.509384,-0.19739600000000002,-0.9423280999999999,46.8125,293.265,-142.275
1573,360204,0.9376921,-0.020496,-1.010892,50.155,364.9975,-151.41
1574,360301,1.284904,0.19642,-1.005768,80.605,426.9125,-145.1975
1575,360397,1.611376,-0.063684,-0.9752681000000001,130.6375,465.185,-132.16
1576,360493,1.379576,-0.27571999999999997,-1.121912,166.53,477.925,-127.05
1577,360589,2.7786720000000003,-0.36478,-2.114016,204.435,451.325,-112.21
1578,360685,3.0890400000000002,-0.503616,-3.3759839999999994,253.6975,396.5325,-76.8775
1579,360782,0.9989360999999999,-1.16632,-3.182492,294.91,94.44751,-87.29
1580,360878,-0.274744,-1.450092,-2.640324,246.6625,-20.685,-114.0825
1581,360974,0.20642399999999997,-1.401292,-2.221132,141.435,-18.305,-87.7625
1582,361070,-0.11467999999999999,-1.081896,-1.699216,112.0,-86.18751,-29.925
1583,361167,-0.004636001,-0.802272,-1.69092,114.66,-89.79251,29.9075
1584,361263,0.25864000000000004,-0.419436,-1.770464,120.505,-101.6225,71.82
1585,361359,0.355752,-0.006344,-1.749236,124.6875,-132.055,94.4825
1586,361456,0.395036,0.41016400000000003,-1.630164,128.0475,-161.8225,97.5625
1587,361552,0.43627200000000005,0.769576,-1.47986,141.5925,-188.23,86.22251
1588,361648,0.532896,0.9716081,-1.373232,166.3025,-208.355,68.6175
1589,361744,0.653432,0.9933241,-1.294176,194.005,-225.3125,50.365
1590,361840,0.772504,0.942572,-1.2312239999999999,213.675,-240.52,33.775
1591,361937,0.830332,0.898408,-1.14802,222.25,-253.7325,20.93
1592,362033,0.874252,0.9091440000000001,-1.083848,223.3875,-261.695,13.2825
1593,362129,0.915976,0.9718521000000001,-1.02846,222.4075,-264.495,10.3775
1594,362225,0.9730721,1.008208,-0.981124,223.1775,-263.55,8.7675
1595,362322,1.007232,0.9967401,-0.9115840000000001,222.915,-260.295,4.4625
1596,362418,1.0208959999999998,0.941108,-0.8647360000000001,217.665,-254.94,-4.83
1597,362514,1.062132,0.8991401,-0.8730319999999999,208.1275,-246.3825,-16.17
1598,362610,1.1163,0.8332601000000001,-0.91012,202.055,-236.6,-23.2575
1599,362707,1.2317120000000001,0.759328,-1.0140639999999999,200.4275,-226.8875,-24.1675
1600,362803,1.3510280000000001,0.741272,-1.107516,197.4875,-221.7425,-22.12
1601,362899,1.4356959999999999,0.780556,-1.105564,194.4775,-223.615,-19.18
1602,362996,1.412028,0.9054840000000001,-0.9779521000000001,191.17,-229.075,-17.465
1603,363092,1.400072,1.127768,-0.809836,188.5275,-227.675,-19.6525
1604,363188,1.4539959999999998,1.405928,-0.624396,192.0275,-218.26,-26.775
1605,363284,1.556476,1.700436,-0.410896,200.025,-203.5075,-40.355
1606,363380,1.733132,1.9175959999999999,-0.21594000000000002,209.3875,-187.3025,-62.9475
1607,363477,1.8870959999999999,1.996652,0.0244,213.64,-173.2675,-95.3925
1608,363573,1.951024,1.9307720000000002,0.329644,210.6475,-160.9825,-133.8225
1609,363669,2.000068,1.669448,0.635864,208.67,-143.605,-168.875
1610,363765,1.972984,1.216828,1.00284,209.125,-121.7125,-189.035
1611,363862,1.887584,0.679784,1.285148,203.2625,-93.8525,-185.465
1612,363958,1.818532,0.247416,1.391532,182.0525,-56.84,-155.3125
1613,364054,1.707024,0.012444,1.3298,145.1625,-19.67,-104.265
1614,364151,1.5135319999999999,0.020496,1.1651,97.755,14.6825,-42.805
1615,364247,1.2634319999999999,-0.7134560999999999,1.993724,50.47,57.4875,11.2525
1616,364343,0.3721,1.112884,1.6409,-105.0525,189.6475,-4.375
1617,364439,3.012668,-0.9864921,-2.201124,-72.0475,325.8325,-42.245
1618,364535,3.443572,0.193004,-1.825852,-133.07,219.24,-106.7325
1619,364632,1.597712,0.6231760999999999,-0.26156799999999997,-226.3275,55.6675,-136.78
1620,364728,1.62992,0.19397999999999999,-1.34932,-146.615,58.52,-54.9325
1621,364824,0.7317560000000001,0.2379,-0.945256,-132.93,11.0425,-14.35
1622,364920,1.03578,0.754204,-0.805688,-111.3875,37.1175,12.0925
1623,365017,1.077748,0.799588,-0.7829961,-72.4675,15.225,8.9775
1624,365113,0.912316,0.16811600000000002,-0.653432,-30.45,5.67,-3.57
1625,365209,0.8247200000000001,-0.09784401,-0.721264,-11.7425,-1.435,-11.06
1626,365305,0.81862,0.004148001,-0.692472,-13.0025,-0.3325,-9.485
1627,365402,0.8015399999999999,-0.06344,-0.66368,-4.7075,-0.6475,-3.0275
1628,365498,0.7515201,-0.089304,-0.6729520999999999,0.63,-1.5225,0.7
1629,365594,0.760792,-0.105652,-0.671244,3.955,-0.56,3.22
1630,365690,0.760792,-0.126636,-0.658556,7.105,-0.5075,5.005
1631,365787,0.761524,-0.152988,-0.665144,8.33,-0.1575,5.67
1632,365883,0.7449321,-0.20691199999999998,-0.6373281,9.135,-0.5075,4.76
1633,365979,0.738588,-0.193004,-0.6463561,7.1575,-0.3325,2.45
1634,366075,0.743468,-0.166164,-0.648308,5.11,0.0875,0.455
1635,366172,0.7442,-0.169336,-0.650748,4.725,0.455,0.49
1636,366268,0.7600600000000001,-0.14688800000000002,-0.6646561,4.06,1.68,0.7175
1637,366364,0.7407841,-0.18446400000000002,-0.6466,4.4975,2.45,0.805
1638,366460,0.73688,-0.18470799999999998,-0.658068,3.9375,3.5875,1.0675
1639,366557,0.734684,-0.20447200000000001,-0.6375721,2.8,4.62,0.7525
1640,366653,0.735172,-0.16128399999999998,-0.663924,1.8725,5.74,-0.07
1641,366749,0.740052,-0.195444,-0.647332,2.38,5.32,-2.1
1642,366845,0.73932,-0.190564,-0.644404,1.5225,5.6175,-4.1125
1643,366942,0.739808,-0.18446400000000002,-0.6414761,1.015,6.0375,-5.4775
1644,367038,0.7266321,-0.148108,-0.6463561,1.015,6.7025,-6.405
1645,367134,0.746152,-0.205936,-0.6097560000000001,4.0075,7.2275,-7.91
1646,367230,0.742492,-0.189344,-0.6182960999999999,3.0625,7.9625,-9.94
1647,367327,0.750544,-0.16909200000000002,-0.636596,5.7925,8.3475,-11.2
1648,367423,0.743712,-0.183976,-0.636108,8.33,8.8725,-12.5475
1649,367519,0.7417600000000001,-0.170312,-0.650016,9.835,9.625,-14.805
1650,367615,0.6602640000000001,-0.292556,-0.656116,12.775,10.5875,-18.2525
1651,367712,0.740296,-0.156648,-0.662948,6.9125,15.47,-25.9875
1652,367808,0.735172,-0.158356,-0.6763680000000001,19.3025,15.6275,-32.585
1653,367904,0.71858,-0.2074,-0.6517241,31.5525,15.7675,-42.1225
1654,368000,0.726144,-0.18544000000000002,-0.656116,46.0775,14.595,-53.725
1655,368097,0.72712,-0.22472399999999998,-0.6307401,60.34,13.825,-65.6775
1656,368193,0.749568,-0.174948,-0.618052,73.29,13.44,-77.8225
1657,368289,0.7476161,-0.194956,-0.6168319999999999,87.46500999999999,12.4425,-88.11251
1658,368385,0.777872,-0.17812,-0.5838920999999999,96.63501,12.5825,-96.70501
1659,368482,0.791536,-0.17055599999999999,-0.567788,100.52,12.845,-101.7975
1660,368578,0.794952,-0.179828,-0.565104,103.1975,12.6175,-104.1775
1661,368674,0.792756,-0.151036,-0.571448,100.0825,14.385,-103.88
1662,368770,0.7856801,-0.11467999999999999,-0.591212,94.72751,18.27,-100.205
1663,368866,0.796904,-0.089792,-0.59536,88.795,25.8825,-93.555
1664,368963,0.795928,-0.05563200000000001,-0.604632,81.77750999999999,31.7975,-84.00001
1665,369059,0.780556,-0.052703999999999994,-0.61488,74.445,37.765,-73.3075
1666,369155,0.7820199999999999,-0.05636401,-0.621224,67.795,44.695,-63.5075
1667,369252,0.789828,-0.04148,-0.6039,63.735,52.3075,-55.685
1668,369348,0.794952,-0.037332,-0.597312,66.01,60.8475,-49.8575
1669,369444,0.7983680000000001,0.004148001,-0.642696,73.8325,71.155,-46.3575
1670,369540,0.749568,-0.03904,-0.7224841,88.51501,87.4125,-44.1525
1671,369637,0.708088,-0.09882,-0.7439560000000001,99.435,114.03,-45.36
1672,369733,0.7266321,-0.038308,-0.74542,109.7425,148.1025,-52.955
1673,369829,1.055056,-0.06929600000000001,-0.7515201,141.5575,187.845,-61.775
1674,369925,1.07482,-0.190076,-0.877912,192.255,247.905,-61.32
1675,370022,0.74664,-0.071492,-1.003572,228.585,323.155,-50.435
1676,370118,0.9250040999999999,0.126636,-1.042612,242.1825,362.32,-37.345
1677,370214,1.41398,0.09223200000000001,-0.8405800999999999,256.8475,368.375,-15.47
1678,370310,1.432768,-0.000976,-0.946232,264.25,377.475,4.3925
1679,370407,1.301496,-0.18544000000000002,-0.998692,295.995,379.925,30.555
1680,370503,1.9241840000000001,-0.36722,-0.674416,323.4,380.7825,41.79
1681,370599,2.6510599999999998,-0.6897880999999999,-1.711416,368.76,411.1625,89.845
1682,370695,2.649596,-1.1385040000000002,-2.3794880000000003,375.13,273.7875,111.6325
1683,370791,0.904508,-1.20902,-2.660332,316.995,78.4,22.61
1684,370888,1.247572,-0.738344,-2.6644799999999997,189.9625,35.1575,-32.7075
1685,370984,0.66856,-0.5292359999999999,-2.573712,99.89,-92.225,-32.305
1686,371080,0.38918,-0.15396400000000002,-1.785836,78.3825,-167.9125,-23.0475
1687,371176,0.29377600000000004,-0.049776,-1.596248,82.6525,-190.575,-8.05
1688,371273,0.418704,0.044896,-1.494744,93.2925,-197.7675,11.55
1689,371369,0.576816,0.14005599999999999,-1.474492,101.885,-213.5175,29.3475
1690,371465,0.6897880999999999,0.29402,-1.4339879999999998,101.395,-234.78,41.335
1691,371561,0.7747001,0.489708,-1.3773799999999998,96.005,-259.525,44.73
1692,371658,0.81618,0.7227279999999999,-1.2780719999999999,92.5925,-283.1675,39.725
1693,371754,0.841556,0.9032879999999999,-1.1636360000000001,96.7575,-302.6625,28.9625
1694,371850,0.9042641,1.000888,-1.0650600000000001,106.89,-315.1925,14.385
1695,371946,0.987712,1.050664,-0.9940559999999999,117.4075,-323.3125,-1.26
1696,372043,1.0523719999999999,1.074332,-0.9298841,125.8775,-328.825,-16.8875
1697,372139,1.106784,1.089948,-0.8657120999999999,131.3375,-331.5025,-31.2375
1698,372235,1.15656,1.087508,-0.8166680000000001,134.365,-330.75,-44.2575
1699,372331,1.229028,1.063596,-0.780556,135.3975,-327.145,-56.9625
1700,372428,1.29198,1.0260200000000002,-0.7483479999999999,133.35,-321.1425,-69.51
1701,372524,1.360544,0.9825879999999999,-0.726388,129.5875,-313.53,-81.55001
1702,372620,1.43472,0.942572,-0.7141881,124.95,-304.4125,-93.1175
