,T,ax,ay,az,gx,gy,gz
0,532,0.665144,-0.06661201,-0.5404601,13.9125,-14.91,-13.9825
1,685,0.6902761,-0.058803999999999995,-0.630252,76.2825,-75.6875,-37.205
2,782,0.73932,-0.062464,-0.67466,123.1125,-149.66,-50.085
3,880,0.7427361,-0.061,-0.6707561,64.61,-112.5425,-35.7
4,977,0.7388319999999999,-0.06270801,-0.671732,3.675,-5.1625,-3.92
5,1074,0.7388319999999999,-0.06270801,-0.672708,2.135,-2.3275,-2.975
6,1171,0.7390760000000001,-0.06563601,-0.671244,2.0825,-2.2225,-2.975
7,1268,0.738588,-0.06124401,-0.6736840000000001,1.9775,-2.2925,-2.9925
8,1365,0.73932,-0.061732,-0.6734399999999999,1.9075,-2.2925,-2.9925
9,1462,0.739808,-0.061732,-0.6736840000000001,1.9075,-2.24,-2.9925
10,1559,0.7417600000000001,-0.062952,-0.6736840000000001,1.925,-2.24,-3.0275
11,1656,0.739564,-0.060512,-0.674172,1.925,-2.1875,-3.1325
12,1753,0.7381001,-0.06270801,-0.6729520999999999,1.925,-2.24,-3.0975
13,1850,0.740052,-0.06075601,-0.673928,1.995,-2.205,-3.185
14,1947,0.7422481,-0.061975999999999996,-0.674172,1.9425,-2.17,-3.115
15,2044,0.73932,-0.06124401,-0.672708,1.89,-2.205,-2.9925
16,2142,0.741028,-0.063684,-0.6722199999999999,1.995,-2.1875,-3.01
17,2239,0.740052,-0.061732,-0.673928,1.8725,-2.2225,-3.0275
18,2336,0.740296,-0.06075601,-0.674172,1.9775,-2.275,-3.0275
19,2433,0.73932,-0.06270801,-0.673196,1.855,-2.135,-3.08
20,2530,0.739564,-0.062464,-0.671976,1.9425,-2.135,-3.0975
21,2627,0.739564,-0.062220000000000004,-0.674416,1.855,-2.17,-3.115
22,2724,0.739564,-0.061975999999999996,-0.671732,1.8725,-2.17,-3.1325
23,2821,0.739564,-0.061732,-0.671732,1.925,-2.17,-3.1325
24,2918,0.73932,-0.061488,-0.671244,1.995,-2.24,-3.1675
25,3015,0.7390760000000001,-0.06124401,-0.673928,1.96,-2.1525,-3.115
26,3112,0.7388319999999999,-0.061,-0.674172,1.995,-2.1875,-3.0975
27,3209,0.73932,-0.061732,-0.671976,1.9775,-2.17,-3.0625
28,3306,0.73932,-0.06075601,-0.673928,1.89,-2.17,-3.08
29,3403,0.740052,-0.061975999999999996,-0.6753920999999999,1.89,-2.135,-3.0275
30,3500,0.740052,-0.060267999999999995,-0.6729520999999999,1.925,-2.1525,-3.045
31,3598,0.73932,-0.061975999999999996,-0.6749041,1.96,-2.1875,-3.045
32,3695,0.73932,-0.061975999999999996,-0.6734399999999999,1.96,-2.1525,-3.115
33,3792,0.7388319999999999,-0.062952,-0.6707561,1.995,-2.2225,-3.08
34,3889,0.7388319999999999,-0.06270801,-0.6729520999999999,1.9425,-2.17,-3.115
35,3986,0.7388319999999999,-0.062952,-0.671732,1.925,-2.1525,-3.1325
36,4083,0.73932,-0.061732,-0.671976,1.9075,-2.135,-3.185
37,4180,0.7388319999999999,-0.060512,-0.673196,1.96,-2.205,-3.15
38,4277,0.73932,-0.06124401,-0.6734399999999999,1.96,-2.205,-3.15
39,4374,0.73932,-0.063196,-0.671244,1.89,-2.205,-3.0975
40,4471,0.738588,-0.061975999999999996,-0.6724640000000001,1.9075,-2.2225,-3.0625
41,4568,0.73932,-0.061732,-0.6722199999999999,1.925,-2.1175,-3.08
42,4665,0.738588,-0.06270801,-0.672708,1.995,-2.2225,-2.975
43,4763,0.739808,-0.061,-0.671488,1.96,-2.24,-3.0975
44,4860,0.7417600000000001,-0.062464,-0.6736840000000001,1.9425,-2.065,-3.01
45,4957,0.741028,-0.06075601,-0.6722199999999999,1.89,-2.065,-3.045
46,5054,0.7422481,-0.061,-0.671488,1.89,-2.1175,-3.045
47,5151,0.739564,-0.061732,-0.671244,1.9075,-2.1875,-3.08
48,5248,0.739808,-0.063928,-0.6722199999999999,1.9775,-2.1525,-3.0275
49,5345,0.739808,-0.061,-0.6724640000000001,1.9075,-2.1525,-3.0975
50,5442,0.74054,-0.060267999999999995,-0.674172,1.855,-2.135,-3.08
51,5539,0.739564,-0.060267999999999995,-0.673928,1.8725,-2.205,-2.9925
52,5636,0.7388319999999999,-0.061975999999999996,-0.671732,1.9775,-2.1525,-2.9575
53,5733,0.738344,-0.062464,-0.6722199999999999,1.9425,-2.17,-3.0975
54,5830,0.73932,-0.061732,-0.673196,1.925,-2.0825,-3.0625
55,5927,0.741272,-0.063684,-0.6722199999999999,2.0125,-2.205,-3.1675
56,6025,0.74054,-0.063196,-0.6709999999999999,1.925,-2.1,-3.0625
57,6122,0.740296,-0.063928,-0.671732,1.9075,-2.205,-3.0975
58,6219,0.742004,-0.063196,-0.67466,1.9775,-2.275,-3.1325
59,6316,0.739808,-0.061975999999999996,-0.671488,1.925,-2.2575,-3.2375
60,6413,0.740296,-0.06270801,-0.669048,1.9075,-2.275,-3.15
61,6510,0.73932,-0.061,-0.6724640000000001,1.96,-2.3275,-3.1325
62,6607,0.73932,-0.06075601,-0.6729520999999999,1.96,-2.24,-3.0625
63,6704,0.738344,-0.06075601,-0.6724640000000001,1.9425,-2.24,-3.0975
64,6801,0.740052,-0.061732,-0.6707561,1.96,-2.205,-3.1675
65,6898,0.738344,-0.061,-0.671488,1.89,-2.1525,-3.15
66,6995,0.739564,-0.06344,-0.671488,1.96,-2.2925,-3.08
67,7092,0.741028,-0.06124401,-0.670268,1.925,-2.2925,-3.01
68,7189,0.7415161,-0.060267999999999995,-0.669292,1.96,-2.4325,-2.9925
69,7287,0.742492,-0.060024,-0.670512,1.9425,-2.2925,-3.01
70,7384,0.7390760000000001,-0.061,-0.673196,1.995,-2.31,-2.975
71,7481,0.7415161,-0.060024,-0.66978,1.995,-2.38,-3.01
72,7578,0.7381001,-0.061732,-0.671976,2.0125,-2.345,-2.94
73,7675,0.738588,-0.06270801,-0.6707561,1.96,-2.38,-3.045
74,7772,0.738344,-0.061732,-0.671976,2.03,-2.275,-2.975
75,7869,0.739564,-0.06466001,-0.671976,1.96,-2.3625,-3.08
76,7966,0.7388319999999999,-0.063928,-0.669292,1.925,-2.3975,-3.115
77,8063,0.739564,-0.061,-0.6749041,1.9425,-2.24,-3.0975
78,8160,0.739808,-0.06270801,-0.6707561,1.9425,-2.24,-3.1325
79,8257,0.73932,-0.06124401,-0.6707561,1.89,-2.2575,-3.0625
80,8354,0.7417600000000001,-0.05929201,-0.6709999999999999,1.995,-2.2575,-2.9925
81,8452,0.738588,-0.06124401,-0.6709999999999999,2.03,-2.24,-2.8875
82,8549,0.74054,-0.063196,-0.6734399999999999,2.03,-2.24,-2.8875
83,8646,0.740052,-0.06466001,-0.672708,2.0825,-2.3275,-2.905
84,8743,0.7373681,-0.06588,-0.6688041,2.065,-2.2575,-2.9925
85,8840,0.7376119999999999,-0.061,-0.671488,2.0125,-2.31,-3.0625
86,8937,0.7388319999999999,-0.061732,-0.6722199999999999,2.0475,-2.275,-2.94
87,9034,0.7388319999999999,-0.060024,-0.673928,2.0125,-2.38,-2.9925
88,9131,0.7378560000000001,-0.06490399999999999,-0.672708,2.03,-2.2575,-2.9575
89,9228,0.739808,-0.062952,-0.671488,1.925,-2.205,-3.0625
90,9325,0.740052,-0.062464,-0.6695361,1.96,-2.1525,-3.045
91,9422,0.7388319999999999,-0.06124401,-0.671732,1.8725,-2.135,-3.045
92,9519,0.739564,-0.061,-0.671488,1.925,-2.135,-3.045
93,9617,0.7390760000000001,-0.060512,-0.67466,1.96,-2.2225,-3.08
94,9714,0.7378560000000001,-0.060024,-0.6729520999999999,1.96,-2.135,-3.0275
95,9811,0.738588,-0.060512,-0.674172,1.925,-2.065,-3.0975
96,9908,0.738344,-0.061488,-0.6722199999999999,1.925,-2.1525,-3.185
97,10005,0.738588,-0.062220000000000004,-0.670512,1.8725,-2.0825,-3.0275
98,10102,0.7390760000000001,-0.06344,-0.670024,1.96,-2.0825,-3.045
99,10199,0.73932,-0.062220000000000004,-0.670512,1.96,-2.1525,-3.01
100,10296,0.738588,-0.061975999999999996,-0.671488,1.9425,-2.1525,-3.0625
101,10393,0.742004,-0.063684,-0.673928,1.7325,-2.17,-3.115
102,10490,0.739564,-0.059048,-0.675148,1.4875,-2.4325,-3.36
103,10587,0.74542,-0.06563601,-0.6729520999999999,1.155,-2.625,-3.43
104,10684,0.741028,-0.049288,-0.678076,0.0875,-3.185,-3.4475
105,10782,0.744688,-0.05246,-0.676856,-1.1375,-4.725,-3.255
106,10879,0.7361481,-0.0671,-0.679784,-2.135,-6.8425,-2.8
107,10976,0.7442,-0.06832001,-0.667828,-2.9575,-7.9975,-3.01
108,11073,0.74054,-0.07027201,-0.680516,-3.1675,-8.715,-3.745
109,11170,0.740052,-0.07612801,-0.6802720999999999,-3.465,-8.785,-4.7775
110,11267,0.742492,-0.07027201,-0.6832,-4.5675,-9.345,-5.6525
111,11364,0.738588,-0.07637200000000001,-0.685884,-5.2675,-9.38,-6.51
112,11461,0.7439560000000001,-0.061732,-0.680516,-5.88,-8.9075,-7.28
113,11558,0.7324881,-0.050752,-0.681736,-6.3875,-9.1875,-7.525
114,11655,0.7388319999999999,-0.072956,-0.671976,-5.8625,-8.3475,-7.9625
115,11752,0.7390760000000001,-0.0549,-0.6822239999999999,-6.4225,-7.665,-8.4
116,11849,0.721264,-0.035624,-0.67832,-6.72,-7.3675,-8.435
117,11946,0.7327321,-0.054412,-0.684664,-5.9325,-6.58,-8.1375
118,12044,0.72956,-0.03782,-0.684176,-5.95,-5.95,-7.3325
119,12141,0.7473721,-0.06270801,-0.681736,-6.37,-5.635,-7.245
120,12238,0.7329760000000001,-0.0305,-0.6729520999999999,-7.49,-6.5275,-7.2975
121,12335,0.7356600000000001,-0.037088,-0.6790520999999999,-7.175,-6.23,-7.7525
122,12432,0.738344,-0.048068,-0.6851520999999999,-6.6675,-6.72,-7.7875
123,12529,0.7442,-0.022203999999999998,-0.6600201,-7.3325,-6.7025,-7.7
124,12626,0.7227279999999999,-0.05172801,-0.6802720999999999,-6.7375,-6.2125,-7.805
125,12723,0.7217521,-0.039772,-0.686372,-6.6325,-5.425,-8.5575
126,12820,0.720776,-0.022692,-0.687348,-7.035,-4.795,-8.68
127,12917,0.715896,-0.022692,-0.682956,-6.1775,-4.1125,-8.68
128,13014,0.7168720000000001,-0.021472,-0.684908,-5.3025,-3.4125,-8.4175
129,13111,0.7168720000000001,-0.014884,-0.6824680000000001,-4.48,-2.905,-8.05
130,13209,0.7217521,-0.011468,-0.6832,-3.4825,-2.24,-7.4375
131,13306,0.7224841,-0.011956,-0.684908,-2.415,-1.9075,-6.8425
132,13403,0.7227279999999999,-0.017324000000000003,-0.6836880999999999,-1.575,-1.715,-6.3
133,13500,0.7239479999999999,-0.014152000000000001,-0.6822239999999999,-0.9975,-1.47,-5.7575
134,13597,0.7237041,-0.018788,-0.6822239999999999,-0.4375,-1.2775,-5.2325
135,13694,0.72468,-0.015128,-0.681492,0.1225,-1.0325,-4.83
136,13791,0.726144,-0.016836,-0.686372,0.5775,-0.805,-4.41
137,13888,0.7283400999999999,-0.016836,-0.681492,1.05,-0.7875,-4.1125
138,13985,0.726876,-0.020496,-0.68076,1.47,-0.6475,-3.7625
139,14082,0.725412,-0.02074,-0.679296,1.9075,-0.2275,-3.4125
140,14179,0.7256560000000001,-0.021716,-0.678808,2.4325,0.07,-3.0275
141,14276,0.7266321,-0.0183,-0.679784,3.045,0.385,-2.625
142,14374,0.726388,-0.013908000000000002,-0.6763680000000001,3.7625,0.7875,-2.135
143,14471,0.720532,-0.0122,-0.6763680000000001,4.655,1.19,-1.5225
144,14568,0.7232161,-0.00976,-0.678076,5.81,1.995,-0.8400001
145,14665,0.721508,-0.008296000999999999,-0.6802720999999999,7.0875,2.765,-0.175
146,14762,0.7168720000000001,-0.009272001,-0.6736840000000001,8.54,3.64,0.7
147,14859,0.7068681,-0.010248,-0.671732,10.1325,4.55,1.3825
148,14956,0.7015,-0.017812,-0.683932,11.9875,5.74,2.2925
149,15053,0.6883239999999999,-0.027572000000000003,-0.6451359999999999,13.4575,6.755,2.9575
150,15150,0.6912520000000001,-0.024644,-0.6756361,14.1225,7.9625,4.515
151,15247,0.7117479999999999,-0.061975999999999996,-0.6802720999999999,16.2225,9.5725,5.075
152,15344,0.73078,-0.0732,-0.679296,14.3325,10.675,4.375
153,15442,0.741028,-0.07417601,-0.687104,11.8825,11.3575,2.275
154,15539,0.7288279999999999,-0.053436000000000004,-0.702476,9.415,13.125,-0.245
155,15636,0.712724,-0.046360000000000005,-0.707356,8.155,17.3425,-2.8875
156,15733,0.66246,-0.135664,-0.740052,6.6675,25.585,-5.95
157,15830,0.6224441,-0.23546,-0.7998321,-2.31,37.8175,-8.8025
158,15927,0.390156,0.44773999999999997,-1.493768,-19.81,59.0275,-9.065
159,16024,0.658312,-0.166164,-0.7605481,14.9625,85.68,-1.8025
160,16121,0.6304960000000001,0.060267999999999995,-0.9591639999999999,2.4325,115.3425,0.56
161,16218,0.644648,-0.07637200000000001,-0.9962521000000001,8.295,143.78,5.425
162,16315,0.661972,-0.139568,-0.9711200999999999,0.2275,164.4475,11.55
163,16412,0.8254520000000001,-0.09320801,-0.993812,-20.79,182.7525,18.2175
164,16509,0.8884040000000001,-0.04148,-1.0889719999999998,-45.885,190.575,25.83
165,16607,0.854244,-0.026351999999999997,-1.52988,-74.8825,185.3075,34.7025
166,16704,0.42065600000000003,0.194224,-1.911252,-99.435,155.19,50.96
167,16801,0.022936,0.49532,-2.068388,-104.09,112.6475,63.42
168,16898,-0.108824,0.7869,-2.274568,-94.88501,74.83,59.4475
169,16995,0.066856,0.797148,-2.529304,-65.275,29.015,44.485
170,17092,-0.29987600000000003,0.5948720000000001,-2.2955520000000003,-34.5275,-33.355,27.2475
171,17189,-0.444324,0.37746799999999997,-2.085956,-23.6775,-78.015,9.6075
172,17286,-0.3111,0.22448,-2.014952,-28.5425,-101.57,-4.0075
173,17383,-0.11126400000000002,0.155916,-1.9959200000000001,-38.0625,-124.25,-12.6875
174,17480,0.034892,0.12322000000000001,-1.9351639999999999,-41.6325,-150.7975,-17.1325
175,17577,0.18104800000000001,0.06344,-1.81902,-36.5925,-175.2275,-18.7775
176,17674,0.3477,-0.011224,-1.6982400000000002,-28.2975,-194.0575,-20.3175
177,17771,0.532896,-0.085156,-1.576484,-21.245,-208.1625,-23.1875
178,17868,0.721508,-0.127368,-1.46644,-16.205,-218.085,-26.565
179,17965,0.8884040000000001,-0.141032,-1.337852,-11.8125,-223.7725,-28.77
180,18063,1.02236,-0.15494000000000002,-1.1892559999999999,-6.7375,-224.7175,-28.84
181,18160,1.10776,-0.16835999999999998,-1.025776,-3.15,-220.325,-27.265
182,18257,1.156072,-0.177144,-0.8740081000000001,-2.6425,-210.2975,-24.85
183,18354,1.17364,-0.188124,-0.748592,-6.9825,-195.16,-23.415
184,18451,1.2117040000000001,-0.172508,-0.6653880999999999,-15.9775,-176.8725,-24.815
185,18548,1.2585520000000001,-0.16128399999999998,-0.6070720000000001,-26.18,-159.285,-28.3325
186,18645,1.311012,-0.134688,-0.5612,-34.9825,-144.725,-31.955
187,18742,1.3266280000000001,-0.06954,-0.525088,-39.445,-134.435,-34.685
188,18839,1.352492,-0.013663999999999999,-0.483608,-36.05,-128.5025,-35.84
189,18936,1.366644,-0.007808001,-0.42065600000000003,-25.2875,-126.0525,-34.965
190,19033,1.316868,-0.05563200000000001,-0.298412,-11.83,-127.05,-32.9175
191,19131,1.277096,-0.17128800000000002,-0.1281,-2.835,-127.8725,-30.275
192,19228,1.238544,-0.28548,0.116632,-2.87,-127.0325,-25.06
193,19325,1.140944,-0.3294,0.406016,-12.53,-122.0625,-16.0125
194,19422,1.037488,-0.336964,0.699548,-24.99,-106.75,-4.6375
195,19519,0.9501360999999999,-0.294752,0.889136,-36.435,-78.7675,5.74
196,19616,0.956968,-0.215696,0.876692,-41.405,-41.755,12.3025
197,19713,1.0025959999999998,-0.132492,0.7415161,-36.2075,-6.2475,15.47
198,19810,1.086776,-0.05563200000000001,0.546804,-21.8575,21.665,16.59
199,19907,1.154608,-0.004148001,0.4026,-1.1025,39.3575,16.8
200,20004,1.238056,0.022203999999999998,0.300608,21.42,49.0875,15.61
201,20101,1.319552,0.011224,0.25986,42.035,52.885,11.6375
202,20198,1.3285799999999999,-0.041968,0.310856,58.2575,54.425,6.2125
203,20295,1.342732,-0.13761600000000002,0.384788,68.4775,60.9525,1.68
204,20392,1.403,-0.236436,0.387472,69.755,73.43,-1.47
205,20489,1.1285,-0.44725200000000004,0.13859200000000002,62.4225,85.85501,-1.715
206,20587,-1.029436,0.9455,-4.061380000000001,17.2725,126.77,10.2375
207,20684,-1.48718,0.47506800000000005,-3.7358839999999995,40.915,145.2325,67.7425
208,20781,2.261148,-0.155184,1.253916,19.705,278.1275,73.92
209,20878,1.7504560000000002,-0.25132,0.667828,38.325,159.18,64.19
210,20975,2.471964,0.0549,-1.4374040000000001,14.945,245.9625,26.74
211,21072,1.154364,0.030987999999999998,-0.609024,41.58,150.71,25.41
212,21169,1.1211799999999998,-0.6082920999999999,-0.30744,51.9575,146.055,13.72
213,21266,1.143628,-0.936716,-0.8927959999999999,34.4575,152.39,-5.215
214,21363,0.726144,-0.30841599999999997,-0.8296,-5.355,136.5,-6.125
215,21460,2.980948,0.80276,-2.719624,-25.8825,134.8725,-16.415
216,21557,0.9638,0.013663999999999999,0.446032,48.79,17.4475,-6.1775
217,21654,1.0262639999999998,-0.321592,-0.8805960999999999,22.6275,6.5975,4.1825
218,21751,0.87108,-0.057096,-0.791048,16.3975,-3.57,3.395
219,21849,0.803248,-0.060267999999999995,-0.659044,9.9225,6.1075,0.105
220,21946,0.8471681000000001,-0.033428,-0.68808,9.17,1.33,0.4375
221,22043,0.7890961,-0.027327999999999998,-0.687348,8.925,-0.525,1.6625
222,22140,0.764452,-0.096868,-0.676124,10.2375,-1.1025,2.345
223,22237,0.757864,-0.06075601,-0.690764,7.6125,-1.3125,1.19
224,22334,0.7378560000000001,-0.038796,-0.6902761,6.965,-1.6975,0.14
225,22431,0.731268,-0.056852,-0.69418,7.28,-1.54,0.1925
226,22528,0.72712,-0.05587601,-0.696132,7.5425,-1.365,0.4725
227,22625,0.725412,-0.0488,-0.684664,7.49,-1.0675,0.4375
228,22722,0.7224841,-0.05636401,-0.6893,7.5075,-1.435,0.525
229,22819,0.7227279999999999,-0.06929600000000001,-0.684664,7.4375,-2.135,0.595
230,22917,0.72468,-0.044896,-0.692716,6.7375,-2.66,0.77
231,23014,0.7227279999999999,-0.05587601,-0.673196,7.6825,-3.5175,1.9075
232,23111,0.72102,-0.05636401,-0.668316,8.05,-4.025,2.555
233,23208,0.725412,-0.043432,-0.670268,8.75,-4.4975,3.4825
234,23305,0.716384,-0.027572000000000003,-0.6954,9.7125,-6.0375,5.915
235,23402,0.726144,0.033184,-0.7041841,11.2,-7.9975,9.52
236,23499,0.733708,0.035624,-0.681736,13.16,-8.9775,13.4925
237,23596,0.7327321,-0.013663999999999999,-0.6785640000000001,14.98,-8.5925,17.4125
238,23693,0.736392,-0.028304000000000003,-0.70516,16.485,-9.2225,21.1575
239,23790,0.72224,-0.058316,-0.701012,17.3425,-9.38,22.2775
240,23887,0.720288,-0.08442401,-0.687104,16.4325,-7.9975,22.4875
241,23985,0.715408,-0.131028,-0.6893,16.03,-6.86,21.5775
242,24082,0.7078439999999999,-0.14396,-0.7032079999999999,14.21,-5.11,18.5675
243,24179,0.7046720999999999,-0.126148,-0.6946681,11.8475,-3.185,15.4175
244,24276,0.71736,-0.125416,-0.6824680000000001,10.115,-1.155,13.0725
245,24373,0.715164,-0.128344,-0.7141881,9.66,0.4725,12.1975
246,24470,0.715164,-0.07344400000000001,-0.6954,9.1,2.0125,11.41
247,24567,0.72102,-0.11102000000000001,-0.681492,9.1,3.5175,11.5325
248,24664,0.716384,-0.082716,-0.72102,8.33,5.32,12.39
249,24761,0.703696,-0.09052401,-0.7227279999999999,9.9575,7.455,13.475
250,24858,0.691496,-0.10052799999999999,-0.7283400999999999,12.0575,10.5175,14.0875
251,24955,0.6470880999999999,-0.217404,-0.7478600000000001,16.87,14.0175,13.3
252,25052,0.667096,-0.08466801,-0.81252,12.8975,21.455,11.235
253,25150,0.654652,-0.13664,-0.7278521,14.8225,31.8325,11.1825
254,25247,0.6527,-0.167628,-0.7551800000000001,14.385,43.085,10.8325
255,25344,0.636596,-0.126148,-0.8447280999999999,17.2025,53.6025,9.975
256,25441,0.6502600000000001,-0.18788,-0.7327321,20.7025,65.4675,7.63
257,25538,0.6409881,-0.14347200000000002,-0.7822640000000001,20.825,78.8375,4.97
258,25635,0.633424,-0.187148,-0.760304,25.0075,92.41751,1.9075
259,25732,0.609268,-0.209352,-0.7944641,28.6825,107.0125,-1.1375
260,25829,0.601704,-0.170068,-0.8378960999999999,32.34,123.27,-4.5675
261,25926,0.5846241,-0.162992,-0.8210601000000001,39.025,141.225,-8.2775
262,26023,0.5502199999999999,-0.16592,-0.8310639999999999,43.855,162.5925,-11.0425
263,26120,0.539484,-0.15494000000000002,-0.826672,49.14,185.7275,-13.6675
264,26217,0.5185,-0.16348,-0.7861680999999999,54.04,211.365,-16.555
265,26314,0.47336000000000006,-0.20691199999999998,-0.757864,63.21,241.99,-23.415
266,26411,0.46238,-0.098088,-0.644404,80.2025,279.51,-35.0525
267,26509,0.43505200000000005,-0.217648,-0.406992,103.495,326.2175,-44.835
268,26606,0.553392,-0.456768,-0.21301199999999998,108.045,387.5375,-55.51
269,26703,1.1270360000000001,-0.593896,-0.24034,87.43,470.5225,-72.7825
270,26800,2.440976,-0.8103239999999999,-0.71492,34.5625,542.815,-89.005
271,26897,2.330932,-0.226188,-1.0828719999999998,-48.58,560.5075,-109.865
272,26994,2.81332,0.37112399999999995,-1.517436,-82.775,573.16,-107.59
273,27091,3.44162,0.9967401,-2.062776,-69.51,568.6275,-67.8125
274,27188,3.4438160000000004,0.582428,-1.3908,-19.81,556.2725,-20.2475
275,27285,3.2769199999999996,0.609268,-2.6047,-42.2275,522.7075,26.67
276,27382,2.637152,1.13704,-3.8005440000000004,-90.00251,400.1725,49.805
277,27479,3.046096,1.263676,-3.917664,-51.9575,165.9,62.5625
278,27576,1.77388,1.4452120000000002,-3.515308,-14.91,-36.61,37.6775
279,27673,0.5753520000000001,0.927932,-2.353136,33.81,-188.895,37.8525
280,27771,0.316956,0.536068,-1.735328,54.005,-177.065,39.7425
281,27868,0.639524,0.288164,-1.6745720000000002,45.8675,-170.7125,24.2725
282,27965,0.800808,0.256444,-1.6857959999999999,17.5525,-190.0675,1.645
283,28062,0.8510719999999999,0.27279200000000003,-1.6469999999999998,-5.9675,-234.4475,-15.575
284,28159,0.8479,0.256932,-1.502796,-10.465,-281.4,-22.2075
285,28256,0.772016,0.20105599999999998,-1.287588,-4.4975,-324.7125,-22.75
286,28353,0.6956439999999999,0.091012,-1.0704280000000002,4.025,-358.2775,-23.1525
287,28450,0.6558721,-0.02196,-0.8996280999999999,7.07,-379.96,-26.46
288,28547,0.676856,-0.122732,-0.7998321,2.6425,-391.9125,-31.9025
289,28644,0.6954,-0.19032000000000002,-0.743224,-6.0375,-398.2825,-36.33
290,28741,0.7168720000000001,-0.25254,-0.7200439999999999,-15.96,-400.7325,-36.575
291,28838,0.7483479999999999,-0.337208,-0.716384,-26.4775,-398.4225,-32.025
292,28935,0.843508,-0.364292,-0.733708,-41.825,-392.2975,-23.905
293,29033,0.9337880999999999,-0.342088,-0.73444,-60.41,-385.315,-15.1725
294,29130,1.0565200000000001,-0.319884,-0.7366361,-78.925,-377.2475,-8.6625
295,29227,1.245132,-0.26913200000000004,-0.815692,-94.43,-365.2425,-7.245
296,29324,1.4032440000000002,-0.20447200000000001,-0.9137799999999999,-104.1775,-354.1825,-11.6725
297,29421,1.524512,-0.221552,-1.037244,-106.2775,-344.6975,-21.735
298,29518,1.93248,-0.28304,-1.3322399999999999,-106.9075,-331.8525,-35.735
299,29615,2.3977880000000003,-0.242048,-1.5525719999999998,-106.5575,-330.225,-49.035
300,29712,2.60836,-0.200324,-1.415932,-97.3175,-346.0975,-55.16
301,29809,2.600552,-0.23521599999999998,-0.9467200000000001,-78.1025,-353.8325,-56.9625
302,29906,2.7894080000000003,-0.5614439999999999,-0.48556000000000005,-58.975,-336.7,-58.6425
303,30003,2.987536,-1.1636360000000001,0.090036,-54.8975,-306.705,-65.6075
304,30100,3.124908,-0.7834840000000001,0.327936,-90.825,-272.4225,-67.97
305,30197,3.195424,-0.10858,0.5826720000000001,-86.0825,-242.515,-47.8275
306,30295,2.9933919999999996,-0.07710399999999999,1.2021879999999998,-30.17,-227.2375,-22.085
307,30392,2.579324,-0.50874,2.065948,2.4675,-215.775,-23.4325
308,30489,2.521496,-0.7046720999999999,2.622268,-26.285,-178.535,-37.2925
309,30586,2.611776,-0.8174001000000001,3.046828,-68.5825,-122.4125,-33.985
310,30683,2.636908,-0.741028,3.1146599999999998,-93.3975,-64.2425,-21.0
311,30780,2.510272,-0.57218,2.839672,-85.54,-9.135,-9.695
312,30877,2.4912400000000003,-0.39161999999999997,2.26432,-47.25,42.63,-2.87
313,30974,2.446344,-0.33305999999999997,1.6753040000000001,5.7575,74.305,-0.1225
314,31071,2.502464,-0.784704,-0.221308,47.0925,84.525,0.0
315,31168,-4.23462,0.9052401,-3.9125400000000004,63.2625,184.2925,48.8075
316,31265,1.1655879999999998,-0.28181999999999996,-1.677744,136.4825,331.94,119.7525
317,31362,4.22486,-0.32086,2.73524,81.0075,353.185,36.1025
318,31460,3.412096,-0.859368,0.407968,189.84,263.76,45.465
319,31557,3.139792,-1.562088,-1.6296760000000001,97.965,354.8125,1.33
320,31654,1.367864,-1.031876,-1.1148360000000002,116.725,165.8125,37.275
321,31751,0.83814,-0.665632,-0.832528,52.3775,179.9175,11.9525
322,31848,3.968904,0.022448,-1.574044,8.82,170.0125,-1.5575
323,31945,1.272216,0.379176,-0.14469200000000002,44.0125,-44.38,53.13
324,32042,0.679784,-0.457012,-0.5736441,37.9225,9.9925,29.4875
325,32139,1.053104,-0.03172,-0.81984,19.6525,-7.3675,25.1825
326,32236,0.775676,-0.1586,-0.626104,20.65,-2.205,15.96
327,32333,0.780556,-0.059048,-0.691496,17.3425,0.4025,11.06
328,32430,0.7993439999999999,0.053924,-0.731024,13.4225,-0.2625,8.4
329,32527,0.75274,0.01708,-0.685396,18.2525,-0.8925,11.0425
330,32624,0.7283400999999999,-0.017812,-0.7171161,18.9525,-2.275,13.7025
331,32722,0.7195560000000001,-0.042456,-0.6958880000000001,19.6,-3.6225,15.1025
332,32819,0.707356,-0.101748,-0.6885680999999999,17.7975,-4.3575,14.5775
333,32916,0.70394,-0.147376,-0.6946681,15.505,-4.4625,11.48
334,33013,0.708332,-0.075396,-0.7129681,10.7275,-3.5525,7.07
335,33110,0.711016,-0.0732,-0.7027201,9.4675,-3.2025,5.18
336,33207,0.725412,-0.056852,-0.68076,9.205,-2.9575,4.935
337,33304,0.724924,-0.040016,-0.693448,8.2425,-3.64,4.8475
338,33401,0.7134560999999999,-0.07002799999999999,-0.687104,9.485,-4.305,5.6175
339,33498,0.714676,-0.07515201,-0.6985720999999999,9.17,-4.3575,5.565
340,33595,0.710284,-0.057339999999999995,-0.699548,8.295,-4.3925,5.005
341,33692,0.71126,-0.042212,-0.7046720999999999,7.875,-4.3225,5.215
342,33790,0.714432,-0.023424,-0.696132,8.9425,-4.48,6.72
343,33887,0.7129681,-0.046360000000000005,-0.6954,10.4125,-5.0225,8.5925
344,33984,0.711504,-0.045872,-0.7007680000000001,10.7625,-5.7925,10.395
345,34081,0.705892,-0.06075601,-0.7041841,11.7775,-5.9675,11.9875
346,34178,0.707356,-0.09272000000000001,-0.7032079999999999,12.3725,-5.3375,12.88
347,34275,0.7019880000000001,-0.10906800000000001,-0.702964,11.6375,-4.48,12.565
348,34372,0.690032,-0.13078399999999998,-0.701256,10.0975,-3.64,11.06
349,34469,0.6912520000000001,-0.123464,-0.696132,8.1725,-1.89,8.925
350,34566,0.687104,-0.137128,-0.7088201,5.845,-0.4025,6.58
351,34663,0.69906,-0.121268,-0.714432,4.4625,1.6625,4.62
352,34760,0.6917399999999999,-0.12688,-0.699792,3.325,4.55,2.73
353,34857,0.6939361,-0.11712,-0.694912,2.135,8.8375,1.5575
354,34955,0.7019880000000001,-0.077836,-0.6980841,2.38,14.56,1.82
355,35052,0.6441600000000001,-0.116388,-0.794952,3.78,21.0875,3.675
356,35149,0.571936,-0.016347999999999998,-0.9252481,5.355,31.325,5.6175
357,35246,0.631228,-0.096624,-0.812276,15.61,51.66,6.895
358,35343,0.62464,-0.10736,-0.855708,14.84,68.2325,9.065
359,35440,0.61,-0.155184,-0.763232,21.105,85.41751,7.84
360,35537,0.616588,-0.16714,-0.78446,22.61,102.2875,2.9575
361,35634,0.609024,-0.155184,-0.747128,29.4875,117.0225,-1.6275
362,35731,0.5648601,-0.14786400000000002,-0.8723001,32.5325,136.29,-6.5625
363,35828,0.579256,-0.07612801,-0.8908440999999999,40.04,155.75,-8.7325
364,35925,0.60878,-0.09711201,-0.813984,46.375,183.4,-8.435
365,36023,0.5948720000000001,-0.162504,-0.749568,51.3275,211.0675,-6.1775
366,36120,0.465796,-0.206668,-0.869616,52.465,242.76,-9.4325
367,36217,0.474092,-0.0122,-0.8020281,61.3375,281.8025,-20.44
368,36314,0.410408,-0.172508,-0.607316,83.475,332.3425,-24.9025
369,36411,0.29597199999999996,-0.342088,-0.340136,86.7125,390.0225,-27.9825
370,36508,0.864492,-0.521184,-0.16835999999999998,70.5075,478.625,-41.93
371,36605,2.030812,-0.8906,-0.650748,24.4825,544.1975,-63.4725
372,36702,2.4673279999999997,-0.5233800000000001,-1.13704,-72.765,566.02,-93.0475
373,36799,3.154432,0.671244,-1.7043400000000002,-158.515,573.405,-107.6775
374,36896,3.5963160000000003,1.013332,-1.956148,-122.5175,573.405,-62.195
375,36993,3.6763480000000004,0.786656,-1.6267479999999999,-43.6275,568.4875,13.37
376,37090,3.627304,0.76372,-3.2042080000000004,-54.075,544.9675,69.9825
377,37188,2.87432,1.458388,-4.305868,-82.25,390.7925,89.81
378,37285,2.681804,1.522804,-4.2919599999999996,-17.8675,112.84,82.81
379,37382,1.353956,1.459608,-3.266184,-2.0475,-99.47001,41.6675
380,37479,0.41236000000000006,1.138016,-2.521008,44.7475,-214.2,32.34
381,37576,0.1281,0.752496,-1.899784,72.66,-200.865,25.025
382,37673,0.4026,0.434808,-1.748504,71.92501,-195.4925,9.205
383,37770,0.609268,0.25132,-1.70678,49.1575,-212.9925,-12.215
384,37867,0.590968,0.195932,-1.5799,17.85,-255.045,-31.5
385,37964,0.583404,0.170068,-1.4478959999999998,-3.3425,-294.0875,-42.385
386,38061,0.570716,0.120048,-1.293688,-9.66,-325.1675,-45.43
387,38158,0.597312,-0.00122,-1.132892,-7.5425,-347.8475,-44.625
388,38255,0.658556,-0.156404,-1.0025959999999998,-7.2275,-365.4175,-45.4475
389,38353,0.7224841,-0.273036,-0.9354959999999999,-13.475,-379.4175,-48.125
390,38450,0.7983680000000001,-0.36136399999999996,-0.8674200000000001,-22.7675,-389.1125,-49.5425
391,38547,0.8052,-0.417484,-0.787144,-31.255,-395.08,-46.2
392,38644,0.815936,-0.490684,-0.7761640999999999,-39.2525,-394.765,-37.9575
393,38741,0.93696,-0.5060560000000001,-0.826428,-50.365,-385.2275,-27.2125
394,38838,1.107272,-0.4941,-0.8762040000000001,-64.0325,-375.5325,-14.84
395,38935,1.362496,-0.46433199999999997,-0.9396440999999999,-78.41751,-366.1175,-3.395
396,39032,1.568676,-0.353556,-0.9994241,-95.375,-361.7775,1.05
397,39129,1.7275200000000002,-0.23911999999999997,-1.071404,-108.08,-359.73,-4.6025
398,39226,1.992016,-0.13664,-1.231956,-113.1725,-354.865,-16.5025
399,39324,2.4268240000000003,0.009272001,-1.440576,-111.055,-350.7,-29.26
400,39421,2.788432,0.134444,-1.417152,-96.81,-356.755,-41.965
401,39518,2.94996,-0.014396,-1.042856,-74.3925,-368.2175,-55.7375
402,39615,3.098312,-0.453596,-0.472872,-59.115,-370.51,-75.1975
403,39712,3.0988,-1.099464,0.19032000000000002,-64.26,-358.05,-95.445
404,39809,3.2534959999999997,-0.742492,0.467992,-96.88,-325.465,-108.1325
405,39906,3.2983919999999998,-0.019275999999999998,0.7832399999999999,-83.1425,-291.235,-96.8975
406,40003,2.85968,-0.09247601,1.619184,3.675,-263.0075,-62.335
407,40100,2.700592,-0.57706,2.51198,62.0725,-216.7025,-37.485
408,40197,2.864072,-0.7734800000000001,3.0802560000000003,32.7775,-155.4875,-29.9425
409,40294,2.8870080000000002,-0.6202479999999999,3.3774480000000002,-43.575,-100.205,-26.215
410,40392,2.792092,-0.292068,3.3401160000000005,-96.6875,-43.8025,-27.58
411,40489,2.672288,-0.04514,2.917752,-91.6475,17.78,-33.8625
412,40586,2.629832,0.008296000999999999,2.19234,-36.855,72.555,-41.5975
413,40683,2.568832,-0.153476,1.510116,31.78,103.5475,-48.7725
414,40780,1.5603799999999999,0.260104,-2.230892,70.6825,122.255,-42.7875
415,40877,-4.738968,-1.342488,-5.1244879999999995,139.44,245.28,57.61
416,40974,3.1534560000000003,-0.45018,-0.8581479999999999,120.05,400.155,108.7625
417,41071,3.041216,-1.01626,4.299524,115.745,310.205,26.9675
418,41168,4.61404,-0.693692,-2.063996,120.505,347.7075,32.165
419,41265,2.203808,-1.5340280000000002,-0.42456000000000005,124.425,301.9975,3.255
420,41362,1.2017,-1.1387479999999999,-1.191452,80.885,210.525,18.5675
421,41459,2.8792,-0.5607121,-2.76818,42.1225,198.9925,3.01
422,41556,3.156872,0.27279200000000003,0.08417999999999999,5.53,135.03,6.72
423,41654,1.8224360000000002,-0.036844,-0.68076,34.6325,-49.4025,53.34
424,41751,0.393816,-0.23253200000000002,-0.47165200000000007,35.35,-7.0,25.1125
425,41848,1.054324,0.020984,-0.75884,8.3125,-0.21,19.53
426,41945,0.793976,-0.177144,-0.664412,20.79,-5.425,13.1075
427,42042,0.756644,-0.040016,-0.682712,12.355,1.4175,6.8075
428,42139,0.8010520000000001,0.07515201,-0.713212,10.99,1.54,5.2675
429,42236,0.7556681,0.08052000000000001,-0.692472,16.3275,-0.7,8.715
430,42333,0.74298,0.034648000000000005,-0.669048,19.5475,-2.4675,13.5975
431,42430,0.733464,0.008052001,-0.6834439999999999,21.665,-4.725,17.36
432,42527,0.7283400999999999,-0.048068,-0.687104,21.6125,-6.4575,19.4425
433,42624,0.72102,-0.10516400000000001,-0.6844201,20.3,-7.9625,18.8125
434,42721,0.714432,-0.07393200000000001,-0.699792,15.82,-7.98,15.9775
435,42819,0.704916,-0.072956,-0.7027201,14.4025,-7.35,14.07
436,42916,0.7285841,-0.053924,-0.666608,13.5975,-6.58,13.0025
437,43013,0.730292,-0.020496,-0.679296,12.4425,-6.37,12.425
438,43110,0.714676,-0.085156,-0.686616,14.3325,-6.7725,12.46
439,43207,0.711504,-0.09589201,-0.7015,13.79,-5.7575,11.025
440,43304,0.7168720000000001,-0.081496,-0.693692,12.2675,-4.8125,9.1
441,43401,0.715164,-0.05587601,-0.706624,11.2525,-4.5675,8.2075
442,43498,0.7139439999999999,-0.069052,-0.6946681,11.8825,-5.04,8.47
443,43595,0.7088201,-0.083936,-0.6893,11.795,-5.3375,8.575
444,43692,0.709064,-0.079056,-0.6973520000000001,10.71,-5.145,8.225
445,43789,0.7041841,-0.077348,-0.69418,10.6575,-4.97,8.3825
446,43886,0.7017439999999999,-0.08759601,-0.7015,10.1325,-4.4275,8.4
447,43984,0.696864,-0.107848,-0.692716,9.87,-3.6925,8.0675
448,44081,0.696376,-0.117852,-0.686128,8.89,-2.5725,7.21
449,44178,0.69662,-0.11955999999999999,-0.6944241,7.56,-0.875,5.355
450,44275,0.696864,-0.110776,-0.702964,6.055,0.875,3.7625
451,44372,0.7017439999999999,-0.111752,-0.712724,4.6375,3.9025,2.9575
452,44469,0.7015,-0.09028,-0.7356600000000001,4.55,7.21,2.5025
453,44566,0.6993041,-0.08784,-0.702964,4.375,11.7775,2.6425
454,44663,0.675148,-0.08662001,-0.773724,5.04,18.0425,3.185
455,44760,0.543388,-0.059536,-0.9779521000000001,6.7375,26.8975,4.865
456,44857,0.633424,-0.08369201,-0.759084,13.895,47.2325,7.56
457,44954,0.5975560000000001,-0.131272,-0.8762040000000001,15.3125,69.37,9.5375
458,45051,0.614636,-0.134932,-0.8647360000000001,21.14,89.0575,9.765
459,45149,0.6158561,-0.170312,-0.7537159999999999,25.0075,108.5175,6.44
460,45246,0.5997520000000001,-0.174216,-0.818132,27.755,124.6525,1.9425
461,45343,0.555588,-0.09442801,-0.840824,35.63,143.4125,-1.505
462,45440,0.5160600000000001,-0.121512,-0.861808,39.6025,167.475,-4.935
463,45537,0.531676,-0.080276,-0.9079241,47.4075,192.9725,-5.0575
464,45634,0.48068,-0.195688,-0.8613200000000001,53.515,221.445,-4.9525
465,45731,0.36112,-0.11834000000000001,-0.975512,52.85,252.3675,-10.815
466,45828,0.37698000000000004,-0.010004,-0.8752280000000001,63.105,292.88,-19.4075
467,45925,0.299632,-0.11248399999999999,-0.734196,73.9375,338.2925,-22.995
468,46022,0.343796,-0.27205999999999997,-0.549732,77.245,397.915,-29.2775
469,46119,1.2317120000000001,-0.5697399999999999,-0.638792,70.1225,474.95,-46.1125
470,46216,2.0313,-0.7659161,-0.9015799999999999,25.025,507.01,-67.305
471,46314,2.319464,-0.27205999999999997,-0.9625799999999999,-49.0525,570.395,-97.3525
472,46411,3.094896,0.38918,-1.24318,-90.59751,573.405,-98.5775
473,46508,3.433568,0.5546121,-1.347124,-72.87,573.405,-61.285
474,46605,4.219492,0.700036,-1.731424,-47.46,572.7575,-9.0125
475,46702,3.977932,0.9272,-3.5375120000000004,-90.07251,538.4749,30.1525
476,46799,2.4888,1.8409799999999998,-4.50058,-122.4475,318.885,53.7425
477,46896,2.539308,1.5999079999999999,-4.372724,-10.6575,25.8475,60.2
478,46993,0.924516,1.3207719999999998,-2.8784680000000002,27.7025,-164.7625,38.2725
479,47090,0.17519200000000001,0.8935280999999999,-2.215032,80.535,-236.775,39.2875
480,47187,0.067832,0.457988,-1.70556,89.65250999999999,-207.27,27.51
481,47284,0.397476,0.21301199999999998,-1.638216,62.16,-200.06,2.3625
482,47381,0.5673,0.161772,-1.615768,19.495,-221.235,-23.7125
483,47479,0.614636,0.174704,-1.558184,-13.65,-260.7325,-41.125
484,47576,0.630252,0.135908,-1.447652,-25.445,-298.7075,-46.9175
485,47673,0.623664,0.030012,-1.281488,-21.6125,-329.35,-45.325
486,47770,0.60878,-0.128832,-1.09312,-14.175,-354.375,-42.7525
487,47867,0.6219561,-0.277672,-0.9547720999999999,-12.81,-370.7725,-42.9625
488,47964,0.681492,-0.373076,-0.845216,-19.04,-380.065,-45.22
489,48061,0.677344,-0.46116,-0.744688,-27.0725,-385.0175,-44.7825
490,48158,0.6878361,-0.5414359999999999,-0.735172,-36.365,-384.1425,-40.7925
491,48255,0.7639640999999999,-0.593896,-0.8054439999999999,-47.915,-376.2325,-34.7025
492,48352,0.965752,-0.599264,-0.901336,-59.6575,-365.9075,-24.5875
493,48450,1.133624,-0.58316,-0.9520881,-70.4375,-360.885,-9.73
494,48547,1.303936,-0.539972,-0.9911281,-81.165,-356.475,3.4825
495,48644,1.446188,-0.4392,-1.034316,-93.66,-352.6075,8.0675
496,48741,1.6499279999999998,-0.34038,-1.1163,-103.6,-344.995,2.905
497,48838,2.0862,-0.2318,-1.3893360000000001,-108.4125,-337.925,-8.155
498,48935,2.45342,-0.10321199999999998,-1.532076,-106.5925,-342.79,-19.5475
499,49032,2.623488,-0.027816000000000004,-1.373232,-96.0925,-357.14,-32.025
500,49129,2.8003880000000003,-0.07393200000000001,-1.035292,-78.62751,-363.0375,-48.4925
501,49226,3.092212,-0.568032,-0.618784,-60.3225,-356.7375,-70.14
502,49323,3.16102,-1.033584,-0.023668,-61.425,-347.34,-91.805
503,49420,3.069032,-0.5797441,0.45432799999999995,-82.6525,-323.6625,-100.66
504,49518,3.194692,-0.005368,0.893284,-47.005,-280.735,-86.6425
505,49615,3.133692,-0.19397999999999999,1.600396,37.52,-241.885,-55.8425
506,49712,2.87066,-0.8471681000000001,2.750612,78.33,-210.1575,-34.09
507,49809,2.892864,-0.9476959999999999,3.4301519999999996,17.15,-158.7425,-23.87
508,49906,2.94508,-0.5917,3.615104,-75.04,-93.065,-13.44
509,50003,2.840648,-0.21813600000000002,3.3977,-121.7825,-29.015,-8.19
510,50100,2.717184,0.10614000000000001,2.791604,-106.855,33.0925,-13.9125
511,50197,2.620072,0.263276,1.9949439999999998,-44.695,81.74251,-24.955
512,50294,2.491484,0.10004,1.3268719999999998,31.3775,106.785,-35.8225
513,50391,0.708088,0.373076,-2.7877,63.2275,127.8725,-37.7475
514,50489,-4.490576,-0.7893399999999999,-4.741651999999999,87.325,226.7825,50.47
515,50586,3.1036799999999998,0.021716,-0.5648601,60.9525,381.7975,96.075
516,50683,3.057808,-0.9552601000000001,4.0443,99.7675,312.69,38.43
517,50780,4.460808,-0.981124,-2.33874,99.505,332.29,60.2875
518,50877,1.666764,-1.153144,-0.437004,93.6075,269.5,42.7175
519,50974,1.0521280000000002,-0.8142281,-1.100196,56.5775,198.2575,40.1975
520,51071,1.9183279999999998,-0.404552,-1.762168,26.6,198.3975,6.3
521,51168,3.722952,0.380884,-0.6314721,-11.7425,165.5325,-8.2075
522,51265,1.7111720000000001,0.45871999999999996,-0.411628,31.395,-41.5975,42.735
523,51362,0.553148,-0.370636,-0.504836,35.945,1.82,18.55
524,51459,1.035048,0.023912,-0.758596,8.47,-4.025,15.4875
525,51557,0.805688,-0.128588,-0.636108,12.4075,-4.095,4.585
526,51654,0.7686,-0.01708,-0.69296,5.11,-1.47,-0.595
527,51751,0.787632,0.10833599999999999,-0.7356600000000001,3.2025,-0.49,-2.5725
528,51848,0.745908,0.134932,-0.69662,8.5925,-0.9975,1.2425
529,51945,0.732244,0.07076001,-0.6753920999999999,13.3,-2.03,6.055
530,52042,0.7329760000000001,0.043432,-0.6785640000000001,15.1725,-3.535,9.1175
531,52139,0.7315119999999999,-0.024888,-0.6802720999999999,16.205,-4.34,10.29
532,52236,0.7176041,-0.07173600000000001,-0.7056479999999999,14.6825,-4.515,8.9775
533,52333,0.7005239999999999,-0.07417601,-0.71614,11.5325,-3.3425,6.1075
534,52430,0.7041841,-0.032695999999999996,-0.6980841,8.2775,-1.505,3.4125
535,52527,0.72956,0.0122,-0.6722199999999999,6.7725,-0.0175,2.3625
536,52624,0.7217521,0.013908000000000002,-0.677344,7.805,0.14,3.0275
537,52722,0.7166279999999999,0.0034159999999999998,-0.686128,9.5375,0.49,4.235
538,52819,0.720288,-0.011468,-0.681736,10.7975,1.26,4.9175
539,52916,0.7227279999999999,0.020008,-0.6883239999999999,10.955,1.9425,5.2675
540,53013,0.726876,0.020252000000000003,-0.6895439999999999,12.1625,2.2575,6.5625
541,53110,0.726144,-0.000488,-0.68076,14.35,2.0825,8.26
542,53207,0.735172,0.013175999999999998,-0.70394,14.2275,1.225,9.625
543,53304,0.732244,-0.015616,-0.691008,15.225,0.1925,10.92
544,53401,0.7300479999999999,-0.020984,-0.691008,15.0675,-0.63,12.355
545,53498,0.732244,-0.038064,-0.68808,14.945,-1.3825,13.265
546,53595,0.7288279999999999,-0.047580000000000004,-0.695156,14.455,-0.875,13.965
547,53692,0.720532,-0.07027201,-0.687348,13.93,-0.7175,13.6325
548,53789,0.71858,-0.049532,-0.69906,12.0925,1.12,13.09
549,53887,0.715408,-0.036356,-0.7027201,11.655,3.185,12.705
550,53984,0.6944241,-0.080276,-0.7093081,10.8325,5.9675,12.46
551,54081,0.7017439999999999,0.002196,-0.7661600000000001,8.015,10.5175,12.2325
552,54178,0.70028,-0.025131999999999998,-0.689056,9.2575,15.0325,14.4725
553,54275,0.632448,-0.0671,-0.805932,6.195,21.1925,16.0475
554,54372,0.6080479999999999,-0.09735601,-0.860344,9.5725,33.11,17.64
555,54469,0.6409881,0.006344,-0.8571719999999999,18.165,54.355,16.905
556,54566,0.6326921,-0.161772,-0.727608,17.0975,70.2275,16.7125
557,54663,0.64172,-0.13078399999999998,-0.820572,18.2875,86.04751,14.2275
558,54760,0.6202479999999999,-0.07442,-0.8874280999999999,23.0825,101.3075,10.4825
559,54857,0.610488,-0.141276,-0.756644,27.8775,120.5225,6.265
560,54954,0.612928,-0.121024,-0.8342360000000001,31.36,143.71,3.01
561,55052,0.579256,-0.09882,-0.8403360000000001,37.8525,169.89,0.6475
562,55149,0.55266,-0.072956,-0.7600600000000001,39.795,200.5325,-0.6125
563,55246,0.425048,-0.209596,-0.9791719999999999,44.765,232.645,-1.7675
564,55343,0.339648,-0.07588400000000001,-0.9752681000000001,44.7825,270.1825,-13.9125
565,55440,0.413336,-0.06636801,-0.6885680999999999,49.035,312.4625,-22.225
566,55537,0.289628,-0.22252800000000003,-0.42138809999999993,55.405,368.9875,-22.0675
567,55634,1.019188,-0.500688,-0.447984,40.355,451.115,-27.335
568,55731,1.4010479999999998,-0.75884,-0.679784,-0.6825,494.0075,-39.655
569,55828,2.322148,-0.453108,-1.2383,-77.7875,561.4875,-69.9475
570,55925,2.694248,0.434076,-1.361032,-174.3525,573.405,-94.74501
571,56022,3.154432,1.1094680000000001,-1.607228,-166.1275,573.405,-56.4025
572,56119,3.475536,0.520452,-1.328336,-74.25251,573.405,10.5175
573,56216,4.178256,0.9608721,-2.4565919999999997,-82.285,567.035,61.8625
574,56314,3.280336,1.216584,-4.52986,-120.1375,470.505,85.69751
575,56411,2.13988,1.73728,-3.898632,-104.475,151.55,87.08
576,56508,1.830976,1.890756,-4.233644,-13.8775,-68.565,64.5575
577,56605,0.34257600000000005,1.270752,-2.485872,34.5975,-236.8975,48.0375
578,56702,0.183976,0.908168,-1.987624,79.73001,-227.3075,42.07
579,56799,0.217892,0.539972,-1.677988,90.825,-220.4825,24.1675
580,56896,0.552416,0.32696,-1.607228,67.515,-228.235,-1.4175
581,56993,0.715408,0.25864000000000004,-1.535248,32.55,-260.1725,-25.0075
582,57090,0.7388319999999999,0.255468,-1.4208120000000002,4.9875,-302.96,-38.535
583,57187,0.751276,0.22643200000000002,-1.291248,-6.055,-336.9975,-41.3175
584,57284,0.8081281,0.151524,-1.14924,-5.95,-363.195,-38.0275
585,57381,0.8520479999999999,0.079544,-1.031388,-4.1475,-384.8425,-34.1425
586,57479,0.8669319999999999,-0.010004,-0.908168,-6.0725,-402.0975,-33.6
587,57576,0.8708360999999999,-0.07490801,-0.7605481,-11.5325,-412.055,-36.575
588,57673,0.8476561,-0.148352,-0.693692,-20.1775,-415.0125,-38.57
589,57770,0.837408,-0.238632,-0.670268,-30.485,-408.345,-39.0425
590,57867,0.8666879999999999,-0.30036399999999996,-0.6822239999999999,-45.1325,-394.275,-38.535
591,57964,1.061644,-0.325008,-0.760792,-62.125,-373.065,-35.0175
592,58061,1.302716,-0.292556,-0.860344,-78.9075,-352.3625,-31.15
593,58158,1.511092,-0.23692399999999997,-0.9833200000000001,-94.16751,-336.9275,-31.78
594,58255,1.880996,-0.14688800000000002,-1.231468,-105.315,-325.2725,-38.5175
595,58352,2.198928,-0.081496,-1.4091,-108.08,-324.695,-46.69
596,58449,2.3419119999999998,0.00122,-1.428864,-105.5425,-335.3875,-53.095
597,58546,2.538088,0.172996,-1.2939319999999999,-99.10251,-338.03,-61.5825
598,58643,2.8304,0.203008,-1.050176,-84.525,-332.535,-76.09000999999999
599,58741,3.202256,-0.23082399999999997,-0.6749041,-65.73,-329.1225,-100.17
600,58838,3.370128,-0.800076,-0.116632,-57.05,-319.6025,-127.9775
601,58935,3.195424,-0.056852,0.374784,-84.56,-315.2275,-148.6275
602,59032,3.0561,0.360144,1.042124,-32.5675,-291.9525,-131.81
603,59129,2.9853400000000003,-0.25424800000000003,1.8880720000000002,68.88,-249.0775,-97.7025
604,59226,2.983388,-0.922076,2.894328,98.77,-211.085,-80.395
605,59323,2.952156,-1.09312,3.557764,39.9525,-163.4325,-66.885
606,59420,2.76452,-0.954528,3.716852,-38.4125,-103.2325,-49.14
607,59517,2.7730599999999996,-0.6917399999999999,3.269356,-86.8,-29.435,-39.375
608,59614,2.6959560000000002,-0.27718400000000004,2.535648,-87.64,32.8475,-37.8875
609,59711,2.626416,0.000488,1.684088,-35.4725,73.745,-35.21
610,59809,2.206004,-0.772992,0.27328,49.56,88.76,-28.5775
611,59906,-3.196888,1.292712,-1.8461040000000002,89.46,188.825,17.2025
612,60003,-0.7922680000000001,-0.043188,-1.574532,118.4575,298.97,120.225
613,60100,5.766208,0.538996,1.646268,36.9425,436.1875,56.1225
614,60197,1.767048,-0.9918600000000001,2.91458,205.94,236.5825,81.67251
615,60294,4.430796,-1.235616,-2.61446,76.79,406.525,20.44
616,60391,1.3642040000000002,-1.380796,-0.744688,125.2825,201.2325,38.745
617,60488,1.267336,-0.369172,-0.9037761000000001,40.145,194.3375,30.1525
618,60585,4.0382,-0.15616,-1.975424,16.7125,178.0975,11.095
619,60682,1.336876,0.537776,0.145912,56.6475,-37.6425,60.305
620,60779,1.037244,-0.246928,-0.5441199999999999,24.29,3.5875,38.7975
621,60877,0.9652639999999999,-0.202032,-0.714432,34.51,-17.1675,35.9975
622,60974,0.792756,-0.054167999999999994,-0.6348881,20.195,0.9975,19.705
623,61071,0.8149601,-0.080276,-0.71248,17.3075,-0.9275,12.3725
624,61168,0.764696,-0.095648,-0.6722199999999999,15.26,-1.19,6.8775
625,61265,0.76372,0.055144000000000006,-0.712236,8.9425,0.56,2.485
626,61362,0.749812,0.06270801,-0.6956439999999999,12.2325,-0.875,4.025
627,61459,0.7327321,0.025376,-0.687592,14.945,-2.2925,7.3675
628,61556,0.7241920000000001,0.002928,-0.690764,16.765,-3.605,9.625
629,61653,0.7241920000000001,-0.030256,-0.69418,17.045,-4.2875,10.605
630,61750,0.715896,-0.09028,-0.676856,17.045,-4.48,9.8875
631,61847,0.698816,-0.081496,-0.7068681,13.545,-3.99,7.0525
632,61944,0.689056,-0.080276,-0.7015,11.48,-2.4325,4.3225
633,62041,0.698816,-0.049776,-0.70516,9.135,-1.0675,2.4325
634,62139,0.7168720000000001,-0.019275999999999998,-0.680028,8.295,-0.2275,1.9075
635,62236,0.7237041,0.010248,-0.678076,8.33,0.0175,2.31
636,62333,0.7190681,0.002684,-0.6917399999999999,9.7475,-0.455,3.85
637,62430,0.7176041,-0.038064,-0.680516,11.8825,-0.49,5.285
638,62527,0.715408,-0.05856,-0.694912,11.795,-0.63,5.0575
639,62624,0.7178479999999999,-0.030012,-0.703696,10.3775,-0.805,4.4975
640,62721,0.71858,-0.034892,-0.694912,10.5875,-1.2425,5.2325
641,62818,0.720776,-0.049532,-0.6912520000000001,10.9725,-1.785,5.81
642,62915,0.7227279999999999,-0.045384,-0.6902761,10.4825,-2.625,6.195
643,63012,0.7168720000000001,-0.056608000000000006,-0.687348,10.3425,-2.5725,6.9475
644,63109,0.7171161,-0.0549,-0.7007680000000001,10.0625,-2.4325,7.7175
645,63206,0.7078439999999999,-0.088328,-0.7032079999999999,10.29,-1.5925,8.5925
646,63303,0.712724,-0.073688,-0.7176041,9.0825,-0.0525,8.7675
647,63401,0.69906,-0.071004,-0.691496,8.54,1.8025,8.5575
648,63498,0.7046720999999999,-0.098332,-0.707356,7.4725,4.865,8.6625
649,63595,0.7168720000000001,-0.063684,-0.724924,7.175,8.6625,9.205
650,63692,0.7046720999999999,-0.08857201,-0.7241920000000001,7.805,13.2125,10.29
651,63789,0.698816,-0.081496,-0.7705521,8.575,19.32,11.83
652,63886,0.575596,-0.015616,-0.9206120000000001,8.12,27.0375,13.1075
653,63983,0.653188,-0.127368,-0.7190681,13.755,44.2225,14.7525
654,64080,0.619272,0.01098,-0.8888921000000001,15.68,63.7175,15.3825
655,64177,0.5926760999999999,-0.17543599999999998,-0.7869,21.2275,79.66001,15.89
656,64274,0.646112,-0.108824,-0.8271601000000001,22.225,95.5675,13.72
657,64371,0.5838920999999999,-0.227408,-0.844484,27.475,110.8975,9.8
658,64468,0.624152,-0.047092,-0.9520881,30.1525,133.9625,7.105
659,64565,0.6080479999999999,-0.132492,-0.744688,38.4475,158.2875,5.88
660,64663,0.5702281,-0.05368,-0.916952,39.0075,187.2325,7.6125
661,64760,0.46311199999999997,-0.29377600000000004,-0.8671761,48.72,218.96,7.2975
662,64857,0.364292,-0.186416,-0.9867360999999999,41.79,253.47,-2.0825
663,64954,0.3599,-0.034892,-0.8884040000000001,48.44,294.14,-13.965
664,65051,0.310856,-0.141032,-0.596336,54.1275,341.6875,-17.43
665,65148,0.293288,-0.298168,-0.29036,43.365,406.7875,-18.5325
666,65245,0.892064,-0.457744,-0.1769,17.2025,472.1675,-25.1125
667,65342,2.228696,-0.7285841,-0.8193521,-33.775,517.6675,-39.1825
668,65439,2.3319080000000003,-0.047824,-1.281,-124.1275,573.2125,-72.6775
669,65536,3.078548,0.599264,-1.297104,-164.29,573.405,-74.375
670,65633,3.1585799999999997,0.7537159999999999,-1.216828,-136.15,573.405,-24.43
671,65730,3.930108,0.7537159999999999,-1.66408,-75.5475,573.02,35.9975
672,65827,3.920348,0.97356,-3.439424,-108.6575,537.5825,76.3875
673,65924,2.712304,1.8592799999999998,-4.5025319999999995,-130.6025,352.555,92.7325
674,66021,2.318732,1.885144,-3.9103440000000003,-29.68,53.5325,78.9075
675,66119,1.244888,1.6548080000000003,-2.95728,26.495,-131.8975,33.53
676,66216,0.399916,1.232444,-2.181604,88.44501,-231.49,16.2575
677,66313,0.165188,0.740296,-1.510604,124.25,-207.095,2.555
678,66410,0.19276,0.345748,-1.288808,119.8575,-202.37,-14.665
679,66507,0.48726800000000003,0.10906800000000001,-1.306376,88.18251,-202.055,-34.8425
680,66604,0.5504641,0.06344,-1.266116,43.295,-227.4825,-49.4025
681,66701,0.593896,0.08417999999999999,-1.2195120000000002,9.17,-257.4425,-52.71
682,66798,0.6541640000000001,0.08003201,-1.1575360000000001,-6.7025,-284.515,-47.0925
683,66895,0.6810039999999999,0.064416,-1.056764,-11.0425,-310.31,-38.6225
684,66992,0.6893,0.042456,-0.934276,-11.48,-332.5875,-33.18
685,67089,0.6919841,0.008784,-0.8332601000000001,-11.76,-348.39,-33.635
686,67186,0.744444,-0.024156,-0.813496,-14.1225,-358.225,-39.095
687,67283,0.8610761,-0.06880801,-0.838628,-18.06,-364.6825,-46.2875
688,67380,0.9557479999999999,-0.10492,-0.8910879999999999,-21.91,-369.985,-51.695
689,67478,1.070184,-0.15738,-0.9501360999999999,-26.5125,-376.1975,-54.4075
690,67575,1.2383,-0.197152,-1.031388,-32.935,-383.74,-52.955
691,67672,1.394216,-0.219112,-1.036756,-41.965,-392.875,-46.6375
692,67769,1.52744,-0.205692,-1.026996,-54.53,-399.035,-37.135
693,67866,1.6765240000000001,-0.21081599999999998,-1.013332,-69.1425,-398.72,-31.255
694,67963,1.802916,-0.20861999999999997,-1.042124,-85.99501,-390.39,-33.495
695,68060,2.223084,0.012688,-1.284904,-103.915,-371.6125,-42.105
696,68157,2.990464,0.382104,-1.56892,-106.89,-353.535,-52.8675
697,68254,3.281068,0.4023561,-1.3649360000000001,-78.9075,-367.465,-65.1
698,68351,3.330112,-0.190808,-0.741272,-42.0,-389.55,-84.875
699,68448,3.3462160000000005,-0.698328,-0.11126400000000002,-34.0375,-389.095,-111.1775
700,68545,3.216652,-0.205692,0.44944799999999996,-50.6625,-366.1875,-121.0825
701,68643,3.120516,0.26961999999999997,1.186328,-13.58,-321.9475,-100.9225
702,68740,3.2156759999999998,-0.249612,2.118164,60.0775,-259.5425,-67.0425
703,68837,3.247884,-1.146068,3.3576839999999994,63.945,-211.8725,-50.4
704,68934,3.005104,-1.103124,4.001112,-44.38,-165.025,-43.1375
705,69031,2.863828,-0.734196,3.965,-143.01,-92.7325,-32.3575
706,69128,2.949716,-0.554124,3.4596760000000004,-167.965,-9.8525,-27.44
707,69225,2.692052,0.129564,2.38754,-136.92,52.255,-30.9575
708,69322,2.657404,0.17738800000000002,1.56526,-30.0125,102.1125,-28.5425
709,69419,2.472208,-0.16714,0.9874681000000001,73.78,119.245,-29.085
710,69516,-0.28767600000000004,1.181936,-4.872436,97.8075,137.3225,-22.505
711,69613,-4.079192,-1.347124,-3.2339759999999997,190.0675,208.11,73.3425
712,69710,2.142076,-0.07442,0.548268,109.1475,299.5125,119.6125
713,69807,2.8365,-1.398364,3.144184,139.58,360.71,12.0925
714,69905,3.896436,-0.984296,-1.51524,123.97,310.2925,-9.3975
715,70002,2.578592,-2.124996,-0.68198,121.555,328.9825,0.315
716,70099,1.322724,-1.1956,-1.236348,74.69,190.19,51.4325
717,70196,1.557452,0.30744,-1.8583040000000002,3.4825,198.2225,36.295
718,70293,3.7776080000000003,-0.080764,-0.968192,20.825,168.8225,13.7025
719,70390,1.620892,0.83204,-0.17568,50.225,-27.44,62.6325
720,70487,0.7610359999999999,-0.35697199999999996,-0.549732,44.6425,1.925,40.8275
721,70584,1.01748,-0.07881200000000001,-0.6895439999999999,38.3775,-5.9325,37.625
722,70681,0.787144,-0.09272000000000001,-0.624396,31.64,2.415,24.955
723,70778,0.833992,-0.07564,-0.696376,26.355,1.715,18.34
724,70875,0.781044,0.107848,-0.711016,22.155,0.035,14.77
725,70973,0.7551800000000001,0.021228,-0.6902761,23.555,-1.33,17.2725
726,71070,0.749324,-0.046360000000000005,-0.6736840000000001,26.95,-4.5325,20.5625
727,71167,0.7388319999999999,-0.05636401,-0.691008,23.94,-5.9675,20.3175
728,71264,0.72956,-0.110044,-0.6810039999999999,23.485,-7.0525,18.7425
729,71361,0.712724,-0.06270801,-0.7168720000000001,18.2175,-7.0,15.295
730,71458,0.7093081,-0.108824,-0.7007680000000001,17.01,-6.335,13.195
731,71555,0.7095520000000001,-0.09638,-0.6878361,14.63,-5.5475,10.5525
732,71652,0.7183361,-0.027327999999999998,-0.685884,11.0775,-4.795,8.47
733,71749,0.72346,-0.046360000000000005,-0.67832,11.76,-4.305,9.0475
734,71846,0.72224,-0.054655999999999996,-0.690032,12.355,-4.41,9.38
735,71944,0.720532,-0.066124,-0.6836880999999999,12.0225,-4.2525,8.75
736,72041,0.71858,-0.05563200000000001,-0.68686,11.5675,-3.745,8.2075
737,72138,0.714432,-0.052703999999999994,-0.697108,10.9725,-3.395,7.9975
738,72235,0.714432,-0.05612,-0.7015,10.08,-3.2025,7.8575
739,72332,0.720288,-0.086864,-0.6897880999999999,9.66,-3.185,7.4025
740,72429,0.7198,-0.10321199999999998,-0.688812,7.9975,-3.6225,6.1775
741,72526,0.718092,-0.09711201,-0.70028,6.9825,-3.7625,5.005
742,72623,0.715164,-0.08466801,-0.7015,6.7375,-3.3075,4.9875
743,72720,0.71492,-0.08052000000000001,-0.70638,6.7375,-2.45,5.81
744,72817,0.718092,-0.077592,-0.6993041,7.42,-1.82,7.1925
745,72915,0.7134560999999999,-0.08954801,-0.6939361,7.9625,-1.33,7.91
746,73012,0.71248,-0.0671,-0.696376,7.7525,-0.0525,8.365
747,73109,0.701256,-0.09589201,-0.693448,7.49,0.98,8.7325
748,73206,0.7137001000000001,-0.05172801,-0.7195560000000001,7.28,2.6775,9.6425
749,73303,0.688812,-0.08857201,-0.708576,8.61,5.2325,10.4825
750,73400,0.68686,-0.088328,-0.7068681,8.0325,8.96,10.9025
751,73497,0.6763680000000001,-0.09784401,-0.729804,9.205,14.7,12.1275
752,73594,0.579256,-0.052216,-0.82594,10.185,22.3125,13.055
753,73691,0.628788,-0.170068,-0.7539600000000001,14.595,37.9925,12.9675
754,73788,0.62708,-0.07686,-0.888648,16.205,55.6325,12.4775
755,73886,0.625616,-0.155184,-0.703696,19.495,71.9075,12.2325
756,73983,0.6368401,-0.16226,-0.803492,19.8275,88.76,9.52
757,74080,0.607316,-0.12029200000000001,-0.795928,25.1825,101.955,6.7725
758,74177,0.615368,-0.135664,-0.788852,26.88,121.065,4.13
759,74274,0.5514399999999999,-0.07490801,-0.873764,33.4075,141.4175,4.025
760,74371,0.525332,-0.1525,-0.82594,36.61,166.32,3.535
761,74468,0.5231359999999999,-0.164212,-0.8552200000000001,40.2325,192.5,3.92
762,74565,0.5260640000000001,-0.322812,-0.768844,41.1075,221.55,-0.2625
763,74662,0.401868,-0.027816000000000004,-0.9264680000000001,39.7425,255.5525,-11.7775
764,74759,0.400404,-0.073688,-0.781532,48.2475,297.01,-21.1925
765,74856,0.299388,-0.110776,-0.6319600000000001,47.075,339.0625,-23.8875
766,74953,0.382348,-0.28426,-0.452376,41.51,400.1725,-26.5825
767,75051,0.9769760000000001,-0.459208,-0.40577199999999997,21.945,447.8425,-33.8625
768,75148,2.130852,-0.48678,-0.9110959999999999,-21.7875,490.3325,-46.2875
769,75245,2.297016,-0.22716399999999998,-0.8764481,-80.97251,565.11,-73.3775
770,75342,3.126616,0.54778,-1.0919,-121.17,573.02,-72.87
771,75439,3.0685439999999997,0.733464,-1.010404,-103.565,573.405,-22.085
772,75536,3.901072,0.836676,-1.669936,-58.9925,569.135,37.8875
773,75633,3.76614,1.0023520000000001,-3.5394639999999997,-87.97251,490.3325,80.7975
774,75730,2.21552,1.486448,-4.158004,-94.6225,283.325,107.45
775,75827,1.9417520000000001,1.532076,-3.5126239999999997,-22.05,17.115,98.7175
776,75924,1.0706719999999998,1.446676,-2.660576,3.535,-138.88,61.18
777,76021,0.30988000000000004,1.154608,-1.938092,44.3625,-223.1775,45.1325
778,76118,0.138348,0.827892,-1.419836,73.7975,-200.4625,29.33
779,76216,0.299144,0.489464,-1.242936,76.895,-194.425,9.275
780,76313,0.485804,0.290848,-1.223416,59.2375,-201.46,-12.6
781,76410,0.551928,0.227652,-1.197552,30.2925,-226.7475,-30.3625
782,76507,0.5543680000000001,0.233752,-1.1507040000000002,9.73,-254.9925,-37.45
783,76604,0.5919439999999999,0.196664,-1.073112,3.815,-277.9175,-35.385
784,76701,0.5856,0.153232,-0.9591639999999999,4.865,-298.1475,-31.36
785,76798,0.639524,0.126148,-0.91622,5.25,-314.5275,-30.5725
786,76895,0.7239479999999999,0.10345599999999999,-0.877668,4.7425,-328.965,-34.4575
787,76992,0.792024,0.059536,-0.7986121,2.695,-342.58,-40.915
788,77089,0.7929999999999999,0.00244,-0.750544,-0.42,-353.535,-45.3775
789,77186,0.7978801,-0.048312,-0.7442,-6.09,-359.7475,-48.09
790,77284,0.8718120999999999,-0.081252,-0.7510321,-14.77,-357.56,-48.5975
791,77381,1.0208959999999998,-0.094916,-0.771528,-26.1625,-351.8375,-45.9375
792,77478,1.2160959999999998,-0.08344800000000001,-0.8127641,-38.01,-345.3625,-40.7575
793,77575,1.398852,-0.033184,-0.826916,-50.8025,-338.6075,-37.065
794,77672,1.554768,0.064172,-0.8723001,-63.8575,-333.305,-39.585
795,77769,1.759484,0.152256,-1.0004,-69.3525,-325.71,-48.79
796,77866,2.0498439999999998,0.16958,-1.175348,-67.445,-320.635,-61.0225
797,77963,2.364604,0.282552,-1.3090600000000001,-65.87,-321.4575,-71.4175
798,78060,2.5876200000000003,0.4148,-1.2197559999999998,-58.5375,-328.1775,-81.4975
799,78157,2.840404,0.416996,-1.052616,-44.3625,-333.9525,-96.39
800,78254,3.018036,0.025863999999999998,-0.7300479999999999,-29.75,-342.1425,-119.035
801,78351,2.89384,-0.5343600000000001,-0.15616,-25.585,-352.625,-147.21
802,78448,2.82796,-0.31354,0.239364,-39.4625,-338.0475,-163.8875
803,78546,2.904576,0.248392,0.5734,-17.955,-301.7175,-158.4625
804,78643,2.850652,0.30622,1.150216,60.4975,-266.9975,-137.69
805,78740,2.6193400000000002,-0.153232,2.039352,129.1325,-233.7825,-118.58
806,78837,2.753052,-0.5875520000000001,2.948984,126.91,-185.71,-106.8375
807,78934,2.747928,-0.518744,3.429664,52.045,-127.9425,-100.4325
808,79031,2.4805040000000003,-0.228872,3.452112,-24.8325,-63.105,-109.6725
809,79128,2.55346,0.065148,2.811368,-56.98,16.6775,-137.76
810,79225,2.59128,0.345016,1.960784,-30.345,79.8525,-168.63
811,79322,2.480016,0.24522,1.332484,49.6825,112.84,-182.665
812,79419,0.568764,-0.44725200000000004,-1.593564,139.93,144.7775,-169.785
813,79516,-4.085292,-2.412184,-3.4147800000000004,174.1075,238.175,-90.755
814,79613,2.614948,-0.002196,-1.41886,19.075,422.7125,-55.86
815,79710,2.536624,-1.0023520000000001,2.95118,72.03,354.1825,-60.5325
816,79808,3.43186,-1.125572,-0.279624,73.92,328.405,-13.44
817,79905,2.745488,-1.438136,-1.342488,48.545,394.9925,-3.395
818,80002,1.4400879999999998,-0.9738041,-1.099464,32.3925,253.9425,35.9275
819,80099,3.7231959999999997,0.67832,-4.636732,-25.8825,255.78,12.5125
820,80196,2.137196,-0.004636001,0.998448,73.08,61.215,30.03
821,80293,1.8817279999999998,0.741028,-0.527284,-8.89,-6.3525,57.435
822,80390,0.418704,-0.44212799999999997,-0.793244,51.975,-22.9425,36.8025
823,80487,0.7808001,0.088328,-0.791536,19.11,-3.29,20.2125
824,80584,0.8671761,0.407724,-0.65758,13.09,1.26,18.4275
825,80681,0.9535521,-0.031964,-0.46726,40.4075,-6.055,27.16
826,80778,0.7407841,-0.011224,-0.7895840999999999,26.0925,-11.55,21.42
827,80876,0.6709999999999999,0.12248800000000001,-0.800808,31.2725,-7.0525,18.2875
828,80973,0.8300879999999999,0.13151600000000002,-0.65758,38.71,-2.4325,19.8275
829,81070,0.8296,-0.191052,-0.63318,52.78,-10.29,26.9675
830,81167,0.69662,-0.104432,-0.770308,42.7875,-13.0375,22.3825
831,81264,0.644892,-0.22935999999999998,-0.7451760000000001,43.225,-7.49,13.3
832,81361,0.635376,-0.141276,-0.883524,53.6025,-2.8175,0.7
833,81458,0.62342,-0.237656,-0.7373681,71.75,-2.0475,-14.6825
834,81555,0.606096,-0.316224,-0.7600600000000001,83.4225,-0.525,-33.355
835,81652,0.5926760999999999,-0.25961599999999996,-0.8620521000000001,101.395,-0.455,-53.445
836,81749,0.653432,-0.28792,-0.694912,122.8325,1.1725,-72.8175
837,81846,0.626104,-0.228872,-0.7625,123.3575,3.99,-86.66
838,81944,0.7198,-0.12395199999999999,-0.769088,124.1975,11.4975,-90.9475
839,82041,0.709796,-0.091744,-0.7329760000000001,119.8225,19.8975,-91.4025
840,82138,0.7664041,-0.049044,-0.638304,115.3775,26.4425,-87.95501
841,82235,0.78446,-0.01464,-0.6168319999999999,108.29,29.0325,-83.335
842,82332,0.7998321,-0.046848,-0.500444,102.76,28.035,-77.35
843,82429,0.8076399999999999,-0.015616,-0.6082920999999999,91.7525,25.8475,-71.82
844,82526,0.828868,0.023912,-0.5892601,86.5375,21.9625,-65.135
845,82623,0.856684,-0.010492,-0.559004,77.735,19.4075,-57.5925
846,82720,0.860344,0.015128,-0.543876,64.1025,14.735,-50.2425
847,82817,0.8554641,0.016347999999999998,-0.5314321,52.535,10.57,-41.8075
848,82914,0.863516,0.007808001,-0.468724,39.725,6.4925,-32.585
849,83011,0.8418,0.069052,-0.570716,28.2975,2.6425,-22.855
850,83109,0.8369200000000001,0.019032,-0.544608,20.8075,-1.2775,-12.4775
851,83206,0.815692,0.080764,-0.6307401,10.1675,-2.555,-2.3975
852,83303,0.772016,0.04392,-0.707356,6.3525,-2.73,8.47
853,83400,0.745664,-0.04392,-0.68076,12.075,-0.35,17.4475
854,83497,0.7283400999999999,-0.07198,-0.692472,13.23,3.605,22.1025
855,83594,0.711992,-0.188368,-0.644648,15.995,9.555,24.71
856,83691,0.69052,-0.117852,-0.7998321,15.5225,18.0425,24.99
857,83788,0.6390359999999999,-0.205936,-0.7376119999999999,18.76,27.755,22.9075
858,83885,0.6736840000000001,-0.21667199999999998,-0.7007680000000001,16.6775,41.51,19.6525
859,83982,0.6602640000000001,-0.177876,-0.7664041,19.18,54.635,15.33
860,84079,0.6290319999999999,-0.191052,-0.788852,22.2425,71.12,11.305
861,84176,0.6566041,-0.182268,-0.7766521,23.5725,89.5125,7.63
862,84274,0.612684,-0.185196,-0.770308,26.6525,108.22,2.6425
863,84371,0.563396,-0.21716,-0.805688,31.92,131.5125,-2.1525
864,84468,0.548756,-0.281088,-0.786412,33.04,157.465,-8.0675
865,84565,0.434564,-0.261324,-0.9059721,35.84,186.4275,-16.9575
866,84662,0.374784,-0.22204000000000002,-0.9933241,41.58,228.725,-30.0825
867,84759,0.250832,-0.196176,-1.080432,62.895,284.0075,-42.28
868,84856,0.163236,-0.211792,-0.964532,88.06,343.91,-60.0075
869,84953,0.6441600000000001,-0.33623200000000003,-1.064084,108.7975,422.8525,-83.44001
870,85050,1.1265479999999999,-0.6753920999999999,-0.985516,110.39,457.205,-111.545
871,85147,2.17404,-0.358192,-0.69418,64.1025,521.85,-147.875
872,85244,2.824056,0.100284,-0.9167081,38.9725,570.745,-157.465
873,85341,2.700104,0.3538,-0.9032879999999999,76.5975,573.37,-115.7975
874,85438,3.118564,0.439932,-1.291736,148.33,571.9175,-65.8875
875,85536,2.989732,0.435296,-1.860744,181.895,504.5775,-21.6475
876,85633,2.573224,-0.319396,-3.412584,191.975,401.345,13.23
877,85730,2.14842,-0.7991,-2.990464,166.0575,184.275,63.7
878,85827,1.8919759999999999,0.025131999999999998,-3.424296,123.9525,-20.5275,122.325
879,85924,0.841556,0.360388,-1.9251599999999998,86.59,-172.48,174.37
880,86021,0.6456241,0.808372,-1.575996,96.6875,-199.64,222.5125
881,86118,0.676124,0.9933241,-1.307108,120.2425,-208.3375,245.315
882,86215,0.8447280999999999,1.196576,-1.276852,138.2675,-217.1925,243.075
883,86312,0.9730721,1.317112,-1.259284,150.57,-238.6825,225.5925
884,86409,1.0889719999999998,1.413736,-1.192916,158.2175,-270.7075,202.4925
885,86506,1.1148360000000002,1.492548,-1.086288,163.38,-307.4225,180.95
886,86603,1.173884,1.548424,-0.924516,166.25,-340.1475,160.265
887,86700,1.1958440000000001,1.603568,-0.754448,164.29,-365.505,138.5475
888,86798,1.142896,1.7099520000000001,-0.59048,159.0575,-380.66,112.7175
889,86895,1.096536,1.8575720000000002,-0.46628400000000003,153.895,-384.755,78.9075
890,86992,1.074332,1.9422400000000002,-0.382104,151.5675,-383.145,37.205
891,87089,1.06628,1.93858,-0.325008,151.69,-375.865,-5.7575
892,87186,1.0887280000000001,1.7751,-0.329888,150.465,-362.5125,-42.595
893,87283,1.2641639999999998,1.59576,-0.402844,139.23,-340.69,-69.3875
894,87380,1.5103600000000001,1.523536,-0.554124,113.3475,-324.6425,-90.2475
895,87477,1.754116,1.575752,-0.715164,87.0625,-321.4575,-109.06
896,87574,1.9241840000000001,1.719224,-0.785192,72.6775,-330.7675,-127.26
897,87671,2.038132,1.849032,-0.793976,79.485,-342.685,-145.495
898,87768,2.156716,1.82024,-0.773724,104.79,-354.34,-164.9375
899,87866,2.245532,1.699704,-0.745664,130.655,-362.075,-187.705
900,87963,2.38998,1.5640399999999999,-0.7515201,147.2625,-367.9725,-211.9775
901,88060,2.500268,1.489132,-0.7422481,154.1225,-374.01,-233.94
902,88157,2.655696,1.487668,-0.7107720000000001,156.2925,-376.0225,-251.3875
903,88254,2.785504,1.459608,-0.57706,160.2475,-374.2025,-262.255
904,88351,2.894328,1.453264,-0.363072,161.98,-366.695,-267.085
905,88448,2.9868040000000002,1.4903520000000001,-0.11712,157.22,-352.135,-269.9025
906,88545,3.0148639999999998,0.9476959999999999,0.256932,149.905,-336.175,-278.775
907,88642,2.81332,0.7032079999999999,0.741028,115.99,-319.655,-304.08
908,88739,2.7825759999999997,0.9982040000000001,1.056764,64.27750999999999,-280.245,-321.1775
909,88836,2.8369880000000003,0.9330560999999999,1.38592,69.79,-229.565,-312.0075
910,88933,2.867,0.580232,1.779248,90.93,-185.5175,-295.365
911,89031,2.61568,0.196908,2.247484,90.56251,-148.6625,-279.4575
912,89128,2.508564,-0.232776,2.510516,66.2375,-97.7725,-261.31
913,89225,2.6059200000000002,-0.490196,2.323612,21.6125,-34.79,-239.225
914,89322,2.6047,-0.353556,1.8766040000000002,-20.0025,15.89,-210.2275
915,89419,2.3589919999999998,-0.24326799999999998,1.4762,-16.345,45.395,-169.6625
916,89516,1.658712,0.776408,0.03416,34.58,82.14499,-122.5525
917,89613,-0.690764,-4.09554,-1.125816,258.2125,182.42,-89.075
918,89710,0.644892,-1.442528,-2.7301159999999998,62.86,282.415,-105.525
919,89807,2.1718439999999997,-1.167784,0.543388,23.5025,273.6125,-80.99
920,89904,2.084736,-1.574044,0.5941401,-2.38,255.955,-78.155
921,90001,2.4827,-1.113372,-1.0797,-27.72,288.855,-43.2075
922,90098,1.527684,0.08100801,-0.9198799999999999,-41.8425,229.6,14.77
923,90195,2.465864,-0.098088,-2.236504,-39.235,206.7625,16.24
924,90293,2.44122,0.061732,0.203984,-50.085,106.2425,-11.375
925,90390,1.3359,0.45261999999999997,-1.071404,-37.0825,-33.285,44.555
926,90487,0.661728,0.114924,-0.515572,-37.415,0.28,37.555
927,90584,0.959408,0.256932,-0.702232,-34.72,-3.2375,31.8325
928,90681,0.8662001,0.35624,-0.644648,-20.3,-11.165,36.995
929,90778,0.8781559999999999,0.38186,-0.6319600000000001,-3.92,-12.005,38.4125
930,90875,0.8447280999999999,0.266448,-0.6612401,9.0125,-15.75,31.1325
931,90972,0.75274,0.08344800000000001,-0.678076,19.7925,-17.815,28.2975
932,91069,0.72468,-0.104432,-0.6956439999999999,23.2575,-17.9025,25.48
933,91166,0.715896,-0.09613601,-0.725168,21.245,-16.0125,21.4375
934,91263,0.72346,-0.1403,-0.7139439999999999,19.7925,-14.1575,19.32
935,91360,0.683932,-0.18544000000000002,-0.71858,19.0575,-13.72,16.45
936,91458,0.674172,-0.180804,-0.731024,15.225,-9.7125,10.9375
937,91555,0.6954,-0.120048,-0.7232161,10.8675,-4.9175,5.8275
938,91652,0.6885680999999999,-0.13298,-0.7129681,9.7825,-2.765,3.395
939,91749,0.6756361,-0.104432,-0.733952,9.1,-1.6625,1.3825
940,91846,0.6573359999999999,-0.171044,-0.7183361,14.595,-1.785,-2.6775
941,91943,0.634644,-0.139324,-0.7903161,23.9575,-2.73,-9.7125
942,92040,0.6351319999999999,-0.182268,-0.745908,40.4425,-4.445,-19.04
943,92137,0.6273241,-0.25522399999999995,-0.7166279999999999,56.8925,-6.6325,-31.4825
944,92234,0.6224441,-0.309148,-0.756156,73.43,-8.225,-47.3375
945,92331,0.6263479999999999,-0.303292,-0.778116,86.975,-9.03,-64.0675
946,92428,0.6283,-0.169824,-0.8164239999999999,97.405,-8.3825,-78.785
947,92525,0.6514800000000001,-0.24351199999999998,-0.664412,109.5675,-8.47,-90.42251
948,92623,0.6749041,-0.286456,-0.6082920999999999,113.015,-8.19,-100.1875
949,92720,0.669292,-0.110044,-0.828624,115.6925,-8.015,-106.9425
950,92817,0.686128,-0.115656,-0.729072,124.53,-8.6625,-110.705
951,92914,0.73688,-0.14762,-0.5917,120.4,-8.785,-111.545
952,93011,0.6878361,-0.08808401,-0.7795801,117.7225,-8.995,-109.34
953,93108,0.724436,-0.033428,-0.700036,114.835,-6.685,-104.615
954,93205,0.7241920000000001,-0.0793,-0.6439159999999999,103.0925,-3.255,-97.58
955,93302,0.709064,-0.021472,-0.777872,95.06,-0.665,-88.585
956,93399,0.7664041,-0.069052,-0.66978,86.51999,3.15,-79.2575
957,93496,0.726388,0.006587999999999999,-0.7622561,77.5775,5.705,-71.2075
958,93593,0.715896,-0.07344400000000001,-0.642452,73.465,8.96,-63.245
959,93690,0.707356,-0.048556,-0.712724,65.2575,12.67,-56.315
960,93788,0.678808,-0.032695999999999996,-0.75762,64.5225,16.7475,-51.0475
961,93885,0.7381001,-0.134444,-0.6451359999999999,61.495,22.75,-46.165
962,93982,0.6893,-0.05977999999999999,-0.7754321,57.26,28.9975,-41.6675
963,94079,0.66246,-0.0854,-0.734928,58.1525,37.415,-38.045
964,94176,0.705404,-0.116876,-0.6709999999999999,54.565,46.8825,-34.2125
965,94273,0.6600201,-0.048068,-0.8215481,54.5125,56.56,-31.5
966,94370,0.6885680999999999,-0.166408,-0.6753920999999999,57.54,68.0575,-27.4925
967,94467,0.6785640000000001,-0.098088,-0.782752,53.27,81.27,-23.45
968,94564,0.612684,-0.077836,-0.8230120999999999,57.085,95.375,-20.4575
969,94661,0.7041841,-0.19739600000000002,-0.645868,55.8075,112.5775,-16.5025
970,94758,0.658068,-0.11467999999999999,-0.7766521,54.67,129.36,-13.825
971,94856,0.59048,-0.19983599999999999,-0.750544,61.4425,148.4,-11.7775
972,94953,0.6141479999999999,-0.26108000000000003,-0.73444,60.4625,169.5575,-11.445
973,95050,0.493856,-0.194224,-0.802272,67.3225,193.06,-14.3325
974,95147,0.5002,-0.18056,-0.7046720999999999,79.9575,227.5875,-20.0725
975,95244,0.503616,-0.139324,-0.61,97.3525,262.9375,-25.795
976,95341,0.4514,-0.19983599999999999,-0.499712,113.855,296.8875,-31.395
977,95438,0.575596,-0.27694,-0.44944799999999996,122.9025,341.2325,-39.34
978,95535,1.086776,-0.389912,-0.30841599999999997,128.03,377.3875,-47.7925
979,95632,1.719224,-0.36966,-0.824232,109.9525,390.4775,-51.9575
980,95729,1.803648,0.040260000000000004,-1.097024,89.985,449.5225,-65.73
981,95826,2.165012,0.187148,-0.9882001,75.2325,461.6325,-68.11
982,95923,2.285792,0.413336,-0.8540000000000001,72.4325,481.705,-50.155
983,96020,2.7886759999999997,0.26596,-0.776896,88.0775,513.3975,-20.615
984,96118,3.138328,0.574132,-1.104344,56.0175,478.625,8.82
985,96215,2.7969720000000002,0.7137001000000001,-1.693116,16.9925,423.36,25.6375
986,96312,2.3058,0.7476161,-3.244712,-22.925,332.3425,41.0725
987,96409,2.6193400000000002,0.9208561,-3.221532,-7.105,136.92,58.0825
988,96506,1.78852,1.273436,-3.170292,11.2,-32.48,48.2825
989,96603,0.671244,0.964044,-2.11426,45.78,-159.7575,54.8975
990,96700,0.483608,0.758596,-1.6560279999999998,65.9575,-154.35,56.6125
991,96797,0.6070720000000001,0.664412,-1.539152,67.6375,-156.24,39.375
992,96894,0.7032079999999999,0.64782,-1.5020639999999998,60.1125,-170.8,15.3475
993,96991,0.7046720999999999,0.6290319999999999,-1.432768,54.7575,-203.1925,-5.32
994,97088,0.6944241,0.5675439999999999,-1.310768,56.875,-238.595,-18.0775
995,97186,0.65758,0.48848800000000003,-1.1570479999999999,60.865,-270.48,-24.115
996,97283,0.632204,0.41016400000000003,-1.006256,61.8275,-297.2375,-26.9675
997,97380,0.632204,0.333304,-0.8884040000000001,57.26,-318.115,-30.24
998,97477,0.652212,0.309392,-0.793488,46.725,-333.9525,-34.8425
999,97574,0.7056479999999999,0.299144,-0.754204,34.825,-344.435,-39.515
1000,97671,0.784216,0.301584,-0.755424,24.3075,-351.5925,-42.9975
1001,97768,0.83814,0.29768,-0.7822640000000001,15.575,-358.2775,-45.2025
1002,97865,0.941108,0.294508,-0.8039801,8.05,-363.93,-46.1475
1003,97962,1.041636,0.2745,-0.7834840000000001,-0.5425,-368.935,-45.7975
1004,98059,1.136064,0.267424,-0.718092,-12.2325,-371.7,-45.43
1005,98157,1.253428,0.27571999999999997,-0.691008,-27.8775,-368.7075,-46.095
1006,98254,1.46522,0.343552,-0.743468,-44.66,-359.695,-50.995
1007,98351,1.565504,0.387716,-0.787388,-56.385,-352.52,-62.4575
1008,98448,1.663348,0.430904,-0.897432,-62.23,-340.7425,-76.6675
1009,98545,2.101328,0.42748800000000003,-1.1934040000000001,-64.41751,-322.2625,-92.4525
1010,98642,2.574688,0.5343600000000001,-1.4274,-64.61,-317.3275,-109.2
1011,98739,2.7130360000000002,0.647576,-1.322968,-54.4075,-331.3975,-121.345
1012,98836,2.7654959999999997,0.552172,-0.9840521000000001,-33.0925,-338.2925,-130.7425
1013,98933,2.8726119999999997,0.136884,-0.512644,-19.1275,-329.07,-141.4
1014,99030,2.810636,-0.564616,0.25522399999999995,-24.6575,-312.025,-156.7475
1015,99127,2.90726,-0.3294,0.46042799999999995,-73.29,-278.285,-165.55
1016,99225,2.840648,-0.23911999999999997,0.945256,-78.9775,-241.465,-144.4975
1017,99322,2.91702,-0.604144,1.50426,-58.3625,-205.275,-103.11
1018,99419,2.705228,-0.891576,2.148664,-60.375,-181.44,-59.4125
1019,99516,2.556632,-0.90402,2.716452,-94.23751,-151.8125,-22.505
1020,99613,2.44732,-0.744444,3.026088,-127.6625,-106.2425,3.0275
1021,99710,2.343864,-0.49580799999999997,2.894328,-141.6975,-51.3275,11.13
1022,99807,2.244556,-0.141032,2.418284,-123.2875,3.6925,4.69
1023,99904,2.263344,0.015616,1.7877880000000002,-60.97,52.0975,-5.2325
1024,100001,2.3419119999999998,-0.183,1.214388,28.105,85.2425,-13.3175
1025,100098,2.249192,-0.5648601,0.8466800999999999,92.7325,95.2525,-21.2975
1026,100195,0.169824,1.3090600000000001,-4.214124,105.175,112.77,-9.2925
1027,100292,-2.77916,-1.890512,-3.187616,255.675,187.8975,83.2125
1028,100390,2.244312,-1.022848,-0.546804,181.02,272.6325,154.35
1029,100487,1.7751,-2.2997,2.040572,173.915,247.135,148.085
1030,100584,2.7023,-1.4940120000000001,-0.948184,115.9375,237.1425,93.87
1031,100681,2.17282,-0.8254520000000001,-0.5846241,58.135,252.5425,59.64
1032,100778,1.392996,-0.11614400000000001,-1.188768,37.2925,179.6375,52.57
1033,100875,0.8235001000000001,-0.58804,-1.026996,44.03,163.7475,23.7825
1034,100972,3.457724,0.000976,-2.8552880000000003,19.53,159.8275,8.155
1035,101069,1.1446040000000002,0.324276,0.35160399999999997,42.7875,14.5425,30.7475
1036,101166,1.0765280000000002,-0.44725200000000004,-0.800564,30.94,3.2725,25.6375
1037,101263,0.921344,0.011224,-0.7156520000000001,23.2225,-10.2725,20.4575
1038,101360,0.8166680000000001,-0.083936,-0.658556,17.3075,0.8575,13.6325
1039,101458,0.8308200000000001,-0.07881200000000001,-0.706624,17.045,-4.83,11.62
1040,101555,0.778604,-0.082716,-0.694912,12.9675,-4.6375,7.595
1041,101652,0.762744,-0.03294,-0.69052,11.2525,-3.15,4.9525
1042,101749,0.748836,-0.012931999999999999,-0.70028,11.13,-3.815,4.1125
1043,101846,0.738344,-0.031476,-0.6956439999999999,12.0225,-4.095,4.375
1044,101943,0.7232161,-0.05587601,-0.6956439999999999,11.83,-4.0075,4.1825
1045,102040,0.711504,-0.082716,-0.696132,11.41,-3.3425,3.08
1046,102137,0.7107720000000001,-0.074664,-0.694912,9.59,-2.345,1.225
1047,102234,0.7156520000000001,-0.049532,-0.69418,8.4175,-1.365,0.0175
1048,102332,0.720776,-0.010248,-0.692472,7.9975,-1.12,0.3325
1049,102429,0.712236,-0.031232,-0.6917399999999999,10.0275,-1.575,2.1
1050,102526,0.714676,-0.018056,-0.6883239999999999,11.1125,-2.0825,3.78
1051,102623,0.7227279999999999,-0.012931999999999999,-0.681736,12.145,-2.8175,5.4425
1052,102720,0.719312,-0.02196,-0.686372,13.44,-3.815,7.07
1053,102817,0.715896,-0.040748,-0.67832,14.1225,-5.1275,8.365
1054,102914,0.71126,-0.044407999999999996,-0.688812,13.9125,-6.5275,9.1
1055,103011,0.708576,-0.058072000000000006,-0.6883239999999999,13.37,-7.3675,9.0825
1056,103108,0.702476,-0.063684,-0.6844201,12.7925,-7.9625,8.7325
1057,103205,0.698328,-0.057584,-0.696132,11.655,-8.3475,8.2075
1058,103303,0.7056479999999999,-0.026351999999999997,-0.691008,11.1825,-7.8575,8.5225
1059,103400,0.7183361,-0.033672,-0.69296,11.48,-7.28,9.7475
1060,103497,0.712724,-0.06344,-0.698328,12.2675,-7.5425,11.2525
1061,103594,0.705404,-0.077592,-0.707112,11.4975,-7.1225,12.1275
1062,103691,0.7019880000000001,-0.10126,-0.7034521,11.7425,-6.16,12.005
1063,103788,0.702476,-0.129076,-0.704916,10.5175,-5.39,10.9025
1064,103885,0.7041841,-0.11760799999999999,-0.7183361,8.715,-3.7975,9.555
1065,103982,0.70028,-0.10687200000000001,-0.713212,7.91,-1.4,8.47
1066,104079,0.7134560999999999,-0.08369201,-0.724436,6.58,2.1175,8.435
1067,104176,0.708332,-0.073688,-0.7266321,7.175,5.3375,9.7475
1068,104274,0.695156,-0.07344400000000001,-0.7227279999999999,7.7525,9.73,11.5325
1069,104371,0.691008,-0.033672,-0.7237041,8.785,15.1025,13.475
1070,104468,0.553636,-0.29426399999999997,-0.907192,17.71,22.2775,15.0675
1071,104565,0.653432,0.032695999999999996,-0.960628,18.0075,35.56,12.74
1072,104662,0.609024,-0.14518,-0.7600600000000001,19.88,53.2525,14.3675
1073,104759,0.612684,-0.15006,-0.8076399999999999,20.51,68.915,14.35
1074,104856,0.609024,-0.133224,-0.8552200000000001,24.885,86.8525,11.9525
1075,104953,0.576084,-0.091012,-0.853024,30.4325,104.8425,10.71
1076,105050,0.5441199999999999,-0.14347200000000002,-0.874252,35.28,127.12,10.15
1077,105148,0.5702281,-0.081984,-0.868152,41.545,151.8825,11.515
1078,105245,0.548268,-0.1769,-0.887184,46.7775,178.5875,13.16
1079,105342,0.46896800000000005,-0.155672,-0.9394,53.445,206.8325,10.4475
1080,105439,0.4404201,-0.07393200000000001,-0.9540401,60.83,243.9325,6.335
1081,105536,0.386008,-0.094916,-0.8615640999999999,67.095,283.57,8.3475
1082,105633,0.34721199999999997,-0.119316,-0.76372,67.2525,338.135,9.5025
1083,105730,0.334524,-0.244,-0.482388,73.2025,403.305,8.5925
1084,105827,1.123132,-0.6178081,-0.524356,64.365,492.1875,1.75
1085,105924,1.7109279999999998,-0.9496479999999999,-0.726876,1.4875,535.815,-17.115
1086,106021,2.650084,0.17934,-1.482544,-106.9425,565.46,-47.005
1087,106118,3.346704,0.740296,-1.3703040000000002,-127.19,573.405,-35.245
1088,106216,3.4831,0.429196,-1.3571280000000001,-72.2575,572.67,16.555
1089,106313,3.948408,0.8605879999999999,-1.9964080000000002,-88.53251,539.245,55.475
1090,106410,3.199084,1.2939319999999999,-4.032832,-136.4475,463.295,74.25251
1091,106507,1.812432,2.026176,-3.369396,-116.48,213.6925,70.315
1092,106604,1.843908,1.957368,-3.764432,-18.0775,9.6775,39.6375
1093,106701,0.598532,1.456436,-2.39608,18.1475,-133.525,-3.9025
1094,106798,0.12712400000000001,1.0169920000000001,-1.860744,62.4925,-159.67,-23.205
1095,106895,0.13908,0.5172800999999999,-1.566236,79.0125,-147.105,-45.4825
1096,106992,0.390156,0.215696,-1.511336,55.5975,-152.0925,-70.4375
1097,107089,0.508984,0.112972,-1.4842520000000001,18.2875,-178.2725,-89.1275
1098,107186,0.47482399999999997,0.062464,-1.368352,-9.345,-212.625,-94.74501
1099,107284,0.46726,-0.024888,-1.265384,-21.56,-240.17,-90.44001
1100,107381,0.499712,-0.124196,-1.1453360000000001,-26.3375,-262.1325,-83.65001
1101,107478,0.509228,-0.21886799999999998,-1.0323639999999998,-30.975,-280.7875,-79.3275
1102,107575,0.5382640000000001,-0.291824,-0.9530641,-36.4525,-297.4825,-78.715
1103,107672,0.5607121,-0.34428400000000003,-0.900848,-41.6675,-308.35,-80.9375
1104,107769,0.6734399999999999,-0.384544,-0.9179280000000001,-43.575,-315.6475,-83.335
1105,107866,0.742004,-0.43188000000000004,-0.9291520000000001,-41.3525,-322.245,-84.08751
1106,107963,0.8940161,-0.477996,-1.023824,-37.905,-329.5775,-82.32
1107,108060,0.9918600000000001,-0.5058121,-1.062864,-34.72,-339.08,-76.895
1108,108158,1.133868,-0.515084,-1.119472,-32.6725,-348.9325,-67.725
1109,108255,1.22,-0.49824799999999997,-1.108248,-32.7075,-357.735,-55.685
1110,108352,1.353712,-0.4553041,-1.105564,-36.4525,-361.1825,-43.33
1111,108449,1.462536,-0.38918,-1.0704280000000002,-43.33,-359.5375,-35.805
1112,108546,1.7160520000000001,-0.303292,-1.18096,-52.9375,-349.5975,-34.3525
1113,108643,2.214544,-0.12566,-1.443992,-61.39,-337.33,-37.8175
1114,108740,2.695712,0.14493599999999998,-1.495476,-64.7675,-336.63,-43.435
1115,108837,2.721332,0.31646799999999997,-1.1285,-51.94,-350.0525,-54.0575
1116,108934,2.821128,-0.016347999999999998,-0.5997520000000001,-25.7075,-346.955,-71.05
1117,109031,3.1412560000000003,-0.5314321,-0.058316,-17.78,-319.62,-96.3375
1118,109129,3.392332,-0.104676,0.211548,-50.015,-293.615,-118.7025
1119,109226,3.5755760000000003,0.361608,0.7451760000000001,-32.9525,-274.47,-117.5475
1120,109323,3.3062,-0.0793,1.814384,34.895,-266.0875,-96.0925
1121,109420,2.9079919999999997,-0.805688,3.109048,63.735,-247.59,-74.34
1122,109517,2.655452,-1.119716,3.920348,5.0925,-194.005,-57.995
1123,109614,2.8369880000000003,-0.9784401,3.9288879999999997,-78.9425,-108.9725,-42.3675
1124,109711,2.76818,-0.744688,3.571672,-129.9025,-33.8625,-27.86
1125,109808,2.6266599999999998,-0.316712,2.748416,-129.395,27.3,-17.29
1126,109906,2.628124,0.00122,1.8092599999999999,-76.2825,79.73001,-8.3125
1127,110003,2.0352040000000002,-0.04514,0.9745360000000001,-2.66,95.7775,-8.8025
1128,110100,-1.559892,2.006168,-4.13336,40.635,137.2175,5.6
1129,110197,-3.6314519999999995,-0.683932,-1.6169879999999999,162.7675,196.21,107.8
1130,110294,3.6634160000000002,0.333304,0.29377600000000004,29.8375,416.185,99.64499
1131,110391,2.330932,-1.614792,3.622668,181.125,298.34,81.46251
1132,110488,4.297328,-1.0797,-1.9990919999999999,84.56,337.1025,95.935
1133,110585,1.3764040000000002,-0.863028,-1.096292,97.28251,269.4475,83.73751
1134,110682,2.696688,0.30182800000000004,-2.553948,60.0425,202.93,56.805
1135,110779,3.433324,-0.6566041,-0.5975560000000001,89.635,148.75,44.0125
1136,110877,1.532808,0.09150001,-0.551928,67.2875,-44.38,90.405
1137,110974,0.765672,-0.313296,-0.573156,54.0575,9.3625,52.3425
1138,111071,1.04798,-0.25058800000000003,-0.642452,34.7025,-6.4225,43.54
1139,111168,0.8493641,-0.265228,-0.658556,29.9775,-2.1,28.63
1140,111265,0.8020281,-0.034892,-0.7707961,22.435,-0.735,18.9175
1141,111362,0.769332,-0.178608,-0.6673399999999999,21.5775,-1.5225,12.67
1142,111459,0.763476,-0.012688,-0.71126,13.5275,0.14,6.86
1143,111556,0.7551800000000001,0.000244,-0.692228,12.8975,-0.0175,5.6525
1144,111653,0.7415161,-0.05368,-0.6517241,13.9825,-0.7175,6.6675
1145,111750,0.72956,-0.049532,-0.682712,12.495,-0.98,6.2825
1146,111848,0.7278521,-0.05124001,-0.69784,11.375,-1.3475,5.32
1147,111945,0.721264,-0.122976,-0.686616,11.06,-1.4875,3.9725
1148,112042,0.71248,-0.11321600000000001,-0.682712,8.5925,-0.805,0.7525
1149,112139,0.71004,-0.060267999999999995,-0.6897880999999999,5.67,0.28,-2.03
1150,112236,0.711992,-0.025131999999999998,-0.693204,5.1975,0.0875,-2.5025
1151,112333,0.726388,-0.00244,-0.684176,5.075,-0.8400001,-1.75
1152,112430,0.735416,0.032208,-0.6649,5.145,-2.555,-0.14
1153,112527,0.7229720000000001,0.0366,-0.6878361,6.09,-4.7425,2.835
1154,112624,0.71858,-0.009028000999999999,-0.68198,8.3475,-6.475,5.95
1155,112721,0.715164,-0.045627999999999995,-0.679296,8.925,-6.9825,7.14
1156,112819,0.7139439999999999,-0.045872,-0.6946681,8.33,-7.0,7.385
1157,112916,0.720288,-0.058072000000000006,-0.671976,9.38,-6.615,8.12
1158,113013,0.720532,-0.06466001,-0.68076,9.5375,-6.58,8.435
1159,113110,0.7141881,-0.06270801,-0.685396,9.8,-6.5625,8.68
1160,113207,0.71858,-0.067588,-0.686128,10.7625,-6.4575,9.485
1161,113304,0.7178479999999999,-0.065148,-0.691496,10.885,-5.74,10.4475
1162,113401,0.711504,-0.09223200000000001,-0.70516,10.7975,-5.1625,10.8675
1163,113498,0.7176041,-0.069784,-0.712236,9.975,-3.9725,11.5325
1164,113595,0.71126,-0.079544,-0.6895439999999999,9.66,-2.625,12.04
1165,113692,0.7017439999999999,-0.0976,-0.72346,8.645,-0.1575,12.74
1166,113790,0.719312,-0.064416,-0.731268,8.4525,3.15,13.545
1167,113887,0.6993041,-0.072712,-0.7027201,8.715,6.2825,14.8225
1168,113984,0.7015,-0.142496,-0.654408,8.4875,10.8675,15.3825
1169,114081,0.662216,-0.134688,-0.7722600000000001,3.955,17.1325,15.4
1170,114178,0.532896,0.126392,-1.063108,-0.7175,26.53,16.9225
1171,114275,0.6517241,-0.245952,-0.6202479999999999,16.625,45.745,17.5525
1172,114372,0.6456241,-0.057828,-0.895236,11.1475,62.3525,16.8
1173,114469,0.619516,-0.16201600000000002,-0.741028,20.0375,77.1225,16.5725
1174,114566,0.58682,-0.14566800000000002,-0.869128,19.215,91.84000999999999,14.455
1175,114664,0.58804,-0.182268,-0.8357,28.315,110.46,10.535
1176,114761,0.6219561,-0.065148,-0.888648,27.5975,137.5325,9.3275
1177,114858,0.534848,-0.14078800000000002,-0.8169121,34.5975,164.115,9.415
1178,114955,0.486292,-0.265472,-0.8852321,35.7525,195.7725,9.8875
1179,115052,0.439932,-0.209596,-0.9628241,35.9275,230.37,3.64
1180,115149,0.396256,-0.002684,-0.9433041,42.4725,271.39,-3.9025
1181,115246,0.399428,-0.20642399999999997,-0.708332,49.63,313.8625,-1.8025
1182,115343,0.330376,-0.342332,-0.391376,36.715,372.0325,2.7475
1183,115440,0.676124,-0.361608,-0.23668000000000003,5.53,453.18,2.0125
1184,115537,1.087996,-0.73932,-0.11955999999999999,-33.6525,508.4975,-2.3275
1185,115634,2.5800560000000003,-0.639524,-1.242692,-108.78,554.8725,-26.6
1186,115732,2.895548,0.6993041,-1.6082040000000002,-230.335,573.405,-66.6225
1187,115829,3.249592,0.9696561,-1.524512,-210.525,573.405,-28.4025
1188,115926,3.4347879999999997,0.8413120000000001,-1.348344,-130.3575,573.405,49.8925
1189,116023,4.153855999999999,1.117032,-2.6715560000000003,-101.255,549.5875,109.3225
1190,116120,3.112708,1.730936,-4.383704,-106.9075,430.0275,132.1425
1191,116217,1.851472,1.993968,-3.18298,-31.0275,169.4525,112.7175
1192,116314,1.8056,1.955416,-3.662196,52.465,-30.52,49.385
1193,116411,0.5694961,1.4435040000000001,-2.3302,78.225,-182.7525,-12.495
1194,116508,0.21618400000000002,0.9962521000000001,-1.701656,110.1275,-194.6175,-41.5275
1195,116606,0.165432,0.575596,-1.401292,124.32,-183.82,-59.4125
1196,116703,0.43773599999999996,0.18446400000000002,-1.327604,110.1975,-183.0325,-71.9775
1197,116800,0.5565640000000001,-0.02928,-1.289052,74.3225,-203.7175,-79.6075
1198,116897,0.56242,-0.070516,-1.219268,31.22,-235.305,-79.695
1199,116994,0.5663239999999999,-0.050752,-1.132892,-0.0175,-263.06,-72.345
1200,117091,0.610488,-0.04392,-1.0492,-16.5025,-285.7575,-61.355
1201,117188,0.657824,-0.037332,-0.983564,-23.7475,-306.215,-51.52
1202,117285,0.671244,-0.052216,-0.9059721,-26.25,-323.995,-46.095
1203,117382,0.746396,-0.070516,-0.888648,-28.5425,-337.575,-46.305
1204,117480,0.8105680000000001,-0.095648,-0.877912,-31.2725,-347.8475,-50.7675
1205,117577,0.91012,-0.133956,-0.8893800999999999,-34.545,-356.7025,-57.4
1206,117674,0.955016,-0.185196,-0.898164,-37.625,-366.625,-62.335
1207,117771,1.0711600000000001,-0.242292,-0.9254921,-41.65,-372.155,-63.6125
1208,117868,1.158756,-0.253272,-0.952332,-48.4575,-374.6575,-60.165
1209,117965,1.295152,-0.202032,-0.9684360999999999,-57.5925,-374.325,-53.27
1210,118062,1.471808,-0.17763199999999998,-0.987224,-66.675,-368.7075,-47.25
1211,118159,1.6601759999999999,-0.161528,-1.0145520000000001,-76.93,-361.0775,-48.5625
1212,118256,1.991284,-0.05612,-1.19194,-89.6875,-351.295,-56.3675
1213,118354,2.469768,0.232776,-1.463268,-96.53,-344.085,-65.2575
1214,118451,2.8260080000000003,0.447984,-1.454972,-84.3675,-348.3375,-76.8775
1215,118548,2.934344,0.309148,-1.0972680000000001,-53.445,-361.3225,-95.26999
1216,118645,3.178344,-0.265716,-0.582428,-24.7975,-361.83,-122.815
1217,118742,3.3001,-0.6080479999999999,-0.032451999999999995,-24.71,-352.5725,-149.8875
1218,118839,3.435276,-0.035624,0.289628,-35.2975,-334.9675,-157.7275
1219,118936,3.260816,0.15128,1.069696,22.89,-312.725,-133.5075
1220,119033,2.852848,-0.676612,2.359968,109.5675,-283.255,-90.16001
1221,119130,2.910432,-1.5384200000000001,3.40136,108.325,-218.2075,-50.54
1222,119227,2.912872,-1.569408,4.026732,-1.785,-152.25,-23.8875
1223,119325,2.815272,-1.0906799999999999,3.923276,-114.94,-82.4075,-4.8475
1224,119422,2.731824,-0.6790520999999999,3.3857440000000003,-146.125,-1.7325,11.1475
1225,119519,2.703764,-0.22814,2.363872,-105.91,70.9975,23.52
1226,119616,2.722552,-0.006587999999999999,1.355176,-5.0575,118.6675,32.8825
1227,119713,1.8900240000000001,-0.26718000000000003,-1.591856,83.825,134.365,35.805
1228,119810,-4.112132,0.696132,-5.284064,79.5375,220.3425,100.0475
1229,119907,1.345416,0.142008,-0.780312,117.0925,324.7125,178.955
1230,120004,3.82104,-0.874252,2.548092,124.285,363.4925,112.91
1231,120101,2.79624,-0.8315520000000001,0.796172,158.375,244.79,90.265
1232,120199,3.565572,-1.1834,-2.031056,99.8375,377.755,13.2475
1233,120296,1.362984,-0.801296,-1.0323639999999998,112.91,178.4125,39.55
1234,120393,1.585756,-0.104676,-1.565992,66.64,177.9225,3.15
1235,120490,3.0807439999999997,-0.744688,-0.137128,67.41001,153.7375,6.195
1236,120587,1.521096,0.158844,-0.58804,21.7175,-48.7725,58.8175
1237,120684,0.692472,-0.242536,-0.6646561,38.8325,22.75,26.6525
1238,120781,1.0438319999999999,-0.167872,-0.772992,23.625,-0.14,21.7175
1239,120878,0.828624,-0.07027201,-0.605608,13.65,-0.245,10.85
1240,120975,0.791536,-0.05246,-0.7107720000000001,11.585,0.8400001,6.9825
1241,121072,0.767624,-0.10516400000000001,-0.6885680999999999,12.845,-1.4175,3.745
1242,121169,0.758108,0.014884,-0.7137001000000001,5.67,-0.14,-0.4375
1243,121267,0.741272,-0.011468,-0.693692,7.77,0.35,-0.4375
1244,121364,0.7278521,-0.033672,-0.693448,7.805,0.63,-0.315
1245,121461,0.718092,-0.048312,-0.69906,6.6675,0.8225,-1.05
1246,121558,0.721996,-0.086864,-0.6878361,5.915,1.575,-2.6075
1247,121655,0.7171161,-0.1098,-0.690764,3.465,2.135,-5.5125
1248,121752,0.702964,-0.118828,-0.69906,0.0,3.0625,-9.5375
1249,121849,0.706136,-0.100284,-0.7093081,-4.3575,4.865,-13.685
1250,121946,0.7166279999999999,-0.056608000000000006,-0.686616,-8.19,6.3175,-16.8875
1251,122043,0.7134560999999999,-0.018544,-0.687348,-10.2725,6.4925,-18.48
1252,122140,0.727364,0.029524,-0.671488,-10.57,6.8775,-18.3575
1253,122238,0.7195560000000001,0.065148,-0.6707561,-8.8725,6.8075,-16.345
1254,122335,0.7659161,-0.003904,-0.763232,-6.8075,6.615,-13.685
1255,122432,0.7229720000000001,0.047824,-0.6785640000000001,-1.8375,5.3725,-9.345
1256,122529,0.733708,0.046116000000000004,-0.6834439999999999,0.0525,3.78,-6.44
1257,122626,0.7381001,0.030256,-0.655628,3.0625,2.7125,-3.255
1258,122723,0.7356600000000001,0.013908000000000002,-0.662948,5.7225,1.8725,-0.91
1259,122820,0.7381001,0.011712,-0.663192,7.315,0.8400001,0.63
1260,122917,0.729316,-0.004636001,-0.6771,8.89,0.49,1.89
1261,123014,0.72346,-0.002196,-0.678808,9.8,0.5425,2.59
1262,123112,0.7329760000000001,-0.008052001,-0.681736,9.8875,1.4,3.3075
1263,123209,0.7300479999999999,-0.044164,-0.6722199999999999,10.3425,1.4175,3.7975
1264,123306,0.7390760000000001,-0.033184,-0.6946681,9.695,1.995,4.2175
1265,123403,0.73444,-0.016104,-0.7093081,9.52,2.4325,4.6375
1266,123500,0.7178479999999999,-0.01464,-0.698816,9.87,3.8675,5.18
1267,123597,0.728096,-0.01464,-0.682712,9.45,6.895,5.67
1268,123694,0.725412,-0.042944,-0.6832,9.8875,10.5525,6.79
1269,123791,0.71248,0.111996,-0.47946000000000005,5.2675,15.4175,7.35
1270,123888,0.592188,-0.048068,-0.783728,-4.9175,24.325,10.9375
1271,123986,0.6822239999999999,-0.018056,-0.7027201,15.47,38.885,13.2825
1272,124083,0.640256,0.05977999999999999,-0.87474,13.8075,59.2025,16.3975
1273,124180,0.630008,-0.18251199999999998,-0.767868,19.4075,71.3125,18.2525
1274,124277,0.638792,-0.064172,-0.8762040000000001,18.97,89.2675,16.275
1275,124374,0.5897479999999999,-0.081252,-0.759328,25.13,108.3425,12.705
1276,124471,0.586088,-0.096868,-0.8430200999999999,26.0575,133.5425,9.6075
1277,124568,0.570472,-0.050263999999999996,-0.8976761000000001,32.6025,158.7425,8.33
1278,124665,0.5170359999999999,-0.12468399999999999,-0.8708360999999999,36.365,187.8275,7.0
1279,124762,0.46481999999999996,-0.2806,-0.9296399999999999,35.35,219.1,0.9975
1280,124859,0.44286000000000003,-0.011956,-0.9616040000000001,34.055,254.065,-11.9875
1281,124957,0.367952,-0.05636401,-0.827892,43.5225,291.2175,-19.2325
1282,125054,0.294996,-0.122976,-0.6258600000000001,37.2925,332.15,-21.315
1283,125151,0.954528,-0.357704,-0.640012,28.98,394.1875,-26.915
1284,125248,0.600484,-0.570472,-0.43773599999999996,-6.475,410.3925,-31.2025
1285,125345,2.357284,-0.7378560000000001,-0.904508,-55.545,536.515,-64.2425
1286,125442,2.271884,-0.054655999999999996,-1.199016,-167.2125,573.3525,-100.0125
1287,125539,3.055368,0.787144,-1.4356959999999999,-202.7025,573.405,-92.0675
1288,125636,3.280336,0.772016,-1.19072,-167.7375,573.405,-35.1575
1289,125733,3.74784,0.6502600000000001,-1.8870959999999999,-115.1675,573.3875,15.1375
1290,125830,4.012092,1.130696,-3.3664680000000002,-149.2925,539.945,45.4825
1291,125928,2.579568,2.189412,-4.48838,-156.5375,327.2325,74.2875
1292,126025,2.357284,1.856108,-4.23706,-19.39,32.2175,64.6625
1293,126122,0.8364321,1.436916,-2.7486599999999997,46.7775,-167.72,33.285
1294,126219,0.09052401,0.9535521,-1.9825,109.97,-229.3375,29.155
1295,126316,0.019275999999999998,0.5016641,-1.4905959999999998,125.335,-194.985,18.4975
1296,126413,0.327936,0.223504,-1.38226,104.7725,-180.11,0.6475
1297,126510,0.5429,0.159088,-1.394216,65.03,-192.3075,-17.535
1298,126607,0.6348881,0.180804,-1.370792,28.665,-227.4475,-26.915
1299,126704,0.610488,0.211548,-1.263188,9.555,-264.775,-25.9
1300,126801,0.619516,0.225944,-1.146312,4.7425,-295.54,-19.18
1301,126899,0.6600201,0.195444,-1.013576,7.7,-320.04,-12.25
1302,126996,0.6912520000000001,0.158844,-0.889624,9.8175,-340.585,-9.765
1303,127093,0.7105279999999999,0.12932000000000002,-0.792512,7.9275,-356.4925,-13.1775
1304,127190,0.783972,0.116632,-0.770308,2.9925,-366.1175,-21.7175
1305,127287,0.8723001,0.09442801,-0.806908,-2.6775,-372.365,-32.0425
1306,127384,1.0321200000000001,0.050508,-0.892064,-7.245,-377.16,-40.845
1307,127481,1.1472879999999999,0.023180000000000003,-0.9591639999999999,-11.97,-386.435,-45.4475
1308,127578,1.312964,-0.000976,-1.0206520000000001,-17.4825,-396.165,-46.1125
1309,127675,1.450336,0.014396,-1.051152,-23.975,-405.5975,-43.7675
1310,127773,1.5950280000000001,-0.005856,-1.046516,-30.3975,-409.185,-39.2175
1311,127870,1.7824200000000001,-0.067588,-1.0521280000000002,-38.78,-405.0725,-35.84
1312,127967,1.993236,-0.043188,-1.085068,-55.545,-395.045,-35.98
1313,128064,2.4490279999999998,0.227652,-1.260016,-75.95,-376.0925,-39.34
1314,128161,3.1390599999999997,0.532408,-1.446432,-79.7125,-359.905,-49.0175
1315,128258,3.3171800000000005,0.4404201,-1.1094680000000001,-59.99,-374.605,-64.5925
1316,128355,3.310104,-0.323056,-0.393816,-36.365,-389.025,-87.2025
1317,128452,3.2696,-0.480192,0.131028,-51.4325,-377.37,-109.7075
1318,128549,3.36476,0.037332,0.503128,-62.8425,-342.8075,-110.74
1319,128647,3.3379199999999996,0.19739600000000002,1.164124,-9.2925,-306.32,-87.15
1320,128744,3.118564,-0.35892399999999997,2.182092,59.535,-277.0775,-55.965
1321,128841,2.9463,-0.9894200000000001,3.262036,62.7375,-238.315,-34.3525
1322,128938,2.964356,-1.148264,3.930108,-14.1575,-175.0875,-21.105
1323,129035,2.84504,-0.8010520000000001,3.8264080000000003,-102.8475,-100.17,-12.7225
1324,129132,2.617632,-0.446276,3.416976,-133.035,-20.16,-10.3075
1325,129229,2.54858,-0.021716,2.4104759999999996,-103.6175,57.505,-9.8175
1326,129326,2.699128,0.13054000000000002,1.289052,-12.075,114.66,-9.835
1327,129423,2.4085240000000003,-0.044407999999999996,0.69418,74.655,121.205,-21.0525
1328,129520,-0.6317159999999999,1.1089799999999999,-4.524248,102.0425,139.8775,-21.63
1329,129618,-4.64088,-0.8049561,-2.528816,162.3475,203.385,69.65
1330,129715,2.40462,-0.232776,0.14469200000000002,72.6075,354.2,125.5275
1331,129812,2.984608,-1.22122,2.9445919999999997,131.635,368.2,4.375
1332,129909,3.765164,-1.136308,-1.258308,98.9275,317.94,-3.955
1333,130006,2.595916,-1.620892,-0.684908,101.1325,339.9025,9.8875
1334,130103,1.526952,-0.7986121,-1.3285799999999999,63.56,216.335,51.5725
1335,130200,2.85724,0.562664,-3.241052,10.675,210.6825,35.28
1336,130297,2.912384,-0.35282399999999997,0.288652,60.0775,111.1775,29.505
1337,130395,1.565992,0.5553441,-0.796416,32.27,-39.655,65.5725
1338,130492,0.665144,-0.52582,-0.49044,50.2775,-1.6275,38.535
1339,130589,0.9745360000000001,-0.111996,-0.7168720000000001,22.7675,-1.3125,29.05
1340,130686,0.8105680000000001,0.01952,-0.676856,21.385,0.5425,16.1
1341,130783,0.786656,-0.119072,-0.6734399999999999,21.455,1.855,12.845
1342,130880,0.7895840999999999,-0.029524,-0.7027201,18.8125,0.7525,9.415
1343,130977,0.766892,0.067832,-0.702964,15.015,0.5075,7.5425
1344,131074,0.758352,-0.010492,-0.6566041,18.795,-1.33,10.0975
1345,131171,0.738344,-0.009272001,-0.7034521,18.795,-2.9225,11.83
1346,131269,0.730292,-0.010248,-0.68686,19.04,-3.57,12.5825
1347,131366,0.7200439999999999,-0.05612,-0.6902761,18.795,-4.6725,13.0375
1348,131463,0.70394,-0.10394400000000001,-0.6980841,18.2875,-5.145,12.1975
1349,131560,0.71126,-0.081252,-0.692716,14.91,-4.795,9.45
1350,131657,0.70516,-0.044164,-0.6954,12.32,-4.4275,7.3675
1351,131754,0.707112,-0.02928,-0.6980841,11.6375,-4.4625,7.4725
1352,131851,0.721264,-0.039528,-0.683932,11.9525,-4.9525,7.945
1353,131948,0.72468,-0.030987999999999998,-0.6763680000000001,11.27,-5.67,7.98
1354,132045,0.7137001000000001,-0.066856,-0.679784,10.9025,-6.0375,7.6475
1355,132142,0.709796,-0.076616,-0.690032,10.2025,-5.6175,6.51
1356,132239,0.708576,-0.09979600000000001,-0.692228,8.54,-5.18,4.3925
1357,132337,0.7046720999999999,-0.09345201,-0.6917399999999999,6.825,-4.0775,2.1875
1358,132434,0.715896,-0.053436000000000004,-0.701256,5.1625,-3.255,0.665
1359,132531,0.721508,-0.047336,-0.684908,5.7575,-2.38,1.3825
1360,132628,0.719312,-0.056852,-0.6895439999999999,6.6325,-2.3975,2.6775
1361,132725,0.7190681,-0.045384,-0.698328,7.0,-2.555,4.3225
1362,132822,0.711992,-0.067588,-0.70028,7.9275,-2.1875,6.1775
1363,132919,0.712724,-0.059048,-0.71736,7.98,-0.7875,7.3325
1364,133016,0.7007680000000001,-0.08564401,-0.697108,7.9975,0.525,7.9625
1365,133113,0.709796,-0.07637200000000001,-0.7056479999999999,7.4375,2.66,8.61
1366,133211,0.702476,-0.094672,-0.7046720999999999,7.07,5.32,8.715
1367,133308,0.711992,-0.08857201,-0.763476,6.9125,9.905,9.9925
1368,133405,0.69296,-0.066124,-0.750544,7.63,13.825,11.305
1369,133502,0.670512,-0.09613601,-0.783972,8.54,20.195,12.46
1370,133599,0.5787680000000001,-0.02806,-0.9315921,8.435,28.98,13.685
1371,133696,0.6451359999999999,-0.11955999999999999,-0.777628,16.8875,47.7225,13.8775
1372,133793,0.6441600000000001,-0.112728,-0.8422879999999999,14.315,63.665,14.7175
1373,133890,0.640012,-0.127368,-0.750788,20.615,78.2075,13.9475
1374,133988,0.620736,-0.1464,-0.7869,20.58,92.295,10.85
1375,134084,0.612928,-0.10736,-0.781532,26.7925,108.36,8.715
1376,134182,0.577304,-0.074664,-0.9325680000000001,30.59,130.41,8.89
1377,134279,0.604632,-0.13176,-0.793488,40.3375,154.4025,10.465
1378,134376,0.5978,-0.064416,-0.8188641,39.7775,182.2275,12.775
1379,134473,0.47994799999999993,-0.256444,-0.8081281,47.565,210.2975,13.4925
1380,134570,0.409432,-0.17836400000000002,-0.9633120999999999,42.385,243.775,6.0025
1381,134667,0.387716,-0.04148,-0.8383841000000001,45.7625,279.1775,-2.1525
1382,134764,0.353312,-0.16958,-0.6280560000000001,50.365,324.695,-3.5175
1383,134861,0.298656,-0.325252,-0.239608,33.285,384.335,-4.025
1384,134958,0.762988,-0.411628,-0.102968,2.6775,445.83,-6.93
1385,135056,1.818776,-0.765672,-0.6722199999999999,-44.3625,501.41,-17.2725
1386,135153,2.314584,-0.000732,-1.39934,-135.7125,572.74,-51.24
1387,135250,2.964356,0.651968,-1.292468,-187.25,573.405,-56.805
1388,135347,3.19884,0.7407841,-1.287588,-151.5675,573.405,-7.3675
1389,135444,3.466996,0.745664,-1.291004,-89.2675,573.405,60.3575
1390,135541,4.0850480000000005,0.8740081000000001,-2.4565919999999997,-94.81501,549.6575,98.6475
1391,135638,2.978264,1.9032,-4.62624,-147.49,421.9425,105.735
1392,135735,2.065948,2.201612,-3.415268,-70.35,121.205,76.58
1393,135832,1.621624,2.112308,-3.493104,25.1825,-86.22251,15.505
1394,135930,0.42578,1.4454559999999999,-2.1899,85.99501,-222.635,-25.34
1395,136027,0.23521599999999998,0.799588,-1.586244,133.91,-205.1525,-40.4075
1396,136124,0.22423600000000002,0.2501,-1.327848,137.3575,-198.275,-52.92
1397,136221,0.48385200000000006,-0.115168,-1.30418,100.2225,-201.1275,-65.73
1398,136318,0.580476,-0.219356,-1.288808,42.245,-225.4175,-72.24
1399,136415,0.628788,-0.195444,-1.243668,-8.015,-255.3425,-67.55001
1400,136512,0.6390359999999999,-0.15738,-1.173152,-38.15,-281.8375,-54.9325
1401,136609,0.7027201,-0.12248800000000001,-1.099464,-51.59,-305.3925,-41.545
1402,136707,0.7032079999999999,-0.07832401,-1.020408,-56.0175,-326.305,-32.305
1403,136803,0.748836,-0.064172,-0.9567241,-55.0375,-343.7175,-30.31
1404,136901,0.76494,-0.07002799999999999,-0.8371639999999999,-52.15,-357.315,-35.21
1405,136998,0.8244761,-0.124196,-0.808372,-49.8925,-364.245,-42.595
1406,137095,0.864492,-0.174704,-0.8249639999999999,-49.35,-367.36,-50.715
1407,137192,0.9323239999999999,-0.231068,-0.856684,-51.1,-367.7975,-56.77
1408,137289,1.0553,-0.28987199999999996,-0.9206120000000001,-54.6175,-366.87,-58.4675
1409,137386,1.155584,-0.305244,-0.9254921,-60.6725,-364.175,-54.9675
1410,137483,1.286856,-0.2684,-0.9516,-70.56,-360.2375,-49.035
1411,137580,1.39934,-0.234972,-0.9464761,-81.655,-351.7675,-46.795
1412,137677,1.669936,-0.17543599999999998,-1.086288,-93.94,-338.87,-52.5175
1413,137775,2.109868,-0.06466001,-1.331264,-102.305,-327.5825,-61.5475
1414,137872,2.5500439999999998,0.15176800000000001,-1.52378,-103.6175,-328.9125,-70.0175
1415,137969,2.70718,0.323788,-1.3978760000000001,-87.81501,-344.3825,-80.29
1416,138066,2.83162,0.160308,-1.014308,-55.685,-352.6075,-96.9675
1417,138163,3.09148,-0.384544,-0.514352,-27.265,-347.9525,-123.585
1418,138260,3.149308,-0.63562,0.091988,-23.7475,-336.7,-148.155
1419,138357,3.1107560000000003,-0.031476,0.60634,-24.3075,-311.2725,-151.0075
1420,138454,3.232512,0.163968,1.250256,38.85,-265.1775,-123.9175
1421,138551,3.156628,-0.5231359999999999,2.1896560000000003,116.2175,-230.055,-89.5125
1422,138649,2.9685040000000003,-1.319064,3.3079080000000003,109.095,-200.41,-67.725
1423,138746,2.7652520000000003,-1.315404,3.880576,2.1,-154.84,-53.025
1424,138843,2.755248,-1.007232,3.7334440000000004,-94.92,-82.04,-34.0375
1425,138940,2.719624,-0.7407841,3.290828,-124.39,-6.0025,-17.185
1426,139037,2.618852,-0.269376,2.41438,-101.22,56.105,-8.4175
1427,139134,2.671068,0.02196,1.4574120000000002,-20.825,101.955,-0.2975
1428,139231,2.033008,0.100284,-1.544764,59.955,113.435,6.0025
1429,139328,-3.9640239999999998,0.424804,-5.349944,107.66,214.1825,69.5625
1430,139426,0.6373281,-0.044896,-0.595604,153.5975,289.345,144.6725
1431,139523,3.821528,-0.805688,2.368996,101.01,372.4525,71.61
1432,139620,2.5183240000000002,-0.883768,0.862296,176.015,253.3125,45.465
1433,139717,3.8739879999999998,-1.59454,-1.4964520000000001,102.865,391.93,-8.2075
1434,139814,1.513044,-1.330044,-1.16998,116.5325,188.8775,43.575
1435,139911,1.175592,-0.262788,-1.1468,44.7825,184.8875,32.9525
1436,140008,3.66488,-0.14884,-1.333704,15.505,162.225,17.3075
1437,140105,1.482788,0.252052,-0.205204,56.315,-43.6625,59.43
1438,140202,0.815448,-0.26108000000000003,-0.530212,28.49,20.09,27.51
1439,140300,1.028216,-0.20447200000000001,-0.745664,25.34,-5.6,22.6275
1440,140397,0.815936,0.006344,-0.5917,15.365,2.4675,10.815
1441,140494,0.8132520999999999,-0.052216,-0.681736,13.72,1.26,6.16
1442,140591,0.775676,-0.12712400000000001,-0.687348,13.7375,-1.3825,3.9375
1443,140688,0.7605481,0.035624,-0.7176041,6.65,-0.56,-0.5425
1444,140785,0.754204,0.04392,-0.6834439999999999,8.05,-0.7525,0.0525
1445,140882,0.740296,0.019275999999999998,-0.680028,10.36,-1.7325,3.22
1446,140979,0.735416,-0.00488,-0.6851520999999999,11.8475,-2.52,5.775
1447,141076,0.7300479999999999,-0.055144000000000006,-0.6824680000000001,12.5825,-2.9575,6.9125
1448,141173,0.72956,-0.08174001,-0.686128,11.655,-2.94,5.88
1449,141271,0.714432,-0.090768,-0.698328,9.17,-2.45,3.4475
1450,141368,0.71004,-0.066856,-0.7068681,7.3675,-1.4875,1.05
1451,141465,0.7166279999999999,-0.042212,-0.6878361,5.8975,-0.5075,-0.3325
1452,141562,0.7229720000000001,-0.006587999999999999,-0.6844201,5.7225,-0.245,-0.245
1453,141659,0.72712,-0.000488,-0.677832,6.8775,-0.945,1.2075
1454,141756,0.73444,-0.004392,-0.6729520999999999,8.365,-1.6625,3.0975
1455,141853,0.7283400999999999,0.012688,-0.68686,8.8375,-2.8525,5.04
1456,141950,0.72712,-0.0122,-0.6810039999999999,10.325,-4.2175,7.2625
1457,142047,0.7266321,-0.03416,-0.682712,10.9725,-5.6,8.9775
1458,142144,0.7266321,0.004392,-0.7027201,10.36,-7.0875,10.2375
1459,142242,0.721996,-0.026595999999999998,-0.6688041,11.41,-8.435,11.9875
1460,142339,0.726144,-0.031476,-0.6832,12.145,-9.1175,13.5625
1461,142436,0.7168720000000001,-0.038796,-0.6902761,12.6,-9.7825,14.35
1462,142533,0.714676,-0.05977999999999999,-0.6753920999999999,12.8625,-9.3275,14.875
1463,142630,0.7107720000000001,-0.080764,-0.701012,11.9175,-8.715,14.63
1464,142727,0.7046720999999999,-0.090036,-0.7105279999999999,11.62,-7.8225,13.79
1465,142824,0.70516,-0.096868,-0.709796,10.8675,-6.0725,12.6875
1466,142921,0.693692,-0.101992,-0.7095520000000001,9.6075,-3.71,11.0775
1467,143018,0.7015,-0.08174001,-0.7407841,8.925,-0.5075,10.7275
1468,143116,0.696864,-0.074664,-0.693448,8.1375,2.8875,9.975
1469,143213,0.712236,-0.10492,-0.6919841,7.105,7.28,10.0625
1470,143310,0.6958880000000001,-0.143228,-0.734928,7.3675,11.41,10.3775
1471,143407,0.6895439999999999,-0.121512,-0.8244761,5.8625,17.2375,10.6925
1472,143504,0.583648,0.028548,-0.960628,4.7425,23.94,11.62
1473,143601,0.6375721,-0.168604,-0.7041841,12.4775,39.55,12.9325
1474,143698,0.632448,-0.08857201,-0.877424,15.085,57.8025,12.4075
1475,143795,0.654408,-0.120048,-0.8605879999999999,18.585,72.06501,13.4225
1476,143892,0.6141479999999999,-0.174216,-0.749812,22.1375,85.085,11.76
1477,143989,0.616344,-0.07832401,-0.887916,23.6425,104.5625,10.045
1478,144087,0.575596,-0.09247601,-0.8493641,33.88,122.9025,12.4075
1479,144184,0.5631520000000001,-0.112972,-0.8127641,37.3275,149.5025,13.685
1480,144281,0.6573359999999999,-0.16958,-0.738588,37.8875,175.035,15.4
1481,144378,0.490928,-0.198128,-0.814472,43.75,201.32,13.7725
1482,144475,0.44944799999999996,-0.047336,-0.9762440999999998,43.89,237.125,4.4975
1483,144572,0.398208,-0.066856,-0.821792,55.8425,268.0475,1.89
1484,144669,0.32452,-0.07417601,-0.781532,51.2575,312.515,3.92
1485,144766,0.30548800000000004,-0.21447600000000003,-0.467504,42.56,367.815,4.6375
1486,144863,1.0492,-0.364292,-0.637084,24.57,438.4625,2.8525
1487,144960,1.22122,-0.7500560000000001,-0.677832,-12.705,468.965,-0.4025
1488,145058,2.268712,-0.35892399999999997,-1.0858,-87.7975,562.205,-32.305
1489,145155,2.959232,0.3782,-1.123864,-162.96,573.405,-52.255
1490,145252,3.2422720000000003,0.7315119999999999,-1.319552,-156.0475,573.405,-16.2925
1491,145349,3.40014,0.7449321,-1.270752,-107.135,573.405,44.73
1492,145446,4.047716,0.8637601,-2.407304,-108.2725,549.0974,84.4725
1493,145543,3.148332,1.6723759999999999,-4.5323,-149.94,433.37,100.59
1494,145640,1.9881119999999999,2.082052,-3.3166919999999998,-74.04251,153.4575,85.83751
1495,145737,1.70678,2.026176,-3.5672800000000002,22.365,-56.9625,29.61
1496,145834,0.407968,1.469856,-2.209664,72.5375,-201.635,-22.2075
1497,145932,0.087352,0.930616,-1.5823399999999999,119.035,-194.04,-47.8625
1498,146029,0.130052,0.382836,-1.3327280000000001,134.2775,-176.645,-68.18
1499,146126,0.413092,-0.030987999999999998,-1.306864,109.97,-173.985,-86.0125
1500,146223,0.510692,-0.20252,-1.30418,61.5125,-196.2975,-96.11
1501,146320,0.534848,-0.235704,-1.255624,15.6975,-226.1175,-94.37751
1502,146417,0.552172,-0.219844,-1.194868,-13.335,-253.2075,-82.81
1503,146514,0.5675439999999999,-0.212036,-1.1041,-25.8125,-277.4625,-67.41001
1504,146611,0.6314721,-0.233996,-1.029436,-28.5775,-298.1825,-54.46
1505,146708,0.630008,-0.246196,-0.9394,-28.9275,-316.8375,-47.215
1506,146805,0.7015,-0.264008,-0.9115840000000001,-29.54,-330.2075,-45.7625
1507,146903,0.7722600000000001,-0.292556,-0.8869401,-29.7325,-341.0225,-47.74
1508,147000,0.8713241,-0.336476,-0.898408,-30.8875,-348.9675,-49.7175
1509,147097,0.9701440999999998,-0.35624,-0.944524,-33.4775,-357.1925,-49.385
1510,147194,1.108248,-0.3965,-0.983564,-37.31,-363.93,-45.64
1511,147291,1.2439120000000001,-0.343308,-1.050908,-45.115,-371.2975,-38.5
1512,147388,1.3771360000000001,-0.277916,-1.068476,-53.2525,-378.2975,-29.0675
1513,147485,1.5189,-0.21081599999999998,-1.0438319999999999,-63.665,-381.2025,-22.19
1514,147582,1.669936,-0.201544,-1.029192,-75.1975,-378.56,-22.435
1515,147679,1.9185720000000002,-0.14566800000000002,-1.116788,-90.475,-369.81,-29.26
1516,147777,2.428044,0.11102000000000001,-1.38714,-105.21,-357.5425,-39.27
1517,147874,2.916532,0.368196,-1.4903520000000001,-102.2875,-355.04,-50.8725
1518,147971,3.111,0.269864,-1.255624,-76.79,-368.3575,-68.215
1519,148068,3.2922919999999998,-0.313052,-0.758596,-47.9325,-380.31,-97.21251
1520,148165,3.249836,-0.583648,-0.164456,-43.4875,-380.8525,-126.4725
1521,148262,3.309372,-0.045384,0.230336,-42.42,-358.155,-136.4475
1522,148359,3.360612,0.29572800000000005,0.9799041,22.7325,-323.05,-118.3175
1523,148456,3.233732,-0.22204000000000002,2.175504,112.91,-292.4425,-79.4325
1524,148553,3.001444,-1.2280520000000001,3.5543480000000005,130.2,-250.0925,-43.0675
1525,148650,2.845528,-1.313208,4.354424,17.4825,-186.4975,-30.3975
1526,148748,2.731824,-0.9267120000000001,4.145804,-118.7025,-101.0625,-28.7175
1527,148845,2.6339799999999998,-0.5099600000000001,3.403312,-163.205,-3.815,-29.015
1528,148942,2.756224,-0.064172,2.35094,-136.8675,80.885,-30.5025
1529,149039,2.806,0.139324,1.269288,-45.92,127.1375,-22.4875
1530,149136,1.63724,-0.29768,0.0305,55.09,130.375,-17.605
1531,149233,-2.2465080000000004,2.3868080000000003,-6.45136,81.445,168.63,6.3875
1532,149330,-4.402248,-0.35624,-0.094916,192.675,166.1275,132.195
1533,149427,3.116368,-0.046604,0.8210601000000001,30.3275,387.0125,129.115
1534,149524,2.769888,-1.072868,2.3128759999999997,158.095,354.62,-9.415
1535,149621,3.9942800000000003,-1.2641639999999998,-1.493768,89.32,321.58,-4.0775
1536,149718,2.026176,-1.630896,-0.392108,106.89,283.85,26.7225
1537,149816,1.362252,-0.7991,-1.398852,48.5625,214.4275,44.24
1538,149913,1.520364,0.294508,-1.735328,8.0675,195.335,31.36
1539,150010,3.7924919999999998,-0.09711201,-0.9813681000000001,22.225,172.025,12.67
1540,150107,1.32126,0.869128,-0.2684,43.7675,-41.475,63.42
1541,150204,0.8998719999999999,-0.44286000000000003,-0.44652,42.105,11.83,35.98
1542,150301,0.956968,-0.080276,-0.684176,26.8275,-11.76,33.1625
1543,150398,0.7869,-0.072712,-0.6505041,22.365,0.9975,18.655
1544,150495,0.8520479999999999,0.03782,-0.711992,19.775,-0.945,14.6825
1545,150592,0.765428,0.058316,-0.670024,18.9175,-3.0975,13.405
1546,150689,0.759084,0.020496,-0.687592,21.3675,-3.71,16.765
1547,150787,0.7564001,-0.014152000000000001,-0.6985720999999999,24.395,-5.95,19.5125
1548,150884,0.743712,-0.06075601,-0.685396,22.855,-7.7875,19.845
1549,150981,0.7285841,-0.089304,-0.69296,21.5775,-8.82,18.375
1550,151078,0.7129681,-0.06124401,-0.7168720000000001,17.5175,-8.4175,15.0675
1551,151175,0.7032079999999999,-0.112728,-0.7046720999999999,16.5725,-7.385,12.88
1552,151272,0.70516,-0.101748,-0.696376,13.86,-5.88,9.5025
1553,151369,0.705892,-0.064172,-0.71126,10.0975,-4.7425,6.4225
1554,151466,0.7200439999999999,-0.046604,-0.6980841,9.7825,-3.78,5.915
1555,151563,0.71858,-0.043188,-0.683932,9.7475,-3.78,5.495
1556,151661,0.7134560999999999,-0.04514,-0.689056,8.9775,-4.2525,5.18
1557,151758,0.711504,-0.067832,-0.7034521,9.6425,-4.375,5.145
1558,151855,0.71126,-0.030987999999999998,-0.7068681,9.0825,-4.0775,4.97
1559,151952,0.7166279999999999,-0.007808001,-0.70516,8.68,-3.4125,5.4775
1560,152049,0.72224,-0.031964,-0.6912520000000001,10.3075,-2.6775,7.91
1561,152146,0.720288,-0.047824,-0.69784,11.4975,-3.01,9.7825
1562,152243,0.71492,-0.056608000000000006,-0.6993041,11.235,-3.465,10.7625
1563,152340,0.7168720000000001,-0.05246,-0.7088201,11.2,-3.5875,11.585
1564,152437,0.7176041,-0.05172801,-0.685884,11.515,-3.43,12.985
1565,152535,0.7156520000000001,-0.07344400000000001,-0.685396,11.7775,-3.3425,14.3325
1566,152632,0.7076001000000001,-0.090768,-0.7041841,12.6175,-3.5175,15.015
1567,152729,0.705404,-0.075396,-0.70394,11.41,-2.555,14.49
1568,152826,0.7093081,-0.101992,-0.696864,10.9025,-1.7675,14.245
1569,152923,0.706624,-0.09589201,-0.707356,10.605,-0.7,13.965
1570,153020,0.6917399999999999,-0.119316,-0.7005239999999999,9.695,1.295,12.705
1571,153117,0.6917399999999999,-0.11321600000000001,-0.7378560000000001,8.785,4.6025,12.11
1572,153214,0.6844201,-0.101748,-0.759084,8.89,8.6275,11.585
1573,153311,0.6283,-0.09906401,-0.8020281,9.0825,14.56,10.885
1574,153408,0.6222,-0.110044,-0.754692,11.515,24.5525,9.8875
1575,153506,0.6405,-0.09394001,-0.8169121,13.335,40.9675,8.96
1576,153603,0.62342,-0.10418800000000002,-0.803248,16.24,54.04,9.87
1577,153700,0.631228,-0.18324400000000002,-0.7451760000000001,17.6925,69.02,7.9975
1578,153797,0.6170760000000001,-0.100284,-0.81862,19.8975,81.515,5.53
1579,153894,0.600484,-0.121268,-0.803736,23.59,97.475,3.1325
1580,153991,0.591212,-0.09272000000000001,-0.7986121,28.49,116.27,3.395
1581,154088,0.621224,-0.059048,-0.860344,31.5175,140.0525,5.53
1582,154185,0.590724,-0.116388,-0.817156,39.6725,162.085,9.03
1583,154282,0.5368,-0.184952,-0.8230120999999999,40.705,189.175,11.585
1584,154380,0.429196,-0.252296,-0.902068,42.2275,218.5575,7.77
1585,154477,0.386008,-0.019764,-1.000888,41.965,255.5875,-1.575
1586,154574,0.367708,-0.112728,-0.7705521,54.67,297.115,-3.36
1587,154671,0.327204,-0.199348,-0.548512,49.3325,352.975,-0.9975
1588,154768,0.625128,-0.337208,-0.493612,43.925,423.43,1.3125
1589,154865,0.736392,-0.592188,-0.27279200000000003,16.065,464.625,-3.64
1590,154962,2.379732,-0.559248,-1.109712,-44.3975,540.8725,-28.105
1591,155059,2.500512,0.3355,-1.166564,-133.1575,573.405,-61.0575
1592,155156,3.208844,0.7376119999999999,-1.2214639999999999,-139.4925,573.405,-39.1475
1593,155254,3.1839560000000002,0.7951961,-0.995764,-100.905,573.405,25.5675
1594,155351,3.9510919999999996,0.8969440000000001,-1.9734720000000001,-59.3425,569.0825,85.0675
1595,155448,3.6214480000000004,1.356152,-3.963048,-94.15,484.4525,109.3225
1596,155545,1.956392,2.263344,-3.7710199999999996,-71.7675,242.41,102.6025
1597,155642,1.8236560000000002,2.0691200000000003,-3.7363720000000002,41.545,-14.9275,52.01
1598,155739,0.659288,1.555012,-2.285548,69.405,-171.325,-12.11
1599,155836,0.15201199999999998,1.059936,-1.692384,115.115,-211.75,-34.37
1600,155933,0.066856,0.5575399999999999,-1.309304,135.73,-185.9025,-47.145
1601,156030,0.332328,0.119804,-1.231468,119.4025,-178.4125,-57.4875
1602,156127,0.527528,-0.09394001,-1.2585520000000001,77.2975,-192.99,-64.4875
1603,156224,0.5602239999999999,-0.116876,-1.226344,29.61,-223.9825,-63.0175
1604,156322,0.622688,-0.08808401,-1.1873040000000001,-3.7625,-254.345,-52.1675
1605,156419,0.6605081,-0.042212,-1.109712,-19.88,-283.0275,-37.9225
1606,156516,0.6795401,-0.006832001,-1.016504,-23.7125,-308.6825,-26.145
1607,156613,0.7549359999999999,0.012444,-0.9757561,-23.2225,-329.875,-21.35
1608,156710,0.85644,0.029524,-0.907436,-21.07,-348.3725,-24.815
1609,156807,0.9059721,0.005368,-0.82594,-18.34,-365.785,-31.4825
1610,156904,0.8813280000000001,-0.035868000000000004,-0.74664,-15.4875,-374.92,-37.5725
1611,157001,0.9098761000000001,-0.0793,-0.7617681,-16.8875,-377.895,-43.1725
1612,157098,1.042124,-0.111996,-0.8066641,-20.2825,-374.43,-45.8325
1613,157195,1.19438,-0.142252,-0.796904,-26.495,-368.7075,-43.575
1614,157293,1.348832,-0.152256,-0.800808,-36.68,-361.6375,-37.8175
1615,157390,1.4940120000000001,-0.105652,-0.834968,-50.925,-352.695,-33.9325
1616,157487,1.6836,0.024888,-0.91622,-67.2875,-341.985,-36.3825
1617,157584,2.024468,0.225944,-1.107516,-76.4225,-328.3875,-46.5325
1618,157681,2.37534,0.431148,-1.29198,-73.3775,-325.185,-62.79
1619,157778,2.491972,0.55266,-1.1716879999999998,-56.455,-333.06,-81.91751
1620,157875,2.6278799999999998,0.48556000000000005,-0.8703481,-30.8175,-331.1525,-104.4925
1621,157972,3.0158400000000003,0.127856,-0.59658,-7.6125,-318.2025,-134.1725
1622,158069,3.369396,-0.370636,-0.29402,0.9275,-312.515,-164.9725
1623,158166,3.369396,-0.244732,0.201544,-6.93,-313.1275,-180.46
1624,158264,3.1417439999999996,0.227652,0.739808,11.1125,-305.7425,-172.1125
1625,158361,2.8311319999999998,0.279868,1.39202,79.695,-278.8625,-146.44
1626,158458,2.6886360000000002,-0.015372,2.043744,142.9225,-238.5775,-127.75
1627,158555,2.804048,-0.48848800000000003,2.7181599999999997,151.5675,-190.575,-119.07
1628,158652,2.590548,-0.7671359999999999,3.3735440000000003,99.8375,-147.21,-109.025
1629,158749,2.428776,-0.8317960999999999,3.4855400000000003,17.5,-83.3525,-101.3425
1630,158846,2.46196,-0.614636,2.960452,-48.055,-7.1225,-104.02
1631,158943,2.53638,-0.302804,2.148176,-60.62,54.4075,-107.38
1632,159040,2.36314,-0.06636801,1.3766479999999999,-14.63,85.3125,-101.395
1633,159137,1.430572,-0.446276,0.626836,71.8725,98.1575,-84.9275
1634,159234,-1.6677400000000002,-0.071492,-4.025512,109.6725,153.545,-55.2825
1635,159332,-3.411608,-0.961116,-1.460828,89.9675,195.4225,28.4375
1636,159429,3.360124,0.276452,0.26156799999999997,-69.195,383.145,42.5775
1637,159526,1.778028,-0.691008,2.518568,73.045,298.7425,26.67
1638,159623,3.6448720000000003,-0.7227279999999999,-1.380552,19.8625,350.21,31.7975
1639,159720,1.581608,-0.49873599999999996,-0.406504,37.94,292.0575,49.6125
1640,159817,0.9982040000000001,-0.246196,-1.3710360000000001,29.33,253.05,45.9025
1641,159914,4.824856,0.011712,-5.345308,8.4175,258.37,17.78
1642,160011,1.313452,0.09028,1.56892,80.7275,-4.725,58.94
1643,160108,1.833904,0.21813600000000002,-0.525332,-23.5375,-8.12,59.955
1644,160205,0.534848,-0.19861600000000001,-0.785924,43.0325,-27.3175,28.595
1645,160302,0.7356600000000001,0.17446,-0.9032879999999999,17.29,1.4175,17.0625
1646,160399,0.8108121,-0.049532,-0.621224,23.38,-6.4575,20.2825
1647,160497,0.9567241,0.133956,-0.571448,26.2325,-8.1375,19.5125
1648,160594,0.8274040000000001,-0.023668,-0.6451359999999999,27.2825,-11.2175,14.63
1649,160691,0.656848,-0.069052,-0.787144,29.925,-11.1825,10.605
1650,160788,0.734684,0.065148,-0.748592,28.945,-5.88,7.1225
1651,160885,0.78446,-0.09638,-0.5968241,41.79,-8.015,8.1725
1652,160982,0.702232,-0.17568,-0.7390760000000001,41.58,-10.7275,4.2
1653,161079,0.65758,-0.0793,-0.8520479999999999,43.6275,-10.3775,-4.48
1654,161176,0.585112,-0.212036,-0.8322841000000001,54.81,-7.4725,-14.4375
1655,161273,0.545096,-0.266204,-0.9028,71.9075,-5.04,-31.4475
1656,161371,0.553636,-0.287432,-0.8666879999999999,94.37751,-4.1125,-54.7575
1657,161468,0.5514399999999999,-0.22789600000000002,-0.8857200999999999,111.09,-2.59,-78.505
1658,161565,0.5697399999999999,-0.30622,-0.81984,135.87,-1.54,-99.995
1659,161662,0.604388,-0.249856,-0.81618,154.2625,1.05,-121.0125
1660,161759,0.605608,-0.275964,-0.787388,167.0375,5.25,-136.605
1661,161856,0.688812,-0.10321199999999998,-0.769332,164.5,14.455,-145.215
1662,161953,0.706624,-0.07076001,-0.732244,157.395,28.6475,-144.7775
1663,162050,0.742492,0.008784,-0.678808,150.08,38.465,-139.3175
1664,162147,0.7537159999999999,-0.027327999999999998,-0.6368401,141.435,46.0425,-132.7725
1665,162244,0.829356,0.05124001,-0.6527,134.68,46.6725,-124.4775
1666,162342,0.792024,-0.04148,-0.548268,127.085,42.63,-116.6375
1667,162439,0.862296,0.066124,-0.621224,117.3375,39.375,-106.89
1668,162536,0.8764481,0.050263999999999996,-0.530456,112.035,33.7225,-96.84501
1669,162633,0.8757159999999999,0.13542,-0.521672,99.575,29.715,-85.33
1670,162730,0.8744960999999999,0.047824,-0.46848,89.7575,24.4825,-73.045
1671,162827,0.879376,0.11541199999999999,-0.558516,79.59000999999999,18.55,-60.34
1672,162924,0.8679081,0.05636401,-0.47506800000000005,72.205,13.615,-47.6175
1673,163021,0.8422879999999999,0.029036000000000003,-0.5099600000000001,61.04,9.59,-36.5225
1674,163118,0.82594,0.09028,-0.634644,54.215,6.7375,-26.8275
1675,163215,0.8091041,0.013908000000000002,-0.581696,48.3875,6.9825,-16.9225
1676,163312,0.8310639999999999,0.028304000000000003,-0.599264,38.5875,9.485,-7.525
1677,163410,0.7761640999999999,0.036112,-0.692472,31.2725,13.545,0.56
1678,163507,0.745664,-0.030744,-0.64782,23.6425,20.195,7.6475
1679,163604,0.7771399999999999,-0.07832401,-0.659288,15.785,27.6325,13.93
1680,163701,0.7156520000000001,-0.09930800000000001,-0.7178479999999999,19.6875,36.1375,17.535
1681,163798,0.6634359999999999,-0.191296,-0.6885680999999999,21.21,47.6175,16.275
1682,163895,0.6939361,-0.24034,-0.6463561,19.6875,61.3025,12.18
1683,163992,0.636352,-0.181536,-0.768112,19.215,77.805,5.7575
1684,164089,0.628788,-0.275476,-0.683932,21.4025,97.23001,-1.4
1685,164186,0.624152,-0.1952,-0.7854361,19.8275,118.5625,-10.4125
1686,164283,0.55632,-0.19251600000000002,-0.871568,24.99,145.4775,-19.775
1687,164381,0.40357600000000005,-0.25254,-0.9813681000000001,37.205,181.545,-29.995
1688,164478,0.379176,-0.21447600000000003,-0.9586761,55.3525,224.385,-46.1825
1689,164575,0.293532,-0.23887600000000003,-0.9520881,69.3525,277.935,-66.255
1690,164672,0.26718000000000003,-0.22082,-0.9623360999999999,89.81,335.3875,-87.95501
1691,164769,0.8281360999999999,-0.242292,-0.8801081000000001,103.915,380.7825,-109.27
1692,164866,1.9244279999999998,-0.424072,-1.112152,110.32,392.2275,-119.9975
1693,164963,2.190388,-0.1403,-0.935008,102.095,475.4225,-139.405
1694,165060,2.7486599999999997,0.10858,-0.9903959999999999,106.435,501.585,-134.96
1695,165157,2.398764,0.5587601,-0.826428,147.875,527.905,-97.05501
1696,165255,2.684976,0.58072,-1.500844,215.1625,544.8625,-53.3225
1697,165352,2.3868080000000003,0.182756,-2.11548,256.0075,445.3575,-12.3025
1698,165449,2.2174720000000003,-0.9752681000000001,-2.9309279999999998,247.065,336.5425,22.925
1699,165546,2.083028,-0.749568,-2.422676,185.185,155.12,90.89499
1700,165643,1.8534240000000002,0.15054800000000002,-2.9036,122.255,16.24,144.4975
1701,165740,1.0060120000000001,0.613416,-1.9903080000000002,90.9475,-130.0425,191.275
1702,165837,0.774456,1.0018639999999999,-1.5950280000000001,104.475,-164.78,233.5025
1703,165934,0.656116,1.19926,-1.332484,131.4075,-190.1725,255.955
1704,166031,0.6973520000000001,1.33102,-1.2075559999999999,155.365,-203.2975,256.9525
1705,166129,0.666608,1.480104,-1.099708,168.665,-219.905,240.2225
1706,166226,0.63318,1.6491959999999999,-0.99918,170.7475,-236.4425,207.165
1707,166323,0.6326921,1.8541560000000001,-0.9252481,168.3675,-250.88,157.78
1708,166420,0.62708,2.002996,-0.828624,167.615,-264.8975,98.8575
1709,166517,0.6912520000000001,2.034472,-0.759572,174.09,-276.2025,41.7725
1710,166614,0.7761640999999999,1.938824,-0.7017439999999999,185.8325,-284.725,-3.36
1711,166711,0.8559521000000001,1.755336,-0.653188,195.44,-292.74,-33.5825
1712,166808,0.9054840000000001,1.5586719999999998,-0.62342,194.845,-300.4925,-52.0625
1713,166905,0.930372,1.4088559999999999,-0.614392,180.9675,-308.63,-62.93
1714,167003,0.9354959999999999,1.275876,-0.61732,156.905,-315.0175,-68.635
1715,167100,1.005768,1.20902,-0.682956,123.8475,-318.4125,-71.1025
1716,167197,1.165832,1.2219520000000001,-0.78446,85.9425,-319.4625,-72.275
1717,167294,1.340048,1.282708,-0.8727879999999999,49.4375,-324.2225,-75.005
1718,167391,1.553792,1.4149559999999999,-0.9630681000000001,19.6875,-332.745,-82.495
