,T,ax,ay,az,gx,gy,gz
0,9625059,0.8194739999999999,0.049898000000000005,-0.29597199999999996,18.7775,-16.765,-15.085
1,9625214,0.8666879999999999,0.064416,-0.44383599999999995,-23.7125,55.9125,-75.8275
2,9625312,0.9431821,0.073688,-0.512644,-66.1675,28.945,-267.7675
3,9625410,0.9577,0.071004,-0.535702,52.0625,-94.29,-86.03
4,9625508,0.9812460999999999,0.142862,-0.7661600000000001,50.4,-14.7,-6.4925
5,9625605,0.916342,0.053191999999999996,-0.5161819999999999,62.7025,-8.4,1.4175
6,9625703,0.85949,-0.08564401,-0.120902,55.475,10.675,3.325
7,9625801,0.7284619999999999,-0.410042,0.07307801,-66.29,43.6975,-7.0875
8,9625899,0.910974,0.750788,-0.046482,-192.71,101.955,-44.59
9,9625997,1.123742,-0.169458,0.508008,26.4075,114.1175,-5.495
10,9626095,1.117276,0.065026,-0.34038,15.575,-0.42,-0.6125
11,9626193,0.9860040999999999,0.019275999999999998,-0.32757,1.33,-55.825,-2.3275
12,9626291,0.9655081,0.024888,-0.320982,6.8425,-34.79,-1.9075
13,9626389,0.9519661,0.055510000000000004,-0.302804,-6.195,-19.215,-5.25
14,9626487,0.9126820999999999,0.017568,-0.26961999999999997,2.415,-15.9775,-3.955
15,9626584,0.9289081,0.034404000000000004,-0.250222,-1.995,-5.5825,-4.9175
16,9626682,0.94611,0.023668,-0.24522,-0.385,-1.4,-4.515
17,9626780,0.9548940999999999,0.021716,-0.25437,-0.91,-3.1675,-4.2875
18,9626878,0.957822,0.020496,-0.25071,-0.8400001,-5.2325,-3.99
19,9626976,0.955626,0.025863999999999998,-0.252784,-1.1025,-6.895,-4.0075
20,9627074,0.95221,0.026351999999999997,-0.246806,-0.5775,-7.9625,-4.0775
21,9627172,0.950868,0.027206,-0.24351199999999998,-0.49,-8.2425,-4.2
22,9627270,0.952942,0.026108,-0.24668400000000001,-0.6475,-8.645,-4.3225
23,9627368,0.950868,0.026718000000000002,-0.25046599999999997,-0.875,-8.5925,-4.5325
24,9627465,0.949526,0.028304000000000003,-0.251808,-0.6125,-7.9625,-4.725
25,9627563,0.9507460999999999,0.028182,-0.251686,-0.0175,-7.28,-4.76
26,9627661,0.9497701,0.029158,-0.24912399999999998,0.35,-6.965,-4.7075
27,9627759,0.9456220999999999,0.028669999999999998,-0.24717199999999998,0.07,-6.9125,-4.445
28,9627857,0.9456220999999999,0.026595999999999998,-0.246806,-0.665,-6.4925,-4.41
29,9627955,0.9472079999999999,0.025254,-0.245342,-1.155,-5.6175,-4.3225
30,9628053,0.9530641,0.023790000000000002,-0.245464,-1.0675,-5.005,-4.4275
31,9628151,0.9563581,0.021716,-0.246074,-0.9625,-5.18,-4.4975
32,9628248,0.9581881,0.023912,-0.246074,-0.7175,-5.7225,-4.5675
33,9628346,0.9580661,0.027206,-0.24656199999999998,-0.595,-6.23,-4.6025
34,9628444,0.955016,0.029036000000000003,-0.248148,-0.455,-6.44,-4.55
35,9628542,0.954284,0.02928,-0.249612,-0.385,-6.3175,-4.5675
36,9628640,0.9501360999999999,0.028426,-0.25058800000000003,-0.5425,-6.0025,-4.5325
37,9628738,0.94916,0.02745,-0.24997800000000003,-0.6125,-5.74,-4.4275
38,9628836,0.94855,0.027206,-0.2501,-0.805,-5.46,-4.4275
39,9628934,0.9507460999999999,0.024888,-0.24851399999999998,-0.6825,-5.32,-4.445
40,9629032,0.9519661,0.024034,-0.24888000000000002,-0.6125,-5.39,-4.375
41,9629130,0.9520881,0.024156,-0.250344,-0.4725,-5.565,-4.34
42,9629227,0.953308,0.025498,-0.252052,-0.56,-5.3725,-4.515
43,9629325,0.954284,0.024644,-0.25046599999999997,-0.63,-5.215,-4.515
44,9629423,0.955626,0.024766,-0.25058800000000003,-0.6825,-5.215,-4.62
45,9629521,0.9539181000000001,0.024888,-0.24790399999999999,-0.8575,-5.1625,-4.62
46,9629619,0.9537959999999999,0.025742,-0.24827,-0.7875,-5.25,-4.445
47,9629717,0.95221,0.024278,-0.249002,-0.875,-5.2325,-4.41
48,9629815,0.9519661,0.0244,-0.248392,-0.8400001,-5.32,-4.3225
49,9629913,0.9525761,0.024156,-0.24802600000000002,-0.805,-5.32,-4.2175
50,9630010,0.9531860000000001,0.02562,-0.24778200000000003,-0.7525,-5.1625,-4.165
51,9630108,0.954528,0.024766,-0.246806,-0.8925,-5.0575,-4.2175
52,9630206,0.9555040000000001,0.026595999999999998,-0.245342,-0.8400001,-5.0575,-4.27
53,9630304,0.95465,0.02806,-0.24631799999999998,-0.805,-4.9175,-4.27
54,9630402,0.954528,0.025986000000000002,-0.244,-0.77,-4.8475,-4.375
55,9630500,0.9553821,0.027938,-0.242902,-0.735,-4.76,-4.41
56,9630598,0.9558701,0.027694,-0.242292,-0.6825,-4.69,-4.3225
57,9630695,0.9535521,0.02562,-0.242902,-0.5775,-4.8825,-4.2525
58,9630793,0.9551379999999999,0.027083999999999997,-0.24339,-0.665,-4.9525,-4.375
59,9630891,0.9551379999999999,0.028182,-0.24216999999999997,-0.63,-4.935,-4.375
60,9630989,0.9568459999999999,0.026474,-0.24216999999999997,-0.735,-4.97,-4.34
61,9631087,0.957944,0.02501,-0.24156,-0.7525,-4.83,-4.445
62,9631185,0.9577,0.022813999999999997,-0.242048,-0.875,-4.655,-4.55
63,9631283,0.9577,0.02196,-0.242292,-0.98,-4.6725,-4.5675
64,9631381,0.9564799999999999,0.022326,-0.241682,-1.225,-4.6725,-4.5675
65,9631479,0.9568459999999999,0.02196,-0.241804,-1.225,-4.8475,-4.6025
66,9631576,0.957456,0.022448,-0.241682,-1.33,-4.97,-4.55
67,9631674,0.9567241,0.025376,-0.24131599999999997,-1.3125,-5.0925,-4.515
68,9631772,0.9539181000000001,0.026595999999999998,-0.24265799999999998,-1.225,-5.1625,-4.4275
69,9631870,0.9535521,0.026718000000000002,-0.24058400000000002,-1.1375,-5.0925,-4.305
70,9631968,0.952942,0.02501,-0.23973000000000003,-1.085,-5.005,-4.2525
71,9632066,0.9553821,0.021838,-0.238998,-1.26,-4.655,-4.2875
72,9632164,0.9567241,0.021594,-0.239608,-1.47,-4.55,-4.2175
73,9632262,0.9585541,0.019398,-0.24034,-1.785,-4.41,-4.2175
74,9632359,0.9598959999999999,0.020008,-0.24058400000000002,-2.0475,-4.41,-4.235
75,9632457,0.9598959999999999,0.020862000000000002,-0.23973000000000003,-2.2925,-4.375,-4.2
76,9632555,0.9618481,0.022203999999999998,-0.239608,-2.3975,-4.725,-4.2
77,9632653,0.959408,0.024766,-0.238998,-2.555,-5.215,-4.13
78,9632751,0.9587979999999999,0.025131999999999998,-0.24046199999999998,-2.625,-5.495,-4.2
79,9632849,0.957822,0.026718000000000002,-0.239364,-2.4675,-5.565,-4.13
80,9632947,0.9589200999999999,0.027206,-0.23973000000000003,-2.485,-5.4425,-3.9725
81,9633045,0.9586761,0.027938,-0.24156,-2.485,-5.425,-4.0425
82,9633142,0.9590420000000001,0.026474,-0.24046199999999998,-2.4325,-5.39,-4.0075
83,9633240,0.9618481,0.02684,-0.23680199999999998,-2.5025,-5.285,-3.9375
84,9633338,0.9618481,0.024766,-0.235948,-2.5375,-5.5475,-3.85
85,9633436,0.96075,0.024644,-0.236314,-2.555,-5.7925,-3.92
86,9633534,0.9608721,0.023790000000000002,-0.23521599999999998,-2.625,-5.9675,-3.92
87,9633632,0.9600181000000001,0.025131999999999998,-0.23606999999999997,-2.66,-6.0375,-3.92
88,9633730,0.9590420000000001,0.02623,-0.234972,-2.695,-6.1425,-3.885
89,9633828,0.95831,0.025376,-0.232044,-2.7475,-6.0025,-3.8325
90,9633925,0.9590420000000001,0.027694,-0.23314200000000002,-2.7825,-5.88,-3.8325
91,9634023,0.9586761,0.029036000000000003,-0.23424,-2.7475,-5.95,-3.85
92,9634121,0.958432,0.029524,-0.233386,-2.7475,-6.0725,-3.7975
93,9634219,0.9577,0.030987999999999998,-0.233752,-2.695,-5.9675,-3.85
94,9634317,0.9575780999999999,0.028792,-0.23155599999999998,-2.695,-5.915,-3.9375
95,9634415,0.957822,0.030378,-0.23058,-2.6075,-6.02,-3.8325
96,9634513,0.9587979999999999,0.028548,-0.228262,-2.4325,-5.88,-3.85
97,9634611,0.9596520000000001,0.028669999999999998,-0.22875,-2.4325,-5.7225,-3.8325
98,9634709,0.9602620999999999,0.027206,-0.22777399999999998,-2.4675,-5.775,-3.815
99,9634806,0.9577,0.02806,-0.228994,-2.3625,-5.8975,-3.8675
100,9634904,0.9551379999999999,0.025742,-0.22862800000000003,-2.31,-5.9325,-3.745
101,9635002,0.9524540000000001,0.027816000000000004,-0.230458,-2.38,-5.8975,-3.885
102,9635100,0.953674,0.0305,-0.232776,-2.3275,-5.7575,-3.9725
103,9635198,0.9540401,0.028669999999999998,-0.231312,-2.3275,-5.635,-3.955
104,9635296,0.9552601000000001,0.028669999999999998,-0.23387399999999997,-2.2225,-5.3725,-3.92
105,9635394,0.955992,0.029889999999999996,-0.23253200000000002,-2.1875,-5.25,-3.885
106,9635492,0.954284,0.02806,-0.23167800000000002,-2.03,-5.11,-4.0075
107,9635589,0.9547720999999999,0.029768,-0.229116,-1.925,-4.9175,-3.955
108,9635687,0.9566020000000001,0.029889999999999996,-0.231922,-1.7675,-4.8475,-3.8675
109,9635785,0.9580661,0.028669999999999998,-0.233264,-1.575,-4.8125,-3.885
110,9635883,0.956968,0.02928,-0.23363,-1.5225,-4.7075,-3.92
111,9635981,0.95831,0.029889999999999996,-0.232898,-1.435,-4.76,-4.0775
112,9636079,0.959774,0.029036000000000003,-0.23240999999999998,-1.365,-4.935,-4.1125
113,9636177,0.9608721,0.029889999999999996,-0.232776,-1.2425,-4.9875,-4.2
114,9636275,0.96075,0.029158,-0.233508,-1.1725,-5.075,-4.1825
115,9636373,0.9590420000000001,0.030012,-0.23546,-1.0675,-5.215,-4.13
116,9636471,0.9592860000000001,0.028304000000000003,-0.234118,-0.91,-5.18,-4.0775
117,9636568,0.961116,0.026474,-0.23387399999999997,-0.9275,-5.075,-4.06
118,9636666,0.961482,0.026351999999999997,-0.23253200000000002,-0.8925,-5.1625,-4.0775
119,9636764,0.963922,0.027694,-0.23253200000000002,-0.7525,-5.25,-4.095
120,9636862,0.9629459999999999,0.02684,-0.233264,-0.7175,-5.495,-4.095
121,9636960,0.9618481,0.02684,-0.234362,-0.6475,-5.7925,-4.1125
122,9637058,0.96075,0.027816000000000004,-0.23301999999999998,-0.56,-6.09,-4.13
123,9637156,0.9586761,0.028304000000000003,-0.23448400000000003,-0.63,-6.1775,-4.0775
124,9637254,0.957944,0.026962,-0.23533800000000002,-0.5075,-6.195,-4.0775
125,9637352,0.9568459999999999,0.027083999999999997,-0.235704,-0.455,-6.02,-4.095
126,9637449,0.9566020000000001,0.026108,-0.23424,-0.2625,-5.8975,-4.1125
127,9637547,0.9581881,0.024766,-0.232898,-0.1225,-6.02,-4.06
128,9637645,0.958432,0.024278,-0.233752,-0.105,-5.95,-4.06
129,9637743,0.9585541,0.025376,-0.23314200000000002,-0.1925,-6.0375,-4.06
130,9637841,0.9575780999999999,0.025498,-0.233386,-0.0875,-6.055,-4.025
131,9637939,0.9568459999999999,0.024522,-0.23424,-0.07,-6.125,-4.0775
132,9638037,0.957456,0.024034,-0.233386,0.0,-6.16,-4.1125
133,9638135,0.9586761,0.023058000000000002,-0.23533800000000002,-0.035,-6.2125,-4.095
134,9638233,0.9563581,0.024766,-0.236436,-0.0525,-6.2475,-4.13
135,9638330,0.9575780999999999,0.027816000000000004,-0.236558,0.0525,-6.2825,-4.1475
136,9638428,0.9587979999999999,0.030378,-0.234118,0.1925,-6.23,-4.0425
137,9638526,0.9586761,0.028182,-0.23228800000000002,0.42,-6.1075,-3.955
138,9638624,0.9602620999999999,0.024522,-0.23240999999999998,0.7,-5.9325,-4.1475
139,9638722,0.9630681000000001,0.019886,-0.23253200000000002,0.8575,-5.7925,-4.2875
140,9638820,0.96319,0.017934000000000002,-0.231922,0.875,-5.7925,-4.305
141,9638918,0.9608721,0.01708,-0.23119,0.63,-5.845,-4.3925
142,9639016,0.9587979999999999,0.01586,-0.23167800000000002,0.385,-6.0375,-4.445
143,9639114,0.9581881,0.015738,-0.233264,0.0525,-6.335,-4.655
144,9639211,0.9568459999999999,0.018422,-0.23546,-0.0875,-6.4575,-4.5675
145,9639309,0.9564799999999999,0.020862000000000002,-0.23741199999999998,-0.105,-6.65,-4.4275
146,9639407,0.9558701,0.022813999999999997,-0.238632,0.035,-6.7725,-4.3575
147,9639505,0.9572120999999999,0.0244,-0.237656,0.28,-6.615,-4.2
148,9639603,0.957822,0.023302,-0.235704,0.4025,-6.44,-4.06
149,9639701,0.9580661,0.021106,-0.234972,0.315,-6.3525,-3.99
150,9639799,0.957334,0.018666,-0.236192,0.175,-6.3875,-3.8675
151,9639897,0.9561139999999999,0.015128,-0.23424,-0.0175,-6.405,-3.92
152,9639995,0.9581881,0.014518000000000001,-0.235948,-0.175,-6.405,-3.9375
153,9640093,0.957334,0.01464,-0.235704,-0.3675,-6.4225,-4.025
154,9640190,0.9562360999999999,0.018056,-0.236436,-0.525,-6.7025,-4.06
155,9640288,0.9551379999999999,0.019398,-0.23606999999999997,-0.525,-6.895,-4.0425
156,9640386,0.95465,0.02196,-0.237046,-0.4025,-6.5975,-3.99
157,9640484,0.9562360999999999,0.02074,-0.23802199999999998,-0.385,-6.44,-3.9375
158,9640582,0.9575780999999999,0.019886,-0.23838800000000002,-0.315,-6.37,-4.13
159,9640680,0.9586761,0.020252000000000003,-0.2379,-0.1925,-6.44,-4.095
160,9640778,0.96014,0.019764,-0.236558,-0.1225,-6.4925,-4.095
161,9640876,0.9585541,0.017202000000000002,-0.23582600000000004,-0.245,-6.4225,-4.0775
162,9640974,0.9572120999999999,0.016347999999999998,-0.23741199999999998,-0.28,-6.51,-4.095
163,9641071,0.9539181000000001,0.01647,-0.23606999999999997,-0.385,-6.5975,-4.13
164,9641169,0.9555040000000001,0.018056,-0.23851,-0.35,-6.65,-4.165
165,9641267,0.95465,0.017812,-0.238144,-0.455,-6.615,-4.2
166,9641365,0.9557479999999999,0.018544,-0.238754,-0.49,-6.5275,-4.165
167,9641463,0.9555040000000001,0.01891,-0.238998,-0.4375,-6.5625,-4.27
168,9641561,0.952942,0.020008,-0.240706,-0.4025,-6.6675,-4.1825
169,9641659,0.9525761,0.017446,-0.24131599999999997,-0.35,-6.3875,-4.2525
170,9641757,0.95221,0.01586,-0.241438,-0.455,-6.16,-4.235
171,9641855,0.9531860000000001,0.015982,-0.24095,-0.5425,-6.0725,-4.1825
172,9641952,0.9534301,0.016225999999999997,-0.24156,-0.665,-6.09,-4.1825
173,9642050,0.955626,0.015372,-0.241194,-0.875,-5.9325,-4.27
174,9642148,0.9562360999999999,0.01586,-0.24095,-1.0325,-5.7575,-4.305
175,9642246,0.9568459999999999,0.018178,-0.241194,-1.155,-5.8625,-4.41
176,9642344,0.957822,0.018666,-0.241804,-1.2075,-5.9675,-4.4625
177,9642442,0.9595300999999999,0.021106,-0.242414,-1.1025,-6.02,-4.48
178,9642540,0.959774,0.01891,-0.241194,-1.26,-5.95,-4.34
179,9642638,0.956968,0.017202000000000002,-0.243146,-1.3125,-6.195,-4.305
180,9642736,0.9562360999999999,0.015738,-0.24156,-1.365,-6.44,-4.375
181,9642834,0.9548940999999999,0.015738,-0.24192600000000003,-1.47,-6.44,-4.34
182,9642931,0.955992,0.015738,-0.24265799999999998,-1.47,-6.3175,-4.4275
183,9643029,0.9557479999999999,0.015982,-0.242536,-1.4,-6.4225,-4.3925
184,9643127,0.9553821,0.015738,-0.24265799999999998,-1.4175,-6.4225,-4.375
185,9643225,0.9553821,0.015372,-0.241804,-1.5575,-6.405,-4.4275
186,9643323,0.9547720999999999,0.01647,-0.23997399999999997,-1.5575,-6.4925,-4.5325
187,9643421,0.9537959999999999,0.019154,-0.241682,-1.54,-6.5625,-4.515
188,9643519,0.9540401,0.020496,-0.23997399999999997,-1.5225,-6.475,-4.5325
189,9643617,0.9563581,0.018178,-0.24082800000000001,-1.54,-6.3525,-4.55
190,9643715,0.9553821,0.018178,-0.24131599999999997,-1.575,-6.475,-4.515
191,9643812,0.9551379999999999,0.019642,-0.24265799999999998,-1.61,-6.5275,-4.48
192,9643910,0.9548940999999999,0.020130000000000002,-0.241194,-1.54,-6.335,-4.515
193,9644008,0.955626,0.0183,-0.23973000000000003,-1.4525,-6.195,-4.585
194,9644106,0.956968,0.016592,-0.24131599999999997,-1.4875,-6.265,-4.585
195,9644204,0.95709,0.016347999999999998,-0.241194,-1.4525,-6.335,-4.5675
196,9644302,0.9591639999999999,0.016958,-0.240096,-1.4525,-6.2475,-4.62
197,9644400,0.9616040000000001,0.01952,-0.24034,-1.68,-6.2825,-4.62
198,9644498,0.9616040000000001,0.020618,-0.239852,-1.75,-6.3875,-4.6025
199,9644596,0.9629459999999999,0.021594,-0.238998,-1.6975,-6.5975,-4.5325
200,9644693,0.957822,0.022692,-0.238144,-1.645,-6.9125,-4.48
201,9644791,0.955626,0.021838,-0.24058400000000002,-1.4875,-6.93,-4.41
202,9644889,0.9548940999999999,0.01952,-0.241438,-1.3125,-7.105,-4.445
203,9644987,0.955016,0.018788,-0.24107199999999998,-1.3475,-7.1925,-4.3925
204,9645085,0.9561139999999999,0.018666,-0.24107199999999998,-1.3825,-7.1575,-4.3225
205,9645183,0.9562360999999999,0.018422,-0.242292,-1.225,-7.28,-4.48
206,9645281,0.955016,0.018666,-0.24156,-1.12,-7.3325,-4.55
207,9645379,0.9552601000000001,0.017812,-0.241438,-1.015,-7.28,-4.5675
208,9645476,0.9540401,0.018178,-0.24278000000000002,-1.0325,-7.21,-4.69
209,9645574,0.954528,0.020984,-0.242414,-1.1025,-7.28,-4.7075
210,9645672,0.9541620000000001,0.020130000000000002,-0.24192600000000003,-1.1725,-7.14,-4.76
211,9645770,0.95465,0.019642,-0.243878,-1.085,-7.0875,-4.83
212,9645868,0.9547720999999999,0.019154,-0.243756,-1.0325,-6.9825,-4.9175
213,9645966,0.9562360999999999,0.021228,-0.243756,-1.12,-6.93,-4.8825
214,9646064,0.9558701,0.023424,-0.24522,-1.05,-6.93,-4.76
215,9646162,0.955992,0.023912,-0.24802600000000002,-0.9625,-7.1225,-4.655
216,9646260,0.9541620000000001,0.026962,-0.24522,-0.9275,-7.175,-4.725
217,9646358,0.9566020000000001,0.024766,-0.24570799999999998,-0.8400001,-7.1225,-4.7425
218,9646456,0.9592860000000001,0.021228,-0.24790399999999999,-0.735,-6.895,-4.725
219,9646553,0.9598959999999999,0.01952,-0.24631799999999998,-0.7875,-6.93,-4.9175
220,9646651,0.96014,0.017446,-0.247294,-0.6825,-7.105,-5.0225
221,9646749,0.9609940999999999,0.016714,-0.245464,-0.875,-7.245,-5.18
222,9646847,0.9620920000000001,0.016958,-0.245464,-1.1725,-7.3325,-5.1625
223,9646945,0.9612379999999999,0.018056,-0.246074,-1.2425,-7.735,-5.11
224,9647043,0.9612379999999999,0.019642,-0.24668400000000001,-1.295,-8.085,-5.0575
225,9647141,0.961482,0.020984,-0.24656199999999998,-1.26,-8.3125,-4.83
226,9647239,0.9600181000000001,0.022448,-0.24778200000000003,-0.9625,-8.68,-4.6375
227,9647337,0.9592860000000001,0.023790000000000002,-0.248148,-0.77,-8.925,-4.585
228,9647435,0.9572120999999999,0.023424,-0.24827,-0.665,-9.2225,-4.3225
229,9647533,0.9562360999999999,0.02135,-0.24997800000000003,-0.6125,-9.4325,-4.235
230,9647631,0.9547720999999999,0.019275999999999998,-0.252296,-0.735,-9.6775,-4.235
231,9647728,0.9514780999999999,0.018422,-0.25193000000000004,-0.9275,-9.6775,-4.27
232,9647826,0.9496479999999999,0.020130000000000002,-0.253394,-0.98,-9.695,-4.2875
233,9647924,0.9496479999999999,0.02074,-0.255468,-1.12,-9.3625,-4.445
234,9648022,0.9474520000000001,0.019764,-0.255712,-1.1025,-9.3975,-4.6025
235,9648120,0.948184,0.021472,-0.25498000000000004,-1.155,-9.38,-4.69
236,9648218,0.948306,0.0244,-0.255956,-1.2075,-9.1175,-4.6375
237,9648316,0.94855,0.025986000000000002,-0.25498000000000004,-1.1025,-8.9075,-4.7075
238,9648414,0.94916,0.02684,-0.25559,-0.8575,-8.8375,-4.655
239,9648512,0.9503799999999999,0.028304000000000003,-0.252662,-0.7525,-8.61,-4.725
240,9648610,0.9506241,0.027938,-0.25376,-0.7,-8.47,-4.6375
241,9648708,0.950868,0.023790000000000002,-0.253882,-0.665,-8.5225,-4.515
242,9648805,0.951722,0.020008,-0.254736,-0.7,-8.54,-4.5325
243,9648903,0.951722,0.01586,-0.255346,-0.8575,-8.575,-4.48
244,9649001,0.9534301,0.015128,-0.255468,-0.9975,-8.68,-4.4275
245,9649099,0.9528200000000001,0.01403,-0.257664,-1.19,-8.7325,-4.3575
246,9649197,0.952942,0.01586,-0.254004,-1.33,-8.54,-4.4275
247,9649295,0.9535521,0.016592,-0.253882,-1.54,-8.785,-4.4275
248,9649393,0.953308,0.018056,-0.255102,-1.5225,-9.0125,-4.34
249,9649491,0.9526979999999999,0.022326,-0.254614,-1.645,-8.89,-4.375
250,9649589,0.9505020000000001,0.02501,-0.25351599999999996,-1.7325,-8.75,-4.2525
251,9649687,0.948184,0.023058000000000002,-0.253882,-1.7675,-8.785,-4.1475
252,9649784,0.9479401,0.021594,-0.253882,-1.8025,-8.7325,-4.095
253,9649882,0.9503799999999999,0.021838,-0.255956,-2.065,-8.4875,-4.025
254,9649980,0.9487940999999999,0.021594,-0.256444,-2.1175,-8.5225,-3.9725
255,9650078,0.9494040000000001,0.020496,-0.255834,-2.065,-8.4525,-3.92
256,9650176,0.9502581,0.02074,-0.257298,-2.1175,-8.33,-4.0075
257,9650274,0.9494040000000001,0.022203999999999998,-0.258396,-2.1175,-8.295,-3.9725
258,9650372,0.9484280999999999,0.021106,-0.256932,-2.24,-8.225,-4.0425
259,9650470,0.9490379999999999,0.021594,-0.258884,-2.38,-8.155,-4.0075
260,9650568,0.94916,0.022203999999999998,-0.260836,-2.45,-8.085,-4.1475
261,9650665,0.947818,0.022813999999999997,-0.259372,-2.4325,-8.12,-4.165
262,9650763,0.9476959999999999,0.023424,-0.260226,-2.31,-8.085,-4.06
263,9650861,0.947574,0.022936,-0.258762,-2.205,-7.9975,-4.025
264,9650959,0.948184,0.023546,-0.258396,-2.0825,-7.7525,-4.1125
265,9651057,0.9473301,0.025742,-0.260348,-1.96,-7.6125,-4.1475
266,9651155,0.9465981,0.025742,-0.25986,-1.82,-7.5425,-4.2175
267,9651253,0.9480620000000001,0.025498,-0.25925,-1.715,-7.315,-4.165
268,9651351,0.947574,0.02623,-0.25790799999999997,-1.7675,-7.0,-4.13
269,9651449,0.9480620000000001,0.025131999999999998,-0.25864000000000004,-1.9075,-6.8425,-4.2525
270,9651546,0.949526,0.023790000000000002,-0.25790799999999997,-2.065,-6.7725,-4.2525
271,9651644,0.9490379999999999,0.02074,-0.260104,-2.0475,-6.8425,-4.27
272,9651742,0.94916,0.021716,-0.26291,-1.89,-6.8775,-4.3225
273,9651840,0.9502581,0.023058000000000002,-0.262788,-1.96,-6.9125,-4.34
274,9651938,0.9501360999999999,0.024034,-0.26303200000000004,-1.8025,-6.9125,-4.5325
275,9652036,0.9492821,0.026351999999999997,-0.263642,-1.715,-6.895,-4.5325
276,9652134,0.948306,0.027694,-0.26291,-1.575,-6.8425,-4.4975
277,9652232,0.9480620000000001,0.027083999999999997,-0.262178,-1.61,-6.6325,-4.4625
278,9652330,0.9490379999999999,0.025254,-0.261934,-1.54,-6.65,-4.5325
279,9652428,0.9469641,0.024766,-0.26352,-1.435,-6.5275,-4.4975
280,9652525,0.946842,0.023058000000000002,-0.265594,-1.3125,-6.545,-4.5325
281,9652623,0.948184,0.024156,-0.264008,-1.3125,-6.37,-4.41
282,9652721,0.9505020000000001,0.02196,-0.263764,-1.33,-6.3525,-4.445
283,9652819,0.9494040000000001,0.020496,-0.26596,-1.4175,-6.335,-4.41
284,9652917,0.94916,0.022448,-0.265594,-1.4875,-6.4925,-4.375
285,9653015,0.9496479999999999,0.022813999999999997,-0.26596,-1.5225,-6.615,-4.5325
286,9653113,0.9489161,0.023058000000000002,-0.266448,-1.3825,-6.65,-4.585
287,9653211,0.9465981,0.023058000000000002,-0.26779000000000003,-1.4525,-6.58,-4.62
288,9653309,0.946842,0.025376,-0.270108,-1.505,-6.5275,-4.655
289,9653406,0.9470860000000001,0.025376,-0.270474,-1.4525,-6.4575,-4.6375
290,9653504,0.9472079999999999,0.02623,-0.26913200000000004,-1.47,-6.37,-4.7075
291,9653602,0.948184,0.024156,-0.267912,-1.225,-6.4225,-4.62
292,9653700,0.9490379999999999,0.024278,-0.267912,-1.1025,-6.2825,-4.5675
293,9653798,0.9480620000000001,0.024278,-0.268156,-1.12,-6.37,-4.55
294,9653896,0.9474520000000001,0.024156,-0.27266999999999997,-1.19,-6.51,-4.6725
295,9653994,0.9476959999999999,0.025742,-0.27218200000000004,-1.2425,-6.615,-4.6375
296,9654092,0.9480620000000001,0.026474,-0.2684,-1.4,-6.5975,-4.6375
297,9654190,0.9487940999999999,0.025376,-0.270962,-1.2425,-6.4925,-4.6025
298,9654288,0.9494040000000001,0.024156,-0.271938,-1.0675,-6.475,-4.5325
299,9654385,0.945866,0.023668,-0.273158,-0.8575,-6.5275,-4.69
300,9654483,0.9456220999999999,0.02196,-0.273036,-0.8575,-6.475,-4.6725
301,9654581,0.945256,0.020862000000000002,-0.272304,-0.98,-6.4575,-4.69
302,9654679,0.9465981,0.020252000000000003,-0.270962,-1.05,-6.4575,-4.725
303,9654777,0.947574,0.02074,-0.272548,-1.2425,-6.4925,-4.6025
304,9654875,0.9464761,0.021594,-0.272548,-1.295,-6.72,-4.55
305,9654973,0.9440360999999999,0.024522,-0.274256,-1.2075,-6.755,-4.585
306,9655071,0.9431821,0.024766,-0.274866,-1.2075,-6.6325,-4.62
307,9655169,0.9439139999999999,0.023790000000000002,-0.27571999999999997,-1.225,-6.4575,-4.6375
308,9655267,0.9437921,0.02562,-0.276452,-1.2425,-6.335,-4.6375
309,9655364,0.94489,0.023546,-0.27571999999999997,-1.365,-6.1775,-4.6025
310,9655462,0.9469641,0.022082,-0.274988,-1.505,-6.0025,-4.4975
311,9655560,0.94611,0.02135,-0.276086,-1.68,-6.1775,-4.4975
312,9655658,0.9455,0.02074,-0.27523200000000003,-1.7325,-6.2125,-4.515
313,9655756,0.9441579999999999,0.021838,-0.276574,-1.7675,-6.335,-4.55
314,9655854,0.943426,0.023424,-0.27755,-1.6625,-6.3525,-4.62
315,9655952,0.9437921,0.024644,-0.27816,-1.8725,-6.37,-4.55
316,9656050,0.94306,0.02623,-0.27876999999999996,-1.96,-6.51,-4.4975
317,9656148,0.9439139999999999,0.027816000000000004,-0.279624,-1.96,-6.51,-4.4975
318,9656246,0.944768,0.027206,-0.27889200000000003,-1.855,-6.2825,-4.4625
319,9656343,0.9439139999999999,0.026474,-0.279014,-1.6625,-6.44,-4.305
320,9656441,0.94306,0.025863999999999998,-0.279136,-1.5925,-6.3525,-4.34
321,9656539,0.943426,0.023058000000000002,-0.27828200000000003,-1.61,-6.265,-4.375
322,9656637,0.9419620999999999,0.021594,-0.27938,-1.68,-6.0725,-4.3925
323,9656735,0.9433041,0.019764,-0.279136,-1.68,-5.95,-4.4625
324,9656833,0.941718,0.020252000000000003,-0.279258,-1.89,-6.1075,-4.5325
325,9656931,0.943426,0.024034,-0.27999,-1.9425,-6.265,-4.5675
326,9657029,0.9435479999999999,0.024644,-0.280844,-1.9075,-6.16,-4.5675
327,9657127,0.94306,0.02623,-0.28181999999999996,-1.9075,-6.1075,-4.585
328,9657224,0.94245,0.02806,-0.280966,-1.8025,-6.1075,-4.585
329,9657322,0.9423280999999999,0.026595999999999998,-0.281454,-1.7675,-6.09,-4.4975
330,9657420,0.94306,0.027816000000000004,-0.28157600000000005,-1.925,-6.0025,-4.305
331,9657518,0.941718,0.025131999999999998,-0.280478,-1.82,-5.9325,-4.27
332,9657616,0.940254,0.023912,-0.28181999999999996,-1.785,-5.9675,-4.2
333,9657714,0.9404981,0.023058000000000002,-0.281088,-1.8375,-5.81,-4.2175
334,9657812,0.9403761,0.023302,-0.27999,-1.8375,-5.7575,-4.305
335,9657910,0.9403761,0.023912,-0.280844,-2.03,-5.8625,-4.3925
336,9658008,0.942572,0.025376,-0.28011199999999997,-2.03,-5.7925,-4.55
337,9658106,0.942694,0.027938,-0.280478,-2.065,-5.67,-4.55
338,9658203,0.941718,0.02928,-0.28072199999999997,-2.065,-5.705,-4.585
339,9658301,0.942694,0.029036000000000003,-0.280478,-2.1525,-5.4775,-4.585
340,9658399,0.9437921,0.028182,-0.279868,-2.1875,-5.46,-4.69
341,9658497,0.9423280999999999,0.028669999999999998,-0.279014,-2.2225,-5.4775,-4.69
342,9658595,0.9451341000000001,0.029158,-0.279868,-2.135,-5.6175,-4.5675
343,9658693,0.9450120000000001,0.029401999999999998,-0.28011199999999997,-2.0125,-5.495,-4.5675
344,9658791,0.94489,0.030133999999999998,-0.27876999999999996,-1.9425,-5.4425,-4.55
345,9658889,0.9419620999999999,0.029036000000000003,-0.277794,-1.8375,-5.495,-4.6025
346,9658987,0.941108,0.028304000000000003,-0.277794,-1.855,-5.425,-4.5675
347,9659085,0.9418401,0.027816000000000004,-0.277428,-1.9075,-5.25,-4.585
348,9659182,0.944768,0.027938,-0.275354,-1.9425,-5.0575,-4.55
349,9659280,0.942816,0.029524,-0.27510999999999997,-2.03,-5.04,-4.6025
350,9659378,0.944524,0.030987999999999998,-0.274622,-2.0475,-5.11,-4.6025
351,9659476,0.9436701,0.029768,-0.274988,-2.0825,-5.0925,-4.585
352,9659574,0.944524,0.029889999999999996,-0.276208,-2.0825,-5.18,-4.6025
353,9659672,0.9450120000000001,0.031598,-0.27633,-2.0475,-5.145,-4.4975
354,9659770,0.945744,0.032451999999999995,-0.274622,-2.0825,-5.04,-4.445
355,9659868,0.947818,0.033184,-0.274134,-2.0125,-4.9525,-4.48
356,9659966,0.945866,0.03355,-0.27266999999999997,-1.8025,-5.11,-4.48
357,9660064,0.9446460999999999,0.032451999999999995,-0.273158,-1.715,-5.18,-4.4275
358,9660161,0.9451341000000001,0.030622000000000003,-0.27328,-1.5575,-5.04,-4.3225
359,9660259,0.9453780999999999,0.030622000000000003,-0.273036,-1.47,-5.005,-4.3575
360,9660357,0.946842,0.030378,-0.273402,-1.4,-4.9525,-4.4275
361,9660455,0.948184,0.030744,-0.27071799999999996,-1.33,-4.76,-4.34
362,9660553,0.9489161,0.030256,-0.270596,-1.2775,-4.8475,-4.375
363,9660651,0.948306,0.031354,-0.269864,-1.155,-4.9175,-4.41
364,9660749,0.946232,0.032451999999999995,-0.269986,-1.085,-5.075,-4.3925
365,9660847,0.9450120000000001,0.033916,-0.272304,-0.98,-5.0225,-4.3575
366,9660945,0.9450120000000001,0.033794,-0.271084,-0.8925,-5.18,-4.3575
367,9661043,0.945256,0.033306,-0.269376,-0.7,-5.11,-4.3575
368,9661141,0.947574,0.033306,-0.26961999999999997,-0.6825,-4.9875,-4.3575
369,9661238,0.947574,0.032451999999999995,-0.27023,-0.735,-4.9875,-4.445
370,9661336,0.9487940999999999,0.032574,-0.27084,-0.5775,-4.9875,-4.4975
371,9661434,0.9486720999999999,0.031842,-0.268034,-0.455,-5.04,-4.445
372,9661532,0.9480620000000001,0.031476,-0.268644,-0.42,-4.9,-4.48
373,9661630,0.947818,0.033306,-0.270962,-0.3675,-5.005,-4.41
374,9661728,0.9470860000000001,0.034526,-0.269986,-0.4725,-5.1975,-4.4975
375,9661826,0.9496479999999999,0.035136,-0.267546,-0.315,-5.1625,-4.375
376,9661924,0.9503799999999999,0.034648000000000005,-0.265228,-0.175,-5.075,-4.3925
377,9662022,0.9487940999999999,0.030866,-0.26535,-0.0175,-5.11,-4.34
378,9662120,0.948306,0.026962,-0.267912,-0.0525,-5.145,-4.375
379,9662218,0.9465981,0.024278,-0.26596,-0.2625,-4.97,-4.515
380,9662315,0.9476959999999999,0.024278,-0.26657,-0.385,-4.795,-4.55
381,9662413,0.948184,0.023302,-0.265228,-0.455,-5.075,-4.655
382,9662511,0.9473301,0.026108,-0.266692,-0.4725,-5.2675,-4.5675
383,9662609,0.945744,0.030378,-0.26779000000000003,-0.35,-5.25,-4.41
384,9662707,0.9474520000000001,0.0305,-0.268278,-0.21,-5.11,-4.34
385,9662805,0.9472079999999999,0.029401999999999998,-0.267302,-0.0525,-5.0925,-4.4275
386,9662903,0.9476959999999999,0.030378,-0.26779000000000003,-0.0175,-5.075,-4.34
387,9663001,0.9479401,0.027327999999999998,-0.265716,-0.0525,-5.0575,-4.2175
388,9663099,0.949892,0.024766,-0.26657,-0.1225,-5.04,-4.2
389,9663196,0.9506241,0.022936,-0.267546,-0.1925,-5.0225,-4.2
390,9663294,0.9507460999999999,0.023424,-0.265594,-0.2975,-5.0225,-4.2525
391,9663392,0.951722,0.024644,-0.26474000000000003,-0.455,-5.1275,-4.3225
392,9663490,0.9511120000000001,0.025742,-0.265716,-0.5075,-5.1275,-4.305
393,9663588,0.9526979999999999,0.027083999999999997,-0.263642,-0.49,-5.3025,-4.27
394,9663686,0.9487940999999999,0.029036000000000003,-0.265472,-0.35,-5.32,-4.2875
395,9663784,0.946232,0.030622000000000003,-0.267546,-0.2625,-5.495,-4.34
396,9663882,0.9451341000000001,0.029524,-0.267546,-0.14,-5.5825,-4.3575
397,9663980,0.946232,0.028669999999999998,-0.267546,-0.07,-5.565,-4.34
398,9664077,0.9464761,0.027206,-0.2684,-0.1925,-5.39,-4.445
399,9664175,0.94611,0.025742,-0.267302,-0.245,-5.32,-4.41
400,9664273,0.948306,0.025131999999999998,-0.267546,-0.315,-5.1975,-4.41
401,9664371,0.94916,0.024644,-0.2684,-0.35,-5.1625,-4.41
402,9664469,0.9497701,0.023424,-0.266204,-0.385,-5.0925,-4.3575
403,9664567,0.9506241,0.02501,-0.265472,-0.42,-5.075,-4.41
404,9664665,0.9519661,0.024156,-0.263886,-0.4375,-5.145,-4.41
405,9664763,0.9502581,0.02501,-0.264984,-0.4725,-5.3025,-4.41
406,9664861,0.9501360999999999,0.02745,-0.264862,-0.385,-5.3725,-4.3225
407,9664959,0.949892,0.027083999999999997,-0.265472,-0.315,-5.425,-4.235
408,9665056,0.9501360999999999,0.025498,-0.266326,-0.4725,-5.53,-4.305
409,9665154,0.9490379999999999,0.02501,-0.267058,-0.42,-5.7225,-4.2175
410,9665252,0.9479401,0.023058000000000002,-0.26657,-0.525,-5.915,-4.2175
411,9665350,0.94855,0.021838,-0.266692,-0.6475,-5.705,-4.2175
412,9665448,0.94855,0.022326,-0.265472,-0.7525,-5.74,-4.2875
413,9665546,0.9489161,0.02135,-0.266692,-0.7525,-5.81,-4.2875
414,9665644,0.94916,0.021106,-0.26608200000000004,-0.77,-5.7225,-4.235
415,9665742,0.9480620000000001,0.022203999999999998,-0.264374,-0.8575,-5.6525,-4.2525
416,9665840,0.947818,0.023424,-0.26596,-0.98,-5.5475,-4.13
417,9665937,0.9472079999999999,0.024888,-0.26535,-1.0675,-5.5825,-4.2
418,9666035,0.9472079999999999,0.02562,-0.265106,-1.0325,-5.705,-4.1825
419,9666133,0.948306,0.023424,-0.264374,-1.015,-5.74,-4.2
420,9666231,0.9473301,0.02257,-0.26474000000000003,-1.0675,-5.705,-4.095
421,9666329,0.9469641,0.024034,-0.26596,-1.015,-5.81,-4.1125
422,9666427,0.94855,0.022692,-0.266204,-1.1025,-5.705,-4.165
423,9666525,0.9470860000000001,0.022813999999999997,-0.26474000000000003,-0.9625,-5.7225,-4.13
424,9666623,0.9500139999999999,0.021838,-0.265106,-1.015,-5.53,-4.235
425,9666721,0.9497701,0.021716,-0.264252,-1.155,-5.495,-4.2
426,9666819,0.9497701,0.022813999999999997,-0.265472,-1.155,-5.5825,-4.1475
427,9666916,0.9479401,0.024766,-0.265472,-1.12,-5.67,-4.1825
428,9667014,0.9489161,0.023546,-0.265106,-1.1025,-5.6875,-4.1825
429,9667112,0.9476959999999999,0.022203999999999998,-0.264252,-1.2075,-5.7925,-4.2525
430,9667210,0.948306,0.02257,-0.263886,-1.4,-5.8625,-4.2175
431,9667308,0.9474520000000001,0.024278,-0.26608200000000004,-1.3825,-5.7575,-4.2
432,9667406,0.947818,0.023302,-0.265716,-1.4,-5.67,-4.1475
433,9667504,0.946842,0.024522,-0.266326,-1.2775,-5.6875,-4.2875
434,9667602,0.9492821,0.0244,-0.264984,-1.1725,-5.705,-4.2175
435,9667700,0.9484280999999999,0.023302,-0.264374,-1.0325,-5.705,-4.13
436,9667798,0.9501360999999999,0.02257,-0.265106,-1.1025,-5.7225,-4.1475
437,9667896,0.949892,0.023058000000000002,-0.263764,-1.2075,-5.8275,-4.2
438,9667993,0.9486720999999999,0.022448,-0.264984,-1.4,-5.845,-4.1475
439,9668091,0.9490379999999999,0.021106,-0.265716,-1.5925,-5.915,-4.2525
440,9668189,0.9487940999999999,0.021106,-0.265106,-1.7675,-5.8975,-4.27
441,9668287,0.948184,0.023058000000000002,-0.26461799999999996,-1.785,-5.845,-4.34
442,9668385,0.9484280999999999,0.024278,-0.264496,-1.715,-5.9325,-4.27
443,9668483,0.94916,0.024522,-0.265472,-1.5575,-5.9675,-4.165
444,9668581,0.9501360999999999,0.026108,-0.26657,-1.4,-6.0025,-4.13
445,9668679,0.9500139999999999,0.025498,-0.264984,-1.295,-6.0025,-4.165
446,9668777,0.9473301,0.02562,-0.26413000000000003,-1.3825,-5.915,-4.2
447,9668875,0.948306,0.023546,-0.265472,-1.4175,-5.88,-4.2175
448,9668972,0.94855,0.023668,-0.266204,-1.26,-5.8275,-4.0075
449,9669070,0.948184,0.022692,-0.264008,-1.3125,-5.9325,-4.06
450,9669168,0.9487940999999999,0.023546,-0.265716,-1.33,-5.8625,-4.13
451,9669266,0.9479401,0.0244,-0.268522,-1.2425,-5.915,-4.1125
452,9669364,0.9486720999999999,0.02562,-0.265594,-1.2425,-5.8975,-4.1825
453,9669462,0.9506241,0.027938,-0.263276,-1.155,-5.845,-4.235
454,9669560,0.9524540000000001,0.02623,-0.263154,-1.015,-5.81,-4.1475
455,9669658,0.9506241,0.023668,-0.264252,-0.945,-5.8275,-4.1475
456,9669756,0.946842,0.020252000000000003,-0.26474000000000003,-0.9625,-5.9325,-4.235
457,9669854,0.9441579999999999,0.020618,-0.266448,-1.1025,-5.845,-4.2875
458,9669951,0.9455,0.019032,-0.26596,-1.1725,-5.7225,-4.3575
459,9670049,0.94611,0.019398,-0.266204,-1.26,-5.705,-4.27
460,9670147,0.9479401,0.02135,-0.265472,-1.2425,-5.67,-4.2525
461,9670245,0.9479401,0.023302,-0.26657,-1.1025,-5.635,-4.235
462,9670343,0.947574,0.025498,-0.26596,-0.9975,-5.74,-4.1825
463,9670441,0.948306,0.025254,-0.263642,-0.945,-5.8625,-4.1825
464,9670539,0.948306,0.025131999999999998,-0.263642,-1.085,-5.67,-4.13
465,9670637,0.9514780999999999,0.023058000000000002,-0.26352,-1.1725,-5.46,-4.1475
466,9670735,0.9519661,0.021594,-0.26461799999999996,-1.2775,-5.4775,-4.1475
467,9670833,0.9525761,0.02196,-0.267302,-1.3125,-5.635,-4.165
468,9670930,0.9524540000000001,0.021594,-0.26718000000000003,-1.4,-5.7575,-4.095
469,9671028,0.9505020000000001,0.023790000000000002,-0.265716,-1.4,-5.7575,-4.165
470,9671126,0.9505020000000001,0.024156,-0.266692,-1.435,-5.95,-4.13
471,9671224,0.948306,0.024156,-0.26596,-1.4,-6.02,-4.1825
472,9671322,0.9474520000000001,0.023668,-0.267302,-1.3475,-6.02,-4.13
473,9671420,0.9474520000000001,0.022936,-0.26657,-1.26,-6.0025,-4.2
474,9671518,0.9455,0.022936,-0.265838,-1.2425,-5.8625,-4.2
475,9671616,0.9470860000000001,0.02257,-0.266692,-1.1725,-5.985,-4.2525
476,9671714,0.9470860000000001,0.022813999999999997,-0.265716,-1.26,-6.0375,-4.2525
477,9671812,0.9480620000000001,0.022326,-0.264984,-1.2425,-6.0025,-4.2875
478,9671910,0.9467200000000001,0.024034,-0.266692,-1.2775,-6.055,-4.235
479,9672007,0.945744,0.024034,-0.26608200000000004,-1.4175,-5.95,-4.2525
480,9672105,0.9480620000000001,0.023058000000000002,-0.266448,-1.33,-5.705,-4.41
481,9672203,0.94916,0.02257,-0.265228,-1.33,-5.635,-4.34
482,9672301,0.949526,0.021472,-0.264374,-1.2425,-5.6525,-4.3925
483,9672399,0.9500139999999999,0.021716,-0.266326,-1.05,-5.915,-4.305
484,9672497,0.9500139999999999,0.022203999999999998,-0.265838,-1.1025,-5.95,-4.2
485,9672595,0.9484280999999999,0.023912,-0.266692,-1.225,-5.95,-4.27
486,9672693,0.9487940999999999,0.023058000000000002,-0.267058,-1.19,-5.95,-4.3225
487,9672791,0.9476959999999999,0.022203999999999998,-0.264984,-1.295,-5.88,-4.34
488,9672889,0.9465981,0.022936,-0.266326,-1.3125,-5.8625,-4.3225
489,9672987,0.947574,0.023180000000000003,-0.265716,-1.3475,-5.7925,-4.3225
490,9673084,0.9463540000000001,0.022082,-0.26779000000000003,-1.33,-5.775,-4.3225
491,9673182,0.9487940999999999,0.022692,-0.267058,-1.26,-5.81,-4.305
492,9673280,0.9501360999999999,0.023912,-0.268034,-1.2425,-5.705,-4.3575
493,9673378,0.949892,0.023058000000000002,-0.266204,-1.225,-5.7225,-4.375
494,9673476,0.9490379999999999,0.022936,-0.266448,-1.2775,-5.775,-4.34
495,9673574,0.9484280999999999,0.022203999999999998,-0.265838,-1.3475,-5.9675,-4.235
496,9673672,0.9479401,0.023302,-0.266448,-1.4525,-5.9675,-4.3925
497,9673770,0.948184,0.023668,-0.266936,-1.2775,-5.845,-4.34
498,9673868,0.9467200000000001,0.022082,-0.266936,-1.295,-5.88,-4.41
499,9673966,0.9487940999999999,0.022448,-0.26657,-1.435,-5.95,-4.3925
500,9674063,0.947818,0.023424,-0.266936,-1.33,-5.9325,-4.305
501,9674161,0.9486720999999999,0.021716,-0.266814,-1.3475,-5.95,-4.375
502,9674259,0.94916,0.022936,-0.266448,-1.4525,-5.7925,-4.3925
503,9674357,0.9472079999999999,0.022326,-0.265106,-1.4875,-5.7575,-4.4275
504,9674455,0.9472079999999999,0.020984,-0.26766799999999996,-1.4,-5.9675,-4.375
505,9674553,0.9479401,0.022936,-0.268034,-1.5225,-5.88,-4.2
506,9674651,0.948184,0.022082,-0.266936,-1.5575,-5.845,-4.2875
507,9674749,0.9464761,0.021106,-0.266448,-1.575,-5.7575,-4.2525
508,9674847,0.9465981,0.02135,-0.266204,-1.7325,-5.7575,-4.2525
509,9674945,0.945866,0.021838,-0.266692,-1.7675,-5.775,-4.375
510,9675043,0.9473301,0.022326,-0.267912,-1.9075,-5.565,-4.3225
511,9675140,0.9484280999999999,0.022813999999999997,-0.26766799999999996,-1.9425,-5.6,-4.2
512,9675238,0.94855,0.025863999999999998,-0.267546,-1.96,-5.67,-4.375
513,9675336,0.94916,0.02562,-0.266814,-1.8375,-5.635,-4.27
514,9675434,0.9484280999999999,0.02562,-0.266448,-1.75,-5.565,-4.1825
515,9675532,0.9505020000000001,0.02501,-0.264862,-1.6275,-5.495,-4.2875
516,9675630,0.9492821,0.023424,-0.266326,-1.6275,-5.4775,-4.27
517,9675728,0.9476959999999999,0.023424,-0.265716,-1.68,-5.6175,-4.2
518,9675826,0.9486720999999999,0.022692,-0.265594,-1.8725,-5.5125,-4.34
519,9675924,0.9487940999999999,0.023546,-0.266204,-1.715,-5.6875,-4.2875
520,9676022,0.9474520000000001,0.023668,-0.268522,-1.68,-5.67,-4.2525
521,9676120,0.948184,0.02501,-0.268644,-1.6625,-5.7925,-4.2175
522,9676218,0.94855,0.024888,-0.268034,-1.61,-5.8975,-4.27
523,9676315,0.945866,0.02684,-0.268156,-1.575,-5.845,-4.2875
524,9676413,0.9463540000000001,0.026108,-0.268766,-1.4175,-5.7575,-4.305
525,9676511,0.9469641,0.024766,-0.266814,-1.33,-5.53,-4.305
526,9676609,0.9480620000000001,0.023058000000000002,-0.26766799999999996,-1.33,-5.4775,-4.27
527,9676707,0.9484280999999999,0.023668,-0.265838,-1.33,-5.5475,-4.13
528,9676805,0.9494040000000001,0.023180000000000003,-0.266448,-1.33,-5.495,-4.165
529,9676903,0.949892,0.025131999999999998,-0.26766799999999996,-1.435,-5.6875,-4.2525
530,9677001,0.9474520000000001,0.025498,-0.268034,-1.4875,-5.9675,-4.1825
531,9677099,0.948184,0.028304000000000003,-0.26718000000000003,-1.4525,-5.9675,-4.1825
532,9677197,0.949892,0.029036000000000003,-0.26766799999999996,-1.33,-5.95,-4.0775
533,9677295,0.9507460999999999,0.027694,-0.265594,-1.225,-5.81,-4.13
534,9677392,0.9489161,0.0244,-0.267302,-1.1375,-5.8625,-4.1825
535,9677490,0.9467200000000001,0.021716,-0.265716,-1.05,-5.8275,-4.235
536,9677588,0.945744,0.020130000000000002,-0.26608200000000004,-1.0675,-5.7225,-4.235
537,9677686,0.9484280999999999,0.019764,-0.267424,-1.26,-5.6175,-4.2525
538,9677784,0.9472079999999999,0.022203999999999998,-0.265838,-1.505,-5.7575,-4.3225
539,9677882,0.9474520000000001,0.025254,-0.26718000000000003,-1.4875,-5.95,-4.3225
540,9677980,0.945744,0.026108,-0.267424,-1.4175,-5.7925,-4.3225
541,9678078,0.94489,0.02806,-0.266936,-1.155,-5.775,-4.2175
542,9678176,0.9459880999999999,0.026718000000000002,-0.266204,-1.0675,-5.7575,-4.165
543,9678274,0.9476959999999999,0.025131999999999998,-0.264984,-1.0325,-5.4425,-4.2175
544,9678372,0.948306,0.023790000000000002,-0.265838,-1.1025,-5.355,-4.1825
545,9678469,0.9501360999999999,0.023424,-0.267424,-1.1375,-5.285,-4.1475
546,9678567,0.9494040000000001,0.02257,-0.26657,-1.1725,-5.39,-4.34
547,9678665,0.951356,0.022448,-0.265106,-1.19,-5.5475,-4.27
548,9678763,0.950868,0.0244,-0.265594,-1.225,-5.7225,-4.305
549,9678861,0.9497701,0.025376,-0.26596,-1.33,-5.8625,-4.3225
550,9678959,0.9492821,0.02562,-0.266326,-1.4875,-5.9325,-4.3575
551,9679057,0.9473301,0.026108,-0.267424,-1.33,-5.9325,-4.305
552,9679155,0.945744,0.02623,-0.26779000000000003,-1.2775,-5.915,-4.305
553,9679253,0.946232,0.02562,-0.267424,-1.0325,-5.81,-4.235
554,9679351,0.9464761,0.02501,-0.267546,-0.9275,-5.8625,-4.1125
555,9679448,0.947574,0.025254,-0.26657,-1.0325,-5.705,-4.13
556,9679546,0.9480620000000001,0.024644,-0.266326,-1.12,-5.6525,-4.165
557,9679644,0.948306,0.022448,-0.267302,-1.1375,-5.74,-4.165
558,9679742,0.9484280999999999,0.022082,-0.264862,-1.085,-5.705,-4.165
559,9679840,0.9502581,0.022082,-0.265228,-0.945,-5.67,-4.1825
560,9679938,0.9494040000000001,0.023302,-0.26657,-0.98,-5.705,-4.3225
561,9680036,0.9479401,0.024644,-0.267302,-1.1025,-5.7225,-4.2875
562,9680134,0.9494040000000001,0.023180000000000003,-0.266692,-1.12,-5.6875,-4.34
563,9680232,0.9492821,0.021838,-0.267546,-1.2075,-5.67,-4.4275
564,9680329,0.9490379999999999,0.023668,-0.26657,-1.1025,-5.88,-4.27
565,9680427,0.9470860000000001,0.023790000000000002,-0.266692,-1.1025,-6.02,-4.34
566,9680525,0.9484280999999999,0.025131999999999998,-0.266814,-0.9975,-5.845,-4.3225
567,9680623,0.9469641,0.024644,-0.26657,-1.12,-5.6875,-4.2525
568,9680721,0.9476959999999999,0.023912,-0.267912,-1.12,-5.775,-4.235
569,9680819,0.9474520000000001,0.023912,-0.266204,-1.05,-5.845,-4.2175
570,9680917,0.9494040000000001,0.022936,-0.26718000000000003,-1.085,-5.775,-4.2875
571,9681015,0.9474520000000001,0.022448,-0.26596,-0.9625,-5.845,-4.2175
572,9681113,0.9469641,0.02257,-0.265472,-1.0325,-5.7925,-4.2525
573,9681210,0.9479401,0.023546,-0.267058,-1.12,-5.8275,-4.305
574,9681308,0.9474520000000001,0.022203999999999998,-0.26779000000000003,-1.1725,-5.7575,-4.235
575,9681406,0.9480620000000001,0.022692,-0.26718000000000003,-1.1725,-5.6,-4.2
576,9681504,0.9474520000000001,0.022082,-0.264862,-1.2075,-5.5825,-4.1825
577,9681602,0.9490379999999999,0.02196,-0.265594,-1.1375,-5.6,-4.305
578,9681700,0.9492821,0.02257,-0.265594,-1.1025,-5.635,-4.2875
579,9681798,0.9500139999999999,0.022082,-0.266448,-1.085,-5.74,-4.235
580,9681896,0.948306,0.022813999999999997,-0.26718000000000003,-1.015,-5.8975,-4.165
581,9681994,0.947574,0.022692,-0.268034,-1.1025,-5.9325,-4.2175
582,9682092,0.945744,0.023058000000000002,-0.26766799999999996,-1.1375,-5.7575,-4.13
583,9682189,0.946842,0.02257,-0.26900999999999997,-1.2075,-5.6175,-4.165
584,9682287,0.9484280999999999,0.023424,-0.266692,-1.19,-5.565,-4.2
585,9682385,0.9464761,0.022082,-0.267424,-1.26,-5.6525,-4.235
586,9682483,0.9474520000000001,0.022326,-0.267424,-1.2775,-5.5825,-4.305
587,9682581,0.946842,0.023058000000000002,-0.265594,-1.295,-5.4775,-4.34
588,9682679,0.9472079999999999,0.023180000000000003,-0.265106,-1.225,-5.53,-4.235
589,9682777,0.949526,0.022936,-0.266814,-1.155,-5.6,-4.2
590,9682875,0.9484280999999999,0.024278,-0.265838,-1.26,-5.5825,-4.305
591,9682973,0.9489161,0.023668,-0.266326,-1.2775,-5.565,-4.235
592,9683070,0.947818,0.022936,-0.26535,-1.1725,-5.4425,-4.1825
593,9683168,0.948306,0.023424,-0.266448,-1.085,-5.5125,-4.1125
594,9683266,0.948306,0.021472,-0.266936,-1.155,-5.5825,-4.1825
595,9683364,0.949526,0.023424,-0.267058,-1.2775,-5.6175,-4.1125
596,9683462,0.947818,0.023302,-0.266814,-1.1725,-5.5475,-4.1825
597,9683560,0.949892,0.022936,-0.264984,-1.155,-5.5125,-4.2175
598,9683658,0.949892,0.021838,-0.265716,-1.12,-5.6525,-4.165
599,9683756,0.9484280999999999,0.02196,-0.265838,-1.085,-5.5825,-4.165
600,9683854,0.9480620000000001,0.02257,-0.26608200000000004,-1.12,-5.6875,-4.1825
601,9683952,0.9480620000000001,0.02257,-0.266204,-1.085,-5.705,-4.2
602,9684049,0.948184,0.02196,-0.265228,-1.05,-5.6875,-4.1475
603,9684147,0.9463540000000001,0.021594,-0.265106,-0.9975,-5.6,-4.13
604,9684245,0.9470860000000001,0.021716,-0.265472,-1.085,-5.5475,-4.1825
605,9684343,0.9451341000000001,0.02074,-0.26596,-1.1725,-5.53,-4.235
606,9684441,0.9464761,0.020862000000000002,-0.265228,-1.0675,-5.46,-4.1825
607,9684539,0.9474520000000001,0.020618,-0.26596,-1.2075,-5.355,-4.1475
608,9684637,0.947574,0.019764,-0.26535,-1.2775,-5.2675,-4.165
609,9684735,0.9500139999999999,0.021228,-0.263764,-1.19,-5.285,-4.1825
610,9684833,0.9500139999999999,0.021472,-0.262666,-1.155,-5.25,-4.0775
611,9684930,0.94916,0.024644,-0.264374,-1.05,-5.53,-4.025
612,9685028,0.948184,0.026351999999999997,-0.263154,-1.1375,-5.53,-4.165
613,9685126,0.9487940999999999,0.027816000000000004,-0.263154,-1.0675,-5.495,-4.1825
614,9685224,0.9506241,0.026962,-0.263398,-1.0675,-5.3375,-4.2
615,9685322,0.950868,0.024766,-0.261812,-0.77,-5.285,-4.165
616,9685420,0.9496479999999999,0.022203999999999998,-0.26461799999999996,-0.5775,-5.2325,-4.2875
617,9685518,0.9486720999999999,0.021472,-0.263398,-0.56,-5.2675,-4.41
618,9685616,0.9496479999999999,0.021106,-0.26291,-0.56,-5.25,-4.375
619,9685714,0.949892,0.019275999999999998,-0.263398,-0.6825,-5.3725,-4.445
620,9685812,0.94916,0.019886,-0.26303200000000004,-0.735,-5.4775,-4.445
621,9685910,0.9487940999999999,0.02135,-0.2623,-0.665,-5.5125,-4.445
622,9686008,0.9486720999999999,0.021228,-0.261934,-0.4025,-5.4425,-4.4625
623,9686105,0.9484280999999999,0.022203999999999998,-0.2623,-0.21,-5.355,-4.3575
624,9686203,0.947818,0.02135,-0.26156799999999997,-0.2625,-5.355,-4.41
625,9686301,0.9505020000000001,0.018666,-0.261934,-0.525,-5.3025,-4.34
626,9686399,0.9528200000000001,0.016958,-0.260714,-0.8925,-5.1975,-4.34
627,9686497,0.954406,0.017934000000000002,-0.261934,-0.91,-5.3025,-4.375
628,9686595,0.954406,0.019642,-0.264374,-0.8225,-5.285,-4.3925
629,9686693,0.9535521,0.019886,-0.263764,-0.7175,-5.3725,-4.4275
630,9686791,0.9520881,0.021228,-0.263642,-0.7525,-5.4775,-4.445
631,9686889,0.9502581,0.020618,-0.262178,-0.945,-5.775,-4.3575
632,9686987,0.9486720999999999,0.02074,-0.263886,-1.015,-6.055,-4.375
633,9687085,0.9465981,0.021106,-0.263886,-1.05,-6.0375,-4.3225
634,9687182,0.9472079999999999,0.01952,-0.265838,-1.085,-6.0725,-4.235
635,9687280,0.9459880999999999,0.018788,-0.266448,-1.225,-5.88,-4.3225
636,9687378,0.9473301,0.019642,-0.264984,-1.225,-5.74,-4.3925
637,9687476,0.9490379999999999,0.019275999999999998,-0.263642,-1.3475,-5.565,-4.3575
638,9687574,0.9514780999999999,0.020862000000000002,-0.26303200000000004,-1.4875,-5.4075,-4.3225
639,9687672,0.9530641,0.02135,-0.261934,-1.4,-5.4425,-4.27
640,9687770,0.9537959999999999,0.022203999999999998,-0.26352,-1.3475,-5.565,-4.3925
641,9687868,0.9530641,0.021716,-0.262666,-1.225,-5.8275,-4.445
642,9687966,0.9516,0.021472,-0.260348,-1.155,-5.915,-4.235
643,9688063,0.9519661,0.019642,-0.258884,-1.1725,-6.055,-4.235
644,9688161,0.9503799999999999,0.01952,-0.25559,-1.155,-6.195,-4.2525
645,9688259,0.9451341000000001,0.0183,-0.25217399999999995,-1.085,-6.37,-4.0775
646,9688357,0.9381801,0.016347999999999998,-0.25071,-0.8575,-6.3875,-3.9025
647,9688455,0.9328120000000001,0.016714,-0.253272,-0.63,-6.02,-3.78
648,9688553,0.93391,0.019398,-0.24997800000000003,-0.665,-5.005,-3.57
649,9688651,0.9389120000000001,0.015128,-0.24412199999999998,-0.7175,-3.8675,-3.5525
650,9688749,0.94245,0.011590000000000001,-0.243024,-0.9275,-3.2725,-3.5175
651,9688847,0.949526,0.0061,-0.24265799999999998,-1.0325,-3.01,-3.7275
652,9688945,0.9505020000000001,0.002684,-0.23228800000000002,-1.2425,-2.52,-3.92
653,9689042,0.9547720999999999,0.0034159999999999998,-0.223016,-1.75,-2.1875,-4.3575
654,9689140,0.9534301,0.004392,-0.22167399999999998,-1.645,-2.3625,-4.795
655,9689238,0.95221,0.007320001,-0.22021,-1.68,-1.855,-4.9175
656,9689336,0.9541620000000001,0.014274,-0.208742,-1.68,-0.63,-5.0925
657,9689434,0.957334,0.020984,-0.19739600000000002,-1.6975,0.4025,-5.0575
658,9689532,0.959408,0.029036000000000003,-0.19154000000000002,-1.5225,0.7875,-5.0925
659,9689630,0.964044,0.028914,-0.189466,-1.2775,1.33,-5.0225
660,9689728,0.9705101,0.02257,-0.189222,-0.7875,1.855,-5.1625
661,9689826,0.9797819999999999,0.015982,-0.190442,-0.2275,1.7675,-5.32
662,9689923,0.987956,0.005856,-0.190442,-0.28,1.4875,-5.53
663,9690021,0.9969841,-0.000732,-0.193736,-1.1025,0.8575,-6.0025
664,9690119,1.001498,-0.009150001,-0.19764,-2.065,-0.28,-6.265
665,9690217,1.0016200000000002,-0.012931999999999999,-0.20069,-3.4125,-1.7675,-6.405
666,9690315,1.00101,-0.013175999999999998,-0.20374,-4.8475,-3.2025,-6.475
667,9690413,0.996374,-0.013908000000000002,-0.205936,-6.3175,-4.235,-6.3525
668,9690511,0.990274,-0.007320001,-0.20727800000000002,-7.3325,-5.4425,-6.0375
669,9690609,0.981978,0.00244,-0.20679,-7.98,-6.6325,-5.565
670,9690707,0.973194,0.012931999999999999,-0.20801,-8.3475,-7.3325,-4.97
671,9690805,0.964532,0.021838,-0.20752199999999998,-8.2075,-7.7875,-4.585
672,9690902,0.9585541,0.027816000000000004,-0.205204,-8.0325,-8.1375,-4.41
673,9691000,0.954284,0.029401999999999998,-0.20642399999999997,-7.595,-8.365,-4.515
674,9691098,0.9541620000000001,0.032451999999999995,-0.205692,-6.895,-8.19,-4.7075
675,9691196,0.956968,0.037576,-0.204228,-6.37,-7.875,-5.1275
676,9691294,0.9600181000000001,0.036722000000000005,-0.200568,-5.8275,-7.7525,-5.67
677,9691392,0.9627020000000001,0.033062,-0.19642,-5.4425,-7.63,-6.1425
678,9691490,0.9678261,0.028304000000000003,-0.198006,-5.3725,-7.945,-6.545
679,9691588,0.971242,0.028304000000000003,-0.196908,-5.4775,-8.435,-6.9125
680,9691686,0.97234,0.032574,-0.19397999999999999,-5.46,-9.065,-7.14
681,9691783,0.971242,0.031964,-0.195444,-5.355,-9.765,-7.175
682,9691881,0.9686799999999999,0.028792,-0.198128,-4.8125,-10.4475,-7.245
683,9691979,0.965996,0.02806,-0.199348,-4.41,-11.2525,-7.2275
684,9692077,0.9596520000000001,0.035136,-0.198128,-4.27,-11.9525,-7.315
685,9692175,0.9505020000000001,0.04148,-0.199226,-4.13,-12.355,-7.4025
686,9692273,0.942084,0.04404201,-0.198372,-3.6575,-12.495,-7.525
687,9692371,0.936106,0.041236,-0.196298,-3.2725,-12.425,-7.56
688,9692469,0.9291520000000001,0.041968,-0.195688,-2.695,-12.6175,-7.5775
689,9692567,0.924516,0.046726,-0.194346,-2.0475,-12.565,-7.3325
690,9692665,0.919758,0.053801999999999996,-0.191296,-1.3125,-12.5125,-6.9475
691,9692763,0.91195,0.054778,-0.19337000000000001,-0.4725,-12.53,-6.125
692,9692860,0.904142,0.050263999999999996,-0.196786,0.2275,-12.4425,-4.935
693,9692958,0.8982860999999999,0.044286,-0.20069,1.155,-11.935,-3.71
694,9693056,0.8941380999999999,0.043432,-0.20496,1.5575,-10.99,-2.4675
695,9693154,0.9010921000000001,0.040382,-0.20837600000000003,1.505,-9.835,-1.12
696,9693252,0.916342,0.03599,-0.211914,1.4875,-9.1875,0.63
697,9693350,0.9292739999999999,0.034648000000000005,-0.214354,1.3125,-8.7325,2.6425
698,9693448,0.9453780999999999,0.042212,-0.229726,0.945,-8.2775,4.76
699,9693546,0.968924,0.055510000000000004,-0.291702,0.175,-7.7,6.8775
700,9693644,1.002108,0.049532,-0.314882,-0.4725,-5.1275,8.505
701,9693741,1.047248,0.012565999999999999,-0.24705,-1.925,2.485,8.995
702,9693839,1.0998299999999999,-0.01586,-0.181292,-4.3575,5.5125,8.47
703,9693937,1.13887,-0.030378,-0.134078,-5.705,-0.56,7.6825
704,9694035,1.124718,-0.017446,-0.11236199999999999,-8.2775,-8.8025,6.44
705,9694133,1.072746,0.041236,-0.136762,-11.3225,-17.1325,5.215
706,9694231,1.025776,0.081984,-0.162138,-12.04,-22.4875,4.9875
707,9694329,1.0145520000000001,0.114924,-0.183366,-12.32,-20.545,5.425
708,9694427,1.037976,0.142984,-0.18287799999999999,-11.935,-14.6825,6.16
709,9694525,1.078968,0.15067,-0.15091400000000002,-9.415,-10.08,6.2825
710,9694622,1.107516,0.149572,-0.12627,-6.685,-11.2175,6.02
711,9694720,1.10837,0.126148,-0.11736400000000001,-3.4125,-18.865,5.005
712,9694818,1.081896,0.08967,-0.123098,-1.9775,-27.5975,2.3625
713,9694916,1.026508,0.060146000000000005,-0.127246,-3.3425,-33.1275,-1.6275
714,9695014,0.9691681000000001,0.038308,-0.127978,-5.88,-35.56,-5.635
715,9695112,0.9203680000000001,0.03172,-0.131394,-8.8725,-35.9275,-8.715
716,9695210,0.8820601,0.039894,-0.125782,-11.795,-34.195,-10.9025
717,9695308,0.8524139999999999,0.05795,-0.11919400000000001,-13.72,-32.41,-12.11
718,9695406,0.8298440999999999,0.080886,-0.111142,-13.8425,-31.5,-12.25
719,9695504,0.811056,0.106018,-0.104554,-12.915,-30.555,-11.8125
720,9695602,0.804346,0.129198,-0.101992,-11.0425,-28.4375,-11.13
721,9695699,0.8077621,0.14579,-0.100772,-8.5925,-25.4975,-10.08
722,9695797,0.8192299999999999,0.14945,-0.101382,-6.16,-22.0675,-8.5575
723,9695895,0.8376520000000001,0.14579,-0.102968,-3.78,-18.6725,-6.7025
724,9695993,0.859856,0.140544,-0.09698999999999999,-1.82,-15.5575,-4.6725
725,9696091,0.879986,0.133712,-0.08662001,-0.21,-13.475,-2.66
726,9696189,0.8930401,0.11846199999999998,-0.08308201,1.19,-13.16,-1.365
727,9696287,0.8982860999999999,0.104798,-0.08430201,2.45,-14.0,-0.595
728,9696385,0.8988959999999999,0.093574,-0.08637601,3.3775,-14.77,-0.5075
729,9696483,0.8977980999999999,0.08308201,-0.09150001,4.41,-15.61,-0.9625
730,9696581,0.8927959999999999,0.07612801,-0.103578,5.2675,-16.485,-1.3475
731,9696678,0.889502,0.06954,-0.119682,6.055,-16.9225,-1.785
732,9696776,0.8926741,0.062341999999999995,-0.127856,6.8425,-16.8,-2.2575
733,9696874,0.90036,0.058316,-0.1281,7.07,-16.2925,-3.185
734,9696972,0.90951,0.058682000000000005,-0.12529400000000002,7.175,-16.065,-4.1825
735,9697070,0.91927,0.06124401,-0.12017,6.7025,-15.645,-5.25
736,9697168,0.925736,0.06356201,-0.116876,5.985,-15.12,-6.16
737,9697266,0.930982,0.06490399999999999,-0.112606,5.3725,-14.6825,-6.7725
738,9697364,0.93879,0.079666,-0.10736,4.5325,-13.8075,-7.175
739,9697462,0.95099,0.10052799999999999,-0.10126,3.885,-12.355,-7.21
740,9697560,0.97173,0.124074,-0.092964,4.165,-10.3075,-6.72
741,9697657,0.9989360999999999,0.15201199999999998,-0.09516001,5.5825,-8.3125,-6.3525
742,9697755,1.047004,0.164822,-0.08784,8.295,-6.4925,-6.2475
743,9697853,1.1041,0.190686,-0.054778,11.1125,-2.5375,-5.5125
744,9697951,1.1476540000000002,0.23582600000000004,-0.001586,12.88,2.1,-4.0425
745,9698049,1.18279,0.263886,0.049898000000000005,15.05,4.8475,-2.1525
746,9698147,1.204018,0.263764,0.070638,17.0975,5.775,0.63
747,9698245,1.342732,0.237168,-0.376004,20.2825,2.0125,2.1525
748,9698343,1.536712,0.111752,-0.5915779999999999,25.4975,-0.9975,-0.385
749,9698441,1.548546,-0.195688,-0.042944,25.795,28.455,-8.3475
750,9698539,1.5990540000000002,-0.405528,0.014152000000000001,21.0175,23.625,-17.5875
751,9698637,1.493524,-0.369904,-0.22277199999999997,8.89,-37.24,-30.8
752,9698734,1.248548,-0.326716,-0.319396,-6.51,-51.345,-38.255
753,9698832,1.125328,-0.122366,-0.386252,-22.96,-35.735,-34.4575
754,9698930,1.0711600000000001,-0.028182,-0.37746799999999997,-28.1925,-29.1725,-23.695
755,9699028,0.9850280999999999,0.057828,-0.390034,-27.2125,-32.2875,-15.8375
756,9699126,0.9139021,0.14762,-0.522648,-18.55,-31.7975,-14.2975
757,9699224,0.891942,0.198128,-0.721264,-10.535,-30.835,-18.34
758,9699322,0.8633940000000001,0.16909200000000002,-0.681614,-3.325,-20.8075,-27.6325
759,9699420,0.8458261,0.19154000000000002,-0.660874,0.455,-14.2975,-37.0125
760,9699518,0.7978801,0.19397999999999999,-0.601216,6.0725,-18.27,-39.83
761,9699616,0.8142281,0.148474,-0.573766,11.0075,-5.915,-38.5
762,9699713,0.9328120000000001,0.121878,-0.5753520000000001,5.915,14.42,-37.45
763,9699811,1.050176,0.06344,-0.5098381,2.7825,27.3,-35.175
764,9699909,1.114104,-0.00061,-0.45725600000000005,1.1025,27.8075,-31.0625
765,9700007,1.097024,-0.047580000000000004,-0.42761000000000005,-1.89,16.73,-26.1975
766,9700105,1.013942,-0.080154,-0.408456,-5.0225,1.9425,-20.5975
767,9700203,0.9331780000000001,-0.080276,-0.406138,-8.9075,-7.3325,-14.35
768,9700301,0.883768,-0.053314,-0.39284,-12.005,-10.5,-9.0825
769,9700399,0.874252,-0.005978,-0.380274,-13.7375,-11.8825,-5.6
770,9700497,0.8693719999999999,0.03538,-0.36587800000000004,-13.72,-13.5275,-3.3425
771,9700595,0.846558,0.06039,-0.3477,-12.8275,-14.7875,-0.735
772,9700693,0.8210601000000001,0.069784,-0.324764,-11.6375,-13.8425,2.03
773,9700790,0.796782,0.06344,-0.306098,-9.975,-11.515,4.69
774,9700888,0.773968,0.05160601,-0.287066,-7.1225,-9.3275,6.7725
775,9700986,0.750788,0.032451999999999995,-0.263154,-3.7625,-7.3325,7.63
776,9701084,0.7317560000000001,0.001586,-0.244732,-1.225,-6.58,6.5625
777,9701182,0.6986939999999999,-0.023180000000000003,-0.23058,0.245,-7.6825,5.145
778,9701280,0.671366,-0.039772,-0.23240999999999998,0.3325,-9.52,3.1325
779,9701378,0.6517241,-0.044896,-0.231434,0.5075,-9.485,2.24
780,9701476,0.643672,-0.03416,-0.22691999999999998,-0.2275,-5.81,2.94
781,9701574,0.6539201,-0.024034,-0.21411,-1.26,-0.175,4.515
782,9701672,0.673196,-0.02684,-0.18775799999999998,-1.715,5.4775,5.9325
783,9701770,0.698328,-0.024156,-0.162748,-2.9925,9.2575,6.44
784,9701867,0.7184581,-0.016225999999999997,-0.149084,-4.655,11.1825,5.6525
785,9701965,0.7306581,-0.022203999999999998,-0.125782,-5.25,10.8325,4.4975
786,9702063,0.7345619999999999,-0.024888,-0.114192,-5.6525,9.835,3.535
787,9702161,0.73627,-0.031354,-0.10004,-6.1775,7.9975,2.3275
788,9702259,0.7327321,-0.022813999999999997,-0.08918200000000001,-6.615,6.2125,0.9625
789,9702357,0.7422481,-0.009394,-0.07893401,-7.9975,6.0025,-1.6275
790,9702455,0.7489581,-0.002562,-0.06832001,-9.1875,6.8425,-4.3925
791,9702553,0.75335,0.000244,-0.07259,-9.835,7.0,-7.0875
792,9702651,0.7565221,-0.004392,-0.08332601,-10.0975,6.545,-8.9775
793,9702749,0.756034,-0.008174001,-0.10223600000000001,-10.64,7.1925,-10.78
794,9702846,0.769332,-0.009150001,-0.132736,-11.795,9.205,-12.81
795,9702944,0.8067861,-0.02501,-0.140544,-13.2825,14.3325,-15.505
796,9703042,0.8601,-0.03721,-0.133468,-15.225,20.79,-18.2
797,9703140,0.9214661,-0.022082,-0.12675799999999998,-17.3775,24.7625,-21.525
798,9703238,0.9917379999999999,0.0183,-0.12065799999999999,-18.5675,28.0525,-24.64
799,9703336,1.068476,0.07222401,-0.11394800000000001,-17.92,31.2375,-26.1275
800,9703434,1.132892,0.127002,-0.101016,-14.6125,32.69,-25.1825
801,9703532,1.17486,0.17202,-0.053070000000000006,-10.675,32.2875,-21.8925
802,9703630,1.2043840000000001,0.197762,0.016592,-8.3125,32.095,-17.255
803,9703728,1.2463520000000001,0.206058,0.091378,-8.2775,32.8475,-11.795
804,9703825,1.27368,0.18556199999999998,0.158966,-9.1175,32.795,-6.1425
805,9703923,1.355664,0.073688,-0.3111,-6.335,26.1975,-0.7
806,9704021,1.356396,-0.08479,-0.6980841,10.0975,10.8325,5.6875
807,9704119,1.38836,-0.059658,-0.30622,0.1925,28.0525,7.7525
808,9704217,1.645414,0.28926199999999996,-0.2562,-26.3725,53.0775,10.605
809,9704315,1.843176,0.6250060000000001,-0.438224,-15.8725,18.76,33.7225
810,9704413,1.552816,0.517768,-0.420534,18.305,-20.125,64.3825
811,9704511,1.189866,0.31537,-0.431026,30.0475,-41.79,77.0175
812,9704609,0.943426,0.094672,-0.7300479999999999,31.8325,-57.365,71.92501
813,9704707,0.804346,-0.214232,-0.8964561,44.17,-54.8625,62.4925
814,9704805,0.7865340000000001,-0.277916,-0.7044279999999999,30.8875,-7.9975,48.8775
815,9704902,1.03578,-0.192638,-0.662704,6.125,39.9175,37.7475
816,9705000,1.225734,-0.255346,-0.487512,5.775,43.925,38.045
817,9705098,1.339316,-0.260836,-0.460672,-7.315,35.63,38.85
818,9705196,1.35054,-0.18666,-0.50325,-15.8025,18.9525,36.505
819,9705294,1.298202,-0.05795,-0.459086,-15.1025,6.9125,29.9775
820,9705392,1.2591620000000001,0.10065,-0.421266,-15.365,9.0125,20.0375
821,9705490,1.18706,0.16348,-0.35392199999999996,-7.6125,4.9525,12.6175
822,9705588,1.039318,0.135054,-0.31537,1.2075,-11.55,6.65
823,9705686,0.9372040999999999,0.1098,-0.29829,4.6725,-28.4725,0.0875
824,9705784,0.868884,0.11712,-0.28023400000000004,5.495,-35.665,-7.0525
825,9705881,0.798002,0.132126,-0.26766799999999996,7.14,-38.15,-11.935
826,9705979,0.7241920000000001,0.127856,-0.25742,10.0975,-37.52,-13.5275
827,9706077,0.6755140000000001,0.13298,-0.240706,10.92,-31.605,-14.0
828,9706175,0.654774,0.141398,-0.220942,10.2725,-22.96,-14.5775
829,9706273,0.6250060000000001,0.13761600000000002,-0.188978,12.11,-18.375,-14.2625
830,9706371,0.5927979999999999,0.144204,-0.171166,13.825,-15.8025,-13.8075
831,9706469,0.5852341,0.12675799999999998,-0.13725,15.4875,-9.9925,-13.4225
832,9706567,0.59963,0.10833599999999999,-0.121146,14.945,-3.4475,-13.475
833,9706665,0.627568,0.08723001,-0.118828,13.685,0.3675,-13.93
834,9706763,0.659166,0.062952,-0.11626600000000001,12.25,1.9425,-13.545
835,9706861,0.67588,0.040504000000000005,-0.11394800000000001,11.0775,0.1925,-11.97
836,9706959,0.671854,0.019886,-0.102114,11.655,-4.235,-8.9075
837,9707056,0.660874,0.024034,-0.08674201,12.11,-7.7,-4.5675
838,9707154,0.654896,0.042089999999999995,-0.056608000000000006,12.145,-8.19,-1.6625
839,9707252,0.6600201,0.056608000000000006,-0.036233999999999995,12.3025,-7.455,0.245
840,9707350,0.669292,0.059902,-0.016592,12.81,-7.7525,1.295
841,9707448,0.665266,0.07856801,-0.010004,12.81,-8.715,0.2275
842,9707546,0.665632,0.10418800000000002,-0.04514,12.495,-9.9925,-1.365
843,9707644,0.666974,0.124928,-0.091378,14.8925,-10.255,-1.82
844,9707742,0.66856,0.158722,-0.100284,16.94,-6.7025,-2.03
845,9707840,0.680516,0.166652,-0.08417999999999999,19.635,-0.9625,-1.54
846,9707938,0.7095520000000001,0.134078,-0.08674201,26.5825,-0.1575,0.8575
847,9708036,0.7584741,0.069174,-0.084912,32.165,2.6075,3.8325
848,9708134,0.8361879999999999,0.002074,-0.09674601,32.8125,13.1075,5.7225
849,9708231,0.9186601000000001,-0.062341999999999995,-0.11431400000000001,31.2725,21.77,6.2475
850,9708329,1.021384,-0.137738,-0.066978,28.595,27.755,5.985
851,9708427,1.156194,-0.18873399999999999,0.009516001,19.775,34.1775,3.605
852,9708525,1.2761200000000001,-0.19959200000000002,0.09052401,5.6525,37.94,-0.35
853,9708623,1.32431,-0.199348,0.16958,-7.6475,37.4325,-4.165
854,9708721,1.286002,-0.189222,0.223016,-16.24,34.0725,-6.895
855,9708819,1.2159739999999999,-0.09711201,0.243756,-21.3325,29.54,-8.54
856,9708917,1.2343959999999998,0.033916,-0.152134,-17.9725,24.5875,-7.4025
857,9709015,1.373232,0.150792,-0.912438,-1.6275,10.4125,-3.9725
858,9709113,1.5020639999999998,0.022326,-0.183,14.07,38.045,-6.545
859,9709211,1.820972,-0.119926,-0.2074,9.8525,69.4925,-21.6825
860,9709308,2.120726,-0.41101800000000005,-0.457012,34.16,-13.5625,-42.49
861,9709406,1.6593220000000002,-0.641598,-0.537532,27.4575,-61.81,-75.53
862,9709504,1.277462,-0.496784,-0.60512,-17.85,-59.9375,-98.315
863,9709602,1.093486,-0.40516199999999997,-0.577304,-35.7875,-72.485,-101.255
864,9709700,0.9042641,-0.19337000000000001,-0.817278,-32.0775,-91.77,-91.2975
865,9709798,0.713212,0.114802,-0.8559521000000001,-45.08,-80.7625,-81.165
866,9709896,0.722362,0.25498000000000004,-0.70394,-53.375,-19.39,-70.3325
867,9709994,0.909632,0.369904,-0.609024,-47.7575,16.03,-58.8525
868,9710092,1.111298,0.5104479999999999,-0.454084,-33.0225,33.285,-44.94
869,9710190,1.2611139999999998,0.6082920999999999,-0.36087600000000003,-23.73,49.35,-31.5525
870,9710288,1.327604,0.49727200000000005,-0.326594,-12.5825,41.9475,-17.6575
871,9710385,1.210118,0.273524,-0.31232,-8.5925,18.06,-5.39
872,9710483,1.067988,0.08967,-0.29707,-8.5575,1.3475,3.675
873,9710581,0.9890540000000001,-0.02074,-0.249246,-8.1725,-1.8375,7.8575
874,9710679,0.9472079999999999,-0.081496,-0.21752600000000002,-7.5075,-6.7725,9.0475
875,9710777,0.9019459999999999,-0.127246,-0.219234,-8.015,-19.915,8.8375
876,9710875,0.8409459999999999,-0.167384,-0.21228000000000002,-7.8925,-34.5625,7.945
877,9710973,0.785558,-0.185928,-0.200446,-9.4325,-43.9425,5.845
878,9711071,0.736758,-0.180072,-0.188246,-13.3,-45.255,3.115
879,9711169,0.684054,-0.152622,-0.190564,-17.22,-42.7525,1.365
880,9711267,0.626958,-0.124074,-0.18727,-19.53,-39.935,0.175
881,9711365,0.576572,-0.09150001,-0.178852,-21.0,-35.0525,-0.6825
882,9711463,0.548146,-0.063928,-0.16652999999999998,-22.5225,-26.7925,-1.47
883,9711560,0.558882,-0.040260000000000004,-0.150792,-23.73,-15.8025,-0.9975
884,9711658,0.61549,-0.008784,-0.137982,-24.745,-4.06,0.42
885,9711756,0.668072,0.023912,-0.134932,-24.85,4.8125,2.2225
886,9711854,0.690154,0.038918,-0.11394800000000001,-22.6975,6.44,2.94
887,9711952,0.6944241,0.053801999999999996,-0.09162200000000001,-20.51,4.165,2.485
888,9712050,0.71004,0.06124401,-0.07344400000000001,-19.1625,2.275,0.77
889,9712148,0.732366,0.061610000000000005,-0.041236,-18.2175,0.875,-1.2075
890,9712246,0.7506659999999999,0.045506,-0.010858,-17.7975,-1.96,-2.1525
891,9712344,0.75884,0.020984,-0.010004,-17.9375,-9.1175,-2.1525
892,9712442,0.74725,-0.022936,-0.017934000000000002,-18.4975,-17.08,-1.995
893,9712539,0.726266,-0.06112201,-0.034648000000000005,-20.195,-20.3,-2.7125
894,9712637,0.7104060000000001,-0.104066,-0.052948,-21.5075,-20.2125,-4.8825
895,9712735,0.6993041,-0.124074,-0.056608000000000006,-22.47,-15.89,-8.015
896,9712833,0.69967,-0.108702,-0.089792,-24.85,-11.1125,-11.69
897,9712931,0.7137001000000001,-0.077836,-0.135542,-25.515,-7.3675,-15.33
898,9713029,0.749812,-0.006954000000000001,-0.161162,-27.86,-0.7525,-18.4975
899,9713127,0.81679,0.09320801,-0.173728,-32.2,8.225,-21.2275
900,9713225,0.907192,0.17873,-0.165798,-33.46,15.925,-22.645
901,9713323,1.029558,0.242902,-0.143594,-30.2575,21.7525,-22.855
902,9713420,1.1568040000000002,0.280844,-0.09711201,-23.24,27.4225,-21.665
903,9713518,1.263066,0.300852,-0.010736,-14.175,31.6925,-18.935
904,9713616,1.317356,0.318786,0.08637601,-6.51,32.8125,-13.965
905,9713714,1.3296780000000001,0.317688,0.17946199999999998,-2.9225,29.5925,-7.35
906,9713812,1.310158,0.24351199999999998,0.160918,-2.45,21.4025,-0.3325
907,9713910,1.424228,0.062586,-0.564372,6.16,3.7975,5.7575
908,9714008,1.3388280000000001,-0.045506,-0.418338,19.7925,-8.0675,10.64
909,9714106,1.41703,0.139568,0.05160601,-10.4475,33.04,8.68
910,9714204,1.6898220000000002,0.582184,-0.28304,-30.9925,31.71,17.885
911,9714301,1.7109279999999998,0.567666,-0.465186,8.645,-28.665,52.7625
912,9714399,1.4715639999999999,0.469822,-0.38552,29.855,-39.515,73.5875
913,9714497,1.225978,0.452376,-0.447618,18.515,-40.6525,76.51
914,9714595,1.0054020000000001,0.141398,-0.7956840999999999,39.69,-64.5925,79.2575
915,9714693,0.7659161,-0.168848,-0.748104,56.5775,-64.0675,74.25251
916,9714791,0.777628,-0.19825,-0.6039,33.74,-5.04,58.6425
917,9714889,1.00223,-0.21862399999999999,-0.5757180000000001,19.25,35.7875,48.405
918,9714987,1.136064,-0.34281999999999996,-0.41248199999999996,15.645,39.9875,45.9375
919,9715085,1.251842,-0.367952,-0.41663,-0.98,32.585,41.1425
920,9715182,1.307596,-0.3233,-0.458232,-6.545,17.535,33.8275
921,9715280,1.297592,-0.17812,-0.407968,-11.585,13.825,23.2925
922,9715378,1.24501,0.023058000000000002,-0.319152,-15.855,17.605,13.02
923,9715476,1.164734,0.139202,-0.238144,-9.9925,6.9125,7.77
924,9715574,1.047492,0.15823399999999999,-0.23838800000000002,-1.61,-15.435,3.1675
925,9715672,0.9463540000000001,0.14713199999999999,-0.249612,4.0425,-38.08,-3.2025
926,9715770,0.8475341000000001,0.16909200000000002,-0.255468,5.9325,-51.8875,-10.255
927,9715868,0.742858,0.198006,-0.261324,8.12,-57.68,-14.35
928,9715966,0.644404,0.21716,-0.261324,11.27,-55.895,-14.9275
929,9716063,0.58804,0.20788800000000002,-0.251442,13.09,-47.0225,-14.385
930,9716161,0.554246,0.190686,-0.24851399999999998,14.735,-36.6975,-13.93
931,9716259,0.5267960999999999,0.16714,-0.233752,17.4475,-28.1575,-13.1075
932,9716357,0.512034,0.14213,-0.202154,20.86,-19.0225,-12.495
933,9716455,0.5296021,0.132736,-0.166164,21.91,-7.9625,-12.7225
934,9716553,0.59231,0.116998,-0.13969,21.0525,2.0125,-13.23
935,9716651,0.6664859999999999,0.09882,-0.11724200000000001,20.44,8.0325,-13.6325
936,9716749,0.7259001,0.07869,-0.110776,18.5675,8.5575,-13.3
937,9716847,0.7422481,0.038674,-0.090768,18.2875,2.695,-11.76
938,9716945,0.7278521,0.010126000000000001,-0.07856801,17.8675,-6.8775,-9.31
939,9717042,0.7016220000000001,0.006222,-0.054778,17.3075,-14.2625,-6.0375
940,9717140,0.679662,0.020862000000000002,-0.019886,16.3975,-16.8,-2.6775
941,9717238,0.6706340000000001,0.055510000000000004,-0.010126000000000001,15.2075,-16.3975,0.2275
942,9717336,0.670878,0.08576601,-0.02196,15.5225,-16.485,1.89
943,9717434,0.6661201,0.11834000000000001,-0.051484,16.8875,-16.5375,2.8525
944,9717532,0.660996,0.149328,-0.078446,19.67,-14.5425,3.3775
945,9717630,0.649284,0.184098,-0.068076,22.9775,-10.36,3.7975
946,9717728,0.657458,0.179828,-0.07625,27.8075,-6.615,4.97
947,9717826,0.66673,0.12675799999999998,-0.10430999999999999,35.805,-6.195,7.8575
948,9717923,0.70943,0.058803999999999995,-0.103334,41.335,0.0875,10.85
949,9718021,0.78385,0.002074,-0.08771799999999999,41.335,15.2075,12.0225
950,9718119,0.8760819999999999,-0.064172,-0.052948,38.8325,27.3875,12.46
951,9718217,1.003572,-0.15018199999999998,-0.003172,33.565,34.4225,12.3725
952,9718315,1.1631479999999998,-0.229604,0.07112601,22.4175,42.8575,9.0825
953,9718413,1.2900280000000002,-0.290848,0.170312,6.79,48.72,2.485
954,9718511,1.313818,-0.352702,0.260714,-7.77,46.585,-5.0925
955,9718609,1.218658,-0.33733,0.321836,-18.9175,36.4,-11.4975
956,9718707,1.1392360000000001,-0.17812,0.131638,-27.2825,24.815,-16.695
957,9718804,1.293444,0.06380599999999999,-0.838018,-23.3275,10.36,-18.41
958,9718902,1.341512,-0.006222,-0.417484,-6.6675,26.8625,-18.865
959,9719000,1.653588,-0.07991000000000001,-0.034648000000000005,-10.7975,90.3875,-30.3975
960,9719098,2.0611900000000003,-0.22204000000000002,-0.362462,-0.1575,27.545,-46.3575
961,9719196,1.8707479999999999,-0.43346599999999996,-0.49532,26.8275,-64.0675,-73.99
962,9719294,1.339804,-0.40211199999999997,-0.684786,-9.5725,-73.7975,-102.3225
963,9719392,1.137528,-0.404552,-0.6170760000000001,-25.8125,-80.5,-107.5725
964,9719490,1.025166,-0.291824,-0.745542,-16.6425,-86.24,-103.005
965,9719588,0.885842,0.041358,-0.8960899999999999,-31.2375,-81.48001,-96.1275
966,9719686,0.8346021,0.160308,-0.677954,-44.1525,-28.9275,-84.08751
967,9719783,1.029558,0.30317,-0.6653880999999999,-51.205,15.155,-71.225
968,9719881,1.192184,0.45811,-0.503372,-42.1575,28.8225,-56.105
969,9719979,1.236104,0.5514399999999999,-0.369904,-31.5175,41.2825,-37.8175
970,9720077,1.279414,0.49153800000000003,-0.35087199999999996,-22.085,38.535,-21.3675
971,9720175,1.2256120000000001,0.32866799999999996,-0.31585799999999997,-18.1475,24.7975,-8.12
972,9720273,1.158634,0.168238,-0.285236,-15.225,13.5625,2.4675
973,9720371,1.089948,0.048312,-0.233386,-9.5025,4.1475,8.855
974,9720469,0.9889319999999999,-0.03355,-0.18971,-6.055,-8.0325,10.8675
975,9720567,0.9151219999999999,-0.09991799999999999,-0.19178399999999998,-4.13,-24.92,10.4125
976,9720664,0.8601,-0.14884,-0.196298,-2.7475,-38.5,8.68
977,9720762,0.815326,-0.181902,-0.183,-3.745,-44.5025,5.1975
978,9720860,0.769332,-0.177754,-0.17324,-8.1025,-44.17,1.1725
979,9720958,0.72956,-0.163358,-0.15677,-12.215,-41.2125,-2.3625
980,9721056,0.676002,-0.12993,-0.1525,-14.7875,-39.1825,-4.7075
981,9721154,0.6161,-0.08906,-0.152256,-15.2775,-37.345,-6.7025
982,9721252,0.5843801,-0.054046000000000004,-0.141276,-14.2975,-32.095,-8.3125
983,9721350,0.597434,-0.0008540001,-0.13602999999999998,-14.385,-21.805,-7.945
984,9721448,0.642818,0.052216,-0.133956,-14.6475,-11.375,-5.7225
985,9721546,0.6646561,0.08893801,-0.109678,-13.265,-6.2825,-3.2375
986,9721644,0.654408,0.107482,-0.082228,-12.1975,-6.8425,-2.625
987,9721741,0.63745,0.11333800000000001,-0.08454600000000001,-11.795,-9.6075,-3.885
988,9721839,0.6422081000000001,0.107482,-0.068076,-11.5675,-8.925,-5.915
989,9721937,0.66185,0.08454600000000001,-0.03538,-12.005,-3.43,-7.525
990,9722035,0.7027201,0.047824,-0.021472,-11.41,-2.275,-7.35
991,9722133,0.726266,-0.008052001,-0.027694,-11.4275,-6.5625,-5.565
992,9722231,0.7260220000000001,-0.069052,-0.02806,-13.895,-9.625,-3.7275
993,9722329,0.717482,-0.12932000000000002,-0.039406000000000004,-18.6375,-9.345,-2.8875
994,9722427,0.7077220000000001,-0.17934,-0.013175999999999998,-23.6075,-6.7375,-3.8675
995,9722525,0.6985720999999999,-0.187636,-0.015493999999999999,-29.0325,-3.2375,-6.055
996,9722622,0.7034521,-0.16835999999999998,-0.040748,-31.4825,-1.82,-8.4525
997,9722720,0.726876,-0.105774,-0.066978,-32.9175,1.0325,-10.08
998,9722818,0.774456,-0.016958,-0.10223600000000001,-35.14,5.1275,-11.1125
999,9722916,0.834968,0.09040201,-0.126636,-35.315,9.52,-11.025
1000,9723014,0.93391,0.188612,-0.11577799999999999,-32.69,19.145,-10.43
1001,9723112,1.062498,0.270108,-0.053314,-27.2475,31.9025,-9.835
1002,9723210,1.203774,0.342088,0.009516001,-20.2475,40.425,-9.275
1003,9723308,1.3052780000000002,0.386984,0.08466801,-10.2025,42.665,-7.665
1004,9723406,1.349564,0.406504,0.153232,-2.24,39.7075,-4.69
1005,9723504,1.342732,0.349774,0.161894,3.43,31.955,0.4025
1006,9723601,1.446676,0.167018,-0.467992,14.91,15.1375,7.245
1007,9723699,1.434598,0.05770599999999999,-0.523014,32.2875,-1.155,14.1575
1008,9723797,1.4299620000000002,0.194102,0.019154,7.2625,32.9,14.5775
1009,9723895,1.61772,0.678076,-0.21215799999999999,-17.675,43.7675,20.195
1010,9723993,1.669448,0.6734399999999999,-0.48861000000000004,13.125,-13.3,52.22
1011,9724091,1.49328,0.406382,-0.356606,46.2875,-35.7,78.27750999999999
1012,9724189,1.322236,0.49556400000000006,-0.368318,31.99,-37.0825,78.575
1013,9724287,1.173152,0.279746,-0.69235,39.3225,-60.2525,79.7125
1014,9724385,0.930494,-0.163968,-0.684054,68.4775,-67.9525,80.5875
1015,9724483,0.8250860000000001,-0.30402399999999996,-0.528504,52.325,-18.025,65.8
1016,9724580,0.9977159999999999,-0.373564,-0.562664,34.1425,21.0525,50.8025
1017,9724678,1.104222,-0.533872,-0.430782,32.9525,26.18,45.3775
1018,9724776,1.196942,-0.557052,-0.399428,9.6775,27.6675,37.555
1019,9724874,1.24806,-0.487146,-0.43066000000000004,-1.5925,12.915,30.3975
1020,9724972,1.22305,-0.31317399999999995,-0.406504,-10.3075,2.8875,22.295
1021,9725070,1.212192,-0.073688,-0.341356,-21.5075,9.905,13.4925
1022,9725168,1.202798,0.117974,-0.226066,-21.4375,10.85,9.0475
1023,9725266,1.1209360000000002,0.216306,-0.185684,-15.3475,-5.4425,6.755
1024,9725364,1.00223,0.23753400000000002,-0.20508200000000001,-7.14,-31.185,2.5375
1025,9725462,0.8913321,0.242292,-0.21472,-1.4525,-50.89,-3.3075
1026,9725559,0.7926340000000001,0.253272,-0.222894,2.275,-59.0275,-8.6625
1027,9725657,0.696498,0.243878,-0.221796,8.785,-58.905,-11.0075
1028,9725755,0.6219561,0.22252800000000003,-0.23546,13.755,-52.8325,-11.3225
1029,9725853,0.571082,0.180072,-0.240218,16.7475,-43.4525,-11.06
1030,9725951,0.521306,0.156404,-0.23228800000000002,18.025,-34.3525,-11.025
1031,9726049,0.508984,0.115656,-0.20801,19.32,-26.39,-11.235
1032,9726147,0.5098381,0.10504200000000001,-0.160918,19.95,-16.8875,-11.375
1033,9726245,0.547658,0.11285,-0.13944600000000001,17.395,-8.645,-12.8275
1034,9726343,0.6028020000000001,0.079056,-0.12431800000000001,18.3575,-3.29,-13.1775
1035,9726441,0.66856,0.037942000000000004,-0.129076,17.325,-0.2275,-13.8075
1036,9726538,0.7129681,0.015982,-0.124806,13.5975,-0.35,-13.8775
1037,9726636,0.7284619999999999,-0.011590000000000001,-0.11650999999999999,10.6575,-4.4275,-12.3375
1038,9726734,0.718092,-0.027327999999999998,-0.098576,9.3975,-9.45,-8.8725
1039,9726832,0.708576,-0.019642,-0.068686,7.875,-10.7275,-5.145
1040,9726930,0.699182,-0.000244,-0.014274,6.6675,-8.155,-1.645
1041,9727028,0.702232,0.047945999999999996,0.00122,4.83,-6.6675,0.7
1042,9727126,0.705282,0.09235399999999999,-0.018788,4.8825,-8.47,1.96
1043,9727224,0.702964,0.1342,-0.037576,7.21,-9.5725,2.625
1044,9727322,0.693082,0.190686,-0.023302,9.24,-6.44,2.5025
1045,9727420,0.70028,0.21472,-0.039284,12.355,-3.5875,2.6075
1046,9727518,0.7117479999999999,0.186782,-0.0793,20.125,-5.425,4.8825
1047,9727615,0.743834,0.126636,-0.094916,25.305,-2.3275,7.3675
1048,9727714,0.818376,0.06819800000000001,-0.085156,25.97,10.22,8.6625
1049,9727811,0.897432,0.001464,-0.074542,25.445,21.3325,10.01
1050,9727909,0.9933241,-0.089304,-0.054778,22.6625,26.5825,11.0075
1051,9728007,1.109956,-0.178608,0.01708,14.665,30.6775,9.9925
1052,9728105,1.232688,-0.252296,0.111996,-0.7,36.1025,5.145
1053,9728203,1.288686,-0.320128,0.21166999999999997,-17.29,38.43,-1.54
1054,9728301,1.2456200000000002,-0.32561799999999996,0.28181999999999996,-30.66,36.33,-8.085
1055,9728399,1.155462,-0.20288599999999998,0.322446,-39.7775,29.855,-14.1575
1056,9728497,1.206092,0.027816000000000004,-0.29438600000000004,-39.4625,18.655,-17.1325
1057,9728594,1.2634319999999999,0.155672,-0.9143899999999999,-23.7475,4.935,-16.38
1058,9728692,1.436184,0.06832001,-0.05453401,-8.4,54.81,-20.0375
1059,9728790,1.817434,0.00122,-0.191906,-16.7475,75.705,-35.875
1060,9728888,2.043744,-0.27328,-0.42285200000000006,23.9925,-27.4575,-55.58
1061,9728986,1.552816,-0.417484,-0.5941401,19.8625,-70.3325,-87.5175
1062,9729084,1.231834,-0.38966799999999996,-0.643184,-17.7625,-67.655,-104.5625
1063,9729182,1.094706,-0.36295,-0.531188,-18.3925,-77.3675,-105.525
1064,9729280,0.9450120000000001,-0.09882,-0.7865340000000001,-19.4075,-86.94,-100.0125
1065,9729378,0.7928781,0.142984,-0.780434,-33.8625,-69.475,-89.6875
1066,9729476,0.8543661,0.176534,-0.598532,-43.9075,-6.51,-75.8275
1067,9729573,1.107394,0.27023,-0.559858,-45.99,25.865,-64.0675
1068,9729671,1.2167059999999998,0.37637,-0.36966,-35.5775,38.15,-49.4725
1069,9729769,1.237568,0.44896,-0.280356,-31.255,46.7075,-34.09
1070,9729867,1.249036,0.363316,-0.266326,-26.6525,33.9675,-18.48
1071,9729965,1.174372,0.217648,-0.229116,-26.075,13.5975,-4.3225
1072,9730063,1.108614,0.10919000000000001,-0.219356,-23.4325,2.205,5.8275
1073,9730161,1.024068,0.015616,-0.188978,-17.7975,-5.075,10.3425
1074,9730259,0.9409860999999999,-0.060024,-0.18251199999999998,-15.19,-15.9425,10.85
1075,9730357,0.8820601,-0.12322000000000001,-0.19093,-14.7175,-28.0525,10.0975
1076,9730454,0.8344801,-0.171654,-0.179096,-14.3325,-36.645,8.5225
1077,9730552,0.794586,-0.1952,-0.16165,-17.1325,-40.67,5.74
1078,9730650,0.75274,-0.2013,-0.153476,-20.93,-41.7375,3.15
1079,9730748,0.70333,-0.182024,-0.15945399999999998,-24.5525,-42.0525,0.6825
1080,9730846,0.631228,-0.174094,-0.153232,-26.67,-41.2825,-1.3475
1081,9730944,0.5669341,-0.143228,-0.155184,-29.19,-38.2025,-2.4325
1082,9731042,0.549244,-0.09162200000000001,-0.15506199999999998,-32.41,-29.9775,-2.8875
1083,9731140,0.593896,-0.034038,-0.148596,-34.0725,-16.835,-2.45
1084,9731238,0.655994,0.022326,-0.14518,-34.79,-4.5325,-0.3325
1085,9731335,0.699182,0.049776,-0.11919400000000001,-32.9,0.245,0.525
1086,9731433,0.715774,0.08235001,-0.07600599999999999,-32.8125,-0.42,-0.2275
1087,9731531,0.7187020000000001,0.104066,-0.046482,-33.25,-2.1525,-2.73
1088,9731629,0.720654,0.121146,-0.013786000000000001,-32.0775,-4.97,-4.515
1089,9731727,0.73078,0.1098,0.006954000000000001,-30.73,-7.1575,-5.0575
1090,9731825,0.7448100999999999,0.07747001,0.017202000000000002,-28.385,-11.7425,-3.2725
1091,9731923,0.739686,0.03538,-0.001342,-28.3325,-17.71,-0.8400001
1092,9732021,0.729072,-0.017446,-0.11614400000000001,-29.225,-22.19,0.6475
1093,9732118,0.68747,-0.068564,-0.054167999999999994,-29.6275,-22.1375,0.2975
1094,9732216,0.676002,-0.043676,-0.017324000000000003,-36.785,-13.3,-2.835
1095,9732314,0.683566,-0.05209400000000001,-0.083814,-36.6275,-10.885,-5.845
1096,9732412,0.6877141,-0.050508,-0.102602,-32.48,-10.325,-7.4375
1097,9732510,0.73017,0.008540001,-0.11333800000000001,-33.6525,-0.49,-9.3625
1098,9732608,0.7850699999999999,0.082106,-0.13908,-34.0025,8.435,-10.6925
1099,9732706,0.885476,0.15506199999999998,-0.15237799999999999,-32.2175,15.785,-11.2875
1100,9732804,1.0243120000000001,0.22326,-0.09455001,-29.3475,28.245,-11.5675
1101,9732902,1.1747379999999998,0.287188,-0.006954000000000001,-24.71,40.5475,-11.0775
1102,9732999,1.300154,0.32391,0.089426,-17.1325,47.3025,-9.1
1103,9733097,1.374574,0.354166,0.176534,-10.15,46.8825,-5.495
1104,9733195,1.38592,0.350018,0.233264,-5.5125,37.7825,-1.0675
1105,9733293,1.471442,0.229726,-0.305122,2.975,18.62,3.8325
1106,9733391,1.458388,0.09259801,-0.6292760000000001,23.73,-6.0025,9.6075
1107,9733489,1.375062,0.14798599999999998,0.053801999999999996,12.3375,16.8875,9.2575
1108,9733587,1.5859999999999999,0.5662020999999999,-0.08369201,-21.9275,43.295,8.7325
1109,9733685,1.719712,0.652212,-0.415166,2.6075,-13.055,37.6425
1110,9733783,1.499746,0.452376,-0.349652,38.255,-46.165,67.4275
1111,9733880,1.276242,0.48678,-0.3416,28.28,-40.215,71.7325
1112,9733978,1.057008,0.337818,-0.52582,30.5725,-55.125,73.5
1113,9734076,0.856684,-0.022813999999999997,-0.7911701,55.9125,-70.7175,75.81
1114,9734174,0.73444,-0.213378,-0.59902,55.8075,-34.8075,67.2
1115,9734272,0.9113399999999999,-0.19032000000000002,-0.568886,29.155,23.2925,51.9225
1116,9734370,1.091046,-0.304146,-0.45383999999999997,27.58,37.9225,46.8475
1117,9734468,1.2078,-0.413336,-0.336598,15.1375,38.3425,43.085
1118,9734566,1.328824,-0.41785,-0.36441399999999996,1.015,29.015,36.5225
1119,9734664,1.3444399999999999,-0.321104,-0.363926,-3.3075,15.4175,27.545
1120,9734762,1.316258,-0.11870599999999999,-0.316834,-9.8525,12.7575,15.8025
1121,9734859,1.280268,0.07112601,-0.22789600000000002,-10.2025,12.46,7.14
1122,9734957,1.16693,0.180194,-0.17433800000000002,-5.32,-1.575,2.0825
1123,9735055,1.0340719999999999,0.20496,-0.185074,1.2075,-27.7375,-2.6075
1124,9735153,0.9254921,0.21716,-0.21655,5.95,-48.9475,-7.84
1125,9735251,0.825574,0.246806,-0.247538,8.75,-58.0825,-12.425
1126,9735349,0.7394421,0.255834,-0.256688,14.35,-57.8725,-14.7175
1127,9735447,0.671854,0.257298,-0.258762,19.04,-51.345,-15.505
1128,9735545,0.629642,0.25071,-0.238754,21.98,-41.0375,-15.26
1129,9735643,0.595604,0.24644000000000002,-0.20556999999999997,25.095,-31.8325,-14.63
1130,9735740,0.571936,0.23802199999999998,-0.17324,28.5425,-25.7075,-13.6675
1131,9735838,0.568276,0.22045399999999998,-0.141276,32.41,-21.14,-12.81
1132,9735936,0.587796,0.184098,-0.12212200000000001,35.77,-16.0125,-13.09
1133,9736034,0.639524,0.151158,-0.11053199999999999,37.0825,-8.75,-14.07
1134,9736132,0.6946681,0.127856,-0.103578,36.575,-3.885,-15.3475
1135,9736230,0.7284619999999999,0.077958,-0.090036,36.9425,-4.1125,-15.5225
1136,9736328,0.727364,0.037454,-0.07710399999999999,36.9775,-9.6075,-13.7025
1137,9736426,0.7088201,0.01769,-0.05063,36.3475,-16.8,-10.64
1138,9736524,0.6883239999999999,-0.010614,-0.022203999999999998,35.945,-21.385,-6.685
1139,9736621,0.6653880999999999,-0.016714,0.002684,35.665,-22.995,-3.2375
1140,9736719,0.645502,0.010248,-0.019642,33.11,-22.6625,-1.9075
1141,9736817,0.638304,0.02684,-0.050386,33.1625,-21.9975,-1.2775
1142,9736915,0.626104,0.05819401,-0.08808401,33.95,-18.935,-1.0675
1143,9737013,0.619272,0.110654,-0.084912,34.1425,-12.775,-1.3825
1144,9737111,0.627812,0.10650599999999999,-0.036356,37.0475,-6.5975,-1.05
1145,9737209,0.657092,0.07527400000000001,-0.048922,43.0675,-6.125,0.9975
1146,9737307,0.7004020000000001,0.025131999999999998,-0.06600201,46.5325,-2.1,3.0275
1147,9737405,0.7692101,-0.034892,-0.083814,46.7425,11.2175,3.43
1148,9737503,0.83936,-0.118096,-0.094916,45.3775,22.085,2.485
1149,9737600,0.9486720999999999,-0.203374,-0.045627999999999995,40.2325,29.9425,0.98
1150,9737698,1.089948,-0.253394,0.049044,25.4625,39.585,-2.625
1151,9737796,1.2136559999999998,-0.282674,0.162626,7.245,45.57,-7.0525
1152,9737894,1.251842,-0.30256,0.260836,-7.8925,46.2,-10.85
1153,9737992,1.18706,-0.264374,0.32879,-18.025,41.9825,-12.9675
1154,9738090,1.20536,-0.08564401,-0.149816,-21.6825,34.195,-14.07
1155,9738188,1.2872219999999999,0.043798000000000004,-0.7707961,-11.8475,23.8875,-13.195
1156,9738286,1.511336,-0.052216,-0.089426,1.61,65.275,-15.4525
1157,9738384,1.9132040000000001,-0.12065799999999999,-0.114436,-7.7525,91.0175,-28.5775
1158,9738482,2.206248,-0.316224,-0.343674,21.35,5.7925,-45.3075
1159,9738579,1.735328,-0.42212,-0.47689799999999993,18.1475,-51.9225,-73.325
1160,9738677,1.339804,-0.36941599999999997,-0.41894799999999993,-12.9325,-60.2175,-87.95501
1161,9738775,1.19194,-0.34892,-0.555954,-25.025,-72.905,-90.14251
1162,9738873,1.00528,-0.201178,-0.764208,-19.145,-97.685,-85.505
1163,9738971,0.809348,-0.007320001,-0.7078439999999999,-34.3525,-74.0775,-82.3025
1164,9739069,0.8249639999999999,0.134078,-0.683932,-52.36,-17.43,-77.9275
1165,9739167,0.9850280999999999,0.265472,-0.598166,-48.755,6.265,-69.3875
1166,9739265,1.11874,0.420412,-0.446642,-37.5725,25.305,-58.3975
1167,9739363,1.229638,0.5463161,-0.376736,-29.2425,38.325,-44.835
1168,9739461,1.274656,0.5056901,-0.31646799999999997,-18.1825,33.04,-28.84
1169,9739558,1.219634,0.36478,-0.2806,-13.2825,17.045,-13.6675
1170,9739656,1.146678,0.203008,-0.225456,-9.1,5.915,-1.2775
1171,9739754,1.063962,0.06892999999999999,-0.185928,-7.8575,0.98,5.565
1172,9739852,0.977342,-0.041236,-0.16409,-6.3175,-9.905,8.68
1173,9739950,0.901702,-0.12505,-0.1647,-4.76,-24.745,10.36
1174,9740048,0.839482,-0.17238599999999998,-0.16811600000000002,-4.3925,-36.5225,11.2
1175,9740146,0.79666,-0.198372,-0.16909200000000002,-5.88,-43.3825,10.9025
1176,9740244,0.7567659999999999,-0.211304,-0.163968,-9.8,-43.89,9.6075
1177,9740342,0.709796,-0.211182,-0.150304,-14.8575,-41.1075,7.525
1178,9740440,0.6563601,-0.194468,-0.14188599999999998,-19.3025,-39.8125,5.53
1179,9740538,0.5915779999999999,-0.192028,-0.133712,-22.0675,-39.27,2.8875
1180,9740635,0.5404601,-0.164578,-0.134932,-24.7975,-36.1025,0.0525
1181,9740733,0.534848,-0.12017,-0.14274,-28.0875,-27.545,-1.75
1182,9740831,0.5915779999999999,-0.067344,-0.142618,-30.1,-13.79,-1.75
1183,9740929,0.670512,-0.019275999999999998,-0.130906,-31.5525,-0.6125,-0.5775
1184,9741027,0.724436,0.02074,-0.09516001,-31.8325,5.25,0.175
1185,9741125,0.7470060000000001,0.050263999999999996,-0.058803999999999995,-31.4825,3.36,-0.7525
1186,9741223,0.746518,0.063928,-0.01403,-31.22,-1.365,-3.22
1187,9741321,0.744688,0.069784,0.018788,-31.6575,-4.9875,-6.0375
1188,9741419,0.741272,0.06270801,0.024644,-31.9725,-9.38,-7.98
1189,9741516,0.739808,0.03599,0.023668,-31.29,-15.5225,-8.1725
1190,9741614,0.721996,0.008784,0.011590000000000001,-31.7625,-19.705,-6.8425
1191,9741712,0.7126020000000001,-0.019642,-0.037576,-33.53,-20.965,-6.685
1192,9741810,0.69967,-0.041602,-0.042578,-34.44,-18.305,-7.5075
1193,9741908,0.694912,-0.036233999999999995,-0.062464,-36.82,-12.5825,-9.3975
1194,9742006,0.7076001000000001,-0.020252000000000003,-0.10504200000000001,-37.1175,-8.2775,-11.795
1195,9742104,0.727486,0.015616,-0.11834000000000001,-35.595,-3.9375,-13.7375
1196,9742202,0.768478,0.091012,-0.128832,-36.47,2.4325,-15.365
1197,9742300,0.8321620000000001,0.18751400000000001,-0.155306,-36.1375,7.665,-15.855
1198,9742397,0.9295180000000001,0.26718000000000003,-0.148596,-30.94,13.93,-14.6825
1199,9742495,1.057618,0.330986,-0.08845001,-23.1,25.305,-12.775
1200,9742593,1.190842,0.36636599999999997,0.016592,-13.72,37.0825,-10.15
1201,9742691,1.292224,0.382836,0.12980799999999998,-5.075,44.5375,-7.245
1202,9742789,1.348954,0.382836,0.20642399999999997,-1.0675,42.8225,-4.2875
1203,9742887,1.372012,0.29219,0.233996,3.5525,31.9025,0.175
1204,9742985,1.4945,0.08723001,-0.398208,11.7425,17.1675,4.515
1205,9743083,1.44326,-0.086864,-0.5997520000000001,28.1925,-2.4325,7.56
1206,9743181,1.3237,-0.030012,0.214354,7.4725,23.17,4.7075
1207,9743279,1.490108,0.42333999999999994,0.04404201,-28.665,39.2875,2.87
1208,9743376,1.606252,0.5056901,-0.36880599999999997,-1.61,-29.5925,31.08
1209,9743474,1.4428940000000001,0.303292,-0.3721,30.9225,-52.185,60.8825
1210,9743572,1.311988,0.40528400000000003,-0.380762,17.045,-28.875,65.8
1211,9743670,1.1211799999999998,0.340624,-0.6729520999999999,12.46,-39.8475,68.53
1212,9743768,0.8853540000000001,0.019764,-0.7904380999999999,41.16,-66.045,74.25251
1213,9743866,0.7628659999999999,-0.05246,-0.589016,39.515,-30.73,68.3025
1214,9743964,0.9620920000000001,-0.028548,-0.6097560000000001,18.7425,19.25,58.275
1215,9744062,1.102514,-0.19825,-0.50508,26.25,28.7175,58.205
1216,9744160,1.179984,-0.30561,-0.40016,11.795,32.9525,54.8625
1217,9744257,1.3022280000000002,-0.327692,-0.404796,-2.31,30.1175,47.145
1218,9744355,1.339926,-0.28731,-0.369904,-5.6,22.75,37.1
1219,9744453,1.31577,-0.124928,-0.313784,-11.2175,18.865,23.1175
1220,9744551,1.25538,0.034892,-0.23058,-8.715,11.06,12.425
1221,9744649,1.149728,0.142008,-0.192882,-2.5375,-5.6175,4.725
1222,9744747,1.0467600000000001,0.191418,-0.20776599999999998,2.6425,-24.64,-3.15
1223,9744845,0.9540401,0.21825799999999998,-0.22935999999999998,8.295,-40.3025,-11.0775
1224,9744943,0.8516819999999999,0.254858,-0.257786,13.195,-50.225,-17.3075
1225,9745041,0.7672581,0.279868,-0.26108000000000003,20.0025,-51.275,-20.23
1226,9745139,0.71248,0.298534,-0.255956,25.41,-44.1525,-21.0175
1227,9745237,0.679662,0.306586,-0.23448400000000003,29.715,-35.63,-20.405
1228,9745334,0.6423300999999999,0.31354,-0.214842,34.265,-29.89,-18.9525
1229,9745432,0.590724,0.275598,-0.1769,41.3,-27.475,-17.395
1230,9745530,0.5919439999999999,0.24656199999999998,-0.160186,46.515,-24.5875,-16.4675
1231,9745628,0.614758,0.20069,-0.14762,49.42,-15.715,-15.61
1232,9745726,0.677832,0.155184,-0.102358,50.8025,-6.7025,-15.1725
1233,9745824,0.728096,0.126026,-0.101138,49.21,-3.43,-15.9425
1234,9745922,0.744566,0.05429,-0.09028,50.4525,-6.7375,-16.2575
1235,9746020,0.7378560000000001,-0.00671,-0.089792,49.63,-12.7575,-15.2425
1236,9746118,0.72102,-0.034648000000000005,-0.08784,46.4275,-17.7625,-12.8275
1237,9746215,0.705038,-0.06124401,-0.0427,44.695,-19.8275,-9.73
1238,9746313,0.690886,-0.057584,-0.002928,42.0525,-19.67,-6.405
1239,9746411,0.674294,-0.039406000000000004,0.028426,39.9,-20.1425,-3.9025
1240,9746509,0.662948,-0.014274,0.01952,37.1525,-22.2075,-2.6775
1241,9746607,0.6573359999999999,0.010492,-0.012078,34.7375,-22.4175,-2.5375
1242,9746705,0.6469659999999999,0.05063,-0.03965,32.27,-17.71,-2.87
1243,9746803,0.6381821,0.073688,-0.033794,31.0625,-12.145,-2.7125
1244,9746901,0.63562,0.045506,-0.047580000000000004,34.4925,-11.1825,-0.77
1245,9746999,0.648308,-0.011834,-0.07137001,39.83,-10.2375,2.275
1246,9747097,0.69357,-0.08003201,-0.07039400000000001,41.125,1.1375,4.025
1247,9747194,0.766526,-0.167018,-0.06283,39.62,15.5225,4.6025
1248,9747292,0.8636379999999999,-0.286578,-0.08113001,35.525,21.98,4.41
1249,9747390,1.001986,-0.395524,-0.033184,24.1325,26.2325,1.5925
1250,9747488,1.1407,-0.43066000000000004,0.082716,1.575,33.775,-4.2875
1251,9747586,1.205116,-0.38808200000000004,0.179706,-22.1375,36.8375,-10.6225
1252,9747684,1.17303,-0.329888,0.24363400000000002,-37.345,35.91,-13.7725
1253,9747782,1.109102,-0.194346,0.28633400000000003,-44.905,35.42,-14.5425
1254,9747880,1.187182,0.057828,-0.27145,-44.8175,32.7775,-14.4725
1255,9747978,1.27124,0.22448,-0.7865340000000001,-27.8075,26.845,-11.48
1256,9748076,1.475834,0.22021,0.09638,-16.0475,76.265,-13.335
1257,9748173,1.836466,0.17238599999999998,-0.009516001,-22.225,94.29,-23.5375
1258,9748271,2.093398,-0.10614000000000001,-0.253394,27.3,-8.785,-37.275
1259,9748369,1.609302,-0.20996199999999998,-0.446154,21.1925,-47.0925,-66.6925
1260,9748467,1.346514,-0.15067,-0.517524,-11.1825,-41.09,-81.90001
1261,9748565,1.195234,-0.238632,-0.47213999999999995,-11.655,-55.195,-82.985
1262,9748663,1.049078,-0.261324,-0.6542859999999999,-1.96,-81.2,-80.3775
1263,9748761,0.8458261,-0.070638,-0.7556681,-16.0825,-75.4075,-79.695
1264,9748859,0.78263,0.045872,-0.621224,-37.8875,-18.8825,-77.595
1265,9748957,0.9456220999999999,0.163236,-0.580232,-39.69,12.145,-70.875
1266,9749055,1.08397,0.266326,-0.427122,-27.0025,20.58,-60.1125
1267,9749152,1.206336,0.393572,-0.365146,-20.8075,34.755,-47.2675
1268,9749250,1.305034,0.42004600000000003,-0.310246,-16.975,36.785,-33.18
1269,9749348,1.272826,0.31646799999999997,-0.26413000000000003,-13.9475,21.8225,-18.62
1270,9749446,1.17364,0.17738800000000002,-0.24436599999999997,-9.8525,3.4825,-6.02
1271,9749544,1.0798219999999998,0.07344400000000001,-0.234362,-6.79,-3.92,1.015
1272,9749642,1.010282,-0.011590000000000001,-0.213378,-5.18,-7.7875,4.4275
1273,9749740,0.9642879999999999,-0.08308201,-0.201422,-4.3225,-16.415,6.475
1274,9749838,0.9092661,-0.13725,-0.182146,-3.9375,-26.6,7.665
1275,9749936,0.85888,-0.18056,-0.163724,-4.83,-35.35,6.9475
1276,9750033,0.815326,-0.18422,-0.16201600000000002,-8.5225,-40.1975,5.075
1277,9750131,0.7645741,-0.15921,-0.16689600000000002,-13.79,-40.2325,2.94
1278,9750229,0.70943,-0.138104,-0.16689600000000002,-17.955,-38.885,2.2925
1279,9750327,0.647332,-0.119682,-0.166774,-20.8075,-36.4525,2.17
1280,9750425,0.607926,-0.094672,-0.169702,-24.1325,-31.08,1.225
1281,9750523,0.6117081,-0.060512,-0.160308,-26.0225,-21.4725,-0.105
1282,9750621,0.6767340000000001,-0.020862000000000002,-0.143228,-27.335,-9.3975,-0.595
1283,9750719,0.7517640999999999,0.016225999999999997,-0.12749000000000002,-26.8275,1.1025,-0.595
1284,9750817,0.78385,0.031598,-0.090768,-24.2725,3.85,-1.4
1285,9750914,0.778604,0.047824,-0.062464,-21.91,0.07,-3.43
1286,9751012,0.772748,0.06661201,-0.046116000000000004,-20.055,-5.3025,-6.37
1287,9751110,0.766892,0.079544,-0.009394,-19.3375,-7.805,-8.3475
1288,9751208,0.7659161,0.07246799999999999,0.015738,-19.635,-9.7825,-9.24
1289,9751306,0.761158,0.05185,0.029036000000000003,-20.58,-14.9625,-8.085
1290,9751404,0.738222,0.019398,0.019398,-22.925,-21.0525,-6.5275
1291,9751502,0.7047939999999999,-0.00488,-0.018056,-25.62,-24.6225,-6.02
1292,9751600,0.669658,-0.034038,-0.040748,-28.07,-23.6775,-6.685
1293,9751698,0.643794,-0.041358,-0.049898000000000005,-29.855,-17.5175,-8.015
1294,9751796,0.641232,-0.043188,-0.08357,-31.3775,-9.03,-10.01
1295,9751893,0.6653880999999999,-0.038551999999999996,-0.09552601,-29.05,-0.5775,-11.3925
1296,9751991,0.7129681,0.010614,-0.10052799999999999,-28.6825,6.195,-12.46
1297,9752089,0.777384,0.07722601,-0.11321600000000001,-27.2475,8.8025,-12.7925
1298,9752187,0.85705,0.149206,-0.12456199999999999,-23.3975,11.2525,-12.9325
1299,9752285,0.966606,0.20264200000000002,-0.087962,-19.1275,19.215,-13.2475
1300,9752383,1.084092,0.238144,-0.023180000000000003,-14.14,28.805,-13.72
1301,9752481,1.1934040000000001,0.260592,0.05612,-8.0675,35.315,-14.105
1302,9752579,1.265994,0.277916,0.12871,-3.08,38.045,-14.1225
1303,9752677,1.3055219999999998,0.258762,0.189222,0.21,35.4725,-12.8275
1304,9752774,1.303448,0.18971,0.240096,3.185,29.33,-9.625
1305,9752872,1.367742,0.053314,-0.196786,4.41,20.5625,-6.93
1306,9752970,1.373964,-0.111752,-0.6298861,16.765,2.31,-3.675
1307,9753068,1.243058,-0.079178,0.056974000000000004,4.48,14.9975,-3.185
1308,9753166,1.4396,0.292434,0.021594,-29.505,41.3875,-4.97
1309,9753264,1.65615,0.546682,-0.398818,-14.5425,-8.05,18.6375
1310,9753362,1.600274,0.46774799999999994,-0.388326,17.5,-32.865,49.98
1311,9753460,1.492304,0.553392,-0.391376,15.1025,-18.6375,61.25
1312,9753558,1.215242,0.48690200000000006,-0.513376,17.85,-38.955,68.11
1313,9753656,0.9378139999999999,0.149694,-0.7306581,41.7375,-74.1475,72.765
1314,9753753,0.767868,-0.027206,-0.623664,50.295,-57.1725,66.6925
1315,9753851,0.8773021000000001,-0.07076001,-0.547536,34.1425,1.47,53.865
1316,9753949,1.010648,-0.20788800000000002,-0.48702399999999996,32.97,24.4475,48.7375
1317,9754047,1.058106,-0.31232,-0.359656,23.1525,25.7775,44.905
1318,9754145,1.14436,-0.340746,-0.339404,5.4075,22.2075,37.0125
1319,9754243,1.2256120000000001,-0.316224,-0.371856,-0.3675,13.3525,28.7175
1320,9754341,1.24928,-0.17738800000000002,-0.343918,-5.6875,10.7625,17.3425
1321,9754439,1.242692,0.021106,-0.26352,-8.1025,14.5075,6.02
1322,9754537,1.2075559999999999,0.203252,-0.199104,-2.94,9.6425,-1.3825
1323,9754635,1.102026,0.295606,-0.212402,6.125,-9.275,-6.02
1324,9754732,0.993202,0.304634,-0.241194,17.15,-31.22,-10.15
1325,9754830,0.9021899999999999,0.309148,-0.271328,24.5875,-44.905,-15.3475
1326,9754928,0.81435,0.32513000000000003,-0.28767600000000004,31.255,-49.4375,-19.04
1327,9755026,0.7381001,0.327936,-0.27694,39.445,-47.0225,-19.4775
1328,9755124,0.6989380000000001,0.315126,-0.256322,45.5,-39.9,-17.535
1329,9755222,0.6734399999999999,0.28938400000000003,-0.235948,50.225,-31.0975,-14.8575
1330,9755320,0.6653880999999999,0.255712,-0.215452,53.2525,-24.465,-12.95
1331,9755418,0.664046,0.218502,-0.178242,56.4725,-18.795,-11.8825
1332,9755516,0.6767340000000001,0.188856,-0.151158,57.9775,-11.5675,-12.7575
1333,9755614,0.7291941,0.144814,-0.11943800000000002,59.92,-2.9575,-14.315
1334,9755711,0.79666,0.09589201,-0.094306,60.83,3.535,-16.1875
1335,9755809,0.8580260000000001,0.02257,-0.077348,60.3575,4.935,-18.5325
1336,9755907,0.853146,-0.018178,-0.06527000000000001,59.6575,-1.12,-19.2675
1337,9756005,0.806542,-0.03294,-0.068686,57.9775,-12.18,-18.13
1338,9756103,0.751276,-0.05929201,-0.061732,58.485,-21.525,-15.33
1339,9756201,0.715408,-0.057462,-0.046726,57.9425,-26.11,-12.985
1340,9756299,0.701012,-0.031110000000000002,-0.030622000000000003,56.1925,-25.1825,-11.76
1341,9756397,0.696498,-0.001342,-0.007686,55.3,-22.6275,-11.0775
1342,9756495,0.7027201,0.0305,-0.001952,55.5625,-21.84,-10.78
1343,9756593,0.69357,0.062220000000000004,-0.0183,57.0675,-22.5225,-9.9925
1344,9756691,0.68076,0.082594,-0.03843,59.85,-21.0525,-8.575
1345,9756788,0.668072,0.110044,-0.051362,61.7225,-15.82,-6.6325
1346,9756886,0.663558,0.118828,-0.047336,62.02,-9.5375,-4.69
1347,9756984,0.6681941,0.071858,-0.046238,64.05,-6.6675,-2.1525
1348,9757082,0.6944241,0.019398,-0.071492,64.26,-5.425,-0.595
1349,9757180,0.7522521,-0.045018,-0.10052799999999999,62.1775,1.3825,-0.8575
1350,9757278,0.8211821,-0.1037,-0.11846199999999998,60.2175,10.1675,-2.485
1351,9757376,0.8810841,-0.151646,-0.125904,57.2775,15.33,-4.9
1352,9757474,0.945744,-0.18556199999999998,-0.077592,51.275,18.0425,-7.4025
1353,9757572,1.022116,-0.196542,0.0008540001,39.8475,20.3875,-10.01
1354,9757670,1.096414,-0.202032,0.078446,26.7225,22.1725,-12.145
1355,9757767,1.14192,-0.1952,0.148474,15.47,26.0925,-14.35
1356,9757865,1.1477760000000001,-0.11321600000000001,0.15701400000000001,6.7375,31.185,-18.025
1357,9757963,1.23281,0.06795401,-0.45152200000000003,4.725,26.7225,-22.89
1358,9758061,1.195234,0.034526,-0.48690200000000006,20.9825,23.5725,-25.9875
1359,9758159,1.39873,-0.014396,0.055388,33.775,78.225,-34.3
1360,9758257,1.76351,-0.127368,-0.141398,35.6125,78.82,-47.0925
1361,9758355,1.865502,-0.332938,-0.32403200000000004,73.0625,-14.105,-62.6675
1362,9758453,1.531466,-0.30134,-0.462136,58.5025,-47.285,-82.845
1363,9758551,1.349076,-0.25351599999999996,-0.364536,32.515,-41.9825,-89.93251
1364,9758649,1.263554,-0.222406,-0.630008,35.9975,-57.435,-92.48751
1365,9758747,1.080798,-0.16128399999999998,-0.7296819999999999,42.0875,-82.88,-93.905
1366,9758844,0.8805960999999999,-0.15420799999999998,-0.514962,32.095,-47.88,-95.1475
1367,9758942,0.9051181,0.015372,-0.580842,18.8825,-23.8,-96.35501
1368,9759040,0.9379360000000001,0.212402,-0.547292,28.8925,-23.765,-94.88501
1369,9759138,0.9358620999999999,0.45896400000000004,-0.5292359999999999,33.67,-9.1525,-91.4375
1370,9759236,1.024068,0.6344,-0.5967021,41.0025,7.5425,-83.16001
1371,9759334,1.12911,0.688446,-0.5030060000000001,52.2725,20.2475,-71.8375
1372,9759432,1.1895,0.612684,-0.33379200000000003,63.6125,30.4675,-60.1825
1373,9759530,1.214876,0.408456,-0.271816,77.875,22.015,-46.7775
1374,9759628,1.17242,0.200812,-0.299388,88.04251,6.3875,-35.1925
1375,9759726,1.147044,0.031232,-0.255468,92.96,6.265,-28.805
1376,9759823,1.136308,-0.133102,-0.185196,96.28501,8.9775,-26.2675
1377,9759921,1.097756,-0.260836,-0.164822,100.205,-6.58,-26.7925
1378,9760019,0.999302,-0.315614,-0.177144,100.205,-28.6125,-30.695
1379,9760117,0.8996280999999999,-0.298534,-0.198494,93.9925,-39.0075,-34.4575
1380,9760215,0.830332,-0.251808,-0.21594000000000002,87.2375,-40.6175,-37.065
1381,9760313,0.7788480999999999,-0.196176,-0.229116,81.7075,-38.15,-38.7275
1382,9760411,0.745054,-0.128466,-0.247538,77.47251,-34.3875,-41.09
1383,9760509,0.725534,-0.06588,-0.248392,74.3575,-30.2225,-44.2925
1384,9760607,0.71004,-0.02928,-0.21667199999999998,71.89,-23.31,-47.6525
1385,9760705,0.7021101,-0.004026,-0.18117,70.6825,-16.03,-49.455
1386,9760803,0.719312,0.022448,-0.16226,70.105,-10.1325,-50.2075
1387,9760900,0.743834,0.06039,-0.162138,68.6875,-3.465,-49.945
1388,9760998,0.7761640999999999,0.09821001,-0.15494000000000002,67.0425,2.8525,-48.7375
1389,9761096,0.8105680000000001,0.114192,-0.1281,66.5875,7.0875,-47.04
1390,9761194,0.8306979999999999,0.10516400000000001,-0.086132,67.8825,7.91,-45.15
1391,9761292,0.8371639999999999,0.075396,-0.06527000000000001,69.9475,5.0225,-42.84
1392,9761390,0.8359440999999999,0.031476,-0.060267999999999995,71.9425,-0.105,-39.83
1393,9761488,0.8216701,-0.020496,-0.054046000000000004,72.8,-4.1475,-36.715
1394,9761586,0.806542,-0.066856,-0.045506,71.4175,-6.195,-33.4425
1395,9761684,0.794586,-0.103334,-0.046116000000000004,68.495,-7.735,-29.8725
1396,9761781,0.779946,-0.126026,-0.049654000000000004,64.855,-9.3975,-25.97
1397,9761879,0.7643300000000001,-0.139934,-0.058926,59.7625,-10.5525,-22.4525
1398,9761977,0.740052,-0.146278,-0.063074,54.18,-11.13,-19.635
1399,9762075,0.7156520000000001,-0.146034,-0.05977999999999999,49.1225,-9.555,-18.13
1400,9762173,0.701012,-0.130662,-0.06563601,44.835,-4.0775,-18.095
1401,9762271,0.705038,-0.102968,-0.06356201,41.6675,5.18,-19.4775
1402,9762369,0.7390760000000001,-0.055510000000000004,-0.054412,39.2525,15.295,-22.19
1403,9762467,0.79361,0.001342,-0.038186000000000005,38.6575,24.3075,-26.145
1404,9762565,0.8731540999999999,0.059902,-0.016104,39.8475,33.4775,-31.1325
1405,9762663,0.9858819999999999,0.116998,0.011101999999999999,42.105,42.91,-36.225
1406,9762760,1.088484,0.18056,0.057462,44.975,49.5075,-40.215
1407,9762858,1.1259379999999999,0.229116,0.120048,47.425,49.91,-43.12
1408,9762956,1.1232540000000002,0.214842,0.023302,50.3825,42.77,-44.275
1409,9763054,1.162782,0.09625801,-0.46335600000000005,58.345,29.8725,-42.7
1410,9763152,1.1829120000000002,-0.006344,-0.518988,66.6925,25.4975,-38.78
1411,9763250,1.2847819999999999,0.03172,-0.351482,57.4875,44.8875,-37.1175
1412,9763348,1.494988,0.252662,-0.46481999999999996,52.5175,32.6025,-28.35
1413,9763446,1.548302,0.48080200000000006,-0.335134,61.215,3.325,-5.005
1414,9763544,1.3412680000000001,0.486414,-0.227042,67.97,5.425,19.6175
1415,9763642,1.14924,0.29572800000000005,-0.304512,80.99,-15.75,37.2925
1416,9763739,0.8527800999999999,0.067588,-0.46481999999999996,86.3975,-36.575,42.0
1417,9763837,0.742492,-0.108214,-0.57584,82.6875,-22.26,34.825
1418,9763935,0.783118,-0.20252,-0.592554,76.405,16.7125,27.2825
1419,9764033,0.887184,-0.232044,-0.525332,67.97,47.6175,21.035
1420,9764131,1.0323639999999998,-0.24339,-0.401868,62.1075,56.1925,14.6125
1421,9764229,1.214022,-0.208864,-0.297192,57.05,54.53,5.985
1422,9764327,1.37494,-0.09259801,-0.274622,54.53,46.41,-5.7575
1423,9764425,1.4343540000000001,0.105774,-0.310856,61.81,26.32,-18.2175
1424,9764523,1.3438299999999999,0.337696,-0.357216,76.685,1.995,-27.51
1425,9764621,1.203408,0.556198,-0.398086,90.58001,-8.155,-33.2675
1426,9764718,1.078968,0.646234,-0.40809,102.4275,-5.7925,-37.345
1427,9764816,0.9860040999999999,0.592066,-0.399794,115.78,-4.6375,-39.515
1428,9764914,0.942572,0.524234,-0.406138,126.805,-4.4275,-40.95
1429,9765012,0.959774,0.49556400000000006,-0.40052600000000005,135.975,1.4,-42.5425
1430,9765110,0.996374,0.499346,-0.35099400000000003,146.86,9.52,-42.2275
1431,9765208,1.0229700000000002,0.513376,-0.285114,157.7625,13.2825,-41.09
1432,9765306,1.0249219999999999,0.496174,-0.21228000000000002,169.12,11.375,-40.8275
1433,9765404,1.009672,0.45445,-0.14993800000000002,178.9375,6.4575,-43.1025
1434,9765502,0.9962521000000001,0.40321,-0.110654,186.445,1.9075,-47.845
1435,9765600,0.9964959999999999,0.34892,-0.08906,193.0425,-0.2625,-52.9025
1436,9765698,0.9974719999999999,0.289018,-0.062952,198.1875,1.225,-56.4375
1437,9765795,0.9892981,0.220698,-0.01891,203.77,3.78,-58.1
1438,9765893,0.967216,0.17446,-0.001952,205.8525,3.64,-58.5375
1439,9765991,0.934154,0.111996,0.018788,208.0575,2.555,-57.5575
1440,9766089,0.9001161,0.041114,0.047824,207.4975,1.365,-56.665
1441,9766187,0.8781559999999999,-0.03721,0.06527000000000001,205.5025,0.665,-56.035
1442,9766285,0.8663219999999999,-0.103822,0.071004,201.425,0.49,-55.3175
1443,9766383,0.858392,-0.167262,0.055510000000000004,195.79,-0.5075,-53.48
1444,9766481,0.8399700000000001,-0.229116,0.07381001,188.5625,-1.715,-50.435
1445,9766579,0.817156,-0.252784,0.082838,176.995,-1.54,-47.5475
1446,9766677,0.7951961,-0.264008,0.08003201,165.97,-2.31,-44.1
1447,9766774,0.777384,-0.2867,0.081252,156.4675,-3.4125,-40.705
1448,9766872,0.75945,-0.279136,0.068686,146.4925,-2.7825,-37.87
1449,9766970,0.7596940999999999,-0.26095799999999997,0.0427,138.5125,-1.89,-35.2975
1450,9767068,0.7779941,-0.24156,0.014884,132.6675,-0.2625,-32.4975
1451,9767166,0.80215,-0.19032000000000002,-0.018422,126.6125,2.415,-30.0475
1452,9767264,0.824232,-0.11955999999999999,-0.028792,119.3675,5.145,-28.6125
1453,9767362,0.8510719999999999,-0.06795401,-0.04087,112.595,6.0375,-27.44
1454,9767460,0.8764481,-0.040992,-0.061732,108.0975,4.83,-26.2325
1455,9767558,0.8730319999999999,-0.040260000000000004,-0.046848,103.18,6.3525,-25.025
1456,9767656,0.8585139999999999,-0.04453,-0.015128,97.16001,8.9425,-23.4325
1457,9767753,0.8310639999999999,-0.05856,0.024766,90.965,10.01,-21.245
1458,9767851,0.811178,-0.081618,0.07564,85.1375,11.6025,-18.69
1459,9767949,0.7829961,-0.09052401,0.124196,80.4125,15.3475,-15.96
1460,9768047,0.774822,-0.053070000000000006,0.16165,78.26,19.1975,-13.5625
1461,9768145,0.795562,0.002318,0.040504000000000005,80.6925,22.47,-11.7425
1462,9768243,0.859856,0.08405800000000001,-0.41858199999999995,89.7575,21.6825,-9.485
1463,9768341,0.9653860000000001,0.094672,-0.71797,103.2675,31.71,-9.94
1464,9768439,1.221586,-0.011834,-0.280844,115.3075,79.7125,-14.98
1465,9768537,1.66347,-0.31598000000000004,-0.013175999999999998,120.68,113.26,-21.1925
1466,9768634,2.161352,-0.8148380000000001,-0.023302,137.83,59.8325,-38.4125
1467,9768732,1.53659,-0.73505,-0.32561799999999996,121.17,-25.4975,-75.565
1468,9768830,1.052738,-0.327936,-0.41723999999999994,77.07,-81.6375,-81.41001
1469,9768928,1.051274,-0.14310599999999998,-0.695156,77.35,-63.6475,-71.085
1470,9769026,1.035902,0.032818,-0.676124,71.75,-32.7775,-62.8425
1471,9769124,1.027362,0.147498,-0.47470200000000007,64.1025,5.88,-56.5425
1472,9769222,1.069208,0.312076,-0.530456,64.645,6.5975,-53.515
1473,9769320,1.03273,0.47860600000000003,-0.407968,75.005,-1.575,-53.6725
1474,9769418,0.9913719999999999,0.599996,-0.380884,85.19,3.4475,-54.285
1475,9769515,1.008086,0.6062181,-0.44639799999999996,101.885,1.0325,-50.3475
1476,9769613,1.0229700000000002,0.50203,-0.44286000000000003,117.565,0.455,-44.66
1477,9769711,1.042002,0.305732,-0.385398,131.1975,7.84,-39.3575
1478,9769809,1.101172,0.122976,-0.31415,139.2825,18.1475,-37.5025
1479,9769907,1.15351,-0.001342,-0.20496,142.345,26.3375,-39.7775
1480,9770005,1.16876,-0.08576601,-0.15006,144.5325,23.0475,-42.77
1481,9770103,1.13094,-0.140544,-0.141154,145.9325,6.2125,-44.1875
1482,9770201,1.047248,-0.164822,-0.12078,143.7275,-9.415,-43.995
1483,9770299,0.9656300999999999,-0.140544,-0.12566,138.8275,-17.395,-41.58
1484,9770397,0.9150001,-0.093086,-0.15494000000000002,134.3125,-20.9825,-39.0075
1485,9770495,0.8820601,-0.040382,-0.16958,131.0925,-19.635,-37.205
1486,9770592,0.8664440000000001,-0.009150001,-0.156282,129.22,-14.875,-37.555
1487,9770690,0.8532681000000001,-0.000244,-0.132004,129.2025,-11.165,-38.71
1488,9770788,0.826916,-0.00427,-0.112972,130.55,-9.6075,-40.18
1489,9770886,0.80215,-0.013908000000000002,-0.10321199999999998,132.5275,-8.1025,-40.95
1490,9770984,0.798002,-0.022692,-0.09625801,134.015,-4.48,-40.5475
1491,9771082,0.806908,-0.02806,-0.08674201,134.785,0.8400001,-40.0925
1492,9771180,0.8337481,-0.049654000000000004,-0.068442,134.75,3.7975,-40.1625
1493,9771278,0.859978,-0.07747001,-0.05819401,133.9625,3.0975,-41.5625
1494,9771376,0.87474,-0.118584,-0.055388,131.8275,0.175,-44.8
1495,9771474,0.865834,-0.163358,-0.057584,129.185,-3.5875,-47.495
1496,9771572,0.8431420000000001,-0.207644,-0.071492,125.6675,-6.965,-49.63
1497,9771670,0.82411,-0.23521599999999998,-0.07832401,121.1175,-8.645,-50.8375
1498,9771767,0.8250860000000001,-0.24912399999999998,-0.09247601,115.29,-7.1575,-51.6075
1499,9771865,0.8518040000000001,-0.26047,-0.08662001,109.1475,-3.78,-51.8525
1500,9771963,0.8930401,-0.251442,-0.069906,101.8325,-0.245,-52.3075
1501,9772061,0.9289081,-0.228384,-0.0488,94.22,1.2075,-52.9025
1502,9772159,0.951356,-0.205814,-0.037332,88.30501,0.2275,-52.885
1503,9772257,0.9638,-0.18068199999999998,-0.046360000000000005,83.0725,-1.3825,-51.4675
1504,9772355,0.976366,-0.159576,-0.05612,79.03,-2.8,-48.965
1505,9772453,0.9796600000000001,-0.144204,-0.05856,75.04,-3.1675,-45.57
1506,9772551,0.984784,-0.132004,-0.053070000000000006,70.8575,-2.765,-42.0175
1507,9772649,0.9851501,-0.11943800000000002,-0.048556,66.9725,-2.2225,-38.675
1508,9772746,0.9884440000000001,-0.10345599999999999,-0.043676,63.105,-1.2075,-35.56
1509,9772844,0.995398,-0.08784,-0.034282,59.535,1.225,-32.4975
1510,9772942,1.0086959999999998,-0.076616,-0.019398,56.245,5.0225,-29.75
1511,9773040,1.03151,-0.071614,0.006344,52.9025,9.7825,-27.86
1512,9773138,1.0656700000000001,-0.08174001,0.02562,50.0325,14.7,-26.4775
1513,9773236,1.1150799999999998,-0.08869401,0.043066,47.9325,18.97,-25.06
1514,9773334,1.17059,-0.09418401,0.063928,45.885,21.8575,-23.03
1515,9773432,1.214998,-0.102968,0.100162,45.115,22.715,-20.3525
1516,9773530,1.230736,-0.097478,0.13456600000000002,43.365,22.3475,-17.7275
1517,9773628,1.27978,-0.12383,-0.14152,41.825,19.6525,-15.0675
1518,9773726,1.318088,-0.200202,-0.468846,49.245,12.53,-10.99
1519,9773823,1.289784,-0.154574,-0.267302,47.145,14.6475,-9.4325
1520,9773921,1.3290680000000001,0.04575,-0.14493599999999998,35.7175,16.555,-10.7275
1521,9774019,1.442772,0.24131599999999997,-0.237046,39.62,-5.18,-4.655
1522,9774117,1.440698,0.292434,-0.2806,51.59,-11.795,8.575
1523,9774215,1.271606,0.298656,-0.29877800000000004,54.215,-10.325,20.9125
1524,9774313,1.003816,0.208254,-0.396622,56.14,-27.86,27.545
1525,9774411,0.798734,0.067832,-0.56913,61.0575,-45.395,28.49
1526,9774509,0.69418,0.008052001,-0.638792,59.605,-34.8075,26.11
1527,9774607,0.7250460999999999,-0.003172,-0.674538,51.87,-2.835,22.3475
1528,9774705,0.791902,-0.044164,-0.639402,49.5425,20.37,21.5775
1529,9774803,0.871934,-0.07881200000000001,-0.5675439999999999,45.745,29.785,21.91
1530,9774900,1.003084,-0.10309000000000001,-0.494588,39.8475,36.19,21.6475
1531,9774998,1.15961,-0.11650999999999999,-0.431392,36.6275,42.3675,20.7025
1532,9775096,1.263676,-0.09320801,-0.40016,35.7875,41.4225,17.7975
1533,9775194,1.275388,-0.045018,-0.390034,39.095,28.4375,12.25
1534,9775292,1.200968,-0.00122,-0.382592,45.0275,12.1625,5.1275
1535,9775390,1.086044,0.02257,-0.384056,48.6325,3.115,-2.345
1536,9775488,0.9971059999999999,0.009516001,-0.36197399999999996,51.7475,-0.6475,-8.82
1537,9775586,0.9586761,-0.013054,-0.330986,53.1475,-2.87,-15.2075
1538,9775684,0.924394,-0.022326,-0.302194,51.73,-5.81,-20.7725
1539,9775782,0.8918200000000001,-0.018178,-0.28486999999999996,49.3675,-9.7825,-24.01
1540,9775879,0.8577819999999999,0.00793,-0.273402,47.1625,-11.0075,-25.8125
1541,9775977,0.83936,0.050263999999999996,-0.257298,45.395,-9.31,-27.3
1542,9776075,0.82411,0.08881599,-0.236558,45.5525,-6.8425,-28.3675
1543,9776173,0.80215,0.12529400000000002,-0.211548,46.8125,-4.445,-29.0675
1544,9776271,0.791536,0.147376,-0.190076,48.16,-1.7325,-29.2775
1545,9776369,0.788608,0.159576,-0.164822,48.8075,1.96,-28.665
1546,9776467,0.798124,0.16201600000000002,-0.144082,48.755,5.25,-27.545
1547,9776565,0.798978,0.140422,-0.119316,49.7,6.2475,-25.6375
1548,9776663,0.7931220999999999,0.10418800000000002,-0.10687200000000001,50.8025,4.76,-22.995
1549,9776761,0.786412,0.06636801,-0.101016,51.345,2.9225,-19.9675
1550,9776858,0.78141,0.033428,-0.086132,51.5375,2.555,-17.9725
1551,9776956,0.7761640999999999,0.01464,-0.067222,50.19,2.45,-17.29
1552,9777054,0.7692101,-0.008052001,-0.046360000000000005,49.2625,0.315,-16.7475
1553,9777152,0.757498,-0.023058000000000002,-0.027083999999999997,48.125,-4.1125,-16.73
1554,9777250,0.743834,-0.023424,-0.014274,45.6225,-9.065,-16.8875
1555,9777348,0.7278521,-0.018788,0.004636001,42.5425,-12.32,-16.7825
1556,9777446,0.70577,-0.00671,0.006587999999999999,39.0075,-13.615,-15.8375
1557,9777544,0.6886899999999999,0.002806,-0.028669999999999998,36.4175,-14.525,-14.0525
1558,9777642,0.675758,0.0032939999999999996,-0.09211,35.455,-13.545,-11.165
1559,9777740,0.67466,0.007686,-0.14469200000000002,33.845,-7.35,-7.7175
1560,9777838,0.6878361,0.000976,-0.104676,30.205,2.52,-4.725
1561,9777935,0.72102,-0.053191999999999996,-0.07137001,30.24,6.8425,-0.8575
1562,9778033,0.7523741,-0.11736400000000001,-0.08527801,31.3775,3.325,3.57
1563,9778131,0.8015399999999999,-0.17263,-0.07015,27.93,6.6675,6.055
1564,9778229,0.8519260000000001,-0.222162,-0.064294,21.2625,12.8625,6.23
1565,9778327,0.882182,-0.266448,-0.065026,16.8875,13.3175,5.6875
1566,9778425,0.8935280999999999,-0.286578,-0.047458,10.7975,13.5625,3.395
1567,9778523,0.9191481,-0.283406,-0.039162,1.2425,16.1875,-0.4025
1568,9778621,0.9725841000000001,-0.280478,-0.006222,-6.0025,20.44,-4.27
1569,9778719,1.044686,-0.19825,0.0793,-13.9125,29.645,-6.8775
1570,9778817,1.1303299999999998,-0.054778,0.15506199999999998,-22.225,40.74,-6.545
1571,9778914,1.2245139999999999,0.07856801,0.20496,-22.61,48.405,-2.6425
1572,9779012,1.393728,0.228384,-0.27389,-14.84,49.6125,3.64
1573,9779110,1.559648,0.31293000000000004,-0.59841,-1.12,41.125,9.695
1574,9779208,1.60247,0.222162,0.042089999999999995,6.3175,69.0025,7.0
1575,9779306,1.7580200000000001,0.024766,-0.111142,10.1675,58.8525,-2.0125
1576,9779404,1.913448,-0.207644,-0.297558,31.045,-27.195,-14.8575
1577,9779502,1.645414,-0.330254,-0.367952,17.57,-35.455,-37.8875
1578,9779600,1.41764,-0.252418,-0.431758,1.5575,-20.3875,-52.325
1579,9779698,1.194136,-0.173728,-0.394914,-8.3825,-37.0125,-52.3775
1580,9779796,1.031998,-0.08357,-0.60695,-15.3125,-57.96,-49.0
1581,9779893,0.9429379999999999,0.01403,-0.799588,-17.29,-66.9375,-48.965
1582,9779991,0.865956,0.096014,-0.682712,-17.3075,-35.595,-54.1275
1583,9780089,0.9324460999999999,0.205204,-0.659654,-17.605,-4.515,-60.2525
1584,9780187,0.9977159999999999,0.267546,-0.549488,-6.16,-0.3325,-59.535
1585,9780285,1.060668,0.30841599999999997,-0.46774799999999994,2.3275,7.8575,-53.865
1586,9780383,1.175226,0.309514,-0.453108,6.2825,13.9825,-44.8175
1587,9780481,1.22671,0.251808,-0.389424,7.945,12.2325,-33.04
1588,9780579,1.2134120000000002,0.149572,-0.328302,4.7075,8.225,-21.8925
1589,9780677,1.101538,0.027206,-0.29731399999999997,-0.665,-1.05,-14.0875
1590,9780774,0.978074,-0.050263999999999996,-0.279746,-5.565,-10.4475,-9.31
1591,9780872,0.9086559999999999,-0.06819800000000001,-0.256932,-10.5875,-13.1425,-2.94
1592,9780970,0.8642481,-0.089426,-0.21374400000000002,-12.005,-15.6975,6.1075
1593,9781068,0.815448,-0.119804,-0.185196,-12.67,-21.525,14.35
1594,9781166,0.7540819999999999,-0.13542,-0.17360599999999998,-15.2775,-26.3375,19.6175
1595,9781264,0.706624,-0.13761600000000002,-0.170922,-18.515,-27.44,21.6825
1596,9781362,0.686006,-0.125416,-0.169946,-21.77,-24.745,20.4575
1597,9781460,0.665144,-0.116632,-0.156404,-24.325,-20.0025,16.66
1598,9781558,0.636596,-0.11053199999999999,-0.142374,-26.2325,-16.1525,12.1975
1599,9781655,0.62342,-0.093696,-0.134322,-27.5275,-12.985,8.8725
1600,9781753,0.629642,-0.07356601,-0.126392,-27.9825,-7.2275,6.6675
1601,9781851,0.664046,-0.04941,-0.116754,-27.4575,0.07,5.4075
1602,9781949,0.715774,-0.019764,-0.112606,-26.915,5.6525,4.6725
1603,9782047,0.749568,0.006832001,-0.10430999999999999,-25.725,7.4375,4.2875
1604,9782145,0.756888,0.023912,-0.091378,-24.01,4.9875,3.1675
1605,9782243,0.756278,0.02623,-0.081618,-22.4875,0.91,0.3675
1606,9782341,0.74725,0.024278,-0.06636801,-22.365,-3.0275,-3.08
1607,9782439,0.7340741,0.031354,-0.044652,-23.205,-5.95,-5.0575
1608,9782536,0.726144,0.033184,-0.04514,-23.975,-8.4175,-5.5825
1609,9782634,0.7329760000000001,0.017324000000000003,-0.05636401,-23.6775,-10.99,-5.25
1610,9782732,0.7448100999999999,-0.005612,-0.06795401,-23.1875,-10.955,-4.1825
1611,9782830,0.750422,-0.029646,-0.0427,-23.4325,-7.8925,-4.06
1612,9782928,0.74664,-0.031476,-0.058072000000000006,-24.85,-5.2675,-4.8825
1613,9783026,0.7248020000000001,-0.020374,-0.047214,-26.5475,-5.635,-5.95
1614,9783124,0.7287060000000001,0.002562,-0.09345201,-29.68,-1.505,-7.595
1615,9783222,0.745786,0.018422,-0.12431800000000001,-30.765,5.0925,-8.505
1616,9783320,0.7754321,0.062098,-0.14762,-32.0775,11.5325,-8.365
1617,9783417,0.8314301,0.125416,-0.158844,-31.64,17.5525,-7.14
1618,9783515,0.9286639999999999,0.182634,-0.162626,-26.0225,25.305,-4.6375
1619,9783613,1.0534700000000001,0.226798,-0.1098,-18.165,36.1725,-1.575
1620,9783711,1.19133,0.266204,-0.042089999999999995,-9.94,43.61,1.5925
1621,9783809,1.306132,0.28181999999999996,0.04867801,-1.68,45.255,4.865
1622,9783907,1.3583479999999999,0.26766799999999996,0.149084,2.1175,41.405,7.385
1623,9784005,1.428132,0.172508,-0.115656,3.6925,27.4575,9.3275
1624,9784103,1.476078,0.039772,-0.515938,16.6425,5.7925,11.9525
1625,9784201,1.3735979999999999,0.07015,-0.17433800000000002,14.5775,11.5675,10.4475
1626,9784299,1.4112959999999999,0.30683,-0.0051240009999999996,-14.3675,38.08,4.725
1627,9784396,1.554158,0.45579200000000003,-0.31537,-16.66,13.615,14.5075
1628,9784494,1.5678219999999998,0.334524,-0.410042,9.03,-20.72,38.465
1629,9784592,1.484618,0.37393000000000004,-0.29731399999999997,12.6175,-15.3825,49.9975
1630,9784690,1.3979979999999999,0.369782,-0.493246,9.1,-17.9025,53.27
1631,9784788,1.193892,0.074298,-0.47043199999999996,28.315,-39.1825,60.1825
1632,9784886,0.9828321,-0.03782,-0.465186,28.665,-31.8675,57.75
1633,9784984,0.9900300999999999,-0.114436,-0.56425,19.4075,-16.6075,50.8725
1634,9785082,1.0473700000000001,-0.282674,-0.528382,21.3325,-0.7525,50.2775
1635,9785180,1.08397,-0.35099400000000003,-0.449204,5.2325,10.15,48.2475
1636,9785278,1.1303299999999998,-0.36807399999999996,-0.41382399999999997,-7.875,3.15,45.8675
1637,9785375,1.160342,-0.344894,-0.401258,-17.9375,-5.355,41.5275
1638,9785473,1.20414,-0.20727800000000002,-0.401014,-31.4825,-3.4475,33.0575
1639,9785571,1.232932,-0.025742,-0.34586999999999996,-36.89,1.0325,24.465
1640,9785669,1.196698,0.111142,-0.270962,-33.18,-2.0125,18.305
1641,9785767,1.096414,0.201422,-0.244732,-26.3375,-13.965,12.39
1642,9785865,0.9831981,0.235704,-0.22643200000000002,-18.865,-27.755,5.1625
1643,9785963,0.8897459999999999,0.243756,-0.208986,-12.985,-38.395,-2.94
1644,9786061,0.803492,0.250344,-0.20556999999999997,-8.9775,-45.29,-9.555
1645,9786158,0.71492,0.252418,-0.209718,-5.0575,-48.4925,-12.3725
1646,9786256,0.6466,0.243146,-0.22045399999999998,-1.3475,-46.41,-12.495
1647,9786354,0.60878,0.214964,-0.22106399999999998,1.505,-39.585,-11.795
1648,9786452,0.5859661,0.194712,-0.20752199999999998,2.94,-32.1475,-11.095
1649,9786550,0.572546,0.186904,-0.183976,5.565,-25.935,-10.3775
1650,9786648,0.5727901,0.1769,-0.161894,9.625,-20.4925,-9.3975
1651,9786746,0.588284,0.151036,-0.149816,13.6325,-14.7875,-9.0825
1652,9786844,0.613538,0.119682,-0.12749000000000002,15.995,-8.925,-9.625
1653,9786942,0.655506,0.097966,-0.11614400000000001,14.98,-4.795,-10.5
1654,9787039,0.698816,0.0671,-0.121878,13.3,-3.6575,-11.2525
1655,9787137,0.722362,0.013297999999999999,-0.12627,12.39,-5.705,-11.235
1656,9787235,0.7137001000000001,-0.007686,-0.128832,11.025,-9.3275,-10.15
1657,9787333,0.70577,-0.004636001,-0.12017,9.0125,-11.7775,-7.5775
1658,9787431,0.703574,-0.00427,-0.07710399999999999,8.5225,-11.34,-3.92
1659,9787529,0.697596,0.026962,-0.032086,7.7875,-10.85,-0.8225
1660,9787627,0.693204,0.073688,-0.019032,7.035,-11.9,0.315
1661,9787725,0.70394,0.11943800000000002,-0.026351999999999997,7.84,-13.72,0.21
1662,9787823,0.7147979999999999,0.166774,-0.03416,9.1875,-11.55,-0.6125
1663,9787920,0.721264,0.204716,-0.007198,10.0975,-5.845,-1.68
1664,9788018,0.726144,0.18971,-0.006587999999999999,14.3325,-4.48,-1.1025
1665,9788116,0.7287060000000001,0.124196,-0.060146000000000005,22.89,-7.1575,1.4525
1666,9788214,0.751642,0.03782,-0.11333800000000001,28.9275,-0.8925,3.6925
1667,9788312,0.8176439999999999,-0.05929201,-0.11394800000000001,29.8025,16.6075,4.34
1668,9788410,0.917684,-0.17641199999999999,-0.076738,25.8125,30.1175,4.1125
1669,9788508,1.058594,-0.287798,-0.018544,16.065,34.405,3.045
1670,9788606,1.194014,-0.352702,0.068686,-1.1725,34.8075,0.49
1671,9788704,1.250256,-0.329644,0.149572,-21.1925,32.34,-2.73
1672,9788802,1.21024,-0.300242,0.192394,-36.9075,26.67,-4.9525
1673,9788899,1.096292,-0.20947399999999997,0.24668400000000001,-43.7325,23.1875,-5.46
1674,9788997,1.078114,-0.015616,-0.04404201,-44.38,23.3975,-5.9675
1675,9789095,1.200236,0.22021,-0.8365541,-30.52,17.08,-4.55
1676,9789193,1.274778,0.208864,-0.23997399999999997,-15.365,44.975,-5.5825
1677,9789291,1.588562,0.185318,0.07600599999999999,-17.43,90.125,-15.1025
1678,9789389,1.890512,0.039528,-0.268888,9.3625,20.685,-25.1475
1679,9789487,1.7916919999999998,-0.145302,-0.46762600000000004,32.3575,-40.775,-49.665
1680,9789585,1.392996,-0.19215,-0.571692,1.05,-35.595,-79.03
1681,9789683,1.249524,-0.31842,-0.7005239999999999,-8.5575,-49.2275,-86.905
1682,9789781,1.185718,-0.360266,-0.764818,-2.52,-75.7925,-89.3025
1683,9789879,0.9836860999999999,-0.29902199999999995,-0.5669341,-15.505,-57.68,-91.7525
1684,9789977,0.904508,-0.127856,-0.6408659999999999,-42.595,-31.955,-88.655
1685,9790075,0.9501360999999999,0.052703999999999994,-0.613416,-47.5125,-21.1225,-78.645
