,T,ax,ay,az,gx,gy,gz
0,166490,0.5124001,0.020984,-0.671976,14.8575,-14.2275,-14.1225
1,166643,0.5343600000000001,0.030256,-0.7722600000000001,67.9,-75.9325,-36.4175
2,166740,0.569984,0.035136,-0.820816,121.5025,-146.4925,-49.455
3,166837,0.571692,0.036112,-0.8210601000000001,56.9275,-98.61251,-31.7625
4,166934,0.5751081,0.03416,-0.821792,3.185,-4.0775,-3.605
5,167031,0.574132,0.03294,-0.8239880999999999,2.0125,-2.0475,-3.0625
6,167128,0.573156,0.032208,-0.8220360000000001,1.9775,-2.065,-3.15
7,167225,0.576084,0.030744,-0.8239880999999999,1.9775,-2.0825,-2.9925
8,167323,0.5736441,0.035136,-0.821792,1.96,-2.1175,-3.115
9,167420,0.5736441,0.032208,-0.8261841000000001,1.925,-2.1875,-3.2725
10,167517,0.5724239999999999,0.033916,-0.8210601000000001,1.925,-2.1525,-3.115
11,167614,0.5738880000000001,0.033184,-0.826428,1.9775,-2.135,-3.115
12,167711,0.572912,0.032208,-0.8244761,1.9775,-2.135,-3.115
13,167808,0.571204,0.03416,-0.823256,1.96,-2.135,-3.115
14,167905,0.5738880000000001,0.034648000000000005,-0.8220360000000001,2.03,-2.1525,-3.0625
15,168002,0.5734,0.032451999999999995,-0.8254520000000001,2.0475,-2.0825,-3.0275
16,168099,0.5736441,0.033916,-0.8230120999999999,1.9075,-2.03,-3.045
17,168196,0.5734,0.034648000000000005,-0.8249639999999999,1.9075,-1.96,-3.0275
18,168293,0.5726680000000001,0.033184,-0.8235001000000001,2.03,-2.0475,-3.045
19,168390,0.571204,0.03294,-0.821792,2.065,-2.0825,-3.08
20,168487,0.5724239999999999,0.03294,-0.822768,2.065,-2.1875,-3.115
21,168584,0.5738880000000001,0.033916,-0.8261841000000001,1.9775,-2.135,-3.045
22,168682,0.576328,0.03172,-0.8247200000000001,1.96,-2.1175,-3.1325
23,168779,0.57462,0.032695999999999996,-0.8249639999999999,1.925,-2.1875,-3.115
24,168876,0.5724239999999999,0.03416,-0.823256,1.9075,-2.135,-3.0625
25,168973,0.574132,0.031964,-0.8244761,1.925,-2.135,-3.08
26,169070,0.574132,0.035136,-0.8210601000000001,1.9775,-2.0475,-3.115
27,169167,0.5738880000000001,0.036844,-0.8203280000000001,2.03,-2.0125,-3.0975
28,169264,0.5724239999999999,0.033672,-0.822524,2.0475,-2.1175,-3.045
29,169361,0.5726680000000001,0.03294,-0.8230120999999999,2.065,-2.065,-3.08
30,169458,0.5734,0.034648000000000005,-0.8222799999999999,2.03,-1.925,-3.0625
31,169555,0.573156,0.030744,-0.8252079999999999,2.065,-1.9775,-2.9925
32,169652,0.57218,0.03538,-0.823744,2.03,-2.0125,-3.045
33,169749,0.5738880000000001,0.036844,-0.820084,2.0825,-2.03,-3.01
34,169846,0.576084,0.030987999999999998,-0.822768,2.1175,-2.1175,-2.975
35,169944,0.575596,0.033428,-0.8247200000000001,2.0475,-2.1,-3.045
36,170041,0.5738880000000001,0.037332,-0.8220360000000001,2.0475,-2.03,-3.045
37,170138,0.5738880000000001,0.03294,-0.8239880999999999,2.0475,-2.0475,-3.0275
38,170235,0.5753520000000001,0.03538,-0.820816,2.1,-2.205,-3.01
39,170332,0.57218,0.033672,-0.8230120999999999,2.1,-2.135,-3.01
40,170429,0.57462,0.03416,-0.8220360000000001,1.995,-2.135,-2.9925
41,170526,0.575596,0.031476,-0.8239880999999999,2.065,-2.1175,-2.9575
42,170623,0.5751081,0.033672,-0.8235001000000001,2.0825,-2.0825,-2.9575
43,170720,0.57096,0.033184,-0.821304,2.0825,-2.1,-2.9925
44,170817,0.571936,0.032451999999999995,-0.821792,1.995,-2.135,-3.045
45,170914,0.5736441,0.032451999999999995,-0.8230120999999999,2.065,-2.1175,-3.0625
46,171011,0.574132,0.032451999999999995,-0.8222799999999999,2.0475,-2.1,-2.975
47,171108,0.5736441,0.03416,-0.821304,2.0125,-2.065,-3.08
48,171205,0.5753520000000001,0.030744,-0.8230120999999999,2.1,-2.0825,-3.0625
49,171302,0.5743761,0.03172,-0.8244761,2.03,-2.1175,-3.0275
50,171400,0.57462,0.032208,-0.8235001000000001,2.0475,-2.2575,-3.0275
51,171497,0.576572,0.03172,-0.823744,1.925,-2.1175,-3.08
52,171594,0.5751081,0.033184,-0.8235001000000001,1.96,-2.135,-3.0625
53,171691,0.5734,0.031964,-0.822768,2.03,-2.17,-3.045
54,171788,0.57462,0.031476,-0.8239880999999999,1.96,-2.205,-3.0275
55,171885,0.5738880000000001,0.03172,-0.8247200000000001,1.925,-2.31,-3.08
56,171982,0.574864,0.032208,-0.8247200000000001,1.9075,-2.31,-3.0975
57,172079,0.5734,0.034648000000000005,-0.8222799999999999,1.855,-2.31,-3.1325
58,172176,0.5734,0.03416,-0.821792,1.89,-2.2575,-3.185
59,172273,0.5734,0.0366,-0.820572,1.9425,-2.275,-3.1675
60,172370,0.575596,0.036356,-0.8203280000000001,2.03,-2.135,-2.975
61,172467,0.5736441,0.032208,-0.8230120999999999,2.065,-2.1175,-3.045
62,172564,0.5736441,0.033184,-0.821792,2.0825,-2.0475,-3.01
63,172661,0.57462,0.033184,-0.822768,2.1175,-2.1875,-3.0975
64,172759,0.572912,0.032695999999999996,-0.821792,2.0125,-2.205,-3.0975
65,172856,0.575596,0.034648000000000005,-0.8215481,1.995,-2.065,-3.0275
66,172953,0.574864,0.034892,-0.821792,2.0825,-2.1525,-3.0275
67,173050,0.574132,0.033672,-0.821792,2.03,-2.1525,-3.115
68,173147,0.572912,0.032695999999999996,-0.821792,2.03,-2.1875,-3.0625
69,173244,0.57462,0.033916,-0.821792,2.03,-2.1875,-3.1325
70,173341,0.574864,0.035136,-0.8215481,2.0125,-2.205,-3.0625
71,173438,0.5738880000000001,0.032695999999999996,-0.822768,1.96,-2.2225,-3.115
72,173535,0.575596,0.032451999999999995,-0.8247200000000001,1.96,-2.31,-3.15
73,173632,0.5743761,0.033916,-0.8210601000000001,1.995,-2.2925,-3.1675
74,173729,0.574864,0.03538,-0.8210601000000001,1.96,-2.275,-3.1675
75,173826,0.574132,0.033916,-0.8210601000000001,2.0475,-2.275,-3.0625
76,173923,0.574864,0.032208,-0.8235001000000001,2.0125,-2.3625,-3.185
77,174020,0.573156,0.033184,-0.8222799999999999,1.89,-2.24,-3.22
78,174118,0.5743761,0.0366,-0.8203280000000001,1.96,-2.3275,-3.045
79,174215,0.572912,0.03294,-0.821792,1.9775,-2.38,-3.0975
80,174312,0.574864,0.033672,-0.8222799999999999,2.0125,-2.3975,-3.1325
81,174409,0.571692,0.033184,-0.820084,1.9775,-2.3275,-3.115
82,174506,0.5734,0.037088,-0.81984,1.96,-2.2925,-3.115
83,174603,0.5726680000000001,0.03538,-0.8195960999999999,1.9425,-2.3275,-3.115
84,174700,0.572912,0.035868000000000004,-0.8195960999999999,1.96,-2.345,-3.115
85,174797,0.574132,0.035868000000000004,-0.8203280000000001,1.9425,-2.3625,-3.185
86,174894,0.5738880000000001,0.035624,-0.820572,1.9775,-2.345,-3.2025
87,174991,0.5743761,0.035136,-0.820084,1.9775,-2.3625,-3.15
88,175088,0.5734,0.03294,-0.823256,1.995,-2.2925,-3.1675
89,175185,0.5736441,0.033184,-0.8215481,2.0125,-2.31,-3.115
90,175282,0.57584,0.03294,-0.823256,2.03,-2.3275,-3.1325
91,175379,0.574864,0.035136,-0.81984,1.9775,-2.31,-3.1325
92,175476,0.57462,0.031232,-0.8235001000000001,1.96,-2.345,-3.08
93,175574,0.5736441,0.032451999999999995,-0.8215481,1.925,-2.3275,-3.185
94,175671,0.5724239999999999,0.033428,-0.8193521,1.9425,-2.38,-3.0975
95,175768,0.5734,0.035136,-0.820084,1.995,-2.45,-3.15
96,175865,0.5743761,0.035624,-0.8203280000000001,1.89,-2.3625,-3.1325
97,175962,0.5753520000000001,0.035624,-0.820084,1.9075,-2.345,-3.15
98,176059,0.5724239999999999,0.033184,-0.821792,1.9775,-2.3275,-3.08
99,176156,0.5726680000000001,0.032695999999999996,-0.821304,1.9425,-2.3975,-3.15
100,176253,0.574864,0.035624,-0.820816,1.925,-2.3975,-3.22
101,176350,0.572912,0.032695999999999996,-0.821792,1.995,-2.31,-3.1325
102,176447,0.572912,0.032695999999999996,-0.8220360000000001,2.03,-2.275,-3.045
103,176544,0.5738880000000001,0.035624,-0.821304,2.0125,-2.275,-3.08
104,176641,0.57584,0.031232,-0.8230120999999999,2.065,-2.17,-3.15
105,176738,0.5738880000000001,0.034404000000000004,-0.8203280000000001,1.9775,-2.31,-3.15
106,176835,0.5743761,0.03538,-0.820084,1.995,-2.345,-3.08
107,176932,0.5751081,0.034892,-0.821304,1.9775,-2.31,-3.1325
108,177029,0.5751081,0.03416,-0.8210601000000001,1.9425,-2.31,-3.1325
109,177127,0.5734,0.034404000000000004,-0.820572,1.9075,-2.31,-3.0975
110,177224,0.5736441,0.035136,-0.8188641,1.995,-2.4325,-3.115
111,177321,0.57218,0.036112,-0.8188641,1.9075,-2.3275,-3.0975
112,177418,0.5738880000000001,0.037088,-0.8210601000000001,1.9775,-2.2575,-3.1325
113,177515,0.5726680000000001,0.035624,-0.820816,1.995,-2.17,-3.0275
114,177612,0.57462,0.033916,-0.81984,2.065,-2.0825,-2.9925
115,177709,0.573156,0.031964,-0.8220360000000001,1.995,-2.17,-3.0975
116,177806,0.5734,0.032451999999999995,-0.8235001000000001,1.9775,-2.1525,-3.08
117,177903,0.5736441,0.032695999999999996,-0.8222799999999999,2.0125,-2.135,-3.08
118,178000,0.5738880000000001,0.033672,-0.822524,1.9425,-2.205,-3.115
119,178097,0.574132,0.034892,-0.8215481,1.89,-2.2225,-3.185
120,178194,0.5753520000000001,0.035136,-0.8220360000000001,1.9425,-2.2575,-3.2025
121,178291,0.573156,0.033916,-0.821792,1.995,-2.345,-3.1325
122,178388,0.574132,0.033184,-0.8230120999999999,2.0125,-2.38,-3.0975
123,178486,0.574864,0.033184,-0.8230120999999999,1.995,-2.38,-3.0975
124,178583,0.5724239999999999,0.033672,-0.820084,1.96,-2.38,-3.115
125,178680,0.571448,0.03416,-0.8222799999999999,2.03,-2.2925,-3.115
126,178777,0.5738880000000001,0.035624,-0.819108,2.03,-2.345,-3.1675
127,178874,0.574132,0.033184,-0.821304,2.0125,-2.38,-3.1675
128,178971,0.5726680000000001,0.035624,-0.818376,1.96,-2.5025,-3.1325
129,179068,0.5734,0.034648000000000005,-0.8210601000000001,2.03,-2.5375,-3.15
130,179165,0.575596,0.034404000000000004,-0.821304,1.96,-2.4675,-3.2025
131,179262,0.5734,0.034648000000000005,-0.8210601000000001,1.995,-2.5375,-3.0275
132,179359,0.5734,0.035624,-0.81862,1.995,-2.66,-3.115
133,179456,0.57096,0.031476,-0.820572,1.96,-2.7125,-3.1675
134,179553,0.573156,0.033184,-0.8220360000000001,1.9775,-2.7125,-3.2025
135,179650,0.57218,0.034648000000000005,-0.820816,1.9075,-2.7475,-3.185
136,179747,0.5734,0.03416,-0.820816,1.96,-2.695,-3.1675
137,179845,0.571204,0.03538,-0.820816,1.9775,-2.73,-3.15
138,179942,0.572912,0.035624,-0.8203280000000001,1.925,-2.8,-3.1675
139,180039,0.570716,0.03416,-0.8222799999999999,1.89,-2.6775,-3.185
140,180136,0.5738880000000001,0.037088,-0.81984,1.89,-2.7125,-3.185
141,180233,0.572912,0.03294,-0.821792,2.0125,-2.7475,-3.2725
142,180330,0.572912,0.033428,-0.8193521,1.9775,-2.765,-3.22
143,180427,0.5734,0.034892,-0.8203280000000001,1.96,-2.66,-3.22
144,180524,0.571692,0.033672,-0.821304,1.9075,-2.6075,-3.2375
145,180621,0.568764,0.033916,-0.8210601000000001,1.9425,-2.66,-3.2025
146,180718,0.571204,0.036112,-0.821304,1.9425,-2.6075,-3.2025
147,180815,0.571204,0.034648000000000005,-0.820572,1.995,-2.485,-3.0975
148,180912,0.5724239999999999,0.033428,-0.820816,2.17,-2.4675,-3.0625
149,181009,0.584136,0.02562,-0.8281360999999999,1.925,-2.38,-3.08
150,181106,0.579012,0.022936,-0.8298440999999999,0.5425,-2.5375,-3.78
151,181203,0.581696,0.02074,-0.8249639999999999,-0.7175,-2.975,-4.5675
152,181301,0.5697399999999999,0.03172,-0.8210601000000001,-1.3475,-3.605,-5.3025
153,181398,0.56608,0.050508,-0.8176439999999999,-1.435,-3.9375,-5.4775
154,181495,0.57462,0.032451999999999995,-0.8283799999999999,-0.8925,-3.64,-5.1275
155,181592,0.597068,0.009516001,-0.8361879999999999,-1.5225,-3.6225,-5.5825
156,181689,0.58682,0.022936,-0.834724,-3.535,-5.005,-6.965
157,181786,0.621712,0.010248,-0.8527800999999999,-5.32,-6.2125,-8.2425
158,181883,0.633912,0.0,-0.8552200000000001,-8.8025,-8.61,-10.7275
159,181980,0.6117081,0.040260000000000004,-0.8554641,-12.3375,-12.8975,-13.09
160,182077,0.650016,0.023180000000000003,-0.870592,-14.6475,-14.7525,-14.7175
161,182174,0.621224,0.043676,-0.8579041,-17.605,-19.215,-16.555
162,182271,0.6373281,0.071004,-0.8591241,-17.85,-22.7675,-16.835
163,182368,0.647576,0.08881599,-0.876692,-16.5725,-26.5475,-16.24
164,182465,0.7237041,0.11053199999999999,-0.874252,-13.09,-29.995,-15.155
165,182562,0.366976,0.110776,-0.7259001,-8.3825,-38.22,-12.565
166,182659,0.24570799999999998,0.12980799999999998,-0.729316,-4.165,-31.4825,-8.715
167,182756,0.271572,0.119072,-0.692472,-0.0175,-15.925,-5.075
168,182853,0.131272,0.124928,-0.686616,2.7825,-3.6925,-2.1525
169,182951,0.45261999999999997,0.121268,-0.791536,5.285,16.8,1.085
170,183048,0.5294800000000001,0.01342,-0.8095920999999999,7.945,23.8175,2.8
171,183145,0.6466,-0.009272001,-0.8849879999999999,8.2075,24.1675,2.5375
172,183242,0.704916,0.058803999999999995,-0.856196,8.435,24.0975,3.7275
173,183339,0.5546121,0.05563200000000001,-0.8459479999999999,7.455,13.825,1.3475
174,183436,0.576816,0.07612801,-0.8271601000000001,9.1525,16.03,1.785
175,183533,0.5214281,0.0854,-0.8166680000000001,11.7775,15.0325,3.43
176,183630,0.558272,0.08417999999999999,-0.8235001000000001,15.89,17.1325,5.81
177,183727,0.601216,0.08052000000000001,-0.8383841000000001,19.145,18.025,8.0325
178,183824,0.645868,0.0305,-0.8488761,19.88,15.9775,8.6975
179,183921,0.627568,0.01952,-0.8427761,17.0275,11.7775,7.07
180,184018,0.6722199999999999,0.011956,-0.8666879999999999,12.6175,8.19,4.3575
181,184115,0.6348881,-0.007076001,-0.843508,5.2325,3.57,0.1575
182,184212,0.595116,0.03904,-0.832528,-0.455,-0.63,-3.255
183,184309,0.5987760999999999,0.023180000000000003,-0.833016,-2.4325,-2.0825,-4.69
184,184407,0.6439159999999999,-0.008784,-0.8476561,-4.8825,-3.6225,-6.405
185,184504,0.604876,0.033916,-0.8315520000000001,-9.555,-7.315,-9.66
186,184601,0.586332,0.048312,-0.8222799999999999,-11.2175,-10.15,-11.2
187,184698,0.546072,0.07612801,-0.820572,-10.5875,-11.585,-11.1125
188,184795,0.5675439999999999,0.082472,-0.8261841000000001,-8.96,-10.71,-9.8875
189,184892,0.5604680000000001,0.07490801,-0.815204,-7.5425,-10.4825,-8.925
190,184989,0.548268,0.081496,-0.8071520000000001,-5.355,-10.6225,-7.7525
191,185086,0.55388,0.063684,-0.8052,-2.275,-9.6775,-6.055
192,185183,0.45628,0.089304,-0.7766521,0.07,-8.96,-4.7075
193,185280,0.42431599999999997,0.155428,-0.794708,3.1325,-4.2175,-2.3275
194,185377,0.510204,0.08417999999999999,-0.8095920999999999,7.49,5.4075,1.4875
195,185474,0.5363121,0.0488,-0.8174001000000001,9.2575,9.065,3.395
196,185571,0.542168,0.074664,-0.8254520000000001,10.255,11.305,4.3575
197,185668,0.5875520000000001,0.043432,-0.8322841000000001,12.81,12.845,5.7225
198,185765,0.5978,0.03782,-0.8222799999999999,13.1425,12.705,6.0025
199,185863,0.606096,0.034892,-0.820816,12.46,11.585,5.565
200,185960,0.60268,0.028792,-0.826428,11.6725,10.0275,4.76
201,186057,0.6558721,-0.006344,-0.8425321,9.6425,8.6275,3.36
202,186154,0.652456,-0.008540001,-0.83204,4.3925,4.935,-0.1225
203,186251,0.6392800000000001,0.012688,-0.832528,-1.1725,0.665,-3.85
204,186348,0.658068,0.002196,-0.8376520000000001,-5.4775,-3.22,-6.7025
205,186445,0.669048,0.006587999999999999,-0.8457040000000001,-10.9375,-8.3475,-10.3775
206,186542,0.6317159999999999,0.038551999999999996,-0.8222799999999999,-16.5725,-14.42,-14.385
207,186639,0.5511961,0.10540799999999999,-0.817156,-17.185,-18.795,-15.54
208,186736,0.565104,0.107116,-0.826916,-12.74,-17.5525,-13.3525
209,186833,0.600484,0.10906800000000001,-0.8315520000000001,-8.4,-16.03,-11.41
210,186930,0.64294,0.061,-0.8488761,-4.9525,-16.4325,-10.1675
211,187027,0.691008,-0.045627999999999995,-0.8076399999999999,-3.15,-18.6375,-9.5375
212,187124,0.9711200999999999,-0.676124,-0.542168,-6.93,-19.67,0.4725
213,187222,1.577948,-1.0206520000000001,-0.060267999999999995,-32.3225,-13.8775,51.135
214,187319,1.914668,-0.482876,0.28426,-79.0125,-1.925,130.2175
215,187416,2.004948,-0.033428,0.271816,-114.7475,21.5775,197.5575
216,187513,1.979328,1.106296,-0.43554,-125.02,56.665,230.44
217,187610,1.075552,1.26026,-0.9345201,-66.36,58.66,249.095
218,187707,-0.215696,1.091656,-0.889868,-23.1175,38.9375,226.415
219,187804,-1.0889719999999998,0.9418401,-0.9418401,-37.275,14.7,163.1875
220,187901,-1.25294,0.7795801,-1.18218,-67.3225,-9.3275,83.335
221,187998,-1.075308,0.508984,-1.384212,-72.1,-41.9125,5.53
222,188095,1.803648,-0.9406200000000001,-3.115636,-50.575,-76.37001,-53.515
223,188192,0.23741199999999998,-1.8712360000000001,1.423252,-9.7475,-151.4275,-81.34000999999999
224,188289,1.388116,0.14152,-2.2262560000000002,3.115,-72.6075,-41.615
225,188386,-1.171932,1.085068,-0.5612,-18.48,-108.885,-22.47
226,188484,0.9335440999999999,-0.43554,-1.19072,-2.3975,-13.685,-20.195
227,188581,-0.09052401,-0.6039,-0.6095119999999999,-21.5075,-29.3825,-22.5575
228,188678,0.342088,0.53314,-0.73444,-36.8725,2.3275,-17.6925
229,188775,0.47775200000000007,0.311832,-0.772992,-22.26,16.7825,-12.8975
230,188872,0.6602640000000001,0.034404000000000004,-0.897432,-7.385,17.7975,-4.7075
231,188969,0.5743761,0.239608,-0.8335040000000001,-2.17,13.6675,-2.135
232,189066,0.534604,0.066124,-0.830576,5.7575,7.595,1.155
233,189163,0.5206960999999999,0.101016,-0.8222799999999999,11.4625,9.0125,3.955
234,189260,0.504104,0.020496,-0.8344801,15.715,9.1875,5.7575
235,189357,0.518988,0.032208,-0.849608,17.1675,12.04,6.7725
236,189454,0.54656,0.08954801,-0.8493641,16.6425,13.8425,7.1575
237,189551,0.528504,0.11345999999999999,-0.8261841000000001,17.7975,13.9125,7.9975
238,189648,0.557296,0.09052401,-0.8420440999999999,20.7725,13.72,9.8
239,189745,0.619516,-0.020008,-0.8569280999999999,21.5425,13.1775,10.2025
240,189843,0.580232,0.008052001,-0.8427761,18.0775,8.995,7.77
241,189940,0.572912,0.005612,-0.8315520000000001,15.4875,7.56,5.7575
242,190037,0.590968,0.007320001,-0.8410681000000001,13.685,6.475,4.445
243,190134,0.6029241,-0.049044,-0.8388721,11.8475,5.1625,2.1525
244,190231,0.5702281,0.039772,-0.8244761,9.8875,2.765,-1.75
245,190328,0.556808,0.03294,-0.8244761,10.29,3.0975,-3.3425
246,190425,0.5502199999999999,0.026351999999999997,-0.82594,10.7975,3.92,-4.8475
247,190522,0.5511961,0.037332,-0.828868,11.3925,4.795,-6.265
248,190619,0.548268,0.046848,-0.826428,12.6,6.37,-7.0175
249,190716,0.54656,0.033184,-0.840824,13.0725,7.805,-7.4725
250,190813,0.540948,0.0366,-0.836676,12.53,9.135,-8.5575
251,190910,0.5612,0.013663999999999999,-0.8335040000000001,10.9025,11.8825,-9.3625
252,191007,0.556808,0.017568,-0.834724,8.54,13.9475,-9.695
253,191105,0.530212,0.10833599999999999,-0.7895840999999999,4.9,16.24,-10.2025
254,191202,0.5602239999999999,-0.017812,-0.835456,-0.5425,18.8825,-10.9725
255,191299,0.570716,0.09589201,-0.8464360000000001,3.29,19.705,-10.465
256,191396,0.565104,0.06588,-0.837408,3.3075,21.9275,-9.87
257,191493,0.5516840000000001,-0.009516001,-0.860344,1.2075,25.8475,-8.225
258,191590,0.5489999999999999,0.03904,-0.8652241,-2.8875,31.605,-6.545
259,191687,0.556808,0.054167999999999994,-0.8813280000000001,-4.41,38.7625,-6.93
260,191784,0.547292,0.025376,-0.8840120000000001,-2.87,46.9875,-7.42
261,191881,0.528992,0.028548,-0.8991401,-3.395,55.7025,-5.5825
262,191978,0.5404601,0.015372,-0.8908440999999999,-6.79,67.7425,-2.7825
263,192075,0.548024,0.009028000999999999,-0.889136,-7.5075,80.43,-1.4175
264,192172,0.538508,0.006344,-0.895236,-6.9825,92.68001,0.1225
265,192269,0.543632,0.006344,-0.8845,-5.3375,106.365,2.1
266,192367,0.546804,0.004392,-0.871568,-3.92,121.17,5.775
267,192464,0.532896,0.020984,-0.8613200000000001,-2.03,136.3075,12.2675
268,192561,0.518012,0.052703999999999994,-0.8569280999999999,0.385,154.0,20.0375
269,192658,0.536556,0.058072000000000006,-0.8532681000000001,4.13,176.295,28.3675
270,192755,0.558272,0.066856,-0.8422879999999999,9.2575,203.735,36.75
271,192852,0.553636,0.050752,-0.8274040000000001,16.6075,233.0475,45.675
272,192949,0.620492,0.10126,-0.873276,26.8275,272.02,53.655
273,193046,0.649528,0.147376,-0.849608,37.45,293.7725,62.37
274,193143,0.8881600000000001,0.179828,-0.8591241,48.0025,328.5275,68.39
275,193240,1.1599760000000001,0.177876,-0.927688,53.2875,364.35,57.4
276,193337,1.5982,0.33061999999999997,-1.134356,39.69,373.0125,51.3625
277,193434,1.754604,0.306952,-1.229272,24.9025,409.3425,75.18
278,193532,1.8224360000000002,0.298168,-1.322724,16.625,435.82,103.81
279,193629,2.059116,0.296948,-1.518412,8.5575,458.1675,122.5
280,193726,2.3614319999999998,0.441396,-1.9102759999999999,5.0575,468.09,130.55
281,193823,2.4912400000000003,0.6795401,-2.236016,24.7975,442.4,146.965
282,193920,1.456192,0.8103239999999999,-2.182092,58.555,416.6925,171.3775
283,194017,-1.1509479999999999,1.188524,-1.8236560000000002,77.1225,431.48,173.0925
284,194114,3.849588,0.59536,-2.80234,113.855,473.7775,143.1325
285,194211,4.560116000000001,1.1163,-4.537424,66.4475,307.65,29.4875
286,194308,1.270996,1.765828,-3.108316,33.6175,-62.7375,-61.775
287,194405,-0.453596,1.0443200000000001,-1.6609080000000003,97.44,-191.275,-94.15
288,194502,-0.537044,0.202276,-0.990884,152.635,-163.415,-90.42251
289,194599,-0.29597199999999996,-0.332084,-0.779824,137.2875,-133.2625,-86.0125
290,194696,0.010004,-0.42212,-0.934276,74.3575,-132.37,-91.945
291,194793,0.180072,-0.131272,-1.092876,9.87,-156.8175,-95.7775
292,194891,0.18324400000000002,0.12688,-1.139968,-15.8025,-191.8875,-85.5225
293,194988,0.15201199999999998,0.121512,-1.055056,-3.15,-224.35,-62.9125
294,195085,0.180804,-0.06929600000000001,-0.9250040999999999,16.87,-249.2175,-38.64
295,195182,0.232044,-0.222284,-0.830576,16.8875,-271.18,-21.2625
296,195279,0.302804,-0.20008,-0.7954399999999999,-1.9425,-292.4075,-12.495
297,195376,0.374052,-0.08100801,-0.800076,-23.345,-312.4975,-8.435
298,195473,0.43505200000000005,0.039772,-0.8271601000000001,-35.2975,-330.3125,-7.525
299,195570,0.505568,0.10760399999999999,-0.861808,-36.47,-344.5575,-10.6575
300,195667,0.594384,0.09638,-0.8969440000000001,-32.6025,-355.95,-17.7275
301,195764,0.71492,0.05856,-0.942816,-31.745,-366.0825,-28.6125
302,195861,0.8491200000000001,0.07515201,-1.0023520000000001,-36.5925,-376.32,-41.86
303,195958,0.976,0.11712,-1.065792,-42.07,-387.38,-53.795
304,196055,1.114592,0.16811600000000002,-1.153144,-44.59,-397.25,-63.4375
305,196152,1.2585520000000001,0.197152,-1.255624,-43.7325,-405.4575,-71.68
306,196249,1.392508,0.204716,-1.386896,-41.5975,-412.65,-79.6775
307,196347,1.5225600000000001,0.18544000000000002,-1.550132,-41.0025,-417.2525,-88.39251
308,196444,1.7453319999999999,0.170068,-1.694336,-43.8025,-417.2175,-98.735
309,196541,2.0425240000000002,0.20178800000000002,-1.7916919999999998,-49.315,-413.7175,-111.965
310,196638,2.522716,0.325496,-1.8529360000000001,-51.6775,-406.77,-125.7725
311,196735,2.978752,0.24082800000000001,-1.776564,-41.965,-400.4175,-137.69
312,196832,3.4569919999999996,0.203252,-1.569164,-30.625,-395.6575,-147.035
313,196929,3.874964,0.188368,-1.1241079999999999,-22.26,-389.865,-146.6675
314,197026,3.98086,-0.033184,-0.304512,-17.9725,-379.33,-138.3725
315,197123,3.74784,-0.406016,0.7366361,-32.8825,-354.3925,-135.485
316,197220,3.5711839999999997,-1.19072,1.825852,-70.7175,-301.21,-143.71
317,197317,4.744336,-1.6440720000000002,2.93532,-140.6825,-222.4075,-166.0225
318,197414,5.248196,-0.653676,3.827628,-188.3875,-162.645,-194.635
319,197511,3.4672400000000003,-0.24131599999999997,3.945968,-102.27,-87.5,-157.0625
320,197609,2.695712,-0.9259799999999999,2.907504,38.815,70.07,-47.53
321,197706,0.2745,-0.48092399999999996,-0.637084,88.9175,213.3775,49.6825
322,197803,-0.48385200000000006,1.2763639999999998,-1.6811599999999998,89.075,266.84,128.7125
323,197900,-0.202276,1.653344,-2.8008759999999997,201.8975,284.2,229.8625
324,197997,-0.383324,-2.0220279999999997,0.9391560999999999,238.595,286.1075,264.6525
325,198094,2.152324,0.5575399999999999,-1.9590759999999998,45.2725,337.26,45.8325
326,198191,3.035848,-1.425692,-1.946632,5.845,337.33,-30.7125
327,198288,1.943216,-0.8164239999999999,-1.338096,3.4825,233.8525,1.12
328,198385,1.6433400000000002,0.677588,-1.585512,-22.365,187.075,16.2225
329,198482,1.345416,1.325164,-1.112152,11.34,154.035,28.875
330,198579,1.236348,0.119316,-1.1041,48.3525,106.225,21.665
331,198676,1.738012,-1.05774,-1.261236,53.2175,95.795,29.26
332,198773,0.50142,0.5736441,-0.8166680000000001,16.5375,18.7075,13.8425
333,198870,0.634644,0.179584,-0.8554641,26.0925,25.34,16.345
334,198967,0.662216,-0.08637601,-0.899384,31.9375,17.2375,20.615
335,199064,0.583648,0.08442401,-0.869616,25.795,10.5875,15.715
336,199162,0.619272,-0.027816000000000004,-0.84546,24.185,10.885,13.1075
337,199259,0.636108,-0.068076,-0.8718120999999999,19.915,7.6125,9.8875
338,199356,0.604144,-0.040260000000000004,-0.85644,13.685,5.3025,5.425
339,199453,0.595116,-0.0244,-0.844972,9.0475,5.1625,1.785
340,199550,0.5785241,-0.02074,-0.8486319999999999,5.775,4.6725,-0.595
341,199647,0.563884,0.011956,-0.8422879999999999,2.6425,5.3375,-2.6425
342,199744,0.556076,0.046360000000000005,-0.831308,0.5775,6.545,-4.305
343,199841,0.548024,0.056852,-0.829356,-0.175,7.8225,-5.25
344,199938,0.547048,0.07002799999999999,-0.8335040000000001,-0.4725,9.415,-6.0725
345,200035,0.561688,0.082228,-0.8239880999999999,0.5425,11.48,-6.51
346,200132,0.5826720000000001,0.059536,-0.81618,1.365,13.2475,-7.6125
347,200229,0.561688,0.069052,-0.822768,1.855,13.2125,-8.54
348,200326,0.55998,0.040992,-0.8261841000000001,2.31,14.175,-9.5375
349,200423,0.56852,0.0183,-0.8308200000000001,1.6975,16.2925,-10.115
350,200520,0.566812,0.027816000000000004,-0.8344801,-0.42,19.6175,-9.135
351,200617,0.57828,0.022203999999999998,-0.8256960999999999,-2.9225,23.345,-6.5975
352,200715,0.586088,0.007808001,-0.815692,-3.885,26.5825,-5.32
353,200812,0.586332,0.033672,-0.814472,-4.165,30.4325,-5.46
354,200909,0.586088,0.026595999999999998,-0.814472,-3.99,33.0575,-6.2825
355,201006,0.536068,0.034648000000000005,-0.8532681000000001,-5.3375,36.3125,-6.055
356,201103,0.5692520000000001,0.048068,-0.8342360000000001,-7.525,43.4175,-5.1975
357,201200,0.548756,0.032208,-0.850584,-7.7875,50.5575,-5.565
358,201297,0.585356,0.040260000000000004,-0.8203280000000001,-9.0125,60.165,-5.1275
359,201394,0.5785241,0.02806,-0.8276481,-10.8325,68.4775,-4.3575
360,201491,0.5917,0.023668,-0.8113001,-12.705,76.9825,-3.8325
361,201588,0.588284,0.011468,-0.8086161000000001,-14.2975,85.225,-3.57
362,201685,0.5858439999999999,0.008296000999999999,-0.8166680000000001,-15.435,94.1325,-4.025
363,201782,0.584136,0.022936,-0.8188641,-15.75,104.265,-4.1825
364,201879,0.568032,0.033428,-0.818376,-15.6275,117.6525,-1.7325
365,201976,0.5892601,0.040504000000000005,-0.797636,-15.75,134.75,2.17
366,202073,0.5846241,0.025376,-0.7761640999999999,-15.8025,153.405,6.02
367,202170,0.59658,0.033428,-0.79422,-14.5425,174.7725,8.96
368,202268,0.6563601,0.025131999999999998,-0.8359440999999999,-11.8125,193.8825,8.505
369,202365,0.577304,0.062952,-0.8252079999999999,-9.5025,199.29,2.94
370,202462,0.577304,0.071492,-0.8425321,-5.6,240.2575,-5.81
371,202559,0.692228,0.059048,-0.9450120000000001,-4.4275,285.0925,-11.76
372,202656,0.746396,0.002196,-1.003572,-10.0275,317.4325,-31.43
373,202753,0.8337481,0.058803999999999995,-0.9379360000000001,-28.525,344.9075,-55.1425
374,202850,1.249768,0.229848,-1.112152,-65.15250999999999,405.9475,-53.1125
375,202947,2.118652,0.540704,-1.4842520000000001,-109.165,469.21,-30.17
376,203044,2.44854,0.5604680000000001,-1.7802240000000003,-109.3925,512.295,10.675
377,203141,2.563952,0.242048,-1.6692040000000001,-81.5675,523.285,50.05
378,203238,2.645204,0.715896,-2.311168,-77.6125,532.35,63.4725
379,203335,2.36314,0.7856801,-2.686928,-64.54,524.86,92.9425
380,203432,0.9381801,0.372344,-2.5866439999999997,-53.795,458.57,126.4025
381,203529,-0.569984,-0.567788,-1.17486,-100.24,447.8775,123.375
382,203626,4.940268,0.509472,-4.0911480000000005,-154.595,491.2075,148.295
383,203723,3.658292,1.595516,-4.432748,-170.31,201.2675,119.7875
384,203821,1.17974,1.724592,-3.179076,-100.2575,-106.19,89.9675
385,203918,-0.554856,1.2336639999999999,-1.837808,6.0025,-233.52,76.3875
386,204015,-0.677344,0.665876,-1.123376,83.755,-215.67,72.24
387,204112,-0.35038400000000003,0.242048,-0.846924,107.5725,-185.8675,70.63
388,204209,-0.030744,0.038551999999999996,-0.8544879999999999,81.41001,-188.5975,57.2075
389,204306,0.130052,0.10638399999999999,-0.9125601000000001,31.2725,-218.435,35.875
390,204403,0.0793,0.287188,-0.9037761000000001,-10.535,-257.7575,16.135
391,204500,0.124196,0.398452,-0.8937719999999999,-25.83,-287.21,3.8675
392,204597,0.24766,0.44383599999999995,-0.8569280999999999,-20.195,-306.7225,-3.22
393,204694,0.358192,0.396256,-0.8239880999999999,-5.0225,-324.5725,-8.47
394,204791,0.48385200000000006,0.31012399999999996,-0.808372,6.72,-342.2125,-16.3275
395,204888,0.6097560000000001,0.24326799999999998,-0.828624,7.595,-361.8125,-29.0675
396,204985,0.6878361,0.233996,-0.8357,0.3675,-383.1975,-45.64
397,205082,0.7324881,0.22667600000000002,-0.8520479999999999,-8.2425,-402.85,-63.5425
398,205179,0.8176439999999999,0.173728,-0.897432,-14.14,-415.9225,-80.36
399,205276,0.9557479999999999,0.10760399999999999,-0.961116,-20.055,-424.0425,-94.46500999999999
400,205373,1.0919,0.0,-0.9950319999999999,-29.2775,-430.675,-104.1425
401,205471,1.262944,-0.064416,-1.043344,-45.85,-434.56,-108.7625
402,205568,1.580876,-0.013663999999999999,-1.178764,-67.4275,-433.5275,-106.54
403,205665,1.8773360000000001,0.057339999999999995,-1.34322,-84.77,-434.0,-99.75
404,205762,2.136952,0.17055599999999999,-1.528416,-95.8125,-438.165,-94.5
405,205859,2.4443919999999997,0.415288,-1.713368,-97.4225,-443.5025,-98.035
406,205956,2.815516,0.6588,-1.724104,-80.045,-447.58,-109.2525
407,206053,2.986316,0.657824,-1.474492,-45.885,-450.135,-122.885
408,206150,3.0768400000000002,0.405528,-1.131184,-17.675,-441.2275,-136.8675
409,206247,3.2981480000000003,0.301584,-0.8076399999999999,-15.715,-417.6025,-149.6425
410,206344,3.464068,0.127856,-0.35014,-28.3325,-385.5775,-155.365
411,206441,3.467972,-0.05002,0.285236,-49.56,-345.8175,-158.0075
412,206538,3.420636,-0.19276,1.045784,-70.84000999999999,-293.8425,-163.24
413,206635,3.831288,-0.727608,1.8358560000000002,-81.2875,-227.885,-170.5725
414,206732,4.684556,-0.5934081,2.773792,-90.44001,-158.27,-180.915
415,206829,4.128480000000001,-0.43554,3.5023760000000004,-64.4,-96.1975,-158.8475
416,206926,2.9697240000000003,-0.563884,3.046828,-3.7625,4.7775,-92.3125
417,207023,1.620892,0.06636801,0.3843,40.7225,139.02,-14.3325
418,207121,0.524356,0.788608,-0.5121560000000001,109.305,263.3925,46.9875
419,207218,0.423096,1.924916,-1.792668,193.4275,317.975,122.7975
420,207315,-0.006344,-1.484984,0.13761600000000002,287.14,289.9225,199.115
421,207412,1.8839240000000002,-1.288076,-1.586488,148.435,343.1225,71.8725
422,207509,2.570296,-1.479372,-1.8292680000000001,16.8525,340.13,-51.59
423,207606,2.1569599999999998,-1.499624,-1.4186159999999999,11.6725,278.67,-0.525
424,207703,1.545984,0.196176,-1.357372,-33.5125,223.37,16.9575
425,207800,1.688236,1.791936,-1.358104,-9.4325,187.88,38.71
426,207897,1.0704280000000002,0.829356,-0.9642879999999999,44.0125,137.165,30.73
427,207994,2.0498439999999998,-1.32736,-1.44448,68.8975,117.0575,36.8725
428,208091,0.51484,0.3965,-0.80886,32.9875,42.7525,27.7025
429,208188,0.6021920000000001,0.489464,-0.8632719999999999,33.53,35.175,22.9775
430,208285,0.754204,-0.14713199999999999,-0.9479401,48.3,30.695,31.2025
431,208382,0.671488,0.033672,-0.8703481,39.6725,21.7525,25.2175
432,208480,0.630008,-0.039284,-0.8662001,32.725,14.5775,19.075
433,208577,0.6280560000000001,-0.034404000000000004,-0.8752280000000001,25.935,10.0625,14.0
434,208674,0.67466,-0.096868,-0.894748,20.545,7.5425,8.785
435,208771,0.5675439999999999,0.0034159999999999998,-0.843508,10.3075,1.61,-1.4525
436,208868,0.5577840000000001,0.011956,-0.847412,6.055,-1.2075,-5.075
437,208965,0.5702281,0.021472,-0.8364321,4.585,1.7675,-3.92
438,209062,0.571692,0.00122,-0.8352120000000001,2.975,4.0775,-3.5175
439,209159,0.554856,0.0366,-0.8342360000000001,1.925,5.845,-3.9725
440,209256,0.554124,0.047336,-0.8327720999999999,1.9075,7.84,-3.9375
441,209353,0.559736,0.071004,-0.8298440999999999,2.1875,9.6075,-4.0075
442,209450,0.577548,0.066124,-0.8244761,2.555,11.34,-4.41
443,209547,0.5726680000000001,0.047824,-0.8169121,2.8175,11.4625,-4.655
444,209644,0.580476,0.046360000000000005,-0.8169121,2.8525,11.9,-4.375
445,209742,0.5795,0.037332,-0.8166680000000001,3.2025,12.4775,-4.83
446,209839,0.572912,0.026351999999999997,-0.822768,2.695,13.4575,-4.1825
447,209936,0.562176,0.02074,-0.8332601000000001,1.54,15.645,-3.92
448,210033,0.565836,0.041236,-0.828624,0.2275,19.0925,-4.13
449,210130,0.575596,0.0427,-0.8215481,-0.875,22.96,-4.305
450,210227,0.56242,0.05636401,-0.835456,-1.6975,25.865,-3.5175
451,210324,0.571692,0.033916,-0.8274040000000001,-1.5925,30.1,-2.975
452,210421,0.556808,-0.005612,-0.841556,-2.1175,34.895,-2.2225
453,210518,0.5743761,0.020252000000000003,-0.8371639999999999,-5.9675,41.6675,0.5075
454,210615,0.588284,0.009028000999999999,-0.8149601,-8.295,47.8275,1.4525
455,210712,0.5885281,0.01342,-0.826672,-10.5525,54.215,2.275
456,210809,0.5856,0.019764,-0.820816,-12.25,60.0425,2.8175
457,210906,0.600484,0.018056,-0.808372,-13.895,67.3225,3.5525
458,211003,0.612684,0.02562,-0.7881199999999999,-16.0475,74.06,4.55
459,211101,0.609024,0.019275999999999998,-0.7856801,-17.78,79.9575,5.215
460,211198,0.602436,0.007564001,-0.7832399999999999,-17.8325,85.71500999999999,4.4275
461,211295,0.59292,-0.011468,-0.797392,-16.6075,92.505,2.38
462,211392,0.59658,0.011712,-0.787144,-15.3125,101.1325,0.525
463,211489,0.5958479999999999,0.020008,-0.789828,-14.28,113.5925,0.7175
464,211586,0.624152,-0.001952,-0.772016,-13.5625,128.135,1.8725
465,211683,0.6095119999999999,-0.006832001,-0.7771399999999999,-12.6,143.92,2.24
466,211780,0.60634,0.027816000000000004,-0.781532,-10.3425,163.8,2.345
467,211877,0.646844,0.04392,-0.8108121,-8.0325,184.7825,-0.4025
468,211974,0.571692,0.09442801,-0.82594,-6.0375,194.285,-6.02
469,212071,0.582428,0.08052000000000001,-0.8571719999999999,-3.6925,231.77,-4.4625
470,212168,0.798856,0.15396400000000002,-0.9459880999999999,-2.555,276.465,-7.875
471,212265,0.7612800999999999,0.079056,-0.944524,-9.03,303.5025,-27.4575
472,212363,0.8818159999999999,0.018056,-0.8239880999999999,-29.4175,329.1225,-40.18
473,212460,1.2195120000000002,0.201544,-0.9818561,-73.6225,384.9125,-41.5275
474,212557,1.924916,0.49702799999999997,-1.317356,-122.7275,440.51,-25.4275
475,212654,2.3075080000000003,0.5009319999999999,-1.551352,-132.615,480.2,6.5975
476,212751,2.523936,0.38552,-1.558184,-116.9875,488.8275,42.6125
477,212848,2.3614319999999998,0.25424800000000003,-1.885388,-104.615,497.1225,64.155
478,212945,2.2326,0.733464,-2.478308,-105.2275,502.0925,82.4775
479,213042,1.5469600000000001,0.514352,-2.373144,-86.4325,456.54,118.9825
480,213139,-0.33623200000000003,-0.07588400000000001,-1.9890880000000002,-105.4375,423.64,128.975
481,213236,2.490508,-0.088328,-1.6674959999999999,-150.8675,462.105,141.05
482,213333,4.097004,1.136552,-4.075044,-180.845,383.705,132.9475
483,213430,2.455372,1.825852,-3.614372,-143.92,26.11,94.67501
484,213527,0.219356,1.49938,-2.269688,-39.3925,-171.9375,72.2225
485,213625,-0.45579200000000003,0.9186601000000001,-1.3144280000000002,63.6825,-208.39,65.4675
486,213722,-0.3538,0.320616,-0.8559521000000001,116.445,-181.895,63.56
487,213819,-0.09418401,-0.017324000000000003,-0.7373681,104.37,-174.825,53.095
488,213916,0.05246,-0.040016,-0.7664041,52.78,-193.8475,32.69
489,214013,0.062464,0.18324400000000002,-0.8049561,-1.19,-224.3325,12.4425
490,214110,0.086132,0.363072,-0.822768,-27.3875,-251.0375,1.085
491,214207,0.185928,0.41846000000000005,-0.8164239999999999,-25.7775,-269.955,-3.115
492,214304,0.296216,0.389912,-0.803248,-11.8475,-286.5975,-5.705
493,214401,0.38795999999999997,0.299388,-0.782508,1.0675,-304.5525,-10.1325
494,214498,0.44944799999999996,0.223504,-0.771772,4.3925,-324.205,-19.145
495,214595,0.506544,0.20178800000000002,-0.768356,-0.4375,-343.7525,-31.99
496,214692,0.574132,0.19885999999999998,-0.788852,-7.385,-361.4625,-46.725
497,214789,0.674416,0.175924,-0.8371639999999999,-12.4775,-376.7225,-61.845
498,214886,0.794708,0.121024,-0.9089001,-15.645,-390.215,-76.545
499,214983,0.9381801,0.06588,-0.9803921,-19.7925,-403.375,-89.285
500,215081,1.0784799999999999,0.023668,-1.04554,-25.4975,-415.87,-98.91001
501,215178,1.187548,-0.005368,-1.071404,-31.7275,-427.56,-104.09
502,215275,1.303692,-0.057096,-1.136552,-39.305,-433.9125,-103.915
503,215372,1.559892,-0.09613601,-1.289052,-50.7675,-431.6725,-99.925
504,215469,1.8831919999999998,-0.08344800000000001,-1.505236,-65.9225,-429.2575,-94.90250999999999
505,215566,2.231624,0.023180000000000003,-1.711416,-80.2725,-431.0775,-91.9625
506,215663,2.650572,0.25132,-1.842932,-85.1375,-436.03,-93.87
507,215760,2.9746040000000002,0.355996,-1.719712,-70.5775,-443.38,-100.1175
508,215857,3.1107560000000003,0.2623,-1.402268,-46.235,-447.125,-110.4075
509,215954,3.290096,0.281088,-1.01504,-32.445,-435.6625,-118.37
510,216051,3.426736,0.2135,-0.5009319999999999,-27.1425,-409.1675,-117.4075
511,216148,3.4555279999999997,-0.053191999999999996,0.199104,-34.3525,-368.7075,-112.0
512,216245,3.346704,-0.43944399999999995,0.9945440000000001,-63.6125,-315.3675,-112.5775
513,216342,3.675616,-1.172908,1.753384,-111.055,-250.1625,-127.155
514,216440,4.658448,-0.7017439999999999,2.6059200000000002,-165.1475,-184.4675,-163.9575
515,216537,4.417132,-0.02928,3.493836,-141.2075,-131.7575,-176.54
516,216634,2.81576,-0.305,3.420148,-23.59,-35.2625,-116.305
517,216731,2.50222,-0.81252,1.958832,71.3125,128.415,-21.2275
518,216828,0.9235399999999999,-0.011468,-0.676856,105.91,231.805,50.995
519,216925,0.761524,1.921988,-2.675704,181.965,326.235,109.34
520,217022,0.43212399999999995,-0.23692399999999997,-0.30866,282.17,272.825,203.6825
521,217119,0.638548,-2.065216,-0.610488,236.215,298.3575,155.575
522,217216,1.991772,-0.85888,-1.921744,35.8575,338.7125,-35.9275
523,217313,2.250412,-1.985672,-1.286856,18.2,301.91,-21.805
524,217410,1.9886,-0.232776,-1.449116,-24.2375,251.23,0.945
525,217507,2.085712,1.70312,-1.74216,-18.76,205.1525,31.115
526,217604,1.155584,1.29198,-0.9525761,37.59,142.52,34.6675
527,217701,1.9337,-1.41764,-1.2383,72.7475,108.57,30.835
528,217798,0.8188641,-0.018544,-0.960628,40.11,41.1425,27.3175
529,217895,0.604144,0.4933681,-0.769576,23.73,29.3825,15.8725
530,217993,0.726876,-0.20178800000000002,-0.90402,36.3475,21.28,20.7375
531,218090,0.6307401,0.037088,-0.8540000000000001,28.035,14.6825,16.2225
532,218187,0.60634,-0.019032,-0.868152,22.75,8.295,11.62
533,218284,0.60146,0.07344400000000001,-0.835456,17.9025,7.7,7.7
534,218381,0.6080479999999999,-0.070516,-0.859368,16.1525,5.4775,5.9675
535,218478,0.62708,-0.081984,-0.870592,10.29,3.9375,1.05
536,218575,0.5736441,0.026351999999999997,-0.839116,3.465,0.805,-4.8125
537,218672,0.561688,0.000244,-0.8430200999999999,1.925,1.7675,-5.845
538,218769,0.57218,0.040748,-0.832528,0.42,3.605,-6.125
539,218866,0.5653481,0.029036000000000003,-0.8300879999999999,-0.105,4.69,-5.81
540,218963,0.562664,0.05124001,-0.8249639999999999,-0.28,5.39,-5.4075
541,219060,0.5587601,0.04514,-0.8235001000000001,-0.1225,6.02,-5.11
542,219157,0.5612,0.057584,-0.8244761,0.0175,7.2275,-5.3025
543,219254,0.563396,0.06466001,-0.822768,0.0175,8.4175,-5.4425
544,219352,0.5675439999999999,0.058316,-0.818376,0.2275,9.31,-5.4775
545,219449,0.567788,0.036844,-0.818132,0.455,9.765,-5.39
546,219546,0.5736441,0.033672,-0.823256,0.035,11.2175,-5.1625
547,219643,0.5692520000000001,0.03538,-0.8215481,-0.8225,12.67,-4.9875
548,219740,0.56852,0.0427,-0.820572,-1.7325,14.56,-4.795
549,219837,0.576328,0.034892,-0.817156,-2.66,16.7475,-4.095
550,219934,0.5697399999999999,0.029524,-0.8276481,-3.1675,19.04,-4.0775
551,220031,0.586332,0.039772,-0.815448,-2.765,22.2425,-4.8475
552,220128,0.584136,0.041724000000000004,-0.809836,-2.835,24.605,-4.515
553,220225,0.5846241,0.04392,-0.81862,-3.15,26.8275,-4.3925
554,220322,0.554856,0.011956,-0.8378960999999999,-4.2875,29.3125,-4.305
555,220419,0.5738880000000001,0.0427,-0.827892,-6.8075,34.9125,-4.025
556,220516,0.5543680000000001,0.036844,-0.8461921,-8.225,41.8075,-5.1975
557,220613,0.576328,0.034892,-0.8298440999999999,-10.0625,49.105,-5.3725
558,220710,0.585112,0.03172,-0.81862,-11.76,56.455,-5.46
559,220807,0.585356,0.029768,-0.813496,-13.44,63.42,-5.6175
560,220905,0.58194,0.008296000999999999,-0.812276,-14.3675,70.3675,-6.1425
561,221002,0.5934081,0.003172,-0.81862,-15.12,78.085,-7.4375
562,221099,0.580964,0.0122,-0.822768,-15.8725,86.17,-8.715
563,221196,0.584868,0.027083999999999997,-0.8103239999999999,-17.0625,96.86251,-8.155
564,221293,0.580964,0.02562,-0.8095920999999999,-18.445,109.3925,-6.3875
565,221390,0.5926760999999999,0.028792,-0.8108121,-19.145,124.1275,-5.6875
566,221487,0.5602239999999999,0.043188,-0.8203280000000001,-18.41,141.7325,-6.335
567,221584,0.54656,0.05612,-0.8520479999999999,-17.3075,166.81,-7.1925
568,221681,0.552172,0.119804,-0.925736,-15.5225,196.7875,-5.3025
569,221778,0.48068,0.10248,-0.913048,-13.72,216.4225,-8.4525
570,221875,0.5070319999999999,0.144204,-0.92232,-10.9725,249.5325,-9.3275
571,221972,0.58316,0.147376,-0.9435479999999999,-9.5375,306.0225,-10.08
572,222069,0.822524,0.051972000000000004,-0.9298841,-16.205,353.255,-18.2875
573,222166,0.8903561,0.05246,-0.877668,-48.86,385.245,-36.085
574,222263,1.452288,0.264008,-1.1333799999999998,-105.4725,438.76,-33.8975
575,222360,2.523692,0.5170359999999999,-1.553304,-142.8525,488.145,-14.77
576,222457,2.59128,0.4933681,-1.759484,-128.905,506.17,20.8775
577,222555,2.5705400000000003,0.349652,-1.789984,-103.1625,504.805,53.4275
578,222652,2.17282,0.649284,-2.428044,-100.3275,509.145,71.505
579,222749,1.5906360000000002,0.62708,-2.5061240000000002,-89.425,471.45,102.2175
580,222846,0.12761199999999998,0.194224,-2.119628,-93.8525,428.015,117.775
581,222943,0.212524,-0.34404,-0.633668,-137.305,443.17,120.4175
582,223040,4.366624,0.924516,-3.8610559999999996,-168.91,474.11,147.9625
583,223137,3.178344,1.6143040000000002,-4.122136,-153.86,165.48,121.6425
584,223234,1.068232,1.505724,-2.9319040000000003,-73.0625,-114.24,90.51001
585,223331,-0.44115200000000004,1.074332,-1.70068,21.7875,-239.4175,69.79
586,223428,-0.57828,0.5185,-1.0321200000000001,84.455,-232.7325,60.7775
587,223525,-0.260104,0.08417999999999999,-0.7734800000000001,95.07751,-211.12,53.97
588,223622,0.018056,-0.09320801,-0.773968,57.6625,-220.3775,37.8875
589,223719,0.116876,0.012688,-0.8332601000000001,1.8025,-251.7025,15.2075
590,223816,0.151524,0.24644000000000002,-0.8764481,-38.4125,-284.55,-4.8125
591,223914,0.24570799999999998,0.405528,-0.8945040000000001,-45.045,-307.7025,-16.1875
592,224011,0.369172,0.411628,-0.8866961,-25.7425,-324.52,-21.6125
593,224108,0.449692,0.29646,-0.8413120000000001,-0.1925,-340.2175,-25.76
594,224205,0.516792,0.159576,-0.8117880000000001,15.0675,-355.8275,-32.655
595,224302,0.594384,0.08296,-0.81618,15.6625,-370.7375,-43.645
596,224399,0.6441600000000001,0.077592,-0.823256,8.295,-385.42,-56.735
597,224496,0.713212,0.07881200000000001,-0.8781559999999999,1.1725,-396.1125,-70.5775
598,224593,0.8796200000000001,0.060512,-0.9852719999999999,-2.8875,-402.5525,-83.86001
599,224690,1.1065399999999999,-0.0017079999999999999,-1.106296,-5.6175,-409.0625,-94.4125
600,224787,1.3407799999999999,-0.066856,-1.1855959999999999,-11.1475,-419.755,-100.38
601,224884,1.504504,-0.06466001,-1.249036,-22.47,-433.265,-99.9425
602,224981,1.707024,-0.01342,-1.320284,-34.6675,-440.545,-92.5925
603,225078,1.962492,0.02806,-1.435452,-43.6275,-443.6075,-83.02
604,225175,2.22894,0.118828,-1.5738,-49.665,-445.8825,-77.5075
605,225273,2.579568,0.35087199999999996,-1.5969799999999998,-50.05,-447.0725,-79.485
606,225370,2.8286919999999998,0.6563601,-1.463268,-35.3325,-446.845,-86.34501
607,225467,2.916044,0.669048,-1.1636360000000001,-2.31,-438.095,-93.765
608,225564,3.023892,0.489464,-0.8188641,24.4125,-415.275,-102.06
609,225661,3.191764,0.222284,-0.40894400000000003,21.1575,-382.0425,-109.375
610,225758,3.266428,-0.07808001,0.134444,-13.3525,-343.8925,-116.97
611,225855,3.2339759999999997,-0.292556,0.7427361,-68.6175,-299.32,-132.3875
612,225952,3.464312,-0.721264,1.32736,-117.0225,-244.72,-157.5525
613,226049,4.519612,-0.535824,2.189168,-143.7275,-186.235,-192.325
614,226146,4.5506,-0.105896,3.2400759999999997,-113.085,-141.855,-202.3875
615,226243,2.774768,-0.28621199999999997,3.420636,-12.8625,-65.9925,-143.3775
616,226340,2.507588,-0.8359440999999999,2.3128759999999997,72.8,94.57,-38.22
617,226437,1.083604,-0.098576,-0.8640040000000001,73.16751,200.9525,44.905
618,226534,0.274988,1.180472,-1.045784,81.81251,281.0675,95.515
619,226632,-0.037332,1.44814,-2.19722,166.0925,263.4625,158.725
620,226729,-0.298168,-1.2883200000000001,0.24717199999999998,205.1,279.5625,178.9725
621,226826,1.7265439999999999,-0.130296,-1.5079200000000001,57.8025,325.955,16.3975
622,226923,2.446832,-1.3261399999999999,-1.7394759999999998,-0.105,322.875,-54.81
623,227020,1.7043400000000002,-1.072624,-1.1407,-8.4525,254.8175,-20.755
624,227117,2.124752,0.7068681,-1.9293080000000002,-38.4475,223.2475,1.47
625,227214,1.7746119999999999,1.436184,-1.250988,5.2675,184.345,34.72
626,227311,2.090592,-0.22472399999999998,-1.3527360000000002,44.59,109.935,19.8275
627,227408,0.7661600000000001,-0.7300479999999999,-0.9154880999999999,45.22,55.825,25.1475
628,227505,0.791536,0.6273241,-0.928176,16.3975,25.2175,13.4225
629,227602,0.642452,0.00488,-0.845216,23.52,18.27,14.3675
630,227699,0.6453800000000001,0.057584,-0.873276,22.7675,10.92,15.015
631,227796,0.529724,0.122976,-0.8398479999999999,17.3425,4.8825,10.71
632,227893,0.570716,0.025376,-0.855708,17.5525,6.44,10.3425
633,227991,0.5614439999999999,0.09247601,-0.8342360000000001,15.5225,6.65,8.54
634,228088,0.5858439999999999,-0.00244,-0.8522921,15.085,6.65,7.4375
635,228185,0.5948720000000001,-0.008296000999999999,-0.8591241,12.0575,6.3175,4.7775
636,228282,0.578036,0.03172,-0.8466800999999999,7.7875,5.3725,1.5225
637,228379,0.5814520000000001,0.006587999999999999,-0.8540000000000001,5.355,5.8625,-0.4725
638,228476,0.5702281,0.031232,-0.8447280999999999,2.38,5.8975,-2.5725
639,228573,0.5546121,0.0488,-0.834968,0.3325,6.0725,-3.9725
640,228670,0.532408,0.071492,-0.823256,-0.035,6.9125,-4.1125
641,228767,0.51972,0.11126400000000002,-0.823256,0.8575,8.785,-3.2025
642,228864,0.527772,0.13298,-0.808372,3.36,11.76,-1.12
643,228961,0.54656,0.11541199999999999,-0.8166680000000001,6.335,14.07,0.6475
644,229058,0.5636399999999999,0.0854,-0.8261841000000001,8.085,14.9275,1.1725
645,229155,0.62464,0.0051240009999999996,-0.8579041,7.8575,15.295,-0.07
646,229252,0.5787680000000001,0.042944,-0.8230120999999999,3.325,12.915,-4.9525
647,229349,0.559248,0.05636401,-0.822768,0.8575,11.235,-5.5825
648,229446,0.571692,0.055388,-0.820084,0.14,13.055,-3.71
649,229544,0.5814520000000001,0.05002,-0.81862,-0.8575,14.175,-3.92
650,229641,0.577548,0.053191999999999996,-0.818376,-2.0475,15.785,-3.885
651,229738,0.5736441,0.040748,-0.82594,-2.975,17.92,-3.6925
652,229835,0.582184,0.042212,-0.815692,-3.465,20.265,-3.8675
653,229932,0.5838920999999999,0.05002,-0.8174001000000001,-3.9725,22.785,-4.235
654,230029,0.584868,0.039284,-0.8178880999999999,-4.1125,25.2175,-4.795
655,230126,0.564128,0.019275999999999998,-0.831308,-4.865,28.5075,-5.495
656,230223,0.562176,0.055388,-0.8418,-8.085,33.635,-6.02
657,230320,0.5587601,0.039528,-0.834968,-9.9225,40.95,-7.0
658,230417,0.567056,0.043676,-0.8244761,-11.6375,48.4925,-8.33
659,230514,0.561688,0.050752,-0.821304,-13.5975,56.0175,-9.345
660,230611,0.579256,0.047824,-0.8132520999999999,-15.6975,64.645,-9.835
661,230709,0.5968241,0.037576,-0.8030041,-17.01,71.7675,-10.08
662,230806,0.5978,0.025376,-0.8049561,-18.06,79.03,-10.815
663,230903,0.586576,0.023912,-0.8169121,-19.145,87.185,-11.2
664,231000,0.583648,0.041724000000000004,-0.8215481,-20.4225,97.825,-11.655
665,231097,0.584868,0.048068,-0.8047121,-21.875,111.335,-13.0375
666,231194,0.577304,0.054412,-0.8247200000000001,-23.31,126.3325,-14.56
667,231291,0.5577840000000001,0.07027201,-0.821304,-24.92,145.5825,-16.8175
668,231388,0.543876,0.104432,-0.8296,-26.705,170.3975,-19.985
669,231485,0.653676,0.142252,-0.904508,-28.91,199.115,-22.5575
670,231582,0.5011760000000001,0.12175599999999999,-0.889136,-31.3775,207.76,-30.66
671,231679,0.525576,0.063684,-0.9010921000000001,-31.5,245.5075,-30.3975
672,231777,0.563884,0.09638,-0.8927959999999999,-35.98,296.73,-35.5075
673,231874,0.7686,-0.01586,-0.87108,-48.1425,343.665,-49.4725
674,231971,0.9228081,0.014396,-0.8769360999999999,-83.825,377.335,-66.60501
675,232068,1.4313040000000001,0.329888,-1.134112,-139.8075,426.5275,-65.5375
676,232165,2.312632,0.643428,-1.42496,-171.22,473.0075,-43.4175
677,232262,2.401448,0.7285841,-1.617964,-155.4175,490.63,-2.17
678,232359,2.512956,0.333548,-1.57136,-126.4725,487.2875,35.3675
679,232456,2.044232,0.46457600000000004,-2.131096,-135.3275,490.63,42.6825
680,232553,1.651148,0.6451359999999999,-2.3614319999999998,-153.685,468.1425,62.9475
681,232650,0.57096,0.313784,-2.130608,-154.84,428.19,95.9
682,232747,-0.505568,-0.377956,-1.402756,-196.0875,432.145,109.165
683,232844,3.90522,0.6224441,-3.390136,-247.1175,457.8175,154.665
684,232942,3.3491440000000003,1.788764,-4.018924,-216.9475,252.4375,166.4775
685,233039,1.7829080000000002,1.890756,-3.3088839999999995,-112.4725,-59.43,143.3075
686,233136,0.06929600000000001,1.384944,-2.03008,11.235,-230.1775,115.675
687,233233,-0.500688,0.845216,-1.1651,101.6225,-259.84,103.075
688,233330,-0.376736,0.3233,-0.7324881,139.02,-236.6875,100.8
689,233427,-0.14493599999999998,0.03416,-0.6304960000000001,120.9425,-230.6675,93.6425
690,233524,0.067588,-0.001952,-0.6802720999999999,68.075,-246.0325,75.25
691,233621,0.190076,0.219844,-0.7705521,11.795,-273.245,52.955
692,233718,0.31524800000000003,0.478484,-0.849608,-19.215,-301.21,35.9975
693,233816,0.417972,0.6007279999999999,-0.8527800999999999,-17.36,-325.605,26.1275
694,233912,0.466528,0.567788,-0.793244,3.5525,-346.3775,19.565
695,234010,0.49166000000000004,0.44505600000000006,-0.720532,22.89,-362.5825,11.935
696,234107,0.533872,0.329644,-0.677588,28.385,-374.5175,-0.035
697,234204,0.599264,0.28304,-0.679784,20.09,-384.475,-16.6425
698,234301,0.725168,0.29572800000000005,-0.764696,5.7925,-391.8075,-36.3475
699,234398,0.895236,0.333304,-0.882548,-6.37,-399.21,-57.0675
700,234495,1.06628,0.34794400000000003,-0.9964959999999999,-11.935,-408.2575,-76.6325
701,234592,1.240008,0.31451599999999996,-1.0858,-11.97,-418.1975,-92.68001
702,234689,1.436428,0.26352,-1.206092,-11.6025,-427.665,-104.93
703,234786,1.64212,0.207644,-1.3066200000000001,-14.3675,-435.855,-113.155
704,234883,1.847568,0.17934,-1.42862,-21.6475,-442.82,-118.265
705,234980,2.088396,0.177144,-1.5464719999999998,-32.27,-446.075,-121.31
706,235077,2.372656,0.298168,-1.624552,-42.9975,-446.6175,-125.09
707,235175,2.680828,0.49044,-1.5616,-44.7125,-442.82,-128.73
708,235272,2.842356,0.42285200000000006,-1.3005200000000001,-31.4475,-433.755,-132.2475
709,235369,2.999248,0.37088000000000004,-1.0248,-20.6325,-415.1875,-137.025
710,235466,3.2217759999999998,0.24522,-0.643672,-22.715,-384.965,-133.0
711,235563,3.355976,0.00122,-0.13078399999999998,-40.25,-349.615,-121.1175
712,235660,3.3203519999999997,-0.339404,0.520208,-78.48751,-310.52,-113.5575
713,235757,3.5089639999999997,-1.153144,1.343464,-133.525,-265.37,-120.4
714,235854,4.406152,-0.81374,2.362896,-205.3975,-216.195,-155.05
715,235951,4.3793120000000005,0.059048,3.228852,-208.285,-174.405,-175.14
716,236048,2.723284,0.020984,3.314496,-93.2575,-90.28251,-114.8875
717,236145,1.1956,-0.11541199999999999,1.520364,29.1025,67.7075,5.5475
718,236242,1.1873040000000001,0.374296,1.21634,129.045,249.4975,98.1575
719,236339,1.65432,1.134844,-2.049356,227.6225,336.6475,180.1625
720,236437,1.253916,0.19178399999999998,-1.408368,291.06,291.2525,210.665
721,236534,-0.13761600000000002,-1.9820119999999999,-0.23448400000000003,247.24,241.1675,139.7025
722,236631,1.33346,-0.774944,-1.473516,48.055,297.5525,-51.4675
723,236728,2.460984,-1.673352,-1.579656,12.1625,307.7725,-69.125
724,236825,2.196732,-1.452288,-1.349564,-11.5675,251.055,-27.86
725,236922,2.3807080000000003,0.42822,-1.8465919999999998,-31.9375,195.9125,23.8175
726,237019,0.8642481,1.646268,-0.8801081000000001,-7.8575,124.4775,45.675
727,237116,1.75436,0.5072760000000001,-1.249036,28.0175,96.3025,23.3975
728,237213,0.7032079999999999,-0.549488,-0.855708,45.71,57.4525,26.4775
729,237310,0.7598161,0.511424,-0.9464761,28.84,28.98,21.84
730,237407,0.5978,0.16835999999999998,-0.8296,33.985,22.4525,21.8925
731,237504,0.5926760999999999,0.041968,-0.8703481,37.4675,15.7675,24.115
732,237601,0.5653481,0.10760399999999999,-0.8486319999999999,34.405,13.8425,21.4375
733,237698,0.6075600999999999,0.0183,-0.8657120999999999,33.6175,13.09,19.985
734,237796,0.6178081,-0.009516001,-0.85888,29.5925,10.9725,16.94
735,237893,0.604876,-0.034892,-0.869616,24.71,6.475,13.2125
736,237990,0.611464,-0.010736,-0.8481440999999998,20.1425,5.355,9.695
737,238087,0.6344,-0.091988,-0.8759601,15.6275,2.975,6.58
738,238184,0.581208,-0.005368,-0.8403360000000001,7.4725,0.9275,0.7
739,238281,0.56852,0.017568,-0.8388721,2.8,0.63,-2.695
740,238378,0.5655920999999999,0.039528,-0.8327720999999999,1.7675,1.9775,-3.0275
741,238475,0.55266,0.041236,-0.832528,1.155,3.0625,-3.3775
742,238572,0.547048,0.06539201,-0.8283799999999999,1.505,4.2875,-3.5175
743,238669,0.549732,0.079544,-0.8276481,2.52,5.2675,-3.71
744,238766,0.56242,0.070516,-0.8235001000000001,3.4125,5.7575,-3.71
745,238863,0.563884,0.057584,-0.8215481,3.5875,5.81,-3.4125
746,238961,0.568032,0.029524,-0.823256,3.395,6.7025,-3.71
747,239058,0.57096,0.028304000000000003,-0.8261841000000001,2.625,7.8225,-3.4825
748,239155,0.569984,0.043188,-0.820572,1.925,8.8725,-4.1825
749,239252,0.564128,0.054655999999999996,-0.823256,1.505,10.605,-4.34
750,239349,0.5726680000000001,0.039284,-0.815936,0.8400001,11.9875,-4.375
751,239446,0.570472,0.023668,-0.821792,-0.0525,13.93,-4.55
752,239543,0.56852,0.046360000000000005,-0.8271601000000001,-0.7175,15.96,-4.865
753,239640,0.5751081,0.059536,-0.8169121,-0.665,17.71,-5.2675
754,239737,0.5736441,0.049288,-0.817156,-0.9625,19.6525,-5.3025
755,239834,0.576816,0.0549,-0.8193521,-1.2775,21.6475,-5.145
756,239931,0.5602239999999999,0.057339999999999995,-0.833016,-1.2075,23.8525,-5.495
757,240028,0.5753520000000001,0.047580000000000004,-0.8296,-1.3475,27.965,-5.9675
758,240125,0.5314321,0.054655999999999996,-0.8586360000000001,-3.185,32.9175,-4.8125
759,240223,0.5797441,0.035136,-0.8430200999999999,-5.6175,41.755,-3.3075
760,240320,0.568764,0.040016,-0.840824,-8.9075,48.9825,-1.2075
761,240417,0.581208,0.026108,-0.8274040000000001,-12.4425,57.645,0.9975
762,240514,0.586332,0.026595999999999998,-0.820816,-16.9225,65.6075,3.8675
763,240611,0.58804,0.026595999999999998,-0.8117880000000001,-20.09,72.6075,5.915
764,240708,0.59048,0.017324000000000003,-0.8113001,-21.35,79.17,5.2325
765,240805,0.583404,0.029036000000000003,-0.818376,-20.125,85.5925,2.3275
766,240902,0.59292,0.031476,-0.8076399999999999,-17.0625,93.6775,-0.2625
767,240999,0.595116,0.008784,-0.80886,-14.385,102.55,-0.9275
768,241096,0.5914560000000001,-0.000732,-0.8100801,-11.5325,113.0675,-0.35
769,241193,0.579256,0.038308,-0.812276,-9.9925,128.135,1.82
770,241290,0.5463161,0.056852,-0.8525360000000001,-9.1875,148.8375,5.0575
771,241387,0.520208,0.098576,-0.8601,-7.42,177.5725,9.45
772,241485,0.508008,0.102724,-0.877668,-4.7075,217.1225,14.0
773,241582,0.5653481,0.07832401,-0.8827921000000001,-1.5925,255.1675,13.16
774,241679,0.564372,0.138348,-0.919636,-1.1375,283.675,12.04
775,241776,0.815448,0.142008,-0.8466800999999999,-5.8975,343.56,11.025
776,241873,0.874252,0.09223200000000001,-0.942816,-30.8,381.3775,-1.8375
777,241970,1.294908,0.17616800000000002,-1.060668,-68.425,409.64,-10.7625
778,242067,2.175748,0.428708,-1.452776,-103.425,456.4175,-1.6275
779,242164,2.527108,0.5072760000000001,-1.6560279999999998,-101.6925,476.5425,26.845
780,242261,2.5175919999999996,0.326228,-1.561844,-77.1925,469.875,59.08
781,242358,2.241628,0.599508,-2.0752200000000003,-70.525,471.52,76.8075
782,242455,1.713368,0.69662,-2.365336,-59.815,434.2625,104.4575
783,242552,0.681248,0.414312,-2.1167,-54.075,390.355,120.645
784,242650,-0.787632,-0.28181999999999996,-1.353712,-78.0325,391.3175,117.04
785,242747,2.654476,0.114924,-2.457568,-102.235,417.55,146.2475
786,242844,3.125396,0.965752,-3.51482,-126.63,290.185,127.6975
787,242941,1.7448439999999998,1.340048,-2.999736,-100.065,3.395,99.31251
788,243038,-0.008052001,1.18462,-1.87758,-31.78,-153.5275,72.765
789,243135,-0.5543680000000001,0.780068,-1.0889719999999998,38.115,-181.405,55.545
790,243232,-0.387228,0.322812,-0.745664,75.81,-158.13,43.68
791,243329,-0.09150001,0.040260000000000004,-0.693692,66.5525,-150.3075,26.4775
792,243426,0.09784401,-0.011468,-0.77836,25.9875,-168.7175,2.205
793,243523,0.19032000000000002,0.155916,-0.882548,-15.925,-199.0625,-21.2275
794,243620,0.262788,0.299388,-0.9340321,-33.0225,-229.285,-35.84
795,243717,0.374784,0.287432,-0.9433041,-23.905,-254.9575,-41.3
796,243814,0.492392,0.168848,-0.9340321,-6.195,-278.53,-42.525
797,243912,0.571204,0.006587999999999999,-0.9052401,4.0425,-303.73,-43.9075
798,244009,0.548512,-0.100772,-0.83936,0.56,-329.7525,-47.53
799,244106,0.518256,-0.130052,-0.7734800000000001,-12.425,-351.1725,-52.8325
800,244203,0.55632,-0.1159,-0.773724,-25.935,-363.79,-58.1
801,244300,0.676856,-0.086864,-0.8332601000000001,-34.1425,-370.545,-62.125
802,244397,0.8471681000000001,-0.09516001,-0.9252481,-35.805,-376.25,-63.9975
803,244494,1.041636,-0.116876,-1.018456,-34.72,-383.9675,-63.7175
804,244591,1.212192,-0.141032,-1.090436,-35.315,-395.08,-61.3375
805,244688,1.316868,-0.159088,-1.134112,-39.55,-407.4,-58.2925
806,244785,1.462536,-0.14518,-1.215852,-47.5475,-416.01,-55.7375
807,244882,1.6328479999999999,-0.12566,-1.310036,-57.05,-421.085,-53.9525
808,244979,1.8407360000000001,-0.06929600000000001,-1.428864,-66.71,-425.6525,-54.425
809,245076,2.072292,0.12175599999999999,-1.5262200000000001,-72.9575,-429.625,-58.625
810,245174,2.3140959999999997,0.349408,-1.543544,-67.095,-430.71,-65.6775
811,245271,2.5278400000000003,0.538996,-1.4452120000000002,-47.775,-425.1975,-74.11251
812,245368,2.7130360000000002,0.557052,-1.2190239999999999,-23.4325,-410.8125,-83.09000999999999
813,245465,2.81698,0.16201600000000002,-0.8215481,-11.6025,-387.4325,-94.57
814,245562,2.9382479999999997,-0.171044,-0.353068,-37.31,-356.72,-117.3725
815,245659,3.0939200000000002,-0.020496,0.13761600000000002,-88.0075,-319.515,-147.0875
816,245756,3.121004,0.02806,0.6514800000000001,-107.975,-273.77,-169.3125
817,245853,3.5941199999999998,-0.62342,1.51524,-89.495,-219.275,-190.4525
818,245950,4.438116,-0.5978,2.590304,-74.4975,-165.1125,-220.78
819,246047,3.695868,-0.317932,3.283264,-37.0125,-116.2,-214.935
820,246144,2.352648,-0.778604,2.951912,27.405,-10.7275,-136.2725
821,246241,1.6023479999999999,-0.6058520000000001,1.908568,58.905,149.9925,-27.7375
822,246338,1.161684,0.521672,-1.172908,98.0175,316.9775,69.8425
823,246435,1.641876,0.7088201,-2.215276,183.4175,313.5475,165.3925
824,246533,-0.05636401,-1.594784,-0.331108,212.1175,260.47,192.955
825,246630,0.9398880999999999,-0.1769,-0.996008,64.82,284.9875,47.4425
826,246727,2.3363,-0.826916,-1.7211759999999998,-3.36,312.6025,-37.3975
827,246824,2.151836,-1.09312,-1.418128,-0.5075,268.345,-4.97
828,246921,1.831952,0.163724,-1.589416,-36.3475,204.715,-3.045
829,247018,1.718004,1.299788,-1.3290680000000001,-5.53,170.87,31.7975
830,247115,1.375916,0.9806360000000001,-1.2317120000000001,28.91,105.9975,20.1425
831,247212,1.473516,-0.8491200000000001,-1.143872,57.3125,89.985,29.75
832,247309,0.614392,0.24058400000000002,-0.8744960999999999,27.6675,22.2075,20.6675
833,247406,0.6463561,0.2623,-0.81252,27.1075,29.96,17.7625
834,247503,0.6956439999999999,-0.05587601,-0.9128040000000001,32.27,18.2175,20.2825
835,247600,0.5826720000000001,0.14688800000000002,-0.839116,26.1275,13.0375,16.24
836,247697,0.645868,-0.058072000000000006,-0.8708360999999999,24.885,10.92,13.7725
837,247795,0.571692,0.023424,-0.8420440999999999,19.4075,7.91,9.7475
838,247892,0.604876,-0.030012,-0.8559521000000001,15.6625,7.1225,6.475
839,247989,0.604388,0.013663999999999999,-0.8371639999999999,11.445,6.44,3.2725
840,248086,0.586088,-0.011224,-0.8569280999999999,8.1025,5.0575,0.945
841,248183,0.587064,0.012688,-0.8427761,5.11,5.11,-1.2075
842,248280,0.580232,0.023668,-0.83936,2.3625,5.285,-2.9225
843,248377,0.562908,0.05587601,-0.8315520000000001,0.91,5.18,-4.0425
844,248474,0.552172,0.073688,-0.8281360999999999,0.8925,5.6175,-4.2175
845,248571,0.553148,0.077348,-0.822768,1.82,6.02,-4.27
846,248668,0.561932,0.08003201,-0.8215481,2.8525,6.2475,-3.815
847,248765,0.574864,0.068564,-0.815448,3.4475,6.0375,-3.4475
848,248862,0.569984,0.063928,-0.813984,4.025,5.565,-3.185
849,248960,0.57828,0.045384,-0.8174001000000001,4.4975,5.46,-3.4125
850,249057,0.5753520000000001,0.041236,-0.8164239999999999,4.06,6.055,-3.15
851,249154,0.5797441,0.03904,-0.815936,3.36,7.5425,-3.36
852,249251,0.5843801,0.04392,-0.815204,2.5025,9.03,-3.29
853,249348,0.580964,0.038064,-0.815448,1.8375,10.5,-3.1675
854,249445,0.576572,0.030744,-0.81862,0.805,11.795,-3.01
855,249542,0.5726680000000001,0.049776,-0.820084,-0.035,13.72,-3.1675
856,249639,0.579256,0.0427,-0.8178880999999999,-0.63,16.3625,-3.5525
857,249736,0.58316,0.041724000000000004,-0.81984,-1.435,18.9175,-3.71
858,249833,0.5838920999999999,0.04148,-0.815448,-2.135,21.1225,-4.55
859,249930,0.571692,0.038796,-0.8239880999999999,-2.9225,23.8,-4.62
860,250027,0.556808,0.007564001,-0.8422879999999999,-3.29,27.685,-5.005
861,250124,0.562664,0.0305,-0.840824,-5.39,33.95,-4.3225
862,250222,0.5724239999999999,0.035624,-0.8371639999999999,-7.14,41.335,-4.2525
863,250319,0.587064,0.03538,-0.81862,-9.0125,47.7925,-4.1825
864,250416,0.581696,0.030987999999999998,-0.81374,-10.7975,53.97,-4.48
865,250513,0.5897479999999999,0.020984,-0.8081281,-11.9875,60.235,-4.935
866,250610,0.588284,0.012688,-0.81252,-12.705,65.9575,-5.915
867,250707,0.6009720000000001,0.018544,-0.8010520000000001,-13.055,71.7325,-7.315
868,250804,0.592432,0.030256,-0.8047121,-14.0175,78.295,-8.19
869,250901,0.587796,0.032208,-0.8039801,-15.4525,86.765,-7.4725
870,250998,0.6019479999999999,0.03904,-0.803248,-16.415,97.545,-5.635
871,251095,0.5926760999999999,0.044407999999999996,-0.8095920999999999,-16.6075,109.0425,-3.71
872,251192,0.5697399999999999,0.059536,-0.8239880999999999,-16.6075,125.1425,-2.2225
873,251289,0.550708,0.08881599,-0.832528,-15.96,145.88,-0.7
874,251387,0.5355800999999999,0.081984,-0.8491200000000001,-13.615,173.81,-0.175
875,251484,0.531188,0.09930800000000001,-0.8671761,-11.8825,208.0575,-0.0875
876,251581,0.518744,0.084912,-0.892552,-11.34,234.1675,-3.36
877,251678,0.5663239999999999,0.11126400000000002,-0.913048,-11.025,263.34,-8.505
878,251775,0.662216,0.06929600000000001,-0.922076,-14.175,317.24,-11.095
879,251872,0.860344,-0.034648000000000005,-0.8791321,-27.8775,362.18,-22.575
880,251969,1.0260200000000002,0.0366,-0.9511120000000001,-62.5975,392.245,-44.6775
881,252066,1.731424,0.357948,-1.26148,-104.9825,435.7325,-41.44
882,252163,2.4817240000000003,0.571204,-1.598932,-113.4525,470.1375,-14.21
883,252260,2.4500040000000003,0.378932,-1.380552,-83.79001,474.2675,24.22
884,252357,2.212592,0.390888,-1.690432,-68.5825,474.6175,45.1325
885,252455,1.838296,0.6095119999999999,-2.151592,-69.0375,466.5325,61.0225
886,252552,1.17852,0.527772,-2.217716,-63.1575,421.33,84.8225
887,252649,0.067588,0.185928,-1.842688,-78.0675,396.9175,88.70749
888,252746,0.11028800000000001,-0.494832,-0.8513161,-130.2,399.42,90.00251
889,252843,3.82226,0.6653880999999999,-3.353536,-176.19,404.6525,128.1
890,252940,2.9384919999999997,1.5079200000000001,-3.658292,-166.1275,149.975,118.51
891,253037,1.200968,1.532808,-2.73524,-80.7625,-108.3775,101.745
892,253134,-0.22204000000000002,1.118008,-1.5828280000000001,24.535,-233.3975,89.4075
893,253231,-0.5551,0.6097560000000001,-0.873276,98.77,-236.215,87.01
894,253328,-0.313052,0.163724,-0.601216,120.68,-210.2625,86.6075
895,253425,0.012931999999999999,-0.025131999999999998,-0.625372,89.53,-207.34,73.43
896,253522,0.21667199999999998,0.08564401,-0.750788,33.1975,-232.3825,48.3175
897,253620,0.24278000000000002,0.391864,-0.833992,-13.02,-269.0625,21.8225
898,253717,0.282796,0.626104,-0.836676,-23.4675,-298.5675,2.4675
899,253814,0.308172,0.680028,-0.7747001,-1.61,-317.9925,-9.1525
900,253911,0.35258,0.5665680000000001,-0.698816,30.73,-330.0325,-17.2725
901,254008,0.423828,0.396256,-0.66856,52.43,-337.7325,-26.3725
902,254105,0.525088,0.259372,-0.6893,54.9675,-346.01,-39.48
903,254202,0.64294,0.2013,-0.7551800000000001,42.49,-356.755,-55.0025
904,254299,0.7747001,0.19739600000000002,-0.8335040000000001,25.4275,-368.4625,-69.7025
905,254396,0.9435479999999999,0.206668,-0.9128040000000001,11.1125,-379.3125,-80.7625
906,254493,1.167296,0.160796,-0.909632,1.3125,-389.4275,-87.395
907,254590,1.239276,0.18470799999999998,-1.242204,-9.52,-394.4325,-89.81
908,254687,1.244156,0.35160399999999997,-0.834724,-18.9,-421.3825,-84.1225
909,254784,1.458632,0.316224,-1.023824,-13.58,-391.0725,-78.785
910,254882,1.724592,0.41016400000000003,-1.239276,-15.54,-378.35,-81.27
911,254979,2.061556,0.574132,-1.471076,-18.41,-373.03,-93.2225
912,255076,2.548092,0.859856,-1.59576,-11.2875,-370.51,-112.7
913,255173,2.79502,1.153144,-1.45546,15.0675,-378.7875,-130.2
914,255270,2.79136,1.212924,-1.086288,59.605,-384.79,-140.7525
915,255367,2.84382,1.15412,-0.64904,97.5975,-371.9975,-145.5125
916,255464,2.88652,1.037976,-0.214232,107.2575,-346.2375,-143.43
917,255561,2.8565080000000003,0.7332201,0.179828,80.605,-313.04,-138.5125
918,255658,2.52906,-0.47555600000000003,0.725168,11.305,-275.7125,-147.42
919,255755,2.204052,-0.792756,0.9398880999999999,-122.325,-236.9675,-209.895
920,255852,3.03536,-0.050752,0.8903561,-241.36,-187.0225,-299.635
921,255949,3.8000559999999997,0.837408,1.300764,-216.65,-143.325,-339.6225
922,256046,2.958012,0.40504,2.484652,-42.7175,-93.45,-295.5575
923,256143,2.034716,-0.72956,2.794532,125.7725,22.295,-183.2075
924,256241,2.069608,-1.124352,2.02276,164.675,163.1175,-63.4375
925,256338,2.452444,0.0183,0.9669721,143.535,257.7925,32.7075
926,256435,0.707356,-0.7766521,-0.548024,189.3325,291.9175,138.3725
927,256532,1.347124,-1.9590759999999998,-1.760216,114.8525,289.0475,123.6725
928,256629,1.521828,0.468724,-0.9389120000000001,-34.16,284.025,-59.675
929,256726,2.656184,-0.8371639999999999,-1.8931959999999999,-5.9325,289.8525,-3.36
930,256823,2.7276759999999998,0.198372,-2.006656,-16.5725,227.4475,1.9425
931,256920,1.2012120000000002,0.426756,-1.135332,9.4325,141.435,28.035
932,257017,1.066524,0.863028,-1.1746159999999999,16.8875,96.70501,21.9625
933,257114,1.525488,-0.244488,-1.074332,44.1875,100.5725,25.1125
934,257211,0.6771,0.026351999999999997,-0.948184,33.46,25.7775,20.965
935,257308,0.6156119999999999,0.406992,-0.797636,27.755,25.76,17.2725
936,257405,0.7076001000000001,0.010492,-0.8945040000000001,35.91,19.11,21.035
937,257502,0.7017439999999999,0.012444,-0.8866961,31.5,11.865,18.97
938,257599,0.611464,0.035868000000000004,-0.8520479999999999,23.1,4.8475,13.2125
939,257697,0.6168319999999999,-0.030012,-0.8559521000000001,18.83,2.6075,10.2375
940,257794,0.592188,0.017324000000000003,-0.846924,14.035,-0.315,6.9125
941,257891,0.590968,0.018788,-0.8342360000000001,11.4625,-1.0675,4.7775
942,257988,0.5738880000000001,0.004392,-0.8457040000000001,9.8525,-0.665,3.5175
943,258085,0.558516,0.033184,-0.834968,6.9825,-0.245,1.4875
944,258182,0.580232,0.005856,-0.8357,5.1975,1.4875,-0.315
945,258279,0.5551,0.053924,-0.833016,2.87,1.89,-2.1175
946,258376,0.5607121,0.057096,-0.830576,2.415,3.2725,-2.345
947,258473,0.556808,0.06124401,-0.82594,2.7825,4.305,-2.73
948,258570,0.554856,0.05612,-0.8256960999999999,3.0275,4.6375,-2.8
949,258667,0.5604680000000001,0.049288,-0.822524,3.15,5.7575,-2.5725
950,258764,0.5753520000000001,0.036844,-0.8149601,3.115,6.72,-2.66
951,258862,0.568764,0.032695999999999996,-0.81984,2.5725,7.21,-2.905
952,258959,0.5673,0.0366,-0.821304,1.4875,8.6275,-3.2025
953,259056,0.576328,0.034892,-0.822768,0.6825,10.0275,-3.5175
954,259153,0.584136,0.039772,-0.814472,0.07,11.515,-3.2725
955,259250,0.582916,0.035624,-0.8164239999999999,-0.5075,12.1975,-2.9225
956,259347,0.581208,0.040748,-0.8142281,-0.8925,13.16,-2.8525
957,259444,0.58316,0.05002,-0.8115439999999999,-0.875,13.8075,-3.7625
958,259541,0.580232,0.038551999999999996,-0.8164239999999999,-0.945,15.085,-4.235
959,259638,0.5885281,0.046116000000000004,-0.8103239999999999,-1.1025,16.1875,-4.515
960,259735,0.5875520000000001,0.04392,-0.813496,-1.575,16.975,-4.7075
961,259832,0.589504,0.038064,-0.814472,-2.205,18.2875,-4.935
962,259929,0.581208,0.038796,-0.822524,-2.7125,20.2475,-5.0925
963,260026,0.575596,0.024644,-0.8239880999999999,-3.1325,23.1,-5.39
964,260124,0.5602239999999999,0.018544,-0.8413120000000001,-4.375,27.265,-5.215
965,260221,0.570472,0.030012,-0.8352120000000001,-5.9325,32.48,-4.9875
966,260318,0.5726680000000001,0.026595999999999998,-0.830332,-7.0175,38.2025,-5.3725
967,260415,0.582428,0.029524,-0.824232,-8.47,44.2225,-5.7225
968,260512,0.584136,0.03294,-0.818132,-9.8525,50.4,-6.37
969,260609,0.585356,0.02562,-0.8113001,-11.06,56.8925,-6.93
970,260706,0.6029241,0.024644,-0.8010520000000001,-12.215,63.4375,-7.6125
971,260803,0.5897479999999999,0.022448,-0.8044680999999999,-12.95,69.2475,-7.945
972,260900,0.5926760999999999,0.017812,-0.8071520000000001,-14.175,76.615,-7.4025
973,260997,0.5946279999999999,0.021716,-0.80886,-15.3825,85.8025,-6.51
974,261094,0.58682,0.018788,-0.8091041,-16.59,96.1275,-4.97
975,261191,0.604876,0.024644,-0.79056,-18.2525,109.5325,-4.1475
976,261288,0.574864,0.02684,-0.8086161000000001,-19.635,123.7775,-3.5175
977,261385,0.5565640000000001,0.035624,-0.8195960999999999,-20.2475,143.815,-5.0575
978,261483,0.567056,0.08564401,-0.827892,-20.8425,169.0325,-9.135
979,261580,0.5267960999999999,0.113704,-0.8596120999999999,-19.9325,200.2,-13.545
980,261677,0.5897479999999999,0.067588,-0.90036,-20.7025,229.1625,-14.63
981,261774,0.535092,0.09882,-0.9528200000000001,-21.63,249.585,-22.7325
982,261871,0.60146,0.045384,-1.01748,-22.6975,304.4475,-26.145
983,261968,0.8823040000000001,0.016836,-1.057984,-27.6325,360.0625,-34.3525
984,262065,0.9955200000000001,0.047092,-1.191452,-39.3575,399.7875,-55.7725
985,262162,1.676036,0.162504,-1.297836,-58.3625,445.2875,-57.3475
986,262259,2.447564,0.303292,-1.428376,-68.3375,485.5375,-37.2925
987,262356,2.458544,0.449692,-1.463756,-53.7425,493.0275,-10.8675
988,262453,2.378756,0.607804,-1.8182880000000001,-18.9175,494.6375,15.3125
989,262550,1.9893319999999999,0.458476,-2.037644,6.0725,464.8175,32.0425
990,262647,1.1411879999999999,0.338672,-2.248704,-8.2775,414.505,33.32
991,262744,-0.21008400000000002,-0.149328,-1.844152,-44.7475,384.895,20.44
992,262841,0.9167081,-0.410408,-1.127524,-122.9725,364.21,22.12
993,262939,3.293512,1.279536,-3.4311279999999997,-181.825,340.9175,54.95
994,263036,1.8282919999999998,2.1520799999999998,-3.22934,-112.595,58.38,54.9325
995,263133,0.28181999999999996,1.9129599999999998,-2.196488,47.285,-110.3025,72.555
996,263230,-0.306708,1.095072,-1.285636,212.5725,-159.0225,110.7225
997,263327,-0.17934,0.318176,-0.8481440999999998,293.51,-156.3275,148.61
998,263424,0.054655999999999996,-0.082472,-0.744444,274.6625,-167.09,157.955
999,263521,0.14762,-0.000732,-0.772748,196.4375,-198.205,144.515
1000,263618,0.16201600000000002,0.410896,-0.8281360999999999,114.5375,-235.6375,123.3225
1001,263715,0.243024,0.8244761,-0.87108,70.945,-265.5275,107.625
1002,263812,0.406748,1.085068,-0.886452,71.6975,-287.8575,99.6625
1003,263909,0.5543680000000001,1.147532,-0.8605879999999999,97.545,-310.1,94.255
1004,264006,0.6326921,1.06994,-0.78446,124.95,-333.9175,85.19
1005,264103,0.657092,0.9906401,-0.7046720999999999,138.285,-356.2125,69.59751
1006,264200,0.6893,0.9674601,-0.644648,135.8525,-373.625,49.2275
1007,264297,0.7300479999999999,0.9335440999999999,-0.595604,123.5675,-385.1225,27.5275
1008,264395,0.788852,0.908168,-0.5516840000000001,103.3025,-391.1775,4.865
1009,264492,0.8971879999999999,0.885964,-0.547048,75.8625,-391.475,-19.1275
1010,264589,1.067256,0.916464,-0.6124400999999999,43.12,-386.855,-43.75
1011,264686,1.337608,1.0309,-0.7605481,9.8,-380.52,-68.005
1012,264783,1.631384,1.25904,-0.942084,-15.33,-379.5225,-92.26001
1013,264880,1.837564,1.474492,-1.0821399999999999,-21.4725,-384.16,-119.14
1014,264977,2.053992,1.5616,-1.16632,-6.8425,-387.765,-151.515
1015,265074,2.312388,1.553548,-1.1509479999999999,18.6375,-388.185,-187.95
1016,265171,2.507832,1.568432,-1.045784,44.94,-386.0675,-224.035
1017,265268,2.656184,1.641632,-0.8852321,72.87,-379.0325,-254.4325
1018,265365,2.775012,1.690188,-0.6756361,104.79,-364.0875,-273.595
1019,265462,2.8243,1.5786799999999999,-0.42773199999999995,133.315,-343.6125,-280.035
1020,265559,2.77184,1.2883200000000001,-0.149572,141.155,-320.04,-280.35
1021,265657,2.622024,0.930372,0.12175599999999999,112.9625,-293.5275,-283.71
1022,265754,2.441708,0.64904,0.31158800000000003,50.54,-261.415,-296.94
1023,265851,2.080832,-0.3294,0.6673399999999999,-28.735,-221.865,-330.0675
1024,265948,2.208444,0.44554399999999994,0.66246,-124.4425,-170.8525,-404.0925
1025,266045,3.2654520000000002,1.269776,0.87474,-131.2325,-96.3025,-455.35
1026,266142,3.922056,0.7510321,1.568676,-19.2675,-39.585,-430.57
1027,266239,3.122712,-0.343796,2.079612,96.4775,-12.985,-350.5425
1028,266336,2.275788,-1.005036,1.8575720000000002,123.5675,41.65,-252.21
1029,266433,2.185752,-0.8247200000000001,0.9703879999999999,68.6,110.5125,-152.9325
1030,266530,1.958832,-0.023424,0.040748,-3.745,139.1075,-81.2175
1031,266627,1.05408,0.550952,0.425292,10.675,162.3125,-41.3
1032,266724,0.396744,0.5736441,-0.954528,92.365,234.29,8.2775
1033,266821,0.06832001,-1.042124,-1.230248,105.0175,252.2975,25.8125
1034,266918,0.906948,-1.446432,-0.73078,24.4825,284.235,-20.0025
1035,267016,2.0047040000000003,-0.769088,-1.2719719999999999,-38.885,308.6475,-55.79
1036,267113,3.53312,-0.604144,-2.12646,1.0675,294.2975,44.4325
1037,267210,3.3149839999999995,1.5074319999999999,-2.060336,26.46,173.775,80.745
1038,267307,0.13859200000000002,0.5846241,-0.5002,31.605,36.0325,47.7225
1039,267404,0.8796200000000001,0.14493599999999998,-1.016016,38.675,23.415,31.29
1040,267501,0.767624,-0.18446400000000002,-0.9415959999999999,35.4025,36.7675,25.8125
1041,267598,0.5397281,0.09906401,-0.880352,17.7275,15.085,14.665
1042,267695,0.659044,0.063684,-0.8540000000000001,15.5575,14.3325,11.4975
1043,267792,0.620736,0.24278000000000002,-0.7754321,12.565,9.765,7.84
1044,267889,0.673928,0.13908,-0.7993439999999999,13.405,8.1725,6.9475
1045,267986,0.6007279999999999,0.096868,-0.819108,10.745,5.3025,4.41
1046,268083,0.600484,0.09272000000000001,-0.8249639999999999,8.26,4.2175,2.8875
1047,268180,0.58682,0.07637200000000001,-0.823256,6.405,3.85,1.54
1048,268278,0.564372,0.09882,-0.8193521,5.32,3.115,0.8575
1049,268375,0.5726680000000001,0.06344,-0.8252079999999999,6.2475,3.4825,1.5925
1050,268472,0.5602239999999999,0.07173600000000001,-0.8271601000000001,5.67,4.6725,1.4525
1051,268569,0.558028,0.079544,-0.8256960999999999,5.0575,5.95,1.505
1052,268666,0.5694961,0.07027201,-0.8291120999999999,5.18,8.2075,1.9775
1053,268763,0.5751081,0.07612801,-0.8222799999999999,4.0775,9.2925,1.5925
1054,268860,0.576084,0.057339999999999995,-0.8169121,3.6225,9.59,1.4525
1055,268957,0.585356,0.04392,-0.8195960999999999,3.36,10.115,1.4
1056,269054,0.5856,0.048068,-0.8132520999999999,2.835,10.465,1.225
1057,269151,0.581208,0.05246,-0.812032,2.555,10.99,1.0675
1058,269248,0.587064,0.040016,-0.81374,2.31,11.725,0.77
1059,269345,0.5897479999999999,0.048068,-0.8105680000000001,1.5575,11.9875,0.1225
1060,269443,0.597312,0.05124001,-0.8103239999999999,1.2425,12.1625,-0.525
1061,269540,0.592432,0.050508,-0.8091041,0.6125,12.2675,-1.155
1062,269637,0.604144,0.06124401,-0.798856,-0.1225,12.3025,-1.715
1063,269734,0.591212,0.06880801,-0.79666,-0.1225,11.585,-1.96
1064,269831,0.6007279999999999,0.058803999999999995,-0.800564,-0.1225,11.7075,-2.0825
1065,269928,0.604632,0.063928,-0.794708,-0.6825,11.5675,-2.485
1066,270025,0.6034121,0.062952,-0.7937320999999999,-0.49,11.48,-2.73
1067,270122,0.60024,0.070516,-0.79178,-0.3675,11.7075,-2.975
1068,270219,0.601704,0.051484,-0.798124,-0.2275,12.3025,-3.465
1069,270316,0.6080479999999999,0.048068,-0.7983680000000001,-0.455,13.125,-3.64
1070,270413,0.601704,0.040016,-0.8052,-1.505,14.315,-3.675
1071,270510,0.610488,0.036112,-0.80276,-2.7475,16.065,-4.13
1072,270607,0.609024,0.039528,-0.8030041,-3.5,17.57,-5.425
1073,270705,0.604144,0.043188,-0.805688,-4.305,19.3725,-6.6325
1074,270802,0.60878,0.05246,-0.8015399999999999,-5.1975,22.2075,-7.4025
1075,270899,0.6075600999999999,0.0488,-0.789828,-5.6525,24.99,-7.595
1076,270996,0.604388,0.049532,-0.792024,-6.125,28.0,-7.42
1077,271093,0.5978,0.050752,-0.7983680000000001,-6.965,31.22,-7.1925
1078,271190,0.592432,0.060024,-0.8039801,-7.98,35.595,-7.0875
1079,271287,0.5692520000000001,0.047336,-0.82594,-9.3275,41.475,-7.3325
1080,271384,0.5636399999999999,0.050263999999999996,-0.833016,-10.43,49.875,-7.7175
1081,271481,0.558272,0.051972000000000004,-0.8437520000000001,-11.3925,60.3575,-8.1725
1082,271578,0.5577840000000001,0.050263999999999996,-0.8483879999999999,-12.6,73.08,-8.855
1083,271675,0.55998,0.057096,-0.8439959999999999,-13.7025,87.22,-9.8525
1084,271772,0.5499761,0.07076001,-0.8527800999999999,-14.945,103.6525,-11.97
1085,271869,0.539972,0.06832001,-0.8674200000000001,-15.9075,122.57,-14.455
1086,271966,0.525576,0.10736,-0.8701040000000001,-17.255,147.07,-15.5225
1087,272063,0.513864,0.10760399999999999,-0.883524,-17.99,177.3275,-18.375
1088,272161,0.499224,0.107116,-0.927932,-19.32,213.4475,-19.6875
1089,272258,0.585112,0.089304,-0.98088,-19.1275,246.2075,-21.42
1090,272355,0.593164,0.15201199999999998,-0.993568,-17.0275,265.9125,-25.0075
1091,272452,0.734684,0.200812,-1.052616,-12.5825,320.1625,-20.4225
1092,272549,1.029924,0.225456,-1.149728,-8.5575,370.8075,-12.0575
1093,272646,1.570384,0.252296,-1.2439120000000001,-5.1275,411.9675,2.835
1094,272743,2.1520799999999998,0.521672,-1.402268,0.9975,433.0025,21.665
1095,272840,2.01056,0.744688,-1.50304,34.09,431.375,58.24
1096,272937,1.914668,0.811056,-1.525488,97.5275,422.275,98.77
1097,273034,1.701656,0.659288,-1.5555,142.6775,408.1175,118.09
1098,273131,1.1855959999999999,0.823256,-1.7153200000000002,155.855,392.21,122.7625
1099,273228,0.551928,0.763232,-1.665056,167.965,383.9675,124.1975
1100,273325,-0.48873199999999994,0.5843801,-1.3351680000000001,175.0875,361.48,126.035
1101,273423,1.938824,0.42163199999999995,-1.7450880000000002,173.845,357.735,130.0075
1102,273520,2.986316,1.017968,-3.1985959999999998,155.855,302.8725,85.89
1103,273617,1.6391919999999998,1.1568040000000002,-2.766716,161.5775,21.595,28.5775
1104,273714,0.050996,0.9403761,-1.628944,198.485,-123.3925,-0.49
1105,273811,-0.416264,0.581208,-0.895236,239.4875,-147.3325,10.955
1106,273908,-0.14884,0.37258800000000003,-0.712236,255.325,-123.9875,43.6975
1107,274005,0.13761600000000002,0.435296,-0.792756,243.4775,-119.14,68.72251
1108,274102,0.335744,0.680028,-0.959408,224.28,-139.8425,81.04251
1109,274199,0.40381999999999996,0.99918,-1.045296,217.9275,-173.39,88.51501
1110,274296,0.42114399999999996,1.2343959999999998,-1.046516,232.715,-206.605,95.8125
1111,274393,0.46726,1.3268719999999998,-0.998692,261.1175,-233.5025,102.3575
1112,274490,0.548268,1.385432,-0.927688,288.2425,-256.7075,103.0925
1113,274588,0.634156,1.458876,-0.8996280999999999,306.0925,-279.3875,96.3725
1114,274685,0.764696,1.553548,-0.906216,312.27,-302.8725,76.6675
1115,274782,0.868152,1.652612,-0.8823040000000001,307.93,-329.105,43.82
1116,274879,0.8640040000000001,1.77266,-0.8108121,299.18,-355.7925,5.005
1117,274976,0.8491200000000001,1.902956,-0.73078,291.865,-373.5025,-31.325
1118,275073,0.9403761,1.963468,-0.691008,288.9075,-379.1375,-59.955
1119,275170,1.097756,1.8873400000000002,-0.72712,282.17,-379.61,-81.865
1120,275267,1.308084,1.808528,-0.8344801,259.6475,-380.6425,-102.4975
1121,275364,1.489376,1.807552,-0.944768,223.65,-385.9275,-122.22
1122,275461,1.62626,1.87148,-1.0243120000000001,186.6025,-393.1375,-138.6175
1123,275558,1.752652,1.8785560000000001,-1.070916,157.955,-398.79,-151.55
1124,275656,1.8575720000000002,1.773148,-1.072868,135.0825,-400.6975,-163.6075
1125,275753,1.9778639999999998,1.62626,-1.061888,108.92,-398.8775,-178.2725
1126,275850,2.13988,1.5664799999999999,-1.0431,77.28,-393.575,-195.895
1127,275947,2.300432,1.5799,-1.01626,48.3875,-384.965,-212.835
1128,276044,2.445612,1.577216,-0.960384,30.1525,-373.1525,-225.6625
1129,276141,2.579324,1.48718,-0.8522921,18.6025,-357.6825,-231.0
1130,276238,2.6659439999999996,1.3163799999999999,-0.6885680999999999,2.59,-340.165,-228.8825
1131,276335,2.6642360000000003,1.024556,-0.478484,-27.8425,-319.7775,-224.0
1132,276432,2.646912,0.6707561,-0.27205999999999997,-78.085,-295.2075,-223.8075
1133,276529,2.499536,-0.8378960999999999,0.267424,-148.26,-268.835,-239.19
1134,276626,2.496852,-0.202276,0.48385200000000006,-262.5175,-244.79,-299.845
1135,276723,3.080988,1.357372,0.6993041,-285.635,-192.325,-342.125
1136,276820,3.5633760000000003,0.9699,1.464732,-116.095,-126.56,-296.0825
1137,276918,3.236416,-0.61366,2.1435400000000002,71.0325,-75.8625,-210.1225
1138,277015,2.523692,-1.214388,2.126704,94.74501,-17.8325,-139.1075
1139,277112,1.737036,0.023424,1.288076,19.4075,56.105,-71.8725
1140,277209,2.032032,1.13216,0.7427361,37.2225,190.26,-27.51
1141,277306,1.247816,0.213256,-0.232044,170.6075,246.82,7.9975
1142,277403,1.0882399999999999,-2.181604,-2.264564,185.4125,232.9775,17.4825
1143,277500,0.6480640000000001,-1.1794959999999999,-0.8718120999999999,46.27,232.9775,-101.8325
1144,277597,1.505236,-1.068476,-1.057008,-3.5875,250.7225,-114.45
1145,277694,2.494412,-1.01138,-1.8866080000000003,-10.2375,244.23,-46.83
1146,277791,2.2311360000000002,-0.24326799999999998,-1.7348400000000002,-22.995,167.7025,0.385
1147,277888,1.072868,0.715896,-1.045296,-13.5275,100.765,38.5875
1148,277985,0.3355,0.9977159999999999,-0.7324881,-7.84,63.3325,20.5625
1149,278082,1.6826240000000001,0.322324,-1.270508,21.1575,80.43,16.0125
1150,278179,0.648308,-0.21886799999999998,-0.8549761,34.615,35.1925,25.2
1151,278277,0.47165200000000007,0.41577600000000003,-0.826916,21.0875,8.4,18.13
1152,278374,0.676856,0.213256,-0.862296,28.0525,19.95,22.89
1153,278471,0.58316,-0.06954,-0.8852321,28.945,12.8625,21.245
1154,278568,0.529724,0.12712400000000001,-0.833992,23.0825,10.22,16.2925
1155,278665,0.6158561,-0.048312,-0.8927959999999999,22.47,12.075,14.1925
1156,278762,0.60268,-0.040992,-0.8786440999999999,16.835,10.115,9.7125
1157,278859,0.558516,0.05856,-0.8420440999999999,11.5675,7.3675,5.9325
1158,278956,0.566812,0.0183,-0.856196,10.43,7.3325,4.8475
1159,279053,0.548756,0.064172,-0.835456,8.12,7.2625,3.29
1160,279150,0.5443640000000001,0.06954,-0.838628,7.455,7.455,2.6775
1161,279247,0.533872,0.083936,-0.821304,8.12,8.26,3.185
1162,279344,0.5353359999999999,0.105652,-0.818132,9.3275,9.5025,4.06
1163,279441,0.543632,0.102968,-0.81862,11.2175,10.605,4.8125
1164,279539,0.528016,0.109556,-0.8222799999999999,13.5625,11.445,5.705
1165,279636,0.54656,0.08906,-0.8317960999999999,15.54,12.18,6.4225
1166,279733,0.551928,0.077592,-0.8315520000000001,16.8175,13.0725,6.5625
1167,279830,0.5751081,0.034892,-0.839116,17.885,13.8775,6.51
1168,279927,0.619516,-0.0305,-0.8569280999999999,16.7825,13.6675,5.0925
1169,280024,0.598288,-0.007564001,-0.835456,11.165,10.5875,-1.12
1170,280121,0.575596,0.027572000000000003,-0.826672,7.875,7.5075,-5.2325
1171,280218,0.5734,0.039772,-0.820572,6.44,9.765,-5.285
1172,280315,0.570472,0.044652,-0.823744,5.6,11.0075,-5.3375
1173,280412,0.576328,0.036844,-0.8195960999999999,5.1625,12.1975,-5.355
1174,280509,0.5856,0.05246,-0.8169121,4.9175,14.0525,-5.355
1175,280607,0.5858439999999999,0.049776,-0.81252,5.0225,14.735,-5.285
1176,280704,0.577304,0.049288,-0.8164239999999999,5.005,16.135,-5.8975
1177,280801,0.5885281,0.035624,-0.815692,4.0075,17.0975,-5.915
1178,280898,0.5885281,0.035868000000000004,-0.819108,2.7125,19.215,-6.0375
1179,280995,0.587796,0.035868000000000004,-0.820084,1.645,20.93,-6.3525
1180,281092,0.5826720000000001,0.030987999999999998,-0.827892,0.8400001,23.6775,-6.055
1181,281189,0.564128,0.01098,-0.8491200000000001,0.2275,27.44,-6.0025
1182,281286,0.5675439999999999,0.030012,-0.839116,-1.75,34.0725,-5.32
1183,281383,0.5694961,0.011468,-0.841556,-3.535,41.86,-5.4775
1184,281480,0.571448,0.015128,-0.83936,-5.3725,48.09,-5.425
1185,281577,0.570472,0.024156,-0.8300879999999999,-7.175,55.755,-5.6
1186,281674,0.583648,0.01342,-0.8176439999999999,-8.6625,64.26,-5.635
1187,281771,0.580476,0.015128,-0.8195960999999999,-10.2025,71.85501,-5.67
1188,281869,0.5941401,0.014396,-0.8115439999999999,-11.13,79.5375,-5.1975
1189,281966,0.58194,0.017568,-0.8188641,-11.5325,87.8675,-3.8325
1190,282063,0.584868,0.024156,-0.807396,-11.2875,97.65,-1.54
1191,282160,0.58072,0.009028000999999999,-0.80886,-11.55,110.32,1.4525
1192,282257,0.574864,0.038308,-0.812276,-11.41,124.6,4.55
1193,282354,0.5694961,0.081984,-0.8039801,-9.4675,143.2375,7.7525
1194,282451,0.558028,0.10126,-0.8108121,-7.14,165.5325,12.0575
1195,282548,0.558272,0.12932000000000002,-0.823744,-2.7125,193.55,16.065
1196,282645,0.6107319999999999,0.164456,-0.895236,3.4125,225.89,20.16
1197,282742,0.556808,0.167384,-0.869616,10.5175,242.4625,23.7475
1198,282839,0.65514,0.19276,-0.8552200000000001,20.7725,276.4125,29.3825
1199,282936,0.9828321,0.22106399999999998,-0.9030440000000001,29.26,322.0875,34.685
1200,283033,1.0262639999999998,0.166408,-0.8754719999999999,26.04,343.07,29.75
1201,283131,1.373232,0.266204,-0.964044,12.075,364.8225,37.8
1202,283228,2.001532,0.428464,-1.240984,-4.83,399.8925,56.805
1203,283325,2.066192,0.362584,-1.341024,5.2675,415.5025,89.25
1204,283422,2.011048,0.381616,-1.28588,20.265,419.405,114.7825
1205,283519,2.1057200000000003,0.36234,-1.62382,23.9925,429.975,124.635
1206,283616,1.952732,0.574864,-1.9129599999999998,27.475,408.205,136.3075
1207,283713,1.561356,0.5441199999999999,-1.9239400000000002,37.17,380.73,155.12
1208,283810,0.44993599999999995,0.48214399999999996,-1.9727400000000002,21.0875,377.65,165.5325
1209,283907,0.62952,0.193736,-0.394548,4.27,380.31,175.56
1210,284004,3.4772440000000002,0.781532,-3.232024,1.925,392.98,164.1325
1211,284101,2.728652,1.381772,-3.3591480000000002,-32.305,119.7175,95.04251
1212,284199,0.7700640999999999,1.512312,-2.3658240000000004,-9.7475,-81.0075,38.22
1213,284296,-0.239852,1.1895,-1.441552,59.9725,-158.6375,6.125
1214,284393,-0.34477199999999997,0.6810039999999999,-0.9469641,116.4625,-150.15,-10.6575
1215,284490,-0.141764,0.302316,-0.7766521,129.885,-136.57,-26.0575
1216,284587,0.042212,0.166164,-0.8044680999999999,105.1225,-143.0625,-47.7575
1217,284684,0.15006,0.23448400000000003,-0.8786440999999999,68.4425,-164.5525,-67.2525
1218,284781,0.242536,0.323544,-0.949892,43.96,-190.9775,-77.0875
1219,284878,0.363804,0.33305999999999997,-0.984784,36.3475,-218.4525,-77.1925
1220,284975,0.428708,0.27694,-0.934276,36.715,-248.185,-73.395
1221,285072,0.471164,0.203008,-0.8544879999999999,34.755,-276.535,-70.4025
1222,285169,0.509716,0.1769,-0.798124,26.88,-300.1775,-69.65
1223,285266,0.558516,0.1952,-0.7705521,16.2575,-320.915,-69.44
1224,285363,0.6178081,0.221552,-0.763476,8.0325,-338.1175,-69.09
1225,285460,0.6663640000000001,0.21667199999999998,-0.769332,3.3775,-352.94,-69.0025
1226,285557,0.7373681,0.197884,-0.779824,-0.0175,-363.8425,-70.875
1227,285654,0.8620521000000001,0.216916,-0.8317960999999999,-3.85,-371.7175,-74.5675
1228,285752,1.017968,0.265472,-0.9091440000000001,-5.6525,-378.805,-78.2075
1229,285849,1.13826,0.301584,-0.9762440999999998,-2.975,-387.415,-80.885
1230,285946,1.25416,0.282064,-1.057252,2.1175,-395.15,-83.3875
1231,286043,1.41154,0.239364,-1.174372,3.1325,-400.8025,-87.8675
1232,286140,1.596248,0.203252,-1.306132,-3.22,-406.7175,-94.90250999999999
1233,286237,1.8458599999999998,0.24351199999999998,-1.444968,-15.225,-412.58,-104.475
1234,286334,2.074732,0.37990799999999997,-1.536224,-25.2525,-418.845,-114.485
1235,286431,2.362896,0.551928,-1.534516,-24.745,-420.91,-122.78
1236,286528,2.632272,0.7300479999999999,-1.419348,-12.285,-416.9025,-129.255
1237,286625,2.864316,0.81252,-1.1951120000000002,8.3125,-405.0725,-134.295
1238,286722,3.043656,0.777872,-0.8420440999999999,24.43,-383.5825,-136.4475
1239,286819,3.099532,0.152256,-0.265716,20.7025,-352.835,-135.345
1240,286916,2.9975400000000003,-0.567788,0.29572800000000005,-33.39,-315.105,-155.4
1241,287013,3.144184,-0.35843600000000003,0.6107319999999999,-130.1125,-270.375,-199.57
1242,287110,3.471632,-0.623908,1.043344,-174.37,-223.2125,-228.4275
1243,287207,4.224616,-0.30012,1.915888,-166.0925,-175.315,-249.6025
1244,287304,4.021364,-0.132492,2.8430880000000003,-95.48,-133.4025,-231.525
1245,287401,2.715476,-0.718824,3.031212,11.41,-51.45,-145.9325
1246,287498,2.36314,-1.1387479999999999,2.126948,56.245,79.9925,-34.8425
1247,287595,1.642364,0.8762040000000001,-0.085156,38.815,178.3075,45.535
1248,287692,0.9903959999999999,0.718824,-1.2341520000000001,135.0825,281.5925,114.9225
1249,287789,0.730536,0.826428,-1.770464,208.985,248.8325,171.1675
1250,287886,-0.544852,-1.256356,-0.203252,221.13,232.54,157.4125
1251,287983,0.695156,-0.9784401,-0.8574161,86.45,273.5075,32.1825
1252,288080,2.1835560000000003,-1.2282959999999998,-1.544032,-10.3775,314.2475,-56.2975
1253,288177,2.29482,-1.207068,-1.4783959999999998,-14.7525,278.6175,-8.575
1254,288274,2.761592,0.9791719999999999,-1.8575720000000002,-25.6025,218.3475,26.145
1255,288372,1.59332,1.742648,-1.2907600000000001,15.785,133.9275,40.985
1256,288469,1.340292,-0.51972,-1.13704,54.5825,83.80751,34.86
1257,288566,0.714676,-0.40821199999999996,-1.006256,43.4175,33.2675,33.845
1258,288663,0.74298,0.42773199999999995,-0.8544879999999999,24.6925,33.0225,20.51
1259,288760,0.6290319999999999,-0.118828,-0.909632,26.845,16.03,19.25
1260,288857,0.5914560000000001,0.147376,-0.845216,20.7025,13.755,14.4025
1261,288954,0.537044,0.08296,-0.84546,19.39,9.345,12.005
1262,289051,0.6117081,-0.000488,-0.863028,20.125,11.48,11.8825
1263,289148,0.578036,-0.009516001,-0.8647360000000001,16.38,8.8375,8.54
1264,289245,0.6202479999999999,-0.019032,-0.859368,12.4075,7.7875,5.25
1265,289342,0.57096,0.042944,-0.8342360000000001,7.525,6.055,1.785
1266,289439,0.57584,0.004392,-0.84424,5.9325,4.69,0.56
1267,289536,0.586088,0.010004,-0.8491200000000001,3.5875,5.4425,-0.9275
1268,289633,0.5675439999999999,0.0305,-0.844972,1.05,5.4775,-2.555
1269,289730,0.546072,0.05856,-0.8352120000000001,-0.1575,6.055,-2.765
1270,289827,0.534848,0.082472,-0.8249639999999999,0.245,7.7525,-2.38
1271,289924,0.5463161,0.084912,-0.81374,2.0125,10.01,-1.4875
1272,290021,0.5546121,0.077836,-0.8176439999999999,4.165,11.515,-0.56
1273,290118,0.5587601,0.06636801,-0.815936,6.0375,12.32,0.35
1274,290215,0.5663239999999999,0.060512,-0.815692,7.105,12.9325,1.12
1275,290312,0.5702281,0.064416,-0.8178880999999999,7.2625,13.44,1.5225
1276,290409,0.5655920999999999,0.061732,-0.8174001000000001,7.245,13.825,1.61
1277,290506,0.59536,0.013908000000000002,-0.8115439999999999,5.9675,13.965,-0.805
1278,290603,0.5795,0.045872,-0.81984,3.4825,11.095,-4.8125
1279,290700,0.562664,0.054167999999999994,-0.815936,4.0775,11.83,-5.6
1280,290798,0.562908,0.06466001,-0.814472,4.935,12.215,-3.6575
1281,290895,0.586332,0.046848,-0.8108121,5.285,13.9475,-2.38
1282,290992,0.595604,0.042944,-0.805688,4.9175,15.295,-3.15
1283,291089,0.5897479999999999,0.036112,-0.8127641,4.095,16.835,-3.71
1284,291186,0.593164,0.02806,-0.8195960999999999,2.6075,19.2675,-3.2375
1285,291283,0.571448,0.060512,-0.822768,1.26,22.365,-3.2375
1286,291380,0.5690081,0.004636001,-0.830576,0.735,27.335,-3.1675
1287,291477,0.5777920999999999,0.031232,-0.8364321,-3.4475,33.8275,-0.5775
1288,291574,0.564128,0.031232,-0.8486319999999999,-6.9825,41.5275,1.1725
1289,291671,0.59292,0.011224,-0.8254520000000001,-10.745,50.365,3.5875
1290,291768,0.601216,0.0051240009999999996,-0.806176,-16.555,58.3275,8.1375
1291,291865,0.593896,0.026351999999999997,-0.8132520999999999,-22.9425,65.94,13.5975
1292,291962,0.5843801,0.02074,-0.8222799999999999,-25.4275,72.38,15.365
1293,292059,0.586332,0.020008,-0.8261841000000001,-23.6425,79.5375,12.5125
1294,292156,0.570472,0.013663999999999999,-0.839116,-20.16,87.95501,8.8025
1295,292253,0.578036,0.0017079999999999999,-0.8308200000000001,-17.1675,99.27750999999999,6.1775
1296,292350,0.568032,-0.003172,-0.8254520000000001,-15.015,112.28,4.83
1297,292447,0.56242,0.005368,-0.834724,-12.8625,127.7675,5.075
1298,292544,0.556076,0.0305,-0.83814,-10.885,147.77,6.9825
1299,292641,0.5392399999999999,0.043676,-0.8359440999999999,-9.1,174.125,9.45
1300,292738,0.51972,0.047580000000000004,-0.839116,-6.895,207.6025,13.7375
1301,292835,0.5543680000000001,0.020008,-0.8439959999999999,-6.0025,235.7775,13.4225
1302,292932,0.5926760999999999,0.0854,-0.841556,-6.895,259.63,6.6325
1303,293029,0.798124,0.10126,-0.850584,-12.2325,312.9175,-1.435
1304,293127,0.8857200999999999,-0.038064,-0.8552200000000001,-34.7725,345.45,-25.9
1305,293224,0.9830760000000001,0.12395199999999999,-0.862296,-86.31,371.42,-46.3925
1306,293321,1.617232,0.460672,-1.23464,-143.15,420.6125,-37.1525
1307,293418,2.512468,0.373808,-1.549644,-158.4975,459.2175,-6.2825
1308,293515,2.4927040000000003,0.484096,-1.618452,-145.9675,461.1075,22.645
1309,293612,2.528816,0.81374,-1.7875439999999998,-124.88,456.085,56.7525
1310,293709,2.074976,0.774456,-2.253828,-104.5975,461.545,100.205
1311,293806,1.333704,0.710284,-2.28018,-99.96,416.6575,136.64
1312,293903,-0.197884,0.527284,-1.737036,-99.5575,381.1325,154.84
1313,294000,0.413336,-0.014396,-0.5504641,-89.0225,434.1575,166.39
1314,294097,3.2000599999999997,0.9106081,-3.0622,-101.465,454.125,165.6725
1315,294194,2.9040880000000002,1.557208,-3.6177879999999996,-105.2625,211.6975,120.015
1316,294291,1.3712799999999998,1.6674959999999999,-2.867244,-50.68,-17.64,69.0025
1317,294388,0.041724000000000004,1.329556,-1.849276,40.04,-154.6825,35.21
1318,294485,-0.43798000000000004,0.754204,-1.12362,119.945,-182.245,25.76
1319,294582,-0.328912,0.236436,-0.7522521,152.3025,-167.8075,25.025
1320,294679,-0.09345201,-0.050752,-0.6973520000000001,131.775,-166.5125,18.2
1321,294776,0.10931199999999999,-0.082228,-0.764696,79.5725,-184.8,4.935
1322,294874,0.199348,0.126148,-0.8488761,25.6725,-214.62,-9.2575
1323,294971,0.302072,0.34794400000000003,-0.9167081,-1.5575,-244.58,-17.1675
1324,295068,0.450668,0.4453,-0.9486720999999999,1.75,-270.8825,-18.76
1325,295165,0.5248441,0.39405999999999997,-0.9142680000000001,21.07,-297.4825,-18.025
1326,295262,0.5690081,0.26303200000000004,-0.845216,37.8175,-322.98,-18.515
1327,295359,0.60512,0.14884,-0.794952,39.5675,-345.5025,-22.9075
1328,295456,0.6505041,0.122,-0.7771399999999999,27.8075,-364.8925,-30.8175
1329,295553,0.716384,0.15372,-0.794708,12.425,-381.465,-39.8125
1330,295650,0.8239880999999999,0.17934,-0.8439959999999999,0.8400001,-394.0475,-48.8075
1331,295747,0.9801479999999999,0.203984,-0.9010921000000001,-6.23,-403.8125,-57.995
1332,295844,1.1272799999999998,0.2074,-0.9476959999999999,-10.78,-413.525,-66.9375
1333,295941,1.19926,0.20642399999999997,-0.921832,-15.9425,-422.205,-76.5275
1334,296038,1.260748,0.145912,-0.9201241,-22.8375,-423.535,-86.7825
1335,296135,1.41886,0.03294,-0.9901521000000001,-35.42,-413.6475,-96.67
1336,296232,1.6531,-0.010248,-1.160952,-57.4525,-399.6825,-106.435
1337,296329,1.9427279999999998,0.138104,-1.392996,-81.235,-388.3075,-115.6575
1338,296426,2.459032,0.477996,-1.699216,-88.39251,-379.61,-121.8175
1339,296524,2.954108,0.73444,-1.827316,-64.34751,-382.725,-121.17
1340,296621,3.108804,0.6602640000000001,-1.510604,-21.5425,-400.26,-116.585
1341,296718,2.9614279999999997,0.31451599999999996,-0.9376921,5.04,-413.2975,-117.6875
1342,296815,2.94996,0.028792,-0.48726800000000003,-8.89,-401.5025,-126.0175
1343,296912,3.076352,-0.135176,-0.11955999999999999,-54.32,-370.7025,-133.0525
1344,297009,3.043656,-0.19739600000000002,0.286456,-103.8975,-334.4425,-139.4575
1345,297106,2.925316,-0.656848,0.710284,-134.085,-291.97,-145.8275
1346,297203,3.7022120000000003,-0.733708,1.277584,-149.3275,-238.595,-158.62
1347,297300,4.158004,-0.509472,2.41926,-133.735,-199.6575,-148.7675
1348,297397,3.3247440000000004,-0.705892,3.277164,-64.34751,-144.375,-92.925
1349,297494,2.513444,-0.9977159999999999,2.84504,-6.3525,-29.8375,-7.28
1350,297591,2.868464,-0.8039801,1.388116,-2.835,102.55,75.35501
1351,297688,3.084404,-0.14762,0.193004,-29.6625,150.43,124.6875
1352,297785,0.736392,2.838696,-1.7646080000000002,17.64,124.145,138.355
1353,297882,-0.353068,1.501576,-2.3428880000000003,226.8175,212.765,157.8325
1354,297980,-0.604144,1.042612,-0.23228800000000002,278.145,167.4925,161.28
1355,298077,-0.85644,-2.038864,0.11955999999999999,281.26,237.3,132.405
1356,298174,1.41886,-1.7509439999999998,-1.585756,112.28,302.3825,-6.9825
1357,298271,1.9666400000000002,-1.815848,-1.179252,29.365,290.2025,-44.4675
1358,298368,2.23138,-0.546072,-1.4574120000000002,3.08,267.645,12.0925
1359,298465,2.204296,1.586732,-1.772172,-0.7175,212.7825,43.995
1360,298562,1.008208,1.199016,-0.998692,50.8025,139.44,45.8325
1361,298659,1.945412,-1.318088,-1.441064,74.935,107.275,30.5025
1362,298756,0.829356,-0.2745,-0.9252481,44.8,55.72,29.4525
1363,298853,0.715164,0.625616,-0.8727879999999999,20.0025,28.1225,18.445
1364,298950,0.7156520000000001,-0.30378,-0.9301280000000001,35.2625,22.645,20.8775
1365,299047,0.655628,0.058072000000000006,-0.889136,24.7275,16.7475,14.315
1366,299144,0.5516840000000001,0.028548,-0.8554641,18.6725,9.975,8.96
1367,299241,0.620736,0.009516001,-0.8669319999999999,17.3075,10.64,7.2975
1368,299338,0.59292,-0.025863999999999998,-0.8586360000000001,13.1425,8.33,4.3925
1369,299435,0.592188,0.008296000999999999,-0.84546,8.3475,7.5425,1.1375
1370,299532,0.55266,0.005368,-0.8439959999999999,4.76,6.1075,-1.3825
1371,299630,0.5702281,0.004392,-0.8508280999999999,2.7125,6.685,-3.01
1372,299727,0.558028,0.016104,-0.84546,-0.035,7.945,-5.04
1373,299824,0.545096,0.047092,-0.8383841000000001,-1.995,8.575,-6.37
1374,299921,0.551928,0.05636401,-0.831308,-2.1175,10.15,-6.7025
1375,300018,0.559248,0.06563601,-0.8244761,-1.82,11.4975,-6.545
1376,300115,0.553148,0.092964,-0.8142281,-1.05,12.425,-5.81
1377,300212,0.5565640000000001,0.076616,-0.813496,0.7525,13.195,-4.795
1378,300309,0.555832,0.07808001,-0.8174001000000001,2.625,13.965,-3.885
1379,300406,0.564128,0.061975999999999996,-0.8193521,3.8675,14.6825,-3.255
1380,300503,0.57584,0.040260000000000004,-0.8215481,4.0075,14.98,-3.2375
1381,300600,0.5751081,0.042212,-0.8178880999999999,3.465,15.365,-3.0625
1382,300697,0.5980439999999999,0.0,-0.826672,2.03,15.4525,-3.7975
1383,300794,0.5655920999999999,0.049288,-0.822524,-0.77,14.665,-4.5325
1384,300891,0.571692,0.048068,-0.828624,-2.2225,15.925,-3.64
1385,300988,0.5673,0.046116000000000004,-0.81252,-2.8,17.36,-3.92
1386,301085,0.57218,0.040992,-0.823744,-3.045,19.53,-3.815
1387,301182,0.5675439999999999,0.050263999999999996,-0.8298440999999999,-3.185,21.8575,-3.7275
1388,301279,0.56852,0.047824,-0.8222799999999999,-3.5525,24.675,-3.745
1389,301377,0.5838920999999999,0.056608000000000006,-0.8176439999999999,-3.8325,28.875,-4.62
1390,301473,0.571692,0.004636001,-0.8274040000000001,-4.2175,32.515,-6.3175
1391,301571,0.566812,0.016347999999999998,-0.815936,-7.9275,37.3975,-6.72
1392,301668,0.571448,0.0488,-0.8203280000000001,-11.235,44.0825,-7.35
1393,301765,0.592188,0.040260000000000004,-0.8010520000000001,-11.445,50.5925,-8.54
1394,301862,0.580232,0.026595999999999998,-0.812032,-11.9175,57.0325,-10.115
1395,301959,0.5892601,0.027816000000000004,-0.809348,-13.8775,63.84,-11.9175
1396,302056,0.582428,0.022448,-0.820084,-16.73,72.5725,-13.3875
1397,302153,0.575596,0.040016,-0.82594,-19.5125,83.93001,-14.2625
1398,302250,0.5914560000000001,0.046848,-0.8174001000000001,-21.735,96.3725,-14.175
1399,302347,0.579012,0.041236,-0.820572,-23.5375,109.935,-14.9625
1400,302444,0.568764,0.05929201,-0.823256,-25.4975,124.5475,-17.535
1401,302541,0.574864,0.071248,-0.8317960999999999,-26.6525,142.6075,-17.5
1402,302638,0.5665680000000001,0.05929201,-0.8215481,-28.2625,165.2,-21.56
1403,302735,0.5546121,0.077836,-0.8249639999999999,-30.975,192.7625,-23.2925
1404,302833,0.5553441,0.014396,-0.8662001,-35.2275,212.1,-29.54
1405,302929,0.5124001,0.037576,-0.9103641,-42.21,227.325,-41.72
1406,303026,0.543144,0.09418401,-0.8971879999999999,-49.35,276.535,-49.42
1407,303123,0.7093081,0.015616,-0.892308,-59.3425,334.1975,-54.9325
1408,303220,0.798856,-0.059048,-0.937448,-87.97251,383.2675,-64.89
1409,303317,1.246108,0.137128,-1.0979999999999999,-138.425,422.7475,-78.645
1410,303415,2.153788,0.537532,-1.3642040000000002,-179.6025,462.805,-68.39
1411,303512,2.35094,0.676856,-1.606008,-177.7475,487.48,-30.5375
1412,303609,2.4207240000000003,0.46042799999999995,-1.539396,-141.8375,487.935,12.1275
1413,303706,2.065704,0.40357600000000005,-1.966884,-128.3625,487.7075,30.6775
1414,303803,1.7680240000000003,0.682956,-2.33752,-139.86,465.045,49.1575
1415,303900,0.87474,0.37258800000000003,-2.27164,-139.9125,430.64,77.98
1416,303997,-0.515328,-0.24717199999999998,-1.9171080000000003,-175.91,416.885,87.6225
1417,304094,3.100996,0.279868,-2.733288,-252.14,413.49,99.9075
1418,304191,3.3733,1.780468,-4.115548,-258.79,267.05,111.3525
1419,304288,1.792668,2.172088,-3.49286,-152.5475,-53.6725,89.67
1420,304385,-0.154696,1.575752,-2.1164560000000003,-0.595,-223.16,69.2475
1421,304482,-0.6202479999999999,0.778116,-1.217316,112.49,-243.3725,58.1875
1422,304579,-0.382592,0.10931199999999999,-0.835456,149.4325,-218.225,57.0325
1423,304676,-0.07856801,-0.15201199999999998,-0.7700640999999999,115.0275,-215.285,50.2425
1424,304773,0.169336,-0.066856,-0.8752280000000001,51.45,-237.8075,36.5225
1425,304870,0.271328,0.244,-0.9752681000000001,-0.07,-272.8425,26.215
1426,304967,0.363804,0.487512,-1.007476,-13.5975,-305.445,24.7625
1427,305064,0.451888,0.534848,-0.9623360999999999,6.405,-331.1525,30.555
1428,305162,0.51484,0.417972,-0.853756,35.14,-351.5925,36.89
1429,305259,0.5692520000000001,0.261324,-0.765184,50.0325,-368.865,37.8175
1430,305356,0.6409881,0.207644,-0.720288,44.555,-382.8475,31.15
1431,305453,0.692716,0.256688,-0.7041841,27.8075,-395.3775,19.0225
1432,305550,0.748836,0.307196,-0.7417600000000001,12.1975,-402.99,3.8675
1433,305647,0.8735200000000001,0.367952,-0.8042239999999999,2.45,-405.405,-13.3175
1434,305744,1.036024,0.390888,-0.9093880999999999,-1.3475,-406.35,-31.535
1435,305841,1.226588,0.337452,-1.036756,-2.3625,-408.45,-50.295
1436,305938,1.41154,0.25864000000000004,-1.1411879999999999,-6.9125,-414.19,-68.775
1437,306035,1.5969799999999998,0.244488,-1.26148,-17.535,-421.855,-83.4225
1438,306132,1.790228,0.29377600000000004,-1.397632,-29.2075,-428.12,-92.995
1439,306229,2.025444,0.368196,-1.506456,-36.75,-431.4625,-99.015
1440,306326,2.28018,0.49824799999999997,-1.541104,-38.85,-432.8275,-103.005
1441,306423,2.5878639999999997,0.666852,-1.464976,-33.705,-430.0975,-105.7175
1442,306520,2.8250319999999998,0.787632,-1.263188,-20.755,-424.165,-107.17
1443,306617,2.908236,0.59292,-0.9181720999999999,-6.4575,-412.2475,-109.0075
1444,306714,3.016816,0.209108,-0.5282600000000001,-12.425,-388.3425,-116.7775
1445,306811,3.1341799999999997,-0.07417601,-0.05368,-52.0275,-354.3225,-130.3925
1446,306909,3.0453639999999997,-0.155428,0.490196,-103.53,-313.3375,-147.07
1447,307006,3.100752,-0.563884,0.9638,-133.7525,-259.4725,-165.9175
1448,307103,4.04674,-0.36892800000000003,1.525244,-142.8,-196.8225,-187.6875
1449,307200,4.350764,-0.21447600000000003,2.574688,-106.2775,-154.49,-177.1
1450,307297,3.174684,-0.55388,3.1659,-24.325,-95.69,-112.3325
1451,307394,2.541748,-0.8586360000000001,2.460252,25.375,24.6575,-21.4025
1452,307491,1.40544,0.429928,-0.244732,17.7975,140.63,52.4125
1453,307588,0.9286639999999999,1.094584,-0.275476,123.4975,241.2025,81.2875
1454,307685,0.6722199999999999,1.199748,-1.8239,227.115,275.0475,154.5075
1455,307782,-0.150304,-0.6109760000000001,-0.342088,279.1425,236.5825,175.8925
1456,307879,0.955016,-1.5401280000000002,-1.0826280000000001,182.945,282.17,81.83001
1457,307976,2.01666,-1.174128,-1.7099520000000001,21.2625,311.85,-65.0475
1458,308073,1.9717639999999999,-1.7040959999999998,-1.217072,8.96,271.7925,-36.0675
1459,308170,1.7265439999999999,-0.219112,-1.3827479999999999,-30.135,229.4775,-4.9875
1460,308267,1.695556,1.6143040000000002,-1.613328,-21.455,190.5225,28.0175
1461,308364,0.9774639999999999,1.214632,-0.9230520000000001,31.57,147.3675,30.6775
1462,308461,1.9356520000000002,-0.8874280999999999,-1.380064,62.3,115.6575,22.3125
1463,308558,1.02236,-0.376736,-0.9577,49.84,73.6925,33.8975
1464,308655,0.5414359999999999,0.758596,-0.826428,24.7975,24.255,21.6825
1465,308752,0.681736,-0.17836400000000002,-0.9154880999999999,42.35,30.3625,26.5825
1466,308849,0.664168,-0.02196,-0.8876719999999999,36.645,23.8525,22.8725
1467,308947,0.571204,0.08954801,-0.8805960999999999,28.9275,15.7325,16.66
1468,309044,0.653676,-0.057339999999999995,-0.8827921000000001,26.2675,14.875,13.685
1469,309141,0.593896,-0.013663999999999999,-0.8608319999999999,19.46,10.7625,9.0125
1470,309238,0.600484,0.0051240009999999996,-0.8525360000000001,14.2625,8.4875,5.25
1471,309335,0.583648,-0.044164,-0.862784,10.465,7.21,2.2925
1472,309432,0.580964,-0.0034159999999999998,-0.8596120999999999,5.6525,7.07,-1.155
1473,309529,0.5675439999999999,0.010492,-0.8476561,1.785,7.735,-3.885
1474,309626,0.561932,0.030744,-0.8425321,-0.455,8.6975,-5.39
1475,309723,0.548024,0.06075601,-0.8378960999999999,-1.4525,9.6075,-6.0375
1476,309820,0.549488,0.071248,-0.8337481,-1.435,11.48,-6.0025
1477,309917,0.5551,0.08296,-0.830576,-1.33,13.125,-6.09
1478,310014,0.5614439999999999,0.085156,-0.8249639999999999,-0.665,14.105,-6.58
1479,310111,0.565836,0.07198,-0.8176439999999999,0.28,13.685,-6.335
1480,310208,0.55998,0.05977999999999999,-0.8230120999999999,1.4875,12.915,-4.2175
1481,310305,0.571204,0.060024,-0.8164239999999999,1.89,12.6175,-3.22
1482,310402,0.579012,0.044896,-0.8103239999999999,1.7675,12.845,-3.2375
1483,310499,0.583404,0.044407999999999996,-0.8239880999999999,0.63,13.195,-2.6775
1484,310596,0.588284,0.045872,-0.8178880999999999,0.175,14.1925,-2.94
1485,310693,0.576816,0.040260000000000004,-0.8176439999999999,0.4375,15.26,-3.605
1486,310790,0.586332,0.040992,-0.817156,-0.2275,17.71,-3.43
1487,310887,0.5936520000000001,0.030987999999999998,-0.808372,-1.4525,20.09,-2.765
1488,310984,0.582184,0.033916,-0.815936,-2.1,22.575,-3.22
1489,311081,0.562908,0.034648000000000005,-0.8296,-3.115,25.725,-3.3075
1490,311179,0.555588,0.037576,-0.8300879999999999,-4.4975,30.59,-3.6575
1491,311276,0.559004,0.028548,-0.8403360000000001,-6.825,37.555,-3.605
1492,311373,0.575596,0.039772,-0.8383841000000001,-9.2575,43.9425,-3.8675
1493,311470,0.5702281,0.034892,-0.826672,-11.76,51.2225,-4.025
1494,311567,0.586088,0.034892,-0.8169121,-14.0175,59.01,-4.2875
1495,311664,0.586332,0.01708,-0.8100801,-15.4525,65.66,-5.285
1496,311761,0.5846241,0.011956,-0.807396,-16.2575,72.5725,-6.9125
1497,311858,0.5875520000000001,0.0305,-0.8081281,-16.765,80.7275,-8.9075
1498,311955,0.583404,0.045384,-0.81374,-17.0625,89.3025,-9.7125
1499,312052,0.58804,0.038308,-0.805932,-18.2175,100.4675,-8.6625
1500,312149,0.6021920000000001,0.0305,-0.796416,-19.0925,113.855,-7.6825
1501,312246,0.5856,0.038308,-0.805932,-20.055,128.7125,-8.9775
1502,312343,0.558516,0.058316,-0.828624,-19.7925,147.9975,-11.6725
1503,312440,0.5429,0.07002799999999999,-0.845216,-19.7225,173.985,-13.02
1504,312537,0.609024,0.096624,-0.9496479999999999,-20.1075,206.4475,-14.5075
1505,312634,0.48312,0.06636801,-0.907192,-20.93,221.2875,-21.875
1506,312731,0.532408,0.06661201,-0.9442801,-23.0475,256.3575,-27.1075
1507,312828,0.612928,0.08564401,-0.9555040000000001,-29.3825,313.11,-31.0625
1508,312925,0.7705521,-0.069784,-0.9286639999999999,-45.36,365.505,-44.0125
1509,313022,0.961116,0.024644,-1.0521280000000002,-87.4125,404.1625,-64.3825
1510,313119,1.713124,0.32818,-1.279292,-137.2175,455.56,-60.62
1511,313216,2.480016,0.614636,-1.6352879999999999,-155.4875,499.415,-37.065
1512,313313,2.53516,0.48263199999999995,-1.551108,-125.51,508.655,7.4725
1513,313411,2.429752,0.411384,-1.907348,-103.5475,509.74,36.925
1514,313508,2.0996200000000003,0.7451760000000001,-2.476356,-104.0025,499.73,55.8775
1515,313605,1.194868,0.480192,-2.530036,-102.1125,445.6375,83.9125
1516,313702,-0.309392,-0.06490399999999999,-2.101816,-131.53,419.1425,91.49
1517,313799,1.585512,-0.25424800000000003,-1.424228,-203.245,419.93,91.84000999999999
1518,313896,3.76126,1.365424,-4.0460080000000005,-245.0175,356.055,111.8075
1519,313993,2.310192,1.997872,-3.759064,-180.775,20.51,101.29
1520,314090,0.183488,1.581364,-2.3855880000000003,-47.88,-189.035,86.25751
1521,314187,-0.671244,1.0126,-1.350296,68.775,-239.715,77.47251
1522,314284,-0.503128,0.363316,-0.8574161,131.9675,-210.4025,76.0375
1523,314381,-0.138104,-0.011468,-0.738588,125.125,-198.135,69.055
1524,314478,0.089304,-0.07710399999999999,-0.7893399999999999,72.8525,-218.33,49.14
1525,314575,0.161528,0.151036,-0.868396,13.9825,-254.2225,26.46
1526,314672,0.23424,0.404796,-0.9147559999999999,-17.0625,-287.14,10.745
1527,314769,0.3782,0.505568,-0.9269561,-13.2825,-311.57,4.0075
1528,314866,0.47677600000000003,0.44725200000000004,-0.877668,8.89,-333.34,1.0675
1529,314963,0.5063,0.30475599999999997,-0.793244,28.7,-353.57,-2.3975
1530,315060,0.562664,0.164212,-0.759084,33.46,-369.3375,-9.66
1531,315157,0.65514,0.11712,-0.769332,23.4675,-382.725,-21.1575
1532,315254,0.736392,0.13761600000000002,-0.8239880999999999,8.19,-395.71,-34.4225
1533,315351,0.856684,0.1586,-0.9118280000000001,-3.4825,-406.175,-47.7575
1534,315448,1.006256,0.161772,-1.004548,-9.31,-415.135,-60.5675
1535,315545,1.135576,0.114192,-1.042368,-12.3025,-422.765,-71.75
1536,315643,1.262456,0.050996,-1.075308,-17.57,-427.8575,-80.22
1537,315740,1.502308,0.014152000000000001,-1.1714440000000002,-28.4375,-425.74,-85.295
1538,315837,1.74948,0.027083999999999997,-1.338584,-42.595,-421.715,-88.7775
1539,315934,1.974936,0.14347200000000002,-1.562088,-53.9175,-418.7575,-91.98001
1540,316031,2.36192,0.287432,-1.7985240000000002,-53.8475,-414.1025,-96.86251
1541,316128,2.827472,0.5077640999999999,-1.874896,-41.125,-414.68,-103.95
1542,316225,3.024868,0.56608,-1.547204,-14.7525,-424.6375,-108.7975
1543,316322,2.9502040000000003,0.33428,-1.035536,10.675,-428.68,-112.98
1544,316419,3.061224,0.235704,-0.594384,11.83,-410.55,-117.81
1545,316516,3.166632,0.14152,-0.133224,-4.095,-377.405,-114.3975
1546,316613,3.0878200000000002,-0.030987999999999998,0.43602799999999997,-26.95,-336.98,-109.69
1547,316710,2.9675279999999997,-0.446032,0.9906401,-53.305,-284.97,-113.82
1548,316807,3.7861480000000003,-0.755912,1.623332,-85.71500999999999,-220.6575,-135.4675
1549,316904,4.520588,-0.38795999999999997,2.612996,-105.875,-170.8875,-157.7975
1550,317001,3.571428,-0.196176,3.386964,-57.3125,-120.785,-134.785
1551,317098,2.429264,-0.49556400000000006,2.94142,25.0075,-5.5125,-57.61
1552,317195,2.776964,-0.639768,1.533296,67.41001,145.985,28.875
1553,317292,1.446676,0.378932,-1.255868,61.1625,200.515,89.215
1554,317389,0.293532,1.5006,-1.325408,100.0475,278.53,126.3675
1555,317486,0.080276,1.319796,-1.6540759999999999,187.0925,245.14,185.465
1556,317583,0.030012,-1.234884,-0.12078,206.5175,277.095,181.125
1557,317680,1.5859999999999999,0.155916,-1.599664,51.7125,311.0275,-0.4025
1558,317778,2.472696,-1.142408,-1.753872,14.0,299.3025,-60.55
1559,317875,1.813652,-0.788608,-1.182668,5.845,233.5725,-38.535
1560,317972,1.35664,-0.136152,-1.2251239999999999,-14.14,189.245,-13.615
1561,318069,1.581608,1.026996,-1.3163799999999999,6.8075,166.6175,24.395
1562,318166,1.16022,0.703696,-0.9589200999999999,38.535,117.215,20.0025
1563,318263,1.8038919999999998,-1.0943399999999999,-1.2373239999999999,57.6275,97.685,18.025
1564,318360,0.6029241,0.123708,-0.853024,29.7325,28.1925,19.4775
1565,318457,0.6790520999999999,0.44725200000000004,-0.8203280000000001,24.2375,28.805,14.7175
1566,318554,0.7239479999999999,-0.16835999999999998,-0.9118280000000001,37.2225,18.6375,20.1775
1567,318651,0.6456241,0.01708,-0.860344,29.61,11.305,16.4325
1568,318748,0.5795,-0.005612,-0.8674200000000001,22.8025,5.9325,11.3225
1569,318845,0.6273241,0.022448,-0.8410681000000001,19.775,6.1075,8.5925
1570,318942,0.650992,-0.12932000000000002,-0.8906,15.33,2.6775,5.005
1571,319039,0.5655920999999999,0.010004,-0.8464360000000001,6.4925,-1.365,-1.995
1572,319136,0.57096,-0.021716,-0.8430200999999999,3.5,-0.945,-4.725
1573,319233,0.571204,0.008540001,-0.8364321,1.575,-0.0175,-5.6
1574,319330,0.5636399999999999,0.02928,-0.8337481,-0.245,1.75,-5.7575
1575,319427,0.568032,0.043188,-0.8308200000000001,-1.0675,3.115,-5.7225
1576,319524,0.56242,0.049532,-0.8276481,-1.435,3.605,-5.7225
1577,319621,0.55632,0.049776,-0.8274040000000001,-1.3125,3.955,-5.6875
1578,319718,0.550952,0.059536,-0.8252079999999999,-0.9625,4.55,-5.8975
1579,319815,0.556076,0.061975999999999996,-0.826428,-0.595,5.2675,-6.2125
1580,319912,0.564128,0.058316,-0.8247200000000001,0.0525,5.7575,-6.1425
1581,320010,0.563884,0.053191999999999996,-0.821304,0.4025,6.195,-5.6525
1582,320107,0.568032,0.046360000000000005,-0.8220360000000001,-0.035,7.07,-5.7575
1583,320204,0.5607121,0.042212,-0.823256,-0.665,8.085,-6.3
1584,320301,0.55998,0.0488,-0.820572,-1.4,9.5375,-6.3175
1585,320398,0.559736,0.056608000000000006,-0.821792,-1.9425,10.9375,-6.2125
1586,320495,0.568764,0.05636401,-0.820572,-1.8375,12.425,-5.95
1587,320592,0.5673,0.0427,-0.8193521,-1.4525,13.8075,-6.1075
1588,320689,0.567056,0.035868000000000004,-0.820084,-1.645,15.2075,-5.46
1589,320786,0.5736441,0.043188,-0.824232,-2.135,17.7625,-4.725
1590,320883,0.57706,0.05246,-0.824232,-2.1525,20.055,-3.8675
1591,320980,0.5738880000000001,0.06124401,-0.8239880999999999,-2.0125,22.3475,-3.6225
1592,321077,0.5858439999999999,0.048312,-0.8178880999999999,-2.8,25.55,-4.0075
1593,321174,0.58072,0.047824,-0.8203280000000001,-3.7975,28.2275,-4.13
1594,321271,0.5516840000000001,0.035868000000000004,-0.835456,-5.005,32.1475,-4.1125
1595,321368,0.564128,0.041724000000000004,-0.8335040000000001,-7.735,38.9375,-4.235
1596,321465,0.567056,0.030987999999999998,-0.8322841000000001,-10.7975,47.1975,-4.7075
1597,321562,0.5697399999999999,0.024156,-0.8405800999999999,-12.9325,53.5675,-5.285
1598,321659,0.575596,0.016836,-0.8244761,-14.2625,61.6175,-6.4575
1599,321756,0.559248,0.00122,-0.837408,-15.47,70.455,-8.085
1600,321853,0.5736441,0.023668,-0.829356,-16.765,80.4825,-9.87
1601,321950,0.554124,0.022692,-0.833016,-18.3925,91.2275,-9.45
1602,322047,0.5743761,0.01708,-0.8147161,-19.7575,104.755,-7.8225
1603,322144,0.557052,0.017812,-0.834968,-20.6325,118.1425,-6.4575
1604,322242,0.563884,0.055388,-0.8291120999999999,-21.5425,136.045,-6.4925
1605,322339,0.5441199999999999,0.08344800000000001,-0.8459479999999999,-21.7875,157.99,-8.155
1606,322436,0.5192319999999999,0.105896,-0.8581479999999999,-20.86,186.76,-9.8525
1607,322533,0.527772,0.106628,-0.8876719999999999,-18.865,223.02,-8.1725
1608,322630,0.503372,0.06539201,-0.895236,-17.7275,246.295,-10.8325
1609,322727,0.538508,0.126392,-0.901336,-16.975,274.5575,-16.0825
1610,322824,0.641232,0.0549,-0.8876719999999999,-18.865,332.64,-15.0325
1611,322921,0.8247200000000001,-0.051484,-0.919636,-33.67,378.945,-31.4825
1612,323018,1.013332,0.05368,-0.9718521000000001,-71.2425,409.8325,-53.375
1613,323115,1.7741240000000003,0.31232,-1.196332,-118.5975,457.7825,-47.075
1614,323212,2.552484,0.59292,-1.586976,-137.165,495.81,-25.3575
1615,323309,2.526132,0.424804,-1.4701,-105.2625,501.095,14.98
1616,323406,2.362164,0.29792399999999997,-1.778272,-85.9425,501.5675,38.2725
1617,323503,2.01666,0.675148,-2.389004,-90.1775,498.54,52.43
1618,323600,1.291248,0.466772,-2.364116,-85.82,448.0875,78.61
1619,323697,-0.016592,-0.025863999999999998,-1.9886,-110.2325,422.17,87.7275
1620,323794,1.504992,-0.381372,-1.1089799999999999,-175.7,429.4325,89.8275
1621,323891,3.866668,1.0704280000000002,-3.9554839999999998,-220.15,370.65,109.0425
1622,323988,2.4512240000000003,1.8400040000000002,-3.7327120000000003,-176.26,39.7775,94.255
1623,324085,0.28011199999999997,1.467416,-2.406084,-58.695,-175.14,79.555
1624,324182,-0.610488,0.9018241,-1.3712799999999998,49.3325,-231.735,70.5425
1625,324280,-0.553392,0.256444,-0.8464360000000001,107.2575,-204.3475,67.7075
1626,324377,-0.16835999999999998,-0.10687200000000001,-0.743712,97.755,-188.1775,60.5325
1627,324474,0.089792,-0.139812,-0.830332,45.9025,-204.225,42.035
1628,324571,0.179096,0.07588400000000001,-0.9450120000000001,-8.505,-239.6975,22.6975
1629,324668,0.23887600000000003,0.289628,-0.9979600000000001,-35.07,-274.6625,9.94
1630,324765,0.329888,0.3721,-0.9869800999999999,-28.35,-302.365,4.69
1631,324862,0.406016,0.317688,-0.9145120999999999,-4.4275,-324.73,3.08
1632,324959,0.485072,0.18324400000000002,-0.8459479999999999,17.535,-343.07,1.015
1633,325056,0.5404601,0.061488,-0.800564,25.095,-359.3975,-4.2875
1634,325153,0.609024,0.001464,-0.787144,18.165,-374.3775,-13.44
1635,325250,0.71126,0.020008,-0.8483879999999999,4.2,-387.24,-25.445
1636,325347,0.8430200999999999,0.093696,-0.9450120000000001,-6.2125,-398.5975,-37.835
1637,325444,0.9806360000000001,0.177144,-1.0255319999999999,-5.7925,-409.01,-47.215
1638,325541,1.384212,0.1525,-0.951356,5.215,-416.6225,-52.0625
1639,325638,1.1087360000000002,0.17616800000000002,-1.007232,16.345,-427.7875,-54.5825
1640,325735,1.4064159999999999,0.186416,-1.22366,25.165,-429.6075,-58.5725
1641,325832,1.641876,0.211548,-1.418372,24.675,-434.2275,-67.3925
1642,325929,1.8758720000000002,0.2928,-1.617232,17.325,-441.4725,-81.53251
1643,326026,2.169892,0.41553199999999996,-1.7763200000000001,11.6025,-447.7025,-98.1575
1644,326123,2.519544,0.535092,-1.7997439999999998,11.235,-451.4825,-114.7125
1645,326220,2.7833080000000003,0.525332,-1.605276,15.3475,-452.48,-131.4775
1646,326317,2.90482,0.389424,-1.289784,15.26,-446.8625,-149.485
1647,326414,3.143452,0.584868,-0.94916,1.995,-428.4,-162.3475
1648,326512,3.281068,0.7137001000000001,-0.267912,-0.7,-394.73,-155.4175
1649,326609,3.457968,0.050508,0.19642,-4.2875,-340.4975,-131.9675
1650,326706,3.174928,-0.7224841,0.9167081,-68.0925,-316.6625,-124.9675
1651,326803,3.6490199999999997,-1.276852,1.8241439999999998,-186.0425,-255.7975,-146.4575
1652,326900,4.519856,-0.41260399999999997,2.437316,-290.4125,-208.6175,-184.415
1653,326997,4.275856,0.47092,3.149796,-250.1275,-152.9675,-177.4675
1654,327094,2.625684,-0.11248399999999999,3.087576,-75.88,-57.435,-74.83
1655,327191,1.7504560000000002,-0.670268,2.010316,56.8925,101.745,72.205
1656,327288,0.9232961,0.517768,0.217404,111.09,302.015,173.915
1657,327385,1.848788,1.4208120000000002,-2.490508,208.9675,318.045,264.3025
1658,327482,0.526552,-1.397632,-0.7598161,270.1475,278.6,303.5725
1659,327579,0.5892601,0.059536,-0.7473721,113.26,257.6175,126.8575
1660,327676,2.079368,0.365268,-1.9551720000000001,-9.6425,300.16,-56.98
1661,327773,2.193072,-1.2609920000000001,-1.483276,27.4925,275.0825,-29.435
1662,327870,1.2524520000000001,-0.85034,-0.981124,-8.785,196.665,-44.0125
1663,327967,1.38714,0.017324000000000003,-1.53598,-21.56,177.065,3.185
1664,328064,1.557452,1.262944,-1.143628,-2.8525,164.2025,39.34
1665,328161,1.6853080000000003,0.9618481,-1.435208,24.99,105.035,22.9775
1666,328258,1.1575360000000001,-0.8003201,-0.99918,51.4325,76.1075,30.03
1667,328355,0.593896,0.49044,-0.915976,26.425,18.3225,22.295
1668,328452,0.5919439999999999,0.305,-0.8188641,30.4325,30.73,21.5075
1669,328549,0.652212,-0.13298,-0.898652,38.2375,22.6975,24.815
1670,328646,0.595116,0.12688,-0.8559521000000001,32.7775,18.7775,20.2825
1671,328743,0.624152,-0.08369201,-0.898408,31.3775,13.93,18.025
1672,328840,0.6178081,-0.054412,-0.8669319999999999,25.27,12.285,13.2825
1673,328938,0.5892601,-0.007808001,-0.8481440999999998,18.7425,9.065,8.54
1674,329035,0.6600201,-0.1586,-0.90646,14.175,8.015,4.6025
1675,329132,0.561932,0.010004,-0.853512,3.6925,5.11,-3.045
1676,329229,0.5636399999999999,-0.008784,-0.84424,-0.3325,5.6,-5.8275
1677,329326,0.5648601,0.038796,-0.8398479999999999,-1.715,6.685,-6.3175
1678,329423,0.552172,0.054167999999999994,-0.8369200000000001,-2.205,7.9625,-6.2125
1679,329520,0.5458281,0.0793,-0.835456,-1.855,9.555,-5.9325
1680,329617,0.5455840000000001,0.086132,-0.827892,-0.8225,10.465,-5.67
1681,329714,0.554856,0.09223200000000001,-0.822768,0.315,10.7975,-4.4975
1682,329811,0.56852,0.082228,-0.8215481,1.4,10.815,-4.095
1683,329908,0.5690081,0.06539201,-0.815936,2.0125,10.115,-3.675
1684,330005,0.5814520000000001,0.058316,-0.813496,2.555,10.22,-3.36
1685,330102,0.590968,0.02684,-0.81252,3.045,10.6225,-3.255
1686,330199,0.578036,0.041724000000000004,-0.8164239999999999,2.6775,10.605,-3.745
1687,330296,0.5843801,0.023180000000000003,-0.813984,1.505,12.495,-3.395
1688,330393,0.580232,0.025131999999999998,-0.821792,0.0175,14.5075,-3.6575
1689,330490,0.584868,0.026108,-0.8244761,-1.5575,17.08,-3.99
