,T,ax,ay,az,gx,gy,gz
0,176582,0.536556,-0.11028800000000001,-0.6441600000000001,16.9925,-16.555,-17.9375
1,176737,0.564372,-0.101992,-0.742004,45.64,-95.7775,-120.19
2,176833,0.5926760999999999,-0.123464,-0.7861680999999999,41.3,-168.5075,-170.9575
3,176929,0.594384,-0.123464,-0.787632,46.375,-132.4225,-58.9575
4,177025,0.593896,-0.12444000000000001,-0.7881199999999999,3.43,-8.6625,-5.6175
5,177122,0.5926760999999999,-0.125416,-0.7893399999999999,1.785,-3.675,-3.3425
6,177218,0.592188,-0.123708,-0.789828,1.75,-3.6575,-3.43
7,177314,0.591212,-0.126392,-0.788852,1.75,-3.6575,-3.43
8,177410,0.5919439999999999,-0.123708,-0.791048,1.645,-3.6925,-3.5175
9,177506,0.5919439999999999,-0.12468399999999999,-0.7893399999999999,1.68,-3.535,-3.5
10,177603,0.59292,-0.126636,-0.79178,1.785,-3.5525,-3.5
11,177699,0.590968,-0.122,-0.790072,1.68,-3.6225,-3.5
12,177795,0.590724,-0.125416,-0.791292,1.645,-3.78,-3.4475
13,177891,0.5919439999999999,-0.12248800000000001,-0.7903161,1.6975,-3.71,-3.5175
14,177987,0.5914560000000001,-0.125416,-0.7893399999999999,1.7675,-3.5875,-3.4475
15,178084,0.590236,-0.123708,-0.791536,1.75,-3.7975,-3.535
16,178180,0.591212,-0.126148,-0.7881199999999999,1.68,-3.7275,-3.4825
17,178276,0.5917,-0.12468399999999999,-0.790804,1.7325,-3.6225,-3.465
18,178372,0.590724,-0.123708,-0.79056,1.7325,-3.675,-3.535
19,178469,0.589992,-0.12468399999999999,-0.790804,1.7325,-3.6575,-3.5
20,178565,0.590724,-0.122244,-0.791292,1.75,-3.71,-3.57
21,178661,0.592188,-0.12248800000000001,-0.79056,1.6975,-3.6925,-3.5
22,178757,0.5897479999999999,-0.12395199999999999,-0.793488,1.6625,-3.64,-3.535
23,178854,0.5914560000000001,-0.12444000000000001,-0.7903161,1.7325,-3.6925,-3.57
24,178950,0.592432,-0.123464,-0.791048,1.715,-3.71,-3.57
25,179046,0.5917,-0.122732,-0.79178,1.8025,-3.6575,-3.465
26,179142,0.5897479999999999,-0.125172,-0.791292,1.9075,-3.64,-3.43
27,179238,0.5914560000000001,-0.123464,-0.7922680000000001,1.9075,-3.6575,-3.465
28,179335,0.590968,-0.12566,-0.788852,1.855,-3.64,-3.5175
29,179431,0.5919439999999999,-0.125904,-0.7895840999999999,1.8025,-3.7275,-3.5525
30,179527,0.5914560000000001,-0.12444000000000001,-0.789828,1.75,-3.675,-3.535
31,179623,0.5917,-0.12322000000000001,-0.791048,1.8375,-3.64,-3.43
32,179720,0.591212,-0.12444000000000001,-0.7903161,1.785,-3.64,-3.3775
33,179816,0.5914560000000001,-0.12444000000000001,-0.79056,1.715,-3.7275,-3.4475
34,179912,0.59048,-0.122732,-0.791292,1.7675,-3.7625,-3.535
35,180008,0.590968,-0.123708,-0.791292,1.7675,-3.6575,-3.4475
36,180104,0.59048,-0.12468399999999999,-0.79056,1.645,-3.6225,-3.4825
37,180201,0.59292,-0.124196,-0.79178,1.7325,-3.6225,-3.535
38,180297,0.5914560000000001,-0.125172,-0.7895840999999999,1.82,-3.6575,-3.535
39,180393,0.592432,-0.126636,-0.791048,1.8375,-3.675,-3.4475
40,180489,0.5919439999999999,-0.12248800000000001,-0.7903161,1.785,-3.745,-3.465
41,180586,0.59048,-0.126636,-0.786412,1.89,-3.6225,-3.4825
42,180682,0.59048,-0.123464,-0.79056,1.8375,-3.71,-3.535
43,180778,0.592432,-0.125172,-0.7890961,1.785,-3.745,-3.5525
44,180874,0.592188,-0.12566,-0.790072,1.8375,-3.6225,-3.5175
45,180970,0.590968,-0.125904,-0.787876,1.8375,-3.71,-3.43
46,181067,0.5919439999999999,-0.12444000000000001,-0.787876,1.8025,-3.71,-3.395
47,181163,0.591212,-0.126148,-0.788852,1.75,-3.7625,-3.465
48,181259,0.591212,-0.126148,-0.787876,1.6625,-3.6575,-3.4825
49,181355,0.592432,-0.125172,-0.789828,1.75,-3.6225,-3.4475
50,181452,0.592188,-0.12566,-0.7895840999999999,1.7325,-3.6575,-3.3775
51,181548,0.5926760999999999,-0.125904,-0.7893399999999999,1.785,-3.7625,-3.4125
52,181644,0.59292,-0.124928,-0.789828,1.7325,-3.7275,-3.5525
53,181740,0.590968,-0.12444000000000001,-0.791048,1.8025,-3.6575,-3.4825
54,181837,0.5926760999999999,-0.126148,-0.791536,1.9775,-3.675,-3.395
55,181933,0.5914560000000001,-0.124928,-0.79056,1.96,-3.71,-3.43
56,182029,0.5926760999999999,-0.125904,-0.790804,2.135,-3.675,-3.395
57,182125,0.5926760999999999,-0.125416,-0.790072,2.135,-3.7625,-3.2725
58,182222,0.5914560000000001,-0.124928,-0.7881199999999999,2.1525,-3.71,-3.3075
59,182318,0.593896,-0.127368,-0.790072,2.065,-3.5875,-3.36
60,182414,0.592188,-0.127368,-0.790072,2.03,-3.64,-3.4125
61,182510,0.5914560000000001,-0.126148,-0.7903161,1.9775,-3.745,-3.36
62,182606,0.589992,-0.126148,-0.788608,1.96,-3.6925,-3.43
63,182703,0.593896,-0.124928,-0.791292,2.03,-3.71,-3.36
64,182799,0.590968,-0.12395199999999999,-0.791292,2.2225,-3.71,-3.255
65,182895,0.592432,-0.124928,-0.790804,2.345,-3.6925,-3.22
66,182991,0.59292,-0.126148,-0.788608,2.275,-3.675,-3.1675
67,183087,0.589992,-0.125904,-0.788608,2.1875,-3.64,-3.2025
68,183184,0.590724,-0.125416,-0.7893399999999999,2.065,-3.605,-3.3425
69,183280,0.593164,-0.127856,-0.788852,2.0825,-3.605,-3.3775
70,183376,0.59536,-0.12688,-0.790072,2.1175,-3.57,-3.4125
71,183472,0.5941401,-0.12688,-0.791048,2.24,-3.6925,-3.255
72,183568,0.5948720000000001,-0.125904,-0.7922680000000001,2.38,-3.7275,-3.1675
73,183665,0.593896,-0.12980799999999998,-0.7895840999999999,2.45,-3.6925,-3.1325
74,183761,0.592188,-0.126392,-0.789828,2.31,-3.675,-3.2025
75,183857,0.592188,-0.126392,-0.7883640000000001,2.31,-3.71,-3.185
76,183953,0.5917,-0.127856,-0.7903161,2.17,-3.6575,-3.185
77,184050,0.592188,-0.129076,-0.7881199999999999,2.0475,-3.6225,-3.325
78,184146,0.595604,-0.128588,-0.789828,1.8725,-3.675,-3.43
79,184242,0.590724,-0.12566,-0.790804,1.7325,-3.71,-3.43
80,184338,0.593164,-0.125172,-0.791048,1.785,-3.6575,-3.5175
81,184434,0.593896,-0.125904,-0.793488,1.96,-3.6575,-3.36
82,184531,0.5934081,-0.12761199999999998,-0.790804,2.1875,-3.605,-3.22
83,184627,0.591212,-0.122244,-0.790804,2.4325,-3.675,-3.115
84,184723,0.5946279999999999,-0.128832,-0.790072,2.6075,-3.64,-3.08
85,184819,0.592188,-0.119316,-0.793244,2.8,-3.7975,-3.0275
86,184916,0.593164,-0.136884,-0.783728,3.01,-3.78,-3.0625
87,185012,0.606096,-0.118584,-0.7983680000000001,3.3425,-3.6925,-2.905
88,185108,0.60268,-0.11955999999999999,-0.801296,4.3925,-4.1475,-2.135
89,185204,0.60634,-0.126148,-0.801784,5.8975,-4.5325,-1.435
90,185301,0.604144,-0.12248800000000001,-0.8015399999999999,7.035,-5.04,-0.6825
91,185397,0.6131721,-0.12248800000000001,-0.8044680999999999,8.2425,-5.6,0.0175
92,185493,0.606584,-0.145912,-0.7944641,9.31,-6.6675,0.735
93,185589,0.6097560000000001,-0.141276,-0.7978801,10.045,-7.525,1.19
94,185686,0.621712,-0.11053199999999999,-0.8149601,10.36,-8.7675,1.6275
95,185782,0.630008,-0.10858,-0.8147161,11.935,-9.7825,2.7475
96,185878,0.595116,-0.09516001,-0.7998321,13.055,-12.1975,3.92
97,185974,0.589016,-0.157868,-0.7861680999999999,13.335,-13.23,3.92
98,186071,0.580476,-0.193248,-0.774456,12.6525,-12.81,4.1125
99,186167,0.581696,-0.148352,-0.7895840999999999,10.6925,-12.88,3.7975
100,186263,0.5577840000000001,-0.15762400000000001,-0.7747001,9.17,-12.7225,3.4125
101,186359,0.5077640999999999,-0.180804,-0.756644,7.7525,-12.425,2.45
102,186456,0.552172,-0.172752,-0.7759199999999999,6.2475,-8.75,0.735
103,186552,0.5553441,-0.14762,-0.7832399999999999,5.075,-6.965,-0.42
104,186648,0.506788,-0.15006,-0.7612800999999999,4.6025,-6.3875,-1.085
105,186744,0.527528,-0.162504,-0.7600600000000001,3.9025,-3.15,-2.73
106,186841,0.5314321,-0.160796,-0.7664041,2.0825,-0.7175,-4.4975
107,186937,0.527528,-0.162504,-0.7659161,0.1225,0.9975,-6.23
108,187033,0.564616,-0.157868,-0.783728,-1.575,3.395,-7.7175
109,187129,0.547048,-0.15738,-0.771772,-3.1325,4.2525,-8.68
110,187226,0.534848,-0.16714,-0.764208,-5.53,5.3025,-10.01
111,187322,0.5551,-0.159088,-0.766892,-8.7325,7.455,-11.9875
112,187418,0.57462,-0.15274400000000002,-0.7754321,-12.1975,8.54,-13.965
113,187514,0.648552,-0.132492,-0.835456,-13.9475,8.8025,-14.945
114,187611,0.632204,-0.11467999999999999,-0.815204,-12.1975,6.055,-13.58
115,187707,0.618784,-0.133712,-0.80642,-9.4325,3.9375,-11.7075
116,187803,0.64904,-0.12248800000000001,-0.8298440999999999,-7.5425,3.115,-10.43
117,187899,0.661728,-0.115656,-0.819108,-3.2725,2.0125,-7.91
118,187996,0.662948,-0.11614400000000001,-0.837408,0.8575,-1.3125,-4.9525
119,188092,0.6368401,-0.11321600000000001,-0.80886,6.02,-2.7475,-1.715
120,188188,0.610488,-0.14786400000000002,-0.7895840999999999,8.785,-6.1775,0.4025
121,188284,0.5958479999999999,-0.134688,-0.782752,9.1875,-6.58,0.4725
122,188381,0.5843801,-0.154452,-0.774212,8.89,-7.1225,0.4375
123,188477,0.5692520000000001,-0.15372,-0.7686,6.7725,-6.965,-0.6125
124,188573,0.559736,-0.14713199999999999,-0.763476,4.3925,-6.405,-2.03
125,188669,0.537044,-0.153232,-0.7700640999999999,1.96,-5.5125,-3.535
126,188766,0.556808,-0.14152,-0.768844,0.245,-2.52,-5.215
127,188862,0.5546121,-0.145424,-0.774944,-1.6275,-1.1375,-6.685
128,188958,0.5602239999999999,-0.149572,-0.7734800000000001,-3.115,0.7525,-8.1725
129,189054,0.576816,-0.128588,-0.781776,-4.725,2.135,-9.5725
130,189151,0.58682,-0.132736,-0.784704,-5.6525,3.22,-10.15
131,189247,0.601704,-0.113704,-0.79178,-6.3525,3.71,-10.3075
132,189343,0.6070720000000001,-0.11955999999999999,-0.787144,-6.1425,3.7975,-9.73
133,189439,0.61,-0.119804,-0.7944641,-5.845,3.78,-8.995
134,189536,0.634156,-0.11467999999999999,-0.8025161,-4.8825,3.5,-8.085
135,189632,0.6822239999999999,-0.111508,-0.8105680000000001,-2.1875,2.5725,-6.475
136,189728,0.6326921,-0.101504,-0.7903161,1.4875,-1.155,-4.06
137,189824,0.6505041,-0.117852,-0.7922680000000001,3.92,-3.9025,-2.485
138,189921,0.642696,-0.10906800000000001,-0.801296,6.265,-6.3175,-0.9625
139,190017,0.626104,-0.118584,-0.7944641,9.1175,-8.82,0.805
140,190113,0.619516,-0.133956,-0.785192,10.7975,-10.64,1.9775
141,190209,0.616588,-0.135664,-0.7734800000000001,10.535,-12.0575,2.4325
142,190306,0.6097560000000001,-0.133468,-0.772992,8.925,-13.8075,2.52
143,190402,0.618052,-0.12029200000000001,-0.792024,6.7025,-14.8925,2.59
144,190498,0.625616,-0.132004,-0.8015399999999999,5.9325,-15.8025,2.9225
145,190594,0.637084,-0.126392,-0.8291120999999999,5.81,-17.22,3.15
146,190691,0.655628,-0.011224,-0.8818159999999999,7.5425,-18.48,2.7125
147,190787,0.576328,-0.228384,-0.7612800999999999,10.4125,-21.77,2.2225
148,190883,0.570716,-0.191296,-0.7856801,8.05,-21.14,2.7475
149,190979,0.5987760999999999,-0.066856,-0.8335040000000001,5.95,-19.775,3.535
150,191076,0.61122,-0.1037,-0.8413120000000001,7.7525,-18.2525,4.41
151,191172,0.51118,-0.21447600000000003,-0.754204,8.47,-18.48,5.3725
152,191268,0.434076,-0.188124,-0.7095520000000001,5.2325,-16.2575,3.1325
153,191364,0.41846000000000005,-0.08784,-0.724436,1.015,-8.925,-1.82
154,191461,0.393816,-0.047824,-0.6973520000000001,-0.105,-0.245,-7.665
155,191557,0.310368,-0.066856,-0.681736,-1.96,6.7725,-19.0225
156,191653,0.29524,-0.08466801,-0.72102,-4.1475,19.81,-34.9825
157,191749,0.5843801,-0.106628,-1.07726,-6.965,36.33,-57.47
158,191846,0.255956,-0.9706319999999999,-1.049688,-14.7875,53.515,-80.36
159,191942,0.51362,-1.2197559999999998,-1.581364,-82.5475,77.8575,-96.74
160,192038,0.187148,0.39161999999999997,-1.321748,-149.4325,104.125,-99.26001
161,192134,0.531188,-0.354532,-1.524024,-51.6775,122.1325,-90.545
162,192230,0.9950319999999999,-0.326716,-2.007388,-13.37,163.8875,-108.43
163,192327,0.488,-0.554856,-1.85074,-15.4,128.6075,-113.015
164,192423,0.0793,-0.5160600000000001,-1.4842520000000001,-8.645,108.5175,-116.4275
165,192519,-0.006344,-0.499468,-1.41764,1.1725,107.5725,-118.86
166,192615,-0.007076001,-0.6707561,-1.431548,18.6725,98.56,-112.805
167,192712,-0.07588400000000001,-0.6980841,-1.36274,25.2175,79.0475,-100.485
168,192808,-0.112972,-0.636352,-1.274168,28.42,58.8875,-80.5875
169,192904,-0.166164,-0.616588,-1.181936,34.1425,41.2125,-55.3
170,193000,-0.18178,-0.56242,-1.156072,35.0525,24.99,-29.96
171,193097,-0.156892,-0.45457200000000003,-1.181936,33.005,10.6225,-5.425
172,193193,-0.142008,-0.33671999999999996,-1.196332,33.705,-5.88,18.095
173,193289,-0.099552,-0.268888,-1.198528,37.45,-22.61,39.9
174,193385,-0.07832401,-0.195932,-1.1690040000000002,38.6925,-39.62,57.61
175,193482,-0.08466801,-0.08296,-1.1209360000000002,36.89,-56.595,70.175
176,193578,-0.039284,0.003904,-1.105564,36.505,-70.4025,78.48751
177,193674,0.002928,0.040504000000000005,-1.0889719999999998,37.5725,-82.7575,83.475
178,193770,0.040016,0.067832,-1.063108,36.085,-95.2,84.8925
179,193867,0.121024,0.09223200000000001,-1.0704280000000002,33.075,-104.7375,83.94751
180,193963,0.24668400000000001,0.07881200000000001,-1.11874,31.2375,-112.805,83.125
181,194059,0.387472,0.040016,-1.162172,29.75,-121.6425,83.405
182,194155,0.41675200000000007,0.005856,-1.090192,26.3025,-133.5425,84.5075
183,194252,0.39723200000000003,-0.012444,-0.9716081,21.1575,-142.2225,85.83751
184,194348,0.451888,-0.069052,-0.9042641,17.43,-142.1,87.2725
185,194444,0.525576,-0.153232,-0.8576601,14.385,-138.1625,89.4075
186,194540,0.630008,-0.24156,-0.8296,8.3475,-133.8925,92.96
187,194637,0.71614,-0.289628,-0.803736,-3.1675,-129.71,96.3025
188,194733,0.803248,-0.23741199999999998,-0.782752,-17.85,-127.05,97.4225
189,194829,0.9381801,-0.191296,-0.758108,-26.0225,-121.9925,97.895
190,194925,1.0523719999999999,-0.163236,-0.684176,-29.085,-117.215,97.79
191,195022,1.2043840000000001,-0.105896,-0.608536,-28.945,-111.72,96.84501
192,195118,1.345416,-0.053924,-0.48214399999999996,-23.905,-105.0525,96.67
193,195214,1.405196,0.009516001,-0.28377199999999997,-17.3775,-98.595,96.32
194,195310,1.497428,0.024156,-0.08417999999999999,-11.2,-86.11751,92.61001
195,195407,1.587952,0.040504000000000005,0.071004,-9.66,-71.015,81.11251
196,195503,1.739232,0.049288,0.124928,-10.605,-54.355,60.9175
197,195599,1.850252,0.10394400000000001,0.161528,-8.785,-42.77,35.595
198,195695,1.802916,0.122976,0.28938400000000003,1.015,-37.345,10.36
199,195791,1.6818919999999997,0.08662001,0.477996,17.5525,-27.9825,-13.4925
200,195888,0.754692,-0.9189040999999999,1.7043400000000002,18.9,-4.9525,-36.6275
201,195984,2.039596,1.429108,1.340536,-77.0525,108.535,-108.0975
202,196080,1.9071040000000001,0.06344,-1.226344,-45.4125,191.59,-93.695
203,196176,2.8957919999999997,0.085156,-2.536624,31.745,244.5975,-12.74
204,196273,0.6695361,0.020008,-0.692472,-3.5875,90.3875,-29.1375
205,196369,0.4514,-0.652212,-0.8554641,8.2425,108.22,-41.9475
206,196465,0.019764,-0.7390760000000001,-0.40821199999999996,11.6375,111.545,-18.9
207,196561,0.6224441,0.0051240009999999996,-0.796416,8.33,139.37,-9.0475
208,196658,1.659444,0.29743600000000003,-1.389092,12.8975,153.5975,-12.565
209,196754,2.733288,-0.36282800000000004,-1.613328,4.3225,130.97,-43.8725
210,196850,-0.0671,-0.406748,-0.317932,-36.645,-2.0825,-35.7875
211,196946,1.504992,0.29768,-1.473516,-37.73,41.6675,-36.2425
212,197043,0.7095520000000001,-0.1525,-0.7747001,-19.215,34.335,-25.3225
213,197139,0.676612,-0.266692,-0.8522921,-18.2875,-11.6375,-12.6175
214,197235,0.6673399999999999,-0.066856,-0.8601,-13.5625,11.585,-12.7925
215,197331,0.660752,-0.13298,-0.834968,-9.03,-2.8175,-7.8225
216,197428,0.5565640000000001,-0.133712,-0.785924,-4.7075,-1.33,-5.32
217,197524,0.625128,-0.075396,-0.820816,-2.5725,0.3675,-4.62
218,197620,0.5577840000000001,-0.12712400000000001,-0.764208,0.63,0.1925,-2.7475
219,197716,0.5736441,-0.10394400000000001,-0.7929999999999999,0.525,1.7325,-2.9925
220,197812,0.6009720000000001,-0.12053599999999999,-0.793976,1.2425,3.9375,-3.045
221,197909,0.5875520000000001,-0.138104,-0.774212,2.5725,4.27,-2.38
222,198005,0.57218,-0.15372,-0.7686,1.575,4.095,-2.8875
223,198101,0.5846241,-0.18446400000000002,-0.7686,-0.2975,5.3725,-4.1825
224,198198,0.606096,-0.20252,-0.7761640999999999,-2.38,5.8275,-5.9325
225,198294,0.590724,-0.156648,-0.7895840999999999,-3.71,4.9875,-7.28
226,198390,0.577304,-0.185684,-0.772748,-3.395,5.2325,-7.455
227,198486,0.5919439999999999,-0.164944,-0.779824,-3.5,6.44,-8.26
228,198583,0.5631520000000001,-0.187148,-0.7556681,-3.5,7.2975,-8.89
229,198679,0.580476,-0.168604,-0.773968,-4.6725,8.47,-10.605
230,198775,0.5975560000000001,-0.146644,-0.7869,-4.935,10.15,-11.795
231,198871,0.6082920999999999,-0.137372,-0.784704,-3.675,10.955,-11.655
232,198968,0.614392,-0.130296,-0.793976,-1.82,12.32,-10.64
233,199064,0.617564,-0.125172,-0.788852,-0.035,13.1075,-9.3975
234,199160,0.625372,-0.12175599999999999,-0.780068,1.82,15.1025,-8.2775
235,199256,0.6307401,-0.08003201,-0.821304,4.13,15.89,-8.05
236,199353,0.562176,-0.07417601,-0.8127641,7.98,16.7825,-7.28
237,199449,0.614636,-0.10394400000000001,-0.7881199999999999,12.0925,25.2875,-6.2825
238,199545,0.58804,-0.096624,-0.7854361,15.33,30.5025,-5.775
239,199641,0.60268,-0.10223600000000001,-0.785924,18.165,37.5725,-5.005
240,199737,0.6021920000000001,-0.11224,-0.782752,19.2675,43.3475,-4.3925
241,199834,0.5885281,-0.121512,-0.792024,20.4925,50.925,-3.8325
242,199930,0.5926760999999999,-0.138836,-0.798856,22.0675,59.0625,-4.3925
243,200026,0.593896,-0.13785999999999998,-0.7983680000000001,23.45,68.04,-5.635
244,200122,0.6097560000000001,-0.134932,-0.7832399999999999,25.4625,77.42,-7.875
245,200219,0.6263479999999999,-0.13542,-0.768356,28.5425,85.54,-11.0775
246,200315,0.640744,-0.13151600000000002,-0.7500560000000001,30.905,92.225,-15.2775
247,200411,0.659776,-0.126392,-0.736392,32.585,98.8575,-18.2525
248,200507,0.655384,-0.126392,-0.7332201,32.6725,107.6075,-18.8825
249,200604,0.666852,-0.134444,-0.698816,31.57,119.595,-17.4825
250,200700,0.648552,-0.111508,-0.706136,29.645,133.3675,-15.365
251,200796,0.6695361,-0.099552,-0.697108,26.88,151.9525,-11.06
252,200892,0.654896,-0.07490801,-0.720288,21.875,173.1275,-5.4425
253,200988,0.6512359999999999,-0.080276,-0.7427361,17.5875,197.4175,1.26
254,201085,1.2073120000000002,-0.26156799999999997,-0.853024,11.655,218.61,4.935
255,201181,0.665632,-0.082472,-0.9625799999999999,-14.1925,177.7125,0.8225
256,201277,0.729316,-0.157136,-0.948184,-16.2225,177.4675,-1.995
257,201373,0.959408,-0.24326799999999998,-0.9650200999999999,-4.41,226.4675,2.1
258,201470,0.9108521,-0.34892,-0.9860040999999999,30.38,289.38,9.45
259,201566,1.2017,-0.557052,-1.313696,73.745,362.495,0.175
260,201662,1.699704,-0.659532,-1.379576,91.4725,421.365,-34.1075
261,201758,1.6226,-0.6980841,-1.478884,88.13,460.5825,-75.9325
262,201855,2.37534,-0.7622561,-1.24928,88.6025,476.385,-115.5
263,201951,2.001288,-0.471164,-1.521096,95.9525,557.0775,-139.16
264,202047,1.8980759999999999,-0.22643200000000002,-2.523692,123.7425,573.3875,-137.83
265,202143,1.7694880000000002,-0.506788,-2.794532,166.8975,511.9275,-140.945
266,202240,0.869128,0.561688,-1.045784,231.9625,383.5825,-142.135
267,202336,5.085936,-2.04716,-4.394196,266.9975,413.6475,-174.895
268,202432,2.8845680000000002,-2.5827400000000003,-3.956948,167.3525,39.9175,-88.725
269,202528,0.09125599999999999,-1.9236959999999999,-2.377048,21.455,-189.805,-66.1675
270,202624,-0.60634,-0.8827921000000001,-1.602592,-80.675,-233.905,-68.11
271,202721,-0.303292,-0.288652,-1.438868,-98.42,-206.7275,-64.8025
272,202817,-0.030256,-0.08954801,-1.390312,-56.875,-210.2625,-42.98
273,202913,0.158112,-0.272304,-1.336876,2.5375,-234.4125,-14.0525
274,203009,0.209596,-0.511668,-1.1951120000000002,36.1375,-271.005,5.4075
275,203106,0.24766,-0.5380199999999999,-1.06628,33.075,-305.935,9.5725
276,203202,0.264252,-0.38795999999999997,-0.9403761,15.4,-333.4975,6.72
277,203298,0.326472,-0.21081599999999998,-0.83936,7.3675,-350.9975,5.5125
278,203394,0.393572,-0.119072,-0.758596,15.5925,-361.235,9.275
279,203491,0.549488,-0.13542,-0.746152,33.4075,-365.12,16.9575
280,203587,0.7266321,-0.188856,-0.7722600000000001,49.315,-368.585,26.81
281,203683,0.917684,-0.23838800000000002,-0.8247200000000001,58.87,-373.5375,37.275
282,203779,1.067012,-0.25058800000000003,-0.8805960999999999,62.9475,-379.855,47.985
283,203875,1.163392,-0.19885999999999998,-0.935984,65.2575,-386.5575,59.7975
284,203972,1.3290680000000001,-0.200324,-0.965996,71.5575,-389.935,72.5725
285,204068,1.431548,-0.30744,-0.979416,78.0325,-393.5575,84.8225
286,204164,1.519876,-0.403088,-1.051396,75.95,-395.885,94.86751
287,204260,1.6818919999999997,-0.508252,-1.137772,68.4075,-394.0825,106.05
288,204357,1.9032,-0.6378159999999999,-1.2312239999999999,58.3625,-389.3575,121.625
289,204453,2.19722,-0.724436,-1.295152,45.3075,-381.2375,141.645
290,204549,2.614948,-0.8532681000000001,-1.267824,30.135,-371.945,165.8125
291,204645,3.040728,-0.9211,-1.1468,9.135,-365.6275,191.5375
292,204741,3.3062,-0.4594521,-0.956968,-15.575,-362.3025,216.4925
293,204838,3.4672400000000003,-0.068564,-0.637084,-14.6475,-354.3575,242.515
294,204934,3.579968,0.043676,-0.12029200000000001,13.2475,-334.5475,256.445
295,205030,3.6717120000000003,0.086132,0.715896,26.6525,-298.655,252.175
296,205126,3.572892,0.230336,1.1385040000000002,18.305,-257.425,233.17
297,205223,3.343532,0.366,1.871968,2.7125,-214.6725,209.4925
298,205319,3.4943239999999998,1.128744,2.138172,-7.21,-152.0925,169.7675
299,205415,3.7349080000000003,1.43594,2.489532,31.605,-89.145,132.4575
300,205511,2.170136,0.624396,3.107584,57.82,-33.3375,86.5025
301,205608,2.100596,0.17568,4.076752,-27.1075,139.5275,-7.0875
302,205704,0.423828,0.849608,2.546872,-201.355,267.7325,-163.17
303,205800,2.37534,2.2296720000000003,-4.170692,-247.3625,326.5675,-261.5025
304,205896,2.488556,-0.490928,-1.2341520000000001,-23.8175,386.995,-82.11
305,205992,2.292624,0.8637601,-1.8724560000000001,-7.91,301.665,-28.1575
306,206089,2.4978279999999997,0.45506,-1.7997439999999998,5.4075,286.8775,-41.195
307,206185,1.5262200000000001,0.10931199999999999,-1.257332,27.405,215.6,-30.2575
308,206281,1.2021879999999998,-1.122644,-1.01748,35.49,181.09,-34.86
309,206377,2.534916,-1.029924,-1.095316,-2.7125,176.4175,-69.4575
310,206474,1.2878319999999999,0.535092,-1.3529799999999998,-71.155,64.225,-65.22251
311,206570,1.291004,0.031964,-1.045296,-45.9725,54.81,-43.1725
312,206666,0.613904,-0.41455600000000004,-0.7278521,-22.7325,5.4425,-21.3325
313,206762,0.8308200000000001,0.123464,-1.0084520000000001,-29.4875,8.505,-21.42
314,206858,0.671976,-0.183,-0.800564,-12.145,3.5,-14.175
315,206955,0.5887720000000001,-0.127368,-0.8076399999999999,-7.525,0.175,-9.4675
316,207051,0.6070720000000001,-0.10540799999999999,-0.8020281,-4.6025,1.2775,-8.7675
317,207147,0.6156119999999999,-0.08100801,-0.8291120999999999,-2.8,2.03,-7.4375
318,207243,0.620492,-0.121024,-0.809836,1.925,3.395,-5.2325
319,207340,0.624396,-0.08417999999999999,-0.8164239999999999,3.605,4.4275,-3.64
320,207436,0.59902,-0.113704,-0.80276,7.07,5.5825,-1.575
321,207532,0.584868,-0.12248800000000001,-0.7890961,8.47,6.755,-0.805
322,207628,0.5751081,-0.168848,-0.7734800000000001,8.4,8.3825,-1.085
323,207725,0.5516840000000001,-0.228872,-0.7451760000000001,6.02,9.905,-3.01
324,207821,0.5885281,-0.198372,-0.746152,1.0325,10.78,-7.14
325,207917,0.594384,-0.161528,-0.760792,-2.73,10.255,-10.3075
326,208013,0.60146,-0.14713199999999999,-0.771528,-4.97,9.0475,-11.8825
327,208110,0.610244,-0.132004,-0.778604,-5.6175,8.9075,-12.3725
328,208206,0.619028,-0.12761199999999998,-0.773724,-5.2325,8.9425,-11.62
329,208302,0.6292760000000001,-0.08564401,-0.800564,-3.395,10.01,-9.9575
330,208398,0.604876,-0.122732,-0.781044,0.63,8.9775,-7.7
331,208495,0.5914560000000001,-0.113704,-0.79178,1.33,11.025,-7.1575
332,208591,0.580964,-0.061,-0.8091041,1.925,14.9625,-6.1775
333,208687,0.6095119999999999,-0.09442801,-0.799588,7.3325,22.6275,-6.93
334,208783,0.60878,-0.08906,-0.791048,10.6225,25.9875,-7.2275
335,208880,0.610244,-0.09638,-0.784704,13.965,30.8175,-6.7375
336,208976,0.604388,-0.122976,-0.776408,16.5375,35.665,-6.0025
337,209072,0.6029241,-0.10540799999999999,-0.792756,18.55,42.3675,-5.565
338,209168,0.6097560000000001,-0.111752,-0.791536,21.1575,48.58,-5.7925
339,209265,0.608536,-0.121512,-0.778604,23.87,55.2475,-5.775
340,209361,0.6029241,-0.11834000000000001,-0.7754321,26.3375,62.2825,-6.7375
341,209457,0.626104,-0.12688,-0.763232,29.47,70.4375,-8.575
342,209553,0.631228,-0.125416,-0.750788,30.3275,75.915,-10.115
343,209650,0.647332,-0.120048,-0.749324,29.6975,82.775,-10.4125
344,209746,0.6514800000000001,-0.11736400000000001,-0.755424,28.98,89.9675,-8.47
345,209842,0.6514800000000001,-0.1342,-0.744444,28.665,99.155,-4.935
346,209938,0.654408,-0.104676,-0.7361481,27.8775,110.775,-1.9425
347,210035,0.659288,-0.09711201,-0.729804,27.79,123.9525,1.33
348,210131,0.6368401,-0.098332,-0.72712,27.7375,140.945,4.6025
349,210227,0.6141479999999999,-0.079544,-0.7622561,29.0325,163.1175,7.7525
350,210323,0.602436,-0.141764,-0.750544,30.065,191.7825,9.345
351,210420,0.5897479999999999,-0.13542,-0.77836,30.625,225.96,9.2225
352,210516,1.125816,-0.21594000000000002,-0.9947881,26.3725,247.03,9.2925
353,210612,0.889624,-0.12248800000000001,-0.860344,-1.7325,165.41,7.56
354,210708,0.830576,-0.134688,-1.054568,24.4825,220.01,15.6625
355,210805,1.012356,-0.33794,-1.073112,67.4975,278.0925,23.6425
356,210901,1.13704,-0.525088,-1.4396,124.2675,372.4525,18.7775
357,210997,1.770952,-0.6588,-1.413248,153.5625,447.965,-13.86
358,211093,1.65188,-0.7239479999999999,-1.576972,143.1325,482.685,-56.805
359,211189,2.4551279999999998,-0.6832,-1.46644,140.84,510.4925,-96.075
360,211286,1.773148,-0.63318,-1.83,145.2325,571.6025,-112.77
361,211382,2.1533,-0.8283799999999999,-2.7713520000000003,160.0025,569.1175,-125.1425
362,211478,0.5575399999999999,-0.41016400000000003,-2.755248,153.2825,430.4125,-147.2275
363,211574,2.0215400000000003,-0.065148,-2.195512,206.6925,366.695,-167.125
364,211671,4.4286,-1.99836,-4.040152,212.1875,345.0125,-191.7475
365,211767,2.074732,-2.039108,-3.329624,105.9275,-25.4625,-117.3375
366,211863,-0.214232,-1.3912879999999999,-1.9178400000000002,1.61,-187.39,-98.21
367,211959,-0.5648601,-0.752984,-1.280512,-65.29251,-205.3275,-104.5275
368,212056,-0.22326,-0.36136399999999996,-1.176568,-78.2425,-179.5675,-110.46
369,212152,0.040504000000000005,-0.287188,-1.178032,-51.59,-185.9725,-96.74
370,212248,0.203008,-0.46238,-1.16998,-10.535,-210.595,-70.21
371,212344,0.266936,-0.692472,-1.0650600000000001,14.3325,-242.4975,-45.0625
372,212441,0.268888,-0.7317560000000001,-0.956968,11.4275,-275.45,-28.9275
373,212537,0.313784,-0.583648,-0.8881600000000001,-2.31,-301.42,-17.8675
374,212633,0.380884,-0.396256,-0.8296,-5.95,-320.985,-4.6725
375,212729,0.4209,-0.288896,-0.77104,4.6025,-336.735,11.725
376,212826,0.5575399999999999,-0.25424800000000003,-0.765428,22.6625,-346.5,27.93
377,212922,0.707112,-0.250344,-0.783728,39.0075,-355.775,42.42
378,213018,0.8518040000000001,-0.260592,-0.812276,50.015,-365.8375,54.565
379,213114,1.000644,-0.26108000000000003,-0.86864,55.2475,-375.2875,64.33
380,213210,1.1285,-0.20374,-0.9328120000000001,56.7875,-384.5275,72.3625
381,213307,1.268068,-0.199348,-0.964044,60.0775,-392.945,79.835
382,213403,1.4295959999999999,-0.293288,-1.015284,63.5425,-399.7,86.45
383,213499,1.551108,-0.403332,-1.073356,59.535,-405.9125,93.205
384,213595,1.683844,-0.41406800000000005,-1.206824,48.9825,-410.8475,102.375
385,213692,1.9071040000000001,-0.45115600000000006,-1.352492,42.28,-411.7225,116.375
386,213788,2.135732,-0.5165481,-1.4457,39.3225,-411.04,135.6775
387,213884,2.420236,-0.5843801,-1.460584,34.2825,-407.3475,157.2375
388,213980,2.767936,-0.687348,-1.35054,24.815,-400.3125,177.2925
389,214077,3.134668,-0.79178,-1.149728,8.8025,-391.65,192.71
390,214173,3.357196,-0.6832,-0.824232,-13.9125,-383.18,202.195
391,214269,3.340604,-0.219844,-0.38674000000000003,-28.6125,-369.32,208.355
392,214365,3.377204,0.160552,0.1708,-10.01,-337.12,216.3875
393,214462,3.3794,0.208132,0.8813280000000001,28.6475,-287.77,221.55
394,214558,3.324012,0.245952,1.541104,44.24,-230.965,215.495
395,214654,3.562644,0.7095520000000001,2.000312,29.6625,-172.2175,197.4875
396,214750,4.097492,1.096048,2.733044,24.3425,-111.02,173.5475
397,214847,3.3791559999999996,1.2190239999999999,3.367932,24.1325,-64.6975,131.3375
398,214943,2.572736,0.9677040000000001,2.9199479999999998,17.115,6.895,58.4325
399,215039,1.842444,-0.07856801,1.689944,-4.655,111.2825,-14.1575
400,215135,-0.180316,-0.161528,0.0793,-113.6275,255.185,-83.5625
401,215232,0.715408,-0.23009200000000002,-1.410808,-167.9825,316.5925,-174.0025
402,215328,2.069852,0.570472,-0.9089001,-111.9475,354.865,-124.4775
403,215424,2.9443479999999997,0.15396400000000002,-2.2911599999999996,9.73,371.2275,-0.4025
404,215520,1.97518,1.13216,-1.4940120000000001,-4.9875,293.9125,-7.42
405,215617,1.700436,0.375272,-1.419592,28.3675,254.205,-17.675
406,215713,1.266604,-0.557052,-1.01016,41.1775,218.8025,-35.49
407,215809,1.7221520000000001,-1.8404919999999998,-1.167052,30.9575,196.9625,-42.1925
408,215905,2.3201959999999997,-0.401624,-1.022848,-36.75,183.9075,-87.185
409,216002,1.242692,0.8908440999999999,-1.5408600000000001,-84.14001,26.8275,-62.8775
410,216098,1.142896,-0.42724399999999996,-0.89792,-34.0725,55.755,-41.4575
411,216194,0.633912,-0.140544,-0.8113001,-33.215,-1.645,-27.3525
412,216290,0.8532681000000001,0.019764,-0.983808,-28.4725,11.83,-23.3975
413,216387,0.61732,-0.186172,-0.7834840000000001,-10.85,-0.6825,-13.51
414,216483,0.644648,-0.161528,-0.801296,-7.8925,1.995,-10.22
415,216579,0.6263479999999999,-0.122976,-0.8015399999999999,-5.3725,0.455,-9.31
416,216675,0.607316,-0.099552,-0.819108,-3.6575,0.1925,-7.8575
417,216772,0.6224441,-0.11345999999999999,-0.8052,0.4375,2.205,-5.8275
418,216868,0.626104,-0.11224,-0.802272,3.3075,3.36,-4.0075
419,216964,0.6095119999999999,-0.134932,-0.79056,6.3,4.06,-2.0125
420,217060,0.6036560999999999,-0.145424,-0.779092,7.5425,4.6725,-1.365
421,217157,0.57828,-0.162504,-0.769576,6.965,5.25,-1.925
422,217253,0.570472,-0.183488,-0.759572,5.425,6.4225,-3.4125
423,217349,0.563884,-0.20861999999999997,-0.7427361,2.59,7.5075,-6.055
424,217445,0.5795,-0.199348,-0.744688,-1.6275,8.5925,-9.66
425,217541,0.60268,-0.16909200000000002,-0.7600600000000001,-5.5125,8.365,-12.705
426,217638,0.6058520000000001,-0.15054800000000002,-0.76494,-7.35,7.5775,-13.475
427,217734,0.627568,-0.126148,-0.780312,-8.05,7.525,-12.985
428,217830,0.6314721,-0.119072,-0.7766521,-7.3325,8.1725,-11.76
429,217926,0.621468,-0.121268,-0.777872,-5.81,8.155,-10.3775
430,218023,0.6368401,-0.11224,-0.791536,-3.29,9.31,-10.0625
431,218119,0.6314721,-0.12175599999999999,-0.768112,0.14,9.8175,-8.54
432,218215,0.579012,-0.08564401,-0.809836,2.66,10.955,-6.3
433,218311,0.61,-0.093696,-0.7834840000000001,5.705,15.82,-7.14
434,218408,0.615368,-0.098332,-0.785192,9.6425,21.63,-7.6125
435,218504,0.611952,-0.107848,-0.7761640999999999,12.3725,24.745,-7.5075
436,218600,0.6109760000000001,-0.10809200000000001,-0.7808001,14.3325,29.645,-7.2275
437,218696,0.625616,-0.142252,-0.759084,16.66,34.51,-7.035
438,218793,0.597068,-0.110044,-0.777628,18.0425,39.7075,-6.7725
439,218889,0.620004,-0.116388,-0.783728,20.9825,46.83,-7.2625
440,218985,0.60878,-0.1159,-0.7869,22.68,52.2725,-7.175
441,219081,0.608536,-0.11248399999999999,-0.778604,25.025,59.815,-7.7175
442,219178,0.6451359999999999,-0.123708,-0.756156,28.035,68.53,-8.435
443,219274,0.6422081000000001,-0.11224,-0.748836,29.015,73.64,-7.385
444,219370,0.6563601,-0.114192,-0.750788,29.5925,80.955,-4.4625
445,219466,0.660752,-0.11467999999999999,-0.72224,29.19,88.51501,-0.5775
446,219563,0.655628,-0.10833599999999999,-0.734684,29.0675,97.51,3.15
447,219659,0.664168,-0.115168,-0.7332201,28.9975,108.6925,6.685
448,219755,0.652944,-0.07222401,-0.7537159999999999,29.5925,121.835,8.8725
449,219851,0.6156119999999999,-0.136152,-0.757864,31.4825,139.8075,12.285
450,219947,0.5734,-0.171044,-0.769088,33.6525,164.29,13.7375
451,220044,0.5690081,-0.170312,-0.759084,34.265,194.6175,12.425
452,220140,0.576816,-0.149084,-0.7705521,33.46,231.5075,10.0275
453,220236,1.181448,-0.268156,-1.0243120000000001,28.07,258.0375,9.8175
454,220332,0.9089001,-0.1037,-0.9054840000000001,-4.445,166.8275,4.62
455,220429,0.738588,-0.118096,-1.034804,22.4875,227.675,13.5625
456,220525,1.077992,-0.379664,-1.1150799999999998,66.395,291.445,20.9825
457,220621,1.2841719999999999,-0.517524,-1.349808,128.555,393.2075,14.84
458,220717,1.8458599999999998,-0.6117081,-1.44814,156.1,463.12,-13.8075
459,220814,1.720688,-0.754204,-1.562088,148.5575,487.13,-52.2025
460,220910,2.352648,-0.7734800000000001,-1.55672,152.7575,518.665,-89.5825
461,221006,1.6230879999999999,-0.479216,-1.992504,157.745,572.8275,-108.29
462,221102,1.8827040000000002,-0.6182960999999999,-2.666676,181.1075,563.7625,-112.8925
463,221198,0.434076,-0.203252,-2.607384,214.13,426.37,-122.0275
464,221295,2.13256,0.0,-2.081808,299.04,377.195,-153.5625
465,221391,4.623556,-2.4339,-4.015752,297.92,319.865,-177.695
466,221487,2.295064,-2.4151119999999997,-3.2666720000000002,152.81,-58.415,-106.9775
467,221583,-0.201544,-1.596248,-1.764364,-0.3675,-242.935,-95.04251
468,221680,-0.7407841,-0.7571321,-1.047492,-95.4625,-263.55,-104.405
469,221776,-0.327448,-0.190564,-0.998448,-117.53,-223.965,-115.7625
470,221872,0.112972,-0.024888,-1.092388,-77.56,-218.575,-102.4975
471,221968,0.30109600000000003,-0.2623,-1.08702,-11.165,-242.4975,-68.8625
472,222065,0.303048,-0.608536,-0.9503799999999999,33.635,-277.1825,-36.085
473,222161,0.2562,-0.772748,-0.787144,36.19,-305.8825,-17.15
474,222257,0.28938400000000003,-0.682712,-0.70028,11.6025,-323.715,-8.5575
475,222353,0.40748,-0.478728,-0.704916,-9.9225,-333.8825,-1.05
476,222450,0.487512,-0.284992,-0.7107720000000001,-12.11,-343.6475,11.62
477,222546,0.573156,-0.189588,-0.7239479999999999,4.3225,-351.6275,29.3125
478,222642,0.706624,-0.193736,-0.73688,27.5275,-357.21,48.265
479,222738,0.8025161,-0.237168,-0.7483479999999999,44.6075,-362.95,64.1725
480,222835,0.9091440000000001,-0.24888000000000002,-0.823256,51.38,-367.4125,75.04
481,222931,1.129964,-0.242292,-0.944768,52.15,-370.7025,82.1275
482,223027,1.324676,-0.25376,-1.0443200000000001,51.7475,-378.5775,86.7125
483,223123,1.45912,-0.309392,-1.096536,50.3475,-389.9175,90.055
484,223220,1.57746,-0.343308,-1.154852,47.3025,-399.175,94.22
485,223316,1.771684,-0.409188,-1.245132,45.325,-403.48,101.4825
486,223412,2.021784,-0.51972,-1.314916,44.2225,-403.6025,112.595
487,223508,2.317268,-0.6707561,-1.348344,39.4625,-401.0125,127.3475
488,223605,2.687904,-0.8352120000000001,-1.307352,27.965,-395.3775,144.9175
489,223701,3.066348,-0.960384,-1.147532,7.98,-389.2525,164.745
490,223797,3.287168,-0.9396440999999999,-0.8513161,-18.6725,-383.46,184.205
491,223893,3.325232,-0.51362,-0.467504,-39.69,-371.49,200.34
492,223989,3.295464,-0.140544,0.21667199999999998,-40.635,-335.93,214.4275
493,224086,3.739788,0.36112,0.5248441,-15.5925,-277.165,211.05
494,224182,3.602904,0.280844,1.001376,41.0375,-253.6625,226.625
495,224278,3.219092,0.30353600000000003,2.013244,75.5825,-207.6725,229.32
496,224374,3.700016,0.69052,2.5888400000000003,61.67,-137.7075,205.625
497,224471,3.685864,0.9711200999999999,3.272528,43.9425,-74.4275,169.9425
498,224567,1.813896,0.6082920999999999,3.678544,-0.455,-9.5025,116.5675
499,224663,1.865868,0.489708,3.7793160000000006,-90.265,194.6175,18.585
500,224759,0.36502399999999996,0.294752,-0.47994799999999993,-207.0425,318.5175,-112.0525
501,224856,3.225192,1.688968,-2.980216,-188.825,373.205,-154.6125
502,224952,1.5098719999999999,0.101504,-0.9620920000000001,-36.33,327.53,-11.515
503,225048,2.1508599999999998,1.1346,-1.837808,-8.085,312.795,6.755
504,225144,2.309948,0.730292,-1.68482,18.41,289.9225,-13.3875
505,225241,1.506456,0.094916,-1.215852,40.25,222.5125,-19.845
506,225337,1.6399240000000002,-1.597712,-1.184376,45.22,195.265,-33.25
507,225433,2.394372,-1.072868,-0.909632,-13.9475,179.305,-78.3825
508,225529,0.678808,0.687104,-1.057008,-84.84,30.1175,-61.1625
509,225626,1.73606,0.160064,-1.29564,-53.0075,79.0825,-54.6175
510,225722,0.566812,-0.548024,-0.676612,-24.4125,8.1025,-26.3025
511,225818,0.830332,0.122732,-0.9989360999999999,-37.5725,-5.9325,-27.3175
512,225914,0.700036,-0.186172,-0.7832399999999999,-18.2525,6.1425,-20.895
513,226011,0.615368,-0.033916,-0.854244,-13.9125,-6.4575,-14.28
514,226107,0.585356,-0.168604,-0.769576,-7.63,-0.56,-11.6725
515,226203,0.61488,-0.08784,-0.806176,-8.365,-1.2775,-11.6375
516,226299,0.606584,-0.082228,-0.815692,-6.7375,-0.5075,-10.3425
517,226396,0.62342,-0.12078,-0.7978801,-3.3775,1.1725,-8.3475
518,226492,0.618052,-0.09394001,-0.803248,-2.7475,1.61,-7.5075
519,226588,0.5856,-0.133712,-0.7788480999999999,-2.5025,1.365,-6.965
520,226684,0.5826720000000001,-0.146644,-0.774212,-4.2525,1.7675,-7.8925
521,226781,0.586332,-0.171532,-0.764452,-6.6325,2.52,-9.135
522,226877,0.5892601,-0.172996,-0.7732359999999999,-8.4175,2.6075,-9.8
523,226973,0.5978,-0.167384,-0.772748,-8.96,2.8875,-10.185
524,227069,0.6231760999999999,-0.1037,-0.79056,-9.415,2.625,-10.08
525,227166,0.619516,-0.10394400000000001,-0.7766521,-6.7375,2.2575,-7.5075
526,227262,0.604876,-0.09442801,-0.7881199999999999,-4.305,1.75,-4.655
527,227358,0.6070720000000001,-0.10004,-0.784704,-3.71,3.3775,-3.955
528,227454,0.6021920000000001,-0.10760399999999999,-0.785192,-2.5725,5.075,-3.15
529,227550,0.599508,-0.107848,-0.785924,-1.6625,6.02,-2.8175
530,227647,0.599264,-0.11028800000000001,-0.778604,-1.015,7.6125,-2.5025
531,227743,0.60268,-0.10833599999999999,-0.7788480999999999,-0.8225,9.205,-2.2225
532,227839,0.602436,-0.11541199999999999,-0.7832399999999999,-0.8400001,10.5175,-1.5575
533,227935,0.615368,-0.114436,-0.7808001,-0.8400001,12.1275,-1.295
534,228032,0.620736,-0.11394800000000001,-0.77104,-1.0325,12.565,-1.435
535,228128,0.595604,-0.10345599999999999,-0.7822640000000001,-0.315,13.2825,-1.75
536,228224,0.5838920999999999,-0.07173600000000001,-0.7883640000000001,1.96,15.2425,-4.6025
537,228320,0.609024,-0.083936,-0.806176,4.76,24.71,-5.74
538,228417,0.5795,-0.0793,-0.7993439999999999,6.23,28.5075,-6.475
539,228513,0.60878,-0.09979600000000001,-0.773724,9.6075,36.4525,-8.2775
540,228609,0.607316,-0.10687200000000001,-0.772992,11.9175,43.6975,-9.9575
541,228705,0.60878,-0.07832401,-0.7937320999999999,13.93,49.875,-12.1625
542,228802,0.6170760000000001,-0.080276,-0.781776,14.7175,56.8575,-12.4075
543,228898,0.6263479999999999,-0.082472,-0.7893399999999999,14.945,64.2075,-10.92
544,228994,0.6182960999999999,-0.093696,-0.785192,13.44,69.8425,-7.735
545,229090,0.625616,-0.07564,-0.79422,12.0225,77.805,-4.6725
546,229187,0.627812,-0.047336,-0.805688,11.7075,85.83751,-2.4325
547,229283,0.614636,-0.081496,-0.7944641,12.74,95.2,-0.56
548,229379,0.5887720000000001,-0.10736,-0.8276481,13.8425,108.4825,0.35
549,229475,0.56242,-0.140544,-0.8222799999999999,14.56,127.225,-0.8225
550,229572,0.564616,-0.134932,-0.798856,13.09,151.5325,-5.39
551,229668,0.522404,-0.116876,-0.80642,10.99,181.7025,-11.2525
552,229764,0.536556,-0.133468,-0.797636,8.05,219.87,-18.025
553,229860,0.558272,-0.08784,-0.79056,5.145,267.82,-23.59
554,229957,1.7397200000000002,-0.36478,-1.2402520000000001,3.9725,319.34,-29.1725
555,230053,0.74054,-0.09125599999999999,-1.02846,-5.4075,238.245,-22.5925
556,230149,0.96624,-0.33379200000000003,-1.2456200000000002,34.5975,275.5725,-25.1475
557,230245,1.52744,-0.434076,-1.396412,87.85,359.975,-26.74
558,230341,1.8297560000000002,-0.49751599999999996,-1.510116,115.36,439.215,-48.9825
559,230438,1.7097080000000002,-0.518744,-1.73118,117.4425,480.83,-77.91
560,230534,2.1884360000000003,-0.45896400000000004,-1.6796959999999999,116.6725,507.6925,-110.0575
561,230630,1.7345959999999998,-0.750544,-1.94468,108.57,570.8675,-131.9675
562,230726,2.0051919999999996,-0.656116,-2.636908,112.0,561.9775,-148.8375
563,230823,-0.052703999999999994,-0.10418800000000002,-2.358748,113.505,397.3375,-139.9475
564,230919,1.316868,0.229848,-1.212192,172.0425,362.355,-137.0775
565,231015,4.648688,-1.408124,-4.024292,207.6025,407.61,-143.0625
566,231111,2.399252,-1.867576,-3.292536,141.89,17.325,-49.805
567,231207,-0.040260000000000004,-1.619428,-1.824876,49.4025,-171.5875,-18.935
568,231304,-0.601704,-0.850584,-1.097756,-45.7975,-209.58,-23.835
569,231400,-0.393572,-0.283528,-0.945744,-87.36,-184.5725,-33.705
570,231496,-0.03416,0.0061,-1.022848,-68.915,-180.0575,-25.935
571,231592,0.206668,-0.045872,-1.093852,-15.7675,-200.095,-0.6825
572,231689,0.252784,-0.30256,-1.01626,31.01,-232.61,25.8825
573,231785,0.270596,-0.47043199999999996,-0.9128040000000001,44.8,-261.73,41.4225
574,231881,0.332084,-0.46164799999999995,-0.833992,29.9775,-283.9375,46.0075
575,231977,0.396256,-0.321836,-0.8081281,7.9625,-301.7175,46.3575
576,232074,0.4933681,-0.142008,-0.834724,-2.7125,-316.505,49.1575
577,232170,0.594384,-0.029768,-0.8476561,3.955,-330.0675,57.4
578,232266,0.665144,0.01342,-0.8327720999999999,20.335,-343.14,68.565
579,232362,0.750788,-0.002196,-0.8274040000000001,36.9075,-353.3075,77.6475
580,232458,0.8510719999999999,-0.027327999999999998,-0.8666879999999999,46.8475,-360.9375,81.60251
581,232555,0.989908,-0.03172,-0.9496479999999999,49.875,-367.15,80.0625
582,232651,1.199016,-0.024888,-1.048712,51.1525,-373.59,75.11
583,232747,1.403,-0.124928,-1.128256,54.845,-383.32,69.2125
584,232843,1.544032,-0.262788,-1.17486,55.2125,-395.6925,64.33
585,232940,1.6399240000000002,-0.324764,-1.2383,50.0325,-405.545,63.63
586,233036,1.8400040000000002,-0.420412,-1.3407799999999999,46.83,-408.73,68.985
587,233132,2.15452,-0.615368,-1.4156879999999998,45.3775,-407.8725,79.4675
588,233228,2.4644,-0.754448,-1.409832,36.3125,-407.61,94.43
589,233324,2.793068,-0.9030440000000001,-1.267336,22.8725,-405.685,114.0825
590,233421,3.032676,-0.9947881,-1.002108,5.8275,-400.6625,136.71
591,233517,3.178832,-0.9025559999999999,-0.652212,-11.97,-387.31,159.1975
592,233613,3.2583759999999997,-0.477508,-0.22643200000000002,-16.7475,-361.305,178.9375
593,233709,3.3569519999999997,0.023424,0.256444,8.5575,-320.1975,201.9325
594,233806,3.417708,0.14078800000000002,0.9394,61.985,-265.23,223.7025
595,233902,3.2966839999999995,0.22789600000000002,1.571604,90.405,-209.685,228.69
596,233998,3.666344,0.746396,2.038376,79.8875,-152.8625,215.46
597,234094,3.9637800000000003,0.96014,2.9567919999999996,69.44,-96.74,191.9925
598,234191,2.9053080000000002,1.088484,3.344996,37.065,-57.2775,138.0225
599,234287,2.347524,1.0889719999999998,2.67302,10.3075,27.895,54.9675
600,234383,2.760616,0.59292,1.4217879999999998,9.24,133.9975,-16.73
601,234479,0.43358800000000003,-2.3140959999999997,-0.196176,-53.3225,165.6375,-45.5175
602,234576,-0.29133600000000004,-0.256444,-2.877736,-261.5375,258.825,-116.34
603,234672,-0.044652,1.4215440000000001,-0.054167999999999994,-248.36,221.165,-109.0775
604,234768,1.58112,0.6453800000000001,-1.278804,-79.94,341.9675,28.245
605,234864,2.844796,1.892952,-2.265784,7.7,404.285,57.8725
606,234960,1.041148,1.488156,-0.74908,0.42,242.585,19.7225
607,235057,1.748748,0.038064,-1.412272,51.975,269.43,-37.555
608,235153,3.20982,-2.989244,-1.967128,60.0075,255.08,-69.9475
609,235249,1.7982799999999999,-0.7722600000000001,-0.7625,-54.1625,161.5775,-94.16751
610,235345,1.051884,1.7575319999999999,-1.791448,-113.015,-5.5825,-74.13
611,235442,1.333216,-0.771772,-0.815936,-22.33,75.32,-43.4875
612,235538,0.47043199999999996,-0.008540001,-0.8142281,-31.9375,-3.535,-26.915
613,235634,0.9376921,-0.099552,-0.9450120000000001,-31.29,8.995,-26.0225
614,235730,0.6034121,-0.075396,-0.8352120000000001,-13.7725,4.165,-16.1525
615,235826,0.672708,-0.18056,-0.8044680999999999,-10.1675,-0.8925,-12.25
616,235923,0.5946279999999999,-0.102968,-0.7937320999999999,-6.685,-0.0525,-10.5
617,236019,0.644892,-0.09638,-0.8195960999999999,-5.145,0.5075,-9.1525
618,236115,0.60634,-0.09735601,-0.80276,-1.5225,-0.42,-6.7375
619,236211,0.6202479999999999,-0.088328,-0.81374,1.295,1.2425,-4.9175
620,236308,0.619516,-0.10614000000000001,-0.8127641,4.795,2.38,-2.45
621,236404,0.59658,-0.121512,-0.795928,7.84,3.6225,-0.4025
622,236500,0.590968,-0.150304,-0.775188,8.8375,4.6375,0.0525
623,236596,0.558272,-0.196664,-0.7537159999999999,7.7,5.495,-0.8575
624,236693,0.547536,-0.22057600000000002,-0.735172,4.445,6.8775,-3.815
625,236789,0.5636399999999999,-0.194224,-0.74542,-0.455,7.91,-8.225
626,236885,0.5856,-0.163968,-0.762744,-4.2875,8.6625,-11.7425
627,236981,0.604876,-0.142008,-0.769088,-6.6325,8.295,-13.7025
628,237078,0.616344,-0.133712,-0.769332,-7.5775,8.19,-14.14
629,237174,0.62098,-0.134688,-0.771528,-7.77,7.5425,-13.5625
630,237270,0.649284,-0.10516400000000001,-0.777628,-6.72,7.875,-11.9175
631,237366,0.6231760999999999,-0.11126400000000002,-0.779092,-3.7625,7.945,-9.5375
632,237462,0.6156119999999999,-0.107848,-0.7881199999999999,-0.7,8.4875,-8.82
633,237559,0.62342,-0.107116,-0.778604,1.225,9.8875,-8.61
634,237655,0.621468,-0.08954801,-0.800808,3.1325,11.1125,-8.1025
635,237751,0.573156,-0.0732,-0.805688,6.0375,12.2675,-6.93
636,237847,0.6097560000000001,-0.10516400000000001,-0.788852,9.065,18.165,-6.9125
637,237944,0.61366,-0.09735601,-0.780312,11.8475,22.82,-6.895
638,238040,0.6178081,-0.104432,-0.781776,14.5425,26.915,-6.475
639,238136,0.61122,-0.10418800000000002,-0.791536,16.485,31.4475,-5.495
640,238232,0.630252,-0.11712,-0.760792,18.8475,36.82,-4.2525
641,238328,0.617564,-0.10760399999999999,-0.769332,20.895,41.125,-2.5375
642,238425,0.641232,-0.110044,-0.759572,22.2075,46.0425,-0.875
643,238521,0.625128,-0.09979600000000001,-0.7712840999999999,22.8725,50.505,1.365
644,238617,0.6378159999999999,-0.116388,-0.765428,24.22,56.455,3.745
645,238713,0.6283,-0.114436,-0.77104,25.7075,62.2125,5.495
646,238810,0.6368401,-0.115656,-0.781532,28.4725,70.5775,6.9475
647,238906,0.6392800000000001,-0.1281,-0.767624,31.4125,79.905,8.5225
648,239002,0.6378159999999999,-0.081496,-0.780312,33.9325,89.88,10.045
649,239098,0.607316,-0.12761199999999998,-0.797636,36.995,102.69,13.0025
650,239195,0.57096,-0.165432,-0.806176,40.46,120.435,15.9425
651,239291,0.576572,-0.125172,-0.8105680000000001,44.5025,143.8675,16.485
652,239387,0.57096,-0.160308,-0.773724,47.6,170.345,17.36
653,239483,0.555832,-0.125904,-0.79666,49.91,201.3025,17.64
654,239580,0.5846241,-0.128588,-0.8786440999999999,53.2875,239.05,18.69
655,239676,1.257576,-0.24522,-1.051396,53.5325,267.9075,23.205
656,239772,0.830332,-0.135664,-0.9767321,17.2375,188.265,13.6675
657,239868,0.735172,-0.208132,-1.130452,40.8975,239.26,16.6075
658,239964,1.1326479999999999,-0.35843600000000003,-1.136308,92.0325,313.215,14.2275
659,240061,1.6689599999999998,-0.6075600999999999,-1.3529799999999998,161.0525,413.14,13.3
660,240157,1.637972,-0.6007279999999999,-1.499624,180.3025,469.525,-8.9075
661,240253,2.4085240000000003,-0.757864,-1.322236,178.7625,478.5725,-43.9075
662,240349,1.783884,-0.534116,-1.694092,197.96,552.65,-66.6225
663,240446,1.643584,-0.6124400999999999,-2.343864,204.2425,572.0225,-77.6825
664,240542,1.24074,-0.915976,-2.178188,203.1225,474.6175,-95.26999
665,240638,-0.35868,0.536068,-1.621624,235.235,347.9,-114.135
666,240734,3.6524360000000002,-0.897432,-3.241052,277.97,390.425,-179.13
667,240831,3.674152,-2.471476,-3.6524360000000002,220.22,203.42,-153.2125
668,240927,1.3766479999999999,-1.9102759999999999,-2.654476,54.0225,-109.48,-120.3825
669,241023,-0.558272,-0.9423280999999999,-1.3827479999999999,-59.6925,-235.5325,-106.6625
670,241119,-0.697108,-0.281088,-0.9413520000000001,-97.37,-226.38,-113.47
671,241216,-0.280356,-0.000488,-0.913292,-76.09000999999999,-190.19,-117.7575
672,241312,0.080764,-0.086864,-0.9994241,-22.9775,-191.0825,-100.6425
673,241408,0.262056,-0.36234,-1.028216,27.965,-216.125,-72.555
674,241504,0.2562,-0.630252,-0.9262239999999999,49.4025,-250.2325,-47.985
675,241600,0.243756,-0.6810039999999999,-0.8252079999999999,37.4675,-279.1075,-33.81
676,241697,0.28548,-0.5368,-0.763476,13.02,-298.76,-25.3925
677,241793,0.365512,-0.339892,-0.74298,-0.6125,-312.935,-15.155
678,241889,0.46774799999999994,-0.20447200000000001,-0.7473721,5.11,-323.8725,0.595
679,241985,0.580476,-0.15054800000000002,-0.742492,23.415,-333.9,19.39
680,242082,0.66978,-0.16104000000000002,-0.732244,42.4375,-344.1725,37.2575
681,242178,0.7661600000000001,-0.17812,-0.755912,54.845,-352.38,50.8375
682,242274,0.8674200000000001,-0.189832,-0.815448,59.29,-358.645,60.1125
683,242370,1.016016,-0.154452,-0.9098761000000001,58.45,-363.5625,66.045
684,242467,1.207068,-0.166164,-0.992348,58.59,-369.39,69.615
685,242563,1.352492,-0.242536,-1.05774,59.0625,-378.385,71.7325
686,242659,1.47376,-0.29792399999999997,-1.124596,56.0525,-386.5925,75.4075
687,242755,1.6469999999999998,-0.386252,-1.218292,51.2575,-391.0725,83.0375
688,242852,1.8602560000000001,-0.518012,-1.302716,44.1875,-392.49,94.3425
689,242948,2.150372,-0.6319600000000001,-1.3644479999999999,30.905,-391.5975,108.4125
690,243044,2.493436,-0.718824,-1.3224799999999999,12.215,-389.585,125.5975
691,243140,2.786724,-0.769332,-1.15168,-8.6275,-387.38,146.0725
692,243236,2.979484,-0.643428,-0.8662001,-29.61,-381.045,168.91
693,243333,3.020232,-0.30792800000000004,-0.549488,-40.46,-365.8375,191.835
694,243429,3.168584,-0.15616,-0.141276,-26.8625,-335.7375,208.1975
695,243525,3.361832,-0.047336,0.356484,-4.8125,-294.1925,211.2075
696,243621,3.36476,0.083204,0.961116,10.85,-249.2875,205.9925
697,243718,3.227632,0.383812,1.563796,14.4025,-204.5925,194.6175
698,243814,3.5572760000000003,0.9052401,2.088396,19.145,-151.2525,181.9125
699,243910,3.778828,1.053104,2.951668,39.1475,-92.71500999999999,167.3875
700,244006,2.182824,0.726876,3.055612,26.2325,-44.24,130.41
701,244103,1.442772,0.6563601,4.533276,-46.76,109.62,53.55
702,244199,-0.21301199999999998,-0.020984,0.57584,-122.6225,295.47,-79.0475
703,244295,2.434388,0.528748,-3.032676,-159.7225,344.05,-168.4025
704,244391,1.4393559999999999,0.567056,-0.9440360999999999,-78.4,311.08,-91.455
705,244487,1.8051119999999998,0.573156,-1.613572,9.6075,303.87,-1.575
706,244584,2.339716,0.8359440999999999,-1.742404,20.5275,299.39,-24.2025
707,244680,1.872944,0.03904,-1.4422840000000001,47.6,238.525,-27.4575
708,244776,1.641144,-1.250988,-1.20292,48.5975,192.43,-36.015
709,244872,2.449516,-1.3205280000000001,-0.9474520000000001,0.5775,169.855,-64.9775
710,244969,0.32403200000000004,0.22496799999999997,-0.70516,-74.48,43.1025,-57.9425
711,245065,1.6872599999999998,0.5038600000000001,-1.5189,-61.635,77.4375,-60.41
712,245161,1.019676,-0.5382640000000001,-0.793244,-26.075,49.875,-34.1425
713,245257,0.574864,0.063928,-0.9120720999999999,-35.2625,-17.115,-24.64
714,245353,0.793488,-0.17836400000000002,-0.856196,-18.34,14.8575,-20.3525
715,245450,0.6480640000000001,-0.043188,-0.862784,-12.1625,-3.6575,-13.8425
716,245546,0.640256,-0.157868,-0.8039801,-3.57,2.415,-8.8025
717,245642,0.61854,-0.08954801,-0.81862,-0.595,-1.5575,-6.265
718,245738,0.617564,-0.108824,-0.813496,2.87,1.1725,-4.1475
719,245835,0.6117081,-0.11712,-0.809836,5.7575,0.875,-2.0825
720,245931,0.6219561,-0.10345599999999999,-0.81252,8.5225,2.5375,-0.455
721,246027,0.60512,-0.14005599999999999,-0.799588,11.445,3.045,1.3475
722,246123,0.59048,-0.160308,-0.780556,12.5825,3.5175,2.065
723,246220,0.580232,-0.186172,-0.7659161,11.865,4.06,1.4875
724,246316,0.577304,-0.18666,-0.761524,9.66,4.6375,0.0
725,246412,0.579012,-0.185928,-0.760304,7.385,5.4075,-2.03
726,246508,0.57584,-0.179096,-0.758108,5.3025,5.915,-4.0425
727,246604,0.5797441,-0.17616800000000002,-0.758596,3.4125,6.5625,-5.81
728,246701,0.57706,-0.173728,-0.756156,1.365,7.35,-7.56
729,246797,0.582916,-0.162748,-0.7622561,-0.6825,8.3125,-9.1875
730,246893,0.586332,-0.15738,-0.76494,-2.555,9.1525,-10.605
731,246989,0.58682,-0.16201600000000002,-0.7612800999999999,-4.13,9.8875,-11.9525
732,247086,0.5987760999999999,-0.14884,-0.763476,-5.8275,10.6225,-13.37
733,247182,0.5968241,-0.15762400000000001,-0.743224,-6.685,11.655,-14.49
734,247278,0.612684,-0.162992,-0.741028,-8.9775,12.145,-15.82
735,247374,0.624396,-0.166652,-0.7503,-11.2875,12.7575,-16.345
736,247471,0.6409881,-0.12688,-0.760792,-13.16,11.48,-15.2075
737,247567,0.64172,-0.1159,-0.7747001,-11.9175,11.935,-14.56
738,247663,0.661972,-0.022692,-0.836676,-9.345,10.8675,-13.405
739,247759,0.626836,-0.110044,-0.7771399999999999,-3.29,11.3225,-10.0275
740,247855,0.64294,-0.10906800000000001,-0.7732359999999999,-1.435,14.1575,-9.4675
741,247952,0.627568,-0.10394400000000001,-0.781044,1.05,17.815,-8.4175
742,248048,0.614392,-0.11614400000000001,-0.773724,4.76,21.3325,-8.505
743,248144,0.6070720000000001,-0.1159,-0.787144,8.3475,27.6325,-8.8025
744,248240,0.609268,-0.110776,-0.779824,11.1825,33.04,-9.3275
745,248337,0.61,-0.096868,-0.7856801,13.58,40.32,-9.4675
746,248433,0.6202479999999999,-0.1098,-0.7829961,15.1375,46.4975,-9.3275
747,248529,0.621712,-0.10638399999999999,-0.780556,14.665,53.2875,-7.9975
748,248625,0.6307401,-0.10248,-0.778604,13.965,60.5325,-5.6525
749,248721,0.6280560000000001,-0.107848,-0.783728,13.7375,67.7425,-2.8
750,248818,0.6368401,-0.073688,-0.801784,14.455,76.055,-0.4375
751,248914,0.641964,-0.088328,-0.769332,16.3275,84.9625,2.415
752,249010,0.60878,-0.105896,-0.7929999999999999,18.375,95.865,4.9
753,249106,0.570716,-0.148352,-0.803248,19.8625,110.775,5.145
754,249203,0.559004,-0.17812,-0.812276,18.935,131.6875,3.0275
755,249299,0.5441199999999999,-0.1952,-0.820572,17.15,158.725,-0.98
756,249395,0.542168,-0.203496,-0.802272,13.195,190.61,-7.7
757,249491,0.533384,-0.159088,-0.8427761,6.72,230.7025,-15.855
758,249588,0.6075600999999999,-0.168604,-0.8117880000000001,-1.225,279.5625,-24.36
759,249684,0.678076,-0.057339999999999995,-1.19316,-10.4125,289.975,-27.685
760,249780,1.042856,-0.217404,-1.047004,-4.655,220.01,-30.905
761,249876,1.071648,-0.44212799999999997,-1.096292,52.15,308.63,-25.1125
762,249972,1.777296,-0.609268,-1.3947040000000002,97.02,380.695,-40.53
763,250069,1.796328,-0.605608,-1.567944,106.4175,439.1975,-75.46
764,250165,1.854888,-0.630252,-1.259284,102.2875,457.7825,-111.09
765,250261,1.8900240000000001,-0.6068279999999999,-1.634312,101.85,523.285,-143.0275
766,250357,1.740452,-0.635864,-2.3067759999999997,105.7,573.0375,-157.4825
767,250454,1.360544,-0.8308200000000001,-2.409744,106.4175,489.195,-167.8075
768,250550,-0.711992,0.07173600000000001,-1.718736,127.1725,329.91,-153.79
769,250646,2.815516,-0.48848800000000003,-3.158092,161.945,384.4225,-185.9375
770,250742,3.6917199999999997,-1.67872,-3.95036,148.26,246.6625,-141.26
771,250838,1.273192,-1.7048279999999998,-2.733044,65.8,-80.6225,-69.4575
772,250935,-0.649528,-1.1958440000000001,-1.362496,-8.05,-203.21,-42.3325
773,251031,-0.678808,-0.627568,-0.9267120000000001,-60.0775,-189.8225,-44.8875
774,251127,-0.26474000000000003,-0.29646,-0.9147559999999999,-70.7875,-158.41,-48.3175
775,251223,0.07076001,-0.20618000000000003,-1.038708,-45.15,-165.8825,-33.915
776,251320,0.24668400000000001,-0.337208,-1.099952,-5.985,-194.0225,-7.5425
777,251416,0.28377199999999997,-0.524112,-1.024068,18.83,-228.62,17.4475
778,251512,0.28914,-0.553148,-0.9232961,17.255,-259.875,33.1625
779,251608,0.340868,-0.440176,-0.8520479999999999,3.815,-282.905,42.56
780,251705,0.388692,-0.258396,-0.8100801,-3.325,-300.8075,51.8525
781,251801,0.459208,-0.123464,-0.8049561,3.4825,-314.02,64.435
782,251897,0.611464,-0.08296,-0.8400921,20.7025,-323.3475,78.715
783,251993,0.731024,-0.096624,-0.8510719999999999,36.855,-334.4775,90.9475
784,252089,0.858392,-0.101992,-0.904752,45.1675,-345.59,98.14
785,252186,0.9823440999999999,-0.079056,-0.955992,46.725,-356.3175,99.8025
786,252282,1.086776,-0.05612,-1.000644,46.375,-366.8,97.51
787,252378,1.2280520000000001,-0.041236,-1.0675,47.39,-375.2,92.54001
788,252474,1.358592,-0.08417999999999999,-1.132892,51.4675,-382.0075,87.325
789,252571,1.5225600000000001,-0.13859200000000002,-1.233908,55.51,-387.1,83.9125
790,252667,1.720688,-0.2379,-1.341512,58.345,-391.3875,83.545
791,252763,2.000312,-0.342332,-1.443992,58.8175,-392.1575,85.4525
792,252859,2.362896,-0.450424,-1.4781520000000001,55.4575,-392.035,89.985
793,252955,2.6886360000000002,-0.584136,-1.36762,47.46,-392.98,98.07
794,253052,2.895304,-0.725168,-1.12484,33.5125,-391.23,110.7225
795,253148,3.046584,-0.624152,-0.809348,13.9125,-380.38,126.0175
796,253244,3.113684,-0.110044,-0.504592,4.2525,-357.8575,145.635
797,253340,3.3166919999999998,0.258152,-0.071004,28.0875,-321.9475,168.875
798,253437,3.3781800000000004,0.339648,0.605364,63.4375,-279.2825,182.595
799,253533,3.200548,0.41723999999999994,1.325408,69.2475,-235.1475,178.9025
800,253629,3.2927800000000005,0.887184,1.86294,42.315,-183.715,159.9675
801,253725,3.7990800000000005,1.249524,2.609092,23.38,-121.765,133.7875
802,253822,3.2891199999999996,1.442772,3.205184,10.5175,-74.095,88.6375
803,253918,2.4563479999999998,1.3200399999999999,2.86456,2.765,-9.2575,21.0
804,254014,1.712636,-0.359168,1.727032,5.5475,92.1725,-36.435
805,254110,0.345016,-0.45554799999999995,0.134688,-128.5375,218.3825,-87.3425
806,254206,0.31012399999999996,-0.54778,-1.9297959999999998,-200.3575,254.03,-161.9975
807,254303,0.546072,1.106052,-0.5002,-153.9125,240.1525,-104.4225
808,254399,1.8583040000000002,0.400404,-1.836344,-28.63,308.7525,2.275
809,254495,2.0108040000000003,1.347124,-1.7448439999999998,-4.025,304.1325,0.1225
810,254591,1.26026,0.5368,-1.0384639999999998,23.94,234.3775,-7.035
811,254688,1.7409400000000002,-0.4553041,-1.275388,45.9375,227.85,-29.5225
812,254784,3.2408080000000004,-1.9276,-1.8458599999999998,33.95,207.935,-50.1025
813,254880,0.9232961,-0.386008,-0.69296,-59.115,95.48,-69.52750999999999
814,254976,1.212924,0.9340321,-1.6165,-78.61,21.21,-56.735
815,255072,1.14802,-0.43627200000000005,-0.8352120000000001,-27.37,67.2875,-34.4225
816,255169,0.548024,-0.09320801,-0.806176,-31.9375,-12.565,-24.1325
817,255265,0.8052,-0.067832,-0.9208561,-24.3425,11.4275,-20.405
818,255361,0.614636,-0.15128,-0.8025161,-12.915,-0.455,-15.085
819,255457,0.6514800000000001,-0.11102000000000001,-0.8230120999999999,-10.535,0.2625,-12.425
820,255554,0.6283,-0.121024,-0.8020281,-5.6175,0.5425,-10.29
821,255650,0.6158561,-0.081496,-0.815936,-4.1475,-0.91,-8.3125
822,255746,0.620004,-0.10321199999999998,-0.803736,-0.0525,0.5425,-5.985
823,255842,0.6219561,-0.090036,-0.814472,2.555,1.26,-3.7975
824,255938,0.6141479999999999,-0.126636,-0.807884,6.2475,2.4675,-1.26
825,256035,0.6029241,-0.122976,-0.800808,8.575,3.6575,0.3325
826,256131,0.599508,-0.131028,-0.802272,10.15,4.76,1.05
827,256227,0.597068,-0.14688800000000002,-0.787388,10.955,5.53,1.3125
828,256323,0.5858439999999999,-0.181292,-0.7659161,10.7975,6.5625,0.91
829,256420,0.5838920999999999,-0.182756,-0.765428,9.1,7.14,-0.5775
830,256516,0.602436,-0.163968,-0.769332,7.0175,7.875,-2.2925
831,256612,0.6039,-0.14786400000000002,-0.778604,5.845,8.1025,-2.94
832,256708,0.602436,-0.14518,-0.776896,5.4425,8.3825,-3.1325
833,256805,0.6080479999999999,-0.141032,-0.779092,5.425,9.1175,-3.0625
834,256901,0.600484,-0.14518,-0.777628,5.46,9.87,-2.87
835,256997,0.595116,-0.146156,-0.772992,5.425,11.06,-2.9575
836,257093,0.586332,-0.13176,-0.785924,5.7925,12.425,-3.64
837,257189,0.592432,-0.13176,-0.779824,7.7175,14.595,-4.4625
838,257286,0.586088,-0.15201199999999998,-0.769332,9.87,17.885,-5.0575
839,257382,0.6080479999999999,-0.13908,-0.776408,9.765,21.1225,-5.3725
840,257478,0.6109760000000001,-0.145912,-0.768844,11.3225,24.9725,-5.5825
841,257574,0.623664,-0.14518,-0.76372,12.5825,26.46,-6.09
842,257671,0.632448,-0.144204,-0.755424,13.615,28.35,-5.915
843,257767,0.6314721,-0.151524,-0.7468840999999999,14.805,30.415,-5.145
844,257863,0.640012,-0.15274400000000002,-0.74664,15.4525,32.725,-4.3575
845,257959,0.636596,-0.155672,-0.735416,15.7325,34.475,-4.0775
846,258056,0.638304,-0.1586,-0.733708,16.135,36.575,-3.92
847,258152,0.6451359999999999,-0.14566800000000002,-0.74298,16.3975,38.85,-3.64
848,258248,0.6463561,-0.139568,-0.749812,17.08,41.7025,-2.87
849,258344,0.6422081000000001,-0.143716,-0.7390760000000001,17.8325,44.9575,-1.505
850,258440,0.660752,-0.136152,-0.74298,18.55,50.33,-0.14
851,258537,0.648796,-0.133956,-0.754448,19.3025,55.405,1.715
852,258633,0.648796,-0.155428,-0.7451760000000001,21.1225,62.44,3.675
853,258729,0.6441600000000001,-0.1525,-0.7500560000000001,22.855,69.5625,4.7775
854,258825,0.635864,-0.1525,-0.7639640999999999,25.41,78.785,5.4775
855,258922,0.6273241,-0.158356,-0.7700640999999999,27.615,90.42251,6.3175
856,259018,0.6068279999999999,-0.16958,-0.7707961,30.52,105.3675,7.0525
857,259114,0.6109760000000001,-0.167384,-0.766892,32.8475,124.005,6.7025
858,259210,0.6021920000000001,-0.172264,-0.7732359999999999,35.385,145.495,6.3
859,259307,0.59048,-0.160552,-0.8015399999999999,35.875,171.745,5.845
860,259403,0.590968,-0.182268,-0.805688,35.315,205.275,5.6875
861,259499,0.663924,-0.185196,-0.8398479999999999,34.2825,239.19,4.62
862,259595,0.630252,-0.059536,-1.027484,16.5725,219.8,-3.8325
863,259691,0.8869401,-0.258152,-1.0004,16.24,194.9325,-7.63
864,259788,0.9581881,-0.34867600000000004,-1.080188,61.46,259.105,-4.025
865,259884,1.348832,-0.492392,-1.2160959999999998,117.1625,328.9825,-8.855
866,259980,1.748504,-0.5968241,-1.293688,161.245,401.905,-23.415
867,260076,1.567456,-0.58682,-1.482788,166.845,431.6725,-50.4875
868,260173,2.0220279999999997,-0.62952,-1.43594,187.6525,459.4975,-72.2925
869,260269,1.6662759999999999,-0.58316,-1.599664,208.6175,535.1325,-82.1625
870,260365,1.7341080000000002,-0.610488,-2.180628,226.87,536.34,-92.225
871,260461,0.516304,-0.458476,-1.977132,232.575,344.4175,-106.155
872,260557,0.006587999999999999,0.758108,-0.9655081,293.7375,292.4075,-118.0725
873,260654,3.615592,-1.267824,-3.16224,310.8525,305.515,-187.215
874,260750,2.711328,-1.914668,-3.245688,232.295,64.05,-153.8425
875,260846,0.57462,-1.4295959999999999,-2.026908,101.15,-163.66,-136.2725
876,260942,-0.533872,-0.7137001000000001,-1.056032,19.2675,-241.01,-127.75
877,261039,-0.47506800000000005,-0.264008,-0.787632,0.7525,-221.83,-128.1525
878,261135,-0.111752,-0.14688800000000002,-0.7922680000000001,26.25,-203.1575,-117.25
879,261231,0.17641199999999999,-0.276208,-0.8620521000000001,74.7075,-208.985,-84.6825
880,261327,0.22057600000000002,-0.58072,-0.787388,116.1125,-232.2775,-39.7775
881,261423,0.12078,-0.812276,-0.627812,126.21,-255.22,4.34
882,261520,0.07832401,-0.815204,-0.547536,104.0025,-266.525,38.955
883,261616,0.156404,-0.619272,-0.5795,72.8175,-267.82,65.9925
884,261712,0.335988,-0.407236,-0.704916,53.0075,-267.2075,92.085
885,261808,0.49702799999999997,-0.236436,-0.813496,48.6325,-272.6675,118.0725
886,261905,0.5941401,-0.102724,-0.8713241,51.73,-283.8325,139.6325
887,262001,0.6832,0.006832001,-0.9293961,55.5275,-295.5225,152.0575
888,262097,0.8352120000000001,0.10345599999999999,-1.010404,57.75,-305.655,153.9125
889,262193,1.008208,0.112972,-1.078968,58.52,-317.5725,145.355
890,262290,1.108248,0.08296,-1.0948280000000001,54.0575,-333.5325,127.995
891,262386,1.15778,0.132492,-1.14802,45.22,-348.32,106.575
892,262482,1.248304,0.180316,-1.17486,42.735,-357.4725,89.0925
893,262578,1.28954,0.20837600000000003,-1.197064,49.3675,-363.615,77.98
894,262674,1.38592,0.20618000000000003,-1.2587959999999998,59.9375,-363.8075,68.565
895,262771,1.5906360000000002,0.156648,-1.353712,69.73751,-359.275,56.1575
896,262867,1.77266,0.146156,-1.392752,73.7625,-355.635,40.3725
897,262963,1.957856,0.188124,-1.3771360000000001,74.655,-351.0675,23.59
898,263059,2.1996599999999997,0.313784,-1.313208,78.75,-341.7925,9.5375
899,263156,2.512468,0.350628,-1.2043840000000001,91.21,-329.5775,1.2425
900,263252,2.88652,0.2745,-1.051152,105.49,-317.2925,-4.095
901,263348,3.1756599999999997,0.279624,-0.7439560000000001,111.4575,-308.84,-10.36
902,263444,3.178832,0.443592,-0.145424,113.61,-301.4375,-12.6875
903,263540,2.8504080000000003,0.580232,0.673196,119.8225,-283.3775,-5.53
904,263637,2.549312,0.65514,1.38592,122.7975,-240.87,4.8125
905,263733,2.6827799999999997,0.691496,1.8051119999999998,109.095,-174.9475,11.655
906,263829,2.917752,0.668072,2.131828,72.3625,-108.08,9.9925
907,263925,2.7303599999999997,0.799588,2.284816,16.31,-56.8225,-3.3425
908,264022,2.4087680000000002,0.9413520000000001,2.029348,-27.8075,-0.2625,-20.3875
909,264118,1.419836,-1.279292,1.6875040000000001,-51.835,65.24,-26.6175
910,264214,0.893284,-0.198372,-0.460672,-252.63,180.0575,-82.775
911,264310,0.461892,-0.8876719999999999,-1.842444,-315.84,168.035,-156.1525
912,264406,-0.696132,1.7336200000000002,-1.1009280000000001,-305.13,135.7825,-117.4775
913,264503,-0.5260640000000001,1.8397599999999998,-0.844972,-175.7,158.5675,-16.5025
914,264599,1.8168240000000002,1.8180439999999998,-1.500356,-31.7625,337.82,27.0025
915,264695,1.807552,1.086776,-1.315892,-7.8925,274.505,-6.5625
916,264791,2.432436,-0.542656,-1.7211759999999998,20.65,235.725,-46.235
917,264888,3.1412560000000003,-1.6448040000000002,-1.092632,-5.4775,199.325,-78.55751
918,264984,0.500688,0.382348,-1.025288,-98.105,13.5625,-54.5475
919,265080,1.30784,0.782752,-1.2136559999999998,-74.9875,62.4575,-38.1675
920,265176,0.841556,-0.30548800000000004,-0.9049959999999999,-33.8275,31.22,-21.7525
921,265272,0.714432,-0.100284,-0.8791321,-29.4875,0.1225,-22.26
922,265369,0.743712,0.00488,-0.859368,-24.1675,3.9375,-19.4425
923,265465,0.6646561,-0.098332,-0.8352120000000001,-11.235,-0.245,-14.07
924,265561,0.624152,-0.148596,-0.791048,-5.8975,-0.7,-10.4825
925,265657,0.630008,-0.07588400000000001,-0.809836,-4.69,-1.015,-8.995
926,265754,0.643428,-0.0732,-0.830332,-0.945,-0.49,-6.615
927,265850,0.6095119999999999,-0.081252,-0.8086161000000001,3.22,-0.455,-3.7275
928,265946,0.6082920999999999,-0.08857201,-0.8047121,6.0725,1.0325,-1.3125
929,266042,0.609024,-0.104432,-0.798856,8.4175,3.395,0.6825
930,266138,0.600484,-0.109556,-0.800076,9.7825,4.9525,2.2925
931,266235,0.6070720000000001,-0.140544,-0.7903161,11.305,6.2125,3.0625
932,266331,0.5926760999999999,-0.172508,-0.7707961,11.27,6.02,2.7125
933,266427,0.5946279999999999,-0.181292,-0.7732359999999999,9.17,6.0375,1.1725
934,266523,0.598532,-0.170068,-0.772992,6.8775,5.6,-0.595
935,266619,0.6095119999999999,-0.158112,-0.7732359999999999,5.4425,5.25,-1.855
936,266716,0.6124400999999999,-0.155184,-0.768356,4.48,4.62,-2.5725
937,266812,0.6141479999999999,-0.1403,-0.7700640999999999,3.745,3.85,-3.01
938,266908,0.61488,-0.1342,-0.768844,3.395,3.255,-3.0625
939,267004,0.6117081,-0.13761600000000002,-0.768844,3.325,2.2925,-3.1325
940,267101,0.61122,-0.139568,-0.772748,3.1325,1.54,-3.1325
941,267197,0.609024,-0.143716,-0.772748,3.01,1.085,-3.2375
942,267293,0.6080479999999999,-0.13664,-0.7707961,2.87,0.805,-3.5175
943,267389,0.604632,-0.134932,-0.7722600000000001,2.7475,1.0325,-3.6575
944,267486,0.5975560000000001,-0.139568,-0.7759199999999999,2.695,1.365,-3.71
945,267582,0.599996,-0.132492,-0.7734800000000001,2.835,2.38,-3.5525
946,267678,0.604388,-0.12712400000000001,-0.7707961,3.36,3.7275,-3.5175
947,267774,0.605608,-0.132004,-0.769088,3.955,4.9875,-3.64
948,267870,0.6117081,-0.139568,-0.772748,4.375,6.0025,-3.815
949,267967,0.6082920999999999,-0.1403,-0.767624,4.865,6.6325,-4.375
950,268063,0.607316,-0.138104,-0.767624,5.4775,6.86,-5.1975
951,268159,0.609268,-0.13908,-0.7659161,5.74,6.965,-6.0025
952,268255,0.6036560999999999,-0.141764,-0.765428,5.6175,7.1225,-6.5975
953,268352,0.601704,-0.137128,-0.7700640999999999,5.6175,8.0325,-7.3675
954,268448,0.605364,-0.145912,-0.772504,6.125,10.15,-7.49
955,268544,0.6075600999999999,-0.127368,-0.787144,6.6675,13.615,-7.1225
956,268640,0.6075600999999999,-0.14713199999999999,-0.780312,8.12,17.2375,-7.035
957,268736,0.592432,-0.13859200000000002,-0.791292,10.185,21.7525,-6.8775
958,268833,0.5873079999999999,-0.133712,-0.812032,13.7725,27.825,-7.0525
959,268929,0.571936,-0.118584,-0.813984,17.99,35.805,-6.3525
960,269025,0.57218,-0.12712400000000001,-0.8247200000000001,23.24,47.565,-4.515
961,269121,0.54778,-0.10540799999999999,-0.8479,28.4375,59.0275,-2.7825
962,269218,0.5546121,-0.100284,-0.86864,37.6425,75.8625,-1.7325
963,269314,0.530212,-0.08466801,-0.9076799999999999,48.755,92.1375,-1.925
964,269410,0.5248441,-0.080764,-0.9376921,64.47,115.43,-5.425
965,269506,0.509716,-0.09589201,-0.9535521,84.805,141.9775,-10.745
966,269603,0.484096,-0.086132,-0.9628241,111.265,176.1725,-16.345
967,269699,0.487756,-0.089304,-0.9189040999999999,144.83,218.085,-22.8725
968,269795,0.5063,-0.20447200000000001,-0.812276,184.065,267.3125,-32.4975
969,269891,0.6480640000000001,-0.321592,-0.8252079999999999,222.9675,324.8525,-41.7375
970,269987,0.9799041,-0.40016,-1.27734,248.71,337.8025,-49.1925
971,270084,1.253916,-0.6729520999999999,-1.295152,243.705,257.9325,-70.1225
972,270180,1.8465919999999998,-0.8976761000000001,-1.4234959999999999,301.5775,360.255,-79.625
973,270276,1.7502119999999999,-0.635864,-1.367864,303.555,393.925,-100.1875
974,270372,1.868552,-0.484828,-1.454972,325.6225,415.1875,-116.375
975,270469,1.659444,-0.61122,-1.605276,366.2225,455.8925,-124.4775
976,270565,0.9440360999999999,-0.6785640000000001,-1.508896,346.185,311.465,-153.965
977,270661,0.217892,-0.472872,-1.309304,331.52,230.58,-186.48
978,270757,0.55388,0.17055599999999999,-1.093364,323.19,220.885,-232.0325
979,270854,2.4766,-0.8317960999999999,-2.892376,277.9,173.985,-299.8275
980,270950,1.352004,-0.5455840000000001,-2.44,212.1875,-27.7725,-289.31
981,271046,0.057096,-0.4553041,-1.409832,198.31,-143.045,-251.16
982,271142,-0.414312,-0.518012,-0.7500560000000001,207.8475,-173.25,-202.86
983,271238,-0.35843600000000003,-0.702476,-0.53192,210.0875,-160.8425,-156.0125
984,271335,-0.158844,-0.7439560000000001,-0.644404,192.92,-148.12,-109.3575
985,271431,-0.014152000000000001,-0.643428,-0.820572,168.7175,-148.6625,-55.825
986,271527,0.083204,-0.43163599999999996,-0.9699,150.5875,-158.7075,2.8175
987,271623,0.155672,-0.22423600000000002,-1.0582280000000002,144.2,-173.5825,58.9575
988,271720,0.245952,-0.02684,-1.134356,143.0275,-190.2775,103.95
989,271816,0.343308,0.20374,-1.19316,141.4,-209.0025,133.805
990,271912,0.43798000000000004,0.44286000000000003,-1.2261,140.7525,-229.95,148.8375
991,272008,0.5231359999999999,0.6505041,-1.236836,142.3975,-251.44,148.925
992,272104,0.588284,0.8420440999999999,-1.230248,144.8475,-272.3175,134.0325
993,272201,0.670024,0.9289081,-1.20658,149.1175,-290.465,107.03
994,272297,0.74908,0.906216,-1.180228,152.8275,-304.8675,72.415
995,272393,0.8296,0.9023121,-1.1960879999999998,153.3175,-315.035,37.4675
996,272489,0.9391560999999999,0.844484,-1.218048,155.8375,-320.67,9.8525
997,272586,1.0260200000000002,0.784216,-1.231956,160.405,-325.0625,-8.9075
998,272682,1.118008,0.7522521,-1.2500120000000001,165.34,-326.7775,-21.7175
999,272778,1.22,0.7661600000000001,-1.28344,170.8875,-324.5375,-31.255
1000,272874,1.306132,0.8610761,-1.294176,178.815,-318.745,-38.71
1001,272971,1.3419999999999999,0.889624,-1.206824,192.4825,-309.96,-44.765
1002,273067,1.436428,0.779824,-1.099952,207.97,-296.3625,-55.3
1003,273163,1.6972639999999999,0.710284,-1.143384,212.38,-278.3025,-69.8425
1004,273259,2.048136,0.7117479999999999,-1.230004,208.6525,-264.11,-83.66751
1005,273355,2.344596,0.640744,-1.170468,201.355,-261.7825,-96.91501
1006,273452,2.4504919999999997,0.638548,-0.9381801,190.9425,-266.525,-105.7175
1007,273548,2.483188,0.5826720000000001,-0.606096,186.4975,-265.86,-101.185
1008,273644,2.41194,0.489464,-0.18104800000000001,185.8325,-256.97,-81.74251
1009,273740,2.250656,0.50874,0.24522,178.36,-238.2975,-51.8875
1010,273837,2.104012,0.5206960999999999,0.642452,160.685,-206.64,-20.825
1011,273933,2.076684,0.5543680000000001,0.915732,123.445,-165.3575,-1.645
1012,274029,2.1047439999999997,0.64294,1.098976,67.69001,-123.375,4.585
1013,274125,2.045452,0.766892,1.2622120000000001,10.6225,-84.01751,4.06
1014,274222,1.904664,0.9262239999999999,1.340536,-29.995,-43.015,1.0675
1015,274318,1.222684,-0.10906800000000001,1.8727,-70.385,15.7325,-6.825
1016,274414,1.1538760000000001,0.9857600000000001,-0.285968,-213.7975,105.4375,-88.4275
1017,274510,1.1751040000000001,-0.571204,-1.385432,-224.9275,106.0675,-120.12
1018,274607,0.024644,-0.701256,-1.7514319999999999,-220.9725,65.7825,-109.3225
1019,274703,-0.73078,0.9140241,-1.01504,-223.1775,52.7275,-100.45
1020,274799,-0.438468,1.087264,-0.517524,-130.2525,111.3525,-21.9625
1021,274895,1.60186,1.618452,-1.626992,-61.5825,227.78,-20.5625
1022,274991,2.1057200000000003,0.274256,-1.576484,-19.6175,188.475,-45.8675
1023,275088,2.7459759999999998,-1.412272,-1.270508,-21.0175,133.2625,-73.5175
1024,275184,0.3172,-0.01952,-0.764696,-64.1025,15.9425,-38.745
1025,275280,1.058716,0.662216,-1.349076,-61.2325,39.235,-21.7525
1026,275376,0.8754719999999999,0.144448,-0.8486319999999999,-31.7975,46.8825,-9.31
1027,275473,0.708576,-0.06929600000000001,-0.8378960999999999,-23.065,4.1125,-12.25
1028,275569,0.6836880999999999,-0.139812,-0.808372,-15.2775,7.8925,-10.6225
1029,275665,0.680028,-0.106628,-0.819108,-13.58,1.5225,-11.165
1030,275761,0.634156,-0.03538,-0.82594,-10.9725,-1.645,-9.975
1031,275858,0.614636,-0.09784401,-0.806176,-5.7575,-2.1175,-8.3825
1032,275954,0.652456,-0.040016,-0.8457040000000001,-2.765,-2.0475,-7.1225
1033,276050,0.6082920999999999,-0.06636801,-0.800564,1.9425,-2.8875,-4.6725
1034,276146,0.597068,-0.085156,-0.8042239999999999,4.48,-3.5875,-3.4475
1035,276242,0.590236,-0.06466001,-0.802272,5.67,-2.0825,-2.3625
1036,276339,0.589504,-0.08808401,-0.7993439999999999,7.91,0.175,-0.6475
1037,276435,0.5846241,-0.124928,-0.789828,9.24,1.8025,0.8575
1038,276531,0.5856,-0.138836,-0.790072,9.66,3.4125,1.715
1039,276627,0.590968,-0.15201199999999998,-0.78446,9.45,4.305,1.4875
1040,276724,0.5946279999999999,-0.138836,-0.779092,8.54,4.06,0.56
1041,276820,0.594384,-0.138836,-0.783972,7.945,3.92,-0.4025
1042,276916,0.597312,-0.1342,-0.7832399999999999,7.875,3.885,-0.98
1043,277012,0.596092,-0.131272,-0.784216,7.665,3.815,-1.4175
1044,277109,0.6021920000000001,-0.12712400000000001,-0.785924,7.805,4.0075,-1.47
1045,277205,0.6075600999999999,-0.131272,-0.7795801,7.805,4.0775,-1.6275
1046,277301,0.604876,-0.13859200000000002,-0.773724,7.3675,3.6225,-1.75
1047,277397,0.6068279999999999,-0.14078800000000002,-0.7734800000000001,6.7025,3.0275,-2.1875
1048,277493,0.600484,-0.137372,-0.7766521,5.95,2.4675,-2.6775
1049,277590,0.5987760999999999,-0.133224,-0.775676,5.3375,2.205,-3.0275
1050,277686,0.599264,-0.12688,-0.7766521,5.0225,2.5375,-3.185
1051,277782,0.60878,-0.128588,-0.7747001,4.9,3.2025,-3.1675
1052,277878,0.604144,-0.135176,-0.778604,4.8125,3.9725,-3.2375
1053,277975,0.600484,-0.139812,-0.7808001,5.0575,4.55,-3.78
1054,278071,0.5914560000000001,-0.143716,-0.782508,6.2475,5.74,-4.9
1055,278167,0.58682,-0.151524,-0.784216,8.155,6.79,-6.9825
1056,278263,0.58682,-0.14152,-0.783728,10.5175,8.2075,-9.8525
1057,278359,0.57828,-0.142984,-0.8020281,14.7,9.3275,-14.3675
1058,278456,0.57584,-0.15982000000000002,-0.8030041,22.7325,10.185,-23.065
1059,278552,0.538508,-0.17763199999999998,-0.8095920999999999,32.865,10.3775,-34.65
1060,278648,0.55388,-0.138836,-0.8042239999999999,43.6625,12.25,-46.515
1061,278744,0.642696,-0.15054800000000002,-0.75884,53.1475,17.9725,-53.97
1062,278841,0.639768,-0.133712,-0.7610359999999999,55.7025,18.9875,-55.055
1063,278937,0.644648,-0.132248,-0.7600600000000001,56.0875,21.175,-52.535
1064,279033,0.6373281,-0.124196,-0.76494,55.0725,24.955,-48.0025
1065,279129,0.6280560000000001,-0.12566,-0.764696,53.7425,30.59,-42.14
1066,279226,0.6117081,-0.107848,-0.792512,51.1875,38.71,-34.02
1067,279322,0.6344,-0.11345999999999999,-0.7795801,49.14,47.985,-25.515
1068,279418,0.626104,-0.08881599,-0.79056,47.1975,57.26,-16.765
1069,279514,0.638304,-0.09247601,-0.792024,46.48,68.04,-7.28
1070,279610,0.630984,-0.082472,-0.8108121,45.675,78.5225,2.1175
1071,279707,0.622688,-0.09930800000000001,-0.846924,48.1075,91.4375,9.7125
1072,279803,0.6029241,-0.10516400000000001,-0.8510719999999999,53.76,106.925,16.065
1073,279899,0.605364,-0.11102000000000001,-0.8698601,64.33,125.9825,21.56
1074,279995,0.582916,-0.07417601,-0.9084121,78.9425,148.05,27.6325
1075,280092,0.5665680000000001,-0.12468399999999999,-0.877668,96.8275,177.485,35.7175
1076,280188,0.5694961,-0.1159,-0.855708,114.7475,210.945,42.4725
1077,280284,0.624884,-0.09516001,-0.9174399999999999,142.73,249.795,47.88
1078,280380,0.6883239999999999,-0.199104,-0.8913321,176.7675,283.3075,52.7625
1079,280476,0.6675840000000001,-0.01098,-1.113372,178.5525,254.73,47.1275
1080,280573,1.07726,-0.271084,-1.095804,190.2425,222.355,35.14
1081,280669,1.376892,-0.366244,-1.169248,254.8525,305.095,37.66
1082,280765,1.655784,-0.495076,-1.396168,309.96,376.9675,46.69
1083,280861,1.955416,-0.39113200000000004,-1.172908,338.94,407.4175,42.7
1084,280958,1.56526,-0.35087199999999996,-1.293444,374.1325,472.3775,31.2725
1085,281054,1.667984,-0.49434399999999995,-1.514752,389.3925,456.75,24.395
1086,281150,0.611952,-0.3965,-1.4576559999999998,370.6325,302.89,-0.7525
1087,281246,-0.010492,-0.241804,-1.345416,392.28,277.76,-30.485
1088,281342,1.504748,-0.004392,-1.436672,403.9875,265.125,-86.625
1089,281439,3.344264,-1.7699759999999998,-3.0512200000000003,355.53,193.0425,-170.31
1090,281535,2.0374,-1.303204,-2.81942,196.7,-75.32,-183.19
1091,281631,0.37112399999999995,-0.429684,-1.725568,86.6425,-237.2825,-169.925
1092,281727,-0.19885999999999998,0.086132,-1.059936,65.485,-278.985,-148.19
1093,281824,-0.044164,0.157136,-0.8376520000000001,92.225,-260.19,-122.675
1094,281920,0.19959200000000002,0.009516001,-0.8662001,119.2275,-248.605,-91.6475
1095,282016,0.4087,-0.193248,-0.9591639999999999,124.845,-254.6075,-57.365
1096,282112,0.45432799999999995,-0.213256,-0.9913719999999999,100.6775,-272.5275,-29.0675
1097,282208,0.371368,0.045627999999999995,-0.981124,62.4225,-293.09,-10.2725
1098,282305,0.315736,0.409432,-0.9630681000000001,38.395,-305.7425,2.625
1099,282401,0.359168,0.6344,-0.965996,41.65,-309.61,12.4775
1100,282497,0.5016641,0.637084,-0.9972281,60.1475,-311.71,17.8325
1101,282593,0.6734399999999999,0.521672,-1.026996,72.24,-318.8325,15.5575
1102,282690,0.7442,0.514108,-1.045052,67.06,-333.76,3.99
1103,282786,0.772504,0.611952,-1.0589600000000001,57.2775,-347.9175,-13.2125
1104,282882,0.846924,0.619028,-1.078724,59.255,-356.0725,-28.6825
1105,282978,0.9730721,0.467016,-1.112396,69.02,-360.4825,-40.1625
1106,283075,1.089704,0.240096,-1.131916,72.9575,-365.1025,-48.72
1107,283171,1.13582,0.07637200000000001,-1.128744,64.575,-369.9675,-53.2
1108,283267,1.16632,-0.015372,-1.149972,49.385,-371.49,-52.71
1109,283363,1.2627,-0.018544,-1.2341520000000001,36.61,-366.9925,-47.075
1110,283459,1.37616,-0.023668,-1.35542,32.9525,-360.465,-35.28
1111,283556,1.480348,-0.162748,-1.413492,36.61,-353.99,-20.125
1112,283652,1.700436,-0.14152,-1.3973879999999999,34.335,-344.015,-3.3075
1113,283748,2.031788,-0.202276,-1.30174,29.3475,-333.2,16.3275
1114,283844,2.44854,-0.149328,-1.305644,21.175,-327.5475,25.6375
1115,283941,2.905552,-0.09028,-1.225368,13.93,-324.87,28.6125
1116,284037,3.26472,-0.149328,-0.9054840000000001,14.805,-326.2175,28.455
1117,284133,3.362076,-0.1403,-0.266692,17.605,-329.3325,21.4725
1118,284229,3.212992,-0.003904,0.591212,27.6325,-318.395,17.29
1119,284326,2.921412,0.2074,1.432524,50.365,-281.1725,24.395
1120,284422,2.7298720000000003,0.48678,2.014952,80.43,-218.33,37.7125
1121,284518,3.00608,0.684176,2.342644,108.4825,-140.0525,52.1675
1122,284614,3.066836,0.373808,2.716452,115.7275,-67.5675,56.175
1123,284710,2.64252,0.315492,2.680584,63.4375,-10.4825,27.7025
1124,284807,1.312476,0.074664,2.739632,-30.415,70.56,-16.3625
1125,284903,0.46603999999999995,-0.256932,-0.6736840000000001,-125.7725,217.315,-100.3275
1126,284999,0.43236800000000003,-0.558272,-1.980548,-169.47,244.475,-164.92
1127,285095,0.883768,1.025288,-1.0243120000000001,-151.9525,218.085,-141.4175
1128,285192,1.17974,0.08296,-1.17852,-19.18,258.5625,-15.3475
1129,285288,1.80072,1.053836,-1.6616400000000002,-4.55,258.51,-16.065
1130,285384,1.356396,0.548756,-1.159244,27.1075,217.6125,-18.3225
1131,285480,1.521096,-0.384056,-1.248304,44.9575,195.2825,-32.3575
1132,285576,2.942884,-2.0169040000000003,-1.767048,38.745,181.79,-42.91
1133,285673,0.9301280000000001,-0.571448,-0.687104,-48.265,87.8675,-58.1
1134,285769,0.568276,0.712236,-1.172908,-67.83,17.64,-42.63
1135,285865,1.44814,-0.10321199999999998,-1.089704,-30.5025,76.09000999999999,-44.555
1136,285961,0.633424,-0.32818,-0.742004,-25.06,6.965,-24.8675
1137,286057,0.7176041,0.030012,-0.945744,-26.8625,2.31,-19.6
1138,286154,0.6897880999999999,-0.204716,-0.798856,-14.5775,5.32,-16.03
1139,286250,0.6222,-0.039284,-0.8576601,-12.3025,-1.9425,-12.3375
1140,286346,0.583404,-0.162992,-0.785192,-6.7375,-0.56,-9.45
1141,286442,0.586088,-0.128344,-0.7922680000000001,-5.5125,-0.98,-8.75
1142,286539,0.616588,-0.135908,-0.799588,-4.795,0.315,-8.645
1143,286635,0.609268,-0.08003201,-0.8256960999999999,-3.4475,-0.6475,-7.2625
1144,286731,0.6224441,-0.09320801,-0.8195960999999999,0.1225,0.805,-4.725
1145,286827,0.608536,-0.09613601,-0.8115439999999999,3.5525,1.1725,-2.1525
1146,286923,0.592432,-0.118584,-0.7978801,6.265,1.5575,-0.3675
1147,287020,0.582916,-0.146156,-0.7881199999999999,7.6125,2.275,0.3675
1148,287116,0.56608,-0.163968,-0.77836,7.1225,2.6075,-0.035
1149,287212,0.55388,-0.205692,-0.762744,6.055,3.57,-1.3475
1150,287308,0.5653481,-0.178608,-0.76982,3.64,4.7075,-3.57
1151,287405,0.5887720000000001,-0.148108,-0.782508,1.9775,5.705,-5.46
1152,287501,0.595604,-0.138836,-0.783728,1.7325,6.1425,-5.985
1153,287597,0.605608,-0.12566,-0.7929999999999999,1.82,6.5275,-5.81
1154,287693,0.606096,-0.13664,-0.7869,2.5375,7.105,-5.215
1155,287789,0.584868,-0.151524,-0.784216,3.15,7.3675,-4.9175
1156,287886,0.582916,-0.154452,-0.781532,3.1325,8.54,-5.4075
1157,287982,0.593164,-0.150792,-0.773724,2.8,9.7825,-6.195
1158,288078,0.6029241,-0.14884,-0.772016,2.1875,10.8675,-6.7375
1159,288174,0.60146,-0.15372,-0.765428,1.155,11.41,-6.9825
1160,288271,0.6019479999999999,-0.148108,-0.763232,0.1925,11.6725,-7.28
1161,288367,0.6405,-0.091744,-0.803492,0.7175,12.46,-8.225
1162,288463,0.604632,-0.135908,-0.7761640999999999,3.5175,10.64,-6.7025
1163,288559,0.591212,-0.133468,-0.7822640000000001,4.795,11.34,-7.5075
1164,288655,0.5738880000000001,-0.091744,-0.8030041,6.4925,13.2125,-8.855
1165,288752,0.6158561,-0.114436,-0.787388,10.815,18.305,-11.7775
1166,288848,0.5968241,-0.100772,-0.801296,15.3475,22.2425,-13.755
1167,288944,0.6068279999999999,-0.117852,-0.7788480999999999,20.9825,25.9525,-16.555
1168,289040,0.615368,-0.1098,-0.787388,25.7425,32.3225,-17.8325
1169,289137,0.620736,-0.124196,-0.774456,29.26,36.75,-17.7625
1170,289233,0.628788,-0.132248,-0.762744,31.535,42.105,-16.5025
1171,289329,0.610488,-0.122976,-0.7793359999999999,32.095,46.34,-14.455
1172,289425,0.613416,-0.134444,-0.7722600000000001,31.2025,52.9025,-11.2875
1173,289522,0.6124400999999999,-0.129076,-0.781044,31.3775,61.53,-8.4
1174,289618,0.61,-0.128344,-0.785924,30.8875,69.80751,-5.81
1175,289714,0.616344,-0.12175599999999999,-0.787632,29.995,80.5525,-2.7125
1176,289810,0.60268,-0.11028800000000001,-0.797148,29.9075,92.0325,0.6125
1177,289907,0.582916,-0.134444,-0.79178,30.415,106.715,3.5875
1178,290003,0.5565640000000001,-0.14688800000000002,-0.808372,30.9925,125.79,4.76
1179,290099,0.545096,-0.163968,-0.8105680000000001,31.99,150.4125,4.4975
1180,290195,0.5455840000000001,-0.14713199999999999,-0.81374,32.9175,180.39,2.4675
1181,290291,0.542656,-0.134688,-0.797636,34.3525,216.335,-0.21
1182,290388,0.6029241,-0.133224,-0.83936,35.28,257.4075,-2.4675
1183,290484,1.1890120000000002,-0.284748,-1.0016200000000002,28.315,279.3875,-4.1825
1184,290580,0.9311040999999999,-0.079544,-0.956968,-3.5175,203.5075,-10.92
1185,290676,0.7256560000000001,-0.205204,-1.16998,37.45,263.83,-0.315
1186,290773,1.191452,-0.510204,-1.268556,91.7,336.2975,1.295
1187,290869,1.962248,-0.666852,-1.366156,137.0775,427.0,-18.0075
1188,290965,1.7794919999999999,-0.71492,-1.625284,139.4225,468.72,-53.41
1189,291061,2.196732,-0.744444,-1.431792,143.8675,478.7125,-90.545
1190,291157,1.529148,-0.595116,-1.7355720000000001,152.9675,559.2475,-114.835
1191,291254,1.527196,-0.6373281,-2.574688,166.2675,568.645,-121.4675
1192,291350,0.7510321,-0.7600600000000001,-2.242604,170.3625,430.8675,-138.005
1193,291446,-0.039528,0.8166680000000001,-1.2524520000000001,215.04,354.1475,-144.235
1194,291542,4.052596,-1.030656,-3.602904,252.595,373.2575,-194.4425
1195,291639,3.183224,-2.0435,-3.7048959999999997,199.4475,109.1125,-132.79
1196,291735,0.44676400000000005,-1.790228,-2.22894,69.58,-150.465,-98.5075
1197,291831,-0.813984,-1.026752,-1.157292,-34.65,-227.0275,-92.3825
1198,291927,-0.537044,-0.379176,-0.9530641,-78.365,-194.74,-95.935
1199,292024,-0.07076001,-0.116876,-1.0262639999999998,-60.8475,-174.65,-84.35
1200,292120,0.18788,-0.22106399999999998,-1.1094680000000001,-8.75,-189.49,-52.255
1201,292216,0.267912,-0.530456,-1.065548,34.79,-220.8675,-16.66
1202,292312,0.311832,-0.7076001000000001,-0.97478,40.705,-252.175,7.56
1203,292409,0.33916,-0.6019479999999999,-0.9084121,16.9575,-280.1575,19.67
1204,292505,0.388204,-0.368196,-0.8569280999999999,-5.53,-300.7725,28.035
1205,292601,0.43798000000000004,-0.162748,-0.829356,-8.9775,-316.3475,38.7975
1206,292697,0.51972,-0.086132,-0.815448,5.11,-326.7425,52.1675
1207,292793,0.6263479999999999,-0.0976,-0.806176,23.24,-334.985,64.6625
1208,292890,0.729804,-0.13908,-0.8188641,34.195,-342.825,73.6225
1209,292986,0.820084,-0.13785999999999998,-0.860344,35.0875,-349.6675,77.9275
1210,293082,0.9767321,-0.09247601,-0.9555040000000001,32.1475,-354.2525,79.6425
1211,293178,1.146312,-0.122244,-1.028948,31.745,-359.8525,80.99
1212,293275,1.27368,-0.196176,-1.091412,30.765,-367.92,82.4425
1213,293371,1.412028,-0.274256,-1.155584,25.795,-374.92,84.9275
1214,293467,1.543056,-0.27279200000000003,-1.253428,17.815,-380.2575,90.265
1215,293563,1.730204,-0.318664,-1.3481,12.95,-383.5475,99.12001
1216,293660,2.007144,-0.45579200000000003,-1.388116,9.59,-384.7725,109.83
1217,293756,2.3201959999999997,-0.6392800000000001,-1.373964,-1.0675,-385.56,121.24
1218,293852,2.6779,-0.800564,-1.2780719999999999,-22.295,-385.84,132.265
1219,293948,2.9736279999999997,-0.830576,-1.045296,-50.645,-385.9975,144.2175
1220,294045,3.128568,-0.563884,-0.697596,-74.655,-382.06,156.1525
1221,294141,3.022672,-0.21057199999999998,-0.36356,-73.90250999999999,-365.7675,169.75
1222,294237,3.183712,-0.185196,1.190232,-46.6025,-307.9475,179.025
1223,294333,3.4926160000000004,0.08442401,1.0340719999999999,-28.07,-245.735,173.81
1224,294430,3.5924120000000004,0.11736400000000001,1.154852,-22.0325,-218.75,177.9925
1225,294526,3.1085599999999998,0.155184,1.9419959999999998,-26.6,-184.3625,182.5425
1226,294622,2.935808,0.585356,2.591768,-58.975,-120.1375,157.395
1227,294718,2.539796,1.130696,2.885544,-83.58001,-38.5875,107.1
1228,294814,2.344352,1.214388,2.8609,-60.6025,76.8775,47.635
1229,294911,2.093032,0.74664,3.029748,-27.3,191.9225,2.9575
1230,295007,0.287188,0.096624,0.11955999999999999,-10.5175,282.7825,-16.415
1231,295103,2.4334119999999997,0.0183,-2.744756,33.145,359.1175,-21.0175
1232,295199,1.580632,-0.10614000000000001,-0.9803921,46.165,319.0775,-22.6625
1233,295296,2.085224,-0.5814520000000001,-1.45424,47.25,295.82,-21.6825
1234,295392,2.003484,-0.18422,-1.42984,43.365,267.4,-8.05
1235,295488,1.652368,-0.19764,-1.349076,29.015,212.1875,-7.945
1236,295584,3.149064,-0.5843801,-1.592344,4.6025,189.8575,-49.6125
1237,295681,0.658556,-0.163724,-0.6317159999999999,-49.455,59.675,-51.9575
1238,295777,1.699948,0.531188,-1.494256,-45.6575,62.545,-42.42
1239,295873,0.758108,-0.46603999999999995,-0.749324,-13.02,22.75,-19.5475
1240,295969,0.796904,-0.07686,-0.8796200000000001,-11.55,-0.595,-11.69
1241,296066,0.742004,-0.08564401,-0.8520479999999999,-5.915,4.5675,-7.6125
1242,296162,0.644648,-0.119316,-0.8178880999999999,5.285,-2.66,-0.455
1243,296258,0.5946279999999999,-0.143716,-0.790804,8.8725,-1.925,2.6775
1244,296354,0.5856,-0.167872,-0.772016,11.1825,-1.5225,3.675
1245,296451,0.583648,-0.152988,-0.783728,10.535,-0.63,3.1325
1246,296547,0.612196,-0.205204,-0.780312,10.885,0.6125,2.7125
1247,296643,0.6161,-0.14884,-0.800564,10.255,0.35,1.855
1248,296739,0.61122,-0.156892,-0.792512,11.8125,0.14,2.2925
1249,296835,0.60268,-0.16128399999999998,-0.788608,12.81,0.4025,2.8525
1250,296932,0.60024,-0.162748,-0.776896,12.88,0.8925,2.9575
1251,297028,0.582916,-0.171044,-0.773724,12.32,1.3825,2.87
1252,297124,0.568764,-0.190808,-0.7612800999999999,11.375,2.0125,2.24
1253,297220,0.5826720000000001,-0.1952,-0.7600600000000001,9.6075,3.395,0.77
1254,297317,0.5897479999999999,-0.179828,-0.7722600000000001,8.4875,4.655,-0.595
1255,297413,0.589992,-0.180072,-0.7673800000000001,8.1375,5.1625,-1.4
1256,297509,0.6007279999999999,-0.168604,-0.782508,8.12,6.23,-1.96
1257,297605,0.5914560000000001,-0.180072,-0.7686,8.96,7.14,-2.275
1258,297702,0.583648,-0.174216,-0.7705521,9.1175,8.1375,-3.0625
1259,297798,0.573156,-0.17397200000000002,-0.762988,9.205,9.835,-4.2875
1260,297894,0.555832,-0.18251199999999998,-0.760304,9.45,11.725,-6.3525
1261,297990,0.57218,-0.17763199999999998,-0.767868,9.8525,13.685,-10.0975
1262,298087,0.571448,-0.19178399999999998,-0.743224,10.4125,15.5225,-14.2275
1263,298183,0.5892601,-0.193004,-0.748836,9.59,17.71,-17.255
1264,298279,0.5673,-0.191052,-0.7625,9.065,20.195,-19.145
1265,298375,0.621712,-0.168604,-0.7712840999999999,9.5025,24.745,-19.495
1266,298472,0.6373281,-0.15738,-0.774212,11.5325,27.3175,-19.1625
1267,298568,0.643428,-0.150304,-0.7788480999999999,15.155,30.5025,-17.955
1268,298664,0.650748,-0.139568,-0.7734800000000001,19.4775,32.48,-15.925
1269,298760,0.6566041,-0.168604,-0.742004,24.115,35.6475,-13.9475
1270,298856,0.6453800000000001,-0.13078399999999998,-0.7707961,26.67,39.76,-11.4275
1271,298953,0.650992,-0.164456,-0.739808,29.4525,43.7325,-8.47
1272,299049,0.653432,-0.167384,-0.7200439999999999,31.6225,48.2825,-4.9
1273,299145,0.6514800000000001,-0.168604,-0.71736,32.165,53.6725,-1.2775
1274,299241,0.6451359999999999,-0.15274400000000002,-0.7324881,31.115,59.9025,2.66
1275,299338,0.659776,-0.149572,-0.735416,31.7275,68.075,6.3875
1276,299434,0.630252,-0.16226,-0.7500560000000001,33.215,76.09000999999999,9.24
1277,299530,0.6392800000000001,-0.156892,-0.76494,35.8225,86.0825,11.3575
1278,299626,0.643672,-0.1647,-0.762988,40.285,99.05001,14.5425
1279,299723,0.630984,-0.164456,-0.777872,43.9775,111.615,17.9025
1280,299819,0.6319600000000001,-0.138836,-0.787388,50.0325,128.975,21.5425
1281,299915,0.582428,-0.21886799999999998,-0.7625,56.6125,150.185,27.265
1282,300011,0.571204,-0.179828,-0.796172,64.295,172.7775,29.89
1283,300108,0.5648601,-0.22935999999999998,-0.7881199999999999,71.4,197.155,30.0475
1284,300204,0.6326921,-0.177876,-0.8481440999999998,75.0575,226.5025,32.025
1285,300300,0.5873079999999999,-0.058072000000000006,-1.0018639999999999,54.6175,212.2575,24.0275
1286,300396,0.75884,-0.19642,-0.9140241,34.3175,185.36,13.825
1287,300493,1.13582,-0.260104,-0.9289081,53.0075,251.335,6.685
1288,300589,0.9716081,-0.236192,-1.067988,95.9525,345.415,10.08
1289,300685,1.102392,-0.471408,-1.1895,147.035,430.5875,22.82
1290,300781,1.594296,-0.7639640999999999,-1.208532,172.06,480.3225,16.905
1291,300877,1.766804,-0.8203280000000001,-1.247816,161.7175,481.53,-8.8025
1292,300974,2.229428,-0.8398479999999999,-1.4478959999999998,179.9875,504.07,-29.3125
1293,301070,1.726056,-0.5958479999999999,-2.075708,214.27,565.1625,-47.1275
1294,301166,1.48596,-0.80886,-2.167452,229.74,488.32,-57.68
1295,301262,0.275964,-0.18544000000000002,-1.9483400000000002,253.6625,346.2025,-86.38
1296,301359,1.080676,1.062864,-1.660664,354.2,345.8,-158.865
1297,301455,4.715544,-1.762168,-3.6702480000000004,409.395,290.2375,-265.2125
1298,301551,2.9646,-3.164192,-3.0927,297.2725,-28.2975,-220.1675
1299,301647,0.733952,-2.591768,-1.7211759999999998,80.045,-262.2725,-189.14
1300,301744,-0.37258800000000003,-1.490108,-0.8727879999999999,-88.69,-326.7775,-175.4375
1301,301840,-0.42187600000000003,-0.5814520000000001,-0.611952,-161.2275,-303.555,-181.125
1302,301936,-0.1098,-0.139812,-0.7015,-145.845,-272.545,-174.9125
1303,302032,0.21813600000000002,-0.20496,-0.81862,-76.7725,-260.8725,-144.6025
1304,302128,0.41406800000000005,-0.5856,-0.8376520000000001,-7.8225,-269.92,-102.6025
1305,302225,0.462136,-0.9608721,-0.7517640999999999,20.685,-291.375,-66.8675
1306,302321,0.49898000000000003,-1.105808,-0.676612,3.64,-312.55,-45.4825
1307,302417,0.532652,-0.978196,-0.635376,-35.035,-331.1175,-34.16
1308,302513,0.54168,-0.721996,-0.612196,-63.5775,-344.8725,-23.17
1309,302610,0.5846241,-0.5219159999999999,-0.6039,-64.6625,-351.9075,-4.9175
1310,302706,0.66246,-0.475312,-0.5914560000000001,-44.065,-353.5,20.0725
1311,302802,0.759328,-0.537044,-0.5795,-19.1975,-353.3775,46.4275
1312,302898,0.863516,-0.612928,-0.5978,-3.5175,-352.17,69.0025
1313,302995,1.0255319999999999,-0.6222,-0.6749041,1.19,-349.545,86.975
1314,303091,1.265384,-0.5787680000000001,-0.782752,3.045,-348.285,103.3025
1315,303187,1.4422840000000001,-0.6131721,-0.8427761,6.72,-352.59,120.89
1316,303283,1.525976,-0.599264,-0.8906,6.86,-360.8325,136.7625
1317,303380,1.6494400000000002,-0.537776,-0.9638,5.8275,-365.9425,149.205
1318,303476,1.8470799999999998,-0.49727200000000005,-1.047004,10.08,-366.2575,159.7925
1319,303572,2.052772,-0.5455840000000001,-1.0887280000000001,17.1675,-366.17,169.575
1320,303668,2.2728599999999997,-0.649284,-1.066768,19.355,-364.3325,176.9775
1321,303765,2.621048,-0.8249639999999999,-0.995764,13.16,-359.1875,180.0575
1322,303861,2.96948,-0.9433041,-0.8669319999999999,-4.2175,-355.67,178.4125
1323,303957,3.15492,-0.863028,-0.621468,-25.55,-354.445,172.305
1324,304053,3.174196,-0.634644,-0.262544,-31.6225,-347.4275,163.03
1325,304150,3.054636,0.260104,0.156404,-7.9975,-325.9725,157.0975
1326,304246,2.8426,0.7937320999999999,0.5734,72.59,-284.2,186.025
1327,304342,2.9158,0.268888,1.122156,172.235,-216.02,226.415
1328,304438,3.112708,-0.10931199999999999,1.505968,174.2125,-155.75,228.1825
1329,304534,3.35744,0.2074,1.885388,88.6375,-109.7075,198.1175
1330,304631,3.1595560000000003,0.85888,2.324344,-3.7625,-78.0675,146.6325
1331,304727,2.532232,1.423984,2.395836,-41.0725,-40.3725,75.67
1332,304823,1.340292,0.410652,1.508652,-13.755,29.855,5.3375
1333,304919,0.84546,-1.211216,3.6299879999999995,-99.24251,156.24,-39.5325
1334,305016,0.5511961,0.736392,-1.9724959999999998,-294.665,270.2175,-156.765
1335,305112,1.2763639999999998,1.9473639999999999,-1.84952,-242.5675,258.5625,-149.31
1336,305208,1.2104840000000001,0.17202,-0.85888,-51.3625,298.3575,16.555
1337,305304,2.345572,1.6513919999999997,-2.044476,-4.76,323.9775,27.9825
1338,305401,1.719956,1.244156,-1.3888479999999999,17.0975,255.0275,-2.625
1339,305497,1.446432,-0.035136,-1.23464,55.16,219.38,-29.1025
1340,305593,1.483032,-1.629432,-0.9415959999999999,63.5775,203.2975,-39.13
1341,305689,3.042192,-1.508896,-1.243668,11.34,188.265,-56.1575
1342,305786,0.5785241,0.504592,-0.9054840000000001,-76.86,62.2825,-62.2125
1343,305882,1.2136559999999998,0.35014,-1.269776,-59.7275,46.2525,-55.7375
1344,305978,1.268068,-0.6197600000000001,-0.87718,-24.255,81.46251,-44.8175
1345,306074,0.5946279999999999,0.21057199999999998,-0.9484280999999999,-49.77,-4.1125,-35.9975
1346,306171,0.8544879999999999,-0.17738800000000002,-0.8940161,-29.1025,16.24,-27.3175
1347,306267,0.61366,-0.09930800000000001,-0.815692,-19.2675,3.85,-18.8475
1348,306363,0.662948,-0.136884,-0.8091041,-14.98,4.025,-15.365
1349,306459,0.6344,-0.06270801,-0.8247200000000001,-11.4275,1.8025,-13.09
1350,306556,0.648552,-0.086132,-0.8203280000000001,-7.0525,2.2225,-10.0275
1351,306652,0.6422081000000001,-0.07564,-0.815936,-1.9425,2.135,-6.4575
1352,306748,0.6258600000000001,-0.09247601,-0.819108,2.9575,3.2375,-2.6425
1353,306844,0.6131721,-0.132492,-0.791536,7.105,4.0775,-0.07
1354,306941,0.601704,-0.142496,-0.782752,8.4,5.2675,0.4725
1355,307037,0.581696,-0.185928,-0.7639640999999999,8.4,6.1075,-0.07
1356,307133,0.576572,-0.19739600000000002,-0.74664,6.1775,6.8425,-2.0475
1357,307229,0.596336,-0.17738800000000002,-0.7522521,2.94,7.9975,-4.935
1358,307325,0.5978,-0.160796,-0.7659161,0.42,8.0675,-7.0175
1359,307422,0.610488,-0.13761600000000002,-0.77836,-0.5775,8.5575,-7.9625
1360,307518,0.62098,-0.122732,-0.7812880999999999,-0.21,9.3625,-7.525
1361,307614,0.6168319999999999,-0.12932000000000002,-0.779824,0.5425,9.9225,-6.405
1362,307710,0.61488,-0.13298,-0.766892,1.085,10.5525,-5.6525
1363,307807,0.60878,-0.128832,-0.772016,0.945,11.69,-5.46
1364,307903,0.603168,-0.12078,-0.778604,0.8400001,12.9325,-5.7225
1365,307999,0.6029241,-0.10833599999999999,-0.782752,1.7675,15.0325,-6.2475
1366,308095,0.58072,-0.1342,-0.780068,4.095,17.8325,-6.9825
1367,308192,0.6307401,-0.11712,-0.772504,5.39,21.7525,-7.1925
1368,308288,0.6231760999999999,-0.112728,-0.766892,8.3475,23.975,-7.3675
1369,308384,0.6258600000000001,-0.122,-0.774212,11.55,26.285,-7.5425
1370,308480,0.622688,-0.11224,-0.771772,14.315,28.9625,-7.35
1371,308577,0.640744,-0.121268,-0.75884,16.9925,33.2675,-6.58
1372,308673,0.612196,-0.108824,-0.772748,18.1475,36.5225,-5.7925
1373,308769,0.63318,-0.12980799999999998,-0.748836,19.7925,41.79,-6.0375
1374,308865,0.622688,-0.12053599999999999,-0.76494,21.7,46.5325,-6.615
1375,308961,0.628544,-0.11467999999999999,-0.776408,24.78,52.6925,-6.9475
1376,309058,0.6463561,-0.11955999999999999,-0.75274,27.2825,59.15,-6.265
1377,309154,0.641964,-0.13859200000000002,-0.760304,28.91,67.13,-4.445
1378,309250,0.644404,-0.128832,-0.73688,28.5775,75.0225,-1.9075
1379,309346,0.641964,-0.128588,-0.7537159999999999,29.1725,84.7175,1.12
1380,309443,0.650016,-0.11614400000000001,-0.7664041,29.645,95.9525,5.1275
1381,309539,0.637084,-0.09125599999999999,-0.7820199999999999,30.9225,109.0425,8.4525
1382,309635,0.601704,-0.139812,-0.7712840999999999,32.83,126.315,11.6375
1383,309731,0.5875520000000001,-0.162504,-0.781776,35.91,149.6775,12.635
1384,309828,0.580232,-0.13785999999999998,-0.780068,38.605,177.6075,12.04
1385,309924,0.586332,-0.167384,-0.799588,40.5475,209.895,10.8325
1386,310020,0.5948720000000001,-0.15616,-0.796172,38.8325,240.9925,9.415
1387,310116,0.739564,-0.146156,-1.0443200000000001,24.5,243.3025,4.6025
1388,310212,0.9171961,-0.17202,-0.954528,2.555,189.91,-3.325
1389,310309,0.8823040000000001,-0.321348,-1.085068,36.75,259.35,4.165
1390,310405,1.082384,-0.448716,-1.167784,83.73751,337.6625,0.735
1391,310501,1.812432,-0.609268,-1.41276,132.86,429.8875,-11.27
1392,310597,1.713612,-0.7166279999999999,-1.460584,136.5,472.08,-42.21
1393,310694,2.222596,-0.790072,-1.107272,128.5025,477.645,-79.415
1394,310790,1.9734720000000001,-0.541924,-1.671156,132.755,543.41,-107.415
1395,310886,1.507676,-0.343552,-2.3711919999999997,145.11,572.985,-111.86
1396,310982,1.571848,-0.686372,-2.3968119999999997,169.05,511.98,-109.585
1397,311079,-0.19397999999999999,0.7317560000000001,-2.014952,222.3375,367.9725,-109.795
1398,311175,3.7388120000000002,-0.571448,-3.215188,299.1975,389.1475,-155.855
1399,311271,3.912296,-2.494168,-3.769068,262.885,195.4575,-120.085
1400,311367,1.358592,-2.179164,-2.6181200000000002,100.1875,-121.5375,-80.465
1401,311464,-0.60146,-1.275388,-1.3005200000000001,-43.5225,-243.7225,-78.9775
1402,311560,-0.652212,-0.444324,-0.9225639999999999,-119.8925,-227.0275,-95.6375
1403,311656,-0.302316,0.032208,-0.9267120000000001,-121.24,-196.245,-106.8725
1404,311752,0.06954,0.07344400000000001,-1.028216,-65.905,-193.4275,-93.8525
1405,311848,0.252784,-0.24936799999999998,-1.04554,2.135,-213.99,-67.2
1406,311945,0.3233,-0.615124,-0.976,39.48,-244.3175,-44.975
1407,312041,0.363804,-0.7707961,-0.8976761000000001,34.72,-274.2075,-33.6525
1408,312137,0.417728,-0.67466,-0.8364321,7.9625,-299.775,-27.37
1409,312233,0.477508,-0.477508,-0.7986121,-11.4625,-320.4775,-18.2175
1410,312330,0.5124001,-0.31646799999999997,-0.752496,-10.1675,-336.35,-2.3625
1411,312426,0.583648,-0.23838800000000002,-0.726388,7.7875,-347.0075,17.7625
1412,312522,0.715164,-0.248148,-0.727608,30.6425,-353.3425,38.5525
1413,312618,0.8230120999999999,-0.299632,-0.74664,47.0575,-359.6425,55.93
1414,312715,0.9354959999999999,-0.305732,-0.8147161,52.7275,-365.3475,68.1625
1415,312811,1.11874,-0.267912,-0.9289081,52.5525,-369.95,77.105
1416,312907,1.311744,-0.256932,-1.026508,53.7425,-377.125,84.07001
1417,313003,1.448872,-0.323544,-1.075796,56.3325,-387.5725,89.88
1418,313100,1.5677,-0.361852,-1.1346,55.7375,-396.3575,95.26999
1419,313196,1.7916919999999998,-0.43334399999999995,-1.257332,54.7575,-400.715,102.865
1420,313292,2.096448,-0.5499761,-1.365912,54.495,-403.4975,113.5575
1421,313388,2.387052,-0.6707561,-1.386408,49.3325,-406.9625,128.45
1422,313484,2.6825360000000003,-0.7991,-1.271484,37.695,-407.3125,146.0725
1423,313581,2.961672,-0.8866961,-1.0467600000000001,19.25,-402.7625,164.85
1424,313677,3.162728,-0.7944641,-0.7564001,-4.025,-392.1575,183.54
1425,313773,3.22568,-0.272548,-0.444324,-18.4975,-373.1175,201.3375
1426,313869,3.357196,0.125416,-0.0034159999999999998,2.3975,-339.675,221.13
1427,313966,3.476024,0.19983599999999999,0.614392,46.4275,-293.1075,233.17
1428,314062,3.4118519999999997,0.144204,1.337364,68.985,-240.5025,228.7425
1429,314158,3.2798480000000003,0.34404,1.923452,48.7375,-187.4425,201.5825
1430,314254,3.6246199999999997,0.9293961,2.29482,19.7225,-128.7825,161.42
1431,314351,3.619496,1.154608,2.84992,25.795,-73.4125,119.875
1432,314447,2.864804,1.0140639999999999,2.9319040000000003,37.24,-24.185,66.2725
1433,314543,1.836344,-0.5463161,2.33264,27.125,56.28,12.565
1434,314639,-0.277428,-0.6373281,2.12036,-147.2625,221.83,-29.365
1435,314736,0.20252,0.331596,-2.495876,-268.1525,277.9175,-137.865
1436,314832,1.15412,1.3005200000000001,-0.8674200000000001,-158.41,305.585,-50.2425
1437,314928,2.180628,0.557052,-1.6775,-19.2325,344.5925,70.385
1438,315024,2.063752,2.163792,-1.9705439999999999,-14.49,318.64,38.4475
1439,315121,1.436672,1.164612,-1.22,31.99,259.21,7.6475
1440,315217,1.6738400000000002,-0.542656,-1.2505,63.07,240.8175,-35.4025
1441,315313,3.4687040000000002,-2.737192,-1.670668,51.6425,228.2,-59.045
1442,315409,1.055788,-0.302072,-0.71004,-67.5325,110.6875,-72.765
1443,315505,1.050176,1.180472,-1.582096,-95.09501,18.27,-61.7925
1444,315602,1.44082,-0.792024,-0.9054840000000001,-24.045,87.2375,-46.095
1445,315698,0.478484,-0.024156,-0.8169121,-41.8075,-5.53,-33.285
1446,315794,0.8954801,-0.054655999999999996,-0.966484,-37.555,7.91,-31.0975
1447,315890,0.5987760999999999,-0.133224,-0.7993439999999999,-19.6875,1.54,-21.8575
1448,315987,0.654652,-0.116632,-0.8261841000000001,-16.2925,0.175,-17.22
1449,316083,0.621712,-0.11028800000000001,-0.796416,-10.8675,0.5425,-14.2975
1450,316179,0.6451359999999999,-0.060024,-0.831308,-8.3475,0.735,-11.41
1451,316275,0.621712,-0.09052401,-0.81862,-2.8875,1.085,-7.7175
1452,316372,0.6414761,-0.09052401,-0.8169121,0.5775,2.3975,-4.97
1453,316468,0.6034121,-0.126392,-0.797148,3.64,2.625,-2.6075
1454,316564,0.569984,-0.151036,-0.769332,4.3575,3.255,-2.2575
1455,316660,0.55998,-0.181536,-0.7549359999999999,2.03,3.99,-4.3575
1456,316757,0.5504641,-0.215452,-0.743712,-1.96,4.445,-7.455
1457,316853,0.5787680000000001,-0.20447200000000001,-0.752008,-6.86,5.11,-10.9375
1458,316949,0.603168,-0.161772,-0.762988,-10.325,4.725,-12.7925
1459,317045,0.617564,-0.14152,-0.77104,-11.2875,4.2175,-12.46
1460,317141,0.613416,-0.131028,-0.7673800000000001,-11.9875,3.2725,-11.6725
1461,317238,0.622688,-0.122976,-0.785192,-12.0225,3.9725,-11.0075
1462,317334,0.638792,-0.10418800000000002,-0.7869,-10.6225,3.815,-9.38
1463,317430,0.6273241,-0.10540799999999999,-0.7795801,-7.385,4.585,-6.5975
1464,317526,0.607804,-0.10931199999999999,-0.785192,-4.3225,3.955,-4.095
1465,317623,0.6082920999999999,-0.1159,-0.7759199999999999,-3.36,5.9675,-3.5175
1466,317719,0.6156119999999999,-0.118828,-0.769576,-2.73,7.0,-3.2375
1467,317815,0.6070720000000001,-0.125904,-0.7700640999999999,-2.555,7.6475,-2.3975
1468,317911,0.5978,-0.14152,-0.777628,-2.2925,8.8025,-2.0125
1469,318008,0.607316,-0.11345999999999999,-0.7793359999999999,-1.54,10.57,-2.6775
1470,318104,0.6182960999999999,-0.1159,-0.776408,1.2775,12.285,-4.69
1471,318200,0.568276,-0.069052,-0.8169121,4.6375,12.915,-7.385
1472,318296,0.595116,-0.091988,-0.775676,10.5875,16.8175,-13.265
1473,318393,0.603168,-0.087352,-0.8039801,17.3775,25.41,-18.06
1474,318489,0.599264,-0.118584,-0.770308,23.94,27.58,-22.9775
1475,318585,0.614636,-0.09784401,-0.7854361,28.77,36.7325,-25.6725
1476,318681,0.61732,-0.104676,-0.7829961,32.69,42.3325,-26.9325
1477,318778,0.604144,-0.09979600000000001,-0.789828,31.57,48.3525,-23.6075
1478,318874,0.6182960999999999,-0.106628,-0.802272,28.385,58.2925,-18.3575
1479,318970,0.6156119999999999,-0.086864,-0.7903161,24.115,66.1675,-12.565
1480,319066,0.621468,-0.07612801,-0.7978801,20.23,74.9,-6.405
1481,319163,0.604144,-0.07222401,-0.8164239999999999,17.85,84.91,-0.5425
1482,319259,0.582184,-0.077836,-0.854244,19.0575,96.7575,2.66
1483,319355,0.54656,-0.153232,-0.824232,21.7175,114.4325,3.78
1484,319451,0.546072,-0.153232,-0.8247200000000001,23.1,138.4075,1.225
1485,319548,0.544608,-0.152988,-0.8100801,23.135,165.6725,-3.325
1486,319644,0.522648,-0.147376,-0.80642,20.685,198.8175,-9.0475
1487,319740,0.5614439999999999,-0.164212,-0.8020281,17.815,240.3275,-16.8525
1488,319836,0.6058520000000001,-0.129076,-0.797392,17.78,289.6425,-23.17
1489,319932,1.1004399999999999,-0.22106399999999998,-1.2322,17.0975,318.325,-25.76
1490,320029,1.0431,-0.207156,-1.0443200000000001,16.975,220.6925,-25.6375
1491,320125,1.01016,-0.357216,-1.077748,69.1075,306.81,-23.3625
1492,320221,1.6204040000000002,-0.50142,-1.361276,102.0425,376.495,-34.6325
1493,320317,1.691652,-0.541924,-1.485472,114.7125,438.795,-60.27
1494,320414,1.576972,-0.578036,-1.578436,110.6875,468.79,-89.285
1495,320510,2.077904,-0.534116,-1.582584,107.2225,506.625,-121.9925
1496,320606,1.5525719999999998,-0.538752,-1.9773759999999998,101.2725,572.11,-140.98
1497,320702,1.7943759999999997,-0.671732,-2.4827,102.165,548.3275,-151.165
1498,320799,0.11760799999999999,-0.13054000000000002,-2.314584,110.985,391.8075,-140.3325
1499,320895,2.1713560000000003,0.162748,-2.05692,189.2625,374.9375,-145.4775
1500,320991,4.385168,-1.471076,-4.227787999999999,205.8525,300.0725,-145.0575
1501,321087,1.7687560000000002,-1.731912,-2.972408,121.625,-65.3275,-74.3225
1502,321184,-0.556808,-1.330532,-1.3947040000000002,27.72,-215.39,-58.2925
1503,321280,-0.696376,-0.62952,-0.8679081,-49.0875,-209.51,-68.46
1504,321376,-0.280844,-0.19032000000000002,-0.841556,-67.4275,-169.0325,-72.66
1505,321472,0.08759601,-0.116388,-0.9769760000000001,-33.3375,-166.7575,-52.57
1506,321569,0.26303200000000004,-0.352092,-1.035048,15.015,-189.7,-19.705
1507,321665,0.328912,-0.615124,-0.9906401,39.62,-221.34,7.56
1508,321761,0.34794400000000003,-0.661728,-0.9228081,29.61,-252.4025,23.3275
1509,321857,0.36112,-0.5084960000000001,-0.8447280999999999,5.355,-278.67,32.0075
1510,321953,0.41504399999999997,-0.294752,-0.812032,-8.645,-297.5175,39.7425
1511,322050,0.47506800000000005,-0.14713199999999999,-0.783728,-3.3425,-311.5525,49.8575
1512,322146,0.537532,-0.100284,-0.7522521,14.2625,-323.12,61.3375
1513,322242,0.644648,-0.12444000000000001,-0.754204,32.3575,-331.065,70.8575
1514,322338,0.7617681,-0.17324,-0.7822640000000001,43.015,-337.995,76.8775
1515,322435,0.871568,-0.177876,-0.8410681000000001,44.5725,-345.695,79.0475
1516,322531,1.022848,-0.148352,-0.9298841,42.6475,-353.5,78.9425
1517,322627,1.2141440000000001,-0.149816,-1.009184,43.9775,-362.705,78.0675
1518,322723,1.307352,-0.227408,-1.030656,47.1275,-375.8475,77.21
1519,322820,1.39324,-0.290604,-1.0565200000000001,47.39,-385.84,77.0
1520,322916,1.50426,-0.3111,-1.136064,46.48,-390.4775,79.7825
1521,323012,1.6928720000000002,-0.387716,-1.236836,49.35,-389.97,87.15
1522,323108,1.9659080000000002,-0.530212,-1.3351680000000001,51.835,-386.505,98.2275
1523,323205,2.298968,-0.6480640000000001,-1.3644479999999999,47.705,-382.13,112.07
1524,323301,2.697176,-0.8042239999999999,-1.297348,37.415,-377.9825,129.7975
1525,323397,2.98778,-0.955992,-1.092632,17.7625,-375.4625,149.765
1526,323493,3.121248,-0.847412,-0.7617681,-11.3925,-370.4575,166.53
1527,323590,3.1168560000000003,-0.354288,-0.363316,-28.9625,-354.1125,181.37
1528,323686,3.224216,0.08344800000000001,0.100284,-8.4175,-319.7775,200.4275
1529,323782,3.2957080000000003,0.16909200000000002,0.720532,39.48,-271.5475,217.2625
1530,323878,3.2244599999999997,0.147376,1.325164,66.815,-219.9575,219.52
1531,323975,3.1707799999999997,0.44115200000000004,1.772172,52.5525,-167.4575,201.425
1532,324071,3.52092,0.9618481,2.1874599999999997,28.0875,-111.615,170.1175
1533,324167,3.266916,1.181692,2.6993720000000003,26.5825,-63.385,127.225
1534,324263,2.589328,1.105808,2.6632599999999997,27.895,-11.34,63.8925
1535,324359,1.3729879999999999,0.07808001,1.4844959999999998,28.1225,70.4375,-1.47
1536,324456,-0.20618000000000003,-1.3083280000000002,2.543456,-102.27,182.9975,-39.34
1537,324552,0.07173600000000001,0.945256,-2.42292,-257.5475,281.5225,-146.3875
1538,324648,1.0614,1.2658719999999999,-1.047492,-153.125,287.4025,-79.2575
1539,324744,2.118652,0.007076001,-1.4752239999999999,-3.2375,350.175,50.505
1540,324841,2.1313400000000002,1.760704,-1.986648,-14.315,314.1425,22.82
1541,324937,1.428132,1.000644,-1.134356,22.995,252.595,7.7525
1542,325033,1.5372,-0.138104,-1.260748,53.41,235.165,-24.8325
1543,325129,2.3067759999999997,-2.334836,-1.519388,56.4025,218.295,-42.735
1544,325226,1.981768,-0.935008,-0.798856,-33.9325,163.2575,-84.08751
1545,325322,0.9028,1.1807159999999999,-1.518656,-94.71,7.2275,-63.1925
1546,325418,1.38226,-0.3538,-0.9318360000000001,-35.84,75.7225,-51.4325
1547,325514,0.465796,-0.359656,-0.679296,-32.1825,-8.925,-28.8575
1548,325611,0.8888921000000001,0.060267999999999995,-1.01626,-37.5025,8.6975,-29.855
1549,325707,0.599996,-0.21276799999999998,-0.7598161,-18.935,-0.63,-21.5775
1550,325803,0.642696,-0.07417601,-0.84546,-16.31,-1.26,-17.185
1551,325899,0.634156,-0.13761600000000002,-0.782752,-10.3775,-0.0875,-14.7175
1552,325996,0.638548,-0.07490801,-0.8215481,-8.855,-0.805,-12.67
1553,326092,0.619516,-0.09418401,-0.8115439999999999,-5.7925,-1.505,-10.2025
1554,326188,0.6265921,-0.09418401,-0.805688,-3.6575,-0.3675,-8.3825
1555,326284,0.601704,-0.106628,-0.797392,-1.89,0.4025,-6.5975
1556,326381,0.577304,-0.135908,-0.7808001,-1.3825,0.9975,-5.915
1557,326477,0.5736441,-0.156404,-0.7673800000000001,-2.5375,2.52,-6.86
1558,326573,0.576572,-0.19154000000000002,-0.75884,-4.4975,4.305,-8.155
1559,326669,0.5726680000000001,-0.21228000000000002,-0.7610359999999999,-6.5625,5.53,-9.625
1560,326766,0.619272,-0.161772,-0.772992,-8.4,5.845,-10.9725
1561,326862,0.6351319999999999,-0.106628,-0.8030041,-8.6275,5.005,-10.57
1562,326958,0.613416,-0.134444,-0.769576,-6.1425,3.85,-7.7
1563,327054,0.606096,-0.110044,-0.782752,-4.3575,4.0425,-5.495
1564,327150,0.604632,-0.12078,-0.782752,-4.2525,5.0225,-4.5325
1565,327247,0.61122,-0.115656,-0.7832399999999999,-3.5525,7.3675,-3.5
1566,327343,0.610244,-0.11248399999999999,-0.779824,-3.2025,8.0325,-2.8525
1567,327439,0.6131721,-0.118096,-0.777628,-2.4325,9.415,-2.6425
1568,327536,0.604144,-0.128832,-0.778116,-2.0475,10.0275,-2.135
1569,327632,0.609024,-0.126392,-0.7712840999999999,-2.1525,10.955,-1.645
1570,327728,0.6068279999999999,-0.131028,-0.780068,-1.855,13.51,-0.9975
1571,327824,0.6068279999999999,-0.115168,-0.782752,-1.89,13.79,-0.5425
1572,327920,0.581208,-0.075396,-0.805932,-0.9625,16.31,-0.6825
1573,328017,0.6036560999999999,-0.08784,-0.7998321,3.885,23.205,-3.745
1574,328113,0.590968,-0.081252,-0.79178,6.685,27.8075,-4.235
1575,328209,0.603168,-0.10638399999999999,-0.779092,9.765,33.7575,-4.585
1576,328305,0.60878,-0.11028800000000001,-0.7732359999999999,11.41,41.0725,-4.2175
1577,328402,0.604876,-0.096868,-0.7983680000000001,13.86,47.3725,-4.8475
1578,328498,0.6197600000000001,-0.094672,-0.781776,14.8925,53.5325,-4.6375
1579,328594,0.630008,-0.07490801,-0.788852,16.275,60.235,-3.3775
1580,328690,0.6439159999999999,-0.087352,-0.760304,16.8175,65.555,-0.14
1581,328787,0.6541640000000001,-0.09150001,-0.76372,17.955,71.1025,2.2225
1582,328883,0.649284,-0.10906800000000001,-0.7407841,19.95,75.1275,3.3775
1583,328979,0.6463561,-0.11321600000000001,-0.7517640999999999,21.805,81.69001,4.62
1584,329075,0.627568,-0.14347200000000002,-0.759084,23.345,90.1075,5.9675
1585,329172,0.5926760999999999,-0.15128,-0.794952,23.135,101.5875,6.335
1586,329268,0.574864,-0.178608,-0.805688,23.1525,119.98,5.495
1587,329364,0.5787680000000001,-0.18666,-0.780068,21.7875,142.2575,1.61
1588,329460,0.58072,-0.172264,-0.781776,19.1625,169.4175,-3.5875
1589,329557,0.58194,-0.172996,-0.797392,14.98,201.2325,-9.52
1590,329653,0.61488,-0.15176800000000001,-0.8376520000000001,9.205,240.73,-15.9075
1591,329749,1.436916,-0.360388,-1.19804,4.4275,280.2625,-19.775
1592,329845,0.8808401,-0.167628,-0.9823440999999999,-11.6725,205.275,-22.19
1593,329942,0.942816,-0.248148,-1.1411879999999999,25.585,258.7025,-24.7975
1594,330038,1.277096,-0.420412,-1.3468799999999999,75.4775,323.2425,-27.1425
1595,330134,1.603568,-0.5248441,-1.389092,101.745,394.625,-45.4825
1596,330230,1.587464,-0.605608,-1.562576,103.6,446.2675,-73.675
1597,330327,2.020076,-0.5702281,-1.2141440000000001,95.02501,467.7575,-106.8025
1598,330423,1.8226799999999999,-0.5368,-1.8109680000000001,85.505,547.1025,-137.0425
1599,330519,2.0708279999999997,-0.752984,-2.4746479999999997,89.0925,571.7249,-150.15
1600,330615,1.21268,-0.558028,-2.621048,69.44,458.115,-156.17
1601,330712,0.140544,1.00406,-1.110932,98.7,324.31,-143.8675
1602,330808,4.371748,-0.386252,-4.330268,151.7075,363.125,-187.3725
1603,330904,2.323124,-1.1087360000000002,-3.466508,154.4025,61.9675,-125.4575
1604,331000,0.014152000000000001,-1.348344,-1.957368,119.1925,-127.5225,-85.4525
1605,331097,-0.528748,-0.9269561,-1.1951120000000002,60.1825,-163.73,-78.435
1606,331193,-0.21447600000000003,-0.6348881,-1.05408,22.68,-139.8425,-75.985
1607,331289,0.09028,-0.504592,-1.116056,18.4625,-141.3475,-58.66
1608,331385,0.202276,-0.5614439999999999,-1.130452,31.15,-168.525,-29.3825
1609,331482,0.159576,-0.640012,-1.016016,38.2375,-201.5825,-1.5925
1610,331578,0.134444,-0.6021920000000001,-0.9125601000000001,31.1325,-229.4425,18.2875
1611,331674,0.21081599999999998,-0.489464,-0.861808,20.2125,-248.85,32.34
1612,331770,0.2806,-0.364536,-0.8249639999999999,15.47,-265.755,45.4125
1613,331866,0.38308000000000003,-0.286456,-0.828624,19.0225,-281.155,59.9725
1614,331963,0.506544,-0.256444,-0.844484,27.02,-295.7325,75.845
1615,332059,0.569984,-0.225456,-0.8271601000000001,32.55,-312.3925,90.755
1616,332155,0.63318,-0.159332,-0.8308200000000001,34.23,-326.375,101.85
1617,332251,0.733708,-0.077348,-0.8781559999999999,35.525,-336.4025,107.8525
1618,332348,0.873276,-0.007808001,-0.9679481,39.34,-344.9075,109.34
1619,332444,1.066524,0.011468,-1.08336,46.305,-353.29,107.485
1620,332540,1.262456,-0.02196,-1.158512,53.6025,-365.1725,102.445
1621,332637,1.4112959999999999,-0.12761199999999998,-1.213168,57.505,-379.6625,94.37751
1622,332733,1.547936,-0.191052,-1.2749,55.44,-392.5075,85.505
1623,332829,1.678232,-0.21008400000000002,-1.347856,52.5525,-401.87,81.2
1624,332925,1.8707479999999999,-0.323056,-1.408124,55.4225,-405.475,83.16001
1625,333021,2.147688,-0.50142,-1.449116,58.38,-403.5325,90.21251
1626,333118,2.531988,-0.705892,-1.4191040000000001,54.88,-398.5975,102.305
1627,333214,2.916532,-0.9398880999999999,-1.265628,41.6325,-394.1175,118.405
1628,333310,3.114416,-0.9772200999999999,-0.984296,16.03,-390.1975,135.5725
1629,333406,3.2939999999999996,-0.729072,-0.660996,-6.3,-376.6,151.795
1630,333503,3.3794,-0.15762400000000001,-0.246196,-2.17,-351.5225,169.82
1631,333599,3.4240519999999997,0.20837600000000003,0.383324,42.8575,-312.97,195.0025
1632,333695,3.367688,0.223992,1.143628,98.5075,-260.995,217.07
1633,333791,3.2876559999999997,0.334036,1.7624119999999999,112.0,-201.67,224.1225
1634,333888,3.7607720000000002,0.60878,2.297748,84.525,-136.7975,216.3
1635,333984,3.7024559999999997,0.889624,3.097824,45.8325,-81.39251,188.1075
1636,334080,2.689612,1.212924,3.090016,-1.0325,-34.685,121.0125
1637,334176,2.528816,1.026752,2.232112,-11.55,62.09,40.18
1638,334272,1.285392,-1.707512,1.030656,-20.3525,138.46,-14.35
1639,334369,-0.027083999999999997,-0.30548800000000004,-0.78446,-225.5925,239.6275,-60.0425
1640,334465,-0.3355,0.21276799999999998,-0.649284,-271.9325,263.83,-129.43
1641,334561,0.846924,1.437892,-0.662704,-193.8475,306.355,-67.3575
1642,334657,3.1024599999999998,1.06628,-2.312388,-29.5575,404.7925,38.8675
1643,334754,1.510604,1.902712,-1.253428,-14.7525,298.2875,31.15
1644,334850,1.7265439999999999,0.61488,-1.390312,31.9375,278.0225,-15.89
1645,334946,2.171112,-1.412028,-1.426668,51.415,259.035,-56.175
1646,335042,3.3776919999999997,-1.738256,-0.9823440999999999,1.3825,218.2775,-91.2275
1647,335139,0.8315520000000001,0.8957241,-1.2561120000000001,-103.215,52.395,-79.905
1648,335235,1.578436,0.5267960999999999,-1.2968600000000001,-69.965,59.0975,-63.945
1649,335331,0.726144,-0.7622561,-0.645868,-16.52,35.6825,-27.615
1650,335427,0.7639640999999999,0.22667600000000002,-1.016748,-43.3475,-8.4525,-28.7
1651,335523,0.768112,-0.22106399999999998,-0.815692,-17.5175,15.9425,-21.14
1652,335620,0.612684,-0.06490399999999999,-0.8418,-14.2275,-5.1975,-14.5075
1653,335716,0.634644,-0.200568,-0.7625,-6.755,3.7975,-11.97
1654,335812,0.615368,-0.050508,-0.826428,-7.7175,-1.3125,-11.48
1655,335908,0.6107319999999999,-0.10614000000000001,-0.800808,-3.675,0.735,-9.38
1656,336005,0.6131721,-0.09418401,-0.8066641,-1.5225,1.3125,-7.8225
1657,336101,0.6222,-0.091988,-0.8147161,0.1925,2.5375,-6.65
1658,336197,0.6068279999999999,-0.122732,-0.787144,2.24,3.2375,-5.25
1659,336293,0.587796,-0.14005599999999999,-0.771528,2.1,3.92,-5.005
1660,336390,0.5787680000000001,-0.170312,-0.765672,0.315,4.7775,-6.09
1661,336486,0.573156,-0.188612,-0.7598161,-2.0125,5.705,-8.085
1662,336582,0.5892601,-0.180316,-0.760304,-4.76,6.72,-9.975
1663,336678,0.619272,-0.14762,-0.769332,-6.8425,7.1925,-11.165
1664,336775,0.662948,-0.080276,-0.813008,-7.0525,6.1775,-10.185
1665,336871,0.6158561,-0.134688,-0.769088,-4.2525,5.0225,-6.8425
1666,336967,0.6224441,-0.119072,-0.775676,-3.2375,4.725,-5.5825
1667,337063,0.621712,-0.12053599999999999,-0.7734800000000001,-2.8,5.53,-4.3575
1668,337160,0.620492,-0.10809200000000001,-0.771772,-2.17,5.8625,-3.325
1669,337256,0.621224,-0.11467999999999999,-0.772748,-1.2425,6.72,-2.9225
1670,337352,0.6156119999999999,-0.11712,-0.7734800000000001,-0.35,6.93,-2.6775
1671,337448,0.61366,-0.125416,-0.768844,0.105,7.7875,-2.52
1672,337545,0.612684,-0.12712400000000001,-0.774456,0.245,8.715,-2.38
1673,337641,0.6082920999999999,-0.12980799999999998,-0.7771399999999999,0.525,10.115,-2.1
1674,337737,0.6070720000000001,-0.107848,-0.777384,1.26,11.8825,-2.1175
1675,337833,0.584868,-0.08296,-0.798856,2.6775,14.035,-3.43
1676,337930,0.6080479999999999,-0.094672,-0.796172,6.2125,20.3525,-5.1625
1677,338026,0.594384,-0.091012,-0.7978801,9.3275,25.41,-5.215
1678,338122,0.598288,-0.104432,-0.7937320999999999,13.1075,31.08,-5.775
1679,338218,0.6034121,-0.091012,-0.803736,15.05,37.205,-5.6175
1680,338315,0.61366,-0.096624,-0.793244,16.6775,43.1375,-4.935
1681,338411,0.623664,-0.10492,-0.768112,17.0975,47.845,-2.835
1682,338507,0.614392,-0.101504,-0.7849480999999999,18.1825,55.6675,-0.4025
1683,338603,0.612928,-0.111996,-0.7849480999999999,19.0225,62.51,1.0325
1684,338700,0.624152,-0.118828,-0.787632,21.0175,71.26,1.4875
1685,338796,0.634644,-0.090768,-0.792512,23.5025,79.38,1.8025
1686,338892,0.62342,-0.102968,-0.784704,25.515,88.48001,3.22
1687,338988,0.5897479999999999,-0.14469200000000002,-0.809836,27.0375,100.415,4.375
1688,339085,0.574132,-0.122,-0.813984,28.2275,117.495,4.3225
1689,339181,0.5602239999999999,-0.177876,-0.7869,28.945,139.9475,3.7275
1690,339277,0.5673,-0.14005599999999999,-0.781532,28.8225,166.1625,0.8225
1691,339373,0.550952,-0.11614400000000001,-0.7937320999999999,28.5075,198.3275,-2.1525
1692,339470,0.536068,-0.128832,-0.815204,26.18,238.665,-4.305
1693,339566,1.004792,-0.202032,-0.9511120000000001,25.375,289.0125,-7.385
1694,339662,0.545096,-0.026595999999999998,-1.07726,12.18,249.935,-6.055
1695,339758,0.82594,-0.27523200000000003,-1.121424,24.22,224.7,-4.4625
1696,339855,1.095072,-0.28914,-1.0736,76.685,305.725,-1.6275
1697,339951,1.584292,-0.5282600000000001,-1.463268,132.1775,394.3625,-3.6925
1698,340047,1.874408,-0.576084,-1.555012,146.1775,462.875,-33.635
1699,340143,1.81292,-0.6263479999999999,-1.352248,141.855,483.3325,-65.7825
1700,340240,2.113772,-0.599264,-1.567456,141.6275,528.64,-100.94
1701,340336,1.488644,-0.55632,-2.1374400000000002,142.8,573.37,-113.9075
1702,340432,1.7450880000000002,-0.7829961,-2.5049040000000002,155.925,540.7325,-123.445
1703,340528,-0.252784,0.136884,-2.100352,171.7975,358.6625,-125.8075
1704,340625,2.642276,-0.06075601,-2.834548,235.8825,367.15,-167.3875
1705,340721,3.992572,-1.674816,-4.0013559999999995,221.935,252.98,-182.84
1706,340817,1.6804279999999998,-1.6857959999999999,-2.9260479999999998,119.6125,-93.625,-134.75
