,T,ax,ay,az,gx,gy,gz
0,9392054,0.9351299999999999,0.004148001,-0.14798599999999998,18.7075,-16.73,-14.8925
1,9392210,0.9230520000000001,0.021106,-0.24156,-4.4275,5.7225,-139.23
2,9392308,0.956968,0.003782,-0.249734,-80.9375,27.6675,-270.2175
3,9392406,0.9372040999999999,-0.010126000000000001,-0.2562,12.7925,-92.3125,-87.53501
4,9392504,0.9484280999999999,-0.019886,-0.266326,-3.9025,-11.8125,-9.7125
5,9392602,0.968558,-0.020984,-0.29682600000000003,-7.6125,-6.0725,-5.0925
6,9392700,1.005524,-0.008662000999999999,-0.335744,-9.0825,-11.3925,-4.62
7,9392797,1.0208959999999998,-0.023058000000000002,-0.368684,-7.5775,-24.43,-3.3775
8,9392895,1.064816,-0.017324000000000003,-0.401136,-9.4325,-41.0375,-2.03
9,9392993,1.026142,0.018056,-0.441396,-10.5175,-69.16,-0.14
10,9393091,0.9112181,0.03294,-0.406016,-2.9225,-97.755,1.5575
11,9393189,0.8103239999999999,0.02074,-0.258396,5.1625,-106.89,1.89
12,9393287,0.8202060999999999,0.038186000000000005,-0.158356,4.2525,-88.34000999999999,0.5425
13,9393385,0.9581881,-0.035136,0.161162,0.6475,-60.3925,-1.61
14,9393483,0.901336,0.02501,0.012444,-7.6475,-33.5125,-2.24
15,9393581,0.924882,-0.002318,-0.21838000000000002,-2.205,-8.5225,-4.06
16,9393678,0.9801479999999999,-0.010736,-0.35782600000000003,0.14,6.1075,-5.11
17,9393776,0.9861260000000001,-0.0034159999999999998,-0.391376,0.6475,0.9275,-4.585
18,9393874,0.972218,0.007442,-0.352092,-0.14,-8.3475,-3.955
19,9393972,0.9451341000000001,0.013297999999999999,-0.30792800000000004,-1.2075,-13.615,-3.7975
20,9394070,0.924638,0.015982,-0.288896,-1.6975,-13.825,-4.06
21,9394168,0.9198799999999999,0.011834,-0.288286,-1.61,-11.34,-4.5325
22,9394266,0.927688,0.005734,-0.302316,-1.61,-8.6625,-4.9875
23,9394364,0.9357401,0.0034159999999999998,-0.31598000000000004,-1.3125,-7.98,-5.04
24,9394461,0.9396440999999999,0.0032939999999999996,-0.31598000000000004,-0.8575,-9.3625,-4.83
25,9394559,0.9408639999999999,0.005246,-0.309514,-0.2275,-10.815,-4.62
26,9394657,0.9406200000000001,0.006954000000000001,-0.304268,0.315,-11.1125,-4.305
27,9394755,0.9419620999999999,0.007442,-0.30134,0.6125,-10.57,-4.2175
28,9394853,0.9446460999999999,0.005734,-0.30012,0.665,-10.15,-4.2
29,9394951,0.9484280999999999,0.002318,-0.298168,0.8225,-10.465,-4.2175
30,9395049,0.9480620000000001,0.002318,-0.293898,1.2425,-10.9025,-4.1125
31,9395147,0.945256,0.003904,-0.29219,1.61,-11.0075,-4.165
32,9395245,0.9435479999999999,0.00427,-0.28926199999999996,1.96,-10.36,-4.3225
33,9395342,0.9396440999999999,0.00061,-0.28853,1.995,-9.8875,-4.655
34,9395440,0.935984,-0.003782,-0.292312,1.89,-9.5375,-4.8475
35,9395538,0.9356180000000001,-0.0035380000000000003,-0.29768,1.855,-9.45,-5.0575
36,9395636,0.9337880999999999,-0.002074,-0.298168,2.1525,-9.5725,-5.18
37,9395734,0.930982,-0.0017079999999999999,-0.29987600000000003,2.24,-9.73,-5.215
38,9395832,0.927322,-0.001464,-0.29829,2.3625,-9.4325,-5.285
39,9395930,0.9263459999999999,-0.003172,-0.2989,2.3625,-8.68,-5.32
40,9396028,0.9264680000000001,-0.002684,-0.299632,2.135,-7.945,-5.2325
41,9396126,0.9275661000000001,-0.005002,-0.299754,1.96,-7.1225,-5.1275
42,9396223,0.93269,-0.0051240009999999996,-0.29951,1.7325,-6.545,-5.04
43,9396321,0.9368380999999999,-0.0064659999999999995,-0.29951,1.5925,-6.09,-5.0225
44,9396419,0.9379360000000001,-0.006832001,-0.296948,1.365,-5.95,-4.97
45,9396517,0.9398880999999999,-0.0061,-0.298534,1.12,-5.95,-4.935
46,9396615,0.9398880999999999,-0.007442,-0.29707,1.1025,-5.95,-4.795
47,9396713,0.942572,-0.007442,-0.294508,1.2775,-5.95,-4.8475
48,9396811,0.942816,-0.009150001,-0.29438600000000004,1.2075,-5.6525,-5.005
49,9396909,0.94245,-0.009150001,-0.29426399999999997,1.085,-5.6175,-5.075
50,9397007,0.9440360999999999,-0.009272001,-0.29365399999999997,0.735,-5.705,-5.0575
51,9397105,0.9444020000000001,-0.008174001,-0.295606,0.49,-5.7225,-5.11
52,9397202,0.9450120000000001,-0.008174001,-0.295362,0.21,-5.6875,-5.04
53,9397300,0.94245,-0.008540001,-0.29792399999999997,0.0875,-5.6875,-5.075
54,9397398,0.9403761,-0.009882,-0.299754,-0.035,-5.67,-4.9175
55,9397496,0.9383020000000001,-0.009516001,-0.30109600000000003,-0.21,-5.6,-4.8825
56,9397594,0.9356180000000001,-0.010248,-0.302804,-0.2275,-5.495,-4.8825
57,9397692,0.9337880999999999,-0.008906,-0.30292600000000003,-0.21,-5.5125,-4.795
58,9397790,0.9347639999999999,-0.008784,-0.30317,-0.175,-5.775,-4.7425
59,9397888,0.936472,-0.008418,-0.302316,-0.2275,-5.7225,-4.585
60,9397986,0.9368380999999999,-0.007564001,-0.30048600000000003,-0.2625,-5.6175,-4.4975
61,9398083,0.9385460999999999,-0.009028000999999999,-0.301218,-0.315,-5.46,-4.6025
62,9398181,0.9381801,-0.005368,-0.30109600000000003,-0.5075,-5.4425,-4.515
63,9398279,0.9375700000000001,-0.00549,-0.302072,-0.665,-5.425,-4.585
64,9398377,0.936716,-0.005368,-0.302438,-0.7525,-5.5475,-4.7075
65,9398475,0.936594,-0.005612,-0.301584,-0.6825,-5.46,-4.83
66,9398573,0.9351299999999999,-0.005612,-0.303902,-0.735,-5.32,-4.8125
67,9398671,0.934154,-0.005978,-0.305122,-0.7875,-5.18,-4.76
68,9398769,0.935008,-0.00549,-0.302194,-0.8400001,-5.0575,-4.725
69,9398866,0.9333,-0.006832001,-0.30097399999999996,-1.0675,-5.005,-4.725
70,9398964,0.936594,-0.006587999999999999,-0.29877800000000004,-1.1025,-4.9,-4.5675
71,9399062,0.94001,-0.005978,-0.298534,-1.225,-4.725,-4.445
72,9399160,0.941108,-0.00671,-0.29829,-1.3125,-4.62,-4.445
73,9399258,0.9419620999999999,-0.006344,-0.29987600000000003,-1.435,-4.655,-4.41
74,9399356,0.9413520000000001,-0.004636001,-0.301462,-1.645,-4.76,-4.4975
75,9399454,0.9404981,-0.00366,-0.301462,-1.8725,-4.935,-4.48
76,9399552,0.9386681,-0.004636001,-0.302072,-2.0125,-4.9525,-4.3925
77,9399650,0.9378139999999999,-0.004514,-0.30353600000000003,-2.1525,-4.9525,-4.4275
78,9399748,0.9368380999999999,-0.00488,-0.302194,-2.24,-5.04,-4.48
79,9399845,0.9357401,-0.004636001,-0.303658,-2.345,-4.9525,-4.375
80,9399943,0.9352520000000001,-0.00427,-0.30475599999999997,-2.45,-4.97,-4.3225
81,9400041,0.9358620999999999,-0.002196,-0.303902,-2.485,-5.0575,-4.2875
82,9400139,0.937448,-0.00183,-0.303658,-2.4675,-5.1275,-4.1825
83,9400237,0.9403761,-0.0035380000000000003,-0.303048,-2.5025,-5.0225,-4.13
84,9400335,0.9408639999999999,-0.002928,-0.302072,-2.555,-5.0575,-4.13
85,9400433,0.9442801,-0.004514,-0.301218,-2.625,-5.1975,-4.27
86,9400531,0.9455,-0.004636001,-0.299388,-2.7125,-5.5475,-4.3925
87,9400629,0.9455,-0.005368,-0.29731399999999997,-2.73,-5.9325,-4.4275
88,9400727,0.9473301,-0.005002,-0.29707,-2.8,-6.3,-4.41
89,9400824,0.9450120000000001,-0.00488,-0.296582,-2.8175,-6.755,-4.34
90,9400922,0.944524,-0.0051240009999999996,-0.295484,-2.7125,-6.9475,-4.3575
91,9401020,0.9406200000000001,-0.004636001,-0.299266,-2.59,-6.9475,-4.2875
92,9401118,0.936472,-0.003904,-0.299998,-2.485,-6.7375,-4.1825
93,9401216,0.9357401,-0.004026,-0.302072,-2.415,-6.685,-4.0775
94,9401314,0.936472,-0.004392,-0.30341399999999996,-2.3275,-6.8075,-4.13
95,9401412,0.9378139999999999,-0.004026,-0.30475599999999997,-2.24,-6.8075,-4.13
96,9401510,0.9392780000000001,-0.003782,-0.30536599999999997,-2.2225,-6.825,-4.1825
97,9401608,0.9376921,-0.004392,-0.304146,-2.0125,-6.685,-4.165
98,9401705,0.9384239999999999,-0.003904,-0.30378,-1.96,-6.65,-4.1475
99,9401803,0.9375700000000001,-0.002684,-0.30353600000000003,-1.9075,-6.7025,-4.2525
100,9401901,0.9372040999999999,-0.004514,-0.303658,-1.7325,-6.615,-4.27
101,9401999,0.936472,-0.004636001,-0.303292,-1.61,-6.44,-4.4275
102,9402097,0.9351299999999999,-0.004148001,-0.305,-1.575,-6.3,-4.515
103,9402195,0.935008,-0.00305,-0.305244,-1.3825,-6.3175,-4.585
104,9402293,0.9353741,-0.0017079999999999999,-0.303658,-1.19,-6.195,-4.585
105,9402391,0.9354959999999999,-0.003172,-0.30182800000000004,-1.015,-6.37,-4.48
106,9402489,0.9375700000000001,-0.00244,-0.302072,-0.945,-6.4925,-4.55
107,9402587,0.9406200000000001,-0.00427,-0.30378,-0.8400001,-6.51,-4.69
108,9402685,0.9386681,-0.00366,-0.30134,-0.6825,-6.475,-4.725
109,9402782,0.9376921,-0.003172,-0.30182800000000004,-0.5425,-6.6675,-4.55
110,9402880,0.936716,-0.002806,-0.301584,-0.49,-6.6325,-4.62
111,9402978,0.93879,-0.004392,-0.301462,-0.5075,-6.4575,-4.6375
112,9403076,0.9412299999999999,-0.004636001,-0.302072,-0.4375,-6.37,-4.6025
113,9403174,0.942694,-0.005002,-0.30341399999999996,-0.35,-6.4925,-4.725
114,9403272,0.9423280999999999,-0.00488,-0.304634,-0.245,-6.65,-4.725
115,9403370,0.9403761,-0.005856,-0.305244,-0.14,-6.755,-4.7425
116,9403468,0.9383020000000001,-0.0051240009999999996,-0.30548800000000004,-0.14,-6.825,-4.7425
117,9403566,0.936106,-0.005246,-0.30561,-0.105,-6.86,-4.7775
118,9403663,0.935984,-0.005612,-0.304634,-0.2625,-6.7725,-4.62
119,9403761,0.9352520000000001,-0.005368,-0.305,-0.2975,-6.93,-4.6375
120,9403859,0.935984,-0.005246,-0.305732,-0.35,-7.0525,-4.445
121,9403957,0.935984,-0.00549,-0.30487800000000004,-0.385,-6.965,-4.41
122,9404055,0.934642,-0.0061,-0.30317,-0.4375,-7.07,-4.3925
123,9404153,0.9348860999999999,-0.006832001,-0.301706,-0.525,-7.0875,-4.3925
124,9404251,0.934276,-0.006344,-0.30402399999999996,-0.5075,-7.0,-4.4275
125,9404349,0.9358620999999999,-0.00671,-0.301706,-0.49,-6.8775,-4.48
126,9404447,0.9362280000000001,-0.007076001,-0.30353600000000003,-0.6125,-6.79,-4.4625
127,9404545,0.935008,-0.00549,-0.304512,-0.8400001,-6.5625,-4.585
128,9404643,0.9328120000000001,-0.006587999999999999,-0.302438,-0.875,-6.3525,-4.5675
129,9404740,0.933422,-0.0061,-0.304146,-1.015,-6.1775,-4.62
130,9404838,0.931958,-0.00671,-0.303658,-1.295,-6.1075,-4.55
131,9404936,0.9337880999999999,-0.005246,-0.30683,-1.505,-6.1775,-4.4625
132,9405034,0.93391,-0.0061,-0.306098,-1.645,-6.3525,-4.41
133,9405132,0.9345201,-0.005368,-0.30683,-1.68,-6.37,-4.3225
134,9405230,0.9351299999999999,-0.005734,-0.30439,-1.6625,-6.2125,-4.235
135,9405328,0.9348860999999999,-0.005978,-0.30317,-1.5925,-6.1425,-4.2525
136,9405426,0.9357401,-0.00549,-0.305122,-1.5575,-5.985,-4.2175
137,9405524,0.937326,-0.0064659999999999995,-0.303658,-1.5925,-5.9675,-4.2
138,9405621,0.9362280000000001,-0.0064659999999999995,-0.303902,-1.75,-5.845,-4.165
139,9405719,0.93696,-0.005368,-0.305,-1.8375,-5.6875,-4.165
140,9405817,0.936594,-0.004758,-0.307318,-1.8725,-5.6,-4.13
141,9405915,0.936716,-0.00488,-0.30707399999999996,-1.995,-5.6,-4.1125
142,9406013,0.93879,-0.005246,-0.30744,-2.1175,-5.7225,-4.2525
143,9406111,0.9368380999999999,-0.0061,-0.308782,-2.3275,-6.09,-4.27
144,9406209,0.936594,-0.007076001,-0.30744,-2.555,-6.405,-4.1475
145,9406307,0.9345201,-0.006344,-0.305122,-2.6075,-6.5625,-4.1475
146,9406405,0.9358620999999999,-0.005978,-0.30487800000000004,-2.555,-6.5975,-4.06
147,9406502,0.9343981,-0.00488,-0.30561,-2.485,-6.685,-3.99
148,9406600,0.9379360000000001,-0.0051240009999999996,-0.30548800000000004,-2.3625,-6.79,-3.885
149,9406698,0.9403761,-0.00488,-0.306342,-2.2575,-7.105,-3.71
150,9406796,0.9408639999999999,-0.005002,-0.308294,-2.24,-7.3675,-3.7625
151,9406894,0.942694,-0.003172,-0.307562,-2.275,-7.5425,-3.6925
152,9406992,0.9414741,-0.00427,-0.30744,-2.1525,-7.7875,-3.71
153,9407090,0.9385460999999999,-0.005978,-0.30622,-2.0825,-7.7875,-3.6925
154,9407188,0.937448,-0.005734,-0.307196,-2.0475,-7.8575,-3.7625
155,9407286,0.9381801,-0.004636001,-0.30988000000000004,-2.2225,-8.05,-3.7275
156,9407384,0.9381801,-0.005368,-0.309392,-2.24,-8.1025,-3.885
157,9407481,0.937448,-0.005612,-0.309026,-2.485,-8.0675,-3.7975
158,9407579,0.937326,-0.0051240009999999996,-0.31158800000000003,-2.5725,-7.9625,-3.9375
159,9407677,0.9375700000000001,-0.004514,-0.310246,-2.485,-8.015,-4.095
160,9407775,0.9356180000000001,-0.003782,-0.30988000000000004,-2.3625,-7.8925,-4.1125
161,9407873,0.9331780000000001,-0.004514,-0.311222,-2.205,-7.8925,-4.095
162,9407971,0.9320801,-0.00488,-0.311832,-2.1525,-8.015,-4.0775
163,9408069,0.9311040999999999,-0.003904,-0.3111,-1.9775,-8.015,-3.9375
164,9408167,0.9307380999999999,-0.00366,-0.309026,-1.75,-7.735,-3.9375
165,9408265,0.930616,-0.002806,-0.30853800000000003,-1.75,-7.5075,-3.92
166,9408362,0.9307380999999999,-0.0032939999999999996,-0.30744,-1.82,-7.1225,-3.9025
167,9408460,0.930494,-0.002318,-0.30622,-1.8025,-6.9125,-3.99
168,9408558,0.931226,-0.0032939999999999996,-0.307196,-1.715,-6.7375,-4.1825
169,9408656,0.9320801,-0.00488,-0.30792800000000004,-1.5925,-6.7725,-4.2525
170,9408754,0.9335440999999999,-0.005246,-0.309148,-1.5575,-6.8425,-4.3925
171,9408852,0.9354959999999999,-0.005246,-0.310734,-1.5925,-6.72,-4.445
172,9408950,0.9345201,-0.005978,-0.309148,-1.5925,-6.685,-4.375
173,9409048,0.9348860999999999,-0.005978,-0.30866,-1.5925,-6.58,-4.41
174,9409146,0.933666,-0.006954000000000001,-0.309148,-1.5925,-6.4575,-4.515
175,9409244,0.934642,-0.005612,-0.309392,-1.5925,-6.3,-4.5675
176,9409341,0.93269,-0.005246,-0.310002,-1.645,-6.09,-4.48
177,9409439,0.931226,-0.004514,-0.311222,-1.68,-5.95,-4.3575
178,9409537,0.931348,-0.004148001,-0.311832,-1.715,-5.845,-4.27
179,9409635,0.9333,-0.00427,-0.312198,-1.75,-5.775,-4.305
180,9409733,0.9337880999999999,-0.003904,-0.310856,-1.75,-5.81,-4.375
181,9409831,0.937326,-0.004514,-0.310734,-1.6975,-5.985,-4.41
182,9409929,0.9403761,-0.00488,-0.30988000000000004,-1.715,-6.23,-4.4275
183,9410027,0.941108,-0.005368,-0.308904,-1.505,-6.51,-4.515
184,9410125,0.9413520000000001,-0.004636001,-0.310246,-1.4175,-6.755,-4.6025
185,9410223,0.9381801,-0.00488,-0.309392,-1.5225,-7.0175,-4.4275
186,9410320,0.936106,-0.004392,-0.310368,-1.47,-6.9825,-4.5675
187,9410418,0.9356180000000001,-0.00427,-0.312808,-1.505,-6.895,-4.585
188,9410516,0.9343981,-0.00488,-0.314272,-1.6275,-6.7375,-4.5325
189,9410614,0.9347639999999999,-0.004758,-0.316346,-1.575,-6.6325,-4.515
190,9410712,0.93391,-0.005002,-0.315492,-1.505,-6.58,-4.48
191,9410810,0.9331780000000001,-0.00488,-0.31476,-1.3475,-6.755,-4.445
192,9410908,0.9324460999999999,-0.004514,-0.315492,-1.26,-6.7025,-4.515
193,9411006,0.9317141,-0.005002,-0.315004,-1.225,-6.5625,-4.48
194,9411104,0.930982,-0.005734,-0.31537,-1.19,-6.475,-4.4975
195,9411201,0.9297620999999999,-0.005978,-0.31537,-1.3125,-6.5275,-4.585
196,9411299,0.9302501,-0.005612,-0.31646799999999997,-1.4,-6.6325,-4.585
197,9411397,0.9296399999999999,-0.004636001,-0.317444,-1.5575,-6.51,-4.515
198,9411495,0.93086,-0.00549,-0.31463800000000003,-1.54,-6.4575,-4.41
199,9411593,0.9322021,-0.005734,-0.311954,-1.5925,-6.4575,-4.375
200,9411691,0.9335440999999999,-0.008540001,-0.313418,-1.6975,-6.4925,-4.4275
201,9411789,0.93391,-0.007442,-0.311344,-1.7675,-6.475,-4.3225
202,9411887,0.9343981,-0.008418,-0.310734,-1.8725,-6.2825,-4.41
203,9411985,0.9325680000000001,-0.009272001,-0.310734,-1.8725,-6.4225,-4.3925
204,9412082,0.9317141,-0.009394,-0.3111,-1.9075,-6.2475,-4.3925
205,9412180,0.9318360000000001,-0.006954000000000001,-0.313662,-1.89,-6.16,-4.375
206,9412278,0.931958,-0.005368,-0.315126,-1.9425,-6.02,-4.3925
207,9412376,0.930616,-0.004026,-0.318786,-1.855,-6.0725,-4.4275
208,9412474,0.9282981,-0.004148001,-0.317688,-1.855,-6.0025,-4.4275
209,9412572,0.9293961,-0.003904,-0.31781,-1.9425,-5.9675,-4.375
210,9412670,0.9290299999999999,-0.004392,-0.317322,-1.89,-5.915,-4.4975
211,9412768,0.9298841,-0.005612,-0.317078,-1.75,-6.055,-4.4625
212,9412866,0.93086,-0.005978,-0.316346,-1.8375,-6.0725,-4.3925
213,9412963,0.9322021,-0.008052001,-0.315004,-1.855,-5.915,-4.2875
214,9413061,0.93269,-0.008418,-0.31451599999999996,-1.925,-5.845,-4.4275
215,9413159,0.934276,-0.007198,-0.314272,-1.995,-5.7925,-4.4975
216,9413257,0.933666,-0.005856,-0.315126,-1.9075,-5.7225,-4.5675
217,9413355,0.936472,-0.005246,-0.315004,-1.9425,-5.74,-4.515
218,9413453,0.936106,-0.00549,-0.313418,-2.0475,-6.0725,-4.515
219,9413551,0.9358620999999999,-0.0051240009999999996,-0.31476,-1.9425,-6.1775,-4.4275
220,9413649,0.934276,-0.005002,-0.317688,-2.0825,-6.23,-4.3575
221,9413747,0.9340321,-0.004514,-0.31781,-2.2225,-6.1425,-4.3575
222,9413845,0.931348,-0.004392,-0.318298,-2.17,-6.195,-4.3225
223,9413942,0.930494,-0.004514,-0.318786,-2.0125,-6.23,-4.305
224,9414040,0.93086,-0.0051240009999999996,-0.318542,-1.89,-6.23,-4.3925
225,9414138,0.930982,-0.005246,-0.318786,-1.75,-6.3175,-4.3925
226,9414236,0.931348,-0.004636001,-0.319884,-1.68,-6.1775,-4.34
227,9414334,0.93269,-0.004758,-0.318664,-1.6275,-6.1775,-4.375
228,9414432,0.9318360000000001,-0.005002,-0.318542,-1.5225,-5.9325,-4.4625
229,9414530,0.9323239999999999,-0.0051240009999999996,-0.316712,-1.5575,-5.7925,-4.4625
230,9414628,0.9325680000000001,-0.004636001,-0.31756599999999996,-1.6275,-5.95,-4.585
231,9414726,0.931348,-0.004758,-0.31781,-1.5925,-6.0375,-4.62
232,9414824,0.9315921,-0.003904,-0.317078,-1.575,-5.8625,-4.5675
233,9414921,0.9317141,-0.004514,-0.317688,-1.435,-5.81,-4.55
234,9415019,0.9296399999999999,-0.005246,-0.31903000000000004,-1.4,-5.845,-4.6375
235,9415117,0.9284200999999999,-0.004758,-0.318786,-1.3475,-5.8275,-4.55
236,9415215,0.9270780999999999,-0.004514,-0.32086,-1.33,-5.705,-4.62
237,9415313,0.9293961,-0.004758,-0.320616,-1.33,-5.5825,-4.5675
238,9415411,0.9297620999999999,-0.00488,-0.321226,-1.295,-5.4775,-4.55
239,9415509,0.930372,-0.00488,-0.320494,-1.3475,-5.2325,-4.62
240,9415607,0.93086,-0.004514,-0.319396,-1.365,-5.0575,-4.69
241,9415705,0.93147,-0.0051240009999999996,-0.317688,-1.435,-4.9875,-4.6725
242,9415803,0.931226,-0.006222,-0.316834,-1.5575,-4.9525,-4.6375
243,9415901,0.9297620999999999,-0.0064659999999999995,-0.318176,-1.6625,-4.97,-4.6025
244,9415998,0.930006,-0.00671,-0.320006,-1.89,-4.865,-4.62
245,9416096,0.9274440999999999,-0.006222,-0.321714,-2.0475,-4.6375,-4.6375
246,9416194,0.9256141,-0.00671,-0.319274,-2.1175,-4.55,-4.6375
247,9416292,0.924394,-0.005734,-0.31951799999999997,-2.065,-4.55,-4.6725
248,9416390,0.924394,-0.0064659999999999995,-0.32195799999999997,-2.1875,-4.3925,-4.55
249,9416488,0.926834,-0.005734,-0.321348,-2.415,-4.305,-4.5325
250,9416586,0.9267120000000001,-0.005246,-0.320372,-2.4675,-4.235,-4.48
251,9416684,0.9298841,-0.004514,-0.321714,-2.5375,-4.1475,-4.3925
252,9416782,0.9317141,-0.0035380000000000003,-0.321226,-2.4325,-4.165,-4.4275
253,9416880,0.9322021,-0.00427,-0.32256799999999997,-2.3975,-4.025,-4.41
254,9416978,0.9317141,-0.0032939999999999996,-0.323056,-2.345,-3.85,-4.375
255,9417076,0.9307380999999999,-0.00427,-0.322324,-2.38,-4.0425,-4.3575
256,9417173,0.9318360000000001,-0.004392,-0.323056,-2.24,-4.2525,-4.3575
257,9417271,0.9307380999999999,-0.004758,-0.323544,-2.17,-4.305,-4.41
258,9417369,0.9296399999999999,-0.005856,-0.323544,-2.0825,-4.1125,-4.6025
259,9417467,0.9291520000000001,-0.005002,-0.323178,-2.0125,-4.0775,-4.6025
260,9417565,0.9274440999999999,-0.006587999999999999,-0.322202,-1.8375,-4.025,-4.5675
261,9417663,0.9264680000000001,-0.007564001,-0.32391,-1.7325,-4.1825,-4.4975
262,9417761,0.928054,-0.006587999999999999,-0.323666,-1.8375,-4.27,-4.515
263,9417859,0.9287861,-0.0064659999999999995,-0.324764,-1.855,-4.34,-4.5325
264,9417957,0.931348,-0.004026,-0.327936,-1.75,-4.2175,-4.55
265,9418055,0.9293961,-0.00427,-0.327204,-1.68,-3.9375,-4.6375
266,9418153,0.9275661000000001,-0.002928,-0.328058,-1.5225,-3.71,-4.69
267,9418251,0.9256141,-0.004514,-0.329644,-1.54,-3.64,-4.655
268,9418348,0.9256141,-0.004392,-0.332206,-1.47,-3.6925,-4.76
269,9418446,0.924882,-0.005978,-0.33184,-1.3825,-3.7975,-4.7425
270,9418544,0.9240280000000001,-0.006222,-0.329156,-1.225,-3.815,-4.7425
271,9418642,0.9235399999999999,-0.008906,-0.330498,-1.0675,-3.78,-4.7075
272,9418740,0.924638,-0.008296000999999999,-0.327814,-0.98,-3.535,-4.8475
273,9418838,0.9284200999999999,-0.008174001,-0.327448,-0.8225,-3.395,-4.9
274,9418936,0.93147,-0.008296000999999999,-0.32696,-0.875,-3.3425,-4.865
275,9419034,0.9325680000000001,-0.007442,-0.32708200000000004,-1.0675,-3.6925,-4.9
276,9419132,0.9335440999999999,-0.00671,-0.325862,-1.12,-3.885,-5.0575
277,9419230,0.934642,-0.00671,-0.32574000000000003,-1.1025,-3.955,-5.0925
278,9419328,0.9331780000000001,-0.006832001,-0.327814,-0.8925,-3.885,-4.97
279,9419426,0.931226,-0.005002,-0.329522,-0.8575,-3.745,-4.935
280,9419524,0.9263459999999999,-0.004514,-0.331352,-0.735,-3.5525,-4.9175
281,9419621,0.9231739999999999,-0.005246,-0.33123,-0.6475,-3.57,-4.795
282,9419719,0.9231739999999999,-0.005368,-0.33123,-0.5075,-3.605,-4.55
283,9419817,0.9232961,-0.005612,-0.33000999999999997,-0.525,-3.7975,-4.585
284,9419915,0.9231739999999999,-0.0061,-0.330986,-0.56,-4.1475,-4.515
285,9420013,0.9229299999999999,-0.007564001,-0.334646,-0.63,-4.0775,-4.4975
286,9420111,0.925736,-0.007564001,-0.334646,-0.735,-3.7275,-4.6025
287,9420209,0.925736,-0.00793,-0.33318200000000003,-0.91,-3.4125,-4.7425
288,9420307,0.9302501,-0.007076001,-0.332084,-1.05,-3.5175,-4.8475
289,9420405,0.9351299999999999,-0.006587999999999999,-0.33171799999999996,-1.12,-4.0425,-4.9
290,9420503,0.939766,-0.007076001,-0.330742,-1.155,-4.6375,-5.0575
291,9420601,0.9473301,-0.00549,-0.328546,-1.12,-5.075,-4.9875
292,9420698,0.9511120000000001,-0.00366,-0.325862,-1.05,-5.7925,-4.865
293,9420796,0.9506241,-0.002318,-0.320494,-1.05,-6.79,-4.69
294,9420894,0.951722,-0.001098,-0.31659,-1.2425,-7.3675,-4.48
295,9420992,0.9534301,-0.000366,-0.318176,-1.2075,-7.6125,-4.165
296,9421090,0.9519661,-0.001098,-0.31585799999999997,-1.295,-8.4,-3.85
297,9421188,0.9505020000000001,-0.001952,-0.315736,-1.2075,-9.45,-3.5525
298,9421286,0.947574,-0.00427,-0.315736,-1.0325,-10.3775,-3.325
299,9421384,0.9439139999999999,-0.009394,-0.316224,-1.1025,-10.7975,-3.5175
300,9421482,0.9423280999999999,-0.00793,-0.317932,-1.26,-11.06,-3.5875
301,9421580,0.9429379999999999,-0.00976,-0.317444,-1.435,-11.76,-3.6925
302,9421678,0.941718,-0.011346,-0.313906,-1.645,-12.46,-3.815
303,9421776,0.9446460999999999,-0.010736,-0.311344,-1.8025,-13.02,-4.025
304,9421874,0.944524,-0.011101999999999999,-0.310002,-1.96,-13.6325,-3.99
305,9421971,0.94001,-0.01098,-0.31012399999999996,-2.1175,-14.2275,-4.06
306,9422069,0.9354959999999999,-0.01098,-0.30792800000000004,-2.2225,-14.455,-4.095
307,9422167,0.928176,-0.006222,-0.309758,-2.45,-14.175,-4.0075
308,9422265,0.9241501,-0.007320001,-0.312198,-2.555,-13.825,-4.0075
309,9422363,0.9230520000000001,-0.007442,-0.311344,-2.7475,-13.3525,-3.815
310,9422461,0.9256141,-0.007564001,-0.313662,-2.9575,-13.4575,-3.6575
311,9422559,0.930494,-0.007198,-0.309636,-3.0625,-13.545,-3.4125
312,9422657,0.935008,-0.005612,-0.30853800000000003,-3.08,-13.615,-3.15
313,9422755,0.93391,-0.00549,-0.306586,-3.22,-13.7375,-2.9575
314,9422853,0.9322021,-0.005734,-0.30341399999999996,-3.3775,-13.685,-2.7125
315,9422951,0.9307380999999999,-0.008296000999999999,-0.30073,-3.535,-13.37,-2.555
316,9423049,0.9284200999999999,-0.009882,-0.2989,-3.8325,-12.845,-2.52
317,9423147,0.92537,-0.012688,-0.30292600000000003,-4.27,-12.3025,-2.7125
318,9423244,0.9240280000000001,-0.011956,-0.30622,-4.62,-11.9525,-2.905
319,9423342,0.9208561,-0.008784,-0.30841599999999997,-4.83,-11.3575,-2.8525
320,9423440,0.921588,-0.006832001,-0.30841599999999997,-4.8825,-10.7625,-2.9925
321,9423538,0.918782,-0.00427,-0.312076,-4.97,-10.22,-3.08
322,9423636,0.9191481,-0.001952,-0.31097800000000003,-4.935,-9.835,-3.115
323,9423734,0.9173181,0.00061,-0.311344,-4.935,-9.4325,-3.01
324,9423832,0.9153661,0.002562,-0.310734,-4.9,-8.785,-3.0625
325,9423930,0.915732,0.002928,-0.309026,-4.655,-8.0325,-3.185
326,9424028,0.916098,0.001586,-0.310734,-4.48,-7.4025,-3.15
327,9424126,0.918416,0.002318,-0.31049,-4.3575,-6.6325,-3.185
328,9424224,0.9225639999999999,0.000732,-0.311222,-4.34,-6.09,-3.29
329,9424322,0.927322,0.000488,-0.31451599999999996,-4.095,-5.5125,-3.465
330,9424420,0.9292739999999999,-0.00122,-0.315004,-4.06,-5.0925,-3.675
331,9424517,0.9296399999999999,0.000488,-0.31598000000000004,-3.9025,-4.8475,-3.7625
332,9424615,0.9275661000000001,0.000976,-0.3172,-3.745,-4.4975,-3.9375
333,9424713,0.9264680000000001,0.002562,-0.319884,-3.605,-4.27,-4.165
334,9424811,0.9270780999999999,0.00305,-0.321104,-3.36,-3.9725,-4.2525
335,9424909,0.9256141,0.00244,-0.322202,-3.08,-3.7625,-4.2525
336,9425007,0.9259799999999999,0.0032939999999999996,-0.322324,-2.8525,-3.7625,-4.2525
337,9425105,0.9261021,0.002684,-0.322446,-2.6775,-3.71,-4.235
338,9425203,0.9284200999999999,0.000488,-0.325862,-2.555,-3.43,-4.2
339,9425301,0.93086,0.00061,-0.323544,-2.45,-3.3075,-4.2875
340,9425399,0.9311040999999999,0.001464,-0.323544,-2.24,-3.5,-4.3225
341,9425497,0.9296399999999999,0.000244,-0.32391,-1.995,-3.6225,-4.3925
342,9425595,0.930372,-0.000976,-0.327326,-1.6975,-3.5175,-4.4625
343,9425693,0.9290299999999999,-0.0017079999999999999,-0.328546,-1.505,-3.605,-4.5325
344,9425791,0.92781,-0.003904,-0.329644,-1.5225,-3.6575,-4.5675
345,9425889,0.9235399999999999,-0.003904,-0.329522,-1.61,-3.71,-4.5675
346,9425986,0.9219540999999999,-0.00488,-0.330986,-1.6275,-3.71,-4.445
347,9426084,0.9201241,-0.00488,-0.329644,-1.8025,-3.6575,-4.2875
348,9426182,0.919636,-0.005368,-0.329766,-2.0475,-3.57,-4.27
349,9426280,0.9204901,-0.005856,-0.325862,-2.205,-3.5175,-4.41
350,9426378,0.922076,-0.00671,-0.323544,-2.31,-3.43,-4.375
351,9426476,0.9221981,-0.005978,-0.32403200000000004,-2.415,-3.4475,-4.3575
352,9426574,0.9229299999999999,-0.006344,-0.320616,-2.4675,-3.255,-4.2175
353,9426672,0.924516,-0.006954000000000001,-0.32025,-2.485,-2.9575,-4.1125
354,9426770,0.9252481,-0.006344,-0.318786,-2.52,-2.6775,-4.0775
355,9426868,0.9275661000000001,-0.0061,-0.31903000000000004,-2.555,-2.625,-3.9375
356,9426966,0.9291520000000001,-0.006222,-0.319396,-2.6425,-2.59,-3.99
357,9427064,0.9302501,-0.005734,-0.317322,-2.8,-2.2575,-4.0075
358,9427162,0.9290299999999999,-0.004514,-0.318542,-2.835,-1.89,-4.06
359,9427260,0.9292739999999999,-0.0051240009999999996,-0.31951799999999997,-2.835,-1.7325,-4.06
360,9427357,0.9284200999999999,-0.005734,-0.319396,-2.94,-1.715,-4.025
361,9427455,0.933666,-0.005246,-0.320372,-2.9575,-1.8375,-4.2
362,9427553,0.936106,-0.004636001,-0.323422,-2.87,-2.03,-4.0425
363,9427651,0.9363501000000001,-0.004392,-0.320738,-2.7825,-2.1875,-4.0775
364,9427749,0.9357401,-0.003172,-0.320494,-2.555,-2.17,-4.2
365,9427847,0.936594,-0.00305,-0.318542,-2.275,-2.17,-4.1475
366,9427945,0.936106,-0.002318,-0.320006,-2.17,-2.3975,-4.165
367,9428043,0.9358620999999999,-0.000488,-0.31781,-1.96,-2.6075,-4.13
368,9428141,0.9375700000000001,-0.000488,-0.318298,-1.925,-2.905,-4.1475
369,9428239,0.936594,-0.00366,-0.316346,-1.855,-3.29,-4.06
370,9428337,0.9354959999999999,-0.00427,-0.31537,-1.9075,-3.4475,-3.8675
371,9428434,0.9343981,-0.00488,-0.31476,-1.9775,-3.465,-3.7625
372,9428532,0.9354959999999999,-0.0061,-0.312686,-2.065,-3.465,-3.745
373,9428630,0.936594,-0.007320001,-0.313418,-2.1,-3.6225,-3.8675
374,9428728,0.9368380999999999,-0.007442,-0.31415,-2.0825,-4.0425,-3.9725
375,9428826,0.9383020000000001,-0.0061,-0.31598000000000004,-2.0125,-4.4275,-3.85
376,9428924,0.9392780000000001,-0.0051240009999999996,-0.31903000000000004,-1.89,-4.5675,-3.8675
377,9429022,0.9408639999999999,-0.005002,-0.318176,-1.9775,-4.97,-3.885
378,9429120,0.940132,-0.00549,-0.317688,-1.9075,-5.3375,-3.745
379,9429218,0.9379360000000001,-0.004514,-0.320616,-1.82,-5.5825,-3.71
380,9429316,0.9392780000000001,-0.0034159999999999998,-0.31903000000000004,-1.925,-5.7225,-3.6225
381,9429414,0.9384239999999999,-0.002684,-0.320006,-1.96,-5.9325,-3.5
382,9429512,0.9383020000000001,-0.004026,-0.320616,-1.9775,-6.23,-3.4475
383,9429609,0.938058,-0.004148001,-0.322202,-2.0475,-6.685,-3.3775
384,9429707,0.937326,-0.004392,-0.323178,-2.2575,-7.0525,-3.29
385,9429805,0.935984,-0.004636001,-0.324154,-2.4325,-7.4375,-3.1675
386,9429903,0.935008,-0.005368,-0.32403200000000004,-2.59,-7.77,-3.1325
387,9430001,0.933666,-0.00671,-0.322812,-2.555,-7.875,-3.185
388,9430099,0.9340321,-0.008784,-0.3233,-2.4675,-8.05,-3.2375
389,9430197,0.9335440999999999,-0.008906,-0.325496,-2.24,-8.26,-3.255
390,9430295,0.934154,-0.007564001,-0.32574000000000003,-2.0825,-8.4,-3.325
391,9430393,0.9320801,-0.005856,-0.324398,-1.8725,-8.75,-3.4475
392,9430491,0.9328120000000001,-0.004636001,-0.324764,-1.575,-9.03,-3.5175
393,9430588,0.933666,-0.000976,-0.324398,-1.4525,-9.1175,-3.605
394,9430686,0.9328120000000001,0.003172,-0.32452,-1.2425,-9.0475,-3.6925
395,9430784,0.9340321,0.005978,-0.327204,-0.8925,-9.0125,-3.9725
396,9430882,0.935008,0.009882,-0.32879,-0.3675,-9.2575,-4.305
397,9430980,0.9348860999999999,0.011956,-0.33489,0.0875,-9.765,-4.655
398,9431078,0.9335440999999999,0.01403,-0.33610999999999996,0.56,-10.4125,-4.9175
399,9431176,0.930982,0.01464,-0.33305999999999997,1.12,-10.71,-5.11
400,9431274,0.9269561,0.015128,-0.327448,1.5225,-10.5175,-5.3025
401,9431372,0.92232,0.010126000000000001,-0.319884,1.7675,-9.905,-5.355
402,9431470,0.9231739999999999,0.0061,-0.319274,1.82,-9.2925,-5.495
403,9431568,0.9272,0.0017079999999999999,-0.317078,2.03,-8.5225,-5.5475
404,9431666,0.9296399999999999,-0.004514,-0.318298,2.4675,-7.945,-5.5825
405,9431763,0.928176,-0.008174001,-0.320982,2.9575,-8.295,-5.3375
406,9431861,0.9290299999999999,-0.012565999999999999,-0.32391,3.5,-8.82,-5.215
407,9431959,0.9311040999999999,-0.01342,-0.325008,3.6925,-9.5025,-5.39
408,9432057,0.9286639999999999,-0.010004,-0.329034,3.64,-10.15,-5.7225
409,9432155,0.9282981,-0.008540001,-0.328912,3.43,-10.4475,-5.915
410,9432253,0.9263459999999999,-0.009028000999999999,-0.327936,3.15,-9.8525,-6.125
411,9432351,0.9241501,-0.009637999999999999,-0.327448,2.7475,-8.7675,-6.23
412,9432449,0.9209780000000001,-0.005978,-0.330254,2.345,-7.875,-6.1425
413,9432547,0.91622,-0.005002,-0.331352,1.925,-7.4375,-6.02
414,9432645,0.913658,-0.0034159999999999998,-0.333548,1.5925,-6.93,-5.8275
415,9432743,0.91195,-0.0008540001,-0.335622,1.47,-6.5625,-5.6875
416,9432841,0.910974,0.000122,-0.34111199999999997,1.4525,-6.16,-5.81
417,9432939,0.9080459999999999,-0.0017079999999999999,-0.340014,1.61,-5.775,-5.8625
418,9433036,0.9076799999999999,-0.004148001,-0.33818400000000004,1.61,-5.425,-5.95
419,9433134,0.909632,-0.005368,-0.335866,1.365,-5.075,-6.16
420,9433232,0.9143899999999999,-0.008174001,-0.33318200000000003,1.0325,-4.7425,-6.5275
421,9433330,0.920734,-0.010126000000000001,-0.329766,0.665,-4.55,-6.72
422,9433428,0.9259799999999999,-0.0122,-0.327936,0.385,-4.5325,-6.6325
423,9433526,0.9292739999999999,-0.011468,-0.32696,0.245,-4.7425,-6.37
424,9433624,0.9311040999999999,-0.010614,-0.326472,0.2975,-4.795,-5.9325
425,9433722,0.9330560999999999,-0.010492,-0.323178,0.1925,-4.515,-5.39
426,9433820,0.9333,-0.010614,-0.322812,0.21,-4.5325,-4.83
427,9433918,0.9298841,-0.010858,-0.324764,0.0875,-4.4625,-4.62
428,9434016,0.9286639999999999,-0.006344,-0.327448,0.1225,-3.8675,-4.55
429,9434114,0.928054,-0.005002,-0.331108,0.385,-3.5525,-4.7425
430,9434212,0.9262239999999999,-0.0034159999999999998,-0.33366999999999997,0.7,-3.85,-4.9175
431,9434310,0.9250040999999999,-0.002318,-0.335256,0.735,-4.2,-4.9875
432,9434407,0.9263459999999999,-0.0017079999999999999,-0.337086,0.49,-4.5325,-5.1625
433,9434505,0.9272,-0.0035380000000000003,-0.337696,0.2275,-4.865,-5.2675
434,9434603,0.9296399999999999,-0.0051240009999999996,-0.338428,-0.07,-5.215,-5.2675
435,9434701,0.9282981,-0.008174001,-0.335256,-0.4725,-5.53,-5.25
436,9434799,0.92781,-0.00976,-0.33305999999999997,-0.7175,-5.5125,-5.1625
437,9434897,0.9262239999999999,-0.011224,-0.330498,-0.665,-5.495,-4.9875
438,9434995,0.9252481,-0.010248,-0.330986,-0.4375,-5.39,-4.8125
439,9435093,0.9250040999999999,-0.009882,-0.332816,-0.4025,-5.215,-4.6375
440,9435191,0.9241501,-0.008296000999999999,-0.333548,-0.2975,-5.0925,-4.55
441,9435289,0.9241501,-0.0061,-0.328912,-0.21,-5.285,-4.48
442,9435387,0.9235399999999999,-0.00488,-0.329156,-0.28,-5.1275,-4.34
443,9435485,0.9264680000000001,-0.002196,-0.329888,-0.21,-4.725,-4.375
444,9435583,0.9272,-0.0035380000000000003,-0.329156,-0.175,-4.6025,-4.55
445,9435680,0.926834,-0.004636001,-0.331108,-0.28,-4.76,-4.62
446,9435778,0.9261021,-0.005002,-0.332084,-0.525,-5.0225,-4.7075
447,9435876,0.9261021,-0.008174001,-0.332572,-0.735,-5.0925,-4.83
448,9435974,0.927688,-0.008418,-0.33305999999999997,-0.8400001,-5.3025,-4.795
449,9436072,0.9275661000000001,-0.009516001,-0.33184,-0.8925,-5.39,-4.7425
450,9436170,0.9275661000000001,-0.011956,-0.332816,-0.875,-5.2675,-4.7425
451,9436268,0.927322,-0.01281,-0.329522,-0.7175,-5.2675,-4.6025
452,9436366,0.9284200999999999,-0.011956,-0.32708200000000004,-0.6125,-5.1975,-4.41
453,9436464,0.930372,-0.0122,-0.325374,-0.595,-5.145,-4.27
454,9436562,0.930616,-0.013175999999999998,-0.324398,-0.6125,-4.8825,-4.165
455,9436660,0.9323239999999999,-0.011590000000000001,-0.32452,-0.63,-4.69,-4.13
456,9436758,0.930982,-0.013541999999999998,-0.32574000000000003,-0.91,-4.7075,-4.3225
457,9436856,0.9287861,-0.012078,-0.327814,-1.0325,-4.9525,-4.4625
458,9436953,0.9289081,-0.010736,-0.3294,-0.9275,-5.2325,-4.375
459,9437051,0.9267120000000001,-0.010614,-0.33013200000000004,-0.8400001,-5.495,-4.235
460,9437149,0.9270780999999999,-0.013297999999999999,-0.329644,-1.015,-5.5825,-4.2525
461,9437247,0.924516,-0.014518000000000001,-0.33013200000000004,-1.26,-5.5475,-4.3575
462,9437345,0.925736,-0.014518000000000001,-0.32866799999999996,-1.26,-5.425,-4.375
463,9437443,0.9264680000000001,-0.01403,-0.325252,-1.295,-5.425,-4.305
464,9437541,0.9275661000000001,-0.015372,-0.325496,-1.54,-5.495,-4.1825
465,9437639,0.9272,-0.015982,-0.32757,-1.575,-5.46,-4.0775
466,9437737,0.9290299999999999,-0.015493999999999999,-0.325496,-1.61,-5.6,-3.9375
467,9437835,0.9291520000000001,-0.01647,-0.32818,-1.82,-5.845,-3.8325
468,9437932,0.9291520000000001,-0.016714,-0.328424,-1.89,-5.8625,-3.85
469,9438030,0.9290299999999999,-0.018056,-0.327814,-1.96,-5.6175,-3.78
470,9438128,0.9269561,-0.017446,-0.32696,-2.1175,-5.495,-3.57
471,9438226,0.92537,-0.015982,-0.327204,-2.1175,-5.3375,-3.6575
472,9438324,0.9254921,-0.01403,-0.327814,-2.1525,-5.25,-3.7275
473,9438422,0.9264680000000001,-0.01098,-0.331474,-2.17,-5.18,-3.7625
474,9438520,0.9275661000000001,-0.008662000999999999,-0.332084,-2.1525,-5.32,-3.7975
475,9438618,0.926834,-0.011468,-0.331596,-2.17,-5.565,-3.815
476,9438716,0.9289081,-0.01281,-0.329888,-2.24,-5.705,-3.92
477,9438814,0.930616,-0.01342,-0.33171799999999996,-2.3275,-5.845,-3.99
478,9438911,0.931226,-0.01281,-0.328546,-2.3975,-5.915,-4.025
479,9439009,0.9290299999999999,-0.010248,-0.329278,-2.345,-6.0025,-4.06
480,9439107,0.9297620999999999,-0.012931999999999999,-0.328424,-2.38,-6.055,-4.0425
481,9439205,0.930616,-0.013175999999999998,-0.329644,-2.4675,-6.09,-4.0075
482,9439303,0.9290299999999999,-0.013297999999999999,-0.3294,-2.5375,-5.95,-3.9375
483,9439401,0.9297620999999999,-0.011834,-0.33013200000000004,-2.415,-5.985,-3.815
484,9439499,0.9298841,-0.009516001,-0.33013200000000004,-2.52,-6.3175,-3.8325
485,9439597,0.930372,-0.009150001,-0.328912,-2.555,-6.5625,-3.9025
486,9439695,0.9291520000000001,-0.00793,-0.328302,-2.5025,-6.5975,-3.955
487,9439793,0.928542,-0.008784,-0.327204,-2.2225,-6.6325,-3.955
488,9439890,0.9284200999999999,-0.009516001,-0.328058,-2.2225,-6.79,-4.06
489,9439988,0.9298841,-0.009637999999999999,-0.330376,-2.345,-6.8425,-4.0425
490,9440086,0.9301280000000001,-0.010614,-0.332572,-2.4675,-7.0875,-4.095
491,9440184,0.9274440999999999,-0.009394,-0.330864,-2.415,-7.28,-3.9725
492,9440282,0.9264680000000001,-0.011101999999999999,-0.330864,-2.415,-7.4725,-3.9375
493,9440380,0.9230520000000001,-0.009516001,-0.329156,-2.38,-7.4725,-4.0075
494,9440478,0.921832,-0.006344,-0.329888,-2.24,-7.21,-4.0425
495,9440576,0.9221981,-0.005002,-0.33061999999999997,-2.17,-6.8425,-4.165
496,9440674,0.9228081,-0.00488,-0.33305999999999997,-2.0825,-6.7725,-4.1825
497,9440772,0.925126,-0.004758,-0.33171799999999996,-1.9075,-6.65,-4.165
498,9440870,0.9262239999999999,-0.005002,-0.331596,-1.8025,-6.6675,-4.1825
499,9440968,0.9259799999999999,-0.006222,-0.330986,-1.785,-6.685,-4.3925
500,9441066,0.924638,-0.006832001,-0.330742,-1.6275,-6.6325,-4.4275
501,9441164,0.9250040999999999,-0.0064659999999999995,-0.334036,-1.4875,-6.5625,-4.445
502,9441261,0.9252481,-0.005978,-0.333548,-1.3125,-6.65,-4.4625
503,9441359,0.924516,-0.004636001,-0.33379200000000003,-1.1725,-6.895,-4.515
504,9441457,0.9239059999999999,-0.004392,-0.33184,-1.0325,-6.86,-4.6025
505,9441555,0.924394,-0.004636001,-0.331962,-0.7525,-6.5625,-4.585
506,9441653,0.9274440999999999,-0.004758,-0.329278,-0.6475,-6.2825,-4.515
507,9441751,0.9292739999999999,-0.005002,-0.330742,-0.6475,-6.265,-4.7075
508,9441849,0.9307380999999999,-0.004758,-0.328058,-0.6475,-6.23,-4.7775
509,9441947,0.9317141,-0.007564001,-0.32635,-0.4375,-6.3175,-4.8475
510,9442045,0.9330560999999999,-0.006954000000000001,-0.326228,-0.4725,-6.3525,-4.8825
511,9442143,0.930372,-0.006587999999999999,-0.324886,-0.35,-6.4925,-4.935
512,9442241,0.927322,-0.006222,-0.32708200000000004,-0.315,-6.475,-5.005
513,9442339,0.9264680000000001,-0.007564001,-0.330376,-0.2625,-6.44,-4.9875
514,9442437,0.9240280000000001,-0.008662000999999999,-0.331596,-0.1925,-6.405,-5.04
515,9442535,0.9256141,-0.008906,-0.33318200000000003,-0.315,-6.2125,-5.1275
516,9442632,0.92537,-0.009272001,-0.33318200000000003,-0.2975,-6.195,-5.18
517,9442730,0.925126,-0.009028000999999999,-0.332206,-0.3325,-6.2125,-5.2675
518,9442828,0.92537,-0.009882,-0.33305999999999997,-0.3325,-6.2475,-5.1275
519,9442926,0.925736,-0.010492,-0.33013200000000004,-0.4725,-6.3175,-4.9875
520,9443024,0.925736,-0.010126000000000001,-0.330498,-0.56,-6.3175,-4.9175
521,9443122,0.9274440999999999,-0.01098,-0.331352,-0.6475,-6.2475,-4.8475
522,9443220,0.9259799999999999,-0.00976,-0.33245,-0.9275,-6.0375,-4.9
523,9443318,0.9261021,-0.009150001,-0.329888,-1.085,-6.1075,-4.9
524,9443416,0.9241501,-0.009516001,-0.330254,-1.1725,-6.16,-4.8825
525,9443514,0.921588,-0.007076001,-0.329766,-1.0675,-6.0375,-4.9175
526,9443612,0.9209780000000001,-0.0064659999999999995,-0.332328,-1.12,-5.8975,-4.97
527,9443710,0.9209780000000001,-0.0064659999999999995,-0.333304,-1.1025,-5.635,-4.795
528,9443808,0.9224421,-0.005734,-0.33366999999999997,-1.1725,-5.74,-4.725
529,9443906,0.9235399999999999,-0.005856,-0.332206,-1.05,-5.53,-4.8475
530,9444004,0.9267120000000001,-0.0064659999999999995,-0.33171799999999996,-1.1025,-5.3725,-4.7775
531,9444102,0.9275661000000001,-0.008174001,-0.331474,-1.0325,-5.2325,-4.8825
532,9444200,0.926834,-0.008052001,-0.33123,-0.9625,-5.2675,-4.8825
533,9444297,0.9302501,-0.007320001,-0.330742,-0.9625,-5.3025,-4.8825
534,9444395,0.9293961,-0.008540001,-0.329522,-1.015,-5.285,-4.97
535,9444493,0.9301280000000001,-0.007808001,-0.329644,-0.91,-5.3025,-5.0575
536,9444591,0.9287861,-0.00976,-0.33061999999999997,-1.05,-5.2325,-5.0225
537,9444689,0.9296399999999999,-0.009637999999999999,-0.331474,-1.1375,-5.1975,-5.005
538,9444787,0.9267120000000001,-0.009882,-0.330986,-1.2425,-5.32,-4.9525
539,9444885,0.925858,-0.00976,-0.333548,-1.3475,-5.425,-4.935
540,9444983,0.9250040999999999,-0.011346,-0.33428,-1.365,-5.3725,-4.865
541,9445081,0.9228081,-0.011468,-0.333548,-1.4175,-5.3375,-4.7775
542,9445179,0.9234180000000001,-0.012688,-0.332572,-1.54,-5.53,-4.725
543,9445277,0.9230520000000001,-0.013175999999999998,-0.333548,-1.54,-5.39,-4.69
544,9445375,0.9242720999999999,-0.012688,-0.335378,-1.47,-5.32,-4.4975
545,9445473,0.9250040999999999,-0.011590000000000001,-0.332938,-1.715,-5.32,-4.3925
546,9445571,0.925736,-0.01098,-0.33305999999999997,-1.9775,-5.4775,-4.34
547,9445668,0.92781,-0.01037,-0.332816,-2.205,-5.3375,-4.3575
548,9445766,0.92781,-0.01037,-0.332328,-2.4325,-5.25,-4.41
549,9445864,0.928176,-0.01037,-0.332694,-2.5025,-5.32,-4.3575
550,9445962,0.9267120000000001,-0.011346,-0.332694,-2.5725,-5.46,-4.4275
551,9446060,0.924516,-0.008784,-0.331108,-2.59,-5.4075,-4.5325
552,9446158,0.9231739999999999,-0.007320001,-0.33489,-2.485,-5.4075,-4.48
553,9446256,0.920734,-0.006587999999999999,-0.337574,-2.3975,-5.3025,-4.375
554,9446354,0.921222,-0.007442,-0.337574,-2.3275,-5.4425,-4.27
555,9446452,0.919758,-0.006954000000000001,-0.338794,-2.3275,-5.495,-4.2525
556,9446550,0.9209780000000001,-0.0061,-0.338672,-2.2925,-5.32,-4.2175
557,9446648,0.9232961,-0.006954000000000001,-0.339648,-2.3975,-5.18,-4.2175
558,9446746,0.9267120000000001,-0.006222,-0.33610999999999996,-2.4325,-5.1275,-4.2
559,9446844,0.9275661000000001,-0.007198,-0.334524,-2.4325,-5.3725,-4.1475
560,9446942,0.9289081,-0.0051240009999999996,-0.335134,-2.3625,-5.495,-4.27
561,9447039,0.9287861,-0.00549,-0.334036,-2.205,-5.32,-4.445
562,9447137,0.9293961,-0.00488,-0.33428,-2.0125,-5.4075,-4.48
563,9447235,0.926834,-0.004148001,-0.335378,-1.9425,-5.6,-4.55
564,9447333,0.928054,-0.004392,-0.33489,-1.89,-5.635,-4.5675
565,9447431,0.925858,-0.0051240009999999996,-0.334768,-1.8025,-5.81,-4.62
566,9447529,0.9240280000000001,-0.004758,-0.335988,-1.715,-6.0375,-4.55
567,9447627,0.9239059999999999,-0.005368,-0.336476,-1.6625,-6.1425,-4.62
568,9447725,0.92232,-0.00549,-0.335622,-1.54,-6.0725,-4.585
569,9447823,0.9247601000000001,-0.005368,-0.337452,-1.575,-6.09,-4.515
570,9447921,0.9247601000000001,-0.005856,-0.33610999999999996,-1.5925,-6.0725,-4.4275
571,9448019,0.924638,-0.005246,-0.335988,-1.5575,-6.02,-4.41
572,9448117,0.9265901,-0.005002,-0.334768,-1.505,-6.0025,-4.375
573,9448215,0.9254921,-0.0061,-0.335988,-1.4525,-6.02,-4.3925
574,9448313,0.9241501,-0.005856,-0.334158,-1.4525,-6.1775,-4.445
575,9448410,0.9236620999999999,-0.005734,-0.334646,-1.3825,-6.2825,-4.515
576,9448508,0.9242720999999999,-0.005368,-0.334768,-1.33,-6.2475,-4.55
577,9448606,0.922076,-0.005856,-0.335134,-1.3125,-6.1425,-4.5675
578,9448704,0.9239059999999999,-0.006222,-0.335134,-1.3825,-6.09,-4.6025
579,9448802,0.922686,-0.005002,-0.33623200000000003,-1.4175,-6.2825,-4.585
580,9448900,0.9229299999999999,-0.005856,-0.334402,-1.4175,-6.2125,-4.6025
581,9448998,0.9232961,-0.006222,-0.33366999999999997,-1.365,-6.195,-4.5675
582,9449096,0.9252481,-0.007198,-0.33305999999999997,-1.26,-6.1425,-4.4275
583,9449194,0.9265901,-0.007198,-0.333304,-1.295,-6.0375,-4.515
584,9449292,0.927688,-0.007198,-0.33428,-1.1375,-5.8975,-4.4625
585,9449390,0.924882,-0.007564001,-0.335012,-1.0675,-5.845,-4.48
586,9449488,0.9242720999999999,-0.0051240009999999996,-0.33610999999999996,-1.0675,-5.915,-4.445
587,9449586,0.9240280000000001,-0.00427,-0.33684200000000003,-1.0325,-5.88,-4.55
588,9449684,0.9241501,-0.00488,-0.337818,-0.9625,-5.985,-4.62
589,9449782,0.922686,-0.005002,-0.33794,-0.875,-6.0725,-4.69
590,9449880,0.925736,-0.006222,-0.334768,-1.015,-6.0375,-4.7425
591,9449978,0.9236620999999999,-0.005368,-0.33623200000000003,-0.91,-6.02,-4.7775
592,9450076,0.9237841,-0.007320001,-0.3355,-0.91,-6.16,-4.9175
593,9450173,0.9252481,-0.00793,-0.335134,-0.8925,-6.055,-4.76
594,9450271,0.9269561,-0.006587999999999999,-0.335134,-0.875,-5.845,-4.7425
595,9450369,0.9274440999999999,-0.005734,-0.335256,-0.77,-5.8625,-4.69
596,9450467,0.926834,-0.006222,-0.3355,-0.7,-5.8625,-4.62
597,9450565,0.925858,-0.006344,-0.335744,-0.6825,-5.7925,-4.6725
598,9450663,0.9242720999999999,-0.006587999999999999,-0.336598,-0.77,-5.7575,-4.655
599,9450761,0.9230520000000001,-0.006587999999999999,-0.338062,-0.7525,-5.7575,-4.5675
600,9450859,0.9221981,-0.007198,-0.338306,-0.7175,-5.88,-4.6375
601,9450957,0.9211,-0.008296000999999999,-0.33928200000000003,-0.945,-5.845,-4.7425
602,9451055,0.9203680000000001,-0.007198,-0.33928200000000003,-0.9975,-5.6875,-4.725
603,9451153,0.922076,-0.006222,-0.33794,-0.98,-5.6525,-4.7425
604,9451251,0.922076,-0.007076001,-0.336964,-0.9975,-5.775,-4.7775
605,9451349,0.9247601000000001,-0.005856,-0.337574,-1.1025,-5.915,-4.7075
606,9451447,0.9265901,-0.005368,-0.33733,-1.05,-5.81,-4.6375
607,9451545,0.9263459999999999,-0.007442,-0.335012,-1.1725,-5.8275,-4.655
608,9451643,0.9282981,-0.008174001,-0.33379200000000003,-1.2425,-5.88,-4.4975
609,9451741,0.9272,-0.006587999999999999,-0.332328,-1.2775,-5.8975,-4.5325
610,9451839,0.9254921,-0.007320001,-0.33245,-1.3475,-5.6875,-4.585
611,9451937,0.9254921,-0.007320001,-0.332572,-1.3475,-5.6,-4.55
612,9452035,0.9247601000000001,-0.007808001,-0.334646,-1.365,-5.7925,-4.655
613,9452133,0.92232,-0.006587999999999999,-0.334646,-1.295,-6.1425,-4.55
614,9452230,0.919758,-0.005856,-0.338062,-1.225,-6.1425,-4.48
615,9452328,0.918538,-0.006344,-0.337452,-1.295,-6.055,-4.445
616,9452426,0.9202459999999999,-0.00671,-0.33976999999999996,-1.365,-5.985,-4.48
617,9452524,0.919758,-0.0064659999999999995,-0.336964,-1.4,-5.9325,-4.5675
618,9452622,0.9229299999999999,-0.005978,-0.3355,-1.505,-5.7925,-4.655
619,9452720,0.924516,-0.006344,-0.33671999999999996,-1.54,-5.495,-4.62
620,9452818,0.9264680000000001,-0.005734,-0.33671999999999996,-1.4875,-5.39,-4.5675
621,9452916,0.9287861,-0.006222,-0.33623200000000003,-1.4,-5.425,-4.585
622,9453014,0.9261021,-0.005368,-0.33794,-1.505,-5.5125,-4.5325
623,9453112,0.9250040999999999,-0.005978,-0.335622,-1.47,-5.5475,-4.4975
624,9453210,0.924394,-0.005978,-0.3355,-1.435,-5.705,-4.6025
625,9453308,0.9240280000000001,-0.005734,-0.338916,-1.3825,-5.7925,-4.585
626,9453406,0.9236620999999999,-0.0051240009999999996,-0.338916,-1.365,-5.74,-4.62
627,9453503,0.9230520000000001,-0.00488,-0.34038,-1.2425,-5.7225,-4.6025
628,9453601,0.921344,-0.004392,-0.339648,-1.1375,-5.6875,-4.5675
629,9453699,0.92171,-0.005246,-0.339526,-1.0325,-5.6875,-4.55
630,9453797,0.9240280000000001,-0.005978,-0.33671999999999996,-1.05,-5.6,-4.69
631,9453895,0.924394,-0.005734,-0.337452,-1.05,-5.6175,-4.6725
632,9453993,0.9261021,-0.006222,-0.3355,-1.0325,-5.6875,-4.62
633,9454091,0.924638,-0.008052001,-0.335988,-1.1025,-5.6175,-4.55
634,9454189,0.926834,-0.00793,-0.336354,-1.12,-5.5475,-4.585
635,9454287,0.924882,-0.006587999999999999,-0.3355,-1.225,-5.6875,-4.585
636,9454385,0.9236620999999999,-0.006832001,-0.336964,-1.33,-5.81,-4.6025
637,9454483,0.9237841,-0.006587999999999999,-0.337452,-1.225,-5.88,-4.6375
638,9454581,0.924394,-0.006222,-0.336964,-1.225,-5.8275,-4.69
639,9454678,0.922076,-0.00549,-0.338794,-1.1725,-5.8275,-4.6375
640,9454776,0.9231739999999999,-0.005368,-0.337452,-1.1025,-5.8275,-4.6375
641,9454874,0.9230520000000001,-0.00488,-0.33916,-0.98,-5.67,-4.62
642,9454972,0.924516,-0.0051240009999999996,-0.337208,-0.8575,-5.6875,-4.585
643,9455070,0.9250040999999999,-0.005734,-0.335622,-0.945,-5.6,-4.585
644,9455168,0.9254921,-0.0064659999999999995,-0.334768,-0.945,-5.6875,-4.725
645,9455266,0.9256141,-0.005612,-0.33610999999999996,-0.8400001,-5.67,-4.655
646,9455364,0.9254921,-0.005978,-0.335744,-0.945,-5.67,-4.725
647,9455462,0.9270780999999999,-0.0061,-0.335744,-0.9625,-5.6,-4.69
648,9455560,0.9234180000000001,-0.00671,-0.335866,-0.8225,-5.6,-4.725
649,9455658,0.924638,-0.005856,-0.335988,-0.77,-5.6875,-4.7075
650,9455756,0.9232961,-0.005734,-0.336354,-0.7175,-5.67,-4.7075
651,9455854,0.9236620999999999,-0.0064659999999999995,-0.335866,-0.7525,-5.6,-4.725
652,9455951,0.9230520000000001,-0.007076001,-0.335378,-0.7175,-5.5125,-4.6725
653,9456049,0.9250040999999999,-0.006344,-0.336354,-0.735,-5.5125,-4.7425
654,9456147,0.9263459999999999,-0.0061,-0.335622,-0.6825,-5.495,-4.6725
655,9456245,0.9252481,-0.007320001,-0.335378,-0.6825,-5.46,-4.7075
656,9456343,0.9254921,-0.006587999999999999,-0.335378,-0.6475,-5.4775,-4.7425
657,9456441,0.924882,-0.00671,-0.335378,-0.63,-5.565,-4.7425
658,9456539,0.9234180000000001,-0.00671,-0.335256,-0.665,-5.6525,-4.655
659,9456637,0.9239059999999999,-0.006587999999999999,-0.33623200000000003,-0.6475,-5.565,-4.7425
660,9456735,0.9237841,-0.008052001,-0.335622,-0.8225,-5.4775,-4.6725
661,9456833,0.924516,-0.008418,-0.333548,-0.875,-5.4425,-4.8125
662,9456931,0.924638,-0.008418,-0.336964,-0.91,-5.39,-4.795
663,9457028,0.9272,-0.008052001,-0.337452,-0.9625,-5.495,-4.7075
664,9457126,0.9247601000000001,-0.0064659999999999995,-0.33671999999999996,-0.8575,-5.565,-4.655
665,9457224,0.924638,-0.007564001,-0.334646,-0.91,-5.6,-4.55
666,9457322,0.9235399999999999,-0.006954000000000001,-0.334158,-0.8925,-5.4775,-4.6375
667,9457420,0.920734,-0.007564001,-0.33610999999999996,-0.8925,-5.39,-4.6025
668,9457518,0.9228081,-0.00549,-0.335622,-0.9975,-5.1975,-4.55
669,9457616,0.9247601000000001,-0.00671,-0.334768,-1.1025,-5.3375,-4.6725
670,9457714,0.924394,-0.005978,-0.334646,-1.0325,-5.285,-4.62
671,9457812,0.92781,-0.005856,-0.335988,-1.015,-5.2675,-4.5675
672,9457910,0.927322,-0.006344,-0.334646,-0.9625,-5.145,-4.4975
673,9458008,0.92781,-0.007564001,-0.334646,-0.9975,-5.355,-4.48
674,9458105,0.928054,-0.007686,-0.333304,-1.015,-5.635,-4.445
675,9458203,0.9274440999999999,-0.008418,-0.331962,-1.225,-5.5825,-4.5325
676,9458301,0.925858,-0.007808001,-0.332816,-1.435,-5.53,-4.5675
677,9458399,0.927322,-0.00793,-0.330864,-1.4875,-5.495,-4.62
678,9458497,0.9264680000000001,-0.009516001,-0.330254,-1.4875,-5.635,-4.62
679,9458595,0.9254921,-0.009272001,-0.332572,-1.505,-5.705,-4.655
680,9458693,0.924638,-0.009394,-0.335012,-1.4525,-5.53,-4.55
681,9458791,0.9236620999999999,-0.008906,-0.335378,-1.47,-5.6175,-4.375
682,9458889,0.9224421,-0.008418,-0.336598,-1.4525,-5.6525,-4.305
683,9458987,0.92232,-0.007320001,-0.334768,-1.6275,-5.635,-4.3575
684,9459085,0.9230520000000001,-0.007320001,-0.333914,-1.61,-5.4425,-4.375
685,9459182,0.921222,-0.007076001,-0.333304,-1.785,-5.32,-4.3225
686,9459280,0.9232961,-0.008662000999999999,-0.333304,-1.9775,-5.1625,-4.27
687,9459378,0.924638,-0.008784,-0.330986,-2.0825,-5.11,-4.27
688,9459476,0.925126,-0.008906,-0.331352,-2.205,-5.25,-4.27
689,9459574,0.927932,-0.00793,-0.331352,-2.135,-5.2325,-4.235
690,9459672,0.927322,-0.007686,-0.329156,-2.0475,-5.215,-4.2175
691,9459770,0.92537,-0.006832001,-0.33000999999999997,-1.9075,-5.215,-4.34
692,9459868,0.9247601000000001,-0.0061,-0.33000999999999997,-1.8725,-5.0925,-4.1825
693,9459966,0.924394,-0.005246,-0.33171799999999996,-1.8025,-4.865,-4.2875
694,9460064,0.924882,-0.006587999999999999,-0.33123,-1.5925,-4.8125,-4.305
695,9460162,0.9267120000000001,-0.006832001,-0.332084,-1.645,-4.9,-4.3225
696,9460259,0.9250040999999999,-0.005978,-0.33013200000000004,-1.75,-4.935,-4.4625
697,9460357,0.9254921,-0.005856,-0.330864,-1.645,-4.76,-4.4275
698,9460455,0.9269561,-0.005246,-0.329156,-1.68,-4.76,-4.5325
699,9460553,0.928054,-0.0051240009999999996,-0.32561799999999996,-1.6275,-4.8125,-4.585
700,9460651,0.928176,-0.004758,-0.32635,-1.5575,-4.7775,-4.5675
701,9460749,0.9292739999999999,-0.00488,-0.32879,-1.4525,-4.4975,-4.6375
702,9460847,0.9315921,-0.005002,-0.326228,-1.3475,-4.3575,-4.62
703,9460945,0.9284200999999999,-0.005368,-0.326594,-1.33,-4.2525,-4.6725
704,9461043,0.927322,-0.005978,-0.32708200000000004,-1.4,-4.1825,-4.725
705,9461141,0.9254921,-0.006587999999999999,-0.327448,-1.505,-4.2,-4.795
706,9461239,0.9259799999999999,-0.006344,-0.32696,-1.365,-4.2525,-4.8125
707,9461337,0.9254921,-0.005612,-0.32561799999999996,-1.2775,-4.6025,-4.7425
708,9461434,0.92537,-0.004026,-0.326228,-1.2775,-4.62,-4.7075
709,9461532,0.9269561,-0.0051240009999999996,-0.325008,-1.19,-4.2525,-4.69
710,9461631,0.930006,-0.0051240009999999996,-0.326472,-1.155,-4.0425,-4.6725
711,9461728,0.93147,-0.00549,-0.326228,-1.155,-4.06,-4.7075
712,9461826,0.9298841,-0.007442,-0.32208000000000003,-1.1375,-4.025,-4.8825
713,9461924,0.9292739999999999,-0.00671,-0.324154,-1.2075,-4.0075,-4.8825
714,9462022,0.9320801,-0.0051240009999999996,-0.330986,-1.2775,-4.06,-4.935
715,9462120,0.9328120000000001,-0.00427,-0.334768,-1.12,-4.445,-4.9525
716,9462218,0.9328120000000001,-0.000122,-0.332694,-1.015,-5.1625,-4.8825
717,9462316,0.930006,0.0051240009999999996,-0.330742,-0.8925,-5.495,-4.8825
718,9462414,0.927322,0.004758,-0.332816,-0.6475,-5.215,-5.0225
719,9462512,0.9287861,0.005246,-0.332572,-0.49,-4.9875,-5.0225
720,9462609,0.933666,0.001952,-0.354288,-0.385,-6.1775,-4.97
721,9462707,0.942572,0.009028000999999999,-0.377224,-0.35,-8.2425,-4.8475
722,9462805,0.9512341000000001,0.027327999999999998,-0.36502399999999996,-0.4375,-11.0075,-4.795
723,9462903,0.955626,0.035624,-0.334524,-0.315,-13.6325,-4.8125
724,9463001,0.9651421,0.02684,-0.30927,0.175,-13.9475,-5.0225
725,9463099,0.969412,0.022692,-0.263764,-0.3325,-12.0925,-5.6
726,9463197,0.9526979999999999,0.035624,-0.21594000000000002,-0.28,-10.22,-6.2125
727,9463295,0.9429379999999999,0.067222,-0.194102,0.1925,-9.765,-6.0375
728,9463393,0.9464761,0.076738,-0.18324400000000002,1.75,-9.0125,-5.3725
729,9463491,0.957334,0.07515201,-0.192028,3.15,-8.715,-4.55
730,9463589,0.97356,0.0671,-0.195322,4.6375,-9.6425,-3.78
731,9463686,0.985516,0.061610000000000005,-0.199104,7.35,-10.885,-3.465
732,9463784,0.9752681000000001,0.048556,-0.20630199999999999,10.4125,-11.7425,-3.92
733,9463882,0.9586761,0.026962,-0.211304,12.915,-11.0075,-5.215
734,9463980,0.9352520000000001,0.017202000000000002,-0.221796,13.9825,-7.735,-7.315
735,9464078,0.91012,0.009272001,-0.23253200000000002,14.1575,-3.4825,-9.555
736,9464176,0.890966,0.0064659999999999995,-0.24558600000000003,13.93,0.315,-11.41
737,9464274,0.8813280000000001,0.002074,-0.2623,13.055,3.3075,-12.845
738,9464372,0.886574,-0.007686,-0.28694400000000003,11.795,5.74,-13.79
739,9464470,0.9004821,-0.019886,-0.315736,10.3075,6.7725,-14.0875
740,9464568,0.9211,-0.030744,-0.3355,8.68,6.2825,-13.545
741,9464666,0.9322021,-0.040626,-0.349896,7.1925,5.355,-12.705
742,9464763,0.9408639999999999,-0.0488,-0.353434,5.285,4.7775,-11.6025
743,9464861,0.94245,-0.055998,-0.349408,2.59,4.375,-10.5175
744,9464959,0.93879,-0.061854,-0.35319,-0.0525,3.6575,-9.1
745,9465057,0.928054,-0.06600201,-0.365146,-2.1175,2.6075,-7.28
746,9465155,0.9167081,-0.06832001,-0.384178,-3.5875,1.68,-5.075
747,9465253,0.9084121,-0.06588,-0.401624,-5.1975,0.805,-2.765
748,9465351,0.8960899999999999,-0.056608000000000006,-0.409432,-7.035,-0.7,-0.5425
749,9465449,0.88633,-0.041602,-0.406016,-8.54,-1.9775,1.4175
750,9465547,0.8796200000000001,-0.021228,-0.39894,-9.275,-1.925,2.8525
751,9465645,0.8751059999999999,-0.000366,-0.383324,-9.4325,-0.7525,3.745
752,9465743,0.8824261,0.029036000000000003,-0.365268,-8.645,1.1025,3.9725
753,9465841,0.9004821,0.053314,-0.35172600000000004,-7.56,2.0475,3.64
754,9465939,0.928542,0.069784,-0.33976999999999996,-5.775,1.225,2.7475
755,9466036,0.961726,0.07356601,-0.315126,-3.0625,-0.1225,1.1375
756,9466134,0.984906,0.07283401,-0.29341,-0.2275,-0.6125,-1.4
757,9466232,0.9950319999999999,0.063074,-0.275476,2.5025,-1.2775,-4.1825
758,9466330,0.996374,0.050996,-0.268034,4.4275,-3.045,-6.8775
759,9466428,0.9934460999999999,0.03538,-0.269986,5.845,-4.69,-9.1175
760,9466526,0.987224,0.022082,-0.26913200000000004,7.14,-5.67,-10.9375
761,9466624,0.9846620999999999,0.004636001,-0.270352,7.9275,-6.195,-12.11
762,9466722,0.987224,-0.010004,-0.281942,8.435,-6.8775,-12.5125
763,9466820,0.987224,-0.022692,-0.306342,8.54,-8.7675,-12.39
764,9466918,0.9806360000000001,-0.035136,-0.33305999999999997,8.085,-11.515,-11.6725
765,9467016,0.9697780999999999,-0.048068,-0.35672800000000005,7.385,-15.2075,-10.57
766,9467114,0.9408639999999999,-0.05172801,-0.389302,5.705,-20.44,-9.17
767,9467211,0.918294,-0.05002,-0.424072,2.87,-24.99,-7.91
768,9467309,0.9098761000000001,-0.042578,-0.443958,-1.26,-27.4925,-6.6675
769,9467407,0.8959681,-0.031476,-0.457744,-6.265,-29.68,-4.8125
770,9467505,0.8814501,-0.038186000000000005,-0.44713,-11.795,-30.6775,-2.5375
771,9467603,0.8601,-0.048434,-0.437492,-18.0425,-29.68,0.21
772,9467701,0.8342360000000001,-0.0366,-0.38491,-25.165,-27.7025,2.835
773,9467799,0.797148,-0.020130000000000002,-0.290238,-32.3925,-23.765,5.565
774,9467897,0.7787261,0.00366,-0.163724,-37.065,-16.03,8.9075
775,9467995,0.77531,0.03782,-0.050508,-39.9175,-6.615,12.425
776,9468093,0.778482,0.062464,0.069174,-39.8825,2.7125,16.0475
777,9468191,0.80825,0.096014,0.160552,-33.425,11.7075,18.795
778,9468288,0.8815719999999999,0.130296,0.240096,-20.7025,19.1275,20.335
779,9468386,1.01016,0.197274,0.22667600000000002,-3.5525,25.795,20.3525
780,9468484,1.122034,0.251198,0.07490801,12.635,27.9825,17.57
781,9468582,1.0815299999999999,0.272548,-0.10614000000000001,28.6125,16.695,14.1575
782,9468680,0.90585,0.269742,-0.256688,42.8575,-9.7825,13.685
783,9468778,0.73627,0.14383800000000002,-0.53741,49.105,-37.0475,15.4175
784,9468876,0.6108541000000001,-0.007564001,-0.535946,44.7475,-48.7025,13.9475
785,9468974,0.6290319999999999,-0.09089001,-0.545218,26.985,-48.195,6.545
786,9469072,0.737246,-0.41553199999999996,-0.5023960999999999,4.3925,-51.94,-10.465
787,9469170,0.9628241,-0.681858,-0.414922,-14.8575,-47.2675,-48.335
788,9469268,0.9181720999999999,-0.676856,-0.329766,-24.885,-27.125,-91.7
789,9469366,0.8210601000000001,-0.386984,-0.218746,-27.8075,3.4475,-118.51
790,9469463,0.8433860999999999,0.04941,-0.106262,-28.0175,33.6175,-126.385
791,9469561,0.989908,0.511424,0.023790000000000002,-18.3225,46.41,-118.755
792,9469659,1.115202,0.764696,-0.09613601,-7.385,58.345,-95.34
793,9469757,1.146434,0.7147979999999999,-0.320006,-5.5825,71.0325,-64.26
794,9469855,1.179374,0.563884,-0.33684200000000003,-5.3725,55.9125,-28.7
795,9469953,1.22183,0.36087600000000003,-0.243756,3.57,17.9025,5.0575
796,9470051,1.224392,0.12651400000000002,-0.197152,10.99,-7.1925,28.1575
797,9470149,1.27795,-0.115534,-0.166774,8.1725,-8.4175,39.7425
798,9470247,1.297592,-0.299754,-0.130296,5.7225,-6.475,41.5275
799,9470345,1.200358,-0.40577199999999997,-0.08881599,7.525,-11.8825,36.4525
800,9470442,1.026752,-0.43346599999999996,-0.077348,6.475,-18.2,26.9675
801,9470540,0.9075581,-0.465674,-0.232898,2.1,-23.3975,17.185
802,9470638,0.812154,-0.28023400000000004,-0.119072,-10.92,-39.6725,13.1075
803,9470736,0.795806,-0.17433800000000002,-0.12017,-7.2625,-23.835,11.025
804,9470834,0.8569280999999999,-0.02806,-0.145302,-7.805,-2.5725,11.9
805,9470932,0.9121940999999999,0.096624,-0.137982,-13.2125,7.6125,13.265
806,9471030,0.924394,0.159088,-0.142496,-21.63,3.395,13.7725
807,9471128,0.9065821,0.163114,-0.134322,-29.2775,-9.73,13.0375
808,9471226,0.9057280999999999,0.130296,-0.12029200000000001,-32.025,-24.08,11.83
809,9471324,0.9240280000000001,0.07564,-0.10675,-29.61,-31.745,8.68
810,9471422,0.943426,0.018544,-0.09418401,-22.925,-30.6425,4.095
811,9471519,0.954284,-0.013663999999999999,-0.07698201,-15.82,-25.4625,-1.1025
812,9471617,0.9663620999999999,-0.011834,-0.06563601,-11.1475,-21.98,-5.4425
813,9471715,0.9890540000000001,0.00366,-0.070882,-8.3475,-21.805,-7.0525
814,9471813,1.016016,0.034892,-0.08357,-6.72,-22.5575,-6.1775
815,9471911,1.038342,0.047214,-0.106262,-4.6725,-22.61,-3.4475
816,9472009,1.0493219999999999,0.041602,-0.128222,-3.0625,-21.84,-0.3675
817,9472107,1.046638,0.017812,-0.14786400000000002,-2.24,-22.4875,2.17
818,9472205,1.023946,-0.011101999999999999,-0.153354,-1.0675,-24.3775,3.99
819,9472303,0.998448,-0.041236,-0.14396,0.0175,-25.795,4.8475
820,9472401,0.97234,-0.069662,-0.128588,0.595,-26.5475,4.7775
821,9472498,0.9585541,-0.097234,-0.109922,-0.0875,-25.1125,4.0425
822,9472596,0.9635560999999999,-0.10736,-0.08881599,-2.415,-21.1225,2.8525
823,9472694,0.989908,-0.108702,-0.07015,-4.865,-15.82,1.6275
824,9472792,1.031266,-0.10906800000000001,-0.05172801,-7.105,-10.7625,0.315
825,9472890,1.0828719999999998,-0.09455001,-0.03294,-9.905,-5.845,-1.0325
826,9472988,1.142408,-0.064416,-0.00976,-12.32,-1.89,-2.065
827,9473086,1.2038959999999999,-0.036478,0.00549,-13.09,1.1375,-2.59
828,9473184,1.2785600000000001,-0.041236,-0.09479401,-11.2875,3.115,-2.4325
829,9473282,1.330898,-0.022082,-0.21618400000000002,-7.0,2.17,-1.645
830,9473380,1.381284,0.020984,-0.397598,-1.575,-1.7325,-1.19
831,9473477,1.348222,0.065148,-0.39723200000000003,8.015,-6.2125,-0.42
832,9473575,1.254038,0.10858,-0.284382,13.8425,-7.4375,-0.56
833,9473673,1.207068,0.210206,-0.186904,13.8075,-4.76,-1.645
834,9473771,1.241838,0.283528,-0.16530999999999998,14.945,1.015,-0.525
835,9473869,1.25538,0.217892,-0.25363800000000003,21.42,11.3925,5.4425
836,9473967,1.208898,0.079666,-0.407114,31.9375,24.43,14.735
837,9474065,1.13826,-0.0017079999999999999,-0.495442,36.645,29.2075,23.59
838,9474163,1.069452,-0.052703999999999994,-0.555832,36.365,18.6025,29.715
839,9474261,1.012722,-0.104554,-0.64294,34.5275,0.525,34.02
840,9474359,0.973194,-0.10528599999999999,-0.711504,31.0975,-12.705,37.625
841,9474456,0.9386681,-0.089914,-0.707234,25.6375,-17.29,42.0875
842,9474554,0.912926,-0.094306,-0.6317159999999999,22.435,-17.0275,48.2825
843,9474652,0.8693719999999999,-0.06490399999999999,-0.58865,19.285,-13.7725,55.125
844,9474750,0.8039801,-0.045384,-0.5673,15.82,-7.7875,61.4075
845,9474848,0.774456,-0.021106,-0.5292359999999999,11.935,-3.8325,65.24
846,9474946,0.8464360000000001,-0.031842,-0.48421800000000004,8.89,-4.69,63.175
847,9475044,0.996374,-0.070638,-0.429806,8.0325,-0.035,51.7475
848,9475142,1.17913,-0.139324,-0.37637,5.355,14.5775,30.8525
849,9475240,1.2658719999999999,-0.196298,-0.315126,3.57,22.6975,7.5075
850,9475337,1.098244,-0.18117,-0.282918,2.8525,7.105,-11.4975
851,9475435,0.852902,-0.09845401,-0.25302800000000003,1.575,-22.61,-24.6225
852,9475533,0.735416,-0.008906,-0.221552,-0.6125,-36.19,-32.7425
853,9475631,0.654896,0.08759601,-0.229116,-3.57,-27.5975,-36.505
854,9475729,0.5946279999999999,0.16348,-0.240706,-4.585,-16.5725,-37.0125
855,9475827,0.539606,0.203618,-0.265838,-3.5175,-10.43,-35.07
856,9475925,0.502152,0.21618400000000002,-0.30378,0.1575,-9.7125,-32.1825
857,9476023,0.493612,0.183366,-0.329156,4.69,-13.895,-29.82
858,9476121,0.580964,0.142496,-0.279868,8.68,-15.4875,-29.89
859,9476218,0.630252,0.121024,-0.259128,10.4825,-4.8825,-32.6725
860,9476316,0.6453800000000001,0.09247601,-0.23546,14.7175,5.355,-35.5775
861,9476414,0.671976,0.047580000000000004,-0.18104800000000001,21.735,11.2,-36.9075
862,9476512,0.71309,0.024766,-0.14701,26.95,18.795,-36.5925
863,9476610,0.7687221,0.025131999999999998,-0.160674,27.93,26.1625,-34.7375
864,9476708,0.8544879999999999,0.029524,-0.190564,26.95,28.595,-31.045
865,9476806,0.945256,0.02623,-0.18422,26.0225,24.22,-26.04
866,9476904,1.003694,0.02623,-0.144326,23.66,14.5425,-20.545
867,9477002,1.018822,0.037698,-0.08357,19.9675,4.165,-16.1875
868,9477099,1.0126,0.058926,-0.030866,17.5,-0.6475,-13.72
869,9477197,1.0168700000000002,0.074054,0.010736,18.235,0.4375,-12.495
870,9477295,1.019188,0.064538,0.050996,22.54,3.4475,-10.99
871,9477393,1.0079639999999999,0.029768,0.091012,29.785,7.175,-9.59
872,9477491,0.984784,-0.003172,0.119926,37.2575,9.7125,-8.9075
873,9477589,0.9465981,-0.01342,0.12261,42.6825,11.0425,-9.8875
874,9477687,0.9060940000000001,0.001952,0.077592,44.975,14.5075,-12.39
875,9477785,0.8916980999999999,0.019398,0.003782,44.7475,19.53,-14.8225
876,9477883,0.9239059999999999,0.001098,-0.14713199999999999,43.6625,22.5575,-15.96
877,9477980,0.964532,-0.037454,-0.363804,38.605,15.995,-15.54
878,9478078,0.995398,-0.10004,-0.43346599999999996,29.6275,-5.88,-12.845
879,9478176,0.9484280999999999,-0.19215,-0.25376,17.2725,-31.5175,-7.84
880,9478274,0.904142,-0.316956,0.009028000999999999,2.1875,-43.2425,-3.08
881,9478372,0.9142680000000001,-0.35014,0.18775799999999998,-16.45,-33.775,-1.68
882,9478470,0.9939341,-0.31537,0.061366,-33.6175,-4.6025,-2.3625
883,9478568,1.190842,-0.26474000000000003,-0.233752,-40.0225,27.2125,-6.5275
884,9478666,1.348222,-0.176534,-0.40516199999999997,-40.4775,42.28,-16.03
885,9478763,1.519144,-0.037576,-0.727608,-33.95,33.7925,-26.1625
886,9478861,1.504748,-0.027938,-0.7406621,-26.6175,6.475,-36.4
887,9478959,1.3978760000000001,-0.107116,-0.580476,-20.65,-27.0725,-43.505
888,9479057,1.260382,-0.174582,-0.375272,-23.38,-39.55,-46.8125
889,9479155,1.080554,-0.22423600000000002,-0.306708,-28.245,-27.0025,-52.85
890,9479253,0.9455,-0.114558,-0.387106,-40.95,-8.3125,-60.7425
891,9479351,0.809348,-0.023668,-0.534116,-45.78,3.64,-65.15250999999999
892,9479449,0.701012,0.097722,-0.659532,-45.15,3.745,-64.0675
893,9479547,0.673196,0.133956,-0.618784,-33.845,-6.195,-62.475
894,9479645,0.7067460999999999,0.202154,-0.5363121,-19.355,-18.515,-61.9325
895,9479742,0.767624,0.25046599999999997,-0.49580799999999997,-9.45,-24.115,-62.615
896,9479840,0.8377741,0.29072600000000004,-0.49105,-4.515,-20.86,-64.47
897,9479938,0.955016,0.33123,-0.511302,0.56,-12.25,-64.4525
898,9480036,1.107272,0.312198,-0.48421800000000004,8.19,-0.665,-60.06
899,9480134,1.240618,0.250832,-0.396744,15.3125,9.2575,-50.015
900,9480232,1.313452,0.09394001,-0.28853,19.355,9.66,-35.07
901,9480330,1.2852700000000001,-0.06941801,-0.21276799999999998,20.9125,-1.785,-18.8125
902,9480428,1.1636360000000001,-0.194956,-0.180316,19.355,-17.1675,-5.67
903,9480526,1.025776,-0.307318,-0.16128399999999998,16.31,-23.9925,3.2025
904,9480623,0.9261021,-0.33610999999999996,-0.169946,9.6775,-22.5575,8.68
905,9480721,0.8341139999999999,-0.290116,-0.201666,3.4125,-16.1525,13.93
906,9480819,0.705404,-0.262422,-0.249856,-0.2975,-9.87,20.2125
907,9480917,0.55571,-0.22728600000000002,-0.273158,-0.8575,-12.1975,26.3025
908,9481015,0.45725600000000005,-0.161162,-0.257054,-1.855,-21.0875,29.6625
909,9481113,0.423706,-0.09235399999999999,-0.214232,-3.8675,-27.3175,30.555
910,9481211,0.441762,-0.027206,-0.189832,-8.085,-23.5375,30.1525
911,9481309,0.48263199999999995,0.0017079999999999999,-0.18422,-12.215,-11.2525,29.575
912,9481407,0.549854,-0.005002,-0.154452,-18.445,-0.07,27.615
913,9481505,0.6451359999999999,-0.027327999999999998,-0.124928,-29.2425,8.365,24.6575
914,9481602,0.774822,-0.071248,-0.131394,-41.23,13.755,20.65
915,9481700,0.9295180000000001,-0.117974,-0.164944,-50.89,12.425,17.255
916,9481798,1.077016,-0.11626600000000001,-0.19861600000000001,-56.0,5.9675,14.385
917,9481896,1.15656,-0.119072,-0.180194,-56.0,-4.3225,10.6225
918,9481994,1.111054,-0.090646,-0.114558,-55.65,-15.19,6.1775
919,9482092,0.9980821,-0.046360000000000005,-0.05063,-59.465,-20.3525,1.47
920,9482190,0.904142,-0.007076001,-0.027083999999999997,-65.1875,-18.7425,-2.625
921,9482288,0.8367979999999999,0.01098,-0.03599,-70.385,-12.215,-5.8625
922,9482386,0.774578,0.01891,-0.065514,-73.9375,-2.6425,-7.7875
923,9482484,0.746518,0.037576,-0.114802,-76.23001,8.4175,-8.6275
924,9482582,0.781532,0.11126400000000002,-0.156648,-76.3875,17.2375,-7.5075
925,9482680,0.8504620999999999,0.190686,-0.19178399999999998,-71.365,19.6525,-4.235
926,9482777,0.9153661,0.23240999999999998,-0.196298,-58.2225,14.9275,0.105
927,9482875,0.9882001,0.27218200000000004,-0.149328,-39.7075,8.855,5.0575
928,9482973,1.045784,0.290238,-0.118584,-21.63,2.9575,10.6575
929,9483071,1.087752,0.292678,-0.167994,-5.8975,0.0525,14.455
930,9483169,1.187914,0.28792,-0.25498000000000004,8.0675,3.9025,15.925
931,9483267,1.313696,0.265228,-0.377834,20.09,5.88,16.345
932,9483365,1.463268,0.255468,-0.695156,31.71,1.645,17.36
933,9483463,1.58905,0.28304,-0.8908440999999999,44.03,-2.87,22.1025
934,9483561,1.57746,0.36807399999999996,-0.626958,52.6575,-3.955,31.745
935,9483659,1.3499299999999999,0.42114399999999996,-0.40076999999999996,55.4575,1.82,43.2425
936,9483757,0.9924700000000001,0.313906,-0.30792800000000004,63.5075,7.4025,52.6925
937,9483855,0.845094,0.082838,-0.365512,63.175,20.755,55.86
938,9483952,0.7779941,-0.17836400000000002,-0.49654,51.6075,40.53,56.8225
939,9484050,0.754448,-0.392108,-0.608658,42.105,43.5925,57.68
940,9484148,0.788852,-0.44420200000000004,-0.606462,31.0275,30.135,59.57
941,9484246,0.849242,-0.439932,-0.5753520000000001,19.95,10.5875,60.83
942,9484344,0.9379360000000001,-0.456646,-0.573278,10.4125,-3.5,59.325
943,9484442,1.069208,-0.428098,-0.5130100000000001,2.8525,-3.885,54.4075
944,9484540,1.2074340000000001,-0.33916,-0.401014,-1.7675,7.1225,48.44
945,9484638,1.277828,-0.193614,-0.35624,-3.0625,18.62,42.875
946,9484736,1.289418,-0.013175999999999998,-0.365268,-4.3925,20.1075,36.4175
947,9484834,1.352248,0.08296,-0.30292600000000003,-3.3075,13.0375,25.5675
948,9484932,1.322724,0.14701,-0.27828200000000003,-2.765,12.0925,8.89
949,9485029,1.1594879999999999,0.226798,-0.254858,-1.4,1.4525,-6.8775
950,9485127,0.9237841,0.271206,-0.23058,2.7825,-19.215,-19.3725
951,9485225,0.732854,0.272548,-0.208986,8.6275,-31.535,-28.105
952,9485323,0.640256,0.230946,-0.1952,12.95,-29.0675,-35.0525
953,9485421,0.5980439999999999,0.16958,-0.21142600000000003,14.6475,-20.405,-40.845
954,9485519,0.536068,0.12041400000000001,-0.25656599999999996,15.0325,-14.2975,-45.0275
955,9485617,0.49715,0.066124,-0.29072600000000004,16.9575,-13.895,-46.8825
956,9485715,0.5084960000000001,0.002562,-0.25522399999999995,21.315,-17.15,-45.99
957,9485813,0.5382640000000001,-0.025742,-0.236314,24.185,-14.63,-43.7325
958,9485911,0.5604680000000001,-0.052216,-0.22191799999999998,27.9475,-10.255,-41.37
959,9486009,0.58255,-0.04453,-0.1891,30.415,-7.9625,-38.43
960,9486107,0.636352,-0.016592,-0.153842,31.535,-2.9925,-35.35
961,9486204,0.7506659999999999,0.029401999999999998,-0.142252,32.7075,6.9825,-32.76
962,9486302,0.9037761000000001,0.061854,-0.177754,33.32,19.075,-30.065
963,9486400,1.036756,0.089792,-0.174948,33.3725,23.6425,-26.355
964,9486498,1.1087360000000002,0.11333800000000001,-0.09698999999999999,33.11,18.1125,-21.6825
965,9486596,1.090558,0.124806,-0.015738,33.3025,6.8425,-17.0275
966,9486694,1.027484,0.10309000000000001,0.02806,35.5425,-2.625,-12.6875
967,9486792,0.960628,0.06039,0.033062,41.3525,-6.5275,-9.2225
968,9486890,0.9028,0.005246,0.033184,49.0175,-3.465,-7.1225
969,9486988,0.8252079999999999,-0.028426,0.027816000000000004,54.1975,6.2825,-6.755
970,9487086,0.75335,-0.025742,0.008052001,54.0575,17.815,-8.015
971,9487184,0.7257781,-0.001342,-0.031598,51.6425,25.6375,-9.555
972,9487282,0.750544,-0.011956,-0.08893801,49.665,27.65,-10.6225
973,9487380,0.8141060999999999,-0.061488,-0.17360599999999998,48.0725,23.065,-11.2
974,9487477,0.8836459999999999,-0.118584,-0.255956,43.96,9.24,-11.025
975,9487575,0.9370821,-0.15762400000000001,-0.288164,33.3025,-15.3125,-10.43
976,9487673,0.946232,-0.21008400000000002,-0.14164200000000002,14.6825,-39.0775,-10.92
977,9487771,0.978074,-0.312808,0.087962,-6.755,-47.6,-13.5975
978,9487869,1.0382200000000001,-0.35807,0.195688,-29.26,-31.465,-18.2875
979,9487967,1.172542,-0.326594,0.044286,-48.86,2.135,-21.6125
980,9488065,1.375306,-0.25961599999999996,-0.149206,-59.99,27.2825,-23.45
981,9488163,1.5908799999999998,-0.18629400000000002,-0.265594,-59.36,27.3,-25.8475
982,9488261,1.76351,-0.103822,-0.5544899999999999,-51.2925,8.47,-28.42
983,9488359,1.704218,-0.11712,-0.566446,-45.2025,-18.235,-34.1075
984,9488457,1.481568,-0.168848,-0.40528400000000003,-41.825,-43.89,-40.845
985,9488554,1.167174,-0.18287799999999999,-0.232898,-45.815,-53.9525,-42.6125
986,9488652,0.977342,-0.127978,-0.261812,-51.0125,-43.085,-44.205
987,9488750,0.8461921,0.01403,-0.410042,-60.585,-19.39,-49.8925
988,9488848,0.7435901,0.10906800000000001,-0.515694,-58.6075,0.385,-51.94
989,9488946,0.688934,0.188124,-0.5976779999999999,-51.52,4.305,-50.1725
990,9489044,0.6917399999999999,0.22814,-0.5787680000000001,-37.94,-6.09,-48.1075
991,9489142,0.755302,0.287066,-0.5486340000000001,-23.3975,-19.8975,-47.075
992,9489240,0.8396040000000001,0.302316,-0.543632,-11.55,-29.4525,-48.51
993,9489338,0.951722,0.278526,-0.516426,-1.8725,-32.2,-51.94
994,9489436,1.082262,0.250832,-0.47092,6.615,-26.635,-55.0725
995,9489534,1.21451,0.184342,-0.413336,13.58,-15.1025,-55.0025
996,9489632,1.2872219999999999,0.08430201,-0.322202,19.2325,-3.6925,-49.1225
997,9489729,1.303082,-0.03843,-0.24717199999999998,20.58,2.9575,-37.8875
998,9489827,1.2872219999999999,-0.10638399999999999,-0.2135,17.9725,2.1875,-24.5525
999,9489925,1.215486,-0.166652,-0.187148,14.245,-1.1375,-10.045
1000,9490023,1.064694,-0.249612,-0.15311,11.3225,-4.6375,4.2875
1001,9490121,0.906948,-0.269498,-0.14713199999999999,5.285,-8.9775,14.0875
1002,9490219,0.800808,-0.228994,-0.16433399999999998,-2.6075,-10.6925,19.6
1003,9490317,0.746152,-0.180194,-0.209108,-8.1725,-7.455,23.8875
1004,9490415,0.680028,-0.158966,-0.245464,-9.415,-5.9325,28.56
1005,9490513,0.6058520000000001,-0.139934,-0.23668000000000003,-9.6775,-11.795,32.025
1006,9490611,0.5388741,-0.07283401,-0.196908,-12.0925,-19.075,33.1625
1007,9490709,0.515572,-0.005612,-0.158356,-16.5725,-20.125,31.78
1008,9490807,0.540216,0.036112,-0.146156,-20.475,-14.14,29.89
1009,9490905,0.595726,0.028548,-0.13859200000000002,-22.6975,-5.8625,27.6675
1010,9491002,0.664168,0.008784,-0.12895399999999999,-25.725,1.1375,24.9375
1011,9491100,0.768112,-0.020984,-0.118584,-31.1675,4.8475,21.105
1012,9491198,0.8954801,-0.035624,-0.125416,-38.5525,4.8125,16.625
1013,9491296,1.0285819999999999,-0.036844,-0.14213,-43.6975,0.525,12.39
1014,9491394,1.103246,-0.019154,-0.131638,-44.38,-10.045,8.8725
1015,9491492,1.103002,-0.016225999999999997,-0.07600599999999999,-42.8575,-22.9075,4.8825
1016,9491590,1.037,-0.006222,-0.019886,-43.26,-31.255,0.4025
1017,9491688,0.9379360000000001,0.007076001,-0.001952,-46.4975,-32.3225,-3.535
1018,9491786,0.838506,0.027816000000000004,-0.011956,-51.8175,-26.4775,-6.09
1019,9491884,0.7701859999999999,0.037942000000000004,-0.022936,-58.59,-16.94,-7.245
1020,9491982,0.711992,0.036478,-0.045627999999999995,-64.7675,-6.1075,-7.4375
1021,9492080,0.680882,0.0305,-0.08344800000000001,-66.325,2.3275,-6.8425
1022,9492177,0.71736,0.050752,-0.153476,-64.0325,8.8375,-6.125
1023,9492275,0.803126,0.09516001,-0.21813600000000002,-58.4325,10.7625,-4.795
1024,9492373,0.8805960999999999,0.10919000000000001,-0.255956,-47.985,6.6675,-1.855
1025,9492471,0.9267120000000001,0.109922,-0.225456,-33.3375,-0.8575,2.5025
1026,9492569,0.9547720999999999,0.143228,-0.107116,-18.2175,-8.75,7.595
1027,9492667,0.9652639999999999,0.233752,0.027327999999999998,-5.9675,-15.015,11.8825
1028,9492765,1.009428,0.269254,0.055144000000000006,3.78,-13.44,13.5275
1029,9492863,1.134112,0.206058,-0.123708,12.7575,-7.735,12.11
1030,9492961,1.316258,0.15189,-0.29463,19.565,-3.955,10.7275
1031,9493059,1.536956,0.174704,-0.538142,23.7125,-9.135,11.62
1032,9493157,1.719834,0.21008400000000002,-0.742614,32.8475,-22.365,15.26
1033,9493255,1.727154,0.287432,-0.55937,46.3575,-31.255,23.17
1034,9493352,1.44875,0.40016,-0.343674,56.3675,-29.855,33.7925
1035,9493450,1.02236,0.324886,-0.281088,66.22,-15.5225,41.3
1036,9493548,0.83875,0.14335,-0.358802,63.8575,13.545,43.365
1037,9493646,0.8149601,-0.04514,-0.5866979999999999,45.99,37.31,43.8725
1038,9493744,0.7755541,-0.233508,-0.665876,38.15,35.525,45.71
1039,9493842,0.7584741,-0.293044,-0.68686,28.595,15.89,49.0525
1040,9493940,0.765306,-0.32195799999999997,-0.6197600000000001,16.38,-6.4925,52.7975
1041,9494038,0.8166680000000001,-0.34794400000000003,-0.59719,5.67,-19.74,56.595
1042,9494136,0.9214661,-0.348554,-0.558516,0.63,-18.3925,60.445
1043,9494234,1.086654,-0.30439,-0.487756,-6.2825,-2.1875,63.5075
1044,9494332,1.236592,-0.24497600000000003,-0.39113200000000004,-11.41,17.885,63.2625
1045,9494430,1.275388,-0.138348,-0.37551599999999996,-13.79,27.3175,59.08
1046,9494527,1.266726,-0.027206,-0.407724,-13.8425,21.84,50.1025
1047,9494625,1.28649,0.05587601,-0.37685799999999997,-11.13,10.5525,35.5775
1048,9494724,1.28588,0.08857201,-0.308172,-6.7725,4.4975,15.5925
1049,9494821,1.1150799999999998,0.196176,-0.268278,-3.5525,-6.1775,-3.535
1050,9494919,0.901458,0.266204,-0.21045,2.4325,-22.7675,-18.0425
1051,9495017,0.718946,0.282918,-0.175314,8.645,-29.19,-28.77
1052,9495115,0.6390359999999999,0.22935999999999998,-0.1708,11.865,-20.825,-37.0125
1053,9495213,0.583648,0.18043800000000002,-0.209596,13.44,-7.0175,-41.9475
1054,9495311,0.525576,0.141398,-0.254736,15.68,0.7,-44.1875
1055,9495409,0.5069100000000001,0.103822,-0.274012,19.6175,1.0325,-42.7525
1056,9495507,0.5200861,0.051118000000000004,-0.25961599999999996,21.6125,-2.6425,-40.11
1057,9495605,0.553758,0.000366,-0.244,22.68,-3.7975,-38.605
1058,9495703,0.576328,-0.037088,-0.209718,25.9525,-1.295,-37.5025
1059,9495800,0.609268,-0.05209400000000001,-0.168482,29.9425,3.3775,-35.945
1060,9495898,0.6928380000000001,-0.052338,-0.130906,32.1825,9.31,-34.265
1061,9495996,0.826916,-0.025131999999999998,-0.12175599999999999,33.355,16.2225,-32.795
1062,9496094,0.9861260000000001,0.001952,-0.146766,33.6,20.65,-30.52
1063,9496192,1.101294,0.020008,-0.145302,34.195,16.205,-25.69
1064,9496290,1.139602,0.041358,-0.0732,34.0025,3.2025,-18.97
1065,9496388,1.108614,0.06588,0.023180000000000003,31.71,-8.4,-12.9325
1066,9496486,1.048712,0.072102,0.07002799999999999,29.82,-13.86,-8.4525
1067,9496584,0.981002,0.051972000000000004,0.06527000000000001,30.275,-15.0675,-4.9875
1068,9496682,0.901336,0.0035380000000000003,0.056974000000000004,34.685,-13.335,-2.4675
1069,9496780,0.815814,-0.037332,0.041358,40.2325,-5.6875,-1.47
1070,9496878,0.7239479999999999,-0.053801999999999996,0.033184,43.5575,6.615,-1.9075
1071,9496976,0.660142,-0.042944,0.030622000000000003,43.6975,19.67,-3.8325
1072,9497074,0.6450140000000001,-0.020984,-0.00061,41.51,30.03,-6.0375
1073,9497171,0.69418,-0.007564001,-0.08100801,38.22,33.285,-7.28
1074,9497269,0.823866,-0.01708,-0.22326,35.4025,27.2475,-7.56
1075,9497365,0.9562360999999999,-0.05246,-0.36209600000000003,30.6775,9.52,-7.9275
1076,9497463,1.020774,-0.098088,-0.35099400000000003,22.295,-18.83,-8.435
1077,9497561,0.9791719999999999,-0.183976,-0.124196,8.3125,-44.4675,-8.61
1078,9497659,0.9547720999999999,-0.29426399999999997,0.111508,-11.97,-51.415,-9.8875
1079,9497757,0.9734381,-0.338062,0.14798599999999998,-36.6275,-30.905,-14.7175
1080,9497855,1.099952,-0.315492,0.0051240009999999996,-52.2375,3.465,-19.3375
1081,9497953,1.301008,-0.254004,-0.074054,-56.0,27.965,-22.715
1082,9498051,1.5464719999999998,-0.167384,-0.08308201,-47.285,31.185,-26.215
1083,9498149,1.750578,-0.06588,-0.39894,-36.925,23.0475,-30.8
1084,9498247,1.7420380000000002,-0.048434,-0.53985,-39.795,0.315,-37.1
1085,9498345,1.530856,-0.026108,-0.43932200000000005,-42.8225,-33.18,-42.42
1086,9498443,1.257454,-0.049776,-0.29402,-38.99,-49.5075,-42.5075
1087,9498540,1.0858,-0.048068,-0.29572800000000005,-40.8275,-41.3875,-44.345
1088,9498638,0.945744,0.055144000000000006,-0.44383599999999995,-48.0725,-19.7925,-49.595
1089,9498736,0.822768,0.135786,-0.549122,-45.78,-1.3125,-52.36
1090,9498834,0.748592,0.17140999999999998,-0.58011,-38.15,2.1525,-51.345
1091,9498932,0.7340741,0.18556199999999998,-0.566446,-25.1475,-9.835,-49.455
1092,9499030,0.769088,0.25742,-0.53985,-11.9175,-24.0625,-49.5775
1093,9499128,0.859978,0.263642,-0.513376,-0.2975,-31.1675,-53.62
1094,9499226,0.9686799999999999,0.242414,-0.48739,9.135,-32.1475,-59.3775
1095,9499324,1.078358,0.221552,-0.447496,17.2375,-28.98,-62.9475
1096,9499422,1.179008,0.162504,-0.396988,23.31,-21.3675,-61.6175
1097,9499520,1.220244,0.045994,-0.333914,26.355,-12.39,-54.25
1098,9499618,1.2378120000000001,-0.067832,-0.253882,25.06,-5.46,-42.14
1099,9499716,1.239398,-0.121268,-0.204716,20.125,-2.275,-27.825
1100,9499814,1.20841,-0.158478,-0.160186,15.085,-1.8025,-12.0925
1101,9499912,1.104832,-0.209108,-0.12029200000000001,11.6025,-3.8675,3.885
1102,9500010,0.9540401,-0.22106399999999998,-0.113094,6.44,-7.8225,16.975
1103,9500108,0.829356,-0.20264200000000002,-0.123708,0.42,-9.7125,25.4625
1104,9500205,0.757254,-0.18239,-0.164578,-4.9875,-7.315,30.87
1105,9500303,0.686616,-0.181658,-0.206058,-6.65,-8.05,35.1575
1106,9500401,0.61,-0.167994,-0.217892,-7.28,-14.9975,36.9775
1107,9500499,0.5391180999999999,-0.11736400000000001,-0.19397999999999999,-9.7125,-22.2075,35.9625
1108,9500597,0.5252100000000001,-0.08296,-0.157746,-13.9125,-23.31,32.585
1109,9500695,0.550586,-0.04514,-0.13761600000000002,-19.3375,-17.78,29.8375
1110,9500793,0.606096,-0.030622000000000003,-0.121878,-24.4825,-11.865,26.7575
1111,9500891,0.689178,-0.035868000000000004,-0.10736,-30.2575,-8.19,23.0475
1112,9500989,0.7954399999999999,-0.0671,-0.100772,-37.52,-4.76,19.1275
1113,9501087,0.937326,-0.073688,-0.127734,-46.5325,-2.6775,15.5225
1114,9501185,1.061888,-0.0488,-0.15677,-53.41,-6.8075,12.285
1115,9501283,1.096658,-0.0183,-0.135542,-54.635,-19.0225,9.4675
1116,9501381,1.067988,-0.026595999999999998,-0.071004,-52.4825,-29.6975,6.0025
1117,9501479,0.9836860999999999,-0.019154,-0.03172,-53.4275,-33.1625,2.31
1118,9501576,0.880718,0.008540001,-0.015616,-56.5775,-31.2725,-0.0875
1119,9501674,0.8103239999999999,0.041236,-0.010004,-60.865,-24.465,-1.2775
1120,9501772,0.7548140999999999,0.066978,-0.011468,-65.835,-14.28,-2.2575
1121,9501870,0.687958,0.074786,-0.034404000000000004,-69.09,-3.5525,-3.15
1122,9501968,0.666608,0.062098,-0.09028,-68.4075,6.5625,-4.0425
1123,9502066,0.7171161,0.067222,-0.13298,-65.0475,15.995,-4.4625
1124,9502164,0.802272,0.116754,-0.184098,-59.325,19.6525,-3.92
1125,9502262,0.8809620000000001,0.168726,-0.24131599999999997,-48.86,16.135,-1.89
1126,9502360,0.9429379999999999,0.20788800000000002,-0.2318,-31.78,8.085,1.785
1127,9502458,0.989664,0.228262,-0.159698,-12.005,-1.2775,6.4575
1128,9502556,1.015528,0.277306,-0.12078,4.0775,-6.58,10.9025
1129,9502654,1.075064,0.28938400000000003,-0.13664,17.0975,-3.3075,13.1775
1130,9502752,1.182668,0.26169000000000003,-0.224358,27.44,2.2925,13.2125
1131,9502850,1.344196,0.240218,-0.375882,35.91,3.3775,12.565
1132,9502947,1.54574,0.248392,-0.6107319999999999,42.455,-2.1,13.2825
1133,9503045,1.6836,0.273524,-0.5471701,49.98,-11.48,17.71
1134,9503143,1.629432,0.35038400000000003,-0.320006,56.805,-13.51,26.5825
1135,9503241,1.2750219999999999,0.31293000000000004,-0.235094,64.0675,-6.4925,36.715
1136,9503339,0.9928360999999999,0.082594,-0.27999,71.5575,2.9925,41.6325
1137,9503437,0.8782780000000001,-0.08784,-0.4209,60.095,19.7575,42.6475
1138,9503535,0.798002,-0.21472,-0.526308,43.0325,24.0975,44.38
1139,9503633,0.757498,-0.291702,-0.5620541,30.8875,15.4175,46.1475
1140,9503731,0.74298,-0.333548,-0.599996,18.375,2.17,49.63
1141,9503829,0.776774,-0.382348,-0.574498,8.995,-10.85,54.7225
1142,9503927,0.8746181000000001,-0.36648800000000004,-0.5605899999999999,1.0675,-15.47,59.8675
1143,9504025,1.019188,-0.325374,-0.506178,-3.0975,-9.9925,63.98
1144,9504123,1.204018,-0.25925,-0.40357600000000005,-8.645,4.2875,64.645
1145,9504220,1.315526,-0.14396,-0.326106,-13.195,19.88,60.445
1146,9504318,1.3298,-0.03172,-0.349774,-12.7925,25.305,51.1525
1147,9504416,1.346514,0.046482,-0.35136,-8.4,16.835,37.5375
1148,9504514,1.344196,0.114802,-0.30097399999999996,-6.5975,7.875,19.1625
1149,9504612,1.2074340000000001,0.16287000000000001,-0.24082800000000001,-4.0425,-1.68,-0.4375
1150,9504710,1.036512,0.218502,-0.190076,-1.2425,-16.9925,-17.85
1151,9504808,0.8493641,0.223016,-0.158966,1.2775,-26.53,-31.4125
1152,9504906,0.719434,0.15128,-0.151646,3.2725,-23.2925,-41.265
1153,9505004,0.6362300000000001,0.132858,-0.205204,2.0825,-13.37,-46.935
1154,9505102,0.5777920999999999,0.09052401,-0.241194,2.1875,-6.545,-48.6675
1155,9505200,0.540582,0.046482,-0.272548,2.625,-5.74,-45.5875
1156,9505298,0.530212,0.04697001,-0.27205999999999997,4.795,-10.0275,-39.8475
1157,9505396,0.5614439999999999,0.01769,-0.245342,6.44,-11.4275,-34.265
1158,9505493,0.5927979999999999,-0.016347999999999998,-0.214964,10.0275,-9.0125,-30.2925
1159,9505591,0.6232981,-0.02196,-0.179584,12.8625,-5.1625,-27.2825
1160,9505689,0.6810039999999999,-0.020984,-0.150304,14.4375,0.91,-24.885
1161,9505787,0.7738461,-0.02684,-0.131394,16.59,8.7325,-22.365
1162,9505885,0.892064,0.003782,-0.140544,17.6925,14.035,-19.8275
1163,9505983,0.9924700000000001,0.047336,-0.14274,18.6375,12.285,-16.87
1164,9506081,1.0382200000000001,0.044896,-0.09150001,21.14,4.55,-13.7375
1165,9506179,1.029924,0.039528,-0.02684,22.2075,-5.5125,-11.2525
1166,9506277,0.9753901,0.041968,0.008174001,21.875,-14.6125,-9.205
1167,9506375,0.910242,0.033428,0.018056,23.2225,-16.9925,-7.3675
1168,9506473,0.8494860999999999,0.001952,0.029768,27.685,-12.46,-6.2475
1169,9506571,0.789462,-0.021838,0.035502,32.7425,-2.3975,-5.7575
1170,9506669,0.713212,-0.023058000000000002,0.018788,35.56,10.605,-6.055
1171,9506767,0.6753920999999999,-0.005002,-0.019154,35.805,22.2075,-7.0175
1172,9506865,0.6822239999999999,0.023180000000000003,-0.07356601,34.8775,31.2725,-7.595
1173,9506963,0.7452979999999999,0.05185,-0.15067,33.565,35.91,-7.5075
1174,9507060,0.8509501,0.040016,-0.271694,32.725,31.2025,-6.58
1175,9507158,0.951722,-0.016836,-0.381372,27.9125,13.65,-5.5125
1176,9507256,1.00894,-0.092964,-0.318298,16.5725,-10.57,-5.0575
1177,9507354,1.0140639999999999,-0.233996,-0.081984,1.015,-30.59,-5.39
1178,9507452,1.0377319999999999,-0.324398,0.108214,-18.5325,-35.4025,-8.4175
1179,9507550,1.052494,-0.336476,0.205448,-39.025,-19.74,-14.5075
1180,9507648,1.162172,-0.300242,0.144814,-49.6825,5.845,-19.5825
1181,9507746,1.360178,-0.241438,0.002684,-52.605,23.4675,-24.2375
1182,9507844,1.5736780000000001,-0.163114,-0.105774,-47.9325,22.6975,-30.87
1183,9507942,1.7158080000000002,-0.043676,-0.342698,-39.97,7.1925,-36.6975
1184,9508040,1.7214200000000002,0.006587999999999999,-0.360388,-36.6275,-16.2925,-41.755
1185,9508138,1.5609899999999999,-0.040138,-0.30353600000000003,-35.7875,-39.9,-46.7425
1186,9508236,1.290394,-0.06832001,-0.249612,-45.5525,-54.005,-48.5625
1187,9508334,1.1224,0.003782,-0.29585,-51.7825,-47.7575,-48.1775
1188,9508432,1.035658,0.050752,-0.456524,-53.62,-28.0175,-51.765
1189,9508530,0.9115840000000001,0.09125599999999999,-0.5766939999999999,-52.4825,-14.455,-53.2525
1190,9508628,0.798978,0.08857201,-0.5852341,-45.535,-14.035,-50.2075
1191,9508726,0.753472,0.13078399999999998,-0.55083,-35.14,-20.1775,-47.4425
1192,9508823,0.762012,0.21838000000000002,-0.5124001,-22.68,-26.1625,-46.8125
1193,9508921,0.820816,0.277672,-0.482022,-10.29,-27.335,-49.7525
1194,9509019,0.88633,0.306586,-0.466528,1.47,-26.46,-54.285
1195,9509117,0.968192,0.311222,-0.448716,11.41,-25.83,-58.2225
1196,9509215,1.051274,0.263886,-0.399306,20.0025,-24.64,-57.96
1197,9509313,1.126914,0.141764,-0.357704,26.2325,-20.405,-52.465
1198,9509411,1.17059,-0.010614,-0.314272,28.35,-14.91,-43.015
1199,9509509,1.1825459999999999,-0.12334200000000001,-0.258152,25.585,-11.3925,-31.395
1200,9509607,1.1666860000000001,-0.18239,-0.212646,20.8075,-9.45,-18.76
1201,9509705,1.121912,-0.243146,-0.16226,17.255,-9.24,-5.0575
1202,9509803,1.00589,-0.25681,-0.144448,13.3875,-11.795,8.0675
1203,9509901,0.87474,-0.232776,-0.15189,7.6125,-14.665,17.6225
1204,9509999,0.7771399999999999,-0.18751400000000001,-0.177998,2.415,-14.2275,23.695
1205,9510097,0.698328,-0.162138,-0.22252800000000003,-0.1925,-12.04,28.7
1206,9510195,0.6158561,-0.128588,-0.252784,-0.2275,-14.8225,31.885
1207,9510293,0.5443640000000001,-0.08527801,-0.252296,-0.9275,-20.3525,31.85
1208,9510391,0.507642,-0.03172,-0.221308,-3.4475,-23.485,29.54
1209,9510488,0.530334,-0.01464,-0.19397999999999999,-8.015,-19.8975,26.985
1210,9510586,0.580964,-0.015616,-0.164822,-12.705,-13.3,24.465
1211,9510684,0.655628,-0.018544,-0.137128,-18.4975,-7.4375,21.735
1212,9510782,0.758596,-0.045018,-0.12871,-25.8125,-2.1175,18.97
1213,9510880,0.8913321,-0.049044,-0.14090999999999998,-34.5275,-0.105,16.52
1214,9510978,1.018456,-0.0244,-0.164212,-40.74,-3.185,15.05
1215,9511076,1.1125180000000001,-0.023058000000000002,-0.160552,-42.0525,-12.46,13.3525
1216,9511174,1.107394,-0.04404201,-0.097722,-41.2475,-25.0425,10.5525
1217,9511272,1.0384639999999998,-0.055144000000000006,-0.02074,-41.8775,-32.1825,7.07
1218,9511370,0.9716081,-0.05160601,0.015493999999999999,-44.3275,-31.5175,3.43
1219,9511468,0.913658,-0.029889999999999996,0.008540001,-46.655,-27.9125,0.595
1220,9511566,0.850096,-0.004026,-0.007808001,-49.35,-22.26,-1.505
1221,9511664,0.765062,0.026962,-0.016714,-52.955,-13.2475,-3.5525
1222,9511762,0.6877141,0.04392,-0.012322,-55.6675,-1.89,-5.7225
1223,9511860,0.6681941,0.041968,-0.028304000000000003,-56.49,9.94,-7.9975
1224,9511957,0.71675,0.053924,-0.110776,-53.2525,19.9675,-9.905
1225,9512055,0.8230120999999999,0.092964,-0.21447600000000003,-46.2525,25.5675,-10.8325
1226,9512153,0.948306,0.151036,-0.320372,-35.455,22.4875,-10.0625
1227,9512251,1.012722,0.206058,-0.333304,-19.565,8.645,-6.8425
1228,9512349,1.02846,0.257786,-0.2379,-1.82,-7.9625,-1.3825
1229,9512447,1.003694,0.285846,-0.075396,13.3875,-19.6875,4.2525
1230,9512545,0.990518,0.262422,0.037942000000000004,22.47,-17.395,7.315
1231,9512643,1.027118,0.21142600000000003,0.11016600000000001,22.3475,-3.8675,6.16
1232,9512741,1.188524,0.118218,-0.001464,15.645,7.6475,2.205
1233,9512839,1.397266,0.028792,-0.203984,12.7575,9.625,0.1225
1234,9512937,1.5112139999999998,-0.037088,-0.394426,13.5625,0.175,1.575
1235,9513035,1.538908,-0.050142,-0.5343600000000001,16.94,-17.325,5.915
1236,9513133,1.4599739999999999,-0.011101999999999999,-0.528992,25.0425,-30.4325,15.505
1237,9513231,1.243058,0.06490399999999999,-0.462258,38.15,-32.5675,28.035
1238,9513329,0.978318,0.202154,-0.41907,42.7175,-18.165,37.0475
1239,9513427,0.810446,0.183366,-0.5852341,36.7675,4.69,42.735
1240,9513524,0.79361,0.043676,-0.6633141,32.2175,23.8875,48.9825
1241,9513622,0.767868,0.01403,-0.640744,26.88,31.36,56.98
1242,9513720,0.756888,-0.06539201,-0.6378159999999999,23.0125,25.305,64.9775
1243,9513818,0.7877541,-0.168238,-0.5818181,19.215,12.95,71.7325
1244,9513916,0.8936501,-0.254492,-0.56608,13.0725,2.415,75.6
1245,9514014,1.0673780000000002,-0.302438,-0.5198421,3.465,1.9075,75.25
1246,9514112,1.263554,-0.348188,-0.41602,-9.7125,9.345,69.2825
1247,9514210,1.353834,-0.33318200000000003,-0.342332,-19.635,15.2075,57.155
1248,9514308,1.35054,-0.24046199999999998,-0.335622,-21.525,8.435,41.9475
1249,9514406,1.33956,-0.08808401,-0.318542,-19.18,-3.815,24.08
1250,9514504,1.27185,0.067832,-0.30292600000000003,-17.3425,-6.335,4.445
1251,9514602,1.16266,0.188368,-0.26413000000000003,-12.1625,-5.7225,-12.775
1252,9514700,0.9903959999999999,0.283528,-0.24863600000000002,-9.03,-11.375,-25.5325
1253,9514798,0.830332,0.306586,-0.218502,-2.24,-16.1175,-33.495
1254,9514896,0.7117479999999999,0.32147,-0.23472800000000002,2.8,-11.585,-37.9225
1255,9514994,0.649406,0.222406,-0.23058,11.1125,-5.95,-39.97
1256,9515091,0.565226,0.199348,-0.254004,16.135,-2.94,-39.6025
1257,9515189,0.5368,0.11834000000000001,-0.258762,20.37,-1.785,-38.2025
1258,9515287,0.537898,0.096014,-0.259494,23.7475,-4.2525,-36.8725
1259,9515385,0.5703501,0.035502,-0.23216599999999998,27.1775,-4.025,-36.54
1260,9515483,0.57706,-0.034526,-0.20288599999999998,32.6375,-0.8400001,-36.5225
1261,9515581,0.5978,-0.04331,-0.17848599999999998,35.1225,2.835,-35.805
1262,9515679,0.6527,-0.034892,-0.167628,34.44,5.6175,-35.07
1263,9515777,0.7579859999999999,-0.01647,-0.16530999999999998,34.4575,8.365,-32.97
1264,9515875,0.8731540999999999,0.001464,-0.161406,34.405,8.75,-28.5425
1265,9515973,0.96075,0.057584,-0.134688,34.86,6.4225,-23.3625
1266,9516071,1.0147959999999998,0.07625,-0.07246799999999999,36.4875,2.7475,-18.165
1267,9516169,1.029192,0.07808001,-0.004636001,36.9075,-0.4375,-14.42
1268,9516267,1.006622,0.074786,0.044774,35.8925,-2.625,-10.955
1269,9516365,0.9713639999999999,0.053191999999999996,0.068442,37.45,-2.03,-7.3675
1270,9516463,0.9142680000000001,0.005856,0.07039400000000001,42.6475,1.12,-3.71
1271,9516560,0.833626,-0.03721,0.047580000000000004,48.055,6.44,-0.8925
1272,9516658,0.740052,-0.050752,0.029036000000000003,50.4525,14.245,0.0525
1273,9516756,0.684664,-0.040992,-0.000976,48.755,23.345,-1.2425
1274,9516854,0.682956,-0.033672,-0.063074,44.52,29.8725,-3.1325
1275,9516952,0.76189,-0.045872,-0.18117,39.515,29.855,-4.4625
1276,9517050,0.8727879999999999,-0.071248,-0.329766,32.3575,20.475,-5.6175
1277,9517148,0.9795381,-0.14871800000000002,-0.41760600000000003,23.0125,0.63,-7.0175
1278,9517246,0.98393,-0.235094,-0.263886,10.745,-24.535,-7.245
1279,9517344,0.946842,-0.330376,0.00793,-7.42,-40.25,-6.8425
1280,9517442,0.9651421,-0.351238,0.141276,-34.4575,-33.95,-10.1675
1281,9517540,1.010526,-0.30341399999999996,0.095282,-58.52,-9.8,-15.05
1282,9517638,1.1740059999999999,-0.25424800000000003,0.057584,-66.53501,13.37,-18.69
1283,9517736,1.449482,-0.246074,0.015006,-62.615,27.4925,-22.89
1284,9517834,1.719224,-0.170068,-0.198006,-53.095,28.5425,-27.335
1285,9517931,1.841834,-0.060146000000000005,-0.29877800000000004,-44.905,11.4625,-31.36
1286,9518029,1.842688,-0.0034159999999999998,-0.253394,-37.9925,-12.8625,-36.855
1287,9518127,1.553548,-0.004758,-0.282796,-37.2225,-35.2975,-40.04
1288,9518225,1.263188,0.05612,-0.270474,-42.5425,-48.4925,-40.495
1289,9518323,1.131428,0.15738,-0.356484,-41.5975,-43.1375,-42.5775
1290,9518421,1.0200420000000001,0.18043800000000002,-0.45445,-38.22,-24.01,-47.2675
1291,9518519,0.86864,0.226066,-0.574498,-31.7975,-7.595,-47.005
1292,9518617,0.787998,0.229116,-0.5934081,-19.04,-5.46,-44.7475
1293,9518715,0.757254,0.284016,-0.5665680000000001,-3.2375,-16.3275,-43.4175
1294,9518813,0.760792,0.29829,-0.525698,15.8025,-30.345,-44.8
1295,9518911,0.794708,0.28792,-0.49519799999999997,29.4525,-38.43,-50.4875
1296,9519009,0.8525360000000001,0.242292,-0.4636,36.9775,-41.8775,-58.065
1297,9519107,0.916464,0.203618,-0.432612,41.3525,-43.6625,-64.34751
1298,9519205,0.9713639999999999,0.145302,-0.373198,45.885,-41.7725,-66.60501
1299,9519302,1.032608,0.026474,-0.324764,48.4925,-31.745,-63.8225
1300,9519400,1.1100780000000001,-0.08357,-0.310368,44.905,-17.115,-56.3675
1301,9519498,1.1631479999999998,-0.131028,-0.288774,38.29,-6.1075,-45.29
1302,9519596,1.1805940000000001,-0.17140999999999998,-0.229238,33.6175,-3.9025,-31.64
1303,9519694,1.154364,-0.20996199999999998,-0.163358,30.4325,-8.05,-16.0125
1304,9519792,1.031998,-0.228506,-0.12248800000000001,26.215,-11.9525,-0.5775
1305,9519890,0.9010921000000001,-0.224602,-0.119926,21.1575,-11.06,11.1125
1306,9519988,0.801296,-0.206546,-0.160796,15.995,-6.475,18.41
1307,9520086,0.7199220000000001,-0.20190999999999998,-0.21411,13.3875,-3.2725,23.7475
1308,9520184,0.6320819999999999,-0.188368,-0.24863600000000002,13.0025,-6.8425,27.65
1309,9520282,0.554246,-0.1586,-0.24558600000000003,11.2875,-15.015,28.8925
1310,9520380,0.512278,-0.107116,-0.22057600000000002,6.79,-20.58,27.7025
1311,9520478,0.514718,-0.071004,-0.190686,0.4025,-19.985,25.34
1312,9520576,0.570106,-0.067832,-0.17360599999999998,-6.2825,-15.61,22.1725
1313,9520674,0.650748,-0.082228,-0.153354,-14.105,-11.4275,18.2525
1314,9520771,0.762378,-0.10004,-0.149206,-23.45,-8.2775,14.5075
1315,9520869,0.8958459999999999,-0.10650599999999999,-0.169214,-33.1625,-7.1925,12.25
1316,9520967,1.0199200000000002,-0.094062,-0.18629400000000002,-41.02,-9.415,11.6025
1317,9521065,1.094706,-0.066246,-0.182146,-44.205,-15.4875,12.25
1318,9521163,1.10166,-0.060512,-0.142496,-43.575,-24.5525,12.6875
1319,9521261,1.026508,-0.04819,-0.083204,-44.5025,-32.095,11.4975
1320,9521359,0.9437921,-0.033916,-0.050142,-47.3025,-32.9525,9.345
1321,9521457,0.8851100000000001,0.00366,-0.061975999999999996,-50.435,-28.525,8.085
1322,9521555,0.838018,0.047214,-0.07527400000000001,-52.4825,-22.12,7.3675
1323,9521653,0.7639640999999999,0.08296,-0.07527400000000001,-54.2325,-12.8625,5.8625
1324,9521751,0.684054,0.0976,-0.061488,-56.035,-0.875,3.3075
1325,9521849,0.650382,0.09979600000000001,-0.049532,-57.3475,11.515,-0.42
1326,9521947,0.685762,0.09259801,-0.062464,-58.3625,21.875,-4.865
1327,9522045,0.7666480999999999,0.09418401,-0.114192,-57.4175,27.475,-8.96
1328,9522143,0.8814501,0.091744,-0.16811600000000002,-52.7625,26.6875,-11.4975
1329,9522240,1.007598,0.098332,-0.232654,-43.05,18.795,-11.6025
1330,9522338,1.0706719999999998,0.136152,-0.23692399999999997,-27.9125,3.2025,-8.5925
1331,9522436,1.086776,0.174582,-0.180072,-10.2725,-11.2175,-3.6225
1332,9522534,1.070306,0.226798,-0.134688,4.585,-15.75,2.24
1333,9522632,1.082506,0.243024,-0.14566800000000002,15.925,-12.9675,7.4025
1334,9522730,1.1529,0.223138,-0.212036,24.885,-8.75,11.515
1335,9522828,1.28893,0.22496799999999997,-0.365634,29.6275,-4.8475,15.365
1336,9522926,1.44814,0.23155599999999998,-0.602558,34.4925,-6.0375,20.02
1337,9523024,1.585756,0.244488,-0.5842579999999999,42.07,-9.6775,26.985
1338,9523122,1.61101,0.290604,-0.397598,49.035,-8.7325,36.785
1339,9523220,1.358226,0.302682,-0.262666,56.035,-2.345,44.975
1340,9523318,1.083482,0.09991799999999999,-0.293044,64.2425,5.7575,47.04
1341,9523416,0.93879,-0.085156,-0.403454,55.6325,16.73,45.0975
1342,9523514,0.841556,-0.185074,-0.477996,36.8725,18.9175,42.63
1343,9523612,0.78751,-0.24558600000000003,-0.52582,22.12,10.22,40.6875
1344,9523709,0.755546,-0.322812,-0.5846241,10.5,-3.9025,41.2125
1345,9523807,0.783362,-0.34050199999999997,-0.5814520000000001,-0.805,-17.99,43.2425
1346,9523905,0.864492,-0.343064,-0.571814,-8.96,-24.5175,46.3575
1347,9524003,0.9867360999999999,-0.302194,-0.518012,-14.3675,-19.915,50.015
1348,9524101,1.127402,-0.21276799999999998,-0.44591000000000003,-21.0,-6.3,53.06
1349,9524199,1.23708,-0.108824,-0.373076,-24.185,9.38,53.83
1350,9524297,1.236592,-0.013175999999999998,-0.355508,-22.0325,17.92,51.3975
1351,9524395,1.194868,0.050508,-0.393572,-17.3775,15.8025,45.0625
1352,9524493,1.21329,0.116388,-0.379176,-14.0525,8.5575,34.23
1353,9524591,1.17303,0.138958,-0.338794,-12.4075,2.59,18.1825
1354,9524689,1.0310219999999999,0.15921,-0.281454,-9.6075,-7.8575,1.645
1355,9524787,0.860344,0.166652,-0.26156799999999997,-7.4375,-17.5,-12.39
1356,9524885,0.720532,0.166652,-0.22423600000000002,-4.76,-24.08,-22.9775
1357,9524983,0.6362300000000001,0.155306,-0.21862399999999999,-4.1825,-19.4425,-30.8525
1358,9525080,0.5866979999999999,0.14798599999999998,-0.24034,-4.27,-8.8375,-35.42
1359,9525178,0.54351,0.135054,-0.265838,-2.0475,-2.205,-35.7525
1360,9525276,0.539362,0.110044,-0.267546,2.3975,-2.3625,-32.445
1361,9525374,0.5810860999999999,0.074054,-0.266326,6.09,-4.13,-29.0675
1362,9525472,0.623664,0.038918,-0.259372,9.3975,-2.3625,-27.86
1363,9525570,0.6533100000000001,0.014274,-0.22691999999999998,14.2975,1.75,-27.6675
1364,9525668,0.696376,-0.004392,-0.182268,19.0925,8.6275,-27.895
1365,9525766,0.769088,-0.004392,-0.152988,22.155,17.1325,-28.56
1366,9525864,0.874862,0.0017079999999999999,-0.146278,23.5025,22.9425,-28.84
1367,9525962,0.9729501,0.022203999999999998,-0.149206,23.8175,22.2075,-28.0
1368,9526060,1.031144,0.025376,-0.12712400000000001,24.185,14.175,-25.48
1369,9526158,1.042246,0.019886,-0.08625401,23.8,2.905,-22.155
1370,9526256,1.006134,0.009516001,-0.04867801,22.225,-8.89,-18.9175
1371,9526354,0.9567241,0.012078,-0.032695999999999996,21.2275,-16.6075,-15.89
1372,9526452,0.912438,0.01647,-0.02562,21.84,-17.4825,-12.7225
1373,9526549,0.8729100000000001,0.021228,-0.016714,24.115,-14.2975,-9.765
1374,9526647,0.8210601000000001,0.013908000000000002,-0.002806,27.5625,-8.925,-7.21
1375,9526745,0.760426,0.007198,0.011224,30.205,-2.0825,-5.1275
1376,9526843,0.70638,0.017202000000000002,0.007198,31.045,7.07,-3.5875
1377,9526941,0.680516,0.042212,-0.021106,29.26,17.7975,-3.0625
1378,9527039,0.69662,0.057584,-0.082228,24.78,27.615,-2.695
1379,9527137,0.7721380999999999,0.04404201,-0.161406,20.195,31.885,-2.0825
1380,9527235,0.8913321,-0.003172,-0.30182800000000004,15.855,26.845,-1.19
1381,9527333,1.01016,-0.07564,-0.430904,8.7325,10.3775,-0.945
1382,9527431,1.059326,-0.161894,-0.34465,-1.7675,-13.93,-0.4025
1383,9527529,1.03578,-0.25071,-0.09784401,-13.965,-34.0375,0.385
1384,9527627,1.022116,-0.29585,0.05843801,-31.325,-37.4325,-1.1725
1385,9527725,1.024556,-0.258152,0.07027201,-47.775,-21.7175,-6.195
1386,9527823,1.124352,-0.193004,0.049288,-55.1075,1.715,-12.6525
1387,9527920,1.3527360000000002,-0.14896199999999998,-0.042089999999999995,-53.9875,19.5125,-20.7375
1388,9528018,1.597834,-0.10858,-0.31659,-50.7675,21.2275,-29.3475
1389,9528116,1.720688,-0.068442,-0.41113999999999995,-46.2175,3.9025,-37.0125
1390,9528214,1.7315459999999998,-0.068686,-0.34782199999999996,-41.4575,-20.79,-45.29
1391,9528312,1.513776,-0.07356601,-0.284016,-43.68,-38.6575,-49.28
1392,9528410,1.291858,0.00427,-0.134688,-48.09,-42.5775,-48.58
1393,9528508,1.1300860000000001,0.051972000000000004,-0.229116,-52.3425,-33.0225,-47.915
1394,9528606,0.9946659999999999,0.088328,-0.407602,-57.0325,-16.345,-47.88
1395,9528704,0.8516819999999999,0.15189,-0.5388741,-50.715,-8.3125,-44.205
1396,9528802,0.755302,0.171166,-0.569862,-39.6375,-9.6775,-41.16
1397,9528900,0.732854,0.201178,-0.537288,-24.5875,-19.81,-38.6925
1398,9528998,0.742492,0.239608,-0.518622,-10.8325,-30.7475,-38.9725
1399,9529096,0.7931220999999999,0.24326799999999998,-0.48861000000000004,1.4525,-34.8425,-41.545
1400,9529194,0.859978,0.238632,-0.477996,10.64,-33.1275,-45.395
1401,9529292,0.9406200000000001,0.22167399999999998,-0.462624,16.9575,-28.91,-49.3675
1402,9529389,1.022116,0.17128800000000002,-0.412238,22.155,-23.6075,-51.345
1403,9529487,1.0858,0.064416,-0.358802,25.935,-17.22,-49.98
1404,9529585,1.12301,-0.047214,-0.33000999999999997,25.97,-10.8675,-45.36
1405,9529683,1.118008,-0.10943399999999999,-0.308294,22.0675,-7.4375,-38.3075
1406,9529781,1.093852,-0.134932,-0.273036,18.34,-6.895,-28.84
1407,9529879,1.060546,-0.163236,-0.22996999999999998,16.695,-8.75,-17.465
1408,9529977,0.9822219999999999,-0.176656,-0.20178800000000002,16.3275,-11.2525,-4.9525
1409,9530075,0.856074,-0.168726,-0.205692,14.1225,-11.2,6.195
1410,9530173,0.7483479999999999,-0.150792,-0.21472,10.5875,-9.485,13.755
1411,9530271,0.678686,-0.139812,-0.227408,7.105,-7.0,18.4975
1412,9530369,0.6283,-0.129198,-0.24558600000000003,5.39,-6.3175,21.1925
1413,9530467,0.5846241,-0.10223600000000001,-0.254492,4.69,-8.96,22.2425
1414,9530565,0.561322,-0.062952,-0.235704,2.6425,-11.165,20.9125
1415,9530663,0.573278,-0.026962,-0.20691199999999998,-0.63,-8.645,18.8825
1416,9530760,0.637938,-0.024278,-0.177022,-4.095,-2.8875,16.1
1417,9530858,0.716018,-0.016836,-0.153598,-7.7175,2.87,13.125
1418,9530956,0.81984,-0.031476,-0.14798599999999998,-13.4575,7.9275,9.3975
1419,9531054,0.9337880999999999,-0.039284,-0.157868,-20.545,9.5725,5.9675
1420,9531152,1.038586,-0.027206,-0.16043,-26.74,5.5475,3.43
1421,9531250,1.1163,-0.022203999999999998,-0.149816,-29.0325,-2.625,1.8725
1422,9531348,1.114226,-0.030987999999999998,-0.10614000000000001,-27.9825,-12.81,0.1225
1423,9531446,1.054446,-0.031476,-0.05429,-28.07,-19.565,-2.1525
1424,9531544,0.9886881,-0.01769,-0.029401999999999998,-30.8,-20.37,-4.6375
1425,9531642,0.9252481,0.005978,-0.025376,-34.5975,-18.165,-6.4925
1426,9531740,0.8582700999999999,0.039894,-0.032695999999999996,-39.1475,-13.7375,-7.8225
1427,9531837,0.786656,0.07442,-0.047580000000000004,-43.6975,-7.665,-9.205
1428,9531935,0.727974,0.07490801,-0.06600201,-47.1975,0.4725,-11.1125
1429,9532033,0.710284,0.061366,-0.103334,-47.985,10.0625,-13.195
1430,9532131,0.7473721,0.06636801,-0.158844,-45.395,18.0075,-14.945
1431,9532229,0.8219139999999999,0.09235399999999999,-0.22326,-39.515,19.215,-15.1725
1432,9532327,0.8998719999999999,0.121878,-0.293898,-30.2575,10.92,-13.405
1433,9532425,0.957944,0.14993800000000002,-0.29743600000000003,-17.5875,-3.6225,-10.64
1434,9532523,0.992714,0.17921800000000002,-0.225212,-3.7625,-16.5375,-6.93
1435,9532621,0.962458,0.22191799999999998,-0.10248,9.0825,-24.185,-2.2225
1436,9532719,0.9587979999999999,0.233996,0.008540001,17.0625,-21.525,0.9275
1437,9532817,1.0230920000000001,0.193126,-0.043798000000000004,18.8125,-11.9,1.19
1438,9532914,1.15839,0.134688,-0.12688,18.9875,-3.255,0.14
1439,9533012,1.3589579999999999,0.10675,-0.274378,18.655,-0.2275,0.6475
1440,9533110,1.527318,0.097478,-0.49837,21.56,-6.0375,4.4625
1441,9533208,1.6017379999999999,0.10797000000000001,-0.471286,26.8975,-19.0575,11.795
1442,9533306,1.538054,0.15555,-0.339404,33.5475,-25.8475,23.03
1443,9533404,1.255868,0.22630999999999998,-0.27084,44.0825,-20.9825,35.1925
1444,9533502,0.9829540000000001,0.12456199999999999,-0.35526399999999997,52.885,-4.9875,40.4775
1445,9533600,0.8690061,-0.016714,-0.48153409999999996,49.5075,14.84,41.2475
1446,9533698,0.7861680999999999,-0.07527400000000001,-0.5602239999999999,39.095,21.56,43.2075
1447,9533796,0.729072,-0.111752,-0.5648601,32.7775,16.17,45.0275
1448,9533894,0.70577,-0.14566800000000002,-0.581696,26.8275,8.47,47.0225
1449,9533992,0.730902,-0.223504,-0.5810860999999999,23.2575,-3.0975,50.1375
1450,9534090,0.8148380000000001,-0.229848,-0.564128,17.1325,-11.76,52.4125
1451,9534187,0.9496479999999999,-0.22411399999999998,-0.526674,10.815,-10.4125,53.27
1452,9534285,1.118252,-0.222162,-0.453718,4.3575,-0.07,51.24
1453,9534383,1.2469620000000001,-0.188124,-0.398208,-0.5775,12.565,46.305
1454,9534481,1.2634319999999999,-0.1037,-0.375638,0.4025,15.2075,38.885
1455,9534579,1.207678,0.007320001,-0.3904,5.3375,7.805,29.1025
1456,9534677,1.2147540000000001,0.12322000000000001,-0.38503200000000004,8.925,3.71,15.0675
1457,9534775,1.184864,0.192638,-0.34782199999999996,11.6375,4.3575,-3.0975
1458,9534873,1.072624,0.24278000000000002,-0.29438600000000004,17.7275,-3.185,-19.74
1459,9534971,0.9333,0.267546,-0.25217399999999995,23.835,-12.985,-32.34
1460,9535069,0.812276,0.245952,-0.22386999999999999,29.1375,-16.065,-42.21
1461,9535167,0.74847,0.19825,-0.22801799999999997,33.1275,-11.9175,-49.0875
1462,9535265,0.7068681,0.16811600000000002,-0.245342,34.9125,-5.2675,-52.4475
1463,9535363,0.67466,0.13456600000000002,-0.262178,38.115,-0.875,-52.7625
1464,9535460,0.659654,0.09186601,-0.265472,43.4875,0.0525,-50.2075
1465,9535558,0.6691699999999999,0.062098,-0.254736,47.95,-1.0675,-46.2175
1466,9535656,0.696864,0.038064,-0.238754,51.9925,-0.945,-42.21
1467,9535754,0.7296819999999999,0.024034,-0.202398,55.65,2.3975,-39.445
1468,9535852,0.7782380999999999,0.021472,-0.17202,58.4325,8.1375,-37.7125
1469,9535950,0.833382,0.047824,-0.15494000000000002,60.235,13.72,-36.05
1470,9536048,0.9015799999999999,0.066734,-0.14786400000000002,61.8625,16.1,-33.8975
1471,9536146,0.9602620999999999,0.08430201,-0.136518,63.1575,15.365,-30.9925
1472,9536244,1.01016,0.077836,-0.10675,63.4725,13.335,-27.4925
1473,9536342,1.039806,0.061,-0.06405001,62.3525,7.6125,-23.5725
1474,9536440,1.013088,0.030866,-0.021472,61.0225,-4.585,-19.53
1475,9536537,0.953674,-0.005978,0.007076001,60.1125,-13.6675,-15.9425
1476,9536635,0.8805960999999999,-0.038796,0.0305,59.92,-14.525,-12.8975
1477,9536733,0.803858,-0.06466001,0.039894,60.9175,-8.1725,-10.43
1478,9536831,0.732244,-0.086132,0.030866,61.915,1.5225,-8.855
1479,9536929,0.674538,-0.10223600000000001,0.005002,60.3575,10.5175,-8.4875
1480,9537027,0.658922,-0.12029200000000001,-0.026595999999999998,56.9275,16.905,-8.8375
1481,9537125,0.6882020000000001,-0.144082,-0.05819401,52.5525,20.3175,-9.5025
1482,9537223,0.7388319999999999,-0.10809200000000001,-0.12895399999999999,46.305,20.79,-9.6425
1483,9537321,0.821792,-0.058316,-0.256932,35.49,17.71,-10.255
1484,9537419,0.9143899999999999,-0.067588,-0.292068,23.345,9.765,-12.81
1485,9537516,0.975878,-0.125782,-0.258762,12.39,-2.7825,-15.2775
1486,9537614,1.0025959999999998,-0.179096,-0.19580999999999998,0.105,-15.575,-16.765
1487,9537712,1.0107700000000002,-0.21679400000000001,-0.08113001,-16.1875,-20.9125,-17.9375
1488,9537810,1.016626,-0.19556600000000002,0.000488,-30.94,-16.5025,-18.585
1489,9537908,1.050176,-0.136152,0.039894,-37.73,-7.9275,-17.7975
1490,9538006,1.1455799999999998,-0.067832,0.010492,-38.15,1.1725,-16.5375
1491,9538104,1.336632,-0.05246,-0.248148,-38.675,6.685,-16.9925
1492,9538202,1.5309780000000002,-0.12261,-0.380396,-40.705,2.975,-19.425
1493,9538300,1.656394,-0.168238,-0.322324,-34.7725,-12.5475,-23.5725
1494,9538397,1.625284,-0.203374,-0.20679,-29.7675,-25.165,-30.2225
1495,9538495,1.369694,-0.152134,-0.12932000000000002,-31.6925,-30.835,-38.3075
1496,9538593,1.158756,-0.040626,-0.12212200000000001,-35.91,-33.285,-43.19
1497,9538691,1.083604,0.03538,-0.25851799999999997,-32.725,-19.4425,-46.27
1498,9538789,1.001498,0.188612,-0.41785,-27.65,-2.94,-48.8075
1499,9538887,0.9541620000000001,0.2501,-0.533994,-13.335,2.7475,-49.7875
1500,9538985,0.9203680000000001,0.337574,-0.598532,2.2575,-5.0575,-51.87
1501,9539083,0.883768,0.361608,-0.592432,22.645,-24.78,-53.83
1502,9539181,0.870714,0.349408,-0.5504641,39.1125,-38.9375,-56.6125
1503,9539279,0.8765700000000001,0.320738,-0.48848800000000003,49.5075,-44.3975,-59.6575
1504,9539377,0.8960899999999999,0.26291,-0.437492,54.7925,-41.7375,-62.2825
1505,9539474,0.942572,0.15823399999999999,-0.410408,56.5425,-34.965,-63.2625
1506,9539572,1.001498,0.00976,-0.367464,56.6825,-26.075,-62.1425
1507,9539670,1.042612,-0.077958,-0.325984,54.0225,-15.3475,-58.7475
1508,9539768,1.072624,-0.135298,-0.29731399999999997,50.0325,-5.7575,-52.2725
1509,9539866,1.08336,-0.171654,-0.26608200000000004,47.075,-2.03,-42.0
1510,9539964,1.063352,-0.17934,-0.22118600000000002,45.08,-5.4075,-28.7875
1511,9540062,1.011868,-0.196542,-0.164578,43.715,-10.8325,-14.2275
1512,9540160,0.907192,-0.174216,-0.142008,41.8075,-11.6375,-0.9975
1513,9540258,0.799466,-0.15494000000000002,-0.152988,38.5525,-8.5225,8.295
1514,9540356,0.721264,-0.118584,-0.17446,35.245,-4.55,13.16
1515,9540454,0.69052,-0.135054,-0.202398,33.04,-1.47,14.0525
1516,9540551,0.654042,-0.122366,-0.24363400000000002,31.815,0.035,13.93
1517,9540649,0.632326,-0.094306,-0.260226,28.8575,-0.9625,11.8125
1518,9540747,0.632448,-0.061854,-0.241682,24.43,-2.52,8.6275
1519,9540845,0.6645340000000001,-0.039528,-0.209718,19.81,-1.925,5.355
1520,9540943,0.727608,-0.032330000000000005,-0.184098,15.6625,1.1375,2.3975
1521,9541041,0.818742,-0.030622000000000003,-0.169946,12.6525,5.4075,0.0
1522,9541139,0.928176,-0.025986000000000002,-0.170312,9.73,8.89,-1.2425
1523,9541237,1.018334,-0.009272001,-0.169458,6.93,6.825,-1.5225
1524,9541335,1.1095899999999999,-0.004514,-0.169458,5.425,-0.3675,-1.75
1525,9541433,1.113494,0.01037,-0.144204,6.055,-10.465,-1.47
1526,9541531,1.042612,0.010248,-0.101626,7.9275,-18.6025,-2.2225
1527,9541628,0.9890540000000001,0.003904,-0.078446,7.77,-20.16,-4.2175
1528,9541726,0.95099,-0.012688,-0.085156,5.74,-18.9,-6.545
1529,9541824,0.916342,-0.033184,-0.089914,3.6925,-18.0775,-8.6975
1530,9541922,0.8862081,-0.03965,-0.08649801,1.8025,-17.0975,-10.78
1531,9542020,0.838018,-0.021106,-0.07991000000000001,-0.63,-15.19,-13.4575
1532,9542118,0.777384,0.009028000999999999,-0.062586,-3.6575,-11.725,-16.8875
1533,9542216,0.734684,0.030012,-0.056729999999999996,-6.2125,-5.53,-20.79
1534,9542314,0.738588,0.030744,-0.068564,-7.8225,1.645,-24.045
1535,9542412,0.7821421,0.02501,-0.12248800000000001,-7.6825,6.2125,-26.1625
1536,9542510,0.8554641,0.023668,-0.19215,-5.6,5.32,-27.1425
1537,9542608,0.937448,0.039772,-0.239608,-2.065,-1.4175,-26.7575
1538,9542705,1.001498,0.07344400000000001,-0.260592,3.255,-13.09,-25.0075
1539,9542803,1.0201639999999998,0.11955999999999999,-0.24326799999999998,10.0275,-24.885,-22.3125
1540,9542901,1.000034,0.167872,-0.16909200000000002,17.7625,-30.8175,-19.5825
1541,9542999,0.967216,0.200812,-0.058926,23.45,-29.715,-17.395
1542,9543097,0.9691681000000001,0.19337000000000001,0.0034159999999999998,23.6425,-22.0325,-16.17
1543,9543195,1.037488,0.123708,-0.055144000000000006,20.265,-9.9925,-15.785
1544,9543293,1.1285,0.070882,-0.12749000000000002,18.4975,-3.15,-14.595
1545,9543391,1.2025540000000001,0.023424,-0.277794,16.9925,-5.3025,-11.725
1546,9543489,1.2730700000000001,-0.040626,-0.51545,21.28,-11.1825,-6.8425
1547,9543587,1.308938,-0.027572000000000003,-0.501054,27.7375,-15.89,2.1525
1548,9543685,1.27063,0.035136,-0.53741,32.7775,-15.3475,14.8575
1549,9543782,1.124474,0.10321199999999998,-0.5172800999999999,44.1525,-4.235,25.97
1550,9543880,0.9444020000000001,0.127002,-0.537898,52.71,6.3175,33.215
1551,9543978,0.8636379999999999,0.083204,-0.5267960999999999,58.1525,12.705,36.82
1552,9544076,0.817278,0.09028,-0.5152061,54.95,21.7875,40.1975
1553,9544174,0.783118,-0.004758,-0.53985,53.585,29.68,43.33
1554,9544272,0.8049561,-0.12651400000000002,-0.568032,52.36,25.7075,45.01
1555,9544370,0.901458,-0.19959200000000002,-0.573522,48.965,15.8375,44.17
1556,9544468,1.034316,-0.18239,-0.545096,44.31,10.465,40.2325
1557,9544566,1.17486,-0.164944,-0.46616199999999997,39.76,11.095,31.8675
1558,9544664,1.286246,-0.11955999999999999,-0.399062,37.835,14.0525,19.2675
1559,9544762,1.352248,-0.016104,-0.377224,41.8425,13.51,4.655
1560,9544859,1.375916,0.118218,-0.358802,49.385,8.6975,-9.6425
1561,9544957,1.304424,0.25607800000000003,-0.34172199999999997,54.0575,2.135,-24.1675
1562,9545055,1.17791,0.329888,-0.30073,60.3225,-3.4825,-38.045
1563,9545153,1.032974,0.31781,-0.259494,67.41001,-4.6375,-48.755
1564,9545251,0.9239059999999999,0.288408,-0.256322,73.185,-2.9925,-54.67
1565,9545349,0.847046,0.23533800000000002,-0.25925,80.325,-0.14,-56.525
1566,9545447,0.792146,0.23838800000000002,-0.260348,85.5225,0.8400001,-55.2825
1567,9545545,0.732244,0.239242,-0.24644000000000002,89.93251,1.3825,-52.955
1568,9545643,0.69235,0.200324,-0.23472800000000002,95.4625,3.6575,-51.555
1569,9545740,0.712236,0.102114,-0.217648,99.9075,6.545,-51.135
1570,9545838,0.7390760000000001,0.061366,-0.21777,101.8675,7.63,-50.6975
1571,9545936,0.7687221,0.01952,-0.20984,106.4175,6.58,-50.9425
1572,9546034,0.793488,-0.0064659999999999995,-0.20105599999999998,111.3175,3.85,-52.36
1573,9546132,0.798856,-0.002318,-0.184098,113.225,-2.9925,-54.9325
1574,9546230,0.7984899999999999,0.04867801,-0.173484,113.8025,-8.9425,-56.7175
1575,9546328,0.817278,0.061610000000000005,-0.145058,117.9325,-7.7875,-56.595
1576,9546426,0.835822,0.071004,-0.11431400000000001,121.17,-2.66,-54.1625
1577,9546524,0.8510719999999999,0.097234,-0.088328,122.395,3.3775,-50.54
1578,9546622,0.8735200000000001,0.082594,-0.060634,121.9575,7.21,-46.5325
1579,9546720,0.8760819999999999,0.052948,-0.043066,121.9225,5.3725,-41.475
1580,9546817,0.8527800999999999,0.01891,-0.036844,121.7825,0.5425,-35.4375
1581,9546915,0.822768,-0.028304000000000003,-0.035868000000000004,122.3075,-0.28,-29.6275
1582,9547013,0.803736,-0.089426,-0.022448,123.5675,3.535,-24.85
1583,9547111,0.7926340000000001,-0.137738,-0.010004,124.3375,7.7175,-21.49
1584,9547209,0.800076,-0.16897,-0.019642,122.9725,9.52,-19.6875
1585,9547307,0.8309421,-0.17738800000000002,-0.043554,119.245,8.68,-19.1975
1586,9547405,0.856074,-0.17202,-0.065148,114.03,5.495,-19.6875
1587,9547503,0.8880380999999999,-0.151402,-0.107116,107.835,2.1,-21.35
1588,9547601,0.9242720999999999,-0.108946,-0.184098,96.5125,-0.5775,-24.325
1589,9547699,0.960628,-0.12175599999999999,-0.215086,81.48001,-2.4675,-28.28
1590,9547796,1.013454,-0.150304,-0.2318,67.6375,-4.515,-31.9025
1591,9547894,1.053226,-0.162748,-0.23692399999999997,53.165,-7.735,-34.8775
1592,9547992,1.040904,-0.19642,-0.14884,37.17,-9.31,-36.33
1593,9548090,0.9989360999999999,-0.18556199999999998,-0.029768,23.3625,-6.475,-34.3525
1594,9548188,0.9768540000000001,-0.11943800000000002,0.047580000000000004,12.705,-1.3125,-29.8725
1595,9548286,0.975024,-0.03538,0.079422,7.4375,4.1825,-24.71
1596,9548384,1.0147959999999998,0.03294,0.021228,7.2275,9.52,-20.6675
1597,9548482,1.078236,0.0976,-0.07625,10.4125,10.6925,-19.3725
1598,9548580,1.1514360000000001,0.117974,-0.265838,17.2725,7.105,-20.72
1599,9548678,1.22061,0.08405800000000001,-0.370758,24.0275,-1.295,-23.8
1600,9548776,1.278804,0.018422,-0.40516199999999997,32.2175,-11.5325,-27.3175
1601,9548874,1.3466360000000002,-0.041358,-0.489342,36.7675,-16.7475,-33.635
1602,9548971,1.34261,-0.036233999999999995,-0.541802,32.865,-18.6025,-42.9625
1603,9549069,1.346392,-0.153232,-0.44383599999999995,30.4675,-15.8025,-54.145
1604,9549167,1.233542,-0.214354,-0.34111199999999997,36.3125,-7.49,-63.525
1605,9549265,1.006622,-0.10321199999999998,-0.371246,43.225,1.8025,-69.7025
1606,9549363,0.882182,0.019275999999999998,-0.411384,50.3825,11.34,-74.4975
1607,9549461,0.8787661,0.144326,-0.45713400000000004,59.4475,16.8175,-76.9825
1608,9549559,0.9087780000000001,0.23082399999999997,-0.487634,72.31,9.0475,-77.49
1609,9549657,0.9330560999999999,0.262056,-0.455182,85.96,-8.33,-76.195
1610,9549755,0.9618481,0.26766799999999996,-0.40443,95.00751,-22.75,-73.15
1611,9549853,0.9921040999999999,0.246196,-0.358192,98.315,-29.8025,-69.0025
1612,9549951,1.0504200000000001,0.188124,-0.30487800000000004,98.5075,-27.475,-64.1375
1613,9550048,1.12606,0.10760399999999999,-0.263398,96.88,-16.31,-58.765
1614,9550146,1.1685159999999999,0.017446,-0.25803000000000004,94.09751,-3.325,-51.975
1615,9550244,1.179984,-0.071858,-0.259982,92.155,3.5525,-43.4
1616,9550342,1.133014,-0.13969,-0.23729,92.7325,0.77,-33.4775
1617,9550440,1.0431,-0.182024,-0.18178,95.515,-5.7925,-24.2725
1618,9550538,0.9302501,-0.173362,-0.138104,98.1575,-6.335,-18.06
1619,9550636,0.858392,-0.152134,-0.127246,99.435,-0.2625,-14.3325
1620,9550734,0.84241,-0.10394400000000001,-0.14701,98.385,6.2475,-10.5525
1621,9550832,0.81679,-0.053314,-0.192638,96.4075,8.4525,-7.14
1622,9550930,0.7816541,-0.02684,-0.22667600000000002,95.62,6.0375,-7.595
1623,9551028,0.7565221,-0.008906,-0.231068,94.81501,4.27,-10.4475
1624,9551125,0.7721380999999999,0.00305,-0.21362199999999998,93.485,5.8975,-13.5975
1625,9551223,0.829356,0.00305,-0.191174,91.8925,8.2075,-15.96
1626,9551321,0.8843781,0.002074,-0.18141400000000002,90.44001,7.28,-15.82
1627,9551419,0.9317141,-0.011712,-0.165554,88.32251,2.275,-14.665
1628,9551517,0.9616040000000001,-0.024644,-0.15237799999999999,84.6825,-4.5325,-12.985
1629,9551615,0.9562360999999999,-0.041846,-0.131272,78.96,-11.06,-11.1825
1630,9551713,0.9311040999999999,-0.056852,-0.11846199999999998,72.45,-13.9825,-10.4125
1631,9551811,0.9091440000000001,-0.07991000000000001,-0.120902,67.025,-13.8075,-11.3575
1632,9551909,0.8973101000000001,-0.11736400000000001,-0.12749000000000002,64.295,-13.755,-13.055
1633,9552006,0.8841341,-0.141032,-0.138226,62.4575,-14.035,-15.225
1634,9552104,0.877058,-0.15579400000000002,-0.13725,61.005,-15.1025,-17.535
1635,9552202,0.8753501,-0.149328,-0.147742,59.0975,-16.3275,-20.1425
1636,9552300,0.855708,-0.121268,-0.10650599999999999,56.42,-16.3975,-23.24
1637,9552398,0.8383841000000001,-0.08649801,-0.075396,53.0775,-13.9825,-27.685
1638,9552496,0.8309421,-0.057339999999999995,-0.07588400000000001,50.4,-9.7475,-32.4975
1639,9552594,0.8256960999999999,-0.040382,-0.08881599,48.0725,-4.9175,-36.8725
1640,9552692,0.838506,-0.037698,-0.10223600000000001,45.185,-1.225,-40.075
1641,9552789,0.8701040000000001,-0.043432,-0.11541199999999999,41.825,-0.2275,-41.23
1642,9552887,0.9235399999999999,-0.055510000000000004,-0.13054000000000002,38.115,-2.065,-40.0925
1643,9552985,0.9889319999999999,-0.071248,-0.171532,34.545,-6.16,-36.8375
1644,9553083,1.050176,-0.08430201,-0.19642,32.76,-11.025,-32.165
1645,9553181,1.096902,-0.083204,-0.19739600000000002,31.2725,-14.35,-26.985
1646,9553279,1.102758,-0.061975999999999996,-0.162748,29.89,-15.3475,-22.0675
1647,9553377,1.079334,-0.031842,-0.112606,27.9125,-13.3875,-18.5325
1648,9553475,1.046394,-0.007198,-0.066124,24.9375,-10.115,-16.835
1649,9553572,1.034438,-0.007442,-0.054046000000000004,21.2975,-7.7,-16.4675
1650,9553670,1.0614,-0.029158,-0.049166,18.9175,-5.6175,-15.995
1651,9553768,1.105198,-0.030987999999999998,-0.094062,18.375,-4.27,-15.5925
1652,9553866,1.151558,-0.033306,-0.141398,20.02,-4.06,-15.085
1653,9553964,1.1834,-0.038796,-0.300852,24.3775,-5.215,-13.755
1654,9554062,1.2136559999999998,-0.02806,-0.468846,33.04,-3.6575,-10.745
1655,9554160,1.215242,0.026595999999999998,-0.49031800000000003,39.655,-1.1375,-5.32
1656,9554258,1.177422,0.097234,-0.544852,46.3575,-1.645,2.5725
1657,9554355,1.102758,0.155428,-0.5967021,55.7725,1.4525,11.13
1658,9554453,0.9951540000000001,0.211792,-0.579012,63.98,7.4025,19.2675
1659,9554551,0.8784,0.273402,-0.51118,67.13,14.6125,24.745
1660,9554649,0.7686,0.18068199999999998,-0.49129399999999995,69.51,22.2425,26.95
1661,9554747,0.68747,0.012078,-0.49227,72.485,23.8875,26.53
1662,9554845,0.674782,-0.11541199999999999,-0.49568599999999996,69.86,18.5325,24.2375
1663,9554943,0.720532,-0.17921800000000002,-0.502274,64.715,11.375,20.86
1664,9555041,0.811666,-0.18727,-0.5009319999999999,59.2725,5.705,16.0125
1665,9555138,0.9225639999999999,-0.168482,-0.484584,54.9325,1.2075,9.5375
1666,9555236,1.048712,-0.10540799999999999,-0.444568,54.81,-0.77,0.7
1667,9555334,1.1716879999999998,-0.006832001,-0.39613400000000004,59.6575,2.765,-9.2925
1668,9555432,1.260626,0.12358599999999999,-0.38856999999999997,69.2475,8.295,-18.095
1669,9555530,1.28039,0.262178,-0.391986,79.555,7.805,-25.8125
1670,9555628,1.207678,0.370026,-0.37637,86.905,1.4,-33.67
1671,9555726,1.07726,0.42212,-0.330254,93.59,-4.48,-42.7175
1672,9555824,0.951356,0.376736,-0.290238,101.955,-6.2475,-51.31
1673,9555922,0.8504620999999999,0.308172,-0.274134,110.2325,-6.965,-57.6975
1674,9556019,0.787998,0.24644000000000002,-0.277794,116.9875,-7.35,-62.4925
1675,9556117,0.749324,0.173484,-0.282796,122.2025,-6.4225,-66.2725
1676,9556215,0.733586,0.137006,-0.287188,126.8225,-3.185,-68.67
1677,9556313,0.7496901,0.094062,-0.279014,132.72,0.6125,-69.9825
1678,9556411,0.77287,0.06575800000000001,-0.25522399999999995,140.56,2.87,-70.5075
1679,9556509,0.79361,0.053070000000000006,-0.22814,148.33,4.06,-69.86
1680,9556607,0.80642,0.063684,-0.193614,154.245,4.2175,-68.53
1681,9556705,0.8178880999999999,0.079666,-0.16226,157.01,5.7225,-67.0075
1682,9556802,0.839482,0.101016,-0.146278,158.655,10.22,-65.2575
1683,9556900,0.8862081,0.12212200000000001,-0.1403,160.65,15.19,-63.42
