,T,ax,ay,az,gx,gy,gz
0,181534,0.547292,-0.022203999999999998,-0.656116,16.4325,-16.345,-16.6075
1,181685,0.5694961,-0.01464,-0.7449321,82.285,-99.575,-113.155
2,181781,0.5968241,-0.02806,-0.792756,43.26,-169.3825,-171.5
3,181877,0.6009720000000001,-0.029768,-0.791048,47.075,-132.9125,-58.73
4,181974,0.600484,-0.028792,-0.793244,3.955,-8.8025,-5.215
5,182070,0.5987760999999999,-0.02806,-0.79178,2.1,-3.4825,-2.975
6,182166,0.599508,-0.027327999999999998,-0.7937320999999999,2.1525,-3.5175,-2.9225
7,182262,0.6019479999999999,-0.030744,-0.792756,2.135,-3.5875,-2.94
8,182359,0.599996,-0.031232,-0.79422,2.1525,-3.4825,-2.9225
9,182455,0.601216,-0.030987999999999998,-0.791292,2.2225,-3.4125,-2.905
10,182551,0.5997520000000001,-0.029524,-0.796172,2.1175,-3.465,-2.975
11,182647,0.60024,-0.03172,-0.791536,2.1175,-3.4125,-2.8875
12,182744,0.602436,-0.02928,-0.792024,2.135,-3.3075,-2.94
13,182840,0.60024,-0.0305,-0.793976,2.1525,-3.3425,-3.0625
14,182936,0.6019479999999999,-0.032695999999999996,-0.7937320999999999,2.0825,-3.395,-3.0275
15,183032,0.602436,-0.0305,-0.794708,2.0825,-3.395,-3.115
16,183129,0.599508,-0.032695999999999996,-0.793488,2.0125,-3.43,-3.1675
17,183225,0.598288,-0.032451999999999995,-0.793976,1.995,-3.4125,-3.3075
18,183321,0.5987760999999999,-0.034404000000000004,-0.7951961,1.9075,-3.36,-3.36
19,183418,0.5980439999999999,-0.0305,-0.796416,1.9075,-3.185,-3.3775
20,183514,0.599264,-0.030744,-0.793488,1.89,-3.08,-3.3425
21,183610,0.6029241,-0.03172,-0.7937320999999999,1.9075,-3.01,-3.36
22,183706,0.6009720000000001,-0.03172,-0.793976,1.96,-3.115,-3.3425
23,183803,0.60268,-0.032451999999999995,-0.794952,1.9425,-2.9925,-3.395
24,183899,0.60146,-0.031476,-0.794708,1.96,-3.01,-3.4125
25,183995,0.6021920000000001,-0.028548,-0.792024,1.9425,-2.94,-3.3425
26,184091,0.602436,-0.032208,-0.792756,1.8725,-3.0975,-3.36
27,184188,0.6036560999999999,-0.03172,-0.7944641,1.925,-3.15,-3.4475
28,184284,0.60512,-0.031964,-0.793976,1.9425,-3.185,-3.395
29,184380,0.604388,-0.033672,-0.792024,1.9075,-3.22,-3.3775
30,184476,0.603168,-0.031232,-0.7929999999999999,1.855,-3.2375,-3.325
31,184573,0.604632,-0.0305,-0.793244,1.925,-3.395,-3.3425
32,184669,0.602436,-0.031964,-0.7944641,1.855,-3.535,-3.3075
33,184765,0.6034121,-0.032695999999999996,-0.792024,1.8025,-3.465,-3.29
34,184861,0.60268,-0.032208,-0.793244,1.855,-3.4825,-3.3775
35,184958,0.604388,-0.030012,-0.7937320999999999,1.7675,-3.5,-3.36
36,185054,0.60268,-0.03172,-0.791292,1.89,-3.465,-3.325
37,185150,0.603168,-0.031476,-0.7929999999999999,1.75,-3.43,-3.3425
38,185246,0.601216,-0.033916,-0.79422,1.6975,-3.535,-3.43
39,185343,0.6019479999999999,-0.030256,-0.792512,1.6975,-3.605,-3.43
40,185439,0.6019479999999999,-0.031232,-0.7929999999999999,1.6625,-3.6575,-3.4125
41,185535,0.601704,-0.031232,-0.793976,1.715,-3.675,-3.5
42,185631,0.6029241,-0.0305,-0.792024,1.715,-3.5875,-3.4475
43,185728,0.6021920000000001,-0.031232,-0.792024,1.645,-3.5875,-3.3775
44,185824,0.600484,-0.030987999999999998,-0.789828,1.7325,-3.535,-3.3075
45,185920,0.601216,-0.03172,-0.79056,1.6975,-3.5525,-3.255
46,186017,0.6007279999999999,-0.030744,-0.788852,1.7325,-3.675,-3.255
47,186113,0.604632,-0.033428,-0.791048,1.7325,-3.71,-3.1675
48,186209,0.60268,-0.032208,-0.791048,1.68,-3.78,-3.15
49,186305,0.60512,-0.033916,-0.7903161,1.7675,-3.92,-3.08
50,186402,0.6058520000000001,-0.0305,-0.791536,1.785,-4.1125,-3.045
51,186498,0.607804,-0.024888,-0.79056,1.8375,-4.27,-2.9575
52,186594,0.612196,-0.026595999999999998,-0.791048,2.0825,-4.41,-2.6075
53,186690,0.609024,-0.027327999999999998,-0.7991,2.8,-4.6375,-2.135
54,186787,0.612196,-0.033184,-0.7890961,3.5875,-5.005,-1.96
55,186883,0.609024,-0.028792,-0.7929999999999999,3.5,-5.425,-1.855
56,186979,0.6097560000000001,-0.033184,-0.7991,4.2,-5.74,-1.1025
57,187076,0.6068279999999999,-0.035868000000000004,-0.8020281,5.5475,-5.845,-0.5425
58,187172,0.61366,-0.03416,-0.787876,7.455,-5.985,-0.0175
59,187268,0.619272,-0.025376,-0.795928,9.1525,-6.5275,0.525
60,187364,0.614392,-0.02928,-0.8086161000000001,10.1325,-7.0525,1.19
61,187461,0.606584,-0.032208,-0.7956840999999999,11.3575,-7.3325,1.8025
62,187557,0.599508,-0.048312,-0.792756,11.6025,-7.245,2.6075
63,187653,0.601704,-0.029036000000000003,-0.8044680999999999,11.585,-7.0875,3.1325
64,187750,0.60878,-0.038796,-0.792756,12.565,-7.35,3.57
65,187846,0.59658,-0.046848,-0.790072,12.355,-7.8225,3.955
66,187942,0.5934081,-0.050263999999999996,-0.789828,11.5675,-8.085,3.885
67,188038,0.584868,-0.056852,-0.7951961,10.4475,-8.12,3.5875
68,188135,0.5738880000000001,-0.062464,-0.798124,9.3275,-7.875,3.2025
69,188231,0.583404,-0.05124001,-0.796904,8.8025,-6.8425,2.6075
70,188327,0.586332,-0.05856,-0.798124,8.5225,-6.2825,2.24
71,188423,0.590724,-0.062220000000000004,-0.795928,8.3125,-5.915,1.82
72,188520,0.585112,-0.067344,-0.793976,7.91,-5.7925,1.3125
73,188616,0.581696,-0.07344400000000001,-0.790072,7.2975,-5.635,0.6825
74,188712,0.568276,-0.077348,-0.78446,6.2125,-5.3725,0.105
75,188809,0.563396,-0.08296,-0.779092,4.55,-4.6025,-0.875
76,188905,0.570716,-0.081984,-0.782508,1.8025,-3.6575,-2.24
77,189001,0.581696,-0.07417601,-0.7861680999999999,-0.21,-2.8525,-3.3075
78,189097,0.590236,-0.06539201,-0.790804,-1.2075,-2.415,-3.92
79,189194,0.5846241,-0.069784,-0.79422,-1.89,-2.38,-4.515
80,189290,0.582184,-0.07344400000000001,-0.7922680000000001,-2.9225,-2.24,-5.3025
81,189386,0.5873079999999999,-0.067832,-0.796172,-3.745,-2.1175,-6.195
82,189483,0.586576,-0.062220000000000004,-0.798124,-4.2525,-2.03,-6.79
83,189579,0.59536,-0.05612,-0.8091041,-4.375,-1.82,-7.1925
84,189675,0.5948720000000001,-0.058072000000000006,-0.797392,-3.6925,-1.6275,-7.175
85,189771,0.599508,-0.06124401,-0.796172,-3.36,-1.505,-7.245
86,189868,0.590968,-0.05587601,-0.793488,-3.4825,-1.4875,-7.4375
87,189964,0.5914560000000001,-0.05563200000000001,-0.795928,-3.4475,-1.4875,-7.5775
88,190060,0.5934081,-0.0549,-0.79422,-3.5,-1.5225,-7.6825
89,190156,0.5919439999999999,-0.051972000000000004,-0.793244,-3.6575,-1.6275,-7.77
90,190253,0.595604,-0.050508,-0.791536,-4.1475,-1.61,-8.155
91,190349,0.595604,-0.05246,-0.792024,-4.725,-1.8375,-8.5575
92,190445,0.598532,-0.035868000000000004,-0.797636,-5.145,-1.8025,-8.4875
93,190542,0.6007279999999999,-0.026595999999999998,-0.800564,-4.5325,-1.2075,-7.735
94,190638,0.587796,-0.032208,-0.8117880000000001,-3.2025,-0.6125,-6.86
95,190734,0.586088,-0.017568,-0.817156,-1.155,1.015,-5.67
96,190830,0.578036,-0.024888,-0.8164239999999999,1.4175,3.15,-4.655
97,190927,0.5694961,-0.030012,-0.8127641,2.835,5.7225,-3.7975
98,191023,0.5614439999999999,-0.045872,-0.81252,3.325,8.645,-2.9225
99,191119,0.568764,-0.035868000000000004,-0.820816,3.2375,12.285,-1.9425
100,191215,0.562908,-0.014396,-0.834724,3.85,16.6425,-0.945
101,191312,0.5219159999999999,0.0034159999999999998,-0.871568,6.6675,22.9425,0.2975
102,191408,0.29402,-0.11955999999999999,-0.9440360999999999,12.215,33.1275,0.3675
103,191504,0.471164,-0.030012,-0.9828321,10.71,55.055,-3.7625
104,191601,0.504836,-0.08344800000000001,-0.935984,14.2275,74.445,-6.3875
105,191697,0.5231359999999999,-0.016104,-0.9613601,17.0975,94.4825,-8.12
106,191793,0.538996,-0.014152000000000001,-1.000888,18.0075,113.8025,-8.085
107,191889,0.5926760999999999,-0.08417999999999999,-1.069452,19.2675,130.7075,-9.1
108,191986,0.6749041,-0.149816,-1.017724,20.545,142.31,-12.5475
109,192082,0.793488,-0.18056,-1.042612,19.9675,149.1525,-18.235
110,192178,0.675148,-0.276208,-0.9799041,21.5425,149.5725,-24.8325
111,192274,0.592188,-0.366976,-1.066036,15.785,148.785,-35.0175
112,192371,0.662948,-0.6344,-1.348344,12.6525,140.385,-36.7675
113,192467,1.086044,-0.8513161,-1.63724,1.2425,116.9525,-27.0025
114,192563,0.6917399999999999,-0.762988,-1.6104,-20.7025,72.345,-14.6825
115,192660,0.044407999999999996,-0.5058121,-1.235128,-36.7675,29.5925,-2.065
116,192756,-0.202276,-0.329888,-1.042368,-32.9525,18.6025,8.19
117,192852,-0.09540401,-0.28987199999999996,-1.11996,-17.5175,20.9475,15.5575
118,192948,-0.016836,-0.33305999999999997,-1.22488,-3.5175,14.175,21.2625
119,193045,-0.037576,-0.2928,-1.245132,1.2425,-2.485,24.955
120,193141,-0.086132,-0.19276,-1.212436,2.5375,-20.895,26.7225
121,193237,-0.10906800000000001,-0.11834000000000001,-1.17608,7.0,-36.1375,27.405
122,193334,-0.06954,-0.08466801,-1.17242,13.4225,-48.5975,27.5275
123,193430,-0.008052001,-0.076616,-1.179252,18.7075,-60.76,27.405
124,193526,0.045627999999999995,-0.0671,-1.17486,20.7375,-73.5525,26.88
125,193622,0.10004,-0.058072000000000006,-1.1690040000000002,21.035,-85.90751,26.2325
126,193719,0.16835999999999998,-0.056608000000000006,-1.166564,21.2975,-96.8975,25.865
127,193815,0.2501,-0.071004,-1.1709559999999999,21.8925,-107.03,26.11
128,193911,0.329888,-0.094672,-1.1568040000000002,22.05,-116.795,27.09
129,194007,0.386496,-0.121024,-1.131672,21.0875,-125.8425,28.5075
130,194104,0.449692,-0.15176800000000001,-1.109224,18.8825,-133.1925,29.9425
131,194200,0.521672,-0.167628,-1.097756,15.61,-138.565,31.5875
132,194296,0.618052,-0.172508,-1.090192,13.1775,-142.6425,34.1075
133,194393,0.7176041,-0.181536,-1.084092,12.0225,-146.6675,37.17
134,194489,0.767868,-0.186172,-1.054324,11.13,-151.4275,39.4625
135,194585,0.7903161,-0.189344,-0.9933241,9.4325,-155.2075,40.285
136,194681,0.8052,-0.18324400000000002,-0.9408639999999999,7.0175,-155.715,39.83
137,194778,0.8418,-0.18056,-0.9137799999999999,4.3925,-153.4575,38.8325
138,194874,0.9054840000000001,-0.182024,-0.912316,1.75,-149.905,38.535
139,194970,1.00284,-0.145912,-0.913536,-0.3675,-146.405,40.67
140,195067,1.051884,0.005368,-0.8827921000000001,-0.525,-145.5125,47.25
141,195163,1.039196,0.091744,-0.783972,5.4425,-144.27,58.5025
142,195259,1.022848,0.018056,-0.6158561,10.2375,-140.2625,66.2025
143,195355,1.051152,0.02684,-0.484828,-1.5575,-132.65,62.685
144,195452,1.1211799999999998,0.138104,-0.37942,-19.0575,-122.8325,51.345
145,195548,1.16144,0.183,-0.261324,-27.09,-112.1225,38.5525
146,195644,1.175836,0.195444,-0.13054000000000002,-26.425,-99.82,24.7625
147,195740,1.209752,0.172752,-0.016836,-21.6825,-84.7,10.465
148,195837,1.2587959999999998,0.13761600000000002,0.063928,-16.17,-67.305,-3.255
149,195933,1.331508,0.11614400000000001,0.106628,-10.6225,-49.28,-14.7875
150,196029,1.341756,0.07978801,0.142252,-3.64,-32.76,-22.4
151,196125,1.301984,0.030256,0.183,4.13,-16.24,-26.775
152,196222,1.24684,-0.033428,0.196908,10.5175,2.0825,-30.5725
153,196318,1.226344,-0.077836,0.164212,15.995,22.4175,-35.21
154,196414,1.249036,-0.10833599999999999,0.093696,23.8175,41.86,-40.5825
155,196510,1.254404,-0.141764,0.029524,36.4175,57.47,-46.8825
156,196607,1.25904,-0.225212,-0.027327999999999998,52.4475,69.51,-52.71
157,196703,0.412116,-1.409832,-0.136884,66.36,77.875,-58.975
158,196799,-0.49605200000000005,-1.477908,-0.9947881,-30.555,107.73,-77.54251
159,196895,0.027572000000000003,-0.077836,-1.996164,-120.2425,122.675,-104.79
160,196992,0.021472,-0.227408,-0.543876,-66.8325,131.8625,-35.21
161,197088,1.0121120000000001,0.260592,-0.6724640000000001,-42.42,175.1925,17.15
162,197184,2.1252400000000002,0.702232,-1.6452919999999998,-40.0225,197.6625,18.7425
163,197280,1.83,0.8571719999999999,-1.577704,-38.5875,137.3575,-6.65
164,197377,0.942816,0.460916,-1.037,-20.8075,79.94,-30.59
165,197473,0.47994799999999993,-0.20691199999999998,-0.7732359999999999,1.33,64.4,-31.2375
166,197569,0.625616,-0.8052,-0.898652,5.7575,71.6975,-16.275
167,197666,1.768268,-0.486292,-1.125572,-33.3025,71.26,-14.7175
168,197762,0.6653880999999999,0.345016,-0.654408,-67.5675,24.29,-23.9925
169,197858,0.8664440000000001,0.276696,-1.146556,-49.7,15.3125,-29.89
170,197954,0.640012,-0.239608,-0.69906,-25.97,4.655,-19.6
171,198051,0.659288,-0.177144,-0.8332601000000001,-28.665,0.455,-18.935
172,198147,0.692472,0.200812,-0.96014,-31.3075,-0.0875,-19.2325
173,198243,0.6505041,0.047092,-0.807396,-16.9575,-2.0125,-16.1525
174,198339,0.6095119999999999,-0.068076,-0.81984,-9.555,-4.235,-12.2675
175,198436,0.5936520000000001,0.032208,-0.840824,-10.955,-3.7275,-10.6575
176,198532,0.6021920000000001,-0.022692,-0.8210601000000001,-8.61,-3.5,-9.17
177,198628,0.586332,-0.0051240009999999996,-0.8274040000000001,-6.58,-3.3075,-7.2275
178,198724,0.56242,-0.017812,-0.8215481,-3.64,-2.4675,-5.39
179,198821,0.568764,-0.015372,-0.826672,-0.98,-0.595,-3.3075
180,198917,0.58316,-0.02196,-0.821304,1.3125,0.9975,-1.4175
181,199013,0.587064,-0.05368,-0.8108121,3.0975,1.8725,-0.35
182,199109,0.583404,-0.071248,-0.801784,3.6575,2.2925,-0.56
183,199206,0.590724,-0.0854,-0.79666,3.325,2.6775,-1.8725
184,199302,0.5936520000000001,-0.07564,-0.793976,2.4325,2.625,-3.78
185,199398,0.586088,-0.072712,-0.7986121,1.5225,2.485,-5.2675
186,199494,0.5838920999999999,-0.045872,-0.8052,0.9625,2.6425,-6.1775
187,199591,0.5948720000000001,-0.033184,-0.8066641,1.1375,3.0625,-6.3525
188,199687,0.594384,-0.019032,-0.8076399999999999,1.7675,3.4475,-5.775
189,199783,0.58804,-0.020984,-0.8117880000000001,2.8525,3.78,-4.8125
190,199880,0.586088,-0.027083999999999997,-0.8086161000000001,3.99,4.41,-3.885
191,199976,0.598532,-0.034404000000000004,-0.7998321,4.795,5.0925,-3.36
192,200072,0.606096,-0.035624,-0.793488,5.285,5.495,-2.9925
193,200168,0.6009720000000001,-0.048312,-0.790072,5.7225,5.5475,-2.8175
194,200265,0.604144,-0.049288,-0.78446,5.39,5.25,-3.15
195,200361,0.6029241,-0.06636801,-0.7849480999999999,4.48,4.8475,-4.1475
196,200457,0.6019479999999999,-0.041968,-0.780068,3.01,4.2525,-5.355
197,200553,0.5892601,-0.09638,-0.7812880999999999,3.15,4.06,-5.985
198,200650,0.598532,-0.052216,-0.787144,2.8,3.885,-7.0175
199,200746,0.606096,-0.0366,-0.7834840000000001,2.345,3.6925,-7.7875
200,200842,0.6039,-0.066856,-0.7832399999999999,1.26,3.1675,-8.4
201,200939,0.6070720000000001,-0.05172801,-0.778604,-0.035,2.45,-9.485
202,201035,0.604388,-0.055388,-0.782508,-0.7175,1.6275,-10.535
203,201131,0.599996,-0.058316,-0.7854361,-1.0675,1.2425,-11.48
204,201227,0.5987760999999999,-0.054412,-0.788608,-1.1375,1.12,-12.2675
205,201324,0.590968,-0.05636401,-0.7944641,-0.9975,1.7675,-12.8975
206,201420,0.586576,-0.044407999999999996,-0.798124,0.0,3.745,-13.4925
207,201516,0.58316,-0.006587999999999999,-0.8108121,3.325,6.5275,-15.26
208,201612,0.571204,-0.049532,-0.8113001,11.9525,9.73,-19.6525
209,201709,0.5843801,-0.009028000999999999,-0.8086161000000001,16.625,13.9125,-21.3325
210,201805,0.533872,-0.06344,-0.81862,17.9375,20.685,-19.0225
211,201901,0.522404,-0.013908000000000002,-0.864492,12.075,31.6925,-14.4725
212,201998,0.571448,-0.015372,-0.8522921,15.1375,41.4925,-13.16
213,202094,0.570472,0.010004,-0.8518040000000001,15.9075,51.87,-11.585
214,202190,0.584136,0.031964,-0.8413120000000001,16.7125,64.12,-7.63
215,202286,0.6019479999999999,0.00976,-0.8291120999999999,18.69,77.63,-3.71
216,202383,0.599996,0.001952,-0.828868,18.69,90.9475,-0.665
217,202479,0.6058520000000001,-0.001464,-0.811056,17.71,105.6125,2.1
218,202575,0.5968241,-0.026595999999999998,-0.822524,15.8375,122.605,4.235
219,202672,0.581696,-0.054167999999999994,-0.8361879999999999,11.445,139.3525,5.1625
220,202768,0.530212,-0.086132,-0.8298440999999999,4.3925,155.4525,3.3075
221,202864,0.548024,-0.1037,-0.8076399999999999,-4.2525,172.0075,2.3275
222,202960,0.5463161,-0.133956,-0.8235001000000001,-10.675,190.2775,1.0325
223,203057,0.548512,-0.151524,-0.9079241,-21.525,202.1425,-2.1875
224,203153,0.698328,-0.148108,-0.8369200000000001,-32.2525,210.5075,0.91
225,203249,0.73688,-0.176656,-0.9230520000000001,-30.905,235.165,-2.45
226,203346,0.58194,-0.104676,-0.999668,-23.31,263.305,-1.435
227,203442,0.19959200000000002,-0.194224,-0.6785640000000001,-15.9425,292.0575,-6.02
228,203538,1.565992,-0.018544,-0.785192,-53.9875,335.0375,-24.5875
229,203634,1.425692,-0.158356,-1.032608,-53.6725,428.6625,-26.1975
230,203731,1.7653400000000001,-0.09906401,-1.398608,-35.5775,477.68,-41.8075
231,203827,1.498404,-0.08906,-1.399828,-11.1825,496.37,-58.555
232,203923,1.695068,-0.10223600000000001,-1.560624,38.3775,496.9475,-73.97251
233,204019,2.703032,-0.464088,-1.36396,77.0875,479.5525,-89.495
234,204116,1.9842080000000002,-0.5458281,-1.293444,45.3075,484.1375,-83.52750999999999
235,204212,0.49605200000000005,-0.29377600000000004,-2.2587080000000004,-4.4975,530.25,-104.86
236,204308,0.595116,0.634644,-0.7093081,0.8925,462.1575,-151.235
237,204405,3.775168,0.187148,-3.30254,-4.41,363.23,-175.91
238,204501,3.311568,-0.207156,-3.218848,84.03501,161.6825,-144.515
239,204597,1.933212,-0.79422,-2.457568,116.375,-44.275,-121.87
240,204693,0.656116,-0.921344,-1.417152,99.7675,-165.655,-96.42501
241,204790,0.0244,-0.7361481,-0.7849480999999999,61.32,-203.2275,-80.9375
242,204886,-0.28621199999999997,-0.58682,-0.46042799999999995,33.5125,-198.975,-70.315
243,204982,-0.187636,-0.42626800000000004,-0.41894799999999993,23.6425,-179.585,-58.4675
244,205078,0.08662001,-0.366244,-0.5267960999999999,29.2425,-165.235,-41.2825
245,205175,0.3294,-0.41016400000000003,-0.6688041,42.7875,-166.81,-20.44
246,205271,0.47555600000000003,-0.493856,-0.7754321,52.0975,-182.6125,1.0675
247,205367,0.584868,-0.531676,-0.832528,50.26,-205.5725,21.7875
248,205464,0.637084,-0.499468,-0.8388721,39.3925,-231.175,41.265
249,205560,0.6844201,-0.40138,-0.823256,25.8475,-256.27,58.52
250,205656,0.714676,-0.26352,-0.79178,16.345,-278.88,74.13
251,205752,0.7076001000000001,-0.1342,-0.748104,15.925,-298.62,89.25
252,205849,0.702964,-0.0427,-0.706136,22.33,-313.2675,102.445
253,205945,0.727608,0.017812,-0.686372,31.22,-321.3175,112.175
254,206041,0.783972,0.069052,-0.7005239999999999,39.4625,-324.975,117.425
255,206138,0.8876719999999999,0.130296,-0.763232,46.305,-326.0775,118.23
256,206234,1.042856,0.196664,-0.846924,53.76,-326.97,116.27
257,206330,1.192672,0.213988,-0.9113399999999999,63.385,-330.995,113.1025
258,206426,1.269776,0.160308,-0.921344,72.0825,-337.575,108.7625
259,206523,1.280024,0.071248,-0.8893800999999999,73.5175,-343.035,102.9
260,206619,1.272948,-0.001952,-0.8945040000000001,66.08,-343.56,95.4975
261,206715,1.3729879999999999,-0.02684,-0.99918,53.8825,-338.135,88.48001
262,206812,1.556232,-0.021472,-1.170712,44.66,-331.975,85.69751
263,206908,1.7524080000000002,-0.020984,-1.321016,43.0325,-329.6125,89.04
264,207004,1.929552,-0.001952,-1.363716,47.7925,-330.8375,96.81
265,207100,2.059604,0.338428,-1.425692,53.9175,-330.68,108.4125
266,207197,2.311656,0.333304,-1.333704,74.6375,-329.105,121.135
267,207293,2.54736,0.047336,-1.089216,86.31,-329.42,121.695
268,207389,2.705228,-0.16348,-0.73688,62.195,-328.685,101.78
269,207485,2.740852,-0.09320801,-0.28011199999999997,17.22,-321.8425,68.985
270,207582,2.711084,0.163968,0.197884,-12.04,-302.855,40.5475
271,207678,2.612264,0.366976,0.6480640000000001,-6.195,-269.255,27.615
272,207774,2.49246,0.40381999999999996,1.063352,25.62,-221.865,29.6275
273,207870,2.3921759999999996,0.309636,1.3954360000000001,57.015,-167.09,41.02
274,207967,2.407548,0.37746799999999997,1.5542799999999999,62.5275,-110.11,54.81
275,208063,2.5571200000000003,0.63562,1.595272,45.36,-56.3675,64.61
276,208159,2.502952,0.721264,1.5701399999999999,25.725,-12.635,63.2275
277,208255,2.2587080000000004,0.81374,1.4125159999999999,3.115,26.075,39.3225
278,208352,2.0935200000000003,0.8805960999999999,1.067744,-12.6,62.825,-3.64
279,208448,1.49938,0.09930800000000001,1.0889719999999998,-8.8025,96.1275,-56.8925
280,208544,-0.883036,-0.19764,0.4209,-78.6625,177.975,-128.38
281,208641,-0.219356,-0.331596,-2.3089720000000002,-105.21,228.5675,-202.9125
282,208737,1.222684,-0.287188,-1.241716,-84.665,260.4875,-159.495
283,208833,1.8949040000000001,-0.376248,-0.452132,-42.945,268.4325,-59.815
284,208929,2.356796,-0.183732,-1.3351680000000001,-44.0475,269.325,-9.6075
285,209026,2.332884,0.8176439999999999,-1.8946599999999998,-66.7275,232.015,0.77
286,209122,1.379332,1.0711600000000001,-1.301252,-51.7825,162.4525,-6.9825
287,209218,1.233908,-0.8522921,-1.5384200000000001,-17.6225,125.3175,-25.165
288,209315,1.9488279999999998,-0.8862081,-0.8447280999999999,-68.81,87.90250999999999,-48.02
289,209411,0.5443640000000001,0.36209600000000003,-0.86864,-93.5375,26.9675,-45.8675
290,209507,1.368352,0.9889319999999999,-1.5074319999999999,-86.29251,26.1625,-47.565
291,209603,0.735172,-0.440176,-0.678808,-22.4525,-2.0825,-29.575
292,209700,0.6470880999999999,0.027327999999999998,-0.8723001,-25.935,-5.88,-25.2875
293,209796,0.6724640000000001,0.1098,-0.873764,-27.055,-6.265,-24.0275
294,209892,0.615368,-0.053924,-0.818132,-19.215,-7.2275,-19.495
295,209989,0.5607121,0.00976,-0.85034,-16.8,-5.74,-16.45
296,210085,0.589992,-0.034404000000000004,-0.8361879999999999,-11.2175,-2.7475,-13.545
297,210181,0.5875520000000001,-0.020496,-0.8239880999999999,-7.5775,-1.1375,-11.76
298,210277,0.5934081,-0.007564001,-0.829356,-6.2125,-0.56,-11.1125
299,210374,0.58316,0.001464,-0.8283799999999999,-3.955,-0.1225,-9.5725
300,210470,0.577304,-0.015128,-0.826428,-1.4525,1.12,-7.315
301,210566,0.59048,-0.044164,-0.8071520000000001,0.28,2.415,-6.0375
302,210662,0.591212,-0.03904,-0.800076,0.6475,2.73,-5.9325
303,210759,0.5892601,-0.036112,-0.7978801,0.315,2.52,-5.9325
304,210855,0.5997520000000001,-0.025131999999999998,-0.7991,-0.0875,2.38,-5.8975
305,210951,0.5858439999999999,-0.03904,-0.8010520000000001,0.105,1.9425,-6.2125
306,211048,0.584868,-0.038064,-0.799588,-0.105,2.2925,-6.58
307,211144,0.576816,-0.01098,-0.8105680000000001,0.0,2.555,-6.8775
308,211240,0.57828,-0.002196,-0.815692,0.945,3.3425,-6.405
309,211336,0.5797441,0.003904,-0.813496,1.995,4.5325,-5.8625
310,211433,0.5897479999999999,0.002928,-0.8052,3.7275,6.1075,-5.005
311,211529,0.5987760999999999,-0.006344,-0.797636,5.0925,7.0525,-4.13
312,211625,0.6019479999999999,-0.01464,-0.791048,5.845,7.4375,-3.675
313,211722,0.60878,-0.024156,-0.784216,6.09,7.49,-3.5525
314,211818,0.611464,-0.030256,-0.78446,5.9675,7.0175,-3.9025
315,211914,0.6168319999999999,-0.02928,-0.783728,5.4425,6.23,-4.445
316,212010,0.615124,-0.026595999999999998,-0.7766521,5.2675,5.5125,-4.8825
317,212107,0.6080479999999999,-0.022448,-0.78446,5.1975,4.585,-5.39
318,212203,0.6107319999999999,-0.018056,-0.7854361,5.3375,4.2175,-5.495
319,212299,0.598532,-0.019764,-0.7861680999999999,5.67,4.305,-5.565
320,212395,0.5936520000000001,-0.021228,-0.792512,5.95,4.935,-6.1775
321,212492,0.5846241,-0.022448,-0.8010520000000001,6.8425,6.16,-6.965
322,212588,0.571204,-0.020252000000000003,-0.8076399999999999,9.4325,8.1725,-7.875
323,212684,0.566812,-0.043432,-0.8149601,14.385,11.3575,-9.765
324,212781,0.535092,-0.027327999999999998,-0.830576,17.4125,15.7325,-11.305
325,212877,0.5392399999999999,0.001464,-0.8549761,15.645,24.57,-10.99
326,212973,0.5453399999999999,-0.020252000000000003,-0.8476561,14.9275,34.86,-9.415
327,213069,0.558516,-0.008296000999999999,-0.855708,16.1525,44.765,-8.4
328,213166,0.564128,0.002684,-0.8481440999999998,17.15,56.4025,-7.0525
329,213262,0.581696,0.00244,-0.8457040000000001,17.885,68.8975,-5.075
330,213358,0.603168,0.015128,-0.8203280000000001,17.0975,81.0075,-3.15
331,213454,0.606584,0.017812,-0.81374,16.73,94.92,-0.8925
332,213551,0.593896,-0.0061,-0.8271601000000001,15.33,110.9675,1.3475
333,213647,0.56608,-0.032695999999999996,-0.8396040000000001,12.3025,128.6075,2.2925
334,213743,0.534604,-0.079056,-0.8461921,7.2975,147.6125,2.2575
335,213840,0.54168,-0.090768,-0.8610761,0.91,169.0325,0.77
336,213936,0.48116800000000004,-0.148596,-0.8669319999999999,-5.9325,191.3625,-1.89
337,214032,0.6224441,-0.188856,-0.9208561,-22.1725,211.19,-2.24
338,214128,0.563396,-0.198372,-0.931348,-37.3625,227.9025,-2.9225
339,214225,0.711504,-0.22814,-0.978196,-40.25,258.86,-11.3575
340,214321,0.44212799999999997,-0.07564,-1.116788,-42.455,293.58,-12.81
341,214417,0.048556,-0.239852,-0.7991,-32.4975,330.4525,-12.355
342,214513,1.618208,-0.205936,-0.7224841,-66.92,389.6375,-36.2775
343,214610,1.754604,-0.102724,-1.353956,-86.45,490.49,-48.265
344,214706,1.615524,-0.0017079999999999999,-1.585756,-49.175,533.61,-61.88
345,214802,1.8214599999999999,0.08369201,-1.767536,1.68,540.4875,-66.29
346,214899,2.223084,-0.44725200000000004,-1.673352,58.4325,517.65,-76.125
347,214995,3.125152,-0.651968,-1.743624,61.95,497.98,-78.4525
348,215091,0.9059721,-0.428464,-2.2835959999999997,22.3125,524.965,-88.09501
349,215187,0.152988,0.163968,-1.325652,13.685,518.175,-130.655
350,215284,3.8076199999999996,0.10833599999999999,-3.121736,-14.28,392.035,-156.765
351,215380,3.5933879999999996,-0.43041599999999997,-3.602904,62.7375,207.1825,-120.9075
352,215476,2.097424,-0.9442801,-2.8286919999999998,78.8375,-32.97,-100.975
353,215572,0.5058121,-0.915976,-1.690432,54.6,-163.7475,-83.51001
354,215669,-0.171044,-0.649528,-1.0321200000000001,16.7475,-202.9475,-78.0325
355,215765,-0.335744,-0.43798000000000004,-0.7407841,0.7525,-195.8425,-74.9875
356,215861,-0.202032,-0.297192,-0.70638,7.595,-179.445,-66.325
357,215957,0.049044,-0.26596,-0.793488,30.5025,-171.1325,-48.6675
358,216054,0.255712,-0.34721199999999997,-0.865956,57.5225,-176.995,-26.2325
359,216150,0.402844,-0.479216,-0.9091440000000001,73.92,-194.2325,-4.06
360,216246,0.503616,-0.5363121,-0.908168,72.0825,-216.965,14.9275
361,216343,0.508984,-0.515328,-0.8730319999999999,55.16,-241.2725,31.0625
362,216439,0.5267960999999999,-0.388692,-0.843508,32.935,-261.905,45.115
363,216535,0.561932,-0.191052,-0.823744,15.925,-278.425,58.7125
364,216631,0.5917,-0.006587999999999999,-0.818376,11.8125,-291.83,72.3975
365,216728,0.628544,0.10052799999999999,-0.8188641,19.67,-302.0325,84.7
366,216824,0.684908,0.134688,-0.8310639999999999,30.9575,-309.715,92.89001
367,216920,0.7829961,0.155916,-0.8674200000000001,38.4475,-316.05,94.97251
368,217016,0.9054840000000001,0.222284,-0.936716,42.0,-322.6475,92.085
369,217113,1.026508,0.279136,-1.0023520000000001,47.6,-331.065,86.7825
370,217209,1.129964,0.305976,-1.048468,56.77,-340.8475,81.0775
371,217305,1.197552,0.2684,-1.062132,67.3925,-350.28,75.8275
372,217401,1.283196,0.17616800000000002,-1.094584,75.6525,-357.2275,71.085
373,217498,1.4210559999999999,0.050508,-1.1629040000000002,78.33,-361.2175,67.4975
374,217594,1.587952,-0.040992,-1.276852,75.81,-364.5775,67.2
375,217690,1.7812,-0.066124,-1.407392,72.06501,-367.6225,72.4675
376,217786,2.009096,-0.081496,-1.485716,72.5375,-370.7725,83.3525
377,217883,2.2457759999999998,-0.034648000000000005,-1.457168,77.14,-373.7825,97.335
378,217979,2.397056,0.31476,-1.413248,84.8925,-373.065,113.7325
379,218075,2.70962,0.298168,-1.256844,107.7825,-365.96,130.27
380,218171,3.070984,-0.01342,-0.9381801,123.7075,-358.47,135.17
381,218268,3.32816,-0.128832,-0.46335600000000005,103.81,-349.93,122.395
382,218364,3.360612,0.104432,0.15274400000000002,65.065,-334.425,101.3775
383,218460,3.163704,0.48214399999999996,0.8759601,39.305,-303.1,87.4475
384,218557,2.9609400000000003,0.671976,1.553548,40.0925,-249.76,81.5675
385,218653,2.856996,1.095316,2.068388,45.08,-181.58,76.755
386,218749,3.278628,1.6677400000000002,2.3685080000000003,54.04,-107.8875,69.5625
387,218845,3.27082,1.374452,2.626416,79.9925,-48.9475,53.1825
388,218942,2.756712,1.033096,2.513444,59.78,6.79,0.14
389,219038,2.492948,0.9674601,1.819264,6.79,67.9,-75.7925
390,219134,2.5583400000000003,0.840824,0.9520881,-20.1075,117.6875,-134.155
391,219230,0.353312,-1.009184,-1.257088,-22.715,144.4275,-175.4725
392,219327,-1.045784,-1.066768,-1.90198,-99.505,193.48,-219.8875
393,219423,-1.00284,-1.340292,-0.568032,-90.30001,248.2725,-213.6575
394,219519,2.045696,0.187392,0.269376,-86.0125,342.7725,-94.22
395,219615,3.6016839999999997,0.185684,-1.776564,-40.7925,404.74,-0.1925
396,219712,3.249348,1.2883200000000001,-2.089616,-54.1975,309.75,10.2725
397,219808,2.4024240000000003,-0.378932,-2.014952,-36.3475,206.3775,-21.385
398,219904,3.03658,-0.344528,-1.238544,-77.47251,130.6725,-57.6625
399,220001,0.0976,0.114192,-0.7564001,-95.62,14.8925,-57.8375
400,220097,1.029924,0.585112,-1.284416,-93.31,30.415,-51.5025
401,220193,1.070184,-0.0061,-0.7324881,-49.455,11.8825,-30.7125
402,220289,0.691008,-0.09418401,-0.8447280999999999,-28.0,-5.285,-23.555
403,220386,0.6836880999999999,0.075396,-0.8813280000000001,-24.0625,-5.3025,-18.9525
404,220482,0.6709999999999999,-0.038796,-0.8276481,-15.9775,-6.6325,-16.03
405,220578,0.615124,0.077836,-0.8457040000000001,-12.9325,-7.21,-13.0025
406,220675,0.606584,-0.044652,-0.815448,-8.4875,-6.0375,-9.6075
407,220771,0.58072,-0.019764,-0.8244761,-5.915,-5.355,-7.875
408,220867,0.5734,-0.007564001,-0.821304,-3.815,-3.7975,-7.42
409,220963,0.559004,-0.021472,-0.8315520000000001,-0.8225,-1.82,-5.7575
410,221060,0.5734,-0.029524,-0.8235001000000001,1.9775,1.1375,-3.605
411,221156,0.587064,-0.028792,-0.8076399999999999,4.27,3.22,-1.7325
412,221252,0.59048,-0.050263999999999996,-0.793976,5.81,4.2525,-0.5775
413,221348,0.589504,-0.07490801,-0.785192,5.985,4.2,-0.6125
414,221445,0.5914560000000001,-0.069052,-0.7849480999999999,5.0575,3.745,-2.3275
415,221541,0.5846241,-0.054167999999999994,-0.791536,3.9375,3.2725,-3.99
416,221637,0.585356,-0.0488,-0.797148,3.395,3.15,-5.3725
417,221734,0.583648,-0.05977999999999999,-0.7991,2.7475,3.6225,-6.9125
418,221830,0.5926760999999999,-0.05856,-0.7956840999999999,2.135,4.1475,-7.49
419,221926,0.5917,-0.047824,-0.792756,1.4,3.99,-7.91
420,222022,0.5946279999999999,-0.043432,-0.793488,0.8575,4.0075,-8.33
421,222119,0.590724,-0.037332,-0.796172,0.49,4.1825,-9.065
422,222215,0.6007279999999999,-0.037576,-0.792756,0.315,4.1125,-9.1875
423,222311,0.60878,-0.04514,-0.782752,0.07,3.7625,-9.135
424,222407,0.6131721,-0.048312,-0.781044,-0.175,3.15,-9.1875
425,222504,0.6095119999999999,-0.050996,-0.776896,-0.4725,1.9425,-9.205
426,222600,0.603168,-0.053191999999999996,-0.783728,-1.3125,0.735,-9.625
427,222696,0.595116,-0.049776,-0.781532,-1.925,-0.175,-10.675
428,222792,0.603168,-0.049288,-0.7822640000000001,-1.8725,0.07,-11.6375
429,222889,0.595604,0.004148001,-0.790072,-0.035,1.645,-10.92
430,222985,0.58316,-0.02928,-0.808372,3.36,4.55,-9.73
431,223081,0.5875520000000001,-0.0061,-0.80642,5.915,7.5425,-9.2575
432,223178,0.5648601,0.012688,-0.826672,9.5025,11.0425,-9.2225
433,223274,0.572912,-0.018056,-0.820084,15.61,15.8025,-9.1525
434,223370,0.5694961,0.002196,-0.820084,23.1,21.245,-10.535
435,223466,0.514596,-0.02074,-0.8291120999999999,25.3575,28.245,-8.54
436,223563,0.5353359999999999,0.035136,-0.8547319999999999,20.02,41.195,-3.2025
437,223659,0.537776,-0.025863999999999998,-0.8740081000000001,21.5775,54.67,0.63
438,223755,0.5636399999999999,-0.01586,-0.8552200000000001,23.0475,67.7075,1.05
439,223851,0.580476,0.001464,-0.8437520000000001,23.275,81.3575,3.36
440,223948,0.5846241,-0.035136,-0.8405800999999999,21.875,94.99,5.5475
441,224044,0.5978,-0.028304000000000003,-0.8332601000000001,19.8975,112.1575,6.02
442,224140,0.563396,-0.000244,-0.8403360000000001,16.9925,132.44,6.3
443,224237,0.538996,-0.038064,-0.8439959999999999,13.8425,154.8225,7.2975
444,224333,0.542168,-0.07637200000000001,-0.8625401,8.1025,178.22,9.4675
445,224429,0.48312,-0.125904,-0.85034,-1.82,199.465,9.66
446,224525,0.578036,-0.15006,-0.8823040000000001,-12.7925,215.1975,11.9175
447,224622,0.7137001000000001,-0.221552,-0.9054840000000001,-18.515,232.995,15.05
448,224718,0.8147161,-0.201544,-0.9025559999999999,-38.605,262.5175,11.27
449,224814,0.42065600000000003,-0.221552,-0.921344,-54.04,299.425,8.9775
450,224910,0.23472800000000002,-0.30256,-0.9293961,-61.705,331.8175,1.7325
451,225007,1.553304,-0.058316,-0.6785640000000001,-109.69,385.1925,-19.88
452,225103,1.653588,-0.123708,-1.106784,-123.025,494.8125,-21.7175
453,225199,2.0242240000000002,-0.068076,-1.634312,-105.595,557.69,-37.5025
454,225295,1.844152,-0.11224,-1.660664,-80.185,572.3375,-58.87
455,225392,2.577616,-0.265472,-1.754848,-17.7975,568.6975,-83.265
456,225488,3.2652080000000003,-0.335744,-2.06668,25.6025,564.025,-76.965
457,225584,0.62098,0.27279200000000003,-2.8992080000000002,20.755,573.16,-79.7125
458,225681,0.48116800000000004,0.913292,-0.6453800000000001,52.78,523.9675,-140.0875
459,225777,4.648688,-0.181292,-4.254872,54.4425,425.1625,-169.7325
460,225873,3.7124599999999996,-0.791536,-3.7266120000000003,141.8025,170.0825,-149.5025
461,225969,1.756068,-1.347612,-2.733288,127.435,-57.82,-139.3525
462,226066,0.399428,-1.212436,-1.637728,76.6675,-172.585,-116.41
463,226162,-0.2074,-0.877912,-0.9752681000000001,26.5125,-196.9625,-99.34751
464,226258,-0.3233,-0.595116,-0.73444,3.15,-184.45,-83.72001
465,226354,-0.07808001,-0.393328,-0.773724,9.2225,-166.46,-63.105
466,226451,0.26913200000000004,-0.33623200000000003,-0.9115840000000001,33.4075,-162.33,-38.5175
467,226547,0.50264,-0.41894799999999993,-0.9964959999999999,60.8125,-179.62,-12.775
468,226643,0.570472,-0.5104479999999999,-0.9933241,74.1475,-211.0675,9.24
469,226740,0.536556,-0.5380199999999999,-0.9147559999999999,68.8975,-243.705,26.81
470,226836,0.5070319999999999,-0.488,-0.8274040000000001,52.1675,-269.1325,42.35
471,226932,0.5594920999999999,-0.394304,-0.775676,32.2175,-286.2825,58.1525
472,227028,0.6202479999999999,-0.299388,-0.754204,14.9625,-300.79,74.76
473,227125,0.6724640000000001,-0.15006,-0.746152,2.0125,-313.915,90.72001
474,227221,0.714676,-0.02196,-0.73932,-1.015,-325.325,106.3125
475,227317,0.7300479999999999,0.046360000000000005,-0.7288279999999999,4.1125,-333.97,120.3475
476,227413,0.8176439999999999,0.086132,-0.7722600000000001,11.7075,-338.2925,130.655
477,227510,0.9340321,0.11955999999999999,-0.83814,17.955,-341.355,136.7625
478,227606,1.067256,0.178608,-0.9235399999999999,22.9075,-345.975,138.6175
479,227702,1.1829120000000002,0.23253200000000002,-0.99308,28.7525,-352.31,136.5525
480,227799,1.2785600000000001,0.251076,-1.0467600000000001,36.1725,-359.5375,131.25
481,227895,1.386896,0.198372,-1.086044,43.82,-366.0825,123.235
482,227991,1.507676,0.07856801,-1.154608,46.8125,-371.6475,113.0325
483,228087,1.6570040000000001,-0.033184,-1.279292,42.945,-376.4775,102.69
484,228184,1.882216,-0.07393200000000001,-1.422764,35.9275,-381.2375,96.11
485,228280,2.117432,-0.059048,-1.4884,33.25,-386.75,94.86751
486,228376,2.3260520000000002,0.07393200000000001,-1.373476,38.0625,-391.3875,96.5825
487,228472,2.4563479999999998,0.394304,-1.286612,50.82,-388.15,100.3975
488,228569,2.79258,0.209596,-1.055544,81.2,-377.5975,97.3
489,228665,3.224704,-0.09516001,-0.761524,91.3325,-364.4025,74.9875
490,228761,3.5758199999999998,-0.09882,-0.34111199999999997,71.0325,-352.8175,40.95
491,228858,3.671468,0.1952,0.291092,51.45,-339.4125,17.0975
492,228954,3.3698839999999994,0.45457200000000003,1.100684,56.91,-312.4625,12.46
493,229050,3.033896,0.419436,1.868064,77.49,-262.64,22.4
494,229146,2.8565080000000003,0.5124001,2.372656,78.3125,-191.905,34.9125
495,229243,3.2229959999999997,0.9703879999999999,2.538576,58.415,-111.86,40.0225
496,229339,3.250324,0.9413520000000001,2.645204,47.7575,-45.115,35.875
497,229435,2.689124,0.787144,2.407304,27.195,11.865,4.8125
498,229532,2.28872,0.612928,1.71898,-2.135,73.0625,-43.4525
499,229628,0.6649,-0.172752,1.044076,-36.54,156.7825,-104.2475
500,229724,-1.372744,-1.294908,-1.158512,-74.04251,259.4025,-190.9425
501,229820,1.142408,-0.7808001,-1.7265439999999999,-85.61,363.055,-191.24
502,229917,3.319864,0.708576,-0.586576,-110.2675,377.7025,-76.195
503,230013,3.1778560000000002,0.6178081,-1.699216,-57.505,342.545,-48.58
504,230109,3.31474,1.236836,-2.256268,-60.0775,287.07,-54.25
505,230205,2.88286,-1.229516,-2.021052,-15.9075,197.785,-53.655
506,230302,1.6479759999999999,-0.763232,-0.452376,-83.09000999999999,109.9525,-69.9475
507,230398,0.449692,0.4697,-1.181692,-112.49,36.925,-67.4625
508,230494,1.214388,0.746396,-1.188524,-92.68001,55.51,-57.4175
509,230591,1.169248,-0.233264,-0.952332,-53.27,14.0875,-39.7075
510,230687,0.6314721,0.203008,-0.9106081,-36.925,1.8725,-22.4175
511,230783,0.695156,-0.07222401,-0.8410681000000001,-20.44,-2.03,-17.4825
512,230879,0.6161,-0.002928,-0.859368,-14.84,0.035,-13.2825
513,230976,0.577548,-0.012931999999999999,-0.8332601000000001,-10.92,0.0,-11.2525
514,231072,0.581696,-0.09272000000000001,-0.794952,-6.545,1.26,-9.3275
515,231168,0.613904,-0.012931999999999999,-0.8169121,-7.3675,2.0825,-9.975
516,231264,0.5946279999999999,-0.02806,-0.822768,-5.495,1.9775,-9.625
517,231361,0.5968241,0.010004,-0.8418,-3.5175,2.8875,-8.75
518,231457,0.584868,-0.007320001,-0.8239880999999999,-0.6125,4.34,-6.9125
519,231553,0.59902,-0.056608000000000006,-0.793976,1.54,5.11,-5.1625
520,231650,0.597068,-0.043676,-0.789828,1.26,5.11,-5.88
521,231746,0.6141479999999999,-0.050263999999999996,-0.7812880999999999,0.1225,4.2525,-7.0875
522,231842,0.604632,-0.046360000000000005,-0.7856801,-1.12,2.765,-8.4
523,231938,0.598288,-0.060512,-0.79666,-2.52,1.3825,-10.2025
524,232035,0.58682,-0.054655999999999996,-0.7991,-3.3775,0.91,-11.4625
525,232131,0.59658,-0.054412,-0.791292,-3.395,1.19,-12.4775
526,232227,0.609268,-0.03294,-0.792756,-3.15,1.5575,-12.46
527,232323,0.606584,-0.032451999999999995,-0.792024,-2.6425,0.9275,-11.3225
528,232420,0.61,-0.017812,-0.788608,-2.5725,0.1925,-10.8675
529,232516,0.607316,-0.01586,-0.787876,-2.205,-0.2625,-10.29
530,232612,0.611464,0.0061,-0.7856801,-1.015,0.245,-9.2225
531,232709,0.607804,0.010492,-0.7895840999999999,1.365,1.925,-7.28
532,232805,0.6021920000000001,-0.009028000999999999,-0.790804,3.6925,3.64,-5.3025
533,232901,0.60512,-0.013908000000000002,-0.788608,4.8475,4.9,-4.0775
534,232997,0.609268,-0.01708,-0.782752,5.6175,5.6525,-3.7275
535,233094,0.6075600999999999,-0.023668,-0.7834840000000001,6.2125,5.9675,-3.745
536,233190,0.6141479999999999,-0.024888,-0.77836,6.65,6.195,-4.0425
537,233286,0.6029241,-0.029524,-0.7895840999999999,7.0875,6.5975,-4.48
538,233383,0.598532,-0.028304000000000003,-0.791048,8.4,7.595,-5.3725
539,233479,0.59536,-0.025863999999999998,-0.7922680000000001,11.27,9.38,-6.65
540,233575,0.5751081,-0.024888,-0.8052,15.82,11.9,-8.26
541,233671,0.565104,-0.015372,-0.8174001000000001,19.5475,16.1,-9.5725
542,233768,0.525332,-0.02196,-0.835456,19.8625,22.8725,-9.765
543,233864,0.571204,-0.010736,-0.8149601,16.59,33.9675,-8.3825
544,233960,0.57828,0.024644,-0.8210601000000001,18.235,43.05,-5.95
545,234056,0.57218,0.02562,-0.8491200000000001,18.4975,52.85,-2.5375
546,234153,0.583404,-0.01586,-0.8369200000000001,19.0225,64.0325,1.155
547,234249,0.5846241,-0.020984,-0.83814,18.515,75.67,3.5175
548,234345,0.600484,-0.039528,-0.812276,17.885,88.46251,3.85
549,234442,0.6029241,-0.024888,-0.8025161,15.4175,102.935,3.5175
550,234538,0.59048,-0.010492,-0.8095920999999999,11.6025,119.7,3.885
551,234634,0.5631520000000001,-0.046604,-0.8291120999999999,7.875,138.0225,4.97
552,234730,0.571448,-0.08954801,-0.8315520000000001,2.5375,158.305,5.6875
553,234827,0.515572,-0.13542,-0.823744,-5.7925,177.5725,3.22
554,234923,0.655384,-0.173484,-0.8996280999999999,-15.155,194.8275,2.5725
555,235019,0.604632,-0.14347200000000002,-0.90036,-19.6,210.28,3.6225
556,235115,0.7556681,-0.175924,-0.8378960999999999,-31.57,238.7175,-0.9625
557,235212,0.650748,-0.16811600000000002,-0.9530641,-44.2575,272.0725,0.07
558,235308,-0.052948,-0.223992,-1.053104,-43.0325,306.425,-2.8875
559,235404,0.555588,-0.330864,-0.280356,-59.7625,337.7325,-20.195
560,235501,1.7082439999999999,0.160796,-1.1570479999999999,-112.1575,430.57,-39.9175
561,235597,2.066924,-0.183,-1.3973879999999999,-88.9175,520.835,-43.9425
562,235693,1.646756,-0.08442401,-1.486204,-72.7825,566.195,-65.8175
563,235789,2.090348,-0.149816,-1.98006,-27.7025,571.025,-82.04
564,235886,3.010716,-0.434564,-1.778028,22.54,547.575,-102.06
565,235982,2.839672,-0.5267960999999999,-2.039108,16.1525,539.805,-100.135
566,236078,0.259128,0.023668,-3.254228,-9.17,561.2425,-121.38
567,236175,1.55916,1.081652,-1.1777879999999998,-2.8175,476.2975,-177.1525
568,236271,4.547184,-0.22033200000000003,-4.380532,30.2575,337.855,-188.72
569,236367,3.0756200000000002,-0.779092,-3.441132,114.065,54.8975,-156.0475
570,236463,1.016504,-1.2641639999999998,-2.16184,114.3975,-127.2075,-129.5
571,236560,-0.005612,-1.101416,-1.1892559999999999,71.505,-195.0375,-99.54
572,236656,-0.34111199999999997,-0.8357,-0.708332,30.8875,-186.9175,-77.9625
573,236752,-0.183488,-0.6602640000000001,-0.6422081000000001,11.9175,-161.5075,-58.765
574,236848,0.220088,-0.5172800999999999,-0.806176,12.9325,-147.42,-37.765
575,236945,0.5023960999999999,-0.500688,-0.9437921,24.745,-158.8825,-14.84
576,237041,0.589504,-0.5653481,-0.969412,37.1175,-189.1925,7.98
577,237137,0.5777920999999999,-0.57584,-0.916464,37.59,-223.195,27.2825
578,237234,0.552172,-0.5206960999999999,-0.826916,28.2275,-251.23,43.6275
579,237330,0.553392,-0.43358800000000003,-0.7605481,16.2575,-272.44,58.3275
580,237426,0.6219561,-0.32256799999999997,-0.71858,7.0175,-288.1725,72.45
581,237522,0.675148,-0.22448,-0.69052,1.6975,-302.4525,84.805
582,237619,0.712724,-0.121268,-0.670512,-0.0875,-315.07,94.0625
583,237715,0.729804,-0.040748,-0.658068,0.3675,-325.4125,99.17251
584,237811,0.772504,0.027327999999999998,-0.681736,2.52,-332.0975,100.065
585,237907,0.8664440000000001,0.101992,-0.752984,6.2825,-335.9125,97.8425
586,238004,0.989176,0.185684,-0.8437520000000001,15.12,-339.6225,95.235
587,238100,1.133868,0.23911999999999997,-0.9296399999999999,29.1725,-345.2925,92.82001
588,238196,1.235128,0.227408,-0.9799041,46.6375,-353.29,89.8275
589,238292,1.355664,0.166408,-1.0169920000000001,62.405,-361.0425,85.92501
590,238389,1.466684,0.05563200000000001,-1.03944,72.87,-366.73,81.83001
591,238485,1.594296,-0.02562,-1.1272799999999998,76.1075,-370.16,79.275
592,238581,1.7990119999999998,-0.08662001,-1.274656,75.1275,-371.4025,81.375
593,238678,2.07888,-0.09906401,-1.417152,74.9175,-373.5725,88.9
594,238774,2.390468,-0.133712,-1.436672,78.0325,-379.155,99.45251
595,238870,2.7223080000000004,-0.24351199999999998,-1.32126,83.1075,-387.45,109.5675
596,238966,3.021696,-0.26913200000000004,-1.089704,81.3575,-392.7875,117.8975
597,239063,3.208112,-0.160064,-0.766892,74.27,-389.9,126.8225
598,239159,3.351828,-0.147376,-0.29158,69.545,-376.565,132.2825
599,239255,3.372812,0.1098,0.25376,60.7775,-350.77,126.56
600,239351,3.238856,0.613416,0.8457040000000001,59.1325,-309.9425,117.18
601,239448,3.0585400000000003,0.915976,1.46766,82.2675,-255.7275,113.19
602,239544,2.864072,1.01626,1.9929919999999999,109.7075,-192.0625,108.4475
603,239640,3.182492,1.4576559999999998,2.212348,114.6075,-122.1675,96.005
604,239737,3.507744,1.303936,2.459032,117.6525,-66.815,75.775
605,239833,2.97802,1.01748,2.582496,93.24,-26.355,24.465
606,239929,2.310436,0.9240280000000001,2.201368,40.425,25.0075,-58.94
607,240025,1.789984,-0.6422081000000001,1.8946599999999998,-0.1925,92.0675,-141.3825
608,240122,-1.140212,-0.616344,0.229604,-148.96,199.7975,-229.845
609,240218,-0.791536,-0.515328,-2.8792,-174.5975,273.0,-275.0475
610,240314,1.796328,0.182268,-0.23741199999999998,-113.8375,324.7475,-147.3325
611,240410,2.710596,-0.083204,-0.513864,-86.38,352.6425,-35.1575
612,240507,3.569232,1.28954,-2.23992,-84.385,348.18,-30.3275
613,240603,2.817956,1.358592,-2.121336,-61.845,251.895,-32.0425
614,240699,3.5563,-0.614636,-1.664812,-48.3875,158.5325,-53.9
615,240795,0.38795999999999997,-0.392596,-0.305244,-110.425,42.5425,-65.29251
616,240892,0.652456,0.47165200000000007,-1.4295959999999999,-106.9425,24.1675,-58.1875
617,240988,1.218048,0.49263599999999996,-0.973316,-71.4,20.895,-39.34
618,241084,0.8918200000000001,-0.286456,-0.7522521,-30.17,1.2425,-28.21
619,241180,0.6080479999999999,0.122244,-0.928176,-27.685,-3.2725,-21.6125
620,241277,0.701256,-0.017324000000000003,-0.8195960999999999,-20.475,-4.9525,-19.6525
621,241373,0.579012,0.077592,-0.8718120999999999,-16.03,-6.0725,-16.065
622,241469,0.589016,-0.031232,-0.828624,-10.815,-3.6575,-13.5975
623,241565,0.6109760000000001,-0.019275999999999998,-0.8193521,-7.2275,-2.3975,-11.4625
624,241662,0.6141479999999999,-0.009516001,-0.809836,-5.5475,-2.835,-11.445
625,241758,0.573156,-0.021472,-0.8281360999999999,-3.8675,-3.08,-10.4475
626,241854,0.5655920999999999,0.0061,-0.839116,-2.1875,-1.4525,-9.2925
627,241951,0.5785241,-0.00488,-0.8281360999999999,0.49,1.4175,-7.1925
628,242047,0.6019479999999999,-0.048068,-0.797392,2.87,3.605,-4.865
629,242143,0.59048,-0.037088,-0.7956840999999999,3.01,3.4475,-4.48
630,242239,0.5987760999999999,-0.039284,-0.7922680000000001,2.45,3.08,-4.7075
631,242336,0.595116,-0.035136,-0.794708,2.2225,2.3975,-5.355
632,242432,0.581208,-0.038551999999999996,-0.803492,1.995,2.0125,-6.0375
633,242528,0.586088,-0.046604,-0.800808,1.82,2.3625,-7.0525
634,242624,0.577548,-0.033428,-0.8020281,1.7325,2.6775,-8.0675
635,242721,0.5858439999999999,-0.026595999999999998,-0.803248,1.82,2.9925,-8.225
636,242817,0.5887720000000001,-0.02562,-0.8020281,1.8375,3.4475,-8.085
637,242913,0.593896,-0.013175999999999998,-0.791536,1.785,3.71,-7.8225
638,243009,0.594384,-0.026108,-0.789828,2.0125,3.8325,-7.21
639,243106,0.6021920000000001,-0.020252000000000003,-0.784216,1.995,3.92,-6.9475
640,243202,0.59902,-0.01586,-0.787632,2.345,4.1825,-6.615
641,243298,0.601704,-0.02684,-0.7856801,3.3075,4.7075,-6.23
642,243395,0.6039,-0.011224,-0.7890961,4.13,5.4425,-6.16
643,243491,0.599264,-0.02196,-0.7951961,5.32,6.3175,-6.09
644,243587,0.597068,-0.0183,-0.795928,6.58,7.175,-6.2825
645,243683,0.592188,-0.020496,-0.7998321,7.9625,8.4,-6.685
646,243780,0.581696,-0.008296000999999999,-0.812032,9.73,10.255,-7.105
647,243876,0.5936520000000001,-0.024644,-0.796172,14.1575,12.6175,-8.1725
648,243972,0.5673,-0.013175999999999998,-0.817156,18.1125,15.4175,-9.7125
649,244068,0.545096,-0.010736,-0.823744,18.0425,21.21,-9.555
650,244165,0.5546121,-0.01586,-0.8271601000000001,15.085,30.9225,-7.56
651,244261,0.5702281,0.007076001,-0.8315520000000001,16.5725,38.8325,-6.4925
652,244357,0.578036,0.0061,-0.8215481,17.08,46.83,-5.3725
653,244454,0.59292,0.002196,-0.83204,16.625,56.245,-2.73
654,244550,0.584136,-0.024156,-0.832528,16.1,66.045,-0.5775
655,244646,0.5987760999999999,-0.034404000000000004,-0.822524,15.2775,76.685,-0.49
656,244742,0.620736,-0.013908000000000002,-0.8030041,13.895,89.6875,-1.2775
657,244839,0.59902,-0.027572000000000003,-0.802272,12.4425,103.1975,-1.6275
658,244935,0.585112,-0.028548,-0.8239880999999999,9.0825,118.615,-1.9075
659,245031,0.56242,-0.061732,-0.8115439999999999,3.9725,135.94,-1.575
660,245127,0.5814520000000001,-0.057339999999999995,-0.8244761,-2.345,155.26,-2.135
661,245224,0.52582,-0.132248,-0.8054439999999999,-8.4525,173.95,-3.3425
662,245320,0.643428,-0.149572,-0.8769360999999999,-19.9675,191.3975,-4.165
663,245416,0.569984,-0.148108,-0.8971879999999999,-30.94,204.1725,-4.235
664,245512,0.7564001,-0.189588,-0.8256960999999999,-41.9475,231.4725,-9.485
665,245609,0.68808,-0.243756,-0.9486720999999999,-55.3525,259.105,-11.55
666,245705,0.207644,-0.242048,-1.048956,-59.15,289.38,-19.67
667,245801,0.23521599999999998,-0.226188,-0.6009720000000001,-66.2025,317.2925,-30.94
668,245897,1.474004,-0.08442401,-0.732244,-107.9925,385.8925,-51.1875
669,245994,1.9468759999999998,0.025863999999999998,-1.16022,-123.83,479.3425,-64.505
670,246090,1.862208,0.023912,-1.509384,-97.9475,533.6975,-79.765
671,246186,1.915156,-0.25498000000000004,-1.930284,-45.0275,555.5375,-81.67251
672,246283,2.152568,-0.265716,-1.804136,-0.42,526.47,-93.5725
673,246379,3.38184,-0.50142,-1.821216,11.34,501.305,-104.5275
674,246475,1.5847799999999999,-0.42212,-1.926136,-12.4775,515.27,-93.9575
675,246571,0.061488,0.219844,-1.987868,7.1225,531.475,-137.795
676,246668,3.818112,0.44383599999999995,-3.106364,-18.13,387.9575,-184.835
677,246764,3.841536,-0.305976,-3.8105480000000003,76.79,208.2675,-158.0775
678,246860,2.192096,-0.9720960999999999,-2.881396,107.5725,-40.88,-133.8575
679,246956,0.5892601,-1.082384,-1.657736,90.28251,-169.1375,-107.2575
680,247053,-0.09930800000000001,-0.8769360999999999,-0.9435479999999999,52.6225,-206.29,-84.9625
681,247149,-0.320128,-0.7361481,-0.607804,26.7225,-193.27,-66.8325
682,247245,-0.1037,-0.5653481,-0.6141479999999999,17.85,-169.645,-48.16
683,247341,0.25302800000000003,-0.45115600000000006,-0.767624,24.85,-159.46,-24.3425
684,247438,0.45115600000000006,-0.45871999999999996,-0.8559521000000001,42.07,-171.3425,2.73
685,247534,0.49702799999999997,-0.5077640999999999,-0.8637601,54.915,-195.7025,27.895
686,247630,0.49166000000000004,-0.5119121,-0.8169121,53.025,-220.9375,47.845
687,247726,0.49824799999999997,-0.445788,-0.7761640999999999,39.3225,-241.815,62.58
688,247823,0.585356,-0.299388,-0.7861680999999999,22.61,-258.895,73.6575
689,247919,0.6749041,-0.1281,-0.796172,12.845,-276.2725,83.30001
690,248015,0.7078439999999999,0.011712,-0.786412,13.615,-294.385,92.55751
691,248111,0.7266321,0.102724,-0.772016,23.03,-309.925,100.5725
692,248208,0.75274,0.15494000000000002,-0.75762,35.49,-321.6325,105.525
693,248304,0.807884,0.19764,-0.773724,47.075,-329.2275,106.4525
694,248400,0.9006040999999999,0.223504,-0.8147161,57.6975,-334.2325,104.44
695,248496,1.022848,0.251808,-0.8906,67.1125,-338.52,100.7125
696,248593,1.15656,0.26474000000000003,-0.952332,76.4225,-343.21,96.7575
697,248689,1.274168,0.23472800000000002,-1.00528,85.92501,-349.0375,93.4675
698,248785,1.392508,0.180804,-1.051152,92.9775,-354.095,91.0
699,248882,1.488156,0.071492,-1.09922,95.41,-358.6275,89.32
700,248978,1.610644,-0.045872,-1.20292,91.455,-362.04,89.0575
701,249074,1.8229240000000002,-0.06124401,-1.3407799999999999,82.04,-363.3875,91.56
702,249170,2.072048,-0.066856,-1.437892,76.5625,-365.54,98.1225
703,249267,2.401936,-0.12078,-1.45546,77.14,-369.1975,106.5225
704,249363,2.7608599999999996,-0.15176800000000001,-1.347856,78.9075,-373.66,113.68
705,249459,2.970944,0.10858,-1.18584,77.5775,-375.41,121.8175
706,249555,3.167364,0.174216,-0.87718,87.08,-371.0,133.105
707,249652,3.337676,0.17543599999999998,-0.35136,97.5275,-359.52,134.8025
708,249748,3.3445080000000003,0.36087600000000003,0.273524,90.195,-336.595,123.5325
709,249844,3.2168959999999998,0.5838920999999999,1.003328,78.645,-299.355,110.5475
710,249940,3.007056,0.85156,1.716784,67.34000999999999,-248.3425,99.31251
711,250037,3.384524,1.874164,2.297504,52.0625,-182.1575,88.18251
712,250133,3.38306,1.9427279999999998,2.78282,84.4725,-121.835,79.87
713,250229,3.090992,1.436916,3.00608,114.345,-61.5125,46.3225
714,250325,2.3607,0.9398880999999999,2.646668,83.16001,11.3225,-31.115
715,250422,2.213568,0.6822239999999999,1.730204,27.755,88.69,-121.8875
716,250518,0.7056479999999999,-1.077504,0.593896,1.995,144.3225,-183.5575
717,250614,-0.782508,-1.6326040000000002,-1.400316,-135.3275,201.6875,-229.1975
718,250711,-0.7168720000000001,-0.7983680000000001,-2.493436,-203.9625,235.0775,-242.83
719,250807,0.413336,-0.24131599999999997,0.47506800000000005,-129.2725,292.7225,-104.5625
720,250903,2.327516,0.278648,-0.314272,-89.95,380.73,38.0275
721,250999,3.7634559999999997,2.14964,-2.242604,-86.4325,398.825,34.265
722,251096,4.351252,0.050996,-3.192496,-64.9075,278.4425,-22.5225
723,251192,3.007788,0.09320801,-0.9494040000000001,-143.5525,107.7825,-90.335
724,251288,0.167628,-0.000244,-1.081408,-78.6975,-14.5425,-76.02
725,251384,0.821304,0.540948,-1.362496,-84.7175,17.6925,-41.3175
726,251481,0.87718,-0.237168,-0.702476,-37.905,8.015,-26.9675
727,251577,0.777872,-0.017324000000000003,-0.8039801,-29.5925,4.13,-22.2075
728,251673,0.6161,0.056608000000000006,-0.8674200000000001,-24.22,-1.4875,-19.53
729,251769,0.676612,-0.17055599999999999,-0.8049561,-14.5075,-2.1,-14.3675
730,251866,0.61,0.06588,-0.864492,-14.9275,-2.835,-15.12
731,251962,0.6273241,0.023424,-0.831308,-9.275,-1.225,-13.86
732,252058,0.592188,-0.029768,-0.8178880999999999,-3.92,-0.6475,-9.38
733,252155,0.585356,-0.015128,-0.8193521,-2.2575,-0.4025,-8.4175
734,252251,0.59536,0.027816000000000004,-0.823256,-0.56,1.015,-7.4025
735,252347,0.5858439999999999,0.001464,-0.82594,2.485,2.5375,-4.41
736,252443,0.595604,-0.05246,-0.8086161000000001,5.11,3.92,-1.96
737,252540,0.59048,-0.050263999999999996,-0.802272,5.6525,4.9525,-1.5225
738,252636,0.606584,-0.026108,-0.7944641,5.145,5.4075,-1.26
739,252732,0.5941401,-0.055388,-0.7944641,5.3725,5.18,-0.98
740,252828,0.58804,-0.066856,-0.792756,4.76,4.8825,-2.3975
741,252925,0.6034121,-0.0793,-0.7849480999999999,4.095,4.4625,-4.6725
742,253021,0.596336,-0.05977999999999999,-0.801296,3.115,3.815,-7.0
743,253117,0.5941401,-0.05636401,-0.792512,2.5725,3.465,-8.6625
744,253213,0.599508,-0.043676,-0.79422,1.8725,3.22,-9.3275
745,253310,0.592188,-0.043676,-0.793244,1.33,3.2725,-9.415
746,253406,0.608536,-0.031476,-0.7856801,1.4525,3.36,-8.89
747,253502,0.605364,-0.036844,-0.7890961,1.855,3.5875,-8.3125
748,253598,0.607804,-0.032695999999999996,-0.78446,2.17,3.6575,-7.77
749,253695,0.610488,-0.03294,-0.7829961,2.66,3.71,-7.49
750,253791,0.61122,-0.033672,-0.780068,3.1325,3.5,-7.385
751,253887,0.610244,-0.033428,-0.779092,3.465,3.43,-7.5425
752,253984,0.6109760000000001,-0.031964,-0.781532,3.955,3.22,-7.7175
753,254080,0.6097560000000001,-0.028548,-0.785192,4.935,3.5525,-7.735
754,254176,0.598288,-0.029524,-0.79178,6.5625,4.3925,-7.6125
755,254272,0.5958479999999999,-0.033428,-0.7986121,8.4525,5.7575,-8.1725
756,254368,0.60512,-0.033184,-0.787876,11.3575,7.3325,-9.415
757,254465,0.609024,-0.027816000000000004,-0.7832399999999999,14.14,8.7675,-10.4475
758,254561,0.58804,-0.017324000000000003,-0.7986121,15.6625,10.5,-10.3075
759,254657,0.55998,-0.033672,-0.814472,16.415,14.1575,-9.1175
760,254753,0.557052,-0.0061,-0.8364321,14.7525,21.0875,-7.84
761,254850,0.571448,-0.022203999999999998,-0.81374,14.6825,29.5925,-6.23
762,254946,0.58072,-0.000244,-0.820816,15.925,37.6075,-4.165
763,255042,0.583404,0.001464,-0.8369200000000001,16.9925,46.7775,-0.8225
764,255138,0.5858439999999999,-0.037576,-0.833992,17.955,57.05,2.135
765,255235,0.583648,-0.05002,-0.8247200000000001,17.7275,67.1125,3.6225
766,255331,0.6080479999999999,-0.037332,-0.8052,17.3775,77.9275,3.2025
767,255427,0.605608,-0.03782,-0.803248,16.45,90.30001,2.87
768,255523,0.6036560999999999,-0.021228,-0.8010520000000001,14.455,105.175,2.87
769,255620,0.5726680000000001,-0.036356,-0.8193521,13.02,122.9375,3.185
770,255716,0.582428,-0.060267999999999995,-0.8359440999999999,10.745,142.555,3.85
771,255812,0.5414359999999999,-0.105652,-0.828624,5.88,161.9975,3.08
772,255908,0.47555600000000003,-0.168604,-0.830576,-1.75,182.5075,1.225
773,256005,0.552416,-0.13908,-0.8791321,-10.885,201.005,3.6225
774,256101,0.632204,-0.223748,-0.9232961,-18.9525,224.1225,3.115
775,256197,0.814472,-0.207156,-0.9137799999999999,-31.6575,253.855,-2.555
776,256293,0.485072,-0.162504,-1.003572,-34.5625,290.57,-7.5425
777,256390,0.129076,-0.296948,-1.0243120000000001,-34.79,320.67,-11.5675
778,256486,1.066524,-0.21618400000000002,-0.569984,-66.2725,355.495,-34.4575
779,256582,1.4459440000000001,-0.061,-1.070184,-87.43,446.7575,-48.3175
780,256679,2.189168,-0.145424,-1.6452919999999998,-63.8225,516.7575,-63.8225
781,256775,1.571848,-0.15762400000000001,-1.654564,-53.8125,538.7375,-82.95
782,256871,1.914668,-0.35233600000000004,-1.813652,-15.3825,527.7475,-95.725
783,256967,3.100752,-0.610244,-1.903932,9.5375,500.2025,-102.76
784,257064,1.7977919999999998,-0.410896,-1.7453319999999999,-18.1475,505.2425,-94.88501
785,257160,0.265228,-0.058316,-2.4209680000000002,-11.6375,536.7249,-109.3225
786,257256,2.250656,1.18462,-1.873676,-5.495,397.635,-147.525
787,257352,3.7695559999999997,-0.06929600000000001,-3.854712,83.66751,271.3025,-139.335
788,257449,2.368264,-0.739808,-2.928976,146.1075,20.8425,-126.84
789,257545,0.734684,-1.016504,-1.8541560000000001,130.0075,-127.9775,-117.7225
790,257641,-0.060024,-0.803492,-1.02358,85.71500999999999,-186.7425,-106.1025
791,257737,-0.304268,-0.6329359999999999,-0.61366,57.5925,-183.9775,-96.6875
792,257833,-0.11224,-0.55632,-0.546072,51.7125,-164.2375,-83.0725
793,257930,0.25522399999999995,-0.5604680000000001,-0.676612,59.0975,-154.175,-62.1775
794,258026,0.483608,-0.648308,-0.785192,69.195,-165.9,-36.3475
795,258122,0.549488,-0.718824,-0.8117880000000001,71.61,-191.59,-8.5575
796,258219,0.548268,-0.706624,-0.7829961,60.9,-219.2575,17.9375
797,258315,0.564372,-0.602436,-0.763476,41.7725,-242.515,41.3525
798,258411,0.624396,-0.400404,-0.7834840000000001,22.995,-261.7825,61.2325
799,258507,0.71004,-0.14786400000000002,-0.81618,15.645,-280.0875,79.065
800,258604,0.7427361,0.058316,-0.823744,24.01,-298.9,95.69
801,258700,0.7329760000000001,0.204716,-0.800564,42.525,-315.595,107.9925
802,258796,0.7500560000000001,0.317688,-0.802272,62.615,-327.18,112.21
803,258892,0.8086161000000001,0.43676000000000004,-0.8291120999999999,81.18251,-334.145,109.1125
804,258989,0.9118280000000001,0.5553441,-0.9010921000000001,98.0525,-339.4475,101.0275
805,259085,1.042856,0.661972,-0.969412,116.725,-343.42,90.70251
806,259181,1.159,0.6919841,-1.008208,137.55,-347.1825,80.3775
807,259277,1.2439120000000001,0.633424,-1.026508,156.2925,-349.825,71.4875
808,259374,1.336388,0.532652,-1.022604,167.86,-349.4925,65.0475
809,259470,1.464976,0.418704,-1.0565200000000001,170.975,-344.6975,64.0675
810,259566,1.6145479999999999,0.374052,-1.13216,165.375,-336.8575,70.14
811,259662,1.79462,0.384056,-1.268068,158.83,-328.2475,82.005
812,259759,2.151104,0.41577600000000003,-1.4457,154.385,-319.795,96.6175
813,259855,2.562,0.615124,-1.542812,148.925,-319.3225,107.905
814,259951,2.808684,0.774944,-1.470344,144.62,-331.1,110.6175
815,260047,2.954352,0.681736,-1.1272799999999998,140.9625,-349.7375,95.2525
816,260144,2.99266,0.5787680000000001,-0.61366,120.6625,-360.8675,61.1625
817,260240,2.982656,0.55266,-0.044407999999999996,92.225,-356.3525,23.5725
818,260336,2.9197040000000003,0.590236,0.5455840000000001,72.73,-332.815,-1.26
819,260432,2.752564,0.69784,1.102636,69.59751,-290.36,-7.385
820,260529,2.542968,0.7766521,1.592344,78.33,-232.715,2.4675
821,260625,2.396568,1.122644,1.8531799999999998,83.0375,-167.0375,17.8675
822,260721,2.794288,1.6043,2.0234919999999996,82.9675,-100.205,28.385
823,260818,2.7786720000000003,1.402024,2.176724,85.99501,-51.3975,18.5675
824,260914,2.320684,1.198528,1.9956759999999998,55.475,-5.8975,-32.9175
825,261010,2.1069400000000003,1.188524,1.397144,12.04,47.7925,-101.64
826,261106,2.108404,1.047004,0.66368,1.7325,92.8725,-152.4075
827,261203,0.384788,-1.616744,-0.8808401,-22.54,122.1325,-193.305
828,261299,-0.313296,-0.8437520000000001,-2.124264,-187.845,156.135,-267.6275
829,261395,-0.856684,-0.758596,-1.479372,-185.4475,185.0975,-270.2175
830,261491,0.42748800000000003,0.09638,0.378444,-138.075,242.9,-165.025
831,261588,2.6349560000000003,0.28011199999999997,-1.120692,-102.8125,329.315,-77.385
832,261684,3.445524,0.8964561,-2.043744,-91.42,320.915,-50.295
833,261780,4.891468,0.624884,-2.3441080000000003,-140.2975,180.285,-75.6875
834,261876,0.8235001000000001,0.9098761000000001,-0.924516,-146.9125,29.5925,-99.41751
835,261973,0.6075600999999999,0.753228,-1.3949479999999999,-66.2725,4.795,-56.6125
836,262069,0.764452,-0.42724399999999996,-0.8115439999999999,-26.565,10.1675,-24.4825
837,262165,0.778604,0.33428,-0.8220360000000001,-25.515,14.63,-12.4075
838,262261,0.753472,0.01708,-0.821792,-8.8725,5.7925,-6.055
839,262358,0.688812,-0.039528,-0.811056,-4.13,3.57,-1.645
840,262454,0.5980439999999999,-0.024156,-0.8222799999999999,-2.3275,1.435,-2.17
841,262550,0.5934081,-0.02196,-0.81984,-0.175,2.31,-2.4325
842,262646,0.596092,-0.046116000000000004,-0.805932,2.1,3.815,-1.295
843,262743,0.6082920999999999,-0.034892,-0.7991,3.255,4.655,-1.365
844,262839,0.596336,-0.017324000000000003,-0.8020281,4.2,4.865,-1.19
845,262935,0.593896,-0.017324000000000003,-0.8105680000000001,5.2675,6.0375,0.1575
846,263031,0.598532,-0.043188,-0.7993439999999999,6.23,7.28,1.365
847,263128,0.6034121,-0.06344,-0.791292,6.44,8.19,1.54
848,263224,0.606584,-0.040504000000000005,-0.790072,6.02,8.5575,0.21
849,263320,0.604632,-0.053191999999999996,-0.7956840999999999,6.1775,8.855,-0.1925
850,263416,0.6007279999999999,-0.050508,-0.798124,6.195,9.555,-0.77
851,263513,0.617564,-0.04514,-0.7829961,6.2475,10.43,-1.6275
852,263609,0.618052,-0.06075601,-0.7808001,6.1075,10.185,-1.8025
853,263705,0.6156119999999999,-0.07246799999999999,-0.775676,5.6525,9.3975,-2.31
854,263801,0.6161,-0.05246,-0.775188,4.83,8.855,-3.36
855,263898,0.6258600000000001,-0.049044,-0.7732359999999999,4.6725,8.4,-3.6925
856,263994,0.623664,-0.0488,-0.7747001,4.7075,7.98,-3.6925
857,264090,0.628788,-0.043188,-0.770308,4.7425,7.595,-3.5525
858,264187,0.630008,-0.044652,-0.769332,4.9875,7.14,-3.15
859,264283,0.632448,-0.047580000000000004,-0.765428,5.215,6.7725,-2.8
860,264379,0.6280560000000001,-0.045872,-0.765184,5.285,6.44,-2.5725
861,264475,0.633912,-0.05612,-0.762988,5.285,6.125,-2.4325
862,264572,0.634156,-0.058072000000000006,-0.7622561,5.25,5.7225,-2.6075
863,264668,0.634156,-0.060024,-0.759328,5.4075,5.18,-3.1675
864,264764,0.638304,-0.058072000000000006,-0.7598161,6.0375,4.6025,-3.78
865,264860,0.6344,-0.056608000000000006,-0.7622561,6.7725,4.0775,-4.3225
866,264957,0.633424,-0.058803999999999995,-0.764452,7.3675,3.9375,-4.9
867,265053,0.6375721,-0.051972000000000004,-0.758108,7.875,4.0425,-5.2325
868,265149,0.639768,-0.0366,-0.7612800999999999,8.12,4.095,-5.04
869,265245,0.6314721,-0.040992,-0.7673800000000001,8.3475,4.69,-4.1475
870,265342,0.6222,-0.041724000000000004,-0.776408,8.89,6.09,-2.9575
871,265438,0.6117081,-0.03904,-0.787876,9.3275,8.715,-2.2575
872,265534,0.6039,-0.050752,-0.7954399999999999,10.29,12.5475,-1.925
873,265630,0.6097560000000001,-0.050996,-0.797636,11.48,17.3775,-2.275
874,265727,0.6124400999999999,-0.049776,-0.8010520000000001,12.88,22.9425,-2.66
875,265823,0.607316,-0.049044,-0.805932,14.2975,29.3125,-2.94
876,265919,0.630008,-0.08296,-0.7808001,15.5925,36.8375,-3.115
877,266015,0.5934081,-0.049532,-0.8230120999999999,14.49,45.675,-3.78
878,266112,0.593896,-0.050508,-0.826672,14.1225,56.315,-4.9875
879,266208,0.587064,-0.07173600000000001,-0.826916,13.7725,69.405,-6.3875
880,266304,0.581696,-0.07246799999999999,-0.828868,12.6525,85.4,-7.91
881,266400,0.586332,-0.049532,-0.8276481,12.0225,103.565,-9.485
882,266497,0.580476,-0.057828,-0.8103239999999999,13.5275,122.9025,-10.5525
883,266593,0.56852,-0.07637200000000001,-0.8727879999999999,11.8125,142.625,-12.18
884,266689,0.530212,-0.055388,-0.876692,8.5925,161.77,-13.23
885,266785,0.612196,-0.101748,-0.9435479999999999,8.89,179.2525,-9.135
886,266882,0.5997520000000001,-0.1281,-0.8954801,8.61,196.4025,-7.0525
887,266978,0.6939361,-0.230336,-0.9010921000000001,10.78,226.485,-12.8975
888,267074,0.8296,-0.200812,-0.9806360000000001,12.215,253.96,-15.2425
889,267170,0.8049561,-0.162992,-1.015772,31.1675,287.105,-20.615
890,267267,0.9591639999999999,-0.11224,-1.11386,53.515,320.915,-30.4325
891,267363,1.31028,-0.098088,-1.18462,81.095,345.87,-41.685
892,267459,1.172664,-0.102724,-0.882548,107.66,360.78,-53.76
893,267555,1.0767719999999998,-0.05977999999999999,-0.9557479999999999,133.7175,372.6275,-62.475
894,267652,1.482788,-0.10833599999999999,-0.8959681,179.34,365.9075,-67.5325
895,267748,1.640412,-0.274256,-0.829356,208.6525,359.1525,-71.3825
896,267844,1.388116,-0.174948,-0.9274440999999999,232.365,349.1425,-78.55751
897,267941,1.19804,-0.2196,-0.9415959999999999,259.035,321.58,-92.47001
898,268037,0.19642,-0.21472,-1.0767719999999998,261.905,257.4075,-110.4775
899,268133,2.256268,0.138104,-2.057896,245.5075,158.8825,-133.735
900,268229,2.375828,-0.50752,-2.5053919999999996,228.0775,38.6575,-139.23
901,268326,0.716384,-0.46921199999999996,-1.485716,223.755,-117.5475,-139.0725
902,268422,0.028304000000000003,-0.380152,-0.74298,221.5325,-177.5725,-118.4925
903,268518,-0.30841599999999997,-0.5099600000000001,-0.215452,230.51,-176.505,-88.865
904,268614,-0.067344,-0.6514800000000001,-0.229604,221.0775,-148.295,-59.045
905,268711,0.24790399999999999,-0.5011760000000001,-0.506788,185.5175,-129.045,-31.4125
906,268807,0.44286000000000003,-0.217404,-0.7812880999999999,151.0775,-132.6325,-2.345
907,268903,0.481412,0.122732,-0.9171961,131.635,-152.3025,26.0925
908,268999,0.41406800000000005,0.468236,-0.9298841,131.04,-175.0875,47.6875
909,269096,0.354532,0.782752,-0.9025559999999999,144.0075,-193.025,57.4175
910,269192,0.3538,1.025044,-0.91012,164.01,-206.5,52.2025
911,269288,0.398452,1.230248,-0.9274440999999999,185.22,-217.4375,31.745
912,269384,0.44676400000000005,1.380552,-0.9262239999999999,205.3275,-227.815,-0.0875
913,269481,0.46774799999999994,1.426668,-0.9042641,224.385,-237.2825,-36.5925
914,269577,0.5185,1.354444,-0.8857200999999999,241.3775,-243.075,-70.0175
915,269673,0.59536,1.209264,-0.8845,251.405,-246.3825,-95.69
916,269769,0.643672,1.0553,-0.8759601,253.155,-248.8325,-110.705
917,269866,0.6634359999999999,0.9620920000000001,-0.8640040000000001,248.5175,-249.83,-114.905
918,269962,0.693204,0.9232961,-0.8679081,242.2525,-248.29,-110.705
919,270058,0.741272,0.9286639999999999,-0.8781559999999999,237.685,-244.3875,-103.32
920,270154,0.794708,0.9684360999999999,-0.9030440000000001,235.1125,-239.6275,-98.0875
921,270251,0.8664440000000001,1.009184,-0.9501360999999999,235.55,-234.2725,-98.0
922,270347,0.9520881,1.057496,-0.990884,238.42,-229.6875,-104.125
923,270443,1.004792,1.1094680000000001,-0.978928,242.935,-226.94,-115.3425
924,270540,1.037488,1.11142,-0.9237841,248.3075,-224.0875,-128.94
925,270636,1.128256,1.11752,-0.864492,252.0175,-218.4875,-143.3075
926,270732,1.1892559999999999,1.1953559999999999,-0.788608,254.9225,-211.2075,-155.5575
927,270828,1.2688,1.21756,-0.686372,260.1375,-200.9525,-164.1675
928,270925,1.3771360000000001,1.20048,-0.5607121,261.3275,-188.86,-173.5475
929,271021,1.469856,1.214632,-0.42602399999999996,251.8775,-174.965,-186.9175
930,271117,1.557208,1.24928,-0.282552,237.6675,-158.1125,-201.8625
931,271213,1.606984,1.2078,-0.132736,226.485,-139.0025,-213.535
932,271310,1.597224,1.093364,0.020252000000000003,216.4575,-118.335,-220.22
933,271406,1.548424,0.9962521000000001,0.1464,202.23,-96.005,-222.3375
934,271502,1.489132,0.942572,0.212524,183.925,-72.4675,-220.01
935,271598,1.417884,0.8976761000000001,0.22033200000000003,163.31,-49.875,-213.5525
936,271695,1.3449280000000001,0.799588,0.208864,141.26,-29.0675,-203.98
937,271791,1.254404,0.684664,0.18422,116.69,-10.675,-192.605
938,271887,1.1533879999999999,-0.5614439999999999,0.41455600000000004,90.23001,7.805,-180.1625
939,271983,1.122156,0.5873079999999999,0.566812,-46.9875,40.775,-201.04
940,272080,1.8595240000000002,-0.137372,-1.185108,-117.6175,68.79251,-227.57
941,272176,3.7236839999999995,-1.315892,-2.022516,-105.49,31.0625,-168.6475
942,272272,0.006344,-0.516792,-0.11736400000000001,-91.945,-26.6525,-66.0275
943,272369,0.6095119999999999,1.5225600000000001,-1.907836,-94.99,2.5025,-12.0925
944,272465,0.040748,0.78446,-0.955992,-32.7075,5.3725,-6.335
945,272561,1.021872,-0.34477199999999997,-0.80886,-9.905,16.625,-20.9475
946,272657,0.640256,0.313296,-0.793488,-11.55,9.66,-8.995
947,272754,0.6368401,0.033672,-0.8113001,-4.515,6.86,-9.9575
948,272850,0.7156520000000001,0.07686,-0.8071520000000001,-2.555,5.145,-10.815
949,272946,0.632448,0.058316,-0.81618,-0.7875,3.7275,-9.3275
950,273042,0.6263479999999999,-0.030256,-0.813496,1.015,3.7625,-7.91
951,273139,0.614392,0.002196,-0.8127641,0.7175,3.8675,-7.0525
952,273235,0.62464,-0.040016,-0.800076,2.1175,4.305,-6.3
953,273331,0.619272,-0.041724000000000004,-0.800076,2.94,4.34,-6.8425
954,273427,0.626104,-0.011468,-0.80276,3.885,4.1475,-6.9475
955,273523,0.6178081,-0.053191999999999996,-0.803248,2.03,2.9575,-7.3325
956,273620,0.6107319999999999,-0.025376,-0.7954399999999999,1.47,3.1325,-7.3675
957,273716,0.6178081,-0.028548,-0.7954399999999999,1.155,3.01,-7.6125
958,273812,0.611464,-0.028304000000000003,-0.7951961,1.365,2.975,-7.455
959,273908,0.6197600000000001,-0.022692,-0.7869,1.715,3.1675,-6.9825
960,274005,0.618052,-0.01586,-0.783728,1.785,2.975,-6.4225
961,274101,0.609268,-0.016836,-0.787144,2.275,2.6775,-5.6175
962,274197,0.6075600999999999,-0.021716,-0.79178,2.345,2.59,-5.1625
963,274293,0.605608,-0.02684,-0.788608,2.485,2.9925,-4.83
964,274390,0.6107319999999999,-0.031232,-0.787632,2.87,3.29,-4.655
965,274486,0.615124,-0.040504000000000005,-0.780556,3.115,3.43,-4.69
966,274582,0.6182960999999999,-0.042944,-0.781044,3.0625,3.255,-4.9875
967,274679,0.621468,-0.041968,-0.774212,3.22,2.975,-5.495
968,274775,0.61854,-0.050508,-0.774944,3.815,2.485,-6.2825
969,274871,0.6161,-0.033672,-0.7759199999999999,4.165,1.9775,-7.4375
970,274967,0.616588,-0.041724000000000004,-0.776408,4.4975,1.68,-8.015
971,275064,0.611464,-0.035868000000000004,-0.780556,5.11,1.5575,-8.8025
972,275160,0.611952,-0.026595999999999998,-0.781776,5.8625,1.68,-9.2225
973,275256,0.607804,-0.024888,-0.786656,6.5625,2.275,-9.0825
974,275352,0.610244,-0.029524,-0.780068,7.245,3.0975,-8.96
975,275449,0.60878,-0.0122,-0.7893399999999999,7.9275,4.1125,-9.0125
976,275545,0.613416,-0.025131999999999998,-0.781044,8.435,5.4775,-8.6975
977,275641,0.6156119999999999,-0.022692,-0.781776,8.4875,7.14,-7.8225
978,275737,0.5968241,-0.000244,-0.7991,8.2075,8.6625,-6.86
979,275834,0.59048,-0.0244,-0.791292,8.33,10.8675,-6.5975
980,275930,0.5978,0.001952,-0.7993439999999999,6.0725,15.3825,-5.95
981,276026,0.6080479999999999,-0.006587999999999999,-0.7944641,6.1775,19.2675,-4.62
982,276122,0.612684,-0.012931999999999999,-0.7881199999999999,5.985,22.715,-4.1825
983,276219,0.6182960999999999,-0.022692,-0.785924,6.0025,26.5475,-3.6925
984,276315,0.614392,-0.01708,-0.7937320999999999,5.95,31.2725,-3.57
985,276411,0.6131721,-0.02928,-0.797148,6.4925,36.9775,-3.6575
986,276507,0.615124,-0.039284,-0.7937320999999999,7.1575,43.6275,-4.515
987,276604,0.6131721,-0.04148,-0.792512,7.6475,51.2575,-6.02
988,276700,0.62098,-0.040748,-0.788608,8.8375,60.13,-7.7525
989,276796,0.62464,-0.031476,-0.772016,10.185,70.1575,-9.8525
990,276892,0.639768,-0.027327999999999998,-0.7722600000000001,11.9525,80.5875,-11.62
991,276989,0.6422081000000001,-0.01342,-0.7664041,12.8975,91.455,-12.5125
992,277085,0.631228,-0.017324000000000003,-0.7617681,13.09,103.4075,-12.985
993,277181,0.6258600000000001,-0.022692,-0.765184,12.88,116.6025,-13.2825
994,277277,0.6292760000000001,-0.030744,-0.765672,13.7025,130.5325,-12.6175
995,277374,0.636108,-0.059536,-0.7754321,15.785,145.2325,-12.3025
996,277470,0.677344,-0.0549,-0.7856801,19.4075,159.18,-13.23
997,277566,0.618784,-0.061,-0.820572,23.0125,171.115,-11.9875
998,277662,0.69906,-0.025376,-0.83936,25.2875,183.995,-5.7575
999,277759,0.8015399999999999,-0.017812,-0.8730319999999999,42.875,211.5575,1.6975
1000,277855,0.8132520999999999,-0.032695999999999996,-0.987712,69.545,246.05,10.535
1001,277951,0.6280560000000001,0.046848,-1.1155680000000001,102.9875,287.84,15.6275
1002,278047,0.9472079999999999,-0.15396400000000002,-1.0208959999999998,143.22,331.485,15.365
1003,278144,1.425448,-0.249612,-1.240984,164.4475,380.135,4.1125
1004,278240,1.464488,-0.07808001,-1.333704,157.1325,417.8825,-14.6475
1005,278336,1.1712,0.335744,-1.130452,155.19,434.805,-32.06
1006,278432,1.738012,0.10004,-1.583072,208.2325,438.2525,-30.1875
1007,278529,2.656916,-0.29377600000000004,-1.311012,246.155,422.66,-39.3925
1008,278625,1.301252,-0.348432,-1.8575720000000002,243.845,438.375,-42.735
1009,278721,0.9894200000000001,-0.511668,-1.494988,245.84,399.7525,-77.1225
1010,278817,0.6392800000000001,-0.159332,-0.887916,192.99,281.435,-110.8975
1011,278914,3.5502,-0.4819,-3.4616279999999997,155.12,202.1775,-129.6225
1012,279010,1.713124,-0.42333999999999994,-2.410964,147.945,-2.4325,-124.5825
1013,279106,0.06075601,-0.45871999999999996,-1.363716,151.41,-115.36,-109.5675
1014,279202,-0.363804,-0.373076,-0.7610359999999999,168.14,-135.38,-83.755
1015,279299,-0.19032000000000002,-0.490928,-0.5787680000000001,182.91,-107.8175,-57.89
1016,279395,0.194224,-0.638792,-0.7361481,182.4725,-88.795,-30.205
1017,279491,0.443592,-0.75762,-0.9494040000000001,161.3325,-97.09000999999999,0.6125
1018,279587,0.450668,-0.640012,-1.050908,120.68,-122.36,33.005
1019,279684,0.413092,-0.32696,-1.087752,79.24,-149.94,65.3975
1020,279780,0.393084,-0.00122,-1.077016,53.0075,-173.3375,94.85
1021,279876,0.4209,0.277672,-1.065792,42.3325,-192.4125,116.515
1022,279972,0.498004,0.510692,-1.092144,39.6025,-210.2275,127.0325
1023,280069,0.5587601,0.700036,-1.115324,43.5575,-228.1825,129.4475
1024,280165,0.581696,0.822524,-1.111908,47.985,-246.7675,120.9775
1025,280261,0.623664,1.0321200000000001,-1.1346,46.4275,-263.9525,100.8875
1026,280357,0.66978,1.176812,-1.1472879999999999,52.0975,-279.5975,76.265
1027,280454,0.743712,1.2012120000000002,-1.139968,65.94,-292.3025,51.73
1028,280550,0.8166680000000001,1.081164,-1.129232,80.3775,-303.135,30.1175
1029,280646,0.9059721,0.8876719999999999,-1.136064,86.29251,-312.2875,12.985
1030,280742,0.9972281,0.701256,-1.1448479999999999,79.7125,-320.1625,1.155
1031,280839,1.086288,0.5751081,-1.1653440000000002,63.9975,-327.495,-5.18
1032,280935,1.170224,0.496784,-1.194624,47.3025,-333.5325,-6.615
1033,281031,1.279536,0.44505600000000006,-1.238788,34.93,-338.1875,-4.9525
1034,281127,1.40056,0.34721199999999997,-1.276852,28.4025,-342.055,-2.94
1035,281224,1.523536,0.2501,-1.259772,24.8325,-345.3275,-2.8875
1036,281320,1.584048,0.339648,-1.157292,23.135,-346.08,-3.6575
1037,281416,1.705804,0.5231359999999999,-1.100684,33.775,-338.4675,-2.7825
1038,281513,1.956148,0.45896400000000004,-1.000156,64.96,-324.7475,-2.1175
1039,281609,2.4029119999999997,0.22082,-0.912316,92.9775,-310.31,-6.7375
1040,281705,2.7303599999999997,0.05612,-0.686128,100.52,-302.89,-18.235
1041,281801,2.7835520000000002,0.07515201,-0.299144,93.66,-298.62,-30.8875
1042,281898,2.688148,0.18251199999999998,0.161528,87.1325,-285.6175,-36.5575
1043,281994,2.560536,0.27694,0.590968,87.1675,-259.8575,-35.0525
1044,282090,2.505636,0.273524,0.9396440999999999,89.4075,-224.385,-30.31
1045,282186,2.54736,0.24863600000000002,1.19072,84.14001,-184.24,-28.91
1046,282283,2.6171439999999997,0.270352,1.405196,67.3925,-144.6725,-31.92
1047,282379,2.542236,0.327448,1.6108879999999999,45.2725,-107.065,-35.525
1048,282475,2.38632,0.42553599999999997,1.7280080000000002,24.0275,-65.8875,-38.395
1049,282571,2.279204,0.50142,1.676036,9.4325,-19.635,-40.9325
1050,282668,2.258464,0.5246,1.4818120000000001,1.505,27.1775,-45.3425
1051,282764,1.962736,-0.013175999999999998,1.379332,-14.91,81.97001,-64.9775
1052,282860,-0.017568,-0.48556000000000005,-0.049044,-71.7675,162.6275,-134.9775
1053,282956,0.0051240009999999996,-1.2136559999999998,-2.598112,-73.3425,198.7125,-177.485
1054,283053,1.3764040000000002,-0.303048,-1.386408,-88.62,210.5075,-157.5525
1055,283149,1.7097080000000002,-0.11955999999999999,-0.235704,-72.415,215.81,-87.29
1056,283245,2.7847720000000002,0.48556000000000005,-1.692384,-68.9325,223.755,-54.95
1057,283341,1.8168240000000002,0.68076,-1.483276,-49.595,159.3725,-21.49
1058,283438,1.312232,-0.763232,-1.176812,-34.5275,102.725,-27.09
1059,283534,1.125084,-0.388936,-0.729072,-87.9375,68.0575,-56.2975
1060,283630,0.8361879999999999,0.44066400000000006,-1.044808,-84.42,33.4075,-42.9625
1061,283726,1.230736,0.665876,-1.2639200000000002,-70.4025,21.8225,-38.2375
1062,283823,0.7625,-0.22252800000000003,-0.8425321,-27.4575,-1.1725,-28.455
1063,283919,0.6771,0.046604,-0.8744960999999999,-21.245,-1.6625,-19.04
1064,284015,0.65758,0.0854,-0.8657120999999999,-15.5225,-1.995,-15.3125
1065,284111,0.6514800000000001,0.00244,-0.8376520000000001,-8.1725,-2.3625,-10.185
1066,284208,0.612928,0.00366,-0.8281360999999999,-3.4475,-2.2575,-5.39
1067,284304,0.605364,-0.062952,-0.8044680999999999,-0.35,-2.1,-3.0275
1068,284400,0.5673,-0.054412,-0.8103239999999999,0.4725,-1.995,-2.3625
1069,284496,0.545096,-0.043432,-0.8315520000000001,1.5225,-0.77,-1.89
1070,284593,0.569984,-0.048556,-0.8174001000000001,3.08,2.03,-0.7875
1071,284689,0.5946279999999999,-0.051484,-0.8044680999999999,4.235,4.0075,-0.0525
1072,284785,0.5856,-0.0732,-0.7993439999999999,5.075,4.5325,0.0525
1073,284881,0.6021920000000001,-0.069784,-0.792756,4.76,5.0925,-0.6475
1074,284978,0.605364,-0.051972000000000004,-0.7903161,4.2525,5.005,-1.61
1075,285074,0.587796,-0.050752,-0.800564,4.06,4.515,-2.5025
1076,285170,0.5892601,-0.051972000000000004,-0.7991,3.885,4.7075,-3.4825
1077,285266,0.586576,-0.049044,-0.800808,3.8675,5.25,-4.2
1078,285363,0.599264,-0.035624,-0.7993439999999999,4.06,6.0025,-4.4275
1079,285459,0.592432,-0.035136,-0.801296,4.7775,6.5975,-4.095
1080,285555,0.5858439999999999,-0.045384,-0.797636,5.4775,7.175,-3.815
1081,285651,0.580964,-0.050508,-0.7991,5.74,8.33,-3.885
1082,285748,0.604632,-0.060267999999999995,-0.787632,5.7925,9.625,-4.375
1083,285844,0.6097560000000001,-0.06563601,-0.780556,5.7575,10.2025,-4.8475
1084,285940,0.6170760000000001,-0.05612,-0.7754321,5.4775,10.045,-5.0575
1085,286036,0.6156119999999999,-0.06539201,-0.7747001,5.2325,9.695,-5.25
1086,286133,0.605364,-0.063196,-0.780068,5.0925,9.415,-5.565
1087,286229,0.619516,-0.047580000000000004,-0.775676,5.355,9.8,-5.25
1088,286325,0.611464,-0.044164,-0.78446,6.16,10.2725,-4.5675
1089,286421,0.6058520000000001,-0.046360000000000005,-0.7881199999999999,7.3675,11.1825,-4.165
1090,286518,0.60512,-0.03904,-0.784216,8.47,13.09,-4.1125
1091,286614,0.583648,-0.030012,-0.814472,11.48,14.8925,-4.8825
1092,286710,0.5948720000000001,-0.05587601,-0.799588,17.3425,17.1325,-7.0
1093,286806,0.60634,-0.030256,-0.79422,20.5275,20.3525,-8.435
1094,286903,0.567788,-0.050996,-0.8030041,22.1375,23.8525,-8.4175
1095,286999,0.568032,-0.08906,-0.7998321,20.16,30.6075,-7.4375
1096,287095,0.57706,-0.039772,-0.8178880999999999,15.68,40.0225,-6.79
1097,287191,0.6029241,-0.02074,-0.80276,17.8325,48.7725,-5.8275
1098,287288,0.5887720000000001,-0.026595999999999998,-0.81618,17.605,57.8025,-4.5325
1099,287384,0.59048,-0.0366,-0.82594,16.765,68.65250999999999,-2.1
1100,287480,0.6156119999999999,-0.047336,-0.8115439999999999,16.485,82.18,-0.56
1101,287576,0.599996,-0.05368,-0.8071520000000001,16.45,98.0175,-0.2975
1102,287673,0.60268,-0.0488,-0.8025161,14.6125,115.5175,0.77
1103,287769,0.595116,-0.02074,-0.7978801,10.7275,133.98,2.52
1104,287865,0.6034121,-0.016592,-0.8044680999999999,6.755,152.8275,5.845
1105,287961,0.549244,-0.06954,-0.8310639999999999,2.135,172.0075,8.89
1106,288058,0.659776,-0.14713199999999999,-0.8544879999999999,-5.88,189.595,11.095
1107,288154,0.5897479999999999,-0.128344,-0.784216,-11.6025,199.6225,17.3775
1108,288250,0.698816,-0.162748,-0.8532681000000001,-15.155,220.15,18.4625
1109,288346,0.853024,-0.188612,-0.8447280999999999,-27.4575,249.6025,24.885
1110,288443,0.341356,-0.171044,-0.886452,-41.93,291.5325,26.7925
1111,288539,0.19959200000000002,-0.16226,-0.9103641,-51.205,318.4125,24.325
1112,288635,1.6108879999999999,-0.090768,-0.8544879999999999,-67.585,375.725,18.8475
1113,288731,1.753628,-0.230336,-1.283928,-66.46500999999999,488.285,4.7075
1114,288828,1.9834759999999998,-0.211548,-1.8256080000000001,-66.2725,544.1625,-17.6925
1115,288924,1.621624,-0.149572,-1.569164,-45.29,553.0175,-46.4975
1116,289020,2.3624080000000003,-0.16909200000000002,-1.8397599999999998,12.81,550.5675,-76.02
1117,289116,3.285704,-0.5063,-1.809748,64.995,540.5925,-75.705
1118,289213,1.1751040000000001,-0.056852,-2.4461,46.095,561.855,-71.33
1119,289309,0.316712,0.384788,-1.5159719999999999,61.635,528.4475,-113.3825
1120,289405,4.124332,0.22789600000000002,-3.3598800000000004,56.42,399.1225,-158.4975
1121,289501,3.602904,-0.5553441,-3.6631720000000003,115.8325,199.3775,-158.7425
1122,289598,2.108404,-0.8840120000000001,-2.9138479999999998,112.1925,-36.155,-160.8775
1123,289694,0.526552,-0.964532,-1.7863240000000002,83.2825,-161.805,-144.3925
1124,289790,-0.07881200000000001,-0.776896,-1.111176,48.58,-196.0175,-130.3575
1125,289886,-0.15128,-0.576816,-0.837408,25.5325,-186.7075,-119.2275
1126,289983,0.004148001,-0.505568,-0.796904,22.1025,-175.105,-106.47
1127,290079,0.296216,-0.48995200000000005,-0.8786440999999999,28.2275,-174.475,-90.28251
1128,290175,0.5058121,-0.5231359999999999,-0.917684,36.365,-191.1,-72.415
1129,290271,0.535824,-0.57462,-0.8842561,39.8475,-220.2725,-55.4225
1130,290368,0.530456,-0.57462,-0.824232,36.225,-248.3075,-41.0025
1131,290464,0.537532,-0.549244,-0.76372,28.6125,-269.815,-26.46
1132,290560,0.589504,-0.532896,-0.733952,20.825,-286.335,-10.71
1133,290657,0.644404,-0.498004,-0.6954,12.32,-301.0,5.81
1134,290753,0.666852,-0.398208,-0.664168,4.76,-314.23,22.505
1135,290849,0.7078439999999999,-0.299144,-0.648796,4.3575,-324.205,39.7075
1136,290945,0.756888,-0.24522,-0.647576,11.3225,-331.24,56.7
1137,291042,0.831308,-0.22691999999999998,-0.663924,21.385,-335.93,71.645
1138,291138,0.9137799999999999,-0.209352,-0.712236,29.8025,-339.0975,83.3525
1139,291234,1.023824,-0.14469200000000002,-0.7869,37.5375,-341.2325,93.0125
1140,291330,1.1411879999999999,-0.07393200000000001,-0.8544879999999999,46.48,-344.54,100.94
1141,291427,1.23464,-0.053436000000000004,-0.9093880999999999,57.9075,-348.3725,106.96
1142,291523,1.343708,-0.070516,-0.9516,68.4425,-351.225,110.53
1143,291619,1.443992,-0.13664,-0.9857600000000001,74.935,-353.535,111.685
1144,291715,1.545252,-0.2196,-1.059204,74.9525,-354.445,111.5275
1145,291812,1.714588,-0.242048,-1.206336,69.9125,-353.3775,112.4375
1146,291908,1.944924,-0.20618000000000003,-1.371524,66.8675,-352.345,117.705
1147,292004,2.263588,-0.187636,-1.450824,72.17,-353.4475,126.49
1148,292100,2.5683439999999997,-0.189344,-1.41642,82.9675,-357.7525,135.0475
1149,292197,2.780136,0.051484,-1.250988,91.525,-361.8125,143.3425
1150,292293,2.880664,0.35136,-1.084336,106.1725,-359.0125,158.9175
1151,292389,3.137596,0.263276,-0.6954,133.4375,-349.3,171.92
1152,292485,3.220312,0.23448400000000003,-0.160064,132.7025,-333.83,166.425
1153,292582,3.1985959999999998,0.36282800000000004,0.456524,105.28,-310.66,145.6875
1154,292678,3.049268,0.46116,1.14436,68.7575,-275.1875,118.195
1155,292774,2.9136040000000003,0.64904,1.760216,32.4625,-226.4325,85.78501
1156,292871,3.0502439999999997,1.3139399999999999,2.105232,10.99,-166.2325,53.9875
1157,292967,3.2654520000000002,1.5969799999999998,2.3846119999999997,39.8825,-104.0375,33.9675
1158,293063,2.9553279999999997,1.080432,2.559804,92.085,-47.5825,16.0475
1159,293159,2.46806,0.530456,2.32532,89.18,14.4725,-23.205
1160,293256,2.323856,0.353068,1.6570040000000001,31.185,80.1325,-78.855
1161,293352,1.259528,-0.584136,0.83936,-31.605,132.37,-130.2525
1162,293448,-0.9745360000000001,-0.34257600000000005,-0.34721199999999997,-146.7725,213.6925,-192.1675
1163,293544,-1.3917760000000001,-0.568276,-2.535892,-125.1075,272.0725,-213.465
1164,293641,2.015684,1.14192,0.254736,-98.875,343.42,-118.58
1165,293737,3.9037559999999996,0.359168,-1.482788,-53.445,407.715,-43.8725
1166,293833,3.82836,0.9852719999999999,-2.250412,-50.26,328.0375,-64.19
1167,293929,2.1691599999999998,0.12053599999999999,-1.521828,-31.7275,210.455,-60.445
1168,294026,2.955816,-1.569896,-1.214388,-33.95,159.04,-56.7
1169,294122,0.24522,-0.06490399999999999,-0.417728,-133.07,64.6275,-64.2425
1170,294218,1.3651799999999998,1.2846600000000001,-1.6531,-133.1225,48.23,-74.48
1171,294314,1.240008,-0.009516001,-0.670024,-58.135,16.45,-41.65
1172,294411,0.6985720999999999,-0.22252800000000003,-0.85888,-35.1225,-3.2725,-27.72
1173,294507,0.73444,0.17055599999999999,-0.9203680000000001,-32.6375,-1.995,-23.4675
1174,294603,0.680516,-0.007564001,-0.8342360000000001,-19.5825,-4.4625,-17.08
1175,294699,0.582184,0.008296000999999999,-0.843508,-13.7025,-5.7225,-10.99
1176,294796,0.611464,-0.052703999999999994,-0.820084,-9.8875,-4.095,-8.8725
1177,294892,0.604388,-0.010736,-0.824232,-7.42,-3.57,-8.6975
1178,294988,0.5936520000000001,0.01342,-0.8359440999999999,-4.83,-3.08,-8.19
1179,295084,0.568032,-0.010492,-0.83204,-1.0675,-1.4525,-6.0725
1180,295181,0.5675439999999999,-0.007808001,-0.8310639999999999,1.82,1.1375,-4.2175
1181,295277,0.59048,-0.021716,-0.809348,4.1825,3.2725,-2.4675
1182,295373,0.5941401,-0.05856,-0.787632,5.285,4.1125,-1.6275
1183,295469,0.59902,-0.056852,-0.787632,4.83,3.7975,-2.8175
1184,295566,0.60268,-0.038064,-0.7856801,3.43,2.765,-4.5325
1185,295662,0.5917,-0.054167999999999994,-0.793244,2.52,1.75,-6.1775
1186,295758,0.587796,-0.050996,-0.797392,1.12,1.26,-8.1025
1187,295854,0.585356,-0.0732,-0.790804,0.3325,1.4175,-9.275
1188,295951,0.594384,-0.069784,-0.792756,-0.28,2.0825,-10.36
1189,296047,0.59658,-0.05636401,-0.791048,-0.7175,2.415,-10.92
1190,296143,0.585356,-0.048556,-0.8010520000000001,-1.12,2.6425,-10.815
1191,296240,0.6029241,-0.025131999999999998,-0.7944641,-0.9975,3.01,-10.43
1192,296336,0.6007279999999999,-0.022692,-0.790072,-0.0175,3.255,-9.695
1193,296432,0.603168,-0.026351999999999997,-0.786412,0.455,3.255,-8.9425
1194,296528,0.6117081,-0.030987999999999998,-0.779092,1.05,3.045,-8.3825
1195,296624,0.6070720000000001,-0.031232,-0.779092,1.295,2.835,-8.1375
1196,296721,0.6019479999999999,-0.02562,-0.783972,2.0475,3.01,-8.225
1197,296817,0.6021920000000001,-0.04148,-0.782508,3.045,3.99,-8.26
1198,296913,0.59902,-0.038064,-0.787632,3.815,4.69,-8.785
1199,297009,0.604632,-0.018056,-0.7922680000000001,5.005,5.775,-9.31
1200,297106,0.580232,-0.028792,-0.806176,6.965,8.12,-9.3625
1201,297202,0.5665680000000001,-0.023180000000000003,-0.826672,9.3975,11.515,-9.7475
1202,297298,0.576328,-0.019764,-0.818132,14.805,15.7325,-11.9525
1203,297394,0.546072,-0.007320001,-0.8388721,22.2775,21.595,-14.875
1204,297491,0.561688,0.060024,-0.853024,20.1775,32.34,-13.51
1205,297587,0.582428,-0.00366,-0.822524,18.375,44.9225,-8.33
1206,297683,0.5511961,0.006344,-0.84424,18.2875,54.46,-5.2325
1207,297779,0.57218,0.015128,-0.868152,17.535,66.6925,-2.1175
1208,297876,0.586332,-0.0305,-0.8430200999999999,16.73,79.4325,0.8575
1209,297972,0.5892601,-0.05124001,-0.822524,16.6775,94.5,1.68
1210,298068,0.608536,-0.003904,-0.8166680000000001,14.6475,111.265,-0.2275
1211,298164,0.568764,-0.022692,-0.8493641,12.3025,128.9925,-0.385
1212,298261,0.5260640000000001,-0.068564,-0.8608319999999999,6.9125,149.8175,0.1575
1213,298357,0.543632,-0.07515201,-0.849852,-0.455,173.25,-0.2275
1214,298453,0.496296,-0.125904,-0.844484,-7.245,198.31,-0.4375
1215,298549,0.6414761,-0.188612,-0.9516,-20.7375,219.8,-1.3825
1216,298646,0.5846241,-0.188612,-0.850584,-36.68,232.5925,0.5425
1217,298742,0.691496,-0.29768,-0.8640040000000001,-48.37,259.6825,-5.25
1218,298838,0.76494,-0.238144,-0.9345201,-62.23,286.6675,-10.2025
1219,298934,0.105896,-0.25254,-0.8913321,-68.915,318.9375,-23.5375
1220,299031,0.930372,-0.24034,-0.432612,-96.74,364.6475,-42.665
1221,299127,1.6836,-0.041724000000000004,-1.2505,-137.8825,465.3425,-59.6225
1222,299223,1.9842080000000002,-0.0488,-1.54574,-128.2925,539.3325,-75.4775
1223,299319,1.8666,-0.169824,-1.84464,-88.51501,570.0625,-89.39
1224,299416,2.146468,-0.331352,-1.8770919999999998,-24.3425,565.635,-98.6475
1225,299512,3.4857839999999998,-0.48385200000000006,-2.083028,14.9275,539.9975,-114.38
1226,299608,2.3502080000000003,-0.612684,-2.197952,23.8525,546.6475,-96.81
1227,299705,-0.01342,-0.30378,-2.292136,30.1525,547.19,-136.7975
1228,299801,4.16142,0.457012,-3.3674440000000003,-10.955,396.375,-185.185
1229,299897,3.9406,-0.6466,-3.94426,83.86001,209.16,-143.43
1230,299993,1.803404,-1.321504,-2.818444,109.06,-48.58,-111.4575
1231,300090,0.153476,-1.299056,-1.5586719999999998,81.53251,-154.7,-82.3025
1232,300186,-0.32256799999999997,-0.9264680000000001,-0.9652639999999999,36.575,-162.33,-60.375
1233,300282,-0.2135,-0.6885680999999999,-0.7812880999999999,13.9475,-133.455,-41.2825
1234,300378,0.17836400000000002,-0.537776,-0.9225639999999999,15.925,-115.0275,-19.5825
1235,300475,0.520452,-0.503372,-1.071404,30.2925,-123.4625,3.9375
1236,300571,0.6158561,-0.5343600000000001,-1.084336,45.1325,-155.645,26.32
1237,300667,0.5702281,-0.559736,-0.9850280999999999,49.945,-193.9175,44.03
1238,300763,0.51362,-0.516792,-0.8586360000000001,42.0,-225.0325,56.5075
1239,300860,0.519476,-0.43358800000000003,-0.7883640000000001,28.56,-246.6625,66.64
1240,300956,0.599264,-0.316956,-0.766892,17.0975,-263.0775,77.0525
1241,301052,0.677344,-0.216428,-0.7539600000000001,10.5,-279.72,88.6725
1242,301148,0.7451760000000001,-0.130052,-0.753228,7.595,-296.4675,99.54
1243,301245,0.8176439999999999,-0.05172801,-0.752008,7.98,-312.0775,107.94
1244,301341,0.85644,0.031964,-0.754448,11.34,-326.3925,113.435
1245,301437,0.8901120000000001,0.09613601,-0.752496,18.585,-337.4525,116.97
1246,301533,0.9247601000000001,0.14152,-0.7734800000000001,28.98,-344.8375,119.035
1247,301630,1.039684,0.186172,-0.8420440999999999,41.0025,-347.8825,120.7325
1248,301726,1.182668,0.188124,-0.9142680000000001,53.9525,-350.9625,121.87
1249,301822,1.325652,0.14566800000000002,-0.974292,64.855,-356.3525,121.45
1250,301918,1.443748,0.0488,-0.9852719999999999,69.7025,-363.16,118.475
1251,302015,1.525976,-0.081496,-1.021384,65.17,-369.705,113.2775
1252,302111,1.6643240000000001,-0.158112,-1.1350879999999999,52.5175,-373.3275,108.78
1253,302207,1.922232,-0.120048,-1.299056,38.6925,-375.1125,108.465
1254,302304,2.1716,-0.013175999999999998,-1.4208120000000002,35.1925,-379.5925,114.6775
1255,302400,2.390956,0.00366,-1.392508,47.25,-387.5025,125.475
1256,302496,2.57786,0.182756,-1.2780719999999999,62.8425,-393.155,135.275
1257,302592,2.869684,0.184952,-1.119716,80.85,-389.9,145.1275
1258,302689,3.2229959999999997,-0.114192,-0.771528,96.0225,-383.95,143.6575
1259,302785,3.4404,-0.279136,-0.287188,76.37001,-373.7125,123.025
1260,302881,3.475048,0.01098,0.278404,35.98,-354.4625,93.975
1261,302977,3.356464,0.469944,0.925736,13.4225,-320.985,74.7775
1262,303074,3.1656560000000002,0.659288,1.59454,26.8625,-270.76,72.0125
1263,303170,3.036336,0.6722199999999999,2.217228,47.075,-206.9025,77.0
1264,303266,3.128324,1.0589600000000001,2.51686,42.2975,-132.8425,77.84
1265,303363,3.37696,1.236592,2.661308,37.8,-62.3525,71.3125
1266,303459,2.98412,1.096292,2.590792,28.315,-4.27,42.0175
1267,303555,2.460984,0.9696561,2.069608,-0.3325,54.6525,-15.2775
1268,303651,0.766892,0.640744,0.900848,-24.465,111.02,-76.0725
1269,303748,-1.20292,-0.333548,-0.680516,-72.2575,195.93,-165.4275
1270,303844,-1.9185720000000002,-1.1570479999999999,-2.6278799999999998,-83.80751,274.1725,-233.94
1271,303940,1.960784,0.6463561,-0.07686,-107.065,358.085,-186.8125
1272,304036,3.613396,0.07002799999999999,-0.775188,-90.16001,406.77,-91.14
1273,304133,4.084804,0.5919439999999999,-2.109136,-50.6625,364.1925,-93.415
1274,304229,3.2086,-1.211216,-2.3624080000000003,-54.215,251.125,-77.1925
1275,304325,2.882372,-0.09906401,-1.0589600000000001,-112.245,152.0575,-79.835
1276,304421,0.36209600000000003,0.953308,-1.402268,-146.4575,30.0825,-96.4075
1277,304518,1.306132,0.7771399999999999,-1.4945,-105.0875,37.415,-66.5525
1278,304614,1.045296,-0.35697199999999996,-0.648796,-43.855,9.8175,-35.175
1279,304710,0.7407841,0.17568,-0.9323239999999999,-35.7875,3.885,-22.225
1280,304806,0.73932,-0.007076001,-0.8335040000000001,-23.2225,-1.0325,-17.3425
1281,304903,0.6378159999999999,0.08784,-0.8874280999999999,-15.19,-3.325,-11.585
1282,304999,0.5546121,-0.03538,-0.841556,-8.015,-2.905,-7.28
1283,305095,0.5799880000000001,-0.044407999999999996,-0.8210601000000001,-3.3425,-0.0525,-4.9
1284,305192,0.6202479999999999,-0.032451999999999995,-0.8076399999999999,-1.225,0.875,-4.76
1285,305288,0.5826720000000001,-0.010004,-0.826428,0.8575,0.7525,-4.48
1286,305384,0.581696,-0.030987999999999998,-0.8317960999999999,3.22,2.0125,-3.745
1287,305480,0.5724239999999999,-0.00366,-0.832528,5.46,4.2,-1.7675
1288,305577,0.597312,-0.034648000000000005,-0.806176,7.77,6.4925,0.5775
1289,305673,0.5978,-0.06954,-0.79056,8.505,7.175,1.2425
1290,305769,0.588284,-0.052216,-0.793976,7.735,6.79,-0.3325
1291,305865,0.5997520000000001,-0.057584,-0.787632,7.035,6.65,-1.47
1292,305962,0.583404,-0.066856,-0.794708,6.9125,6.4925,-2.6425
1293,306058,0.576084,-0.07686,-0.803492,6.685,6.965,-4.2175
1294,306154,0.597312,-0.07027201,-0.788608,6.3,8.0675,-5.8975
1295,306250,0.6029241,-0.063196,-0.785924,5.845,8.26,-6.8425
1296,306347,0.6068279999999999,-0.060024,-0.7869,5.285,8.0325,-7.0
1297,306443,0.607316,-0.05563200000000001,-0.78446,4.725,8.0325,-7.0875
1298,306539,0.599264,-0.052703999999999994,-0.786656,4.375,7.98,-6.8775
1299,306635,0.6182960999999999,-0.048068,-0.777872,4.165,7.875,-6.86
1300,306732,0.619516,-0.043432,-0.76982,4.095,7.3325,-6.8425
1301,306828,0.615368,-0.047580000000000004,-0.7707961,3.99,5.95,-7.14
1302,306924,0.6156119999999999,-0.060512,-0.7661600000000001,3.535,4.97,-7.7
1303,307020,0.613904,-0.05929201,-0.767868,2.9575,3.85,-8.995
1304,307117,0.613904,-0.05587601,-0.76982,2.8525,2.6425,-10.4125
1305,307213,0.599508,-0.063928,-0.7734800000000001,3.64,1.9425,-11.8125
1306,307309,0.6021920000000001,-0.06661201,-0.776896,5.4425,2.0475,-14.2625
1307,307406,0.614636,-0.052703999999999994,-0.7795801,7.945,2.8525,-16.6775
1308,307502,0.607804,-0.034648000000000005,-0.778116,10.0975,3.85,-18.375
1309,307598,0.584868,-0.035624,-0.800808,12.1275,5.705,-19.11
1310,307694,0.569984,-0.030012,-0.815692,13.9125,9.1875,-19.0575
1311,307791,0.554856,0.009028000999999999,-0.8403360000000001,13.6325,16.625,-17.64
1312,307887,0.5958479999999999,-0.029036000000000003,-0.79666,12.8975,27.195,-13.5625
1313,307983,0.543632,0.027327999999999998,-0.85888,13.86,37.205,-8.5225
1314,308079,0.568276,0.01098,-0.850096,16.03,49.2625,-4.935
1315,308176,0.576572,-0.006344,-0.8581479999999999,16.2225,62.7725,-1.19
1316,308272,0.5743761,-0.026108,-0.8430200999999999,15.925,75.28501,1.4875
1317,308368,0.59658,-0.029768,-0.828624,15.75,89.95,1.89
1318,308464,0.599508,-0.0061,-0.822768,14.665,106.4875,2.0475
1319,308561,0.561688,-0.02806,-0.834968,13.4925,125.44,3.3425
1320,308657,0.548512,-0.050996,-0.8532681000000001,10.2375,147.1225,5.1275
1321,308753,0.538996,-0.084912,-0.850096,6.3525,169.7675,5.53
1322,308849,0.484096,-0.1403,-0.8388721,-2.2575,192.3775,4.3575
1323,308946,0.5655920999999999,-0.177876,-0.8554641,-10.78,209.125,6.3875
1324,309042,0.650992,-0.17324,-0.916952,-17.36,226.5725,5.7575
1325,309138,0.786412,-0.17324,-0.8396040000000001,-28.0875,253.89,3.36
1326,309235,0.5751081,-0.169336,-0.949892,-34.51,287.315,3.15
1327,309331,-0.041968,-0.12468399999999999,-1.041636,-29.82,316.2425,1.3125
1328,309427,0.978196,-0.271572,-0.269376,-42.77,351.2075,-10.815
1329,309523,1.625772,-0.032695999999999996,-1.097756,-69.9125,455.805,-27.5625
1330,309620,2.413404,-0.22057600000000002,-1.718004,-47.39,532.5425,-42.6825
1331,309716,1.590148,-0.145912,-1.504992,-33.4075,557.5325,-66.60501
1332,309812,2.097912,-0.159088,-1.962736,17.71,555.1175,-86.0825
1333,309908,3.318888,-0.5565640000000001,-1.794864,68.6175,526.9425,-102.305
1334,310005,2.124508,-0.547048,-1.955416,53.375,531.9475,-93.9925
1335,310101,0.279136,-0.145424,-2.805512,37.9575,558.1275,-125.195
1336,310197,2.920436,0.54168,-2.094496,39.2875,442.295,-162.05
1337,310293,4.031368,-0.7266321,-3.9859839999999997,95.3925,288.4175,-146.3
1338,310390,2.6476439999999997,-1.230492,-3.186152,109.0425,24.6225,-116.34
1339,310486,0.782508,-1.283196,-2.071804,65.065,-132.0375,-95.09501
1340,310582,-0.158356,-0.951356,-1.2578200000000002,6.0725,-190.4525,-81.60251
1341,310678,-0.361608,-0.546072,-0.8810841,-27.335,-186.9875,-75.88
1342,310775,-0.226188,-0.35282399999999997,-0.8108121,-24.3075,-168.4025,-66.0275
1343,310871,0.139324,-0.292068,-0.9174399999999999,2.03,-157.7975,-47.3725
1344,310967,0.391376,-0.395768,-0.987224,35.105,-168.8925,-24.15
1345,311064,0.48848800000000003,-0.531676,-0.9791719999999999,56.6125,-196.105,-2.3625
1346,311160,0.5321640000000001,-0.591212,-0.9289081,58.9225,-226.3625,15.61
1347,311256,0.5636399999999999,-0.601704,-0.8613200000000001,46.585,-253.7675,31.01
1348,311353,0.61854,-0.536556,-0.805688,26.3025,-276.6575,44.52
1349,311449,0.6566041,-0.44237200000000004,-0.7537159999999999,6.0025,-295.785,57.505
1350,311545,0.706136,-0.29377600000000004,-0.734684,-8.9425,-311.2375,70.105
1351,311641,0.7834840000000001,-0.15372,-0.739808,-13.3525,-323.2775,82.3025
1352,311737,0.8396040000000001,-0.08003201,-0.744688,-7.63,-333.8825,93.1875
1353,311834,0.9140241,-0.054412,-0.769088,1.8025,-341.845,99.6275
1354,311930,1.031144,-0.018056,-0.8239880999999999,11.1475,-347.655,100.87
1355,312026,1.140456,0.039528,-0.887184,21.0175,-353.43,98.77
1356,312122,1.257088,0.11345999999999999,-0.9437921,33.495,-358.96,94.7625
1357,312219,1.371524,0.13054000000000002,-0.966728,51.87,-363.8425,90.21251
1358,312315,1.486204,0.048068,-0.9913719999999999,70.84000999999999,-367.3425,85.0675
1359,312411,1.6352879999999999,-0.114924,-1.012356,83.30001,-369.215,79.5725
1360,312507,1.772172,-0.284992,-1.093364,83.9825,-370.9825,75.74
1361,312604,1.9947,-0.357948,-1.210728,74.725,-372.1025,76.685
1362,312700,2.224792,-0.37576,-1.27124,65.59,-374.0275,83.8425
1363,312796,2.45586,-0.418704,-1.255136,61.18,-376.705,94.58751
1364,312893,2.700348,-0.435296,-1.1570479999999999,59.4825,-377.7725,105.56
1365,312989,2.927268,-0.353556,-0.9894200000000001,57.26,-374.2725,116.0775
1366,313085,3.0866,-0.132004,-0.707112,59.15,-364.9625,126.665
1367,313181,3.091968,0.14762,-0.341844,69.3,-348.5475,137.13
1368,313278,3.06708,0.485072,0.107116,86.17,-321.3875,145.6875
1369,313374,3.026576,0.618784,0.627568,105.315,-284.585,152.3725
1370,313470,2.96826,0.527528,1.216584,106.6625,-240.73,152.04
1371,313566,2.889936,0.62098,1.741672,70.4375,-191.8875,137.3575
1372,313663,3.2239720000000003,1.3024719999999999,2.02642,17.3775,-137.795,112.245
1373,313759,3.244956,1.558916,2.36436,7.525,-91.875,83.16001
1374,313855,2.5559,1.381528,2.4212119999999997,26.0575,-43.155,36.96
1375,313951,2.0801,1.000644,2.016416,40.5125,24.8325,-27.335
1376,314048,2.179164,0.6351319999999999,1.25294,41.2825,93.7125,-91.07
1377,314144,2.419504,0.346968,0.5011760000000001,40.145,134.5925,-138.5825
1378,314240,2.260416,0.04514,-0.10492,46.62,143.045,-163.1
1379,314336,-0.338916,-2.543456,-2.110112,1.1725,142.1175,-178.3775
1380,314433,-1.6047879999999999,-1.3773799999999998,-2.80844,-180.04,177.0125,-217.875
1381,314529,-1.15168,-0.250832,0.02196,-161.6825,232.5925,-172.9175
1382,314625,1.936384,0.558516,0.49263599999999996,-111.3175,343.175,-24.1325
1383,314721,4.817048000000001,1.409832,-2.606408,-41.5625,437.15,19.3725
1384,314818,3.6063199999999997,0.1403,-2.779892,-68.46,266.77,-38.5175
1385,314914,2.91946,-0.047336,-1.05774,-108.0275,133.5075,-103.4775
1386,315010,0.302072,-0.23911999999999997,-0.9098761000000001,-116.3575,21.1575,-92.8025
1387,315107,1.042124,0.9577,-1.4483840000000001,-114.9225,37.7125,-62.965
1388,315203,1.13582,0.07173600000000001,-0.788852,-63.35,11.97,-46.0775
1389,315299,0.6917399999999999,-0.27816,-0.7954399999999999,-35.0175,-2.695,-30.38
1390,315395,0.7137001000000001,0.164212,-0.9091440000000001,-35.7,-1.925,-23.765
1391,315492,0.725168,-0.06588,-0.835456,-22.9075,-4.1825,-17.5875
1392,315588,0.6197600000000001,0.059536,-0.883768,-16.24,-6.72,-12.7925
1393,315684,0.605608,-0.02562,-0.8239880999999999,-10.2375,-6.0025,-9.8875
1394,315780,0.581696,-0.019764,-0.829356,-6.16,-4.83,-7.49
1395,315877,0.5936520000000001,-0.008052001,-0.824232,-3.5525,-3.64,-6.7725
1396,315973,0.57706,-0.007564001,-0.823744,-0.805,-2.555,-5.3725
1397,316069,0.562908,-0.024888,-0.8261841000000001,1.715,-0.735,-3.605
1398,316166,0.565836,-0.022203999999999998,-0.8254520000000001,3.85,1.5575,-2.24
1399,316262,0.576816,-0.05368,-0.8066641,5.5825,3.5875,-0.805
1400,316358,0.5753520000000001,-0.083936,-0.792512,5.775,4.2525,-0.8400001
1401,316454,0.58682,-0.06880801,-0.7903161,4.4975,4.4625,-2.52
1402,316551,0.5814520000000001,-0.03416,-0.801296,3.255,3.9725,-3.955
1403,316647,0.586332,-0.040504000000000005,-0.803492,3.2025,4.095,-4.305
1404,316743,0.58682,-0.07076001,-0.797148,3.15,4.3225,-5.355
1405,316839,0.5917,-0.073688,-0.789828,2.38,4.5675,-7.385
1406,316936,0.579256,-0.05612,-0.7991,1.4,4.8125,-8.6975
1407,317032,0.5743761,-0.0488,-0.808372,0.98,5.2675,-9.205
1408,317128,0.5846241,-0.03294,-0.8020281,1.085,6.265,-9.415
1409,317224,0.6019479999999999,-0.031232,-0.793244,1.54,6.755,-8.785
1410,317321,0.612684,-0.036356,-0.784216,2.0475,6.825,-8.1375
1411,317417,0.605364,-0.019275999999999998,-0.7890961,3.0975,6.9825,-7.175
1412,317513,0.5987760999999999,-0.028792,-0.79422,4.7425,8.015,-6.0375
1413,317609,0.6036560999999999,-0.027327999999999998,-0.792756,6.2475,9.3975,-5.4075
1414,317706,0.599508,-0.030012,-0.79178,7.5425,10.4825,-5.0925
1415,317802,0.600484,-0.021472,-0.797636,9.065,12.18,-5.0575
1416,317898,0.598288,-0.024156,-0.800808,11.795,14.175,-5.3375
1417,317995,0.586332,-0.032208,-0.796416,16.765,16.415,-6.7025
1418,318091,0.545096,-0.07808001,-0.8049561,19.145,20.16,-7.91
1419,318187,0.5753520000000001,-0.001464,-0.8274040000000001,14.9625,27.3525,-7.7
1420,318283,0.5795,-0.0305,-0.8115439999999999,15.8725,35.0875,-6.685
1421,318380,0.575596,-0.015616,-0.8220360000000001,16.905,42.56,-6.2825
1422,318476,0.5948720000000001,-0.007320001,-0.813984,18.06,51.1525,-4.62
1423,318572,0.6131721,-0.014152000000000001,-0.809836,17.535,58.8,-2.205
1424,318668,0.6070720000000001,-0.023180000000000003,-0.805688,17.675,67.2525,-0.2975
1425,318765,0.607804,-0.042212,-0.803248,16.5375,77.945,0.98
1426,318861,0.6141479999999999,-0.065148,-0.794952,14.9275,90.70251,0.8225
1427,318957,0.605608,-0.061488,-0.80642,12.1275,106.1025,-0.8925
1428,319053,0.586332,-0.06124401,-0.801296,9.2925,122.22,-1.9425
1429,319150,0.593164,-0.049776,-0.822524,4.935,140.0175,-1.785
1430,319246,0.574132,-0.060267999999999995,-0.820572,-1.3125,157.85,-0.805
1431,319342,0.525576,-0.09882,-0.8117880000000001,-8.68,177.205,1.54
1432,319438,0.566812,-0.117852,-0.8188641,-17.815,191.345,7.525
1433,319535,0.686616,-0.16958,-0.847412,-26.6875,209.9825,9.975
1434,319631,0.835456,-0.254004,-0.787144,-40.46,236.5825,8.2075
1435,319727,0.633668,-0.157868,-0.8901120000000001,-56.3325,268.4325,5.3725
1436,319823,0.126392,-0.220088,-1.019432,-56.3675,298.655,2.5375
1437,319920,0.432612,-0.23155599999999998,-0.459696,-73.5,329.91,-8.12
1438,320016,1.7502119999999999,0.085156,-1.255868,-117.18,419.965,-20.2125
1439,320112,2.28872,-0.251808,-1.680916,-97.02,515.445,-25.795
1440,320208,1.605764,-0.10248,-1.5462280000000002,-87.0275,554.75,-51.4325
1441,320305,2.033496,-0.143228,-1.974936,-39.83,560.49,-66.815
1442,320401,3.0402400000000003,-0.45603599999999994,-1.9258919999999997,13.8425,534.275,-86.765
1443,320497,2.85602,-0.6319600000000001,-2.173064,15.645,527.7475,-81.69001
1444,320594,0.32403200000000004,-0.067344,-3.209088,-14.175,554.8025,-107.975
1445,320690,1.896856,1.306132,-1.7275200000000002,-12.635,456.6975,-155.015
1446,320786,3.95036,0.044164,-4.295376,48.265,303.065,-166.2325
1447,320882,2.666432,-0.537532,-3.446012,134.085,43.925,-144.3225
1448,320979,0.802272,-0.946232,-2.145736,144.1125,-115.5875,-129.395
1449,321075,-0.071004,-0.893284,-1.25538,115.5,-174.335,-113.3125
1450,321171,-0.270352,-0.693692,-0.8439959999999999,85.85501,-167.755,-99.155
1451,321267,-0.054412,-0.572912,-0.7849480999999999,73.6225,-148.4875,-81.375
1452,321364,0.297192,-0.512644,-0.893284,74.0075,-143.325,-58.9925
1453,321460,0.49849209999999994,-0.503616,-0.9503799999999999,78.9775,-159.46,-34.0375
1454,321556,0.520208,-0.541192,-0.9237841,81.9875,-188.16,-9.275
1455,321652,0.5016641,-0.53314,-0.8571719999999999,74.8475,-216.2475,11.865
1456,321749,0.47165200000000007,-0.499468,-0.784704,59.185,-237.965,29.925
1457,321845,0.484096,-0.441396,-0.7612800999999999,41.2125,-254.0125,46.2875
1458,321941,0.5738880000000001,-0.312808,-0.789828,22.4525,-266.56,61.04
1459,322038,0.653676,-0.173728,-0.8095920999999999,10.6225,-280.63,75.845
1460,322134,0.6973520000000001,-0.042212,-0.8166680000000001,7.7875,-296.2575,89.25
1461,322230,0.754204,0.06270801,-0.836676,12.845,-310.0825,100.1525
1462,322326,0.8215481,0.134932,-0.8559521000000001,23.345,-321.72,108.43
1463,322423,0.9181720999999999,0.186416,-0.9067040000000001,35.1575,-331.94,113.82
1464,322519,1.042124,0.231312,-0.9769760000000001,46.935,-341.4075,117.005
1465,322615,1.171932,0.252784,-1.02846,58.2575,-351.4525,118.5975
1466,322711,1.291492,0.24888000000000002,-1.0797,68.285,-361.13,119.175
1467,322808,1.403732,0.20837600000000003,-1.12606,75.0225,-369.5825,119.9975
1468,322904,1.559648,0.159332,-1.18096,76.7025,-375.69,121.24
1469,323000,1.7265439999999999,0.036356,-1.1834,74.025,-382.0775,122.2725
1470,323096,1.910764,-0.034404000000000004,-1.2695319999999999,64.26,-387.9575,120.19
1471,323193,2.1718439999999997,0.057584,-1.398364,53.0075,-389.9525,118.7725
1472,323289,2.465132,0.07417601,-1.4088559999999999,55.5975,-393.925,123.8475
1473,323385,2.7877,0.021472,-1.214876,67.6025,-398.7025,129.85
1474,323482,3.024624,0.06075601,-0.984784,76.16001,-396.8125,131.5125
1475,323578,3.307664,-0.070516,-0.6563601,82.495,-384.475,127.3825
1476,323674,3.502132,-0.14469200000000002,-0.18324400000000002,78.9075,-366.73,115.4125
1477,323770,3.558008,0.12932000000000002,0.392596,62.3,-340.8125,102.6025
1478,323867,3.38794,0.40138,1.1631479999999998,54.775,-303.1525,102.1125
1479,323963,3.085624,0.42602399999999996,1.97396,53.585,-248.2375,108.815
1480,324059,2.992416,0.686128,2.44854,36.05,-176.225,106.015
1481,324155,3.17932,1.261968,2.521496,15.26,-101.0975,90.1775
1482,324252,3.260328,1.312232,2.557852,27.65,-38.115,65.065
1483,324348,2.640568,1.047248,2.328492,41.5975,17.2725,14.455
1484,324444,2.302384,0.724436,1.7158080000000002,37.73,76.1425,-56.9275
1485,324540,1.725324,0.28426,0.6517241,25.2,124.6875,-123.27
1486,324637,-0.288408,-1.198284,-1.42862,-40.425,167.965,-181.7375
1487,324733,-0.81618,-0.287188,-2.109868,-140.77,224.665,-233.7825
1488,324829,-0.211548,-0.09272000000000001,-0.41602,-101.5875,275.695,-190.645
1489,324925,2.213324,-0.25132,0.086864,-50.2075,363.8775,-56.7175
1490,325022,4.05894,0.6304960000000001,-2.193804,-45.78,410.27,-37.45
1491,325118,3.4857839999999998,0.09638,-2.4766,-66.5,285.495,-55.4225
1492,325214,4.197044,0.00488,-1.83122,-95.48,173.5125,-68.6
1493,325310,0.28157600000000005,0.3782,-0.753472,-129.2375,25.305,-83.94751
1494,325407,0.952332,0.677832,-1.574532,-97.7025,21.49,-63.0175
1495,325503,1.074576,-0.143716,-0.7237041,-41.475,14.315,-29.12
1496,325599,0.762012,-0.009028000999999999,-0.80886,-27.4225,5.4775,-19.4425
1497,325695,0.687348,0.016104,-0.8810841,-21.91,-0.7,-14.49
1498,325792,0.673928,-0.038064,-0.798856,-13.58,-3.6925,-10.605
1499,325888,0.552172,-0.005612,-0.8532681000000001,-10.99,-4.69,-8.8725
1500,325984,0.59292,-0.0671,-0.81984,-6.475,-2.03,-7.49
1501,326080,0.611952,-0.030744,-0.8100801,-4.1825,-0.56,-7.1575
1502,326177,0.6029241,-0.020252000000000003,-0.81862,-2.275,-0.875,-7.5075
1503,326273,0.585112,-0.009272001,-0.8252079999999999,-0.35,-0.455,-6.9825
1504,326369,0.580232,-0.018544,-0.8230120999999999,2.17,1.225,-5.46
1505,326466,0.573156,-0.015616,-0.8220360000000001,4.2,3.3075,-3.57
1506,326562,0.590968,-0.06661201,-0.79422,5.775,5.04,-2.31
1507,326658,0.5873079999999999,-0.05977999999999999,-0.7929999999999999,5.4775,5.53,-3.2375
1508,326754,0.60878,-0.043188,-0.790804,4.515,5.355,-4.4975
1509,326851,0.606096,-0.042456,-0.787144,4.3575,5.0575,-5.0925
1510,326947,0.5873079999999999,-0.044896,-0.798124,4.2,4.7075,-5.9675
1511,327043,0.5785241,-0.045384,-0.805932,3.955,5.11,-6.7375
1512,327139,0.590968,-0.05856,-0.7937320999999999,4.13,6.0725,-7.6125
1513,327236,0.6039,-0.067832,-0.7788480999999999,3.7975,6.545,-8.54
1514,327332,0.605364,-0.069052,-0.781044,3.0625,6.02,-9.065
1515,327428,0.612928,-0.063684,-0.777628,1.82,5.1625,-9.555
1516,327524,0.607316,-0.047336,-0.781532,0.805,3.99,-9.7475
1517,327621,0.609024,-0.05124001,-0.781044,0.455,3.255,-9.765
1518,327717,0.613904,-0.037576,-0.7761640999999999,0.0875,2.6775,-9.485
1519,327813,0.6158561,-0.037088,-0.778116,0.1225,1.8375,-9.66
1520,327910,0.614392,-0.037332,-0.775188,0.21,1.47,-9.8
1521,328006,0.610488,-0.047092,-0.777628,0.6475,1.365,-9.9925
1522,328102,0.605364,-0.007808001,-0.785924,1.82,2.0125,-9.975
1523,328198,0.60146,-0.019275999999999998,-0.792512,4.725,4.27,-8.7325
1524,328295,0.596092,-0.020984,-0.8030041,7.525,6.4575,-8.68
1525,328391,0.599508,-0.030744,-0.794952,12.145,9.1,-9.695
1526,328487,0.589504,-0.022448,-0.801296,16.555,11.8125,-10.6925
1527,328583,0.5743761,0.0034159999999999998,-0.8195960999999999,18.865,15.6625,-9.695
1528,328680,0.5294800000000001,-0.019275999999999998,-0.831308,19.3725,22.715,-7.1225
1529,328776,0.5697399999999999,-0.005368,-0.8244761,16.625,33.9675,-3.7625
1530,328872,0.5787680000000001,0.026351999999999997,-0.8261841000000001,18.8475,43.505,-0.805
1531,328969,0.575596,-0.00488,-0.829356,19.7225,53.3225,2.7125
1532,329065,0.582428,-0.020496,-0.8418,18.9175,63.28,6.23
1533,329161,0.58804,-0.06563601,-0.828624,18.4625,73.3425,7.455
1534,329257,0.597068,-0.069052,-0.8195960999999999,19.1625,86.15250999999999,6.2125
1535,329354,0.6068279999999999,-0.061975999999999996,-0.8025161,18.27,100.5025,4.0425
1536,329450,0.6068279999999999,-0.027083999999999997,-0.793976,14.3675,116.3925,2.2575
1537,329546,0.5843801,-0.026595999999999998,-0.819108,10.6575,134.05,2.6425
1538,329642,0.590236,-0.07002799999999999,-0.8025161,7.7525,153.0725,5.1275
1539,329739,0.5441199999999999,-0.086864,-0.812276,-0.35,172.1825,5.5825
1540,329835,0.6317159999999999,-0.179584,-0.8344801,-8.82,190.3475,6.3875
1541,329931,0.619028,-0.209108,-0.775676,-14.8575,201.25,10.8675
1542,330027,0.6993041,-0.164456,-0.8642481,-17.99,222.635,5.95
1543,330124,0.8315520000000001,-0.13298,-0.885476,-28.525,248.9025,7.0175
1544,330220,0.363316,-0.186904,-0.9406200000000001,-38.71,283.4825,9.1875
1545,330316,0.113704,-0.307196,-0.9796600000000001,-44.6775,306.425,4.025
1546,330413,1.2500120000000001,-0.194468,-0.6095119999999999,-76.86,347.3225,-17.7275
1547,330509,1.458388,-0.14688800000000002,-0.9818561,-88.39251,444.115,-29.435
1548,330605,2.225768,-0.196176,-1.6513919999999997,-73.78,504.8575,-47.6875
1549,330701,1.511092,-0.219844,-1.5006,-68.0225,529.41,-72.275
1550,330798,1.9483400000000002,-0.290116,-1.882948,-31.4125,531.6325,-92.78501
1551,330894,3.02438,-0.5856,-1.6836,4.7775,504.4375,-110.32
1552,330990,2.309216,-0.5070319999999999,-1.878068,-8.5225,503.4575,-97.21251
1553,331086,0.370148,0.07856801,-2.817956,-21.6825,542.29,-105.2275
1554,331183,1.357616,1.209508,-1.101904,10.1325,461.405,-149.7825
1555,331279,3.9166879999999997,-0.09052401,-3.779072,48.3175,329.56,-168.56
1556,331375,3.043412,-0.580232,-3.2168959999999998,122.185,89.8275,-150.43
1557,331471,1.3825040000000002,-0.9906401,-2.25212,116.2175,-89.4075,-139.6325
1558,331568,0.265472,-0.9010921000000001,-1.304424,74.25251,-174.9475,-124.0925
1559,331664,-0.07832401,-0.633424,-0.820084,38.57,-186.6375,-112.175
1560,331760,-0.05636401,-0.511424,-0.642452,26.845,-174.2125,-100.8175
1561,331856,0.17836400000000002,-0.495076,-0.6709999999999999,34.3875,-164.64,-84.7175
1562,331953,0.433832,-0.518744,-0.7422481,46.3925,-169.575,-64.995
1563,332049,0.5602239999999999,-0.597312,-0.772748,57.6275,-190.1025,-43.19
1564,332145,0.6075600999999999,-0.670268,-0.7571321,61.4775,-217.035,-20.4925
1565,332242,0.6292760000000001,-0.710284,-0.7166279999999999,54.4075,-242.7075,2.2925
1566,332338,0.636596,-0.6958880000000001,-0.662948,38.955,-264.6875,23.975
1567,332434,0.674172,-0.6368401,-0.6441600000000001,20.265,-282.59,44.17
1568,332530,0.755424,-0.48556000000000005,-0.650016,4.1125,-298.095,63.245
1569,332627,0.7986121,-0.355752,-0.64172,-2.205,-313.67,81.55001
1570,332723,0.8322841000000001,-0.256444,-0.6307401,0.3675,-327.53,97.7025
1571,332819,0.862296,-0.186904,-0.619028,7.735,-337.6975,109.83
1572,332916,0.9084121,-0.12175599999999999,-0.641232,16.3625,-344.1725,117.425
1573,333012,0.999668,-0.031476,-0.7017439999999999,26.565,-346.6925,121.415
1574,333108,1.116544,0.06832001,-0.7832399999999999,39.795,-347.9,122.605
1575,333204,1.251232,0.13542,-0.8527800999999999,58.1175,-349.2125,122.2025
1576,333301,1.3917760000000001,0.11614400000000001,-0.8881600000000001,78.8025,-351.085,119.4375
1577,333397,1.500356,0.021228,-0.9084121,95.2175,-353.71,113.82
1578,333493,1.6043,-0.08808401,-0.9235399999999999,102.445,-354.34,107.7475
1579,333589,1.713124,-0.144204,-0.9833200000000001,101.36,-351.33,104.86
1580,333686,1.8724560000000001,-0.085888,-1.05774,97.45749,-343.4025,106.855
1581,333782,2.085956,-0.03172,-1.106784,101.57,-332.3775,112.9975
1582,333878,2.504416,-0.032695999999999996,-1.166564,115.3425,-320.18,119.1925
1583,333975,2.9614279999999997,-0.0793,-1.144116,129.1675,-314.1075,122.5
1584,334071,3.2605720000000002,-0.038796,-0.945744,133.7,-317.87,122.9375
1585,334167,3.197132,0.203496,-0.518256,129.115,-325.43,121.94
1586,334263,2.889448,0.620004,-0.057339999999999995,125.65,-319.7075,122.885
1587,334360,2.695468,0.8679081,0.410408,131.53,-291.62,126.77
1588,334456,2.650328,0.739564,0.8422879999999999,129.3075,-250.7575,124.0225
1589,334552,2.66082,0.505568,1.250744,91.3325,-207.9,104.265
1590,334648,2.6815599999999997,0.8142281,1.514752,21.315,-168.8575,70.8575
1591,334745,3.083672,1.505968,1.814384,-27.02,-131.9675,38.6925
1592,334841,2.759152,1.747772,2.2789599999999997,-12.565,-100.66,8.575
1593,334937,1.9893319999999999,1.517436,2.312388,31.6225,-48.055,-32.8475
1594,335034,1.890268,1.004548,1.718004,57.995,31.9725,-78.0675
1595,335130,2.229184,0.627568,0.8396040000000001,46.27,97.14251,-117.1275
1596,335226,1.004304,-1.7092200000000002,-0.075396,9.765,121.5725,-146.125
1597,335322,-0.518988,-0.477264,-1.194136,-194.2675,152.5825,-207.4975
1598,335419,-1.256356,-0.157136,-2.113772,-189.63,186.2525,-242.1475
1599,335515,0.6290319999999999,0.798124,0.139324,-136.2375,246.19,-162.505
1600,335611,2.8660240000000003,0.734928,-1.0323639999999998,-94.6925,332.4475,-88.4975
1601,335707,3.768336,0.9037761000000001,-2.05936,-56.9275,321.895,-69.475
1602,335804,2.97192,-1.323944,-2.135732,-51.1875,196.7525,-67.27
1603,335900,2.021784,-0.041968,-0.847412,-129.6925,100.0825,-67.935
1604,335996,0.45871999999999996,0.9147559999999999,-1.336144,-113.5925,26.9325,-54.3025
1605,336093,0.8901120000000001,0.6290319999999999,-1.127524,-77.7525,26.775,-41.93
1606,336189,0.9950319999999999,-0.482388,-0.733708,-28.665,12.6525,-25.725
1607,336285,0.692228,0.268644,-0.9006040999999999,-25.06,10.2725,-12.6
1608,336381,0.7259001,-0.057828,-0.8108121,-13.475,2.6075,-9.4675
1609,336478,0.676124,-0.007076001,-0.8488761,-8.4875,0.875,-8.785
1610,336574,0.593164,0.0671,-0.8405800999999999,-5.8975,0.455,-8.9425
1611,336670,0.6156119999999999,-0.045627999999999995,-0.8052,-0.0175,1.96,-4.795
1612,336767,0.6131721,-0.029036000000000003,-0.807884,1.54,2.24,-3.2375
1613,336863,0.61366,-0.031476,-0.803736,2.6075,2.205,-3.22
1614,336959,0.588284,0.008296000999999999,-0.8249639999999999,3.535,1.9775,-2.625
1615,337055,0.598288,-0.01708,-0.8127641,5.4075,3.605,-0.8225
1616,337152,0.6029241,-0.043432,-0.800076,6.5625,5.0925,0.315
1617,337248,0.599996,-0.050996,-0.7956840999999999,6.685,5.2325,0.42
1618,337344,0.603168,-0.062464,-0.7881199999999999,6.1775,5.3025,-0.1225
1619,337440,0.6095119999999999,-0.07002799999999999,-0.782508,5.5825,4.83,-1.1725
1620,337537,0.597312,-0.07222401,-0.786412,5.075,4.235,-2.6075
1621,337633,0.599508,-0.069784,-0.787388,4.5675,4.025,-4.55
1622,337729,0.60512,-0.056608000000000006,-0.784216,4.235,4.4275,-6.335
1623,337826,0.601216,-0.058316,-0.7861680999999999,3.815,4.2175,-7.28
1624,337922,0.6097560000000001,-0.054655999999999996,-0.7834840000000001,3.22,4.2,-7.98
1625,338018,0.605364,-0.05587601,-0.77836,2.4675,4.0775,-8.8725
1626,338114,0.6141479999999999,-0.060512,-0.777872,1.68,3.675,-9.2925
1627,338211,0.6197600000000001,-0.063928,-0.7759199999999999,0.875,2.975,-9.555
1628,338307,0.61366,-0.06563601,-0.7734800000000001,0.0175,1.8725,-9.905
1629,338403,0.6131721,-0.048556,-0.775188,-0.455,1.225,-10.15
1630,338499,0.6229319999999999,-0.043432,-0.7754321,0.0875,1.0325,-9.765
1631,338596,0.6178081,-0.036844,-0.77836,0.77,0.8925,-8.925
1632,338692,0.620004,-0.026351999999999997,-0.7788480999999999,1.82,1.505,-8.4
1633,338788,0.61366,-0.024888,-0.781776,2.905,2.135,-7.525
1634,338885,0.61488,-0.027083999999999997,-0.782752,3.7975,3.0625,-6.335
1635,338981,0.610488,-0.022692,-0.781532,4.6025,4.025,-5.3725
1636,339077,0.61,-0.024644,-0.781044,5.5475,5.1625,-4.6375
1637,339173,0.613904,-0.02806,-0.783728,6.9125,6.37,-3.885
1638,339270,0.608536,-0.028304000000000003,-0.784704,8.3475,7.7,-3.465
1639,339366,0.610488,-0.027816000000000004,-0.787632,10.2025,9.6075,-3.2025
1640,339462,0.6058520000000001,-0.026595999999999998,-0.7893399999999999,12.0575,12.075,-2.8525
1641,339558,0.593164,-0.034892,-0.79178,13.6325,15.0675,-2.4325
1642,339655,0.58682,-0.020496,-0.8105680000000001,12.3375,19.8275,-1.68
1643,339751,0.589992,-0.037576,-0.808372,10.78,26.3375,-0.385
1644,339847,0.586332,-0.022203999999999998,-0.817156,11.445,32.725,0.945
1645,339944,0.5885281,-0.034892,-0.8149601,12.775,40.4425,1.54
1646,340040,0.604632,-0.05172801,-0.8105680000000001,12.67,49.28,1.54
1647,340136,0.610244,-0.044652,-0.8020281,11.97,58.45,1.1725
1648,340232,0.613904,-0.049288,-0.8015399999999999,11.97,68.215,0.595
1649,340329,0.599264,-0.08174001,-0.809348,12.2325,79.4675,-0.7875
1650,340425,0.607316,-0.08100801,-0.797392,10.9375,93.4675,-3.99
1651,340521,0.589504,-0.083936,-0.81252,9.135,110.5125,-8.1025
1652,340618,0.578036,-0.10126,-0.8413120000000001,7.63,128.8,-11.8125
1653,340714,0.5429,-0.11736400000000001,-0.8425321,3.99,147.63,-16.59
1654,340810,0.49849209999999994,-0.112728,-0.8796200000000001,-1.89,170.8,-21.175
1655,340906,0.5926760999999999,-0.16909200000000002,-0.9289081,-10.71,194.3725,-19.81
1656,341003,0.5353359999999999,-0.260348,-0.9437921,-23.345,214.9525,-19.74
1657,341099,0.7241920000000001,-0.231068,-0.9535521,-31.7975,248.465,-31.3075
1658,341195,0.729072,-0.29792399999999997,-1.063596,-37.3975,281.8375,-38.115
1659,341291,0.27205999999999997,-0.385764,-0.9384239999999999,-40.775,319.1825,-55.6675
1660,341388,0.871568,-0.166652,-1.144116,-44.905,356.405,-80.90250999999999
1661,341484,1.587952,-0.20861999999999997,-1.244156,-28.14,418.39,-98.665
1662,341580,1.6296760000000001,-0.102968,-1.26026,-26.8975,469.56,-122.43
1663,341676,1.573312,0.07808001,-1.402756,-8.7325,487.2,-129.5525
1664,341773,2.0703400000000003,-0.432612,-1.521828,34.9475,469.4025,-126.5775
1665,341869,2.984364,-0.428708,-1.6235760000000001,43.8725,443.8875,-121.8875
1666,341965,1.322236,-0.229116,-1.929552,40.88,453.8975,-109.935
1667,342062,0.26474000000000003,-0.22057600000000002,-1.938092,51.24,439.81,-135.4325
1668,342158,1.89832,0.9154880999999999,-1.685552,26.355,301.42,-177.7825
1669,342254,3.273748,-0.07978801,-3.467484,82.5125,195.8075,-173.46
1670,342350,1.5889280000000001,-0.527528,-2.3077520000000002,137.305,-15.1375,-157.8675
1671,342447,0.320372,-0.639768,-1.384944,144.7775,-124.4075,-140.1225
1672,342543,-0.132004,-0.6170760000000001,-0.721264,139.2125,-158.4625,-121.4675
1673,342639,-0.149816,-0.7027201,-0.36844,135.5025,-148.5925,-104.4225
1674,342735,0.11102000000000001,-0.849852,-0.35868,127.96,-134.5925,-84.4725
1675,342832,0.413092,-0.9247601000000001,-0.5192319999999999,108.6925,-133.7525,-59.1675
1676,342928,0.557052,-0.8361879999999999,-0.673928,82.915,-149.38,-24.4125
1677,343024,0.532408,-0.628544,-0.748592,65.1175,-174.685,18.2175
1678,343120,0.458232,-0.387472,-0.742492,59.0975,-198.2225,61.2325
1679,343217,0.426756,-0.141276,-0.7327321,62.2825,-216.0725,96.1975
1680,343313,0.44847200000000004,0.135908,-0.762988,69.3,-230.2825,116.305
1681,343409,0.5011760000000001,0.43236800000000003,-0.8174001000000001,81.39251,-244.2475,121.38
1682,343506,0.5206960999999999,0.699548,-0.8378960999999999,101.4475,-259.77,114.73
1683,343602,0.5058121,0.9113399999999999,-0.827892,129.8325,-273.385,98.82251
1684,343698,0.529724,1.072624,-0.81618,163.4325,-280.5425,77.1225
1685,343794,0.627812,1.1324040000000002,-0.8169121,198.835,-282.8,52.9725
1686,343891,0.752496,1.0687200000000001,-0.8127641,230.6325,-283.815,29.8375
1687,343987,0.8579041,0.9167081,-0.798856,251.055,-285.3375,11.3925
1688,344083,0.9042641,0.7622561,-0.756156,257.425,-285.355,1.925
1689,344179,0.96624,0.696132,-0.741272,251.5975,-279.9475,3.8675
1690,344276,1.02114,0.701256,-0.7954399999999999,240.66,-270.13,16.345
1691,344372,1.096536,0.752008,-0.8764481,230.3175,-258.1425,33.565
1692,344468,1.1631479999999998,0.834724,-0.9325680000000001,221.7775,-246.435,46.935
1693,344565,1.34322,1.026508,-1.009672,216.825,-233.625,51.38
1694,344661,1.681648,1.252208,-1.090924,221.8125,-222.5475,49.2975
1695,344757,2.00202,1.305644,-1.040904,236.775,-222.915,40.3725
1696,344853,2.094984,1.307352,-0.788852,244.265,-231.49,22.9425
1697,344950,2.0220279999999997,1.422764,-0.479704,238.0175,-232.925,-0.5075
