,T,ax,ay,az,gx,gy,gz
0,185860,0.496784,0.116388,-0.692716,13.5275,-14.6825,-13.93
1,186013,0.5206960999999999,0.122244,-0.7707961,18.4275,-55.2825,-16.3975
2,186110,0.558028,0.130296,-0.823256,122.1325,-149.4325,-49.105
3,186207,0.5604680000000001,0.128588,-0.820816,64.61,-112.5075,-35.7
4,186304,0.5602239999999999,0.129076,-0.8203280000000001,3.43,-4.9175,-3.8675
5,186401,0.5602239999999999,0.130296,-0.8210601000000001,1.8725,-2.03,-2.94
6,186498,0.558272,0.132004,-0.821304,1.785,-2.065,-2.9925
7,186595,0.55998,0.12932000000000002,-0.822768,1.7675,-2.1,-3.08
8,186692,0.559248,0.12932000000000002,-0.821792,1.7325,-2.17,-3.045
9,186789,0.556808,0.13054000000000002,-0.8195960999999999,1.7325,-2.0825,-3.0625
10,186886,0.559248,0.13054000000000002,-0.822768,1.75,-2.0125,-3.01
11,186983,0.558516,0.132736,-0.8252079999999999,1.7325,-1.9775,-2.975
12,187080,0.559004,0.131272,-0.8215481,1.82,-1.9775,-2.9575
13,187177,0.5594920999999999,0.129564,-0.822768,1.8025,-1.995,-3.0625
14,187274,0.557296,0.128832,-0.8230120999999999,1.785,-1.9075,-3.08
15,187372,0.559736,0.131028,-0.8230120999999999,1.7675,-1.9775,-3.08
16,187469,0.559736,0.132736,-0.821792,1.8025,-2.03,-2.9575
17,187566,0.561932,0.130052,-0.821792,1.8025,-2.0475,-3.115
18,187663,0.5607121,0.132004,-0.8230120999999999,1.89,-2.1,-3.15
19,187760,0.557052,0.12980799999999998,-0.822768,1.8025,-2.03,-3.115
20,187857,0.560956,0.130296,-0.8220360000000001,1.68,-2.1175,-3.115
21,187954,0.559248,0.129564,-0.823256,1.7675,-2.065,-3.045
22,188051,0.562664,0.13176,-0.8235001000000001,1.785,-2.0825,-3.1675
23,188148,0.5607121,0.13176,-0.821304,1.75,-2.1175,-3.0975
24,188245,0.5594920999999999,0.131028,-0.8220360000000001,1.75,-2.2225,-3.1325
25,188342,0.560956,0.132004,-0.822768,1.8375,-2.1875,-3.15
26,188439,0.559004,0.131272,-0.8215481,1.75,-2.135,-3.15
27,188536,0.5594920999999999,0.13176,-0.821792,1.7675,-2.205,-3.115
28,188633,0.5604680000000001,0.12980799999999998,-0.8210601000000001,1.715,-2.205,-3.115
29,188730,0.55998,0.132004,-0.8220360000000001,1.7325,-2.24,-3.115
30,188828,0.5587601,0.13078399999999998,-0.822768,1.715,-2.1875,-3.1675
31,188925,0.556808,0.133224,-0.822768,1.715,-2.205,-3.1325
32,189022,0.558516,0.13078399999999998,-0.823744,1.645,-2.1175,-3.22
33,189119,0.5551,0.131028,-0.8247200000000001,1.505,-2.03,-3.2375
34,189216,0.5577840000000001,0.132736,-0.8244761,1.4525,-1.8725,-3.3075
35,189313,0.5607121,0.12980799999999998,-0.822524,1.365,-1.925,-3.29
36,189410,0.5602239999999999,0.132004,-0.8215481,1.4,-1.9075,-3.3075
37,189507,0.562176,0.132492,-0.8220360000000001,1.4875,-1.9425,-3.3075
38,189604,0.5636399999999999,0.13151600000000002,-0.8220360000000001,1.4525,-2.0125,-3.36
39,189701,0.5602239999999999,0.13542,-0.8222799999999999,1.54,-2.065,-3.2725
40,189798,0.55998,0.134688,-0.8235001000000001,1.6625,-2.17,-3.2375
41,189895,0.5614439999999999,0.131272,-0.8203280000000001,1.7325,-2.205,-3.2375
42,189992,0.56242,0.13298,-0.8193521,1.855,-2.3275,-3.1675
43,190090,0.5594920999999999,0.133956,-0.822768,1.9075,-2.3975,-3.0625
44,190187,0.55998,0.1342,-0.8220360000000001,1.995,-2.3975,-3.0275
45,190284,0.5604680000000001,0.132248,-0.820572,1.9775,-2.345,-2.905
46,190381,0.5594920999999999,0.132736,-0.822768,2.0475,-2.45,-2.94
47,190478,0.55998,0.13176,-0.81984,2.1,-2.3625,-2.94
48,190575,0.5602239999999999,0.13298,-0.8235001000000001,2.065,-2.3275,-3.01
49,190672,0.559248,0.133468,-0.8210601000000001,2.0475,-2.38,-2.9925
50,190769,0.559248,0.132492,-0.8220360000000001,2.0475,-2.31,-2.975
51,190866,0.559736,0.132492,-0.821792,2.0125,-2.275,-3.08
52,190963,0.559004,0.13298,-0.820084,2.0125,-2.24,-3.045
53,191060,0.558516,0.133468,-0.822524,2.065,-2.2225,-3.01
54,191158,0.5587601,0.132492,-0.8220360000000001,2.135,-2.205,-3.01
55,191255,0.558028,0.13298,-0.8203280000000001,2.1,-2.24,-2.87
56,191352,0.55998,0.132736,-0.8235001000000001,2.1,-2.2225,-2.8875
57,191449,0.5607121,0.132248,-0.8215481,2.135,-2.2575,-2.9225
58,191546,0.559248,0.132248,-0.8222799999999999,2.1175,-2.2575,-2.94
59,191643,0.5594920999999999,0.13298,-0.8222799999999999,2.065,-2.2225,-2.87
60,191740,0.5594920999999999,0.132248,-0.820572,2.1175,-2.24,-2.905
61,191837,0.55998,0.132248,-0.8220360000000001,2.1,-2.2575,-2.8875
62,191934,0.559004,0.132248,-0.8220360000000001,2.1,-2.31,-2.8875
63,192031,0.558272,0.132004,-0.8195960999999999,2.065,-2.2225,-2.9225
64,192128,0.559736,0.132004,-0.8210601000000001,2.0125,-2.24,-2.94
65,192225,0.559736,0.133468,-0.821792,2.03,-2.2575,-2.9925
66,192323,0.558272,0.132004,-0.8230120999999999,2.0475,-2.1175,-2.975
67,192420,0.5577840000000001,0.132736,-0.823256,1.96,-2.24,-3.01
68,192517,0.5575399999999999,0.131028,-0.823744,1.96,-2.1525,-2.94
69,192614,0.559248,0.133712,-0.8220360000000001,1.96,-2.0475,-2.9575
70,192711,0.5604680000000001,0.132248,-0.8193521,1.9075,-2.065,-2.94
71,192808,0.558516,0.132736,-0.820084,2.03,-2.1,-2.9225
72,192905,0.558272,0.132736,-0.824232,1.9075,-1.9775,-2.9575
73,193002,0.55998,0.13298,-0.822524,1.82,-1.9075,-2.87
74,193099,0.559248,0.132492,-0.8215481,1.8725,-1.8725,-2.835
75,193196,0.5607121,0.13078399999999998,-0.820084,1.8725,-1.75,-2.87
76,193293,0.5594920999999999,0.13078399999999998,-0.815936,1.9075,-1.8025,-2.87
77,193390,0.559004,0.13151600000000002,-0.81984,1.925,-1.8025,-2.8875
78,193488,0.55998,0.133224,-0.8215481,2.065,-1.8025,-2.905
79,193585,0.558516,0.133956,-0.8210601000000001,1.925,-1.9075,-2.87
80,193682,0.558272,0.133468,-0.820572,1.96,-1.82,-2.8
81,193779,0.558028,0.132248,-0.820084,2.0125,-1.8725,-2.7475
82,193876,0.5614439999999999,0.12980799999999998,-0.820816,1.9425,-1.82,-2.7475
83,193973,0.559736,0.131028,-0.818376,1.8725,-1.7675,-2.765
84,194070,0.5577840000000001,0.13054000000000002,-0.818376,1.9075,-1.82,-2.8175
85,194167,0.5607121,0.12932000000000002,-0.8188641,1.89,-1.715,-2.8525
86,194264,0.562664,0.131028,-0.8220360000000001,1.9425,-1.9075,-2.94
87,194361,0.55998,0.130296,-0.8169121,1.995,-2.03,-2.9575
88,194459,0.559004,0.130296,-0.818132,1.96,-2.0475,-2.9575
89,194556,0.5614439999999999,0.12932000000000002,-0.820816,1.9425,-2.1,-2.9575
90,194653,0.558272,0.133956,-0.820572,1.9075,-2.1175,-2.8875
91,194750,0.559004,0.134444,-0.81984,1.925,-2.17,-2.94
92,194847,0.558272,0.13176,-0.81862,2.03,-2.135,-2.975
93,194944,0.5577840000000001,0.132004,-0.819108,1.9775,-2.135,-2.94
94,195041,0.5602239999999999,0.131272,-0.818376,1.9075,-2.1,-2.94
95,195138,0.5607121,0.129564,-0.81984,1.855,-2.17,-2.9575
96,195235,0.559248,0.133224,-0.820084,1.9775,-2.205,-3.01
97,195332,0.562664,0.13078399999999998,-0.8210601000000001,1.925,-2.2225,-2.9575
98,195429,0.562908,0.131028,-0.821304,1.925,-2.275,-3.01
99,195526,0.559004,0.13176,-0.8193521,1.96,-2.3275,-3.01
100,195624,0.558516,0.13054000000000002,-0.8176439999999999,2.0125,-2.2925,-2.975
101,195721,0.5602239999999999,0.132004,-0.8193521,2.0125,-2.275,-2.905
102,195818,0.558272,0.13151600000000002,-0.8188641,2.065,-2.2225,-2.94
103,195915,0.558272,0.13054000000000002,-0.8169121,2.03,-2.1525,-3.0275
104,196012,0.5607121,0.127368,-0.8222799999999999,1.82,-2.0475,-3.1675
105,196109,0.5663239999999999,0.132492,-0.822768,1.2425,-1.715,-3.395
106,196206,0.568276,0.126636,-0.823256,0.5425,-1.4175,-3.6925
107,196303,0.5743761,0.122732,-0.8149601,-0.175,-1.0675,-4.515
108,196400,0.5726680000000001,0.14078800000000002,-0.817156,-0.945,-1.61,-5.5825
109,196497,0.562908,0.1403,-0.8235001000000001,-0.735,-2.7475,-5.9675
110,196595,0.564372,0.13176,-0.8342360000000001,-0.5425,-2.66,-5.95
111,196692,0.57706,0.12468399999999999,-0.8247200000000001,-1.3825,-2.2225,-6.1075
112,196789,0.5856,0.12444000000000001,-0.830332,-1.82,-3.185,-6.335
113,196886,0.565104,0.152988,-0.818132,-1.4875,-4.935,-6.37
114,196983,0.569984,0.14566800000000002,-0.8149601,-0.945,-5.145,-6.2475
115,197080,0.565104,0.154696,-0.8127641,-0.07,-6.2125,-5.6175
116,197177,0.564128,0.1647,-0.8132520999999999,1.225,-6.8775,-5.0575
117,197274,0.57218,0.18446400000000002,-0.809836,3.185,-7.945,-3.815
118,197371,0.5692520000000001,0.167872,-0.81618,5.845,-9.4325,-2.3275
119,197468,0.5631520000000001,0.13908,-0.824232,7.525,-10.325,-0.105
120,197565,0.557052,0.115168,-0.828868,7.91,-10.7275,0.77
121,197663,0.559736,0.112728,-0.8235001000000001,7.525,-10.675,0.525
122,197760,0.5514399999999999,0.11102000000000001,-0.823256,6.8425,-10.465,-0.0875
123,197857,0.5368,0.10687200000000001,-0.8247200000000001,6.1075,-10.045,-0.8925
124,197954,0.534604,0.10321199999999998,-0.8247200000000001,5.0925,-9.415,-2.1525
125,198051,0.537532,0.10540799999999999,-0.827892,3.64,-8.2075,-3.745
126,198148,0.5458281,0.117852,-0.830576,2.1525,-6.965,-5.18
127,198245,0.533872,0.12248800000000001,-0.82594,1.4,-6.23,-5.8275
128,198342,0.540216,0.135176,-0.82594,1.085,-5.5475,-6.09
129,198439,0.53314,0.131028,-0.8235001000000001,0.8925,-5.0575,-6.5625
130,198536,0.523624,0.13639600000000002,-0.820084,1.3825,-4.62,-6.58
131,198633,0.504836,0.15274400000000002,-0.8220360000000001,2.52,-4.165,-6.2125
132,198731,0.51362,0.15176800000000001,-0.8235001000000001,3.7625,-3.4125,-5.7225
133,198828,0.524112,0.136152,-0.826672,4.62,-2.6075,-4.83
134,198925,0.5343600000000001,0.141032,-0.828868,4.9875,-2.345,-4.0425
135,199022,0.5414359999999999,0.134688,-0.8254520000000001,5.6175,-2.0825,-3.57
136,199119,0.539484,0.128832,-0.8256960999999999,5.7925,-2.275,-3.255
137,199216,0.5321640000000001,0.129564,-0.827892,5.775,-2.45,-3.185
138,199313,0.547536,0.122732,-0.830332,5.6,-2.2925,-3.0275
139,199410,0.562908,0.116388,-0.8298440999999999,4.655,-2.1175,-3.29
140,199507,0.577304,0.111508,-0.8396040000000001,2.695,-2.31,-4.5325
141,199604,0.562908,0.137128,-0.8352120000000001,0.9275,-3.0625,-5.6525
142,199701,0.5577840000000001,0.129564,-0.829356,0.245,-3.535,-6.3525
143,199799,0.548756,0.13542,-0.830332,-0.2275,-3.7275,-6.965
144,199896,0.549732,0.135908,-0.828624,-0.3675,-3.8325,-7.5775
145,199993,0.55388,0.141276,-0.829356,-0.4725,-3.9025,-7.9275
146,200090,0.550952,0.1342,-0.8310639999999999,-0.49,-3.9375,-8.3475
147,200187,0.548512,0.141276,-0.8296,-0.4725,-4.3925,-8.19
148,200284,0.5429,0.145424,-0.826916,0.035,-4.6725,-8.0675
149,200381,0.536556,0.13664,-0.8291120999999999,0.6825,-4.8475,-7.7875
150,200478,0.541192,0.136152,-0.8337481,1.05,-4.9875,-7.56
151,200575,0.5463161,0.13542,-0.8274040000000001,1.1025,-4.97,-7.49
152,200672,0.544608,0.129076,-0.8271601000000001,0.945,-5.355,-7.805
153,200769,0.536068,0.1281,-0.8327720999999999,0.9275,-5.67,-8.0325
154,200867,0.538996,0.132492,-0.8327720999999999,0.875,-5.915,-7.735
155,200964,0.553392,0.124928,-0.8276481,0.9275,-6.16,-7.665
156,201061,0.543388,0.12932000000000002,-0.8254520000000001,0.7525,-6.5275,-7.8225
157,201158,0.532652,0.126636,-0.829356,0.6825,-7.0,-8.155
158,201255,0.5309441,0.118584,-0.8364321,0.28,-7.105,-8.7325
159,201352,0.532408,0.13054000000000002,-0.8371639999999999,-0.8925,-6.615,-9.275
160,201449,0.549732,0.132736,-0.8422879999999999,-2.135,-6.16,-10.15
161,201546,0.534848,0.135664,-0.8422879999999999,-3.255,-5.8975,-10.6925
162,201643,0.53192,0.1403,-0.8439959999999999,-4.305,-5.5825,-10.815
163,201740,0.529968,0.141032,-0.8410681000000001,-4.9525,-5.285,-10.3425
164,201838,0.524356,0.144448,-0.8405800999999999,-5.3725,-4.7075,-10.22
165,201935,0.519964,0.146644,-0.8400921,-5.8275,-4.2,-10.185
166,202032,0.509716,0.15420799999999998,-0.8364321,-5.705,-3.675,-9.94
167,202129,0.504104,0.17055599999999999,-0.8359440999999999,-5.6525,-2.7825,-9.66
168,202226,0.5077640999999999,0.16348,-0.8344801,-4.76,-1.8025,-9.31
169,202323,0.503372,0.183976,-0.828624,-3.885,-0.9625,-8.575
170,202420,0.499712,0.1952,-0.8291120999999999,-1.8375,0.0875,-7.14
171,202517,0.5084960000000001,0.195932,-0.8195960999999999,0.35,0.9625,-5.39
172,202614,0.490196,0.205448,-0.826672,2.8525,1.6975,-3.2375
173,202711,0.49849209999999994,0.189588,-0.8252079999999999,5.2325,2.6775,-0.9625
174,202809,0.510692,0.162992,-0.8298440999999999,7.0175,3.745,1.1725
175,202906,0.5219159999999999,0.171776,-0.830332,7.8925,4.4275,2.5025
176,203003,0.5368,0.13761600000000002,-0.8359440999999999,8.4525,4.8475,3.3075
177,203100,0.537288,0.15372,-0.836676,6.9825,4.2875,3.57
178,203197,0.5231359999999999,0.148108,-0.8342360000000001,5.985,3.8675,3.5175
179,203294,0.518988,0.15176800000000001,-0.834968,4.97,4.025,3.64
180,203391,0.513864,0.15494000000000002,-0.8342360000000001,4.235,4.55,4.06
181,203488,0.543632,0.155428,-0.834724,3.885,5.04,4.865
182,203585,0.568032,0.140544,-0.8276481,4.0075,4.7775,5.565
183,203682,0.5663239999999999,0.142008,-0.831308,4.2875,3.7975,5.6
184,203780,0.564616,0.152988,-0.8261841000000001,4.3925,3.045,5.25
185,203877,0.55632,0.14469200000000002,-0.828868,4.6025,2.3975,5.1275
186,203974,0.5575399999999999,0.13785999999999998,-0.8244761,4.375,2.0825,5.0925
187,204071,0.553636,0.14078800000000002,-0.8247200000000001,3.955,1.8725,4.9175
188,204168,0.540704,0.1464,-0.830332,3.6925,1.6625,4.795
189,204265,0.5355800999999999,0.14396,-0.8291120999999999,3.6225,1.96,4.935
190,204362,0.5397281,0.139812,-0.8298440999999999,3.0275,2.59,4.9
191,204459,0.5414359999999999,0.13176,-0.8276481,2.555,3.3775,4.5675
192,204556,0.5489999999999999,0.12980799999999998,-0.8274040000000001,1.925,4.2,4.13
193,204653,0.543388,0.135176,-0.8308200000000001,1.3475,5.0925,3.6225
194,204750,0.5502199999999999,0.138104,-0.8244761,1.085,5.9675,3.5
195,204848,0.5489999999999999,0.139324,-0.827892,0.9975,6.51,3.71
196,204945,0.553392,0.14396,-0.8220360000000001,1.1025,6.86,4.06
197,205042,0.557296,0.138104,-0.8210601000000001,1.26,7.735,4.2
198,205139,0.5514399999999999,0.132492,-0.8235001000000001,1.0675,8.82,4.1825
199,205236,0.5553441,0.13078399999999998,-0.81862,0.7875,10.01,4.1125
200,205333,0.549732,0.128832,-0.8239880999999999,-0.14,11.7775,3.605
201,205430,0.5502199999999999,0.120048,-0.827892,-1.26,14.175,3.4125
202,205527,0.543876,0.114436,-0.8281360999999999,-2.975,17.185,3.3075
203,205624,0.525088,0.093696,-0.830576,-5.8275,21.1925,3.115
204,205721,0.490684,0.135908,-0.8664440000000001,-11.9525,26.25,2.45
205,205819,0.509716,0.2013,-0.8971879999999999,-15.33,34.615,2.7125
206,205916,0.5214281,0.08784,-0.8513161,-10.255,45.9725,2.8875
207,206013,0.5292359999999999,0.092964,-0.8476561,-14.2275,57.085,1.2775
208,206110,0.5119121,0.08784,-0.8735200000000001,-16.73,69.02,-0.7175
209,206207,0.5368,0.098576,-0.8315520000000001,-19.8625,82.285,-2.9925
210,206304,0.5504641,0.122732,-0.809348,-22.5225,97.895,-5.565
211,206401,0.5514399999999999,0.16592,-0.833992,-23.3625,114.345,-6.125
212,206498,0.5738880000000001,0.144204,-0.8147161,-20.5625,127.7675,-5.705
213,206595,0.5694961,0.148596,-0.830332,-16.5025,139.615,-4.2525
214,206692,0.549732,0.135176,-0.8369200000000001,-13.055,156.6075,-3.5875
215,206789,0.5936520000000001,0.1708,-0.8532681000000001,-7.875,175.6825,-2.8525
216,206887,0.537532,0.17836400000000002,-0.812032,1.0325,193.83,-0.7175
217,206984,0.522892,0.209596,-0.764696,8.2425,212.765,3.01
218,207081,0.7537159999999999,0.200324,-0.833016,12.3025,234.535,6.79
219,207178,0.5743761,0.27938,-0.724436,12.04,251.02,5.39
220,207275,0.7929999999999999,0.269376,-0.808372,18.8825,276.8675,5.1625
221,207372,1.114104,0.233996,-0.8949921000000001,32.4975,306.355,5.95
222,207469,0.539484,0.37551599999999996,-1.064816,42.8575,332.01,15.9775
223,207566,0.9823440999999999,0.208864,-0.9752681000000001,54.9675,346.185,31.43
224,207663,1.3468799999999999,0.32818,-0.9474520000000001,55.7375,377.02,40.74
225,207760,1.580876,0.30353600000000003,-1.164124,46.6375,410.62,47.7225
226,207857,1.374452,0.188368,-1.085312,34.0375,430.0975,53.3925
227,207955,1.718248,0.392108,-1.377624,4.725,432.2325,68.25
228,208052,2.04472,0.6009720000000001,-1.14802,8.68,410.4625,83.7725
229,208149,1.6479759999999999,0.6834439999999999,-1.2944200000000001,4.8125,414.3475,61.705
230,208246,1.4039760000000001,0.7171161,-1.5318319999999999,-3.535,418.775,55.7375
231,208343,0.886452,0.51972,-1.527196,-25.725,378.735,69.0025
232,208440,1.109712,-0.27938,-0.978928,-52.7275,315.5075,71.5925
233,208537,4.273904,1.072624,-4.0679680000000005,-78.8375,234.43,71.7325
234,208634,1.968348,1.20414,-2.953864,-78.0675,1.1375,61.145
235,208731,0.777872,0.954528,-2.025444,-37.24,-149.135,56.42
236,208828,0.002928,0.47165200000000007,-1.174372,-2.2225,-213.43,60.9175
237,208925,-0.21301199999999998,0.25864000000000004,-0.731024,-2.555,-218.47,68.565
238,209022,-0.012444,0.299388,-0.711016,-28.665,-207.6375,66.9725
239,209120,0.234972,0.473116,-0.8127641,-55.8775,-208.4075,57.505
240,209217,0.38356799999999996,0.6368401,-0.8884040000000001,-69.16,-224.5425,43.75
241,209314,0.386496,0.720776,-0.8671761,-65.59,-247.17,28.875
242,209411,0.331352,0.6885680999999999,-0.7983680000000001,-52.045,-265.125,14.8225
243,209508,0.277672,0.6351319999999999,-0.751276,-38.2375,-274.1725,0.98
244,209605,0.306464,0.5892601,-0.764452,-27.79,-276.78,-14.0175
245,209702,0.41406800000000005,0.5016641,-0.813008,-21.9275,-278.6875,-31.22
246,209799,0.498004,0.44554399999999994,-0.8357,-23.24,-285.145,-51.2925
247,209896,0.5594920999999999,0.409432,-0.844484,-28.245,-293.65,-71.6275
248,209993,0.6290319999999999,0.37112399999999995,-0.8591241,-32.8475,-300.4575,-89.5475
249,210090,0.7378560000000001,0.302804,-0.874252,-36.26,-304.8325,-104.615
250,210187,0.8679081,0.239608,-0.9171961,-41.335,-308.665,-117.53
251,210285,0.99918,0.168604,-0.9757561,-48.4925,-312.83,-127.8375
252,210382,1.10776,0.110044,-1.0084520000000001,-57.0675,-317.9575,-135.17
253,210479,1.20292,0.102968,-1.0499319999999999,-65.7825,-323.015,-138.7925
254,210576,1.297348,0.167872,-1.099464,-70.6125,-326.9525,-137.8825
255,210673,1.407392,0.276696,-1.1812040000000001,-67.3925,-329.6825,-133.4025
256,210770,1.513044,0.29524,-1.241472,-56.14,-331.59,-128.9925
257,210867,1.633092,0.233752,-1.257332,-45.815,-332.4475,-129.85
258,210964,1.743624,0.205448,-1.2214639999999999,-41.7725,-331.7475,-135.1525
259,211061,1.879288,0.252784,-1.186084,-39.9175,-327.8625,-140.9625
260,211158,2.021784,0.183,-1.1192280000000001,-32.305,-319.025,-145.5475
261,211255,2.1169439999999997,-0.145912,-0.989176,-25.48,-305.7775,-153.2125
262,211352,2.324344,-0.14152,-0.84546,-32.3225,-290.15,-160.02
263,211449,2.507832,-0.039284,-0.6505041,-27.4225,-273.42,-151.97
264,211546,2.606408,-0.16128399999999998,-0.332816,-1.4875,-254.1875,-127.1375
265,211644,2.604212,-0.427976,0.050263999999999996,21.105,-231.42,-96.18
266,211741,2.572736,-0.640744,0.38552,20.8775,-204.365,-69.9825
267,211838,2.547116,-0.641964,0.62098,1.5925,-172.8125,-51.17
268,211935,2.5317439999999998,-0.503616,0.774456,-13.685,-137.48,-38.5
269,212032,2.4622040000000003,-0.412116,0.9103641,-7.1925,-99.45251,-29.12
270,212129,2.3860759999999996,-0.45603599999999994,1.015772,15.82,-60.0425,-21.77
271,212226,2.342156,-0.6097560000000001,1.085556,38.1675,-20.8775,-15.4525
272,212323,2.286768,-0.6707561,1.064084,44.9225,15.26,-5.4075
273,212420,2.197708,-0.59048,0.954284,38.815,48.335,12.46
274,212517,2.117676,-0.41113999999999995,0.731024,29.0325,78.96,37.0475
275,212614,2.0581400000000003,-0.194956,0.465308,19.2325,104.335,62.545
276,212711,0.041236,0.9825879999999999,-1.7275200000000002,15.6625,133.2275,93.24
277,212808,-1.69092,1.36274,-2.7215759999999998,66.395,179.9,118.3175
278,212906,-0.6795401,1.247816,-0.281088,43.715,218.575,109.935
279,213003,1.7265439999999999,-0.018788,-0.009028000999999999,50.12,286.265,71.92501
280,213100,2.95606,0.060267999999999995,-2.1164560000000003,47.4775,311.78,-3.185
281,213197,2.5742,-0.9437921,-1.984696,51.94,237.615,-29.75
282,213294,1.368596,-1.030656,-1.168272,38.4475,152.88,3.57
283,213391,1.02358,0.378444,-1.1829120000000002,0.3325,117.635,31.1325
284,213488,1.8544,1.28344,-0.66978,21.805,88.25251,26.775
285,213585,0.540704,-0.017812,-0.590236,72.45,36.9425,2.555
286,213682,1.130696,-0.5511961,-1.2214639999999999,71.4875,39.13,2.7125
287,213779,0.72346,0.4087,-0.714432,28.63,6.23,7.8575
288,213876,0.6539201,0.287432,-0.8586360000000001,25.725,-0.9275,4.655
289,213973,0.656848,-0.046848,-0.8998719999999999,30.7475,0.455,2.0475
290,214070,0.609024,0.178852,-0.8317960999999999,17.7625,-4.5325,4.2175
291,214167,0.5675439999999999,0.119804,-0.856196,15.82,-5.6,2.2225
292,214265,0.542412,0.14005599999999999,-0.8464360000000001,14.9625,-5.355,2.275
293,214362,0.574132,0.128832,-0.845216,13.2475,-4.8125,2.835
294,214459,0.543388,0.09150001,-0.849608,11.7075,-4.515,1.5575
295,214556,0.53192,0.139568,-0.84546,8.68,-3.85,0.42
296,214653,0.524356,0.136152,-0.8383841000000001,8.0675,-2.8,0.385
297,214750,0.512888,0.16348,-0.8359440999999999,7.7525,-2.275,1.54
298,214847,0.503616,0.187392,-0.826672,8.33,-2.4325,3.5875
299,214944,0.50142,0.175924,-0.8281360999999999,9.345,-1.7675,5.2325
300,215041,0.532408,0.125904,-0.8296,9.0475,0.14,4.76
301,215138,0.524112,0.128588,-0.8300879999999999,7.0875,0.63,4.6025
302,215235,0.527528,0.1098,-0.83814,5.6,1.54,3.7275
303,215332,0.532896,0.115168,-0.834724,3.92,2.415,2.8525
304,215429,0.5355800999999999,0.114436,-0.8361879999999999,2.6075,3.2375,2.1525
305,215527,0.5441199999999999,0.09735601,-0.830332,1.295,4.2,0.6825
306,215624,0.54168,0.104676,-0.830332,-1.155,5.0925,-1.19
307,215721,0.541924,0.122,-0.8342360000000001,-3.5875,6.0025,-3.045
308,215818,0.549244,0.128588,-0.828624,-4.97,6.93,-4.8125
309,215915,0.550952,0.146644,-0.8283799999999999,-5.53,6.9475,-5.39
310,216012,0.558272,0.156404,-0.8244761,-5.0225,6.5975,-4.935
311,216109,0.5612,0.167628,-0.820084,-4.025,5.7925,-3.4825
312,216206,0.562176,0.162748,-0.8193521,-2.8,4.6025,-1.47
313,216303,0.5587601,0.15274400000000002,-0.81618,-1.505,3.3425,0.665
314,216400,0.552416,0.14518,-0.813496,-0.8400001,2.135,2.4325
315,216497,0.544852,0.135176,-0.8193521,-0.7875,1.89,3.255
316,216594,0.5443640000000001,0.12395199999999999,-0.8308200000000001,-1.2775,2.66,3.465
317,216691,0.538752,0.12761199999999998,-0.827892,-1.89,3.43,3.115
318,216788,0.5380199999999999,0.14078800000000002,-0.828624,-2.59,4.0425,2.9925
319,216886,0.5368,0.152988,-0.8274040000000001,-2.66,4.795,3.255
320,216983,0.520208,0.1708,-0.8252079999999999,-2.5375,5.4075,4.55
321,217080,0.5185,0.182024,-0.829356,-2.0475,6.6675,6.405
322,217177,0.5158159999999999,0.180804,-0.8327720999999999,-1.435,8.3125,8.5575
323,217274,0.531188,0.13542,-0.828868,-2.135,11.13,8.75
324,217371,0.5124001,0.180804,-0.8413120000000001,-4.9,13.685,8.715
325,217468,0.5307,0.15128,-0.8471681000000001,-5.6,17.815,9.66
326,217565,0.537288,0.090036,-0.829356,-7.0175,23.2225,9.3975
327,217662,0.47823999999999994,0.028304000000000003,-0.828624,-14.9625,29.4875,7.735
328,217759,0.496296,0.21716,-0.8827921000000001,-30.2925,37.765,8.7675
329,217856,0.47702,0.243024,-0.9506241,-28.6475,51.0475,10.01
330,217953,0.5233800000000001,0.022692,-0.8610761,-20.545,68.39,9.1875
331,218050,0.54168,0.120048,-0.8888921000000001,-23.66,84.2975,6.5625
332,218147,0.537776,0.11760799999999999,-0.8876719999999999,-21.77,101.01,5.39
333,218244,0.559004,0.1159,-0.8100801,-22.82,121.52,2.7125
334,218342,0.580232,0.16835999999999998,-0.907192,-24.64,145.7225,1.12
335,218439,0.5441199999999999,0.16592,-0.889136,-21.6125,165.445,2.1
336,218536,0.5002,0.170068,-0.8927959999999999,-20.7725,190.9075,4.585
337,218633,0.39405999999999997,0.12932000000000002,-0.9403761,-17.15,219.52,7.7175
338,218730,0.467504,0.21057199999999998,-0.916952,-9.5375,252.1225,12.565
339,218827,0.42822,0.310368,-1.0169920000000001,-9.135,289.17,16.905
340,218924,0.6563601,0.377712,-1.16876,-18.795,326.4975,17.5525
341,219021,0.9330560999999999,0.453108,-1.244644,-9.135,373.625,21.175
342,219118,0.28767600000000004,0.450668,-1.336388,24.255,418.6525,48.4225
343,219215,1.454972,0.360388,-0.8949921000000001,61.1275,448.9625,79.135
344,219312,1.848544,0.37112399999999995,-1.470832,80.9375,528.9375,93.8525
345,219409,2.048868,0.384788,-1.720688,38.5875,573.0375,100.9225
346,219507,1.7104400000000002,0.476288,-2.158668,-26.74,566.4925,119.6125
347,219604,2.472452,1.094584,-1.73606,-26.39,515.8474,150.675
348,219701,2.38266,1.093364,-1.985672,-21.9625,491.155,122.4125
349,219798,1.15046,0.44164,-2.278716,-30.7825,494.9175,89.93251
350,219895,0.25254,-0.396744,-1.7714400000000001,-75.4075,376.7925,97.615
351,219992,4.8419360000000005,1.349808,-5.369952,-142.87,242.4625,101.01
352,220089,1.531344,1.653832,-3.2351959999999997,-143.1675,-30.73,84.14001
353,220186,0.15420799999999998,1.316624,-2.142076,-75.5475,-197.155,77.175
354,220283,-0.6502600000000001,0.599264,-1.057252,-18.795,-237.0725,80.1325
355,220380,-0.627568,0.37112399999999995,-0.6541640000000001,-17.4475,-212.5375,81.53251
356,220477,-0.14396,0.48556000000000005,-0.80276,-47.46,-184.3625,66.115
357,220575,0.2379,0.74542,-1.0384639999999998,-73.6575,-188.4575,37.555
358,220672,0.327936,0.8884040000000001,-1.086776,-76.2825,-218.1025,6.8775
359,220769,0.281332,0.8520479999999999,-0.9933241,-58.1525,-249.165,-18.795
360,220866,0.253272,0.7285841,-0.8813280000000001,-34.5625,-268.8,-39.8125
361,220963,0.28304,0.6070720000000001,-0.838628,-16.2925,-278.04,-59.8675
362,221060,0.40821199999999996,0.496296,-0.8615640999999999,-6.335,-283.3075,-80.5
363,221157,0.575596,0.38308000000000003,-0.907192,-3.955,-291.375,-101.535
364,221254,0.706624,0.312564,-0.9298841,-8.295,-304.2025,-121.975
365,221351,0.8003201,0.273768,-0.921588,-13.7725,-318.5525,-138.6525
366,221448,0.8805960999999999,0.21276799999999998,-0.9150001,-16.66,-330.2075,-148.925
367,221545,0.9933241,0.11345999999999999,-0.9250040999999999,-19.425,-337.3475,-152.9325
368,221642,1.1629040000000002,-0.000488,-0.9857600000000001,-27.5975,-342.37,-153.23
369,221739,1.3583479999999999,-0.089304,-1.061644,-44.2925,-348.845,-152.355
370,221837,1.520608,-0.046604,-1.1387479999999999,-67.0075,-358.6625,-150.7275
371,221934,1.6384599999999998,0.125904,-1.192428,-82.6525,-369.8275,-143.885
372,222031,1.753384,0.29036,-1.235128,-79.695,-378.0525,-129.9725
373,222128,1.8343919999999998,0.35087199999999996,-1.2517200000000002,-64.505,-381.6225,-115.535
374,222225,2.0037279999999997,0.342332,-1.291736,-52.535,-381.85,-109.585
375,222322,2.192828,0.38552,-1.272216,-51.59,-381.15,-114.8175
376,222419,2.354356,0.432612,-1.190476,-54.6525,-379.05,-126.28
377,222516,2.451712,0.280356,-1.016504,-52.6225,-370.685,-140.49
378,222613,2.5344279999999997,-0.091988,-0.8276481,-53.865,-351.8375,-159.1625
379,222710,2.8435759999999997,-0.1159,-0.6505041,-68.5475,-327.8275,-174.09
380,222807,3.081964,-0.05172801,-0.34477199999999997,-67.1825,-304.8325,-170.2225
381,222904,3.1473560000000003,-0.22448,0.11541199999999999,-41.2825,-280.1575,-147.6125
382,223002,3.077084,-0.448716,0.663924,-12.25,-248.71,-120.715
383,223099,2.888472,-0.54168,1.116544,4.97,-207.6025,-99.34751
384,223196,2.7179159999999998,-0.751276,1.46278,17.5875,-155.05,-86.1
385,223293,3.097824,-1.1529,1.7338639999999998,22.3125,-94.6925,-80.6225
386,223390,3.151016,-1.202432,1.874896,5.985,-44.2225,-69.93
387,223487,2.84382,-0.9840521000000001,1.753872,-2.6075,4.375,-41.9475
388,223584,2.602016,-0.7666480999999999,1.383968,18.4275,60.375,0.98
389,223681,2.314584,-0.6634359999999999,0.8647360000000001,49.385,110.495,45.2375
390,223778,-0.46433199999999997,0.11224,-0.9674601,78.41751,176.3125,110.3375
391,223875,-1.7868119999999998,1.363716,-2.5622439999999997,83.16001,242.585,165.7775
392,223972,1.023336,0.592188,-0.7176041,89.8975,315.2625,205.485
393,224070,3.344996,-0.601704,-0.877912,116.9525,346.1325,159.11
394,224167,2.969236,0.21813600000000002,-2.2784720000000003,67.2,307.6325,79.73001
395,224264,2.173552,-0.284748,-1.6972639999999999,77.175,228.1125,41.265
396,224361,0.9745360000000001,-0.172996,-1.023336,59.815,165.3225,30.5375
397,224458,1.0248,1.217804,-1.72996,43.8025,147.77,25.0775
398,224555,2.3201959999999997,0.159576,-0.7500560000000001,106.7675,117.6175,32.025
399,224652,1.103856,-1.036268,-0.930372,116.3925,39.8825,31.99
400,224749,0.9684360999999999,-0.163236,-0.9874681000000001,63.105,9.345,24.2725
401,224846,0.6893,0.32208000000000003,-0.8464360000000001,23.1875,-10.1675,11.9525
402,224943,0.616344,-0.049776,-0.892308,22.6975,-5.6875,2.835
403,225040,0.56852,0.10223600000000001,-0.845216,10.885,-3.885,0.0175
404,225137,0.5516840000000001,0.10638399999999999,-0.8559521000000001,5.1975,-1.75,-5.425
405,225234,0.5131319999999999,0.162992,-0.858392,1.4525,-0.1225,-5.95
406,225332,0.550952,0.09028,-0.8459479999999999,0.5425,2.31,-4.9
407,225429,0.553636,0.09930800000000001,-0.8400921,-1.3475,3.465,-5.53
408,225526,0.526552,0.11760799999999999,-0.8527800999999999,-3.57,4.5325,-7.1925
409,225623,0.541192,0.143716,-0.8422879999999999,-4.9,5.9675,-8.015
410,225720,0.542412,0.18324400000000002,-0.8317960999999999,-5.285,7.0175,-7.7
411,225817,0.548756,0.20008,-0.8271601000000001,-3.8675,7.0,-5.81
412,225914,0.546072,0.18178,-0.822524,-1.9425,6.37,-3.0275
413,226011,0.539484,0.174216,-0.815204,-0.245,5.7225,-0.5775
414,226108,0.543632,0.149084,-0.8291120999999999,1.33,5.39,1.3125
415,226205,0.537776,0.166164,-0.8342360000000001,2.065,4.7075,3.675
416,226302,0.54778,0.14518,-0.836676,2.94,4.8825,6.2475
417,226399,0.5577840000000001,0.14396,-0.8276481,3.1675,4.34,8.6625
418,226497,0.563884,0.144448,-0.8252079999999999,4.06,2.975,10.3075
419,226594,0.5636399999999999,0.15128,-0.8203280000000001,5.0225,1.0675,11.585
420,226691,0.5543680000000001,0.148108,-0.820572,5.7925,-0.6475,12.7925
421,226788,0.559248,0.13664,-0.8178880999999999,6.3875,-1.8375,12.88
422,226885,0.5655920999999999,0.12468399999999999,-0.8220360000000001,6.1075,-2.1175,12.2325
423,226982,0.562176,0.12566,-0.8203280000000001,5.8275,-2.5375,11.9525
424,227079,0.559004,0.118584,-0.814472,5.915,-3.5175,12.2325
425,227176,0.555588,0.12029200000000001,-0.8164239999999999,5.9325,-4.2525,12.5125
426,227273,0.570472,0.106628,-0.8188641,6.3,-4.725,12.4075
427,227370,0.548024,0.098576,-0.8164239999999999,5.4425,-4.865,12.3725
428,227467,0.5455840000000001,0.09589201,-0.8210601000000001,4.235,-4.1825,11.6375
429,227564,0.543876,0.10516400000000001,-0.82594,2.7475,-2.45,10.4125
430,227662,0.53314,0.111508,-0.8298440999999999,1.12,-0.5775,9.52
431,227759,0.53192,0.11028800000000001,-0.8315520000000001,-0.3325,1.2075,9.0475
432,227856,0.528748,0.102724,-0.8308200000000001,-1.6975,3.22,8.5225
433,227953,0.5170359999999999,0.101992,-0.8371639999999999,-2.9925,5.88,8.015
434,228050,0.5124001,0.10833599999999999,-0.8322841000000001,-5.6525,9.065,8.0325
435,228147,0.522892,0.139812,-0.835456,-12.4075,13.055,9.5725
436,228244,0.5119121,0.082472,-0.843508,-18.3925,17.92,12.355
437,228341,0.46726,0.171776,-0.9174399999999999,-22.295,25.34,13.09
438,228438,0.499468,0.062952,-0.8791321,-14.8225,38.08,13.09
439,228535,0.49605200000000005,0.112972,-0.906948,-14.945,50.8375,11.6025
440,228632,0.48873199999999994,0.0854,-0.9059721,-13.965,64.2425,10.185
441,228730,0.5124001,0.08759601,-0.8842561,-13.16,79.4675,8.19
442,228827,0.514108,0.085888,-0.871568,-13.09,97.335,5.635
443,228924,0.535092,0.047580000000000004,-0.8559521000000001,-14.9625,116.8825,1.96
444,229021,0.548024,0.072712,-0.8432639999999999,-17.9375,138.845,-2.345
445,229118,0.5917,0.092964,-0.954284,-21.1925,163.2925,-6.615
446,229215,0.5314321,0.19032000000000002,-0.8827921000000001,-19.74,182.49,-6.615
447,229312,0.475312,0.19983599999999999,-0.8935280999999999,-17.885,207.165,-0.1225
448,229409,0.345992,0.19397999999999999,-0.9179280000000001,-14.63,236.7925,8.47
449,229506,0.530212,0.249612,-0.9889319999999999,-4.9525,275.485,17.6925
450,229603,0.338428,0.454084,-0.9535521,2.59,311.29,22.61
451,229700,0.750788,0.388936,-1.0528600000000001,0.0175,353.3425,29.6275
452,229797,0.8430200999999999,0.540704,-1.36274,4.0425,404.6875,42.7525
453,229895,0.325496,0.535824,-1.099708,39.235,439.9325,88.46251
454,229992,2.4931919999999996,0.15396400000000002,-1.3066200000000001,97.545,502.7925,134.61
455,230089,1.9549279999999998,0.534604,-1.800232,62.9125,571.025,143.6575
456,230186,2.067656,0.484584,-2.352648,20.37,572.1275,161.6475
457,230283,2.381684,0.9913719999999999,-2.124264,12.5125,526.4174,182.945
458,230380,3.269844,1.205116,-1.9075919999999997,17.2375,481.3025,180.3025
459,230477,1.292956,0.950868,-2.674484,10.9375,496.02,130.9875
460,230574,-0.36478,0.42724399999999996,-2.213568,-4.8125,400.54,138.46
461,230671,3.954508,0.8845,-4.810704,-15.9075,288.61,129.0625
462,230768,2.070584,1.602592,-3.541172,-69.9475,62.3875,81.60251
463,230866,0.359412,1.422032,-2.4809919999999996,-49.315,-156.0125,44.8875
464,230963,-0.5380199999999999,0.8252079999999999,-1.264896,-10.4475,-212.8525,35.5425
465,231060,-0.726144,0.495076,-0.756888,-1.9425,-201.0575,43.0675
466,231157,-0.306708,0.47213999999999995,-0.7754321,-22.8025,-172.2875,41.475
467,231254,0.17738800000000002,0.644648,-1.009672,-53.2,-169.2075,23.8175
468,231351,0.40138,0.8176439999999999,-1.130452,-74.4625,-199.0275,-3.1675
469,231448,0.393572,0.873276,-1.067012,-76.72,-238.945,-30.625
470,231545,0.37990799999999997,0.8359440999999999,-0.9398880999999999,-64.4875,-270.1125,-53.2875
471,231642,0.396744,0.783728,-0.8679081,-46.48,-289.065,-71.05
472,231739,0.43676000000000004,0.696132,-0.8432639999999999,-27.3875,-299.985,-87.08
473,231836,0.5294800000000001,0.537776,-0.8520479999999999,-13.1075,-307.09,-103.7925
474,231933,0.642452,0.410896,-0.8708360999999999,-10.64,-314.965,-122.185
475,232031,0.731024,0.34404,-0.894748,-16.135,-324.45,-139.965
476,232128,0.8113001,0.30622,-0.934276,-22.0325,-332.3775,-153.02
477,232225,0.9528200000000001,0.247416,-1.0138200000000002,-24.465,-337.7675,-159.6175
478,232322,1.134356,0.146644,-1.1148360000000002,-27.195,-343.6825,-161.6475
479,232419,1.292956,0.000488,-1.178764,-34.9125,-353.1325,-161.315
480,232516,1.42496,-0.157868,-1.2219520000000001,-51.3275,-363.965,-158.8825
481,232613,1.5262200000000001,-0.20984,-1.254404,-74.48,-373.9225,-153.79
482,232710,1.689944,-0.09930800000000001,-1.342732,-96.0575,-380.9925,-145.215
483,232807,1.885144,0.134688,-1.42618,-104.545,-385.6825,-133.1225
484,232904,2.0581400000000003,0.330376,-1.447408,-96.2325,-389.69,-122.4125
485,233001,2.195512,0.41504399999999997,-1.4069040000000002,-79.8525,-392.0175,-120.0675
486,233099,2.286036,0.42114399999999996,-1.284416,-65.8875,-389.725,-128.87
487,233196,2.374364,0.215696,-1.080676,-58.555,-379.2075,-146.3
488,233293,2.546872,-0.07344400000000001,-0.8964561,-64.41751,-358.3125,-170.6775
489,233390,2.88652,-0.050508,-0.715164,-84.00001,-333.6725,-188.7725
490,233487,3.148576,-0.058803999999999995,-0.386984,-84.9625,-308.6475,-186.3575
491,233584,3.194204,-0.33818400000000004,0.126148,-67.06,-280.175,-166.215
492,233681,3.174684,-0.585112,0.643184,-53.2,-244.09,-142.9225
493,233778,3.0573200000000003,-0.570472,1.0309,-48.7725,-200.515,-123.4975
494,233875,2.8243,-0.590968,1.312964,-34.125,-148.8375,-108.955
495,233972,3.134668,-1.0382200000000001,1.556964,-9.1525,-88.5675,-98.89251
496,234069,3.4696800000000003,-1.296616,1.7890080000000002,-6.79,-38.3075,-84.98
497,234167,3.190544,-1.084336,1.7870560000000002,-19.355,0.77,-54.0225
498,234264,2.822348,-0.8464360000000001,1.559404,-8.2775,47.5825,-3.745
499,234361,2.710108,-0.646844,1.136796,14.5775,97.405,48.6325
500,234458,1.469368,0.00976,0.377224,20.2825,131.6,86.7825
501,234555,-1.659444,1.9959200000000001,-2.3302,100.7825,191.3275,137.515
502,234652,-2.793068,1.295152,-1.9007599999999998,197.015,248.9375,162.2425
503,234749,0.653676,-0.8615640999999999,1.042856,164.6575,340.2525,123.935
504,234846,4.106764,-0.64294,-1.7263,126.6125,429.3975,31.045
505,234943,4.422988,-1.4569239999999999,-2.935564,84.63,361.165,-21.28
506,235040,2.4085240000000003,-1.7143439999999999,-1.723128,76.65,220.2375,15.715
507,235137,2.06058,1.491084,-2.2140560000000002,30.2575,127.155,56.8225
508,235234,0.503128,1.605764,-0.6007279999999999,95.4275,59.85,59.8325
509,235331,0.749324,-0.33623200000000003,-1.00284,126.7,61.4775,28.56
510,235428,1.738256,-1.1148360000000002,-1.091412,120.085,54.5475,38.5175
511,235526,0.57096,0.6832,-0.8010520000000001,43.68,-14.7875,40.7225
512,235623,0.7285841,-0.11053199999999999,-0.9528200000000001,43.645,-4.8475,21.805
513,235720,0.559248,0.048068,-0.876692,30.975,-7.91,22.295
514,235817,0.60268,0.12444000000000001,-0.8405800999999999,17.3425,-5.04,18.0075
515,235914,0.537776,0.12078,-0.850584,16.275,-2.1525,13.055
516,236011,0.5873079999999999,0.101504,-0.855708,12.845,-1.7675,11.62
517,236108,0.49849209999999994,0.08759601,-0.8703481,9.94,-1.1375,9.345
518,236205,0.527772,0.11345999999999999,-0.8554641,6.6675,1.8025,7.07
519,236302,0.54656,0.162992,-0.845216,4.375,4.34,5.8625
520,236399,0.540948,0.187392,-0.8400921,4.6725,5.1625,6.3175
521,236496,0.550952,0.102968,-0.826672,6.0725,5.1275,6.4925
522,236593,0.515084,0.151524,-0.845216,5.3025,5.74,5.04
523,236690,0.5307,0.208864,-0.8430200999999999,4.6025,6.1775,7.245
524,236788,0.556808,0.196664,-0.82594,6.51,5.4775,12.7925
525,236885,0.5673,0.149328,-0.8271601000000001,8.995,3.36,16.73
526,236982,0.558028,0.1159,-0.8332601000000001,9.9575,0.4725,17.815
527,237079,0.5551,0.07881200000000001,-0.828868,9.87,-0.875,16.7125
528,237176,0.5577840000000001,0.083204,-0.8327720999999999,8.4875,-1.0325,14.0175
529,237273,0.5514399999999999,0.090768,-0.8327720999999999,7.14,-0.7175,11.585
530,237370,0.5516840000000001,0.08637601,-0.8235001000000001,6.09,-0.35,9.7125
531,237467,0.55266,0.09516001,-0.8235001000000001,4.9525,0.385,8.33
532,237564,0.544852,0.10223600000000001,-0.8244761,3.85,1.4,8.015
533,237661,0.5516840000000001,0.10052799999999999,-0.822524,3.15,2.6425,8.2075
534,237758,0.562908,0.09345201,-0.815692,2.485,3.255,8.5575
535,237855,0.5636399999999999,0.08759601,-0.8095920999999999,1.3825,3.3075,8.925
536,237953,0.565104,0.106628,-0.812032,-1.2075,3.465,9.5725
537,238050,0.544608,0.118828,-0.8332601000000001,-3.4825,3.85,11.1475
538,238147,0.534116,0.092964,-0.8447280999999999,-2.6425,5.4775,13.4225
539,238244,0.537776,0.084912,-0.8359440999999999,-1.365,8.6275,13.9475
540,238341,0.52704,0.08784,-0.8447280999999999,-2.2575,11.8475,12.88
541,238438,0.5221600000000001,0.077592,-0.8439959999999999,-2.87,15.4875,12.285
542,238535,0.5185,0.07222401,-0.85156,-3.325,20.125,11.165
543,238632,0.5119121,0.07076001,-0.8520479999999999,-3.8325,25.97,9.2575
544,238729,0.517524,0.07612801,-0.8527800999999999,-5.0575,33.005,7.385
545,238826,0.5233800000000001,0.08003201,-0.8491200000000001,-6.9125,40.705,6.02
546,238923,0.5353359999999999,0.09028,-0.8544879999999999,-8.47,49.2975,5.285
547,239020,0.542412,0.079056,-0.8276481,-9.1175,58.52,5.11
548,239118,0.5380199999999999,0.09394001,-0.86498,-10.43,69.4225,5.0575
549,239215,0.5458281,0.09247601,-0.861808,-11.2875,83.37001,5.11
550,239312,0.5443640000000001,0.071492,-0.8432639999999999,-13.16,99.8725,4.8475
551,239409,0.5577840000000001,0.050996,-0.87718,-14.105,117.425,3.7625
552,239506,0.5546121,0.020984,-0.8396040000000001,-14.1925,136.9375,1.0675
553,239603,0.5814520000000001,0.057828,-0.9398880999999999,-16.5375,157.255,-4.83
554,239700,0.487512,0.08174001,-0.8376520000000001,-13.755,174.6325,-8.365
555,239797,0.490928,0.12322000000000001,-0.8522921,-15.505,199.92,-8.8025
556,239894,0.36209600000000003,0.128832,-0.9274440999999999,-15.9775,227.5,-5.145
557,239991,0.5355800999999999,0.147376,-0.9269561,-13.405,263.0425,-0.5075
558,240088,0.370636,0.33794,-0.85888,-19.5125,299.8975,-4.0075
559,240185,0.731024,0.355996,-1.0230920000000001,-33.985,348.215,-2.8525
560,240283,0.783728,0.604876,-1.475956,-27.58,400.9775,13.685
561,240380,0.9630681000000001,0.49898000000000003,-0.917684,23.8525,436.6775,70.77
562,240477,2.156472,0.34281999999999996,-1.604544,77.4375,513.4325,115.3425
563,240574,2.124752,0.396988,-1.931016,41.7725,572.3025,130.06
564,240671,1.992016,0.6919841,-2.674484,-11.865,564.06,150.3425
565,240768,2.679608,1.380552,-2.175016,-4.97,494.8825,181.7725
566,240865,2.3553319999999998,1.236104,-2.208444,-9.94,474.25,144.585
567,240962,1.181692,0.998692,-2.370704,-10.4825,467.3725,131.3025
568,241059,0.708088,-0.008540001,-0.9054840000000001,-20.5625,345.1,145.2325
569,241156,4.26512,1.480592,-4.98614,-60.0775,269.3775,130.9875
570,241253,1.2641639999999998,1.731668,-2.905796,-81.865,7.7175,86.17
571,241350,0.158844,1.425936,-2.055456,-36.645,-119.84,66.43
572,241448,-0.47384799999999994,0.837408,-1.1873040000000001,10.7975,-162.26,71.61
573,241545,-0.47482399999999997,0.495076,-0.828624,18.165,-152.39,82.985
574,241642,-0.049532,0.4636,-0.931348,-14.28,-145.285,73.3775
575,241739,0.205936,0.656116,-1.04188,-59.9025,-165.7425,45.08
576,241836,0.22423600000000002,0.8527800999999999,-1.040416,-88.5675,-203.105,12.39
577,241933,0.17763199999999998,0.9589200999999999,-0.9738041,-87.95501,-235.305,-13.685
578,242030,0.15420799999999998,0.985516,-0.921344,-62.7025,-253.3825,-32.69
579,242127,0.216428,0.745908,-0.8791321,-26.075,-260.7675,-49.245
580,242224,0.33916,0.43188000000000004,-0.873764,-5.775,-267.6275,-69.7725
581,242321,0.42431599999999997,0.232776,-0.87718,-13.335,-278.8625,-96.3375
582,242418,0.5038600000000001,0.18104800000000001,-0.9152440000000001,-34.4575,-291.2175,-122.2725
583,242515,0.6273241,0.1586,-0.9655081,-50.6975,-301.7,-139.86
584,242612,0.792024,0.094916,-1.004792,-56.98,-311.29,-147.0525
585,242709,0.9437921,-0.031964,-1.0406600000000001,-59.2375,-321.9125,-145.915
586,242806,1.077992,-0.205692,-1.0767719999999998,-66.3425,-333.165,-139.9825
587,242904,1.19072,-0.34038,-1.1209360000000002,-83.93001,-344.225,-133.21
588,243001,1.330288,-0.393328,-1.168028,-108.3775,-353.92,-125.755
589,243098,1.456436,-0.294996,-1.230492,-130.48,-362.915,-115.605
590,243195,1.580144,-0.123464,-1.309304,-140.0,-370.0725,-102.13
591,243292,1.6562720000000002,0.03416,-1.350052,-135.4325,-375.06,-90.07251
592,243389,1.719712,0.133224,-1.408124,-124.81,-377.51,-86.485
593,243486,1.863916,0.180316,-1.435452,-116.2875,-376.2325,-93.6425
594,243583,2.032276,0.2745,-1.41886,-114.345,-373.52,-109.0075
595,243680,2.223816,0.33013200000000004,-1.3827479999999999,-111.405,-367.43,-127.995
596,243777,2.455616,0.267912,-1.265384,-104.9825,-356.5275,-147.665
597,243874,2.605432,-0.08759601,-1.0230920000000001,-99.64499,-340.34,-167.3175
598,243971,2.850652,-0.22204000000000002,-0.7788480999999999,-105.9625,-318.955,-182.63
599,244069,3.15004,-0.27694,-0.45432799999999995,-107.03,-294.245,-180.6525
600,244166,3.2859480000000003,-0.437492,0.002928,-90.335,-266.9625,-164.0625
601,244263,3.220068,-0.51484,0.5172800999999999,-64.365,-234.57,-146.6325
602,244360,3.003396,-0.538996,1.00894,-29.05,-193.655,-136.5
603,244457,3.083184,-1.003572,1.486692,19.0225,-139.37,-132.335
604,244554,3.545564,-1.738012,2.01666,49.9975,-80.78,-123.445
605,244651,3.4404,-1.8831919999999998,2.241384,36.015,-30.6075,-97.1775
606,244748,2.999492,-1.573312,2.008608,22.61,27.8075,-45.1675
607,244845,2.826984,-1.204628,1.360056,38.7275,93.7475,22.5575
608,244942,2.828448,-0.9372040999999999,0.711016,61.7575,142.6075,79.5375
609,245039,-0.245464,0.9203680000000001,-2.546384,75.145,171.2725,128.8175
610,245136,-1.838052,1.64578,-3.3171800000000005,170.73,216.0025,188.3875
611,245234,-0.9049959999999999,0.9633120999999999,-0.28767600000000004,129.9025,252.6125,205.0475
612,245331,2.027884,-1.307596,1.1148360000000002,149.4325,340.8475,151.76
613,245428,3.18542,0.126392,-2.24114,86.8,383.9675,41.6325
614,245525,3.069032,-0.73688,-2.231624,87.64,305.4275,-7.6825
615,245622,1.56282,-0.72468,-1.118496,87.43,207.0775,19.8975
616,245719,2.989244,1.219268,-1.7460639999999998,87.2375,153.195,44.8
617,245816,1.0262639999999998,-0.426756,-0.9296399999999999,153.4575,56.98,59.675
618,245913,1.495232,-1.167296,-1.442772,106.0675,15.2425,37.8525
619,246010,0.6344,0.515328,-0.569984,33.5825,-19.425,32.8825
620,246107,0.654896,0.03416,-0.8322841000000001,25.095,-16.7125,18.48
621,246204,0.6170760000000001,-0.000732,-0.8725440999999999,24.8325,-12.0225,13.0375
622,246301,0.6197600000000001,0.02928,-0.853024,11.445,-7.315,6.615
623,246398,0.549732,0.07198,-0.8464360000000001,5.3725,-3.43,-2.52
624,246495,0.52704,0.163724,-0.8461921,0.525,-2.1875,-4.34
625,246592,0.515572,0.10540799999999999,-0.8540000000000001,1.295,-0.6475,-3.115
626,246690,0.5404601,0.10931199999999999,-0.8422879999999999,0.07,1.0675,-2.4325
627,246787,0.5441199999999999,0.131272,-0.8437520000000001,-1.54,2.52,-3.2725
628,246884,0.541924,0.15054800000000002,-0.839116,-2.485,3.9025,-4.0075
629,246981,0.548756,0.16811600000000002,-0.8344801,-2.5725,4.69,-3.7975
630,247078,0.56852,0.171776,-0.81984,-1.6625,4.55,-2.66
631,247175,0.5631520000000001,0.17519200000000001,-0.8166680000000001,-0.28,3.395,-0.8575
632,247272,0.5514399999999999,0.140544,-0.8188641,1.6275,1.82,1.12
633,247369,0.543632,0.125904,-0.8274040000000001,2.625,1.1375,2.4675
634,247466,0.534604,0.128344,-0.8369200000000001,2.5725,0.805,3.29
635,247563,0.531676,0.12395199999999999,-0.8344801,2.6775,1.33,4.27
636,247660,0.532896,0.132248,-0.8335040000000001,2.59,1.855,4.9525
637,247757,0.542656,0.12444000000000001,-0.8296,2.66,2.38,5.6875
638,247854,0.553636,0.131028,-0.822768,2.4675,2.45,5.705
639,247951,0.5543680000000001,0.125416,-0.8193521,2.8,1.9775,5.1625
640,248049,0.558516,0.12395199999999999,-0.820816,3.115,1.19,5.4075
641,248146,0.5546121,0.122732,-0.812276,3.255,0.49,6.09
642,248243,0.5499761,0.09930800000000001,-0.81618,2.87,0.595,5.95
643,248340,0.556076,0.091744,-0.815692,1.54,1.82,4.6375
644,248437,0.5489999999999999,0.09711201,-0.814472,-0.0175,2.625,3.6575
645,248534,0.549244,0.100772,-0.8169121,-1.19,3.6925,3.36
646,248631,0.543388,0.116632,-0.8195960999999999,-2.3975,4.8825,2.9225
647,248728,0.5443640000000001,0.125904,-0.8235001000000001,-2.8525,5.775,2.8875
648,248825,0.5363121,0.12444000000000001,-0.8261841000000001,-3.7975,6.8425,2.9925
649,248922,0.5246,0.121268,-0.8332601000000001,-4.7425,8.3825,3.3425
650,249019,0.526552,0.12029200000000001,-0.8327720999999999,-6.23,10.6575,3.6225
651,249116,0.544608,0.118584,-0.8271601000000001,-8.12,13.335,4.6375
652,249214,0.552904,0.115656,-0.81984,-12.25,16.205,6.475
653,249311,0.537532,0.11248399999999999,-0.8327720999999999,-18.3575,19.5475,9.0475
654,249408,0.518256,0.11345999999999999,-0.856196,-22.19,24.5875,10.5525
655,249505,0.495076,0.14078800000000002,-0.8862081,-20.965,33.565,11.55
656,249602,0.511424,0.11224,-0.859368,-15.2075,45.605,11.69
657,249699,0.517524,0.082228,-0.8720559999999999,-17.0275,57.855,10.01
658,249796,0.5160600000000001,0.09711201,-0.913048,-16.5375,73.5,7.4025
659,249893,0.520452,0.10394400000000001,-0.883524,-17.4125,91.945,4.6725
660,249990,0.5382640000000001,0.064416,-0.8413120000000001,-18.9525,112.945,2.9575
661,250087,0.5587601,0.022936,-0.8437520000000001,-21.5775,136.3075,0.175
662,250184,0.552416,0.061732,-0.917684,-25.235,161.0175,-4.865
663,250281,0.50142,0.139324,-0.863028,-23.9575,181.6325,-7.805
664,250378,0.47360399999999997,0.17128800000000002,-0.8888921000000001,-21.5775,206.955,-5.4075
665,250475,0.3538,0.148108,-0.8862081,-18.3925,235.62,-1.225
666,250573,0.486292,0.256932,-0.9679481,-10.885,271.495,4.97
667,250670,0.478972,0.410408,-0.9713639999999999,-4.4625,306.67,10.8675
668,250767,0.708576,0.49288000000000004,-1.1155680000000001,-7.5075,346.8325,17.2375
669,250864,0.7956840999999999,0.5892601,-1.2761200000000001,12.32,394.45,33.1975
670,250961,0.557052,0.640256,-1.317844,54.39,435.6625,79.4675
671,251058,2.48148,0.21838000000000002,-0.791536,101.885,480.6025,123.3575
672,251155,2.114748,0.5843801,-1.7345959999999998,96.5475,563.045,137.4275
673,251252,2.0093400000000003,0.47336000000000006,-2.2372360000000002,37.3625,572.6525,153.3
674,251349,2.151836,0.744444,-1.936384,15.26,537.39,171.675
675,251446,3.049268,1.121912,-1.8304880000000001,7.595,493.3775,171.29
676,251543,1.4276440000000001,0.6724640000000001,-2.582008,-5.565,509.005,116.13
677,251640,0.294508,0.359168,-2.260416,-45.29,435.9425,115.92
678,251737,3.152724,0.472872,-3.3713480000000002,-96.95,300.58,113.8025
679,251834,2.961184,1.880996,-4.158736,-146.8075,112.9275,92.0325
680,251932,0.739564,1.6592,-2.798924,-97.28251,-147.9275,70.945
681,252029,-0.32696,1.035048,-1.527196,-23.9575,-222.635,70.8575
682,252126,-0.6844201,0.46433199999999997,-0.8762040000000001,5.9325,-227.29,82.285
683,252223,-0.48873199999999994,0.296216,-0.66368,-12.04,-199.6575,82.46
684,252320,-0.0305,0.38308000000000003,-0.8554641,-57.1025,-184.8875,62.4925
685,252417,0.30109600000000003,0.612684,-1.0443200000000001,-101.045,-200.4275,29.645
686,252514,0.38552,0.8510719999999999,-1.134356,-122.0625,-235.4975,-6.5275
687,252611,0.33061999999999997,0.9589200999999999,-1.069208,-110.1975,-268.9925,-37.73
688,252708,0.28987199999999996,0.968192,-1.000644,-73.16751,-287.805,-61.7575
689,252806,0.31964000000000004,0.681736,-0.9247601000000001,-26.8975,-293.545,-81.53251
690,252902,0.47506800000000005,0.35477600000000004,-0.9235399999999999,-1.89,-296.835,-103.4775
691,252999,0.603168,0.167628,-0.94306,-6.65,-305.41,-129.1325
692,253096,0.7044279999999999,0.10736,-0.9596520000000001,-24.395,-317.7125,-150.7975
693,253194,0.812276,0.07564,-0.9796600000000001,-36.925,-328.23,-161.455
694,253291,0.9484280999999999,-0.03172,-1.002108,-41.0025,-335.405,-160.5625
695,253388,1.097024,-0.21472,-1.057496,-46.48,-341.495,-153.5275
696,253485,1.2580639999999998,-0.35672800000000005,-1.1209360000000002,-63.63,-348.7225,-145.6175
697,253582,1.423008,-0.358192,-1.204628,-90.79,-358.19,-138.145
698,253679,1.562576,-0.189344,-1.277096,-115.85,-369.32,-129.4475
699,253776,1.6967759999999998,0.0854,-1.330288,-125.265,-379.89,-118.2825
700,253873,1.789252,0.303048,-1.3510280000000001,-114.3975,-386.9425,-107.6425
701,253970,1.8788,0.387472,-1.355664,-94.44751,-388.8675,-103.845
702,254067,2.0281279999999997,0.400648,-1.343464,-80.045,-386.785,-110.9675
703,254164,2.225768,0.45115600000000006,-1.292468,-77.455,-381.64,-127.9775
704,254261,2.4612279999999997,0.477996,-1.1855959999999999,-79.1,-372.33,-149.3625
705,254358,2.7069360000000002,0.41284799999999994,-0.983564,-79.38,-357.875,-170.0825
706,254455,2.876272,0.189832,-0.676124,-80.5525,-337.4175,-186.725
707,254552,3.009008,-0.13176,-0.319884,-86.94,-308.6475,-197.61
708,254649,3.128812,-0.406016,0.089792,-98.1575,-273.4375,-199.2375
709,254746,3.173952,-0.5267960999999999,0.44383599999999995,-102.4975,-233.065,-190.295
710,254844,3.081476,-0.422364,0.719312,-86.0825,-189.35,-175.945
711,254941,3.03048,-0.545096,1.041148,-32.0075,-140.1575,-160.2125
712,255038,3.566304,-1.242936,1.529636,34.6675,-89.4775,-143.9725
713,255135,3.8046919999999997,-1.788032,2.1130400000000003,58.1875,-51.9575,-120.015
714,255232,3.113196,-1.71166,2.23382,40.215,-13.86,-70.21
715,255329,2.622268,-1.41032,1.8888040000000001,32.41,48.86,2.695
716,255426,2.6110439999999997,-0.984296,1.109956,38.2025,115.85,72.45
717,255523,-0.06832001,0.61122,-1.706292,47.4075,161.1575,127.3125
718,255620,-1.523536,0.9476959999999999,-2.183068,154.5075,226.5375,183.5575
719,255717,-1.3444399999999999,1.1087360000000002,-0.9623360999999999,114.3975,272.1075,202.405
720,255814,2.4209680000000002,-1.222684,1.0182120000000001,124.495,358.0325,169.6275
721,255911,3.7685800000000005,-0.003904,-2.4090119999999997,102.8125,396.305,91.805
722,256008,3.220556,-0.4819,-2.3311759999999997,89.985,299.355,38.8675
723,256105,1.467904,-0.460916,-1.1265479999999999,88.0075,195.405,41.5625
724,256203,1.936384,1.6670080000000003,-2.892864,65.835,155.19,44.205
725,256300,1.8241439999999998,-0.188856,-1.0553,151.4275,95.7775,53.48
726,256397,1.185352,-1.225368,-1.072136,122.29,23.905,41.44
727,256494,0.8420440999999999,0.018544,-0.501908,53.375,-5.2675,33.25
728,256591,0.7044279999999999,0.31964000000000004,-0.87474,16.8875,-20.965,18.9875
729,256688,0.5751081,-0.108824,-0.904752,26.9675,-8.96,8.0325
730,256785,0.587064,0.072712,-0.8662001,9.205,-5.7925,4.375
731,256882,0.544852,0.077592,-0.865956,3.22,-0.77,-5.145
732,256979,0.543876,0.18178,-0.854244,-0.77,0.8225,-5.285
733,257076,0.5577840000000001,0.07417601,-0.843508,0.175,1.9425,-3.605
734,257173,0.545096,0.087352,-0.8471681000000001,-2.0475,2.8,-4.2525
735,257270,0.50874,0.118828,-0.859856,-4.62,4.3925,-6.3175
736,257368,0.5397281,0.132736,-0.83814,-5.6875,6.8425,-7.385
737,257465,0.549732,0.182268,-0.8310639999999999,-6.1075,8.0325,-7.245
738,257562,0.552904,0.1952,-0.822524,-4.3925,7.7525,-5.46
739,257659,0.558272,0.17763199999999998,-0.820572,-1.82,6.7725,-3.4125
740,257756,0.546072,0.17397200000000002,-0.8254520000000001,-0.3325,5.635,-1.26
741,257853,0.535092,0.154452,-0.832528,1.015,5.11,1.19
742,257950,0.531676,0.146644,-0.8327720999999999,1.715,4.8825,3.8675
743,258047,0.544852,0.138836,-0.8344801,1.5925,5.425,5.4425
744,258144,0.547292,0.11834000000000001,-0.829356,1.575,5.5125,5.7925
745,258241,0.552904,0.11541199999999999,-0.8249639999999999,1.575,5.11,4.83
746,258338,0.5516840000000001,0.12175599999999999,-0.8244761,1.5925,4.445,4.095
747,258435,0.554124,0.134688,-0.8193521,2.0475,3.5,4.2
748,258532,0.5631520000000001,0.143716,-0.813496,2.905,2.2225,5.355
749,258629,0.559248,0.150304,-0.8188641,4.27,0.28,7.175
750,258727,0.577304,0.13151600000000002,-0.805932,5.7925,-1.6625,9.2575
751,258824,0.562176,0.128344,-0.807396,6.125,-3.605,10.9025
752,258921,0.5565640000000001,0.099552,-0.811056,5.8625,-4.165,11.655
753,259018,0.558272,0.08759601,-0.815448,4.8475,-3.2725,11.0425
754,259115,0.543632,0.09735601,-0.8230120999999999,2.8175,-1.925,9.9925
755,259212,0.549244,0.10004,-0.820084,1.505,-0.3675,8.96
756,259309,0.541192,0.100772,-0.826428,0.07,1.225,7.84
757,259406,0.537044,0.112728,-0.8296,-1.0675,2.625,6.8775
758,259503,0.545096,0.09882,-0.8276481,-2.03,4.27,6.4225
759,259600,0.539972,0.109556,-0.8276481,-4.3925,6.23,6.4925
760,259697,0.543876,0.110776,-0.8261841000000001,-7.945,8.5925,7.0
761,259794,0.551928,0.121512,-0.8239880999999999,-12.4075,11.2175,8.2775
762,259891,0.538996,0.10687200000000001,-0.844484,-15.925,14.56,10.29
763,259989,0.47823999999999994,0.191052,-0.9049959999999999,-17.64,19.88,11.9175
764,260086,0.513864,0.074664,-0.860344,-11.27,29.6275,13.65
765,260183,0.5043479999999999,0.09540401,-0.8957241,-12.6175,39.235,12.53
766,260280,0.48312,0.094672,-0.9103641,-11.865,50.61,10.15
767,260377,0.489708,0.07076001,-0.91622,-10.9025,65.24,6.9125
768,260474,0.509472,0.081252,-0.8976761000000001,-12.215,81.95251,3.7975
769,260571,0.526552,0.05636401,-0.8805960999999999,-14.2975,100.695,0.8400001
770,260668,0.5380199999999999,0.024888,-0.8283799999999999,-17.7625,121.0475,-3.325
771,260765,0.553392,0.037332,-0.8581479999999999,-22.8025,144.55,-8.225
772,260862,0.59048,0.127368,-0.9642879999999999,-27.4225,169.295,-12.4075
773,260959,0.51118,0.182024,-0.8845,-25.515,190.6275,-9.7125
774,261056,0.465308,0.158112,-0.898164,-25.3925,219.38,-3.57
775,261153,0.345748,0.263764,-0.889868,-20.9125,253.645,2.66
776,261251,0.528748,0.363072,-1.066768,-10.675,297.15,12.11
777,261348,0.642452,0.403332,-1.027728,-9.555,332.395,19.1275
778,261445,0.7983680000000001,0.447984,-1.206824,-10.7275,386.75,25.305
779,261542,0.64294,0.633668,-1.387628,24.5875,433.6675,54.2675
780,261639,1.624064,0.43724799999999997,-0.9803921,68.0225,470.3125,104.51
781,261736,2.098156,0.54778,-1.9663959999999998,98.315,546.98,132.615
782,261833,1.962736,0.628788,-2.347768,58.6775,573.2125,144.865
783,261930,2.132804,0.612928,-2.0417919999999996,29.155,544.775,163.4325
784,262027,2.775744,1.204628,-1.8409799999999998,31.115,490.1225,179.41
785,262124,1.72996,0.9362280000000001,-2.478308,13.8425,499.9225,120.8025
786,262221,0.6541640000000001,0.844972,-2.351916,-5.285,446.6875,120.1375
787,262319,1.9720080000000002,0.267912,-1.8417119999999998,-14.4725,319.0775,120.89
788,262416,3.578992,1.6296760000000001,-4.6521040000000005,-58.17,196.5425,94.65751
789,262513,0.796172,1.43106,-2.829424,-45.3425,-80.0975,59.745
790,262610,-0.186904,0.8988959999999999,-1.694336,-6.2125,-169.365,48.6325
791,262707,-0.6612401,0.408456,-0.9720960999999999,11.1125,-190.6275,58.275
792,262804,-0.42895200000000006,0.302316,-0.781532,-6.58,-168.91,67.3225
793,262901,0.06880801,0.45115600000000006,-0.966728,-42.5425,-161.5775,58.065
794,262998,0.315492,0.707356,-1.104588,-72.7475,-186.69,33.95
795,263095,0.32208000000000003,0.8281360999999999,-1.072868,-80.745,-225.9075,5.6525
796,263192,0.268644,0.84424,-0.983564,-67.865,-258.3875,-19.285
797,263289,0.264984,0.8371639999999999,-0.9054840000000001,-43.5925,-276.43,-40.46
798,263386,0.361852,0.696376,-0.8796200000000001,-14.8225,-285.3025,-60.655
799,263484,0.471896,0.486292,-0.8786440999999999,4.8125,-294.0175,-83.30001
800,263581,0.587064,0.306708,-0.876692,6.825,-305.025,-108.3425
801,263678,0.682712,0.209108,-0.8664440000000001,-2.485,-317.275,-130.6725
802,263775,0.785192,0.1342,-0.859856,-12.88,-327.6525,-144.1825
803,263872,0.9232961,0.046848,-0.873764,-21.665,-335.125,-147.175
804,263969,1.081652,-0.037088,-0.941108,-32.13,-341.3025,-143.22
805,264066,1.2719719999999999,-0.10614000000000001,-1.0187,-47.1275,-348.425,-136.5175
806,264163,1.4630239999999999,-0.08344800000000001,-1.094096,-66.325,-358.6625,-128.6075
807,264260,1.612108,0.046360000000000005,-1.147044,-82.9675,-371.2975,-118.86
808,264357,1.7082439999999999,0.20837600000000003,-1.166808,-88.8125,-382.655,-107.5025
809,264454,1.782664,0.30866,-1.17486,-84.875,-388.8675,-99.03251
810,264551,1.896612,0.34257600000000005,-1.194624,-80.4825,-389.3575,-98.75251
811,264649,2.063752,0.41455600000000004,-1.217316,-82.11,-386.225,-107.9925
812,264746,2.24968,0.533628,-1.2139,-85.78501,-381.325,-124.5125
813,264843,2.412428,0.5980439999999999,-1.13704,-82.0575,-372.435,-144.2875
814,264940,2.596892,0.573156,-0.9725841000000001,-71.155,-357.5075,-163.66
815,265037,2.752564,0.44383599999999995,-0.7141881,-57.75,-336.9975,-179.165
816,265134,2.889936,0.253272,-0.420412,-49.245,-312.13,-189.0525
817,265231,2.847968,-0.209352,-0.02196,-47.3725,-282.1875,-193.3925
818,265328,2.754028,-0.524356,0.343064,-60.165,-243.145,-197.8025
819,265425,2.805024,-0.368684,0.535092,-78.62751,-198.4325,-198.24
820,265522,2.7459759999999998,-0.11345999999999999,0.68198,-59.0625,-151.4625,-188.1775
821,265619,3.07318,-0.5058121,0.9801479999999999,4.935,-103.355,-173.355
822,265716,3.6295,-1.248548,1.580144,57.225,-65.9925,-156.5025
823,265813,3.296196,-1.562332,2.083028,50.4525,-41.5975,-125.2475
824,265910,2.5756639999999997,-1.451068,2.09718,21.9275,2.87,-66.2375
825,266008,2.317512,-0.987956,1.534516,4.5325,69.80751,4.095
826,266105,2.430972,-0.47555600000000003,0.7671359999999999,3.4825,126.63,64.05
827,266202,-0.189832,1.3359,-1.714832,10.92,153.4575,107.5375
828,266299,-1.520608,1.131916,-1.5708719999999998,145.88,218.2775,146.2475
829,266396,-1.6670080000000003,0.585356,-0.666852,136.9375,267.3125,147.1575
830,266493,1.4335,-0.6480640000000001,0.9335440999999999,96.65250999999999,358.715,95.7075
831,266590,3.214944,-0.01708,-1.696532,82.04,428.1725,22.8025
832,266687,3.657804,-0.755424,-2.573956,83.125,373.3275,-3.2725
833,266784,4.284396,0.50142,-3.9889120000000005,105.5075,252.3325,30.9575
834,266881,2.2662720000000003,-0.4023561,-1.0260200000000002,174.8075,98.91001,81.4275
835,266978,0.275476,0.022448,-0.945744,85.62751,1.7325,59.465
836,267075,0.635864,-0.16958,-0.9889319999999999,79.0825,14.945,37.2575
837,267172,1.242936,-0.391864,-0.8076399999999999,57.3125,0.455,29.9775
838,267270,0.6265921,0.29646,-0.8571719999999999,21.9275,-15.5575,18.725
839,267367,0.5355800999999999,0.183,-0.8642481,19.3025,-9.87,11.55
840,267464,0.5926760999999999,0.156404,-0.8664440000000001,16.9575,-6.755,14.245
841,267561,0.531188,0.0976,-0.8532681000000001,11.445,-5.1625,14.7
842,267658,0.561688,0.15616,-0.8322841000000001,7.42,-2.03,12.7575
843,267755,0.5724239999999999,0.104432,-0.833992,6.895,-1.3475,11.3225
844,267852,0.5292359999999999,0.127856,-0.8610761,5.845,-1.645,9.275
845,267949,0.5429,0.10614000000000001,-0.8483879999999999,5.1625,-0.5775,8.295
846,268046,0.537532,0.14005599999999999,-0.850096,4.095,1.2425,7.84
847,268143,0.540704,0.148108,-0.8479,4.2175,2.275,8.575
848,268240,0.5429,0.147376,-0.8430200999999999,5.32,2.8175,9.415
849,268337,0.55388,0.118828,-0.8405800999999999,6.23,2.66,10.675
850,268434,0.557296,0.11614400000000001,-0.8388721,6.72,2.31,11.41
851,268531,0.5697399999999999,0.129076,-0.85888,6.86,0.9975,12.0575
852,268629,0.5697399999999999,0.10223600000000001,-0.8315520000000001,7.77,-0.56,13.895
853,268726,0.5612,0.084912,-0.8256960999999999,7.595,-1.785,14.0875
854,268823,0.553392,0.081496,-0.831308,7.1225,-2.6075,12.7225
855,268920,0.548756,0.061,-0.833016,6.65,-2.45,10.8325
856,269017,0.548024,0.06466001,-0.8317960999999999,5.5825,-1.6275,8.295
857,269114,0.549488,0.084912,-0.8308200000000001,4.375,-0.7,6.1425
858,269211,0.5502199999999999,0.08466801,-0.8271601000000001,4.025,0.0875,5.0225
859,269308,0.5543680000000001,0.082472,-0.821792,3.9025,0.63,4.34
860,269405,0.5543680000000001,0.085888,-0.8220360000000001,3.92,0.8225,4.095
861,269502,0.557296,0.08759601,-0.822768,3.9025,0.665,4.48
862,269599,0.5553441,0.083204,-0.824232,3.8675,0.0525,5.4075
863,269696,0.554856,0.07246799999999999,-0.8220360000000001,3.605,-0.4025,6.02
864,269793,0.548756,0.0671,-0.8222799999999999,2.8175,-0.7175,5.74
865,269890,0.545096,0.05172801,-0.821792,1.2425,-0.525,5.3725
866,269987,0.5453399999999999,0.056852,-0.8256960999999999,-1.4525,0.6125,4.55
867,270084,0.5392399999999999,0.07344400000000001,-0.8344801,-3.9725,2.065,4.305
868,270182,0.5382640000000001,0.06344,-0.8210601000000001,-6.1075,3.5525,4.1125
869,270279,0.5397281,0.060024,-0.8296,-7.91,5.18,3.4125
870,270376,0.5292359999999999,0.07222401,-0.840824,-8.575,7.035,2.03
871,270473,0.517768,0.08174001,-0.85034,-7.91,9.45,0.385
872,270570,0.5063,0.091744,-0.862784,-7.1575,13.195,-0.49
873,270667,0.50752,0.080764,-0.8608319999999999,-6.93,18.445,-0.4725
874,270764,0.492392,0.08296,-0.8808401,-8.1375,25.235,-0.3325
875,270861,0.49556400000000006,0.075396,-0.8937719999999999,-9.52,34.1425,-0.1225
876,270958,0.49044,0.07173600000000001,-0.898164,-10.5525,44.9575,-0.1925
877,271055,0.49776000000000004,0.069052,-0.9018241,-11.3225,57.715,-0.49
878,271152,0.513864,0.055388,-0.8842561,-11.795,71.92501,-0.5425
879,271249,0.509716,0.034892,-0.859368,-13.6675,87.5,-1.3125
880,271346,0.5307,0.00122,-0.8527800999999999,-16.7475,105.0875,-3.3075
881,271444,0.52582,0.042944,-0.863516,-20.93,125.6325,-5.5125
882,271541,0.527284,0.101504,-0.8610761,-25.83,148.2775,-7.9275
883,271638,0.5131319999999999,0.11102000000000001,-0.9140241,-30.7825,175.5775,-8.6275
884,271735,0.38503200000000004,0.129564,-0.8881600000000001,-36.12,202.615,-7.14
885,271832,0.32403200000000004,0.156892,-0.9860040999999999,-38.9025,239.645,-5.11
886,271929,0.32866799999999996,0.245464,-1.073356,-31.3775,286.2125,-2.0125
887,272026,0.380396,0.334036,-1.162172,-19.2675,339.2375,2.415
888,272123,0.5260640000000001,0.537288,-1.3005200000000001,-21.35,391.965,0.1575
889,272220,0.709064,0.434564,-1.529392,9.2925,443.8175,16.8175
890,272317,0.862784,0.6605081,-1.4691239999999999,49.245,469.5775,63.455
891,272414,1.951512,0.305244,-1.641388,114.4325,523.4425,94.78
892,272511,2.158912,0.368684,-1.377868,100.4325,570.92,98.89251
893,272609,2.0281279999999997,0.685884,-1.8995400000000002,45.465,564.515,122.2725
894,272706,2.612264,1.21756,-1.514752,46.6725,496.1425,159.285
895,272803,2.3258080000000003,1.1733959999999999,-1.8544,44.975,462.28,124.0575
896,272900,0.987224,0.868152,-2.287012,45.8325,452.6025,97.9125
897,272997,0.28181999999999996,0.31451599999999996,-1.366156,45.395,338.835,115.3075
898,273094,4.1809400000000005,1.379332,-4.961252,47.81,254.24,107.7475
899,273191,1.318332,1.1916959999999999,-2.85358,42.4375,-5.8975,75.95
900,273288,0.107848,0.8071520000000001,-1.84464,52.29,-151.585,57.12
901,273385,-0.485804,0.444324,-0.9591639999999999,46.585,-200.0075,64.155
902,273482,-0.446276,0.467504,-0.649528,22.19,-191.555,85.89
903,273579,-0.068564,0.8193521,-0.787876,-3.4475,-180.075,95.6725
904,273677,0.24668400000000001,1.186816,-0.984296,-10.7625,-192.4125,83.545
905,273774,0.279868,1.38104,-0.9586761,3.745,-225.435,53.13
906,273871,0.160552,1.510116,-0.8464360000000001,34.58,-255.15,15.4175
907,273968,0.207156,1.4130040000000001,-0.72712,75.3375,-268.87,-21.6125
908,274065,0.339648,1.203408,-0.678808,108.745,-275.3625,-59.1675
909,274162,0.422608,1.0199200000000002,-0.632448,121.975,-284.34,-98.7175
910,274259,0.506544,0.9198799999999999,-0.5856,121.2575,-293.7725,-135.0125
911,274356,0.59658,0.84424,-0.5565640000000001,118.1425,-300.7725,-161.4375
912,274453,0.73444,0.764208,-0.5543680000000001,115.395,-304.1675,-176.8025
913,274550,0.9286639999999999,0.7076001000000001,-0.59902,109.6375,-306.775,-183.19
914,274647,1.128012,0.726388,-0.6834439999999999,98.595,-312.3925,-183.47
915,274744,1.3419999999999999,0.7881199999999999,-0.75762,86.24,-321.6675,-180.6525
916,274842,1.4898639999999999,0.8815719999999999,-0.781776,76.615,-333.97,-175.4025
917,274939,1.5859999999999999,0.9803921,-0.7612800999999999,71.2425,-345.9225,-168.3325
918,275036,1.6796959999999999,1.137772,-0.738588,69.09,-353.9375,-161.2975
919,275133,1.791936,1.274168,-0.720288,70.0875,-355.845,-160.195
920,275230,1.9407759999999998,1.416664,-0.7015,70.5775,-354.27,-170.5375
921,275327,2.1008400000000003,1.535248,-0.6612401,70.8925,-348.3725,-191.59
922,275424,2.2079560000000003,1.577704,-0.576084,73.2375,-338.24,-219.3975
923,275521,2.3480119999999998,1.5347600000000001,-0.48531599999999997,74.935,-321.79,-249.655
924,275618,2.501,1.488644,-0.373564,74.25251,-300.685,-277.1125
925,275715,2.703764,1.443748,-0.24156,73.605,-276.465,-295.82
926,275812,2.859436,1.355176,-0.048312,75.845,-251.5275,-303.24
927,275909,2.97192,1.166808,0.21862399999999999,77.8575,-225.7675,-300.02
928,276006,2.963136,0.9264680000000001,0.524356,71.47,-199.675,-287.2975
929,276104,2.85846,0.740052,0.787388,51.4325,-170.975,-268.6775
930,276201,2.623488,0.394304,1.024556,24.5525,-137.9875,-250.005
931,276298,2.348256,0.239608,1.082384,-6.65,-95.2,-245.385
932,276395,2.440244,0.604632,1.0016200000000002,-31.815,-47.845,-248.4125
933,276492,2.722552,0.640744,1.013332,5.25,-2.2575,-239.225
934,276589,2.77672,0.09516001,1.23708,66.115,29.7675,-215.2325
935,276686,2.490264,-0.386252,1.407392,83.4925,49.77,-185.0275
936,276783,2.1047439999999997,-0.417972,1.329556,54.425,72.45,-147.175
937,276880,1.895148,-0.161528,0.956968,22.8725,102.55,-99.8025
938,276977,1.860988,0.11736400000000001,0.44334799999999996,14.035,129.535,-54.215
939,277074,-0.2196,1.13094,-1.194868,54.7225,169.8375,-19.8975
940,277171,-0.6663640000000001,-1.531344,-1.311256,160.895,245.21,-32.97
941,277269,0.340624,-0.4575,-0.733952,30.2575,308.9625,-78.9775
942,277366,2.827228,-0.762988,-1.277828,8.1375,359.7825,-62.895
943,277463,3.676104,-1.252208,-2.4217,53.2,322.84,-6.7025
944,277560,4.577196,0.21447600000000003,-3.170292,50.435,192.255,27.5975
945,277657,1.032852,0.32403200000000004,-0.9916161,82.355,33.3025,65.4675
946,277754,-0.173484,1.038708,-0.762012,29.26,-7.0,60.1125
947,277851,0.9642879999999999,0.546072,-0.8249639999999999,64.5575,35.91,35.42
948,277948,1.079212,-0.519964,-0.9696561,75.565,22.365,22.155
949,278045,0.5948720000000001,0.260836,-0.8147161,32.4975,-6.545,20.7375
950,278142,0.59292,0.45164399999999993,-0.7944641,21.35,-6.1075,15.3475
951,278240,0.5751081,0.046604,-0.9140241,30.6425,-3.0625,18.9525
952,278337,0.5690081,0.14274,-0.8403360000000001,20.4925,-2.1875,22.5575
953,278434,0.5453399999999999,0.11102000000000001,-0.856684,15.1725,-0.665,19.11
954,278531,0.556076,0.11345999999999999,-0.8615640999999999,13.3,0.4725,14.63
955,278628,0.584868,0.08100801,-0.8466800999999999,8.9425,1.89,10.8675
956,278725,0.550952,0.12078,-0.84546,5.3725,2.975,7.2975
957,278822,0.5463161,0.141032,-0.8405800999999999,2.905,3.92,5.635
958,278919,0.540216,0.133468,-0.845216,2.38,5.1625,5.18
959,279016,0.5463161,0.136884,-0.8335040000000001,2.0475,6.265,4.62
960,279113,0.570716,0.10809200000000001,-0.8261841000000001,2.135,6.9475,3.6225
961,279210,0.564372,0.12175599999999999,-0.829356,1.47,6.475,1.855
962,279307,0.5441199999999999,0.14078800000000002,-0.834968,1.2075,5.67,1.2775
963,279404,0.547292,0.167384,-0.8283799999999999,1.54,5.11,3.0275
964,279501,0.568276,0.15274400000000002,-0.823744,2.8,4.0775,5.9325
965,279599,0.558028,0.130052,-0.829356,4.1825,2.1875,7.595
966,279696,0.576816,0.102724,-0.8317960999999999,5.425,1.12,7.385
967,279793,0.558272,0.11834000000000001,-0.8298440999999999,5.0925,-0.07,6.7725
968,279890,0.55632,0.128588,-0.824232,5.2325,-0.63,6.44
969,279987,0.5575399999999999,0.141032,-0.8235001000000001,5.9325,-1.3475,6.9125
970,280084,0.5631520000000001,0.13054000000000002,-0.820084,7.3325,-2.6075,7.875
971,280181,0.557296,0.13639600000000002,-0.8230120999999999,8.4175,-4.4625,8.6625
972,280278,0.568764,0.134688,-0.820816,9.52,-6.0375,9.7475
973,280375,0.560956,0.130052,-0.823256,10.8325,-7.6125,11.0075
974,280472,0.55998,0.108824,-0.822524,11.9525,-9.1175,12.0575
975,280569,0.56242,0.10052799999999999,-0.8256960999999999,12.3025,-10.045,12.2675
976,280666,0.5489999999999999,0.10321199999999998,-0.830576,12.495,-10.71,12.4775
977,280763,0.542168,0.09711201,-0.834724,12.285,-10.185,12.355
978,280861,0.528016,0.08466801,-0.8432639999999999,12.215,-9.31,12.075
979,280958,0.533872,0.08174001,-0.834968,11.69,-7.5075,11.1125
980,281055,0.5214281,0.071004,-0.83814,10.745,-5.355,9.66
981,281152,0.5246,0.07588400000000001,-0.8422879999999999,9.3275,-2.6775,8.05
982,281249,0.528992,0.07222401,-0.849608,8.085,-0.28,7.1575
983,281346,0.537776,0.070516,-0.841556,7.1225,2.135,6.195
984,281443,0.543388,0.083936,-0.8481440999999998,6.2475,4.83,5.6
985,281540,0.5458281,0.081496,-0.8488761,6.9825,7.4375,4.83
986,281637,0.49873599999999996,0.008540001,-0.869616,9.135,10.5175,4.41
987,281734,0.5043479999999999,0.111752,-0.883524,7.0875,16.905,2.9225
988,281831,0.49849209999999994,0.08881599,-0.8903561,5.7925,24.64,3.5525
989,281928,0.49898000000000003,0.052948,-0.8849879999999999,4.2525,33.1275,4.5675
990,282025,0.49849209999999994,0.040260000000000004,-0.891576,2.555,42.9975,4.2525
991,282123,0.5121560000000001,0.035136,-0.8937719999999999,1.5225,54.18,2.975
992,282220,0.513864,0.026595999999999998,-0.898652,1.295,66.29,1.785
993,282317,0.5231359999999999,0.030987999999999998,-0.9108521,0.98,79.6775,0.5425
994,282414,0.522648,0.008296000999999999,-0.898164,1.855,95.2175,0.105
995,282511,0.506788,0.00488,-0.9037761000000001,0.6475,114.2925,-0.3675
996,282608,0.48531599999999997,0.017568,-0.9232961,-4.3575,139.5625,-1.61
997,282705,0.406016,0.053924,-0.9762440999999998,-10.99,174.335,-4.6375
998,282802,0.31354,0.132004,-1.071404,-17.255,221.7425,-9.1175
999,282899,0.197884,0.21228000000000002,-1.299056,-13.055,283.4125,-11.725
1000,282996,0.25302800000000003,0.553636,-1.5518399999999999,10.2025,344.61,-3.3075
1001,283093,0.792756,0.501908,-1.74948,62.02,404.285,20.9125
1002,283190,0.840824,1.1977959999999999,-1.707268,136.4475,447.4225,52.36
1003,283287,1.96786,1.047736,-2.280912,252.595,478.415,107.38
1004,283384,1.535492,0.6734399999999999,-1.7672919999999999,318.29,463.155,140.6125
1005,283481,1.970056,1.1712,-1.771684,330.3475,430.43,148.435
1006,283578,1.902468,1.080188,-1.594052,344.6275,388.2725,130.9
1007,283675,1.375672,1.447164,-1.770464,377.055,346.7275,125.02
1008,283772,0.017324000000000003,1.630896,-1.288808,421.19,282.625,122.1325
1009,283870,1.294908,1.3620079999999999,-1.617476,496.615,241.1325,82.53
1010,283967,1.7040959999999998,0.777384,-2.7654959999999997,477.4525,161.315,-11.69
1011,284064,0.27816,0.714432,-1.844884,357.4375,-6.405,-91.91001
1012,284161,-0.13761600000000002,0.7093081,-1.21268,275.1175,-52.9025,-102.515
1013,284258,0.061732,0.8591241,-1.14802,249.9525,-55.44,-55.9475
1014,284355,0.516792,0.989908,-1.374696,250.0575,-68.7575,-4.27
1015,284452,0.628788,1.0906799999999999,-1.379576,241.78,-115.9025,22.015
1016,284549,0.518256,1.315892,-1.209264,215.915,-174.1075,21.7525
1017,284646,0.43627200000000005,1.628944,-0.9969841,191.17,-219.8,10.22
1018,284743,0.44334799999999996,1.850496,-0.8071520000000001,181.685,-249.1825,-5.7575
1019,284840,0.46116,1.9300400000000002,-0.6502600000000001,182.35,-267.82,-29.6975
1020,284937,0.49873599999999996,1.9942119999999999,-0.518988,182.5425,-278.1275,-63.4025
1021,285034,0.604632,1.991772,-0.422364,182.245,-282.1525,-102.445
1022,285131,0.716384,1.974204,-0.34794400000000003,183.6275,-282.59,-139.93
1023,285229,0.8188641,1.8758720000000002,-0.27889200000000003,187.5825,-281.1375,-170.5025
1024,285326,0.8888921000000001,1.735084,-0.24570799999999998,189.1225,-278.4775,-192.43
1025,285423,0.981124,1.603812,-0.258152,182.105,-273.8225,-206.2375
1026,285520,1.121668,1.54818,-0.351116,166.18,-271.075,-214.62
1027,285617,1.24806,1.55062,-0.435296,147.21,-272.615,-218.26
1028,285714,1.353712,1.550864,-0.49166000000000004,131.74,-277.76,-216.9125
1029,285811,1.47376,1.506944,-0.502152,116.935,-284.9,-211.12
1030,285908,1.5913680000000001,1.531588,-0.48848800000000003,96.63501,-293.65,-205.1175
1031,286005,1.651636,1.6406560000000001,-0.453108,74.34,-301.98,-203.7875
1032,286102,1.718736,1.7280080000000002,-0.410896,57.015,-305.515,-209.44
1033,286199,1.7338639999999998,1.7748560000000002,-0.340624,46.5325,-302.61,-222.4425
1034,286296,1.800232,1.7504560000000002,-0.30866,40.495,-291.375,-242.025
1035,286393,1.920036,1.621868,-0.288408,34.44,-273.3325,-267.4875
1036,286490,2.0703400000000003,1.519388,-0.299632,25.9,-252.2975,-295.6625
1037,286588,2.253828,1.416176,-0.311832,20.1075,-230.02,-319.305
1038,286685,2.476356,1.319064,-0.274744,22.6975,-208.5125,-333.0425
1039,286782,2.6510599999999998,1.121912,-0.115656,33.8625,-189.63,-333.48
1040,286879,2.624708,0.510204,0.16201600000000002,44.73,-172.0775,-322.2975
1041,286976,2.5561439999999997,-0.014884,0.354532,28.3675,-148.365,-314.1775
1042,287073,2.651548,0.205936,0.450424,-12.5825,-121.87,-298.515
1043,287170,2.6932720000000003,0.252784,0.5702281,-5.8275,-95.725,-256.655
1044,287267,2.61446,-0.071004,0.780556,30.0125,-71.8725,-204.9425
1045,287364,2.492948,-0.323788,0.9882001,44.8875,-48.195,-162.715
1046,287461,2.3150720000000002,-0.312808,1.087508,35.8225,-21.3675,-126.8225
1047,287558,2.206248,-0.332084,1.0401719999999999,28.385,10.5525,-88.0775
1048,287655,2.14842,-0.333548,0.8596120999999999,20.545,42.07,-51.345
1049,287752,2.063508,-0.17934,0.5785241,6.965,66.53501,-23.7825
1050,287849,1.9297959999999998,0.010248,0.302804,-1.2425,83.3175,-4.7075
1051,287947,0.7095520000000001,2.0400840000000002,-0.9799041,3.885,99.27750999999999,14.9975
1052,288044,-0.712724,-0.24766,-0.096624,164.22,167.405,52.36
1053,288141,-0.5248441,-0.34794400000000003,-1.310036,151.5325,215.9675,38.2375
1054,288238,1.288564,-0.593896,-1.01504,80.325,253.33,7.945
1055,288335,2.93288,-0.8888921000000001,-1.8988080000000003,85.69751,271.0575,24.6225
1056,288432,2.50588,-0.6563601,-1.8697720000000002,66.9375,192.745,25.235
1057,288529,1.8695279999999999,0.546804,-1.8785560000000001,56.91,102.2875,32.41
1058,288626,0.7439560000000001,0.56242,-0.849608,98.21,44.835,48.51
1059,288723,0.8461921,0.20618000000000003,-0.8976761000000001,88.09501,38.7275,27.1075
1060,288820,1.280268,-0.7139439999999999,-1.2017,89.6175,36.89,19.845
1061,288917,0.666608,-0.036112,-0.8483879999999999,36.6275,-0.4725,10.6225
1062,289014,0.561932,0.45725600000000005,-0.830576,11.585,-7.4025,-3.255
1063,289111,0.5070319999999999,0.059536,-0.9118280000000001,18.9,0.77,-10.2725
1064,289208,0.5429,0.18178,-0.873764,11.1475,2.8,-7.56
1065,289306,0.544608,0.277428,-0.8254520000000001,5.0225,3.85,-6.3
1066,289403,0.549488,0.17738800000000002,-0.8540000000000001,7.4025,4.865,-3.1325
1067,289500,0.528504,0.143228,-0.8620521000000001,6.055,4.48,-1.295
1068,289597,0.514352,0.128832,-0.8610761,2.3275,5.67,-1.7675
1069,289694,0.532652,0.122,-0.85156,-1.1025,7.945,-2.94
1070,289791,0.5392399999999999,0.16104000000000002,-0.8388721,-3.885,9.0475,-5.075
1071,289888,0.548268,0.171532,-0.8296,-4.4625,9.45,-6.405
1072,289985,0.5514399999999999,0.169336,-0.8291120999999999,-3.64,9.3275,-6.895
1073,290082,0.5543680000000001,0.17543599999999998,-0.8300879999999999,-3.115,8.715,-7.0
1074,290179,0.541192,0.180316,-0.8308200000000001,-2.0825,8.12,-6.16
1075,290276,0.525576,0.189832,-0.8166680000000001,-1.155,7.49,-4.5325
1076,290373,0.5206960999999999,0.185196,-0.8249639999999999,0.0875,7.1575,-2.59
1077,290470,0.52704,0.17324,-0.7991,1.1025,7.28,-0.665
1078,290567,0.5489999999999999,0.15982000000000002,-0.812276,1.4,7.4375,0.42
1079,290664,0.54778,0.15372,-0.81984,2.1,6.895,0.805
1080,290762,0.5368,0.155672,-0.807884,2.065,6.58,1.085
1081,290859,0.5514399999999999,0.160064,-0.812032,2.065,6.405,1.4875
1082,290956,0.548024,0.174216,-0.815936,3.15,5.4075,2.8875
1083,291053,0.5443640000000001,0.20374,-0.8147161,4.4625,3.64,6.125
1084,291150,0.548512,0.198128,-0.8235001000000001,6.8075,0.9625,11.025
1085,291247,0.5343600000000001,0.227652,-0.8115439999999999,9.2925,-2.555,17.0275
1086,291344,0.549244,0.191052,-0.819108,12.4075,-5.18,22.3825
1087,291441,0.5795,0.105896,-0.8222799999999999,13.65,-5.775,23.3975
1088,291538,0.54778,0.093696,-0.8203280000000001,10.99,-4.2875,19.8975
1089,291635,0.528748,0.10906800000000001,-0.8527800999999999,7.5075,-1.4,15.4525
1090,291732,0.537532,0.11467999999999999,-0.8308200000000001,5.355,1.82,13.0025
1091,291829,0.547292,0.083204,-0.823744,3.8325,4.655,10.6925
1092,291926,0.534604,0.094672,-0.831308,1.26,7.28,7.6125
1093,292023,0.539484,0.09784401,-0.829356,-0.455,10.1675,4.865
1094,292120,0.525332,0.104432,-0.8335040000000001,-3.2375,14.105,2.345
1095,292217,0.528748,0.121268,-0.815692,-5.7575,18.27,1.3825
1096,292315,0.533384,0.126636,-0.8252079999999999,-8.4875,23.135,1.12
1097,292412,0.5292359999999999,0.17763199999999998,-0.8805960999999999,-11.48,27.72,2.03
1098,292509,0.500444,0.25058800000000003,-0.934276,-14.1225,33.985,4.62
1099,292606,0.545096,0.100772,-0.8693719999999999,-11.69,43.015,10.5
1100,292703,0.5043479999999999,0.163724,-0.8769360999999999,-10.85,51.6075,14.315
1101,292800,0.5160600000000001,0.16128399999999998,-0.8884040000000001,-9.7125,62.7375,15.645
1102,292897,0.541924,0.14713199999999999,-0.820816,-10.3075,75.46,15.9425
1103,292994,0.592432,0.114192,-0.855708,-9.8875,88.62,16.1525
1104,293091,0.553636,0.156404,-0.833016,-8.1375,104.2825,15.26
1105,293188,0.586576,0.133956,-0.8410681000000001,-4.9175,121.1875,14.1225
1106,293285,0.604632,0.158844,-0.8730319999999999,-2.9925,137.865,14.49
1107,293382,0.568276,0.167872,-0.843508,2.5725,152.04,16.9925
1108,293479,0.5958479999999999,0.159332,-0.84424,7.2275,174.3,20.2125
1109,293576,0.500444,0.205204,-0.8945040000000001,12.7225,196.175,25.8125
1110,293674,0.42895200000000006,0.26474000000000003,-0.950868,23.5025,222.0925,33.11
1111,293771,0.7178479999999999,0.25132,-0.9118280000000001,38.5525,251.9475,43.54
1112,293868,0.43944399999999995,0.37698000000000004,-0.9037761000000001,46.9175,278.4075,51.0475
1113,293965,0.9118280000000001,0.377224,-1.00284,55.23,307.16,61.3375
1114,294062,0.802272,0.38795999999999997,-1.049688,66.115,347.41,73.5175
1115,294159,0.566812,0.44896,-0.993568,82.04,382.0075,99.855
1116,294256,2.751588,0.182024,-0.9023121,130.7425,429.94,151.13
1117,294353,1.316136,0.49166000000000004,-1.493036,150.395,518.945,178.7975
1118,294450,1.7585080000000002,0.23472800000000002,-1.7463080000000002,107.9575,520.5025,190.1725
1119,294547,2.092056,0.489464,-1.7511880000000002,62.335,484.575,180.915
1120,294644,2.8796880000000002,1.178276,-2.072048,38.8325,451.745,187.4775
1121,294741,2.261636,1.124596,-2.448052,44.975,445.34,156.6775
1122,294839,1.253672,1.220732,-2.7298720000000003,25.7775,390.2325,155.015
1123,294936,1.391532,-0.079544,-0.43602799999999997,48.8425,270.0425,162.6275
1124,295033,3.843732,1.48108,-4.546208,-19.005,198.065,131.7575
1125,295130,1.0086959999999998,1.749236,-2.76208,-62.79,-65.975,60.2175
1126,295227,-0.165676,1.4356959999999999,-1.651636,-38.22,-155.365,21.4375
1127,295324,-0.48726800000000003,0.9633120999999999,-1.1265479999999999,-10.92,-166.7225,3.535
1128,295421,-0.31451599999999996,0.7922680000000001,-0.930616,-6.9825,-142.765,-8.89
1129,295518,0.11102000000000001,0.7515201,-1.1148360000000002,-19.145,-135.1525,-27.895
1130,295615,0.3111,0.753228,-1.190964,-32.0775,-156.0125,-51.135
1131,295712,0.3233,0.740052,-1.149972,-39.76,-190.5225,-75.1625
1132,295809,0.30841599999999997,0.68808,-1.047248,-38.885,-220.745,-94.325
1133,295906,0.309392,0.628544,-0.9720960999999999,-31.2375,-241.0975,-106.75
1134,296003,0.343308,0.531676,-0.9269561,-21.4375,-254.2225,-115.15
1135,296101,0.4331,0.443104,-0.9286639999999999,-14.9975,-263.725,-122.675
1136,296198,0.549732,0.357704,-0.9486720999999999,-13.65,-274.015,-131.81
1137,296295,0.648308,0.2928,-0.942084,-17.5175,-286.755,-141.68
1138,296392,0.7639640999999999,0.245464,-0.9701440999999998,-24.885,-299.635,-150.4825
1139,296489,0.8666879999999999,0.213256,-0.9772200999999999,-32.8475,-311.92,-157.43
1140,296586,0.942816,0.182268,-0.9745360000000001,-39.515,-322.6475,-161.455
1141,296683,1.047004,0.107116,-0.9857600000000001,-46.305,-330.4525,-161.525
1142,296780,1.164856,0.007320001,-1.027484,-56.7175,-335.965,-159.46
1143,296877,1.309548,-0.046116000000000004,-1.086776,-74.7075,-341.81,-156.7125
1144,296974,1.470344,-0.0017079999999999999,-1.1690040000000002,-96.145,-348.7225,-153.5275
1145,297071,1.594052,0.173484,-1.247572,-111.8075,-357.7175,-148.575
1146,297168,1.6684720000000002,0.329644,-1.318088,-111.3525,-365.0675,-140.35
1147,297265,1.8236560000000002,0.327692,-1.3527360000000002,-99.40001,-367.29,-132.475
1148,297363,2.001776,0.327692,-1.353712,-93.835,-368.69,-129.4475
1149,297460,2.172576,0.332084,-1.293688,-95.7425,-369.215,-131.2675
1150,297557,2.307264,0.29426399999999997,-1.188524,-98.385,-365.05,-135.17
1151,297654,2.470012,0.010004,-0.9864921,-100.1875,-352.9925,-139.2825
1152,297751,2.6993720000000003,-0.314272,-0.7856801,-109.97,-332.4125,-146.4225
1153,297848,3.001688,-0.378444,-0.55266,-128.625,-309.2425,-147.6825
1154,297945,3.183712,-0.416996,-0.227408,-128.7475,-282.94,-136.4475
1155,298042,3.249348,-0.552172,0.21838000000000002,-105.525,-250.3025,-118.93
1156,298139,3.260084,-0.647332,0.682712,-69.02,-211.3825,-102.5675
1157,298236,3.156628,-0.6736840000000001,1.1324040000000002,-24.5,-166.495,-88.9875
1158,298333,2.899696,-0.959408,1.510848,25.3575,-113.715,-75.95
1159,298430,3.069032,-1.542568,1.7929119999999998,57.26,-53.2,-64.2075
1160,298527,3.1717560000000002,-1.743136,1.8361,42.28,0.0875,-48.1425
1161,298624,2.957768,-1.453264,1.559404,11.585,45.045,-18.7075
1162,298721,2.681072,-1.05408,1.1407,11.06,89.2325,24.325
1163,298819,0.072712,1.0528600000000001,-0.467504,95.1125,160.02,102.1475
1164,298916,-1.530368,0.077592,-2.397544,277.1125,252.28,184.8525
1165,299013,0.34477199999999997,0.033916,-0.927688,167.2475,318.1675,159.4075
1166,299110,3.376228,-1.3266280000000001,-0.780312,141.2075,357.665,84.9975
1167,299207,3.54166,-1.3529799999999998,-2.4395119999999997,117.1975,333.2175,60.025
1168,299304,2.639104,-1.277828,-1.9129599999999998,90.755,229.5125,50.715
1169,299401,1.143384,0.430172,-1.181448,44.905,136.43,56.35
1170,299498,1.525,1.606008,-0.779824,70.245,101.885,52.4475
1171,299595,0.698816,-0.296948,-0.8103239999999999,135.835,61.3725,35.7175
1172,299692,1.589904,-1.17242,-1.22976,123.9,49.2625,40.25
1173,299789,0.843508,0.44944799999999996,-0.8230120999999999,45.745,-9.03,37.87
1174,299886,0.58804,-0.05929201,-0.868152,31.6925,-10.3775,17.3075
1175,299983,0.576084,0.08906,-0.8735200000000001,23.415,-7.875,12.81
1176,300080,0.5636399999999999,0.085156,-0.8610761,13.2825,-4.8125,8.5575
1177,300178,0.49898000000000003,0.123464,-0.8615640999999999,9.2575,-1.295,4.41
1178,300275,0.5246,0.203008,-0.8481440999999998,5.705,-0.0875,5.67
1179,300372,0.5738880000000001,0.101748,-0.8383841000000001,8.085,1.19,7.35
1180,300469,0.540704,0.1098,-0.856196,6.3,1.26,6.1775
1181,300566,0.531188,0.09638,-0.8552200000000001,3.885,2.5025,3.815
1182,300663,0.553392,0.12688,-0.8418,1.8025,5.0575,1.75
1183,300760,0.555588,0.165432,-0.8271601000000001,0.595,6.02,0.945
1184,300857,0.543388,0.141764,-0.829356,1.4525,5.705,1.155
1185,300954,0.537532,0.138104,-0.8369200000000001,1.8025,5.4425,1.4175
1186,301051,0.521184,0.137128,-0.8359440999999999,2.2925,5.5125,2.555
1187,301148,0.533872,0.14762,-0.8371639999999999,2.03,6.0375,4.5325
1188,301245,0.540704,0.151524,-0.8352120000000001,2.2225,6.16,6.9825
1189,301342,0.548268,0.132492,-0.831308,3.22,5.3025,8.6975
1190,301440,0.554124,0.133468,-0.826672,3.7625,4.2525,8.8025
1191,301537,0.5551,0.122732,-0.82594,3.885,3.325,8.4
1192,301634,0.552904,0.122732,-0.82594,3.71,2.73,7.91
1193,301731,0.5546121,0.127856,-0.8230120999999999,3.3425,2.1,7.595
1194,301828,0.554856,0.12395199999999999,-0.8149601,3.5525,1.6975,7.9275
1195,301925,0.553392,0.114924,-0.823256,3.9025,1.5225,8.3825
1196,302022,0.563884,0.107116,-0.824232,3.64,1.2075,9.31
1197,302119,0.557052,0.10223600000000001,-0.8254520000000001,3.2025,1.225,10.08
1198,302216,0.563396,0.09638,-0.8188641,2.5725,1.68,10.22
1199,302313,0.561688,0.0976,-0.8176439999999999,0.7875,2.0475,10.395
1200,302410,0.564616,0.10418800000000002,-0.8108121,-2.135,2.7475,11.27
1201,302507,0.55388,0.09735601,-0.81984,-4.935,3.9725,12.7925
1202,302604,0.5282600000000001,0.10540799999999999,-0.8422879999999999,-6.86,6.0025,13.7725
1203,302701,0.5214281,0.06954,-0.8439959999999999,-5.5825,10.4125,14.5775
1204,302798,0.5192319999999999,0.085888,-0.845216,-5.2675,16.0475,13.7375
1205,302896,0.50874,0.067588,-0.856684,-6.9125,21.665,12.0925
1206,302993,0.5063,0.07515201,-0.8632719999999999,-8.0675,28.1575,9.8
1207,303090,0.514596,0.081984,-0.853756,-8.575,35.91,7.0525
1208,303187,0.531188,0.107848,-0.8437520000000001,-9.3625,44.73,4.76
1209,303284,0.5060560000000001,0.101016,-0.8447280999999999,-9.9575,54.11,4.13
1210,303381,0.526552,0.102968,-0.8439959999999999,-11.935,65.36251,4.2175
1211,303478,0.524356,0.092964,-0.82594,-13.23,78.27750999999999,4.2875
1212,303575,0.560956,0.105896,-0.849608,-16.1,94.09751,4.3925
1213,303672,0.5607121,0.107848,-0.8547319999999999,-18.6725,111.265,4.865
1214,303769,0.5502199999999999,0.09540401,-0.8352120000000001,-20.02,130.375,4.8475
1215,303866,0.534848,0.08003201,-0.8544879999999999,-19.5475,150.15,1.9775
1216,303963,0.548024,0.06954,-0.817156,-15.2775,168.56,-0.91
1217,304060,0.548024,0.10394400000000001,-0.8483879999999999,-10.8325,187.81,-2.5725
1218,304158,0.510204,0.171532,-0.844484,-7.385,212.205,-1.1725
1219,304255,0.523624,0.233508,-0.818376,0.35,237.8775,6.405
1220,304352,0.590968,0.22789600000000002,-0.98088,5.11,268.87,15.085
1221,304449,0.638792,0.367952,-0.8810841,4.0425,296.31,15.61
1222,304546,0.7503,0.33428,-0.9330560999999999,3.3075,343.49,19.5825
1223,304643,0.6919841,0.457012,-1.207068,14.14,386.19,37.555
1224,304740,1.078968,0.42212,-0.643184,51.2925,421.9425,89.5825
1225,304837,1.599176,0.31964000000000004,-1.281976,106.5225,519.54,128.135
1226,304934,1.9881119999999999,0.589016,-1.749236,49.7525,573.3875,139.055
1227,305031,1.9351639999999999,0.488976,-2.292868,2.5725,570.255,162.96
1228,305128,2.368996,0.9567241,-2.136952,-9.7125,517.5625,186.55
1229,305225,3.399164,1.3268719999999998,-2.29848,-7.805,476.1925,187.11
1230,305322,1.361764,1.0523719999999999,-2.755492,-13.335,482.2475,135.52
1231,305419,-0.10760399999999999,0.254736,-1.97518,-38.8325,390.915,144.8825
1232,305517,3.798104,0.86498,-4.4817919999999996,-56.2275,295.4525,152.285
1233,305614,2.578592,1.8888040000000001,-3.784928,-113.4875,77.2625,107.7475
1234,305711,0.68198,1.798036,-2.713524,-75.88,-160.4575,72.625
1235,305808,-0.369904,1.159732,-1.435208,-12.145,-229.3725,59.5875
1236,305905,-0.676856,0.623908,-0.8142281,11.3225,-223.9475,59.6925
1237,306002,-0.374784,0.490196,-0.713212,-10.43,-194.11,49.42
1238,306099,0.123708,0.607316,-0.9528200000000001,-52.9025,-183.5225,22.47
1239,306196,0.403332,0.8371639999999999,-1.1331360000000001,-86.94,-207.27,-12.845
1240,306293,0.429684,0.9691681000000001,-1.1468,-93.7475,-245.3675,-46.935
1241,306390,0.35258,0.9242720999999999,-1.022116,-73.045,-276.0975,-72.9575
1242,306487,0.302316,0.779092,-0.9154880999999999,-40.845,-291.1125,-91.4725
1243,306584,0.36844,0.511424,-0.8840120000000001,-12.8625,-294.945,-106.855
1244,306682,0.530212,0.29792399999999997,-0.9298841,-3.2725,-298.3225,-122.5
1245,306779,0.6558721,0.172752,-0.9828321,-9.4675,-307.615,-138.3375
1246,306876,0.7417600000000001,0.10858,-1.0077200000000002,-20.2125,-320.285,-150.0625
1247,306973,0.855708,0.07173600000000001,-1.051152,-27.0375,-331.555,-154.5775
1248,307070,0.9911281,-0.016592,-1.1148360000000002,-30.94,-341.1975,-153.3525
1249,307167,1.111176,-0.15176800000000001,-1.1468,-38.1325,-351.1725,-149.7475
1250,307264,1.202432,-0.259128,-1.1660760000000001,-54.915,-361.865,-146.7375
1251,307361,1.307108,-0.306952,-1.216584,-77.7875,-369.9675,-143.5175
1252,307458,1.43716,-0.26156799999999997,-1.3005200000000001,-100.0475,-375.8475,-139.6675
1253,307555,1.6230879999999999,-0.08857201,-1.4015360000000001,-113.8025,-381.465,-133.595
1254,307652,1.830732,0.15420799999999998,-1.485716,-112.8225,-387.7125,-124.7925
1255,307749,1.9717639999999999,0.30012,-1.487668,-98.0525,-394.135,-116.795
1256,307846,2.095228,0.328912,-1.438624,-81.90001,-397.4425,-115.3425
1257,307943,2.235528,0.326716,-1.325164,-75.21500999999999,-396.165,-122.8325
1258,308041,2.3963240000000003,0.323788,-1.176568,-78.015,-388.7275,-136.115
1259,308138,2.5705400000000003,0.160064,-0.974292,-84.28,-372.89,-151.3575
1260,308235,2.76452,-0.123464,-0.7217521,-96.86251,-348.005,-168.525
1261,308332,3.052684,-0.201544,-0.437492,-118.9825,-318.7275,-180.5475
1262,308429,3.238124,-0.308172,-0.06124401,-126.245,-284.34,-179.3575
1263,308526,3.3035160000000006,-0.407724,0.355996,-111.7725,-243.075,-170.6075
1264,308623,3.305468,-0.317932,0.7439560000000001,-73.8325,-197.3825,-161.0
1265,308720,3.140524,-0.404552,1.164856,-6.6675,-146.9475,-150.465
1266,308817,3.38794,-1.1568040000000002,1.647732,65.5725,-88.865,-138.775
1267,308914,3.7632120000000002,-1.8038919999999998,2.138416,84.2275,-36.225,-121.8525
1268,309011,3.3288919999999997,-1.772904,2.2201560000000002,44.625,8.5575,-82.0925
1269,309108,2.8975,-1.3290680000000001,1.790228,12.6,66.46500999999999,-20.7725
1270,309205,2.8477240000000004,-0.8520479999999999,1.07726,13.615,126.5075,43.8725
1271,309303,0.21667199999999998,0.8337481,-1.1770559999999999,60.13,192.8325,118.79
1272,309400,-1.549888,0.8030041,-2.318,156.3625,271.3375,182.385
1273,309497,0.48653599999999997,0.7107720000000001,-0.609024,111.65,342.8425,186.5675
1274,309594,2.80356,-0.5919439999999999,-0.14786400000000002,120.96,394.73,119.6825
1275,309691,3.37696,0.24107199999999998,-2.34484,77.315,396.8475,40.3025
1276,309788,3.1634599999999997,-0.9315921,-2.116212,93.205,308.6825,12.705
1277,309885,2.098888,0.43676000000000004,-2.1230439999999997,70.735,203.455,23.3625
1278,309982,2.408036,0.15616,-0.790072,118.4925,128.1525,54.005
1279,310079,0.7539600000000001,-0.47994799999999993,-0.773724,120.82,40.0575,54.775
1280,310176,1.203408,-0.425292,-1.043588,89.915,21.665,36.54
1281,310273,0.978684,0.229116,-0.8576601,46.6725,-10.29,29.2075
1282,310370,0.534604,0.038796,-0.8596120999999999,30.6775,-17.08,18.2175
1283,310468,0.564372,0.100284,-0.874984,20.93,-12.495,13.9475
1284,310565,0.5404601,0.09735601,-0.8647360000000001,14.1925,-6.4225,7.77
1285,310662,0.513376,0.183976,-0.85888,9.275,-3.0275,4.235
1286,310759,0.5382640000000001,0.16835999999999998,-0.844972,7.2625,-0.6475,6.4925
1287,310856,0.5936520000000001,0.060267999999999995,-0.8335040000000001,7.35,1.0325,6.93
1288,310953,0.5267960999999999,0.133224,-0.8608319999999999,3.43,1.225,4.655
1289,311050,0.531188,0.10614000000000001,-0.850584,1.5575,3.185,2.765
1290,311147,0.5363121,0.149328,-0.840824,-0.49,6.2825,1.085
1291,311244,0.55998,0.156404,-0.8254520000000001,-0.8925,8.19,0.455
1292,311341,0.543876,0.164944,-0.8352120000000001,-0.6475,8.75,0.98
1293,311438,0.548756,0.137128,-0.8337481,0.0175,8.8375,1.9075
1294,311535,0.543144,0.151036,-0.8522921,0.1575,9.0475,3.2375
1295,311633,0.5577840000000001,0.149084,-0.8315520000000001,0.0,9.4675,5.0575
1296,311730,0.563396,0.132736,-0.826672,0.455,9.415,6.7375
1297,311827,0.553148,0.13176,-0.8283799999999999,0.7175,8.995,6.7725
1298,311924,0.5575399999999999,0.1281,-0.822524,1.015,8.295,6.0025
1299,312021,0.5614439999999999,0.117852,-0.8203280000000001,1.1025,7.735,6.1075
1300,312118,0.564128,0.122,-0.820816,0.56,6.895,6.0725
1301,312215,0.5655920999999999,0.139812,-0.817156,0.21,6.475,6.5625
1302,312312,0.560956,0.129076,-0.815204,0.1925,6.0025,7.665
1303,312409,0.5724239999999999,0.123708,-0.808372,-0.35,5.915,8.54
1304,312506,0.590724,0.116876,-0.7922680000000001,-2.6425,5.285,9.8875
1305,312603,0.5726680000000001,0.11736400000000001,-0.806176,-5.7925,4.375,12.0575
1306,312700,0.5653481,0.12078,-0.8115439999999999,-6.475,4.585,13.37
1307,312797,0.5292359999999999,0.13151600000000002,-0.836676,-4.8475,5.8975,13.7375
1308,312894,0.560956,0.09540401,-0.8132520999999999,-1.7325,9.2225,14.6475
1309,312992,0.5543680000000001,0.104676,-0.818376,-4.34,12.0225,14.9625
1310,313089,0.542168,0.09906401,-0.832528,-5.215,15.12,15.3125
1311,313186,0.540948,0.074664,-0.8322841000000001,-6.1075,19.355,14.28
1312,313283,0.526308,0.08369201,-0.8439959999999999,-7.84,24.815,12.0575
1313,313380,0.539972,0.091012,-0.838628,-9.3275,31.71,9.7125
1314,313477,0.543876,0.093696,-0.8388721,-10.745,39.8825,8.12
1315,313574,0.540216,0.100772,-0.8461921,-11.725,48.825,7.1925
1316,313671,0.5575399999999999,0.101504,-0.8291120999999999,-12.635,58.765,6.125
1317,313768,0.548512,0.08857201,-0.833016,-13.58,69.7025,5.11
1318,313865,0.570472,0.101748,-0.808372,-15.7675,81.655,4.795
1319,313962,0.57584,0.11028800000000001,-0.846924,-17.4825,95.655,4.83
1320,314059,0.569984,0.11541199999999999,-0.855708,-18.3225,112.49,4.795
1321,314156,0.576084,0.10858,-0.844972,-18.9,131.39,3.2375
1322,314253,0.601216,0.116632,-0.8642481,-16.485,149.625,2.065
1323,314351,0.564372,0.06588,-0.8298440999999999,-10.535,164.6925,1.47
1324,314448,0.543144,0.11248399999999999,-0.8378960999999999,-8.6275,185.9725,-0.5075
1325,314545,0.43212399999999995,0.180804,-0.8215481,-3.0625,208.88,-0.5425
1326,314642,0.595604,0.225944,-0.8405800999999999,2.345,236.11,5.5825
1327,314739,0.41968,0.215696,-0.8488761,1.2775,260.9775,10.325
1328,314836,0.687348,0.237656,-0.978196,-11.4275,294.6825,5.075
1329,314933,0.9638,0.281088,-0.9916161,-12.775,340.13,1.47
1330,315030,0.317444,0.325252,-1.09922,-0.91,381.43,22.9075
1331,315127,2.91458,0.44725200000000004,0.015372,32.235,421.96,63.035
1332,315224,1.223416,0.324764,-1.131672,64.05,543.9875,88.9175
1333,315321,2.3492319999999998,0.6263479999999999,-1.942484,0.7875,573.405,107.5025
1334,315418,1.992748,0.42114399999999996,-2.1840439999999997,-46.9875,572.3375,138.0925
1335,315515,2.4146240000000003,1.041392,-2.3321520000000002,-58.59,534.2925,176.1025
1336,315613,3.7976160000000005,1.413492,-2.377048,-32.2,484.575,185.395
1337,315710,1.2080440000000001,0.885964,-2.973384,-9.065,507.395,136.115
1338,315807,0.01708,0.027816000000000004,-2.04106,-37.1875,420.455,138.7575
1339,315904,3.82836,0.97478,-4.56036,-62.7725,320.5125,151.3225
1340,316001,2.742804,1.862452,-3.847636,-111.3175,89.3375,104.93
1341,316098,0.8410681000000001,1.673352,-2.8079520000000002,-57.7325,-151.165,75.1275
1342,316195,-0.191052,1.0845799999999999,-1.519144,9.8175,-228.0775,69.3
1343,316292,-0.3965,0.548512,-0.966484,36.19,-229.5475,81.91751
1344,316389,-0.229116,0.378932,-0.760304,17.1325,-214.41,82.705
1345,316486,0.166408,0.460672,-0.8849879999999999,-30.8175,-212.415,61.1275
1346,316583,0.366,0.714432,-0.973316,-76.02,-236.88,27.8775
1347,316680,0.41675200000000007,0.892308,-0.9608721,-94.185,-270.6375,-2.8175
1348,316777,0.44164,0.9496479999999999,-0.9208561,-84.4725,-298.3575,-25.9175
1349,316875,0.457012,0.9198799999999999,-0.869128,-58.59,-315.9625,-44.5025
1350,316972,0.5060560000000001,0.783972,-0.8300879999999999,-28.6475,-326.445,-63.5075
1351,317069,0.6107319999999999,0.547048,-0.806908,-8.855,-334.39,-85.96
1352,317166,0.671976,0.38552,-0.7722600000000001,-9.24,-344.0675,-112.035
1353,317263,0.7166279999999999,0.29987600000000003,-0.7659161,-21.035,-352.3975,-136.4825
1354,317360,0.8274040000000001,0.25742,-0.790072,-32.5675,-355.705,-152.845
1355,317457,0.9857600000000001,0.17738800000000002,-0.86498,-39.0075,-356.72,-158.515
1356,317554,1.1836440000000001,0.015616,-0.9650200999999999,-45.3075,-359.0475,-156.3975
1357,317651,1.351272,-0.13054000000000002,-1.030168,-60.6025,-365.5925,-151.6025
1358,317748,1.483276,-0.17616800000000002,-1.091656,-84.2275,-375.2875,-145.18
1359,317845,1.59942,-0.104676,-1.141676,-106.855,-384.195,-136.255
1360,317942,1.711904,0.068564,-1.2117040000000001,-118.6325,-390.1975,-124.46
1361,318039,1.8295119999999998,0.211792,-1.2627,-116.7775,-392.035,-114.4325
1362,318136,1.90808,0.270352,-1.3176,-109.1125,-391.4225,-112.63
1363,318233,2.031544,0.27523200000000003,-1.349808,-105.21,-387.59,-121.555
1364,318331,2.213568,0.36722,-1.360056,-107.38,-381.5875,-138.53
1365,318428,2.4034,0.396744,-1.304912,-105.8575,-372.575,-156.94
1366,318525,2.558828,0.24082800000000001,-1.125084,-97.45749,-358.1375,-172.725
1367,318622,2.652768,-0.15176800000000001,-0.8525360000000001,-91.175,-336.875,-185.8325
1368,318719,2.8726119999999997,-0.327204,-0.5787680000000001,-97.28251,-308.84,-193.1825
1369,318816,3.106608,-0.425292,-0.228872,-102.27,-277.7775,-184.03
1370,318913,3.188348,-0.5165481,0.189832,-91.7525,-243.2675,-162.8025
1371,319010,3.138084,-0.49288000000000004,0.57584,-68.3375,-204.505,-141.96
1372,319107,2.885056,-0.55266,0.9259799999999999,-29.12,-160.7025,-128.205
1373,319204,3.0585400000000003,-1.180472,1.3024719999999999,15.085,-108.8675,-121.31
1374,319301,3.5563,-1.6977520000000001,1.754604,23.4325,-61.425,-112.7175
1375,319398,3.3325519999999997,-1.6169879999999999,1.939312,-2.8875,-24.4125,-80.2025
1376,319495,2.857972,-1.3949479999999999,1.741184,-8.1375,25.62,-18.3575
1377,319592,2.744268,-1.20414,1.17364,9.1875,85.0325,51.0125
1378,319690,2.76574,-0.8959681,0.6009720000000001,14.4725,125.2475,103.985
1379,319787,0.14762,1.493036,-2.345572,18.3575,147.735,151.41
1380,319884,-1.454728,1.319796,-2.249436,165.585,203.0175,211.4175
1381,319981,-1.214876,0.7659161,-0.8754719999999999,145.005,250.7225,237.02
1382,320078,2.1777,-1.3620079999999999,0.9250040999999999,145.3375,329.0525,183.015
1383,320175,3.335724,-0.142252,-2.25212,102.41,374.5175,102.585
1384,320272,3.030724,-0.529968,-2.117676,86.7125,291.8125,53.3575
1385,320369,1.4818120000000001,-0.42333999999999994,-1.116056,78.54,198.1875,52.2725
1386,320466,2.0486240000000002,1.921012,-2.918972,56.4725,158.3225,51.0475
1387,320563,1.583072,0.17055599999999999,-0.745908,145.88,97.335,52.465
1388,320660,1.131428,-1.155828,-1.184864,135.345,42.105,40.39
1389,320757,1.2397639999999999,-0.332816,-0.9547720999999999,80.85,10.9025,38.64
1390,320854,0.6307401,0.310856,-0.8169121,28.3675,-20.4575,26.3375
1391,320951,0.57584,-0.08954801,-0.8971879999999999,27.825,-10.0275,11.69
1392,321048,0.593896,0.07710399999999999,-0.86498,14.2975,-7.35,8.5925
1393,321145,0.534604,0.063928,-0.8608319999999999,7.1575,-2.17,0.4025
1394,321243,0.515084,0.17738800000000002,-0.8625401,3.2025,0.5425,-1.2425
1395,321340,0.5631520000000001,0.11712,-0.8437520000000001,4.025,2.275,1.225
1396,321437,0.5692520000000001,0.08442401,-0.83814,3.3075,2.485,2.5025
1397,321534,0.532652,0.11126400000000002,-0.8574161,0.805,2.5025,0.945
1398,321631,0.547536,0.131272,-0.8457040000000001,-0.6125,4.1825,-0.5075
1399,321728,0.557052,0.155184,-0.82594,-1.1375,5.32,-0.6475
1400,321825,0.5543680000000001,0.173728,-0.8249639999999999,-0.385,5.215,0.6125
1401,321922,0.5602239999999999,0.14884,-0.8256960999999999,1.155,4.5675,2.0825
1402,322019,0.5587601,0.143716,-0.828868,1.995,4.0775,3.3075
1403,322116,0.539972,0.119804,-0.835456,2.3275,3.71,4.41
1404,322213,0.549244,0.11955999999999999,-0.831308,2.03,4.0775,5.075
1405,322310,0.547536,0.118828,-0.8310639999999999,1.6275,4.5675,5.32
1406,322407,0.554856,0.128588,-0.8308200000000001,1.47,4.41,5.8275
1407,322504,0.5690081,0.129564,-0.8244761,1.8725,3.885,6.405
1408,322602,0.557296,0.13176,-0.827892,2.4675,2.45,6.44
1409,322699,0.57584,0.12444000000000001,-0.8149601,3.605,0.63,6.825
1410,322796,0.5594920999999999,0.121268,-0.8166680000000001,4.585,-0.8400001,7.35
1411,322893,0.559004,0.111996,-0.813496,4.865,-1.505,7.2975
1412,322990,0.5594920999999999,0.092964,-0.815204,4.095,-0.9975,6.16
1413,323087,0.5514399999999999,0.10248,-0.8254520000000001,2.695,-0.3325,4.9
1414,323184,0.5546121,0.091744,-0.822524,1.8725,0.315,4.41
1415,323281,0.555588,0.091988,-0.820084,1.085,1.12,3.815
1416,323378,0.552904,0.090036,-0.8188641,-0.105,2.1,3.2725
1417,323475,0.55266,0.087352,-0.820816,-1.365,3.0975,2.9225
1418,323572,0.5455840000000001,0.08759601,-0.824232,-2.695,4.48,2.5725
1419,323669,0.539484,0.096868,-0.826428,-4.4625,6.37,2.3275
1420,323766,0.549488,0.08637601,-0.8164239999999999,-6.3875,8.6625,2.0475
1421,323863,0.547292,0.09223200000000001,-0.8169121,-9.7475,10.5175,2.2925
1422,323960,0.549488,0.113704,-0.8210601000000001,-13.6325,12.4425,3.255
1423,324057,0.5368,0.132248,-0.828624,-15.995,14.49,5.2675
1424,324155,0.521184,0.11955999999999999,-0.839116,-17.71,17.36,7.315
1425,324252,0.48165600000000003,0.197884,-0.901336,-18.375,22.645,8.9775
1426,324349,0.5121560000000001,0.105896,-0.863516,-11.795,32.4625,11.55
1427,324446,0.504836,0.122244,-0.8937719999999999,-13.475,42.1925,11.7425
1428,324543,0.514352,0.116388,-0.8957241,-12.6175,54.5475,11.06
1429,324640,0.520452,0.10760399999999999,-0.8762040000000001,-12.67,69.4925,9.5375
1430,324737,0.543632,0.10540799999999999,-0.883768,-13.6325,85.6625,8.96
1431,324834,0.5443640000000001,0.077348,-0.8403360000000001,-14.7,103.425,7.8575
1432,324931,0.589504,0.0017079999999999999,-0.8203280000000001,-16.975,122.745,5.11
1433,325028,0.546072,0.060512,-0.8640040000000001,-21.2625,144.62,1.9075
1434,325125,0.581696,0.107848,-0.94916,-23.8175,168.5075,-2.2575
1435,325222,0.49166000000000004,0.16592,-0.8510719999999999,-20.0375,187.0575,-2.0475
1436,325319,0.515084,0.157136,-0.8281360999999999,-17.08,212.555,3.15
1437,325416,0.36112,0.209108,-0.9137799999999999,-13.86,238.875,9.45
1438,325514,0.6453800000000001,0.227408,-0.989908,-4.9,272.0725,19.005
1439,325611,0.390156,0.37746799999999997,-0.889868,-0.07,302.715,21.63
1440,325708,0.7356600000000001,0.36209600000000003,-0.9613601,-0.63,344.295,25.585
1441,325805,0.9711200999999999,0.49141599999999996,-1.224392,8.12,389.0425,40.67
1442,325902,0.47458,0.477264,-0.985516,44.7125,424.5675,85.78501
1443,325999,2.255536,0.203008,-1.216584,98.875,493.4825,129.3075
1444,326096,2.064484,0.582916,-1.6704240000000001,72.06501,570.7625,142.1
1445,326193,2.051552,0.5060560000000001,-2.1935599999999997,28.8225,568.26,167.1775
1446,326290,2.19112,0.761524,-1.95688,22.2075,516.5475,187.6
1447,326387,3.199084,1.156072,-2.158912,16.275,483.105,182.7
1448,326484,1.359568,0.8310639999999999,-2.4939240000000003,13.965,493.43,129.9375
1449,326581,0.225456,0.46506400000000003,-2.1533,-31.2025,425.845,134.9075
1450,326678,2.976068,0.42822,-2.71572,-49.9275,327.0925,141.155
1451,326775,3.5567879999999996,2.002996,-4.3224599999999995,-116.025,170.0125,109.165
1452,326872,1.2012120000000002,1.921012,-3.083428,-69.1775,-113.6625,72.0475
1453,326969,-0.086132,1.248304,-1.735328,6.8075,-209.545,57.0325
1454,327067,-0.60268,0.5665680000000001,-0.9718521000000001,39.7075,-225.9775,56.5425
1455,327164,-0.468724,0.29768,-0.67588,19.005,-201.74,51.9575
1456,327261,0.020984,0.36722,-0.8693719999999999,-34.2475,-186.1825,31.4125
1457,327358,0.31232,0.638792,-1.054568,-83.16001,-203.805,0.6825
1458,327455,0.39113200000000004,0.8488761,-1.113616,-102.795,-239.7325,-29.3475
1459,327552,0.378444,0.9089001,-1.059204,-89.74,-272.1775,-53.3925
1460,327649,0.328424,0.8930401,-0.9730721,-58.31,-292.8975,-72.205
1461,327746,0.35843600000000003,0.7034521,-0.892308,-21.1575,-302.3125,-88.27
1462,327843,0.47213999999999995,0.44725200000000004,-0.8784,3.955,-307.72,-104.4225
1463,327940,0.5443640000000001,0.24936799999999998,-0.86498,7.805,-315.525,-121.3975
1464,328037,0.643672,0.13298,-0.88328,-3.535,-324.5375,-136.115
1465,328134,0.768112,0.1037,-0.9252481,-19.46,-333.2,-145.6525
1466,328231,0.898164,0.08954801,-0.985516,-31.2375,-341.74,-148.6975
1467,328328,1.02968,-0.001952,-1.025044,-39.3925,-349.895,-146.0025
1468,328426,1.1509479999999999,-0.140544,-1.047492,-52.185,-358.225,-140.665
1469,328523,1.253184,-0.22106399999999998,-1.085068,-74.9525,-366.45,-135.485
1470,328620,1.392996,-0.181536,-1.148508,-103.425,-372.9425,-130.4625
1471,328717,1.545008,0.046360000000000005,-1.239032,-126.875,-379.47,-124.985
1472,328814,1.685064,0.32208000000000003,-1.327848,-131.4775,-385.1575,-117.6875
1473,328911,1.821948,0.45286400000000004,-1.383968,-116.8125,-388.0275,-111.65
1474,329008,1.975424,0.434564,-1.391532,-99.64499,-388.115,-112.6825
1475,329105,2.1408560000000003,0.42578,-1.323456,-94.92,-385.455,-123.1825
1476,329202,2.3197080000000003,0.447984,-1.218292,-98.7875,-378.1575,-139.125
1477,329299,2.564684,0.388204,-1.0467600000000001,-103.845,-363.6325,-154.8925
1478,329396,2.818444,0.24912399999999998,-0.801296,-110.4075,-342.86,-167.16
1479,329493,2.960452,-0.16835999999999998,-0.48678,-120.7325,-315.6125,-175.8925
1480,329590,3.087332,-0.506788,-0.174704,-141.155,-280.0,-183.6625
1481,329687,3.2530080000000003,-0.564616,0.08637601,-160.9475,-241.22,-186.4625
1482,329784,3.4160000000000004,-0.24351199999999998,0.290848,-144.06,-201.5475,-181.3
1483,329881,3.3637839999999994,-0.058316,0.711504,-63.4725,-161.98,-165.025
1484,329979,3.329624,-0.7625,1.352492,53.9525,-116.3925,-141.9775
1485,330076,3.764188,-1.8766040000000002,2.1533,114.8175,-67.76,-120.085
1486,330173,3.499448,-2.201368,2.550288,68.67,-26.775,-88.935
1487,330270,2.8618759999999996,-1.677744,2.24968,-7.7875,28.0525,-34.9825
1488,330367,2.483188,1.2968600000000001,0.9225639999999999,-5.3025,128.6425,51.8875
1489,330464,-1.794864,-0.6897880999999999,1.114104,220.815,274.82,156.6425
1490,330561,0.17934,0.215696,-2.606652,178.885,417.7425,198.94
1491,330658,2.86578,-1.334192,-0.077592,129.465,398.0375,131.04
1492,330755,2.974848,-0.6170760000000001,-1.3290680000000001,105.175,403.0775,92.75001
1493,330852,4.0667480000000005,-0.6505041,-2.6571599999999997,89.355,363.825,73.4825
1494,330949,4.023316,1.5669680000000001,-3.715632,75.915,235.7075,63.315
1495,331046,1.301984,0.060024,-0.754204,163.31,89.39,73.4825
1496,331143,0.364536,-0.248392,-1.158512,122.57,42.4725,48.3525
1497,331240,1.098732,-0.43773599999999996,-0.9764879999999999,108.675,38.3775,44.1875
1498,331338,1.456436,-0.14396,-0.9023121,73.4125,-3.7625,46.795
1499,331435,0.488,0.12761199999999998,-0.8544879999999999,39.5675,-23.3275,30.345
1500,331532,0.57828,0.163968,-0.8527800999999999,30.2925,-16.9225,23.38
1501,331629,0.570716,0.027327999999999998,-0.874984,25.725,-10.1325,20.4925
1502,331726,0.5502199999999999,0.039528,-0.8466800999999999,16.6775,-5.88,14.0175
1503,331823,0.568764,0.15006,-0.849852,10.4125,-3.0625,9.555
1504,331920,0.573156,0.045872,-0.8410681000000001,10.92,-3.1325,9.2575
1505,332017,0.5185,0.10833599999999999,-0.873764,8.1025,-3.3775,7.595
1506,332114,0.540704,0.08344800000000001,-0.8549761,6.51,-1.2775,5.775
1507,332211,0.538752,0.14005599999999999,-0.8461921,4.1125,1.295,5.0225
1508,332308,0.548024,0.148108,-0.836676,3.675,2.135,5.145
1509,332405,0.549488,0.156892,-0.8332601000000001,4.3925,2.205,5.6
1510,332502,0.549488,0.12029200000000001,-0.826672,5.635,1.995,6.1075
1511,332599,0.544608,0.155184,-0.8364321,5.425,1.1725,7.4375
1512,332697,0.549732,0.156892,-0.8337481,6.23,-0.035,10.3425
1513,332794,0.5607121,0.12175599999999999,-0.8310639999999999,7.3675,-1.3125,12.7925
1514,332891,0.5455840000000001,0.101504,-0.8337481,7.3675,-2.38,13.0025
1515,332988,0.5502199999999999,0.079056,-0.830576,7.315,-2.485,11.4975
1516,333085,0.5458281,0.064416,-0.829356,6.5275,-2.135,9.345
1517,333182,0.535092,0.0793,-0.8335040000000001,5.005,-1.2075,6.6675
1518,333279,0.5458281,0.08344800000000001,-0.8298440999999999,3.99,0.175,4.7075
1519,333376,0.5441199999999999,0.08662001,-0.824232,3.3425,0.8575,3.605
1520,333473,0.552904,0.085888,-0.821792,2.905,1.365,3.0625
1521,333570,0.551928,0.09418401,-0.821304,2.6775,1.54,3.3775
1522,333667,0.548268,0.0976,-0.826428,2.8,1.6275,4.375
1523,333764,0.5443640000000001,0.089304,-0.826916,2.87,1.82,5.6175
1524,333861,0.546804,0.079056,-0.826672,2.4675,2.2575,6.5625
1525,333958,0.54778,0.082716,-0.82594,1.6975,3.08,7.2275
1526,334055,0.551928,0.08369201,-0.8203280000000001,0.35,3.9375,7.9625
1527,334153,0.55632,0.09516001,-0.817156,-1.96,4.655,9.1175
1528,334250,0.542656,0.10931199999999999,-0.8308200000000001,-4.97,5.635,11.165
1529,334347,0.515084,0.08344800000000001,-0.853756,-5.495,7.735,13.3
1530,334444,0.516304,0.08003201,-0.8569280999999999,-4.76,11.9175,14.1225
1531,334541,0.5119121,0.08369201,-0.85644,-4.4275,17.3075,13.65
1532,334638,0.5060560000000001,0.072956,-0.8671761,-5.74,23.03,13.51
1533,334735,0.511668,0.07173600000000001,-0.8652241,-7.245,30.3975,13.475
1534,334832,0.513864,0.05563200000000001,-0.873276,-8.19,38.6925,12.3725
1535,334929,0.50508,0.062220000000000004,-0.8808401,-7.8925,47.7925,9.905
1536,335026,0.532652,0.045384,-0.889868,-7.5425,58.6425,6.5975
1537,335123,0.527772,0.041724000000000004,-0.8510719999999999,-7.385,71.68,3.4825
1538,335220,0.506544,0.057584,-0.8464360000000001,-9.6425,86.625,0.9625
1539,335317,0.531188,0.073688,-0.8571719999999999,-12.285,103.74,-0.525
1540,335414,0.537532,0.047580000000000004,-0.889136,-13.405,122.0625,-1.7675
1541,335511,0.5353359999999999,0.048556,-0.8596120999999999,-15.2075,142.6775,-4.1125
1542,335609,0.534848,0.08052000000000001,-0.8540000000000001,-17.675,167.58,-7.525
1543,335706,0.553636,0.16226,-0.9386681,-19.425,194.5825,-7.21
1544,335803,0.515572,0.178852,-0.9028,-15.0325,217.91,-0.9275
1545,335900,0.377956,0.193004,-0.954284,-10.045,249.865,9.1525
1546,335997,0.5170359999999999,0.28157600000000005,-0.9616040000000001,-1.855,287.735,20.0025
1547,336094,0.308172,0.320616,-0.908168,1.2075,327.25,28.21
1548,336191,0.9489161,0.398696,-1.16266,-7.7875,376.495,36.89
1549,336288,0.766892,0.666608,-1.33956,-14.35,433.755,55.615
1550,336385,2.202344,0.15274400000000002,-0.376248,37.345,469.2975,113.33
1551,336482,1.658956,0.665876,-2.073512,65.2575,551.53,151.76
1552,336579,2.145492,0.660752,-2.510272,23.6075,573.0725,172.4275
1553,336676,2.225768,0.987712,-2.383148,18.6025,534.6775,191.2225
1554,336773,3.0707400000000002,1.162172,-1.6814040000000001,33.075,462.8225,217.21
1555,336870,2.021052,1.062132,-2.714744,34.7375,472.0975,180.0575
1556,336967,0.6344,1.104832,-2.6047,23.4325,410.2525,173.355
1557,337065,2.045208,-0.183488,-1.809504,41.23,288.855,172.76
1558,337162,3.172488,1.232932,-4.345884,-54.8275,169.82,141.61
1559,337259,0.6039,1.4356959999999999,-2.612996,-95.09501,-104.1425,89.4075
1560,337356,-0.347456,1.198772,-1.536468,-78.9425,-174.8425,69.7725
1561,337453,-0.618052,0.8642481,-1.0077200000000002,-56.4725,-182.77,69.8425
1562,337550,-0.281332,0.793244,-0.887916,-54.705,-160.93,66.57
1563,337647,0.165188,0.833016,-1.047248,-68.8625,-162.96,45.15
1564,337744,0.25376,0.9150001,-1.072136,-85.54,-195.23,11.935
1565,337841,0.169824,0.9730721,-0.961116,-92.68001,-231.2625,-22.4525
1566,337938,0.154452,1.023336,-0.8930401,-81.725,-252.0525,-52.0625
1567,338035,0.25424800000000003,0.8930401,-0.8676640999999999,-55.3175,-260.75,-78.085
1568,338132,0.372832,0.6392800000000001,-0.8959681,-31.4825,-268.555,-104.2475
1569,338229,0.546072,0.40504,-0.956968,-24.1325,-279.125,-132.1075
1570,338326,0.684664,0.262544,-0.9860040999999999,-30.1175,-294.385,-158.55
1571,338424,0.7856801,0.132736,-0.989908,-38.2725,-310.8,-176.61
1572,338521,0.873764,-0.019032,-0.974292,-43.8725,-323.6275,-183.085
1573,338618,1.003816,-0.198128,-1.003084,-51.5025,-332.78,-179.4975
1574,338715,1.180472,-0.35672800000000005,-1.0711600000000001,-66.92,-340.0425,-171.2025
1575,338812,1.32126,-0.454084,-1.134844,-91.1575,-349.545,-161.6825
1576,338909,1.430328,-0.4331,-1.186816,-116.305,-360.255,-149.5725
1577,339006,1.532564,-0.348188,-1.2195120000000002,-131.425,-368.4275,-132.51
1578,339103,1.62626,-0.21813600000000002,-1.2458639999999999,-133.91,-372.9075,-111.9825
1579,339200,1.6967759999999998,-0.085156,-1.267336,-128.9225,-374.2725,-94.7625
1580,339297,1.7760759999999998,0.042944,-1.318332,-124.3025,-373.625,-88.2875
1581,339394,1.876116,0.174948,-1.3407799999999999,-122.745,-370.8075,-94.60501
1582,339491,1.9807919999999999,0.305244,-1.301252,-121.625,-365.575,-108.92
1583,339588,2.0693639999999998,0.36112,-1.198284,-116.7775,-355.775,-126.6825
1584,339685,2.2079560000000003,0.313784,-1.030412,-109.69,-337.9775,-144.445
1585,339782,2.412428,0.170068,-0.8203280000000001,-105.805,-313.215,-160.475
1586,339880,2.606164,-0.063196,-0.589992,-108.325,-284.06,-173.565
1587,339977,2.7772080000000003,-0.36892800000000003,-0.33428,-115.29,-252.315,-183.6275
1588,340074,2.945568,-0.550708,-0.03904,-122.745,-220.5525,-186.0425
1589,340171,3.005348,-0.5612,0.23301999999999998,-113.4875,-187.2675,-178.3425
1590,340268,2.852116,-0.486048,0.480192,-74.375,-151.9525,-161.315
1591,340365,2.770864,-0.8054439999999999,0.756888,-9.695,-110.6175,-141.9775
1592,340462,3.3523160000000005,-1.394216,1.2160959999999998,40.9325,-70.14,-125.1425
1593,340559,3.4301519999999996,-1.7101959999999998,1.7446,40.4425,-45.2725,-96.7575
1594,340656,2.820884,-1.6540759999999999,1.927844,12.6175,-13.86,-45.08
1595,340753,2.48392,-1.357372,1.64578,-9.6425,41.5625,16.1525
1596,340850,2.521252,-0.8996280999999999,0.9982040000000001,-18.0775,98.49,68.425
1597,340947,2.523692,-0.472384,0.424072,-14.28,132.51,102.41
1598,341044,-0.288652,2.603236,-2.9548400000000004,12.2325,152.6175,131.95
1599,341141,-2.0947400000000003,2.117676,-3.40136,235.445,199.57,179.2
1600,341238,-1.671888,0.493856,-0.32818,232.295,228.235,178.3425
1601,341335,1.4576559999999998,-1.788032,1.3144280000000002,199.675,315.7,108.9725
1602,341432,3.175904,-0.9450120000000001,-2.055456,135.0475,397.9325,41.7725
1603,341530,3.4982279999999997,-1.676036,-2.279692,121.59,320.3375,25.095
1604,341627,3.280092,1.0060120000000001,-3.2696,102.41,198.0125,64.0675
1605,341724,1.7216639999999999,0.483608,-1.054568,170.7125,83.65001,87.78
1606,341821,0.766892,-0.954284,-1.2141440000000001,133.98,23.555,50.6975
1607,341918,1.0650600000000001,-0.828868,-0.668316,84.5775,5.81,42.0175
1608,342015,0.925736,0.514596,-0.8610761,22.9775,-24.9025,34.4925
1609,342112,0.5355800999999999,-0.14688800000000002,-0.8967,29.715,-9.9925,11.34
1610,342209,0.646844,0.179584,-0.8640040000000001,14.21,-8.715,10.9375
1611,342306,0.548512,0.012444,-0.865468,9.5725,-4.025,5.145
1612,342403,0.534848,0.122244,-0.849852,3.955,-0.63,0.5775
1613,342500,0.543632,0.15128,-0.8476561,0.945,1.085,-0.0175
1614,342597,0.5631520000000001,0.089792,-0.8310639999999999,1.54,1.47,1.0675
1615,342694,0.5307,0.11126400000000002,-0.855708,-0.28,1.68,-0.315
1616,342791,0.529968,0.104676,-0.8527800999999999,-1.75,3.6225,-1.96
1617,342888,0.5292359999999999,0.12980799999999998,-0.845216,-2.905,6.335,-2.905
1618,342985,0.55266,0.149328,-0.8322841000000001,-3.36,7.98,-3.465
1619,343082,0.538996,0.1647,-0.834724,-2.485,8.3825,-3.2725
1620,343179,0.5489999999999999,0.128344,-0.828624,-1.1725,8.68,-2.485
1621,343276,0.5282600000000001,0.125904,-0.8410681000000001,-0.9975,8.8725,-1.505
1622,343374,0.543876,0.12248800000000001,-0.8388721,-1.5225,9.6775,-0.2625
1623,343471,0.548512,0.137372,-0.8335040000000001,-1.8025,10.2025,0.875
1624,343568,0.5653481,0.137372,-0.8239880999999999,-1.6975,10.1325,1.8375
1625,343665,0.560956,0.1159,-0.8298440999999999,-1.3475,9.4675,1.785
1626,343762,0.55388,0.11541199999999999,-0.8276481,-1.47,8.365,1.19
1627,343859,0.561932,0.11955999999999999,-0.81984,-1.575,7.6825,0.8575
1628,343956,0.559004,0.125904,-0.822524,-1.6625,7.1925,1.015
1629,344053,0.567056,0.126392,-0.817156,-1.435,6.9125,1.3475
1630,344150,0.564616,0.133224,-0.813008,-1.1725,6.37,1.9075
1631,344247,0.5631520000000001,0.13859200000000002,-0.81618,-0.9625,5.845,3.3075
1632,344344,0.569984,0.131272,-0.80886,-0.4025,4.9875,5.25
1633,344441,0.58316,0.118096,-0.800564,-0.665,3.6925,6.79
1634,344538,0.582916,0.124928,-0.7993439999999999,-1.715,2.345,8.085
1635,344635,0.5795,0.130052,-0.8015399999999999,-2.6425,1.365,9.4675
1636,344732,0.578036,0.115168,-0.8025161,-3.2025,0.6125,11.0075
1637,344829,0.5665680000000001,0.104432,-0.8076399999999999,-4.0425,0.42,11.76
1638,344926,0.5575399999999999,0.09272000000000001,-0.813008,-5.005,1.2775,11.0075
1639,345023,0.548268,0.091012,-0.8222799999999999,-6.09,2.87,9.695
1640,345120,0.537044,0.10931199999999999,-0.8361879999999999,-7.105,5.355,8.085
1641,345218,0.53314,0.096624,-0.841556,-6.4575,9.135,7.07
1642,345315,0.527284,0.112728,-0.8437520000000001,-6.86,13.9475,6.51
1643,345412,0.522648,0.10833599999999999,-0.8481440999999998,-8.4175,19.6,6.055
1644,345509,0.525576,0.105896,-0.849852,-9.3275,25.8475,5.3375
1645,345606,0.528748,0.08906,-0.876692,-9.8875,33.7575,3.9375
1646,345703,0.525576,0.09906401,-0.8725440999999999,-10.2725,43.1375,1.89
1647,345800,0.537288,0.122244,-0.889868,-10.7625,54.2675,0.5075
1648,345897,0.5511961,0.149084,-0.8918200000000001,-11.7075,67.095,0.595
1649,345994,0.5392399999999999,0.135176,-0.8576601,-12.04,81.4275,2.275
1650,346091,0.576572,0.071492,-0.846924,-12.5475,96.86251,3.5175
1651,346188,0.5594920999999999,0.06880801,-0.8335040000000001,-14.35,113.19,2.905
1652,346285,0.558516,0.086132,-0.832528,-18.5675,133.0875,-0.0525
1653,346382,0.558028,0.10516400000000001,-0.845216,-21.665,155.575,-2.4325
1654,346479,0.5192319999999999,0.10736,-0.801784,-20.58,175.14,-2.695
1655,346576,0.469944,0.133956,-0.853756,-20.8075,197.4875,-0.28
1656,346673,0.31646799999999997,0.143716,-0.9030440000000001,-20.545,227.1675,2.1
1657,346770,0.5072760000000001,0.21618400000000002,-0.964532,-16.45,264.74,6.58
1658,346868,0.5648601,0.30353600000000003,-0.883036,-16.9575,301.7,7.7175
1659,346965,0.576572,0.5282600000000001,-1.3029600000000001,-24.325,347.9175,6.2475
1660,347062,0.582428,0.366244,-1.250744,9.3625,389.6025,23.205
1661,347159,0.706624,0.467504,-1.063352,41.1775,420.7,57.925
1662,347256,2.197952,0.243024,-1.198528,81.865,479.8675,88.09501
1663,347353,2.065216,0.40504,-1.802184,71.3825,559.895,94.23751
1664,347450,1.868796,0.588284,-1.82512,15.1025,559.44,105.7525
1665,347547,2.273592,0.680028,-1.6750599999999998,-13.1075,518.1575,139.265
1666,347644,3.2095759999999998,1.250988,-1.902468,-4.83,469.5075,151.06
1667,347741,1.358592,0.736392,-2.302384,-6.615,472.5875,101.115
1668,347838,0.273036,0.5577840000000001,-2.13988,-25.2875,411.4425,106.6275
1669,347935,2.644472,0.356484,-2.398032,-37.17,307.72,118.195
1670,348032,3.103436,1.608692,-4.058696,-72.8875,165.6725,97.8775
1671,348129,1.0187,1.345172,-2.724504,-36.4525,-88.97,70.42
1672,348226,-0.07612801,0.8332601000000001,-1.508652,9.7475,-180.6875,58.9575
1673,348324,-0.47702,0.337696,-0.854244,24.9375,-198.7825,66.99
1674,348421,-0.404552,0.292068,-0.61854,6.9475,-179.4275,78.1025
1675,348518,0.022448,0.5002,-0.777384,-24.045,-165.025,75.88
1676,348615,0.320616,0.7829961,-0.969412,-44.4325,-179.5325,58.7125
1677,348712,0.337452,0.9384239999999999,-0.9857600000000001,-44.1,-214.655,32.585
1678,348809,0.252052,0.9589200999999999,-0.8786440999999999,-27.265,-247.66,5.18
1679,348906,0.200324,0.966484,-0.782508,-1.9075,-267.19,-19.95
1680,349003,0.24326799999999998,0.7881199999999999,-0.732244,27.9825,-274.61,-42.805
1681,349100,0.36234,0.567788,-0.725168,44.03,-279.9825,-67.1475
1682,349197,0.48922,0.423828,-0.7373681,40.495,-289.0825,-95.07751
1683,349294,0.5917,0.379664,-0.7522521,26.845,-301.035,-121.8175
1684,349391,0.6893,0.367708,-0.7388319999999999,15.855,-312.0075,-141.6275
1685,349488,0.797148,0.340868,-0.738344,11.795,-320.2675,-151.9525
1686,349585,0.904752,0.2623,-0.757376,10.7975,-325.535,-154.315
1687,349682,1.033096,0.174948,-0.819108,4.97,-329.5775,-153.16
1688,349779,1.214876,0.126636,-0.9023121,-9.275,-334.2325,-151.97
1689,349877,1.3949479999999999,0.17568,-0.97478,-28.8925,-341.9325,-150.5875
1690,349974,1.554036,0.34892,-1.042856,-44.625,-351.5925,-146.9125
