,T,ax,ay,az,gx,gy,gz
0,9219498,0.871934,-0.0793,-0.079544,19.0575,-16.8875,-15.05
1,9219654,0.9247601000000001,-0.08808401,-0.202764,16.66,11.305,-207.515
2,9219752,0.998692,-0.105896,-0.225944,-86.32751,39.865,-273.4375
3,9219850,0.981124,-0.104066,-0.246196,0.21,-76.9475,-88.7425
4,9219948,0.9762440999999998,-0.103822,-0.260592,-21.3675,6.6325,-10.9025
5,9220046,0.9779521000000001,-0.09589201,-0.267912,-28.035,19.1275,-6.3875
6,9220144,0.9751460999999999,-0.067832,-0.26413000000000003,-33.0925,25.655,-6.615
7,9220241,0.9769760000000001,-0.039284,-0.262178,-33.2675,30.1175,-6.0375
8,9220339,0.962458,-0.031598,-0.225944,-30.03,32.6725,-4.9875
9,9220437,0.934276,-0.034648000000000005,-0.137982,-29.645,36.1725,-4.34
10,9220535,0.8314301,-0.001586,0.04867801,-32.7075,41.2475,-5.005
11,9220633,1.044686,-0.025254,0.040260000000000004,-17.325,38.675,-4.69
12,9220731,1.040416,-0.05002,-0.129076,-2.87,5.1975,-4.48
13,9220829,1.00223,-0.053070000000000006,-0.190198,-5.39,-8.505,-4.6375
14,9220927,0.9791719999999999,-0.053191999999999996,-0.18727,-5.53,-6.6325,-4.3225
15,9221025,0.979294,-0.05246,-0.17629,-5.145,-4.0425,-4.375
16,9221123,0.9853940999999999,-0.0488,-0.163602,-4.0775,-3.6575,-4.4625
17,9221221,0.9901521000000001,-0.047458,-0.15701400000000001,-2.835,-4.8475,-4.48
18,9221318,0.9946659999999999,-0.050263999999999996,-0.154696,-2.17,-6.5275,-4.3925
19,9221416,0.9985700999999999,-0.05209400000000001,-0.15189,-2.0825,-7.98,-4.2525
20,9221514,1.000888,-0.052216,-0.147376,-1.89,-9.065,-4.375
21,9221612,0.998814,-0.053191999999999996,-0.146156,-1.715,-10.255,-4.4275
22,9221710,0.999668,-0.05355801,-0.142618,-1.26,-11.41,-4.5325
23,9221808,0.9999121,-0.053191999999999996,-0.141154,-0.945,-12.18,-4.6025
24,9221906,0.9972281,-0.055265999999999996,-0.14396,-0.945,-12.565,-4.4975
25,9222004,0.992592,-0.057096,-0.14164200000000002,-0.805,-12.495,-4.4625
26,9222102,0.9889319999999999,-0.056974000000000004,-0.14310599999999998,-0.7175,-12.775,-4.305
27,9222200,0.9823440999999999,-0.056729999999999996,-0.141764,-0.77,-12.8625,-4.3225
28,9222298,0.975024,-0.057584,-0.14701,-0.8225,-12.9675,-4.2875
29,9222395,0.968924,-0.061,-0.149206,-0.6825,-12.95,-4.2525
30,9222493,0.9638,-0.061,-0.154452,-0.5775,-12.7225,-4.1125
31,9222591,0.9612379999999999,-0.062098,-0.156404,-0.4725,-12.1625,-4.0425
32,9222689,0.960384,-0.06112201,-0.156892,-0.2275,-11.6025,-3.9375
33,9222787,0.9608721,-0.060024,-0.159698,-0.0525,-11.235,-3.99
34,9222885,0.9619700000000001,-0.059048,-0.157502,0.0875,-10.955,-3.85
35,9222983,0.9605060999999999,-0.05770599999999999,-0.156404,-0.105,-10.7625,-3.9025
36,9223081,0.9585541,-0.05648601,-0.156892,-0.28,-10.5875,-3.885
37,9223179,0.9572120999999999,-0.058803999999999995,-0.15982000000000002,-0.3325,-10.255,-4.025
38,9223277,0.955016,-0.06344,-0.15823399999999999,-0.4725,-9.87,-4.0425
39,9223375,0.9561139999999999,-0.066124,-0.158966,-0.49,-9.38,-4.0775
40,9223473,0.958432,-0.06661201,-0.15725799999999998,-0.6475,-8.82,-4.0075
41,9223570,0.9602620999999999,-0.06588,-0.15506199999999998,-0.63,-8.435,-3.9725
42,9223668,0.9618481,-0.06405001,-0.152256,-0.5775,-8.05,-3.9025
43,9223766,0.9646541,-0.06270801,-0.14993800000000002,-0.7875,-7.665,-3.675
44,9223864,0.96624,-0.061366,-0.14713199999999999,-0.91,-7.385,-3.745
45,9223962,0.9675819999999999,-0.057339999999999995,-0.149206,-0.875,-7.28,-3.675
46,9224060,0.968924,-0.055388,-0.14871800000000002,-0.5075,-6.8775,-3.57
47,9224158,0.9696561,-0.053070000000000006,-0.146644,-0.1575,-6.545,-3.6575
48,9224256,0.9718521000000001,-0.052582000000000004,-0.148108,0.1925,-6.37,-3.675
49,9224354,0.975878,-0.05172801,-0.149816,0.6475,-6.0725,-3.535
50,9224452,0.978074,-0.052338,-0.148474,1.015,-5.7925,-3.57
51,9224550,0.979294,-0.05429,-0.147498,1.225,-5.635,-3.7275
52,9224648,0.9774639999999999,-0.055998,-0.147498,1.3475,-5.81,-3.9375
53,9224745,0.978074,-0.05770599999999999,-0.149694,1.365,-5.67,-4.1825
54,9224843,0.975878,-0.05856,-0.15237799999999999,1.575,-5.74,-4.235
55,9224941,0.975024,-0.062586,-0.15176800000000001,1.715,-5.6525,-4.34
56,9225039,0.971242,-0.064294,-0.15396400000000002,1.855,-5.5825,-4.3575
57,9225137,0.9703879999999999,-0.06356201,-0.15494000000000002,1.8375,-5.4775,-4.3925
58,9225235,0.9713639999999999,-0.06563601,-0.15506199999999998,1.7675,-5.2675,-4.3925
59,9225333,0.9752681000000001,-0.064172,-0.15494000000000002,1.785,-5.1975,-4.48
60,9225431,0.9762440999999998,-0.064172,-0.15616,1.855,-5.3025,-4.4625
61,9225529,0.976,-0.065148,-0.154452,1.6975,-5.32,-4.3225
62,9225627,0.9757561,-0.066978,-0.153598,1.6975,-5.4075,-4.1125
63,9225725,0.9741700000000001,-0.067832,-0.153842,1.7675,-5.495,-3.9725
64,9225823,0.973316,-0.067222,-0.15506199999999998,1.6975,-5.39,-3.7625
65,9225920,0.974658,-0.066246,-0.156648,1.7325,-5.355,-3.7275
66,9226018,0.975878,-0.068686,-0.154574,1.75,-5.3725,-3.71
67,9226116,0.976366,-0.068686,-0.15433,1.68,-5.3725,-3.6575
68,9226214,0.97783,-0.069784,-0.15420799999999998,1.68,-5.5825,-3.675
69,9226312,0.9769760000000001,-0.074054,-0.155184,1.785,-5.9325,-3.5175
70,9226410,0.9768540000000001,-0.07246799999999999,-0.154452,1.8375,-6.125,-3.465
71,9226508,0.97783,-0.072102,-0.15311,1.855,-6.3,-3.29
72,9226606,0.9775860000000001,-0.074298,-0.153476,1.8725,-6.44,-3.3075
73,9226704,0.9784401,-0.07710399999999999,-0.155184,1.6975,-6.5975,-3.255
74,9226802,0.978318,-0.07686,-0.15616,1.47,-6.72,-3.43
75,9226900,0.976366,-0.077836,-0.155306,1.33,-6.7375,-3.57
76,9226998,0.9752681000000001,-0.07698201,-0.155306,1.155,-6.9125,-3.885
77,9227096,0.971974,-0.07832401,-0.156892,0.7875,-7.0525,-4.025
78,9227193,0.9740479999999999,-0.07832401,-0.158844,0.5775,-7.035,-4.025
79,9227291,0.9720960999999999,-0.08052000000000001,-0.158356,0.28,-7.1575,-3.9725
80,9227389,0.973194,-0.081496,-0.158356,-0.035,-7.105,-4.0425
81,9227487,0.9736819999999999,-0.08357,-0.157136,-0.385,-7.0875,-3.99
82,9227585,0.976,-0.08064199,-0.15738,-0.875,-7.105,-3.9025
83,9227683,0.977342,-0.08052000000000001,-0.157502,-1.2425,-7.14,-3.78
84,9227781,0.9770981,-0.07856801,-0.15701400000000001,-1.61,-7.175,-3.815
85,9227879,0.9764879999999999,-0.077592,-0.154818,-1.7325,-7.14,-3.7975
86,9227977,0.97478,-0.07686,-0.155916,-1.9425,-7.0525,-3.6925
87,9228074,0.9736819999999999,-0.07747001,-0.155428,-2.0125,-7.245,-3.675
88,9228172,0.9697780999999999,-0.079056,-0.155306,-2.275,-7.2625,-3.815
89,9228270,0.9697780999999999,-0.0793,-0.154574,-2.59,-7.2625,-3.9375
90,9228368,0.9700219999999999,-0.0793,-0.158356,-2.695,-7.1925,-3.955
91,9228466,0.9696561,-0.077836,-0.158112,-2.905,-7.0175,-3.8675
92,9228564,0.971242,-0.07588400000000001,-0.15701400000000001,-3.01,-6.825,-3.9025
93,9228662,0.969046,-0.07442,-0.15725799999999998,-3.1325,-6.6675,-3.9375
94,9228760,0.9680700000000001,-0.07283401,-0.15921,-3.185,-6.615,-4.025
95,9228857,0.966484,-0.07173600000000001,-0.159088,-3.2025,-6.405,-4.0775
96,9228955,0.965996,-0.07027201,-0.160918,-3.2725,-6.3175,-4.235
97,9229053,0.9675819999999999,-0.07137001,-0.161406,-3.255,-6.09,-4.375
98,9229151,0.9684360999999999,-0.07259,-0.160552,-3.2725,-5.8975,-4.34
99,9229249,0.9699,-0.07417601,-0.159942,-3.3775,-5.81,-4.41
100,9229347,0.9711200999999999,-0.07600599999999999,-0.159942,-3.5175,-5.6875,-4.2875
101,9229445,0.9707541,-0.076738,-0.160064,-3.5525,-5.7575,-4.3575
102,9229543,0.9707541,-0.07710399999999999,-0.15823399999999999,-3.675,-5.7925,-4.235
103,9229640,0.9702661,-0.07747001,-0.15725799999999998,-3.7625,-5.7225,-4.2175
104,9229738,0.97173,-0.07490801,-0.1586,-3.71,-5.6875,-4.13
105,9229836,0.969534,-0.072712,-0.15799000000000002,-3.6225,-5.7225,-4.165
106,9229934,0.9699,-0.06892999999999999,-0.156892,-3.5875,-5.53,-4.2
107,9230032,0.968924,-0.07027201,-0.156892,-3.675,-5.5475,-4.2525
108,9230130,0.9707541,-0.07076001,-0.157136,-3.6575,-5.5125,-4.2875
109,9230228,0.9699,-0.074054,-0.159088,-3.4825,-5.53,-4.2525
110,9230326,0.9700219999999999,-0.07564,-0.1586,-3.5875,-5.5475,-4.3225
111,9230423,0.9713639999999999,-0.07625,-0.157746,-3.6925,-5.4775,-4.2525
112,9230521,0.9696561,-0.077714,-0.156648,-3.78,-5.32,-4.1825
113,9230619,0.9703879999999999,-0.07600599999999999,-0.15725799999999998,-3.745,-5.3375,-4.27
114,9230717,0.9697780999999999,-0.07612801,-0.15799000000000002,-3.745,-5.53,-4.34
115,9230815,0.9703879999999999,-0.075396,-0.161406,-3.78,-5.565,-4.34
116,9230913,0.9713639999999999,-0.07490801,-0.16165,-3.815,-5.3375,-4.3575
117,9231011,0.9711200999999999,-0.07417601,-0.161894,-3.57,-5.1275,-4.3575
118,9231109,0.9707541,-0.07283401,-0.161894,-3.3775,-5.04,-4.27
119,9231206,0.9686799999999999,-0.071248,-0.16043,-2.975,-5.04,-4.34
120,9231304,0.9679481,-0.071492,-0.16104000000000002,-2.59,-5.1275,-4.48
121,9231402,0.9688021000000001,-0.071004,-0.159942,-2.31,-5.215,-4.4275
122,9231500,0.9718521000000001,-0.071004,-0.158112,-2.1525,-5.3725,-4.62
123,9231598,0.9740479999999999,-0.07234600000000001,-0.15506199999999998,-2.1175,-5.3025,-4.62
124,9231696,0.9757561,-0.07344400000000001,-0.154696,-2.0475,-5.215,-4.795
125,9231794,0.975024,-0.07332201,-0.154818,-2.065,-5.2675,-4.9175
126,9231892,0.9769760000000001,-0.07234600000000001,-0.155428,-2.03,-5.39,-4.865
127,9231990,0.9768540000000001,-0.07234600000000001,-0.15494000000000002,-1.995,-5.4775,-4.76
128,9232087,0.9775860000000001,-0.071614,-0.156404,-1.855,-5.5475,-4.655
129,9232185,0.9779521000000001,-0.07393200000000001,-0.15579400000000002,-1.6975,-5.67,-4.6025
130,9232283,0.9779521000000001,-0.07283401,-0.15494000000000002,-1.5225,-5.6175,-4.4625
131,9232381,0.975634,-0.07076001,-0.153354,-1.4175,-5.81,-4.48
132,9232479,0.975512,-0.07076001,-0.15396400000000002,-1.365,-5.9325,-4.55
133,9232577,0.974292,-0.07015,-0.156526,-1.2075,-6.1075,-4.585
134,9232675,0.9752681000000001,-0.070638,-0.155916,-1.015,-6.23,-4.69
135,9232773,0.976,-0.06954,-0.155916,-0.8575,-6.09,-4.7425
136,9232870,0.976,-0.069784,-0.15494000000000002,-0.7,-6.195,-4.76
137,9232968,0.9751460999999999,-0.06929600000000001,-0.15799000000000002,-0.63,-6.195,-4.83
138,9233066,0.9714860000000001,-0.07027201,-0.155916,-0.665,-6.2825,-4.865
139,9233164,0.9699,-0.07027201,-0.156648,-0.6825,-6.4225,-4.9175
140,9233262,0.9711200999999999,-0.070882,-0.15579400000000002,-0.56,-6.4575,-4.9525
141,9233360,0.9740479999999999,-0.072712,-0.154818,-0.6475,-6.4225,-5.04
142,9233458,0.9741700000000001,-0.07417601,-0.152866,-0.805,-6.2475,-4.97
143,9233556,0.9745360000000001,-0.07417601,-0.15237799999999999,-0.91,-6.16,-4.97
144,9233654,0.971974,-0.07698201,-0.151646,-1.1375,-5.9675,-5.145
145,9233751,0.9703879999999999,-0.07747001,-0.156648,-1.4,-6.0375,-5.2325
146,9233849,0.9703879999999999,-0.07698201,-0.158356,-1.435,-6.195,-5.285
147,9233947,0.9711200999999999,-0.07417601,-0.157868,-1.4,-6.1425,-5.2675
148,9234045,0.97478,-0.069784,-0.155306,-1.47,-6.02,-5.215
149,9234143,0.977342,-0.066978,-0.155916,-1.4875,-5.985,-5.1625
150,9234241,0.97783,-0.06819800000000001,-0.153598,-1.47,-5.845,-5.075
151,9234339,0.9762440999999998,-0.068564,-0.152988,-1.4175,-5.95,-4.97
152,9234437,0.9718521000000001,-0.07222401,-0.151524,-1.26,-6.055,-5.0225
153,9234534,0.9720960999999999,-0.07344400000000001,-0.15420799999999998,-1.2075,-6.23,-5.0225
154,9234632,0.9703879999999999,-0.074298,-0.15701400000000001,-1.155,-6.1775,-5.005
155,9234730,0.9699,-0.0732,-0.157868,-1.0325,-6.055,-4.935
156,9234828,0.9711200999999999,-0.07222401,-0.156648,-0.8925,-6.02,-5.005
157,9234926,0.9720960999999999,-0.069906,-0.15555,-0.8400001,-5.88,-4.9875
158,9235024,0.9713639999999999,-0.06880801,-0.155916,-0.7875,-5.915,-5.1625
159,9235122,0.971974,-0.066978,-0.15762400000000001,-0.63,-5.8975,-5.25
160,9235220,0.972218,-0.06490399999999999,-0.15677,-0.4725,-5.705,-5.2675
161,9235317,0.9729501,-0.06563601,-0.154696,-0.385,-5.6,-5.285
162,9235415,0.974658,-0.065148,-0.15494000000000002,-0.3325,-5.5475,-5.32
163,9235513,0.9736819999999999,-0.06588,-0.15738,-0.1225,-5.565,-5.3375
164,9235611,0.9745360000000001,-0.06600201,-0.156526,-0.0525,-5.5825,-5.3375
165,9235709,0.9753901,-0.067222,-0.15616,-0.1925,-5.3725,-5.5125
166,9235807,0.9757561,-0.068442,-0.15677,-0.2275,-5.495,-5.46
167,9235905,0.97356,-0.067222,-0.156282,-0.2625,-5.5825,-5.3725
168,9236003,0.9725841000000001,-0.06600201,-0.158478,-0.2975,-5.5125,-5.32
169,9236100,0.9705101,-0.066734,-0.158844,-0.245,-5.5125,-5.25
170,9236198,0.9675819999999999,-0.06771001,-0.160796,-0.21,-5.4075,-5.25
171,9236296,0.968924,-0.06636801,-0.162382,-0.175,-5.39,-5.285
172,9236394,0.9699,-0.066734,-0.161772,-0.2275,-5.25,-5.3725
173,9236492,0.9705101,-0.06636801,-0.161162,-0.3325,-5.1275,-5.3025
174,9236590,0.9706319999999999,-0.066978,-0.160918,-0.28,-5.1625,-5.215
175,9236688,0.9707541,-0.0671,-0.16043,-0.245,-5.2675,-5.2675
176,9236786,0.9699,-0.0671,-0.16201600000000002,-0.35,-5.3725,-5.32
177,9236883,0.969412,-0.06661201,-0.16104000000000002,-0.5075,-5.2325,-5.3725
178,9236981,0.9688021000000001,-0.066246,-0.16165,-0.6825,-5.0925,-5.4775
179,9237079,0.9696561,-0.06588,-0.162748,-0.8575,-4.9525,-5.635
180,9237177,0.96929,-0.06563601,-0.163358,-0.9975,-4.8475,-5.775
181,9237275,0.9684360999999999,-0.06490399999999999,-0.161162,-1.2075,-4.8125,-5.7225
182,9237373,0.9696561,-0.064172,-0.159698,-1.435,-4.655,-5.81
183,9237471,0.9708760000000001,-0.063318,-0.159942,-1.4525,-4.5675,-5.915
184,9237569,0.9691681000000001,-0.063074,-0.160186,-1.5575,-4.3925,-5.985
185,9237667,0.9701440999999998,-0.06405001,-0.158722,-1.715,-4.3925,-5.8975
186,9237765,0.9709979999999999,-0.06380599999999999,-0.158722,-1.7675,-4.48,-5.7575
187,9237862,0.9718521000000001,-0.066246,-0.159332,-1.89,-4.4275,-5.565
188,9237960,0.9720960999999999,-0.065026,-0.159088,-1.9425,-4.305,-5.495
189,9238058,0.9718521000000001,-0.066246,-0.159698,-2.1525,-4.305,-5.425
190,9238156,0.9739261,-0.064782,-0.159698,-2.17,-4.2875,-5.4075
191,9238254,0.973316,-0.061854,-0.1586,-2.03,-4.2525,-5.3375
192,9238352,0.972218,-0.061488,-0.15921,-1.9775,-4.27,-5.1975
193,9238450,0.9706319999999999,-0.061488,-0.157868,-2.065,-4.165,-5.11
194,9238548,0.9708760000000001,-0.06039,-0.1586,-2.1525,-4.1825,-5.11
195,9238646,0.9709979999999999,-0.057462,-0.15762400000000001,-2.135,-4.0075,-5.145
196,9238743,0.9709979999999999,-0.057218,-0.156648,-2.205,-3.99,-5.2325
197,9238841,0.9702661,-0.056974000000000004,-0.15616,-2.205,-4.1825,-5.3725
198,9238939,0.9707541,-0.058072000000000006,-0.154818,-2.17,-4.0775,-5.39
199,9239037,0.9711200999999999,-0.058682000000000005,-0.155672,-2.0125,-4.06,-5.425
200,9239135,0.9705101,-0.05929201,-0.156038,-1.8025,-3.955,-5.4775
201,9239233,0.9725841000000001,-0.05795,-0.155306,-1.7675,-3.9375,-5.565
202,9239331,0.9720960999999999,-0.05770599999999999,-0.15311,-1.8025,-3.64,-5.6875
203,9239429,0.97234,-0.057584,-0.152256,-1.6975,-3.605,-5.7225
204,9239527,0.972706,-0.055265999999999996,-0.15176800000000001,-1.47,-3.64,-5.915
205,9239625,0.97478,-0.055265999999999996,-0.149816,-1.3475,-3.745,-5.915
206,9239722,0.9762440999999998,-0.057096,-0.14762,-1.4175,-3.745,-5.915
207,9239820,0.978074,-0.054778,-0.14469200000000002,-1.4,-3.71,-5.8275
208,9239918,0.9784401,-0.05612,-0.142984,-1.3475,-3.675,-5.8625
209,9240016,0.978684,-0.05636401,-0.14188599999999998,-1.365,-3.605,-5.8975
210,9240114,0.9801479999999999,-0.05648601,-0.142374,-1.3475,-3.605,-5.8975
211,9240212,0.9817341,-0.055510000000000004,-0.14188599999999998,-1.2425,-3.7975,-5.7925
212,9240310,0.9862479999999999,-0.056852,-0.138958,-1.085,-4.025,-5.6875
213,9240408,0.9890540000000001,-0.055022,-0.13542,-1.085,-4.4625,-5.4075
214,9240506,0.9901521000000001,-0.054778,-0.135908,-0.9625,-4.7425,-5.0575
215,9240604,0.989176,-0.055265999999999996,-0.134322,-0.9625,-4.97,-4.725
216,9240702,0.9873460999999999,-0.056729999999999996,-0.135542,-1.19,-5.1275,-4.4975
217,9240799,0.9833200000000001,-0.058926,-0.13859200000000002,-1.2775,-5.425,-4.2525
218,9240897,0.978684,-0.06124401,-0.140178,-1.365,-5.46,-4.235
219,9240995,0.9745360000000001,-0.061488,-0.144326,-1.3125,-5.53,-4.2
220,9241093,0.972706,-0.060877999999999995,-0.144326,-1.33,-5.53,-4.165
221,9241191,0.9720960999999999,-0.060267999999999995,-0.145912,-1.33,-5.4425,-4.095
222,9241289,0.971242,-0.058072000000000006,-0.146034,-1.19,-5.4075,-4.1125
223,9241387,0.972706,-0.056729999999999996,-0.148596,-1.1725,-5.355,-4.025
224,9241485,0.9730721,-0.053801999999999996,-0.14945,-1.155,-5.32,-4.0075
225,9241583,0.9720960999999999,-0.055022,-0.14993800000000002,-1.12,-5.25,-3.9375
226,9241681,0.97173,-0.05563200000000001,-0.151402,-1.19,-5.1625,-3.92
227,9241779,0.9707541,-0.05795,-0.15311,-1.1725,-5.1275,-3.92
228,9241877,0.9702661,-0.058803999999999995,-0.15176800000000001,-1.155,-4.9875,-3.9025
229,9241975,0.9688021000000001,-0.060634,-0.151646,-1.2075,-4.9,-3.9025
230,9242073,0.9700219999999999,-0.061732,-0.14945,-1.3125,-4.8475,-3.955
231,9242170,0.9703879999999999,-0.06124401,-0.148474,-1.4,-4.795,-3.9725
232,9242268,0.9739261,-0.05977999999999999,-0.148474,-1.575,-4.83,-4.13
233,9242366,0.9744141,-0.058316,-0.146034,-1.61,-4.9175,-4.1125
234,9242464,0.975878,-0.057584,-0.144082,-1.6975,-4.9525,-4.235
235,9242562,0.979416,-0.057339999999999995,-0.143716,-1.855,-5.145,-4.27
236,9242660,0.9801479999999999,-0.057462,-0.141154,-1.925,-5.215,-4.235
237,9242758,0.981978,-0.05624199999999999,-0.140544,-1.96,-5.145,-4.2
238,9242856,0.9827101,-0.057096,-0.141276,-2.1,-5.25,-4.0775
239,9242954,0.9784401,-0.055754,-0.141276,-2.2575,-5.32,-4.0425
240,9243052,0.976366,-0.055144000000000006,-0.144448,-2.3275,-5.425,-4.095
241,9243150,0.9774639999999999,-0.055998,-0.146034,-2.3275,-5.46,-4.2
242,9243247,0.9772200999999999,-0.05453401,-0.146766,-2.31,-5.425,-4.2175
243,9243345,0.978806,-0.052826,-0.144814,-2.345,-5.495,-4.13
244,9243443,0.9777081,-0.053191999999999996,-0.144204,-2.17,-5.53,-4.1475
245,9243541,0.9757561,-0.052338,-0.144814,-2.1525,-5.6175,-4.025
246,9243639,0.9749021000000001,-0.052582000000000004,-0.146644,-2.0125,-5.7575,-3.955
247,9243737,0.97478,-0.05185,-0.14469200000000002,-1.8025,-5.8975,-3.7975
248,9243835,0.9749021000000001,-0.052948,-0.14469200000000002,-1.68,-6.055,-3.8675
249,9243933,0.9757561,-0.054778,-0.145424,-1.5925,-6.0025,-3.7975
250,9244031,0.97783,-0.055510000000000004,-0.145546,-1.365,-6.055,-3.8675
251,9244129,0.978196,-0.055265999999999996,-0.14469200000000002,-1.33,-5.95,-3.745
252,9244227,0.978196,-0.05612,-0.14347200000000002,-1.3475,-5.845,-3.85
253,9244324,0.978196,-0.055388,-0.144082,-1.4875,-5.81,-3.885
254,9244422,0.9784401,-0.053801999999999996,-0.145424,-1.505,-6.055,-3.7625
255,9244520,0.9767321,-0.054655999999999996,-0.144814,-1.61,-6.3875,-3.64
256,9244618,0.978928,-0.05636401,-0.146522,-1.575,-6.5625,-3.4825
257,9244716,0.980758,-0.058682000000000005,-0.145546,-1.575,-6.72,-3.29
258,9244814,0.9834421,-0.061366,-0.144082,-1.785,-6.895,-3.15
259,9244912,0.9850280999999999,-0.06270801,-0.14493599999999998,-1.8725,-7.07,-3.0275
260,9245010,0.984906,-0.060267999999999995,-0.144082,-2.0475,-7.385,-2.8525
261,9245108,0.9846620999999999,-0.061488,-0.14469200000000002,-2.1525,-7.6475,-2.7825
262,9245206,0.978684,-0.059902,-0.148474,-2.1175,-8.0325,-2.835
263,9245304,0.9766101,-0.06039,-0.151402,-2.0825,-8.1725,-2.73
264,9245401,0.975634,-0.061488,-0.153232,-2.1,-8.225,-2.8175
265,9245499,0.974292,-0.061975999999999996,-0.154818,-2.1175,-8.12,-2.905
266,9245597,0.971974,-0.063196,-0.15274400000000002,-2.17,-8.085,-2.835
267,9245695,0.971242,-0.062464,-0.15274400000000002,-2.3275,-8.1375,-3.01
268,9245793,0.9706319999999999,-0.067344,-0.153842,-2.275,-8.2075,-3.08
269,9245891,0.9700219999999999,-0.067222,-0.15237799999999999,-2.4325,-8.2075,-2.9225
270,9245989,0.9673379999999999,-0.06954,-0.15274400000000002,-2.38,-8.0675,-2.9925
271,9246087,0.965752,-0.07173600000000001,-0.156038,-2.485,-8.015,-2.9925
272,9246185,0.9651421,-0.07417601,-0.15738,-2.73,-7.805,-3.29
273,9246283,0.9653860000000001,-0.07490801,-0.1586,-2.9575,-7.5775,-3.465
274,9246381,0.964776,-0.072712,-0.155672,-2.9925,-7.42,-3.5525
275,9246478,0.968192,-0.07015,-0.15396400000000002,-3.0975,-7.2275,-3.6225
276,9246576,0.972706,-0.06661201,-0.15372,-3.3075,-7.0525,-3.465
277,9246674,0.97478,-0.06563601,-0.1525,-3.2725,-6.86,-3.2375
278,9246772,0.974658,-0.06588,-0.151158,-3.2725,-6.6325,-3.01
279,9246870,0.975024,-0.067832,-0.15006,-3.08,-6.58,-2.8875
280,9246968,0.973194,-0.06892999999999999,-0.149816,-2.9225,-6.6325,-2.87
281,9247066,0.9700219999999999,-0.06941801,-0.15091400000000002,-2.8525,-6.7025,-2.975
282,9247164,0.9706319999999999,-0.067832,-0.15176800000000001,-2.765,-6.65,-3.01
283,9247262,0.9703879999999999,-0.066856,-0.150792,-2.7825,-6.72,-3.1325
284,9247360,0.9700219999999999,-0.068076,-0.15311,-2.7475,-6.79,-3.15
285,9247458,0.971974,-0.06819800000000001,-0.15396400000000002,-2.45,-6.6675,-3.2025
286,9247556,0.9730721,-0.06795401,-0.152256,-2.1875,-6.6675,-3.1325
287,9247653,0.9736819999999999,-0.066978,-0.152256,-2.0475,-6.615,-3.2375
288,9247751,0.9738041,-0.06649,-0.152988,-1.925,-6.5975,-3.5
289,9247849,0.9718521000000001,-0.06795401,-0.15091400000000002,-1.8025,-6.44,-3.465
290,9247947,0.9705101,-0.069052,-0.152866,-1.82,-6.3525,-3.4825
291,9248045,0.9686799999999999,-0.07027201,-0.15311,-2.1,-6.195,-3.7275
292,9248143,0.9674601,-0.071492,-0.154574,-2.1525,-5.9325,-3.9025
293,9248241,0.966484,-0.07137001,-0.157502,-2.1875,-5.9325,-4.0075
294,9248339,0.965996,-0.071248,-0.158112,-2.2925,-5.9325,-4.1125
295,9248437,0.967216,-0.07002799999999999,-0.15677,-2.5725,-5.845,-4.2
296,9248535,0.9696561,-0.06941801,-0.156526,-2.5725,-5.9675,-4.1125
297,9248633,0.975024,-0.068686,-0.154086,-2.4325,-6.0025,-4.165
298,9248731,0.97783,-0.06941801,-0.15067,-2.3625,-6.0025,-4.1475
299,9248829,0.9796600000000001,-0.069052,-0.148596,-2.275,-6.0025,-4.1125
300,9248927,0.979416,-0.068564,-0.14762,-2.1525,-6.1075,-4.0075
301,9249024,0.9799041,-0.06941801,-0.14871800000000002,-1.9075,-6.195,-3.92
302,9249122,0.9779521000000001,-0.06832001,-0.151158,-1.7675,-6.3175,-3.9025
303,9249220,0.979294,-0.067588,-0.154086,-1.5575,-6.5625,-3.955
304,9249318,0.980758,-0.067222,-0.153842,-1.4175,-6.58,-4.0425
305,9249416,0.978928,-0.066856,-0.1525,-1.225,-6.755,-4.0425
306,9249514,0.9806360000000001,-0.067222,-0.15237799999999999,-1.225,-7.035,-4.06
307,9249612,0.9799041,-0.06661201,-0.153842,-1.33,-7.175,-3.955
308,9249710,0.9791719999999999,-0.06892999999999999,-0.15506199999999998,-1.2425,-7.3675,-4.0075
309,9249808,0.977342,-0.070516,-0.15823399999999999,-1.155,-7.5425,-3.85
310,9249906,0.975878,-0.07246799999999999,-0.15725799999999998,-1.05,-7.6475,-3.7625
311,9250004,0.9739261,-0.07344400000000001,-0.1586,-1.0675,-7.63,-3.745
312,9250102,0.9730721,-0.072956,-0.159698,-0.98,-7.665,-3.7625
313,9250200,0.9720960999999999,-0.074542,-0.158478,-1.05,-7.875,-3.8675
314,9250297,0.971242,-0.07503,-0.160064,-1.12,-7.84,-4.0075
315,9250395,0.9703879999999999,-0.07381001,-0.161772,-1.19,-7.7,-3.955
316,9250493,0.9680700000000001,-0.07344400000000001,-0.160796,-1.085,-7.7525,-3.9375
317,9250591,0.9651421,-0.07015,-0.16348,-0.91,-7.7525,-3.8675
318,9250689,0.9638,-0.07015,-0.163358,-0.875,-7.665,-3.7975
319,9250787,0.9652639999999999,-0.06929600000000001,-0.163236,-0.735,-7.6125,-3.815
320,9250885,0.968924,-0.06954,-0.16433399999999998,-0.5425,-7.525,-3.8675
321,9250983,0.9711200999999999,-0.07173600000000001,-0.16348,-0.49,-7.525,-3.885
322,9251081,0.9734381,-0.070638,-0.16287000000000001,-0.3325,-7.4375,-3.99
323,9251179,0.975878,-0.07307801,-0.15945399999999998,-0.385,-7.4725,-4.13
324,9251277,0.975512,-0.07527400000000001,-0.160308,-0.28,-7.455,-4.1475
325,9251374,0.9745360000000001,-0.07490801,-0.161406,-0.2275,-7.6125,-4.235
326,9251472,0.9714860000000001,-0.07503,-0.161772,-0.385,-7.5775,-4.2
327,9251570,0.9699,-0.074054,-0.162382,-0.4375,-7.4025,-4.1475
328,9251668,0.9691681000000001,-0.07417601,-0.162626,-0.42,-7.3675,-4.2175
329,9251766,0.9706319999999999,-0.07307801,-0.163846,-0.4375,-7.5075,-4.1825
330,9251864,0.9699,-0.07246799999999999,-0.163114,-0.455,-7.4025,-4.13
331,9251962,0.9703879999999999,-0.07332201,-0.16409,-0.5425,-7.2975,-4.13
332,9252060,0.9691681000000001,-0.0732,-0.162504,-0.5425,-7.245,-4.0425
333,9252158,0.9675819999999999,-0.07356601,-0.162382,-0.4375,-7.2975,-3.9375
334,9252256,0.9648979999999999,-0.075762,-0.164456,-0.49,-7.1925,-3.9725
335,9252354,0.9630681000000001,-0.07869,-0.165554,-0.525,-7.07,-3.9725
336,9252452,0.96319,-0.07881200000000001,-0.164944,-0.595,-6.895,-4.2
337,9252550,0.96441,-0.07722601,-0.16506600000000002,-0.6825,-6.685,-4.3225
338,9252647,0.9675819999999999,-0.07612801,-0.16226,-0.63,-6.58,-4.235
339,9252745,0.9699,-0.07612801,-0.161406,-0.5425,-6.545,-4.1475
340,9252843,0.97356,-0.075762,-0.160064,-0.6125,-6.4925,-4.1825
341,9252941,0.975634,-0.075762,-0.15799000000000002,-0.6125,-6.3,-4.095
342,9253039,0.972218,-0.07637200000000001,-0.1586,-0.63,-6.2475,-4.165
343,9253137,0.971242,-0.081496,-0.159088,-0.6475,-6.195,-4.27
344,9253235,0.969412,-0.083814,-0.16201600000000002,-0.91,-6.1075,-4.41
345,9253333,0.967216,-0.082594,-0.165554,-0.9625,-6.02,-4.41
346,9253431,0.9668501,-0.08344800000000001,-0.170312,-0.945,-5.8625,-4.41
347,9253529,0.966728,-0.081984,-0.16909200000000002,-1.0675,-5.7575,-4.41
348,9253627,0.967094,-0.08113001,-0.169946,-1.2425,-5.67,-4.4625
349,9253725,0.964532,-0.079666,-0.171166,-1.3825,-5.6,-4.445
350,9253823,0.9648979999999999,-0.080764,-0.172264,-1.4525,-5.6,-4.48
351,9253920,0.9646541,-0.08064199,-0.17128800000000002,-1.505,-5.425,-4.445
352,9254018,0.9642879999999999,-0.081374,-0.170922,-1.6625,-5.3025,-4.515
353,9254116,0.9655081,-0.081862,-0.172752,-1.785,-5.3025,-4.48
354,9254214,0.9651421,-0.080276,-0.170434,-1.925,-5.1975,-4.48
355,9254312,0.965874,-0.081252,-0.1708,-2.065,-5.1975,-4.3925
356,9254410,0.966118,-0.08064199,-0.17019,-2.3275,-5.18,-4.48
357,9254508,0.9655081,-0.080398,-0.169946,-2.4675,-5.1975,-4.55
358,9254606,0.968192,-0.079544,-0.17128800000000002,-2.485,-5.2675,-4.6025
359,9254704,0.9706319999999999,-0.077592,-0.17128800000000002,-2.485,-5.1975,-4.655
360,9254802,0.9730721,-0.075762,-0.169702,-2.415,-5.1275,-4.6725
361,9254900,0.9734381,-0.07588400000000001,-0.168482,-2.4325,-4.97,-4.6375
362,9254997,0.97478,-0.077348,-0.169824,-2.38,-5.075,-4.62
363,9255095,0.9729501,-0.078446,-0.17214200000000002,-2.3975,-5.215,-4.6025
364,9255193,0.973316,-0.0793,-0.171532,-2.45,-5.285,-4.5675
365,9255291,0.9720960999999999,-0.079544,-0.171654,-2.52,-5.3375,-4.69
366,9255389,0.9707541,-0.077348,-0.16897,-2.3975,-5.4775,-4.6025
367,9255487,0.9707541,-0.078202,-0.169458,-2.5725,-5.67,-4.55
368,9255585,0.97173,-0.07832401,-0.170434,-2.695,-5.705,-4.5325
369,9255683,0.9711200999999999,-0.07832401,-0.169214,-2.73,-5.635,-4.55
370,9255781,0.9703879999999999,-0.077714,-0.169946,-2.765,-5.6525,-4.55
371,9255879,0.968924,-0.07588400000000001,-0.169458,-2.7125,-5.67,-4.4625
372,9255977,0.9668501,-0.074542,-0.168726,-2.6775,-5.67,-4.5675
373,9256075,0.9679481,-0.07417601,-0.169214,-2.835,-5.705,-4.55
374,9256172,0.96929,-0.074664,-0.168848,-2.8175,-5.7575,-4.5675
375,9256270,0.9696561,-0.07283401,-0.168604,-2.8525,-5.6525,-4.6725
376,9256368,0.9718521000000001,-0.072956,-0.16714,-2.94,-5.6525,-4.76
377,9256466,0.9714860000000001,-0.072712,-0.16652999999999998,-2.9575,-5.67,-4.8475
378,9256564,0.9706319999999999,-0.07307801,-0.16652999999999998,-2.975,-5.5825,-4.865
379,9256662,0.9711200999999999,-0.073688,-0.166408,-2.9575,-5.4775,-4.7075
380,9256760,0.97173,-0.071614,-0.168726,-3.01,-5.355,-4.6375
381,9256858,0.971974,-0.071492,-0.16897,-2.87,-5.3025,-4.48
382,9256956,0.971974,-0.070882,-0.169336,-2.7475,-5.355,-4.41
383,9257054,0.9713639999999999,-0.06929600000000001,-0.16909200000000002,-2.5375,-5.5825,-4.3575
384,9257152,0.973316,-0.07076001,-0.169214,-2.345,-5.6175,-4.3925
385,9257250,0.9725841000000001,-0.06954,-0.17019,-2.135,-5.6,-4.41
386,9257348,0.9711200999999999,-0.06819800000000001,-0.16775,-1.855,-5.7925,-4.445
387,9257445,0.9697780999999999,-0.066856,-0.169702,-1.715,-5.8975,-4.4275
388,9257543,0.9677040000000001,-0.067832,-0.169336,-1.54,-5.8975,-4.445
389,9257641,0.969046,-0.068442,-0.168726,-1.61,-5.915,-4.445
390,9257739,0.968924,-0.06892999999999999,-0.169824,-1.5925,-5.95,-4.4625
391,9257837,0.9700219999999999,-0.070882,-0.169824,-1.435,-5.845,-4.55
392,9257935,0.9697780999999999,-0.07234600000000001,-0.16835999999999998,-1.365,-5.74,-4.585
393,9258033,0.969412,-0.07307801,-0.170922,-1.4,-5.705,-4.6025
394,9258131,0.9680700000000001,-0.07527400000000001,-0.17019,-1.3475,-5.6175,-4.6025
395,9258229,0.967094,-0.07551801,-0.168848,-1.26,-5.5825,-4.7075
396,9258327,0.9680700000000001,-0.07637200000000001,-0.16909200000000002,-1.225,-5.53,-4.69
397,9258425,0.9656300999999999,-0.07637200000000001,-0.16811600000000002,-1.3125,-5.4425,-4.62
398,9258523,0.9663620999999999,-0.07564,-0.167628,-1.3825,-5.3375,-4.69
399,9258621,0.9679481,-0.07551801,-0.16897,-1.5225,-5.3375,-4.725
400,9258719,0.9674601,-0.072712,-0.167872,-1.47,-5.2675,-4.69
401,9258816,0.966118,-0.071248,-0.167262,-1.5575,-5.3025,-4.69
402,9258914,0.9677040000000001,-0.07173600000000001,-0.166652,-1.4875,-5.1975,-4.69
403,9259012,0.96929,-0.07222401,-0.16689600000000002,-1.3825,-5.1625,-4.6375
404,9259110,0.9699,-0.07198,-0.167018,-1.33,-5.11,-4.6375
405,9259208,0.9688021000000001,-0.07600599999999999,-0.165798,-1.26,-5.145,-4.7075
406,9259306,0.9686799999999999,-0.07625,-0.165554,-1.3125,-5.04,-4.865
407,9259404,0.9674601,-0.076494,-0.16652999999999998,-1.33,-5.0225,-4.8825
408,9259502,0.9680700000000001,-0.07637200000000001,-0.167384,-1.4175,-5.0225,-4.97
409,9259600,0.9673379999999999,-0.074664,-0.16506600000000002,-1.505,-4.9525,-5.0575
410,9259698,0.9675819999999999,-0.07246799999999999,-0.166042,-1.4,-4.7775,-5.0925
411,9259796,0.9691681000000001,-0.07039400000000001,-0.16652999999999998,-1.365,-4.725,-5.0925
412,9259893,0.9684360999999999,-0.06954,-0.164578,-1.2075,-4.7425,-5.1275
413,9259991,0.9702661,-0.068076,-0.163602,-1.19,-4.55,-4.9875
414,9260089,0.97356,-0.068076,-0.162626,-1.155,-4.5325,-4.9525
415,9260187,0.9736819999999999,-0.067588,-0.162382,-1.2775,-4.4275,-5.0225
416,9260285,0.9734381,-0.069052,-0.15945399999999998,-1.26,-4.4275,-4.9525
417,9260383,0.9730721,-0.07173600000000001,-0.16287000000000001,-1.2775,-4.585,-4.865
418,9260481,0.9714860000000001,-0.07246799999999999,-0.1647,-1.365,-4.515,-4.9
419,9260579,0.97356,-0.07381001,-0.161406,-1.435,-4.5325,-5.0225
420,9260677,0.97478,-0.07246799999999999,-0.160674,-1.4,-4.6025,-4.9175
421,9260775,0.975024,-0.06832001,-0.161406,-1.435,-4.725,-5.0225
422,9260873,0.973194,-0.06539201,-0.16201600000000002,-1.505,-4.795,-5.1625
423,9260970,0.9711200999999999,-0.06539201,-0.16201600000000002,-1.4175,-4.7775,-5.1975
424,9261068,0.9720960999999999,-0.064782,-0.166042,-1.2075,-4.7775,-5.1975
425,9261166,0.9706319999999999,-0.064782,-0.166652,-1.0325,-4.7425,-5.2675
426,9261264,0.9720960999999999,-0.06563601,-0.166408,-0.8225,-4.76,-5.2325
427,9261362,0.9713639999999999,-0.06636801,-0.165432,-0.8400001,-4.7775,-5.3025
428,9261460,0.9706319999999999,-0.06563601,-0.16433399999999998,-0.7875,-4.69,-5.3025
429,9261558,0.9708760000000001,-0.066124,-0.164578,-0.9625,-4.725,-5.3725
430,9261656,0.9718521000000001,-0.06880801,-0.163968,-0.9975,-4.83,-5.46
431,9261754,0.971242,-0.06880801,-0.164578,-0.98,-4.69,-5.495
432,9261852,0.9701440999999998,-0.067344,-0.163724,-0.875,-4.7775,-5.3375
433,9261950,0.9718521000000001,-0.06661201,-0.16348,-0.8225,-4.865,-5.1625
434,9262048,0.9716081,-0.065026,-0.16201600000000002,-0.8925,-4.9525,-5.1275
435,9262145,0.9734381,-0.064294,-0.160674,-0.8400001,-5.0925,-5.075
436,9262243,0.975024,-0.066124,-0.15921,-0.805,-5.18,-5.0225
437,9262341,0.9753901,-0.06588,-0.15725799999999998,-0.7,-5.215,-4.97
438,9262439,0.977342,-0.06649,-0.157868,-0.7525,-5.3375,-4.9175
439,9262537,0.9791719999999999,-0.06771001,-0.158112,-0.6475,-5.32,-4.8825
440,9262635,0.978684,-0.06795401,-0.158356,-0.6475,-5.495,-4.8125
441,9262733,0.978318,-0.066246,-0.160186,-0.77,-5.425,-4.7075
442,9262831,0.9768540000000001,-0.066978,-0.15982000000000002,-0.8225,-5.5475,-4.69
443,9262929,0.973194,-0.06563601,-0.159698,-1.0325,-5.53,-4.55
444,9263027,0.9706319999999999,-0.066124,-0.163236,-1.155,-5.5475,-4.6375
445,9263125,0.96929,-0.066734,-0.16409,-0.9975,-5.6875,-4.6375
446,9263222,0.9683141,-0.066856,-0.16433399999999998,-0.9625,-5.67,-4.69
447,9263320,0.9703879999999999,-0.06490399999999999,-0.164212,-0.8575,-5.495,-4.7425
448,9263418,0.9702661,-0.064538,-0.162748,-0.63,-5.425,-4.7425
449,9263516,0.9703879999999999,-0.062464,-0.163968,-0.56,-5.4775,-4.7075
450,9263614,0.9709979999999999,-0.062586,-0.161528,-0.42,-5.6,-4.795
451,9263712,0.9705101,-0.063196,-0.163236,-0.385,-5.5825,-4.7425
452,9263810,0.9730721,-0.062098,-0.162138,-0.315,-5.5125,-4.76
453,9263908,0.97234,-0.06283,-0.16409,-0.245,-5.425,-4.76
454,9264006,0.9711200999999999,-0.06466001,-0.163114,-0.14,-5.4075,-4.655
455,9264104,0.9703879999999999,-0.06636801,-0.1647,-0.175,-5.4075,-4.7075
456,9264202,0.9701440999999998,-0.065514,-0.163724,-0.0875,-5.39,-4.62
457,9264300,0.9711200999999999,-0.06819800000000001,-0.162626,-0.1925,-5.4075,-4.62
458,9264397,0.9711200999999999,-0.069052,-0.159576,-0.1575,-5.425,-4.62
459,9264495,0.972828,-0.069174,-0.158966,-0.2275,-5.46,-4.6025
460,9264593,0.973194,-0.069174,-0.161162,-0.28,-5.635,-4.6025
461,9264691,0.973316,-0.071004,-0.161894,-0.28,-5.565,-4.725
462,9264789,0.9739261,-0.070516,-0.161894,-0.28,-5.46,-4.8125
463,9264887,0.97173,-0.06941801,-0.160186,-0.49,-5.53,-4.8475
464,9264985,0.9713639999999999,-0.06649,-0.16104000000000002,-0.6825,-5.6,-4.7075
465,9265083,0.9716081,-0.06746601,-0.162138,-0.595,-5.7225,-4.69
466,9265181,0.9697780999999999,-0.067222,-0.159332,-0.6125,-5.7225,-4.6025
467,9265279,0.9709979999999999,-0.06880801,-0.158112,-0.6825,-5.5825,-4.6025
468,9265377,0.9711200999999999,-0.07027201,-0.15921,-0.9275,-5.495,-4.4975
469,9265475,0.9720960999999999,-0.071858,-0.158966,-0.9625,-5.5475,-4.4975
470,9265572,0.9699,-0.07417601,-0.160796,-1.155,-5.355,-4.4625
471,9265670,0.968558,-0.07222401,-0.16128399999999998,-1.225,-5.2325,-4.445
472,9265768,0.9663620999999999,-0.072712,-0.162504,-1.435,-5.215,-4.515
473,9265866,0.966484,-0.06941801,-0.161772,-1.4875,-5.075,-4.5675
474,9265964,0.9668501,-0.06539201,-0.163724,-1.4875,-5.005,-4.585
475,9266062,0.9702661,-0.064416,-0.162992,-1.295,-4.795,-4.6025
476,9266160,0.97173,-0.062464,-0.161528,-1.225,-4.7775,-4.6375
477,9266258,0.972828,-0.06112201,-0.159698,-1.3125,-4.585,-4.62
478,9266356,0.9738041,-0.062586,-0.159088,-1.2075,-4.62,-4.69
479,9266454,0.9724620999999999,-0.06405001,-0.160064,-1.1725,-4.7075,-4.69
480,9266552,0.971242,-0.064782,-0.16104000000000002,-1.1725,-4.795,-4.795
481,9266650,0.9708760000000001,-0.06819800000000001,-0.160308,-1.19,-4.655,-4.8475
482,9266748,0.9699,-0.06892999999999999,-0.161528,-1.1025,-4.6375,-4.8825
483,9266845,0.9718521000000001,-0.068564,-0.162138,-1.0325,-4.725,-4.8475
484,9266943,0.9738041,-0.06636801,-0.160918,-0.875,-4.8125,-4.7775
485,9267041,0.9749021000000001,-0.064172,-0.1586,-0.8400001,-4.865,-4.5325
486,9267139,0.975024,-0.065148,-0.159088,-0.7875,-4.865,-4.4975
487,9267237,0.9740479999999999,-0.067344,-0.160796,-0.8575,-4.9525,-4.48
488,9267335,0.973316,-0.06832001,-0.15823399999999999,-0.98,-5.005,-4.445
489,9267433,0.9736819999999999,-0.06880801,-0.159088,-0.9975,-5.11,-4.3925
490,9267531,0.9738041,-0.070516,-0.160552,-1.2075,-5.075,-4.3925
491,9267629,0.9744141,-0.07112601,-0.15823399999999999,-1.3125,-5.2325,-4.3575
492,9267727,0.9736819999999999,-0.069906,-0.158356,-1.4525,-5.25,-4.375
493,9267825,0.9724620999999999,-0.06819800000000001,-0.157868,-1.505,-5.25,-4.3225
494,9267923,0.97173,-0.068686,-0.158356,-1.5925,-5.425,-4.2175
495,9268021,0.9709979999999999,-0.066856,-0.159088,-1.4525,-5.5125,-4.0425
496,9268118,0.97234,-0.06588,-0.15921,-1.54,-5.4075,-4.095
497,9268216,0.971974,-0.06527000000000001,-0.159332,-1.4525,-5.285,-4.0425
498,9268314,0.97173,-0.06490399999999999,-0.158966,-1.365,-5.1975,-4.165
499,9268412,0.9720960999999999,-0.06636801,-0.158844,-1.295,-5.11,-4.2
500,9268510,0.971974,-0.066856,-0.15762400000000001,-1.2075,-5.1975,-4.2175
501,9268608,0.9741700000000001,-0.067222,-0.15725799999999998,-0.98,-5.2675,-4.2175
502,9268706,0.97356,-0.067588,-0.156282,-1.0675,-5.285,-4.2875
503,9268804,0.9730721,-0.067832,-0.15506199999999998,-1.0675,-5.285,-4.1125
504,9268902,0.974658,-0.069052,-0.155184,-1.0675,-5.285,-4.13
505,9269000,0.9738041,-0.068076,-0.15494000000000002,-1.085,-5.3725,-4.2
506,9269098,0.9738041,-0.067588,-0.155428,-1.12,-5.39,-4.1125
507,9269196,0.97173,-0.068564,-0.154452,-1.1025,-5.4775,-4.0775
508,9269294,0.972218,-0.06771001,-0.15579400000000002,-1.05,-5.4075,-4.0075
509,9269391,0.9711200999999999,-0.068564,-0.15420799999999998,-1.1375,-5.285,-4.025
510,9269489,0.9709979999999999,-0.068564,-0.155306,-1.225,-5.3725,-4.0075
511,9269587,0.9705101,-0.069906,-0.15555,-1.33,-5.39,-4.095
512,9269685,0.9696561,-0.072102,-0.154696,-1.3475,-5.2325,-4.0775
513,9269783,0.9706319999999999,-0.06941801,-0.15616,-1.26,-5.2325,-4.095
514,9269881,0.971974,-0.06929600000000001,-0.15494000000000002,-1.33,-5.25,-4.0075
515,9269979,0.9716081,-0.069906,-0.156404,-1.4,-5.25,-3.92
516,9270077,0.9730721,-0.071248,-0.157136,-1.4875,-5.285,-4.0075
517,9270175,0.972706,-0.070882,-0.15738,-1.47,-5.3025,-3.9025
518,9270273,0.9738041,-0.069906,-0.15579400000000002,-1.5225,-5.32,-3.955
519,9270371,0.97234,-0.071004,-0.157502,-1.4,-5.39,-3.9725
520,9270469,0.9725841000000001,-0.070882,-0.154818,-1.4175,-5.53,-4.0425
521,9270566,0.9741700000000001,-0.07173600000000001,-0.15372,-1.435,-5.46,-4.0075
522,9270664,0.9749021000000001,-0.072712,-0.15433,-1.5925,-5.565,-4.1125
523,9270762,0.9744141,-0.07551801,-0.152622,-1.8025,-5.6,-4.235
524,9270860,0.97234,-0.07527400000000001,-0.15506199999999998,-2.03,-5.5825,-4.375
525,9270958,0.9718521000000001,-0.07551801,-0.154086,-2.2225,-5.565,-4.585
526,9271056,0.9724620999999999,-0.074664,-0.15494000000000002,-2.38,-5.495,-4.6725
527,9271154,0.972828,-0.072956,-0.154818,-2.6425,-5.5475,-4.6025
528,9271252,0.9729501,-0.071004,-0.15494000000000002,-2.5725,-5.425,-4.585
529,9271350,0.9745360000000001,-0.06941801,-0.154086,-2.3625,-5.495,-4.5675
530,9271448,0.9757561,-0.069174,-0.153598,-2.2925,-5.5825,-4.6375
531,9271546,0.9741700000000001,-0.07027201,-0.151524,-2.24,-5.53,-4.6025
532,9271644,0.9740479999999999,-0.07002799999999999,-0.150304,-2.24,-5.46,-4.69
533,9271742,0.97478,-0.069052,-0.14762,-2.345,-5.215,-4.69
534,9271839,0.9730721,-0.069052,-0.149084,-2.45,-5.3025,-4.5675
535,9271937,0.9724620999999999,-0.067222,-0.150792,-2.5025,-5.4075,-4.41
536,9272035,0.972706,-0.066856,-0.15176800000000001,-2.4325,-5.2325,-4.27
537,9272133,0.972218,-0.06490399999999999,-0.151402,-2.2225,-5.25,-4.1125
538,9272231,0.974292,-0.06405001,-0.14993800000000002,-2.065,-5.2675,-4.0425
539,9272329,0.9753901,-0.06649,-0.15128,-1.855,-5.2675,-4.0425
540,9272427,0.977342,-0.06466001,-0.149206,-1.5225,-5.25,-4.06
541,9272525,0.9774639999999999,-0.06563601,-0.14786400000000002,-1.2425,-5.215,-4.095
542,9272623,0.9785620999999999,-0.06819800000000001,-0.147376,-1.0325,-5.2675,-4.1825
543,9272721,0.97783,-0.06636801,-0.14871800000000002,-0.7875,-5.4075,-4.3225
544,9272819,0.9764879999999999,-0.06588,-0.149694,-0.5775,-5.39,-4.445
545,9272917,0.9740479999999999,-0.06490399999999999,-0.149084,-0.455,-5.3375,-4.515
546,9273015,0.9739261,-0.06356201,-0.148596,-0.245,-5.425,-4.585
547,9273112,0.9751460999999999,-0.064294,-0.149084,-0.0525,-5.425,-4.6375
548,9273210,0.9762440999999998,-0.065148,-0.14786400000000002,0.105,-5.46,-4.6725
549,9273308,0.9734381,-0.06661201,-0.14786400000000002,0.2275,-5.215,-4.69
550,9273406,0.974292,-0.068442,-0.14786400000000002,0.28,-5.285,-4.69
551,9273504,0.972706,-0.07259,-0.14688800000000002,0.14,-5.215,-4.55
552,9273602,0.972706,-0.071492,-0.14762,0.0525,-5.3725,-4.585
553,9273700,0.9739261,-0.072712,-0.149206,-0.1575,-5.565,-4.6375
554,9273798,0.975878,-0.07490801,-0.14896199999999998,-0.2975,-5.5475,-4.55
555,9273896,0.975878,-0.07381001,-0.147498,-0.4725,-5.635,-4.5325
556,9273994,0.9774639999999999,-0.07246799999999999,-0.147254,-0.6125,-5.53,-4.4975
557,9274092,0.9768540000000001,-0.06941801,-0.14871800000000002,-0.6825,-5.5125,-4.445
558,9274190,0.976366,-0.068076,-0.149694,-0.7175,-5.53,-4.375
559,9274287,0.974292,-0.06490399999999999,-0.15274400000000002,-0.77,-5.46,-4.3575
560,9274385,0.972828,-0.06466001,-0.15189,-0.735,-5.425,-4.375
561,9274483,0.97478,-0.06490399999999999,-0.150426,-0.595,-5.46,-4.27
562,9274581,0.9767321,-0.06588,-0.150304,-0.63,-5.495,-4.3575
563,9274679,0.9766101,-0.06575800000000001,-0.151524,-0.5775,-5.5475,-4.375
564,9274777,0.9767321,-0.06746601,-0.1525,-0.4725,-5.635,-4.375
565,9274875,0.9751460999999999,-0.068686,-0.15091400000000002,-0.5425,-5.74,-4.4275
566,9274973,0.974658,-0.07015,-0.154086,-0.56,-5.635,-4.3225
567,9275071,0.9749021000000001,-0.07076001,-0.15433,-0.5425,-5.53,-4.305
568,9275169,0.9740479999999999,-0.069784,-0.155184,-0.385,-5.635,-4.2175
569,9275266,0.9707541,-0.06892999999999999,-0.15579400000000002,-0.21,-5.6875,-4.2525
570,9275364,0.9674601,-0.06819800000000001,-0.15494000000000002,-0.105,-5.67,-4.2525
571,9275462,0.9679481,-0.067588,-0.15420799999999998,-0.0875,-5.6175,-4.3225
572,9275560,0.9700219999999999,-0.06880801,-0.153842,-0.1575,-5.6,-4.375
573,9275658,0.9702661,-0.071614,-0.153476,-0.1575,-5.5825,-4.4625
574,9275756,0.9701440999999998,-0.07112601,-0.15420799999999998,-0.245,-5.565,-4.5675
575,9275854,0.9714860000000001,-0.07039400000000001,-0.152866,-0.2275,-5.635,-4.585
576,9275952,0.9729501,-0.07039400000000001,-0.151158,-0.14,-5.635,-4.5675
577,9276050,0.9729501,-0.070638,-0.152622,-0.105,-5.5475,-4.515
578,9276148,0.972706,-0.071614,-0.150426,-0.21,-5.4075,-4.515
579,9276245,0.972706,-0.07344400000000001,-0.15237799999999999,-0.4025,-5.215,-4.5325
580,9276343,0.9720960999999999,-0.074542,-0.15176800000000001,-0.63,-5.2675,-4.585
581,9276441,0.97234,-0.074664,-0.1525,-0.735,-5.3375,-4.48
582,9276539,0.972706,-0.07381001,-0.15201199999999998,-0.91,-5.39,-4.4625
583,9276637,0.972828,-0.073688,-0.14993800000000002,-1.0325,-5.4075,-4.27
584,9276735,0.972706,-0.0732,-0.149328,-1.085,-5.4425,-4.305
585,9276833,0.9744141,-0.0732,-0.15006,-1.1725,-5.565,-4.3225
586,9276931,0.975024,-0.07417601,-0.149694,-1.19,-5.5125,-4.34
587,9277029,0.975878,-0.075762,-0.149572,-1.225,-5.5475,-4.305
588,9277127,0.973316,-0.07503,-0.15128,-1.33,-5.5825,-4.34
589,9277225,0.9740479999999999,-0.076738,-0.151036,-1.33,-5.4775,-4.375
590,9277322,0.97478,-0.075396,-0.15189,-1.4175,-5.565,-4.27
591,9277420,0.9752681000000001,-0.07417601,-0.15091400000000002,-1.365,-5.5825,-4.1825
592,9277518,0.973194,-0.0732,-0.149572,-1.295,-5.5125,-4.1825
593,9277616,0.971974,-0.07356601,-0.149694,-1.3475,-5.5125,-4.27
594,9277714,0.969412,-0.076494,-0.151036,-1.2425,-5.6175,-4.34
595,9277812,0.9703879999999999,-0.075762,-0.152622,-1.33,-5.705,-4.4275
596,9277910,0.9714860000000001,-0.077348,-0.152134,-1.3475,-5.705,-4.445
597,9278008,0.972828,-0.07527400000000001,-0.152622,-1.2075,-5.635,-4.3225
598,9278106,0.9736819999999999,-0.07564,-0.152866,-1.1025,-5.495,-4.2175
599,9278204,0.973316,-0.07612801,-0.152988,-1.1725,-5.425,-4.2175
600,9278302,0.971974,-0.07490801,-0.15311,-1.19,-5.355,-4.2875
601,9278399,0.9707541,-0.07600599999999999,-0.154574,-1.3125,-5.3375,-4.3225
602,9278497,0.969046,-0.07551801,-0.15555,-1.3125,-5.3725,-4.2175
603,9278595,0.9702661,-0.077348,-0.153842,-1.4,-5.39,-4.375
604,9278693,0.971974,-0.076738,-0.15372,-1.54,-5.39,-4.3925
605,9278791,0.97234,-0.078202,-0.153842,-1.8025,-5.3375,-4.3925
606,9278889,0.9749021000000001,-0.08052000000000001,-0.151646,-1.995,-5.2675,-4.3925
607,9278987,0.975634,-0.079178,-0.150426,-2.17,-5.3025,-4.375
608,9279085,0.9739261,-0.077714,-0.152256,-2.2925,-5.3725,-4.3925
609,9279183,0.97356,-0.078202,-0.154086,-2.3625,-5.5125,-4.3575
610,9279281,0.972828,-0.07551801,-0.1525,-2.2925,-5.53,-4.375
611,9279378,0.973316,-0.07381001,-0.151646,-2.2575,-5.4425,-4.4975
612,9279476,0.974292,-0.07381001,-0.151036,-2.3625,-5.4075,-4.5675
613,9279574,0.973316,-0.07332201,-0.150426,-2.38,-5.53,-4.7075
614,9279672,0.9738041,-0.07307801,-0.151402,-2.345,-5.635,-4.725
615,9279770,0.97234,-0.07417601,-0.15201199999999998,-2.3275,-5.775,-4.76
616,9279868,0.9718521000000001,-0.074786,-0.15201199999999998,-2.17,-5.67,-4.795
617,9279966,0.974658,-0.07283401,-0.15189,-2.1875,-5.4075,-4.9175
618,9280064,0.976366,-0.07283401,-0.14993800000000002,-2.135,-5.6,-4.9
619,9280162,0.9749021000000001,-0.072712,-0.149572,-2.1175,-5.67,-4.9
620,9280260,0.9772200999999999,-0.07356601,-0.147376,-2.03,-5.7225,-4.7775
621,9280358,0.974658,-0.07137001,-0.149206,-1.9075,-5.81,-4.6375
622,9280456,0.97356,-0.070516,-0.149084,-1.9775,-5.635,-4.7075
623,9280553,0.973316,-0.07112601,-0.14762,-1.96,-5.46,-4.7075
624,9280651,0.9736819999999999,-0.071004,-0.14786400000000002,-1.9425,-5.5125,-4.6375
625,9280749,0.9738041,-0.070882,-0.147498,-2.03,-5.5475,-4.655
626,9280847,0.9744141,-0.07259,-0.148474,-2.0475,-5.6875,-4.655
627,9280945,0.9752681000000001,-0.07307801,-0.150426,-2.065,-5.7225,-4.6725
628,9281043,0.976,-0.07246799999999999,-0.15067,-2.1525,-5.775,-4.62
629,9281141,0.9752681000000001,-0.070516,-0.149084,-2.1875,-5.74,-4.4275
630,9281239,0.9761219999999999,-0.071492,-0.151158,-2.205,-5.81,-4.3225
631,9281337,0.975878,-0.070882,-0.15054800000000002,-2.17,-5.9675,-4.3225
632,9281435,0.97478,-0.07039400000000001,-0.15054800000000002,-2.065,-6.055,-4.305
633,9281533,0.9740479999999999,-0.07015,-0.15237799999999999,-1.9775,-6.055,-4.2875
634,9281631,0.975024,-0.06880801,-0.149572,-1.96,-6.055,-4.34
635,9281729,0.975024,-0.06929600000000001,-0.147498,-2.0125,-5.81,-4.34
636,9281826,0.9745360000000001,-0.06832001,-0.15018199999999998,-1.9425,-5.9325,-4.41
637,9281924,0.97234,-0.06819800000000001,-0.15176800000000001,-1.7325,-6.1075,-4.515
638,9282022,0.973194,-0.06832001,-0.150792,-1.785,-6.02,-4.4975
639,9282120,0.973316,-0.068564,-0.15189,-1.785,-6.0725,-4.41
640,9282218,0.974658,-0.069052,-0.15274400000000002,-1.68,-5.9675,-4.445
641,9282316,0.9725841000000001,-0.06929600000000001,-0.152988,-1.6275,-6.02,-4.4975
642,9282414,0.973316,-0.069052,-0.151524,-1.575,-6.0375,-4.4275
643,9282512,0.972218,-0.07027201,-0.15176800000000001,-1.5575,-6.09,-4.4275
644,9282610,0.972828,-0.07039400000000001,-0.15372,-1.54,-6.23,-4.48
645,9282708,0.9749021000000001,-0.07112601,-0.152866,-1.54,-6.265,-4.445
646,9282806,0.972218,-0.07027201,-0.152134,-1.4175,-6.125,-4.4625
647,9282903,0.97234,-0.071614,-0.15237799999999999,-1.3475,-6.125,-4.445
648,9283001,0.9708760000000001,-0.071614,-0.15311,-1.33,-6.16,-4.4625
649,9283099,0.9686799999999999,-0.072712,-0.15579400000000002,-1.2075,-6.0375,-4.4275
650,9283197,0.9691681000000001,-0.07246799999999999,-0.155916,-1.26,-5.985,-4.6025
651,9283295,0.9686799999999999,-0.07417601,-0.156038,-1.155,-5.9325,-4.6375
652,9283393,0.968924,-0.071858,-0.15433,-1.05,-6.0025,-4.515
653,9283491,0.9699,-0.07027201,-0.154696,-0.98,-5.95,-4.515
654,9283589,0.9718521000000001,-0.07015,-0.15189,-0.7525,-5.985,-4.4975
655,9283687,0.9708760000000001,-0.07222401,-0.151524,-0.7875,-5.88,-4.445
656,9283785,0.9720960999999999,-0.07356601,-0.15189,-0.77,-5.705,-4.4975
657,9283883,0.9702661,-0.07259,-0.152622,-0.735,-5.7225,-4.4275
658,9283981,0.9684360999999999,-0.07417601,-0.152134,-0.77,-5.7225,-4.48
659,9284078,0.966728,-0.0732,-0.15311,-0.8400001,-5.6525,-4.4275
660,9284176,0.966728,-0.07283401,-0.153232,-0.945,-5.53,-4.4975
661,9284274,0.9675819999999999,-0.07283401,-0.154818,-1.015,-5.4425,-4.5325
662,9284372,0.969412,-0.071492,-0.153354,-0.9625,-5.4075,-4.445
663,9284470,0.9724620999999999,-0.069784,-0.151646,-0.98,-5.215,-4.515
664,9284568,0.9741700000000001,-0.069052,-0.152622,-1.085,-5.04,-4.4625
665,9284666,0.9744141,-0.07112601,-0.15274400000000002,-1.015,-5.005,-4.5325
666,9284764,0.9724620999999999,-0.071492,-0.153476,-1.1725,-4.9525,-4.515
667,9284862,0.97173,-0.07259,-0.15372,-1.2425,-4.865,-4.62
668,9284960,0.9729501,-0.07393200000000001,-0.15506199999999998,-1.4525,-4.795,-4.795
669,9285058,0.97173,-0.071858,-0.15506199999999998,-1.6275,-4.7775,-4.8475
670,9285156,0.9720960999999999,-0.06929600000000001,-0.154696,-1.9425,-4.865,-5.0225
671,9285253,0.9703879999999999,-0.06527000000000001,-0.154086,-2.135,-4.8825,-5.285
672,9285351,0.966606,-0.06270801,-0.152622,-2.0475,-4.83,-5.3725
673,9285449,0.9586761,-0.063074,-0.148596,-1.5225,-5.075,-5.1975
674,9285547,0.954528,-0.054778,-0.14884,-1.155,-4.97,-5.04
675,9285645,0.960384,-0.045994,-0.158722,-1.365,-5.215,-4.9525
676,9285743,0.9683141,-0.05246,-0.15616,-1.925,-4.9875,-5.2325
677,9285841,0.972218,-0.061366,-0.149206,-1.9775,-4.165,-5.705
678,9285939,0.969046,-0.05612,-0.14274,-2.415,-3.7275,-6.3525
679,9286037,0.9642879999999999,-0.058682000000000005,-0.13944600000000001,-3.115,-3.885,-6.615
680,9286135,0.955992,-0.05770599999999999,-0.13542,-3.4475,-3.9375,-6.405
681,9286233,0.9524540000000001,-0.063318,-0.127002,-3.535,-3.57,-5.915
682,9286331,0.9520881,-0.061,-0.119926,-3.22,-2.87,-5.1275
683,9286429,0.9563581,-0.04514,-0.117852,-2.9575,-2.765,-4.165
684,9286527,0.9688021000000001,-0.028304000000000003,-0.11760799999999999,-2.7475,-3.3775,-2.8175
685,9286624,0.982466,-0.0183,-0.11016600000000001,-3.185,-3.6925,-1.7325
686,9286722,0.9982040000000001,-0.02501,-0.107116,-3.5525,-3.99,-0.9625
687,9286820,1.011868,-0.043432,-0.109556,-3.6575,-4.8825,-0.6825
688,9286918,1.021872,-0.057339999999999995,-0.107726,-3.4475,-5.67,-0.7175
689,9287016,1.025044,-0.06356201,-0.10736,-3.185,-6.055,-0.945
690,9287114,1.02114,-0.061366,-0.10650599999999999,-2.6425,-6.0025,-1.12
691,9287212,1.013942,-0.05587601,-0.10492,-2.2575,-5.9325,-1.26
692,9287310,1.003816,-0.052703999999999994,-0.104798,-2.3975,-5.775,-1.47
693,9287408,0.9946659999999999,-0.046238,-0.10858,-2.6425,-5.845,-1.7325
694,9287506,0.983808,-0.045384,-0.113826,-2.94,-5.88,-1.8375
695,9287604,0.9730721,-0.044774,-0.120902,-3.0625,-5.6525,-1.7675
696,9287702,0.963922,-0.047214,-0.12651400000000002,-3.2025,-5.1275,-1.3475
697,9287800,0.9575780999999999,-0.047945999999999996,-0.124074,-3.0275,-4.3925,-0.91
698,9287897,0.954406,-0.05124001,-0.12712400000000001,-2.66,-4.025,-0.5075
699,9287995,0.95221,-0.05185,-0.12651400000000002,-2.485,-3.9375,-0.1925
700,9288093,0.9528200000000001,-0.052582000000000004,-0.125538,-2.345,-3.6225,-0.14
701,9288191,0.955626,-0.051118000000000004,-0.12431800000000001,-2.3625,-3.4125,-0.1575
702,9288289,0.9629459999999999,-0.04941,-0.12627,-2.3975,-3.605,-0.2275
703,9288387,0.9709979999999999,-0.053436000000000004,-0.12871,-2.38,-4.2525,-0.3675
704,9288485,0.975512,-0.056729999999999996,-0.133102,-2.415,-4.935,-0.385
705,9288583,0.97783,-0.06112201,-0.12895399999999999,-2.1525,-4.97,-0.455
706,9288681,0.974658,-0.068686,-0.12749000000000002,-2.17,-5.145,-0.63
707,9288779,0.9720960999999999,-0.06880801,-0.12932000000000002,-2.38,-5.9325,-0.8575
708,9288877,0.9663620999999999,-0.068564,-0.12675799999999998,-2.6075,-6.685,-1.2425
709,9288975,0.9629459999999999,-0.069662,-0.128344,-2.9925,-7.3675,-1.82
710,9289072,0.9629459999999999,-0.07198,-0.129198,-3.5875,-7.5075,-2.5725
711,9289170,0.9635560999999999,-0.07442,-0.128222,-3.9375,-7.5075,-3.9725
712,9289268,0.965996,-0.07198,-0.128588,-4.0775,-7.4375,-5.4075
713,9289366,0.9729501,-0.071858,-0.12627,-4.06,-7.875,-6.7725
714,9289464,0.9752681000000001,-0.072102,-0.12675799999999998,-4.0075,-8.5925,-7.9275
715,9289562,0.9738041,-0.07381001,-0.12688,-3.78,-9.7825,-8.8375
716,9289660,0.9709979999999999,-0.06880801,-0.12895399999999999,-3.955,-11.1125,-9.7825
717,9289758,0.9622141,-0.06563601,-0.132736,-3.92,-12.1625,-11.1475
718,9289856,0.946842,-0.06039,-0.130906,-3.85,-12.8625,-13.3175
719,9289954,0.9298841,-0.05563200000000001,-0.127856,-3.3425,-13.44,-15.9075
720,9290052,0.9297620999999999,-0.055510000000000004,-0.12895399999999999,-2.555,-14.21,-18.48
721,9290150,0.941108,-0.064294,-0.13237000000000002,-1.4525,-15.6625,-20.8075
722,9290247,0.959408,-0.069784,-0.14005599999999999,-0.6125,-17.3425,-22.4
723,9290345,0.9914940999999999,-0.07332201,-0.13969,0.385,-18.4975,-23.5375
724,9290444,1.028704,-0.054412,-0.138348,1.1375,-19.3375,-23.5025
725,9290541,1.061766,-0.032695999999999996,-0.12993,2.3275,-19.39,-22.8725
726,9290639,1.059448,-0.02196,-0.116998,4.1825,-19.005,-22.2425
727,9290737,1.03395,-0.012322,-0.09613601,6.405,-18.375,-21.7525
728,9290835,0.993568,-0.01525,-0.080276,8.5575,-17.6225,-20.93
729,9290933,0.9519661,-0.027206,-0.069052,9.9925,-17.5875,-19.95
730,9291031,0.9317141,-0.04392,-0.061,10.535,-17.1675,-18.7775
731,9291129,0.9406200000000001,-0.065148,-0.049532,9.905,-15.82,-17.57
732,9291227,0.972706,-0.084912,-0.036722000000000005,8.2425,-14.315,-16.3975
733,9291324,1.0145520000000001,-0.09455001,-0.029524,5.9675,-13.4575,-15.12
734,9291422,1.0551780000000002,-0.10858,-0.02806,3.4825,-13.0725,-13.5625
735,9291520,1.088118,-0.11467999999999999,-0.032451999999999995,1.5225,-13.685,-11.0775
736,9291618,1.1065399999999999,-0.10931199999999999,-0.032330000000000005,-0.28,-14.21,-7.3325
737,9291716,1.0948280000000001,-0.105896,-0.02928,-2.0475,-13.0025,-3.64
738,9291814,1.05408,-0.098088,-0.032451999999999995,-3.7975,-11.935,0.4025
739,9291912,1.012234,-0.104798,-0.042578,-5.04,-11.2,4.9
740,9292010,0.981978,-0.115168,-0.05185,-6.405,-10.7275,8.4
741,9292108,0.965752,-0.124196,-0.051972000000000004,-7.98,-9.8875,10.9375
742,9292206,0.964776,-0.121512,-0.05209400000000001,-9.52,-8.82,11.8825
743,9292304,0.9627020000000001,-0.109678,-0.048922,-10.325,-8.085,11.7775
744,9292402,0.9563581,-0.09674601,-0.04575,-10.8325,-8.015,11.165
745,9292500,0.9476959999999999,-0.082472,-0.046726,-10.4825,-8.1375,10.3425
746,9292597,0.9435479999999999,-0.07137001,-0.041724000000000004,-10.4125,-8.085,9.485
747,9292695,0.9496479999999999,-0.060634,-0.037332,-9.905,-8.435,8.5575
748,9292793,0.9552601000000001,-0.05856,-0.029889999999999996,-8.96,-8.9425,7.735
749,9292891,0.9595300999999999,-0.049776,-0.020862000000000002,-8.33,-9.0475,7.245
750,9292989,0.9514780999999999,-0.050996,-0.012078,-8.0325,-9.625,7.175
751,9293087,0.94916,-0.045384,-0.015738,-8.0675,-11.27,6.825
752,9293185,0.939766,-0.054655999999999996,-0.01952,-7.84,-12.3375,6.5625
753,9293283,0.9352520000000001,-0.061488,-0.021228,-8.0325,-12.6,6.23
754,9293381,0.930006,-0.06600201,-0.019032,-8.26,-12.32,5.9675
755,9293479,0.919758,-0.079666,-0.014884,-8.995,-12.075,5.7225
756,9293577,0.924882,-0.093696,-0.01647,-9.765,-12.2325,4.935
757,9293675,0.937448,-0.10638399999999999,-0.016104,-10.2725,-11.725,4.375
758,9293772,0.936472,-0.118584,-0.004026,-11.1825,-11.375,3.8325
759,9293870,0.9376921,-0.12041400000000001,-0.000244,-12.4075,-11.7425,2.94
760,9293968,0.9444020000000001,-0.129442,-0.008540001,-13.09,-11.97,2.135
761,9294066,0.9404981,-0.134688,-0.010248,-13.4575,-11.83,1.785
762,9294164,0.93269,-0.124074,-0.01403,-14.7,-11.2175,1.4875
763,9294262,0.926834,-0.108946,-0.016347999999999998,-15.715,-10.465,1.33
764,9294360,0.9239059999999999,-0.10516400000000001,-0.018178,-16.485,-9.66,1.5225
765,9294458,0.9229299999999999,-0.10723800000000001,-0.022326,-17.22,-9.17,2.135
766,9294556,0.9290299999999999,-0.11712,-0.022326,-18.0075,-8.3125,2.7825
767,9294654,0.940254,-0.13078399999999998,-0.018178,-18.7425,-7.0175,3.6225
768,9294752,0.9561139999999999,-0.15067,-0.005368,-19.285,-5.775,4.585
769,9294850,0.978318,-0.17202,0.0051240009999999996,-19.74,-4.4275,5.285
770,9294947,1.005524,-0.17629,0.01464,-20.1775,-3.0275,5.9675
771,9295045,1.047736,-0.184586,0.019642,-20.23,-1.4525,6.3
772,9295143,1.0948280000000001,-0.191052,0.034404000000000004,-19.7925,-0.14,6.2125
773,9295241,1.136796,-0.183,0.051972000000000004,-18.9525,1.085,6.125
774,9295339,1.1690040000000002,-0.15799000000000002,0.07173600000000001,-17.9725,2.3625,6.1075
775,9295437,1.1930379999999998,-0.130662,0.094062,-16.5725,3.6575,6.5625
776,9295535,1.2038959999999999,-0.102846,0.11138599999999999,-14.805,4.48,7.665
777,9295633,1.195234,-0.081374,0.132004,-13.1425,5.2675,8.995
778,9295731,1.199626,-0.1159,0.059048,-11.5325,5.74,9.835
779,9295829,1.244522,-0.17433800000000002,-0.057462,-9.8175,3.045,10.99
780,9295927,1.314184,-0.139202,-0.143228,-10.5525,1.5575,12.4775
781,9296024,1.358592,-0.019642,-0.176534,-10.815,7.63,13.825
782,9296122,1.328824,0.060877999999999995,-0.176534,-3.255,15.6975,16.3625
783,9296220,1.2496459999999998,0.100162,-0.191174,10.5175,17.15,20.195
784,9296318,1.1716879999999998,0.083814,-0.172874,21.455,11.935,23.6075
785,9296416,1.0673780000000002,0.025376,-0.140666,21.8575,5.9325,24.255
786,9296514,1.01016,-0.015372,-0.140544,18.27,5.2675,21.4025
787,9296612,0.966484,-0.09089001,-0.171166,20.1775,5.0925,17.745
788,9296710,0.8985301,-0.21386599999999997,-0.20264200000000002,20.8075,0.665,13.195
789,9296808,0.8597341000000001,-0.273768,-0.22496799999999997,13.9125,-1.7675,9.17
790,9296906,0.8694940999999999,-0.26608200000000004,-0.277306,5.3025,0.6125,6.9825
791,9297004,0.8480221,-0.24912399999999998,-0.308294,-1.295,-1.155,6.5625
792,9297101,0.827892,-0.219844,-0.350628,-10.115,-4.3225,6.8425
793,9297199,0.8274040000000001,-0.20008,-0.374052,-15.1725,-5.775,9.4675
794,9297297,0.8360661,-0.168604,-0.37197800000000003,-17.7625,-6.5275,12.3725
795,9297395,0.8662001,-0.13115,-0.354532,-19.7925,-5.67,14.7875
796,9297493,0.8988959999999999,-0.102968,-0.322202,-20.965,-5.81,16.24
797,9297591,0.920734,-0.08601,-0.285114,-21.3325,-6.9475,16.45
798,9297689,0.9370821,-0.082594,-0.26913200000000004,-20.93,-8.4875,14.4725
799,9297787,0.953674,-0.08918200000000001,-0.269742,-18.515,-8.995,10.9725
800,9297885,0.9456220999999999,-0.08869401,-0.271206,-15.33,-8.435,6.4925
801,9297983,0.9476959999999999,-0.06941801,-0.263886,-12.1625,-6.3875,1.225
802,9298081,0.9618481,-0.06588,-0.238998,-9.135,-3.6575,-4.34
803,9298178,0.9668501,-0.058316,-0.22057600000000002,-6.1075,-1.9075,-9.6075
804,9298276,0.9486720999999999,-0.05124001,-0.20008,-3.4475,-1.785,-14.6825
805,9298374,0.9250040999999999,-0.0366,-0.183732,-1.6275,-1.785,-18.935
806,9298472,0.90585,-0.028792,-0.173118,-0.3325,-2.03,-21.8225
807,9298570,0.8982860999999999,-0.010736,-0.170068,0.595,-2.205,-23.31
808,9298668,0.90585,-0.009028000999999999,-0.16043,1.5225,-0.9275,-23.555
809,9298766,0.921344,-0.015372,-0.14896199999999998,2.7475,1.19,-23.0475
810,9298864,0.9348860999999999,-0.032330000000000005,-0.136152,4.3925,3.4825,-22.2775
811,9298962,0.938058,-0.05160601,-0.12053599999999999,5.8625,4.9875,-21.4375
812,9299060,0.930372,-0.062952,-0.11041,7.42,4.9,-20.58
813,9299158,0.9201241,-0.07222401,-0.10065,9.3275,3.745,-20.0025
814,9299256,0.908168,-0.077592,-0.093696,11.0075,3.045,-19.39
815,9299353,0.8936501,-0.091744,-0.08003201,12.4775,2.03,-19.0225
816,9299451,0.879986,-0.09991799999999999,-0.069662,13.4225,0.2625,-18.9525
817,9299549,0.868152,-0.09821001,-0.061366,14.0525,-1.05,-18.7775
818,9299647,0.862296,-0.09455001,-0.04867801,14.2275,-1.785,-18.515
819,9299745,0.859368,-0.09345201,-0.043066,13.58,-3.01,-18.165
820,9299843,0.8514379999999999,-0.08442401,-0.03904,12.845,-4.8475,-17.6575
821,9299941,0.8400921,-0.07527400000000001,-0.028669999999999998,12.4775,-5.8975,-17.0275
822,9300039,0.8194739999999999,-0.06344,-0.01891,12.39,-6.335,-16.38
823,9300137,0.797148,-0.049776,-0.013908000000000002,12.18,-6.2475,-15.68
824,9300235,0.7829961,-0.043554,-0.008906,11.97,-5.635,-15.085
825,9300332,0.769332,-0.040626,-0.004636001,12.11,-3.9725,-14.4375
826,9300430,0.74908,-0.031598,-0.006587999999999999,13.0725,-2.765,-14.0
827,9300528,0.740418,-0.02684,-0.005002,14.35,-0.4025,-13.65
828,9300626,0.75579,-0.0183,-0.010248,16.5725,3.395,-12.7925
829,9300724,0.784826,-0.008418,-0.014274,19.74,6.0025,-11.5675
830,9300822,0.833016,0.001342,-0.010736,23.38,7.5075,-10.1325
831,9300920,0.907802,0.022448,0.000122,25.9525,9.8,-8.6975
832,9301018,1.000644,0.046238,0.024644,27.8425,11.9175,-7.315
833,9301116,1.091412,0.06795401,0.05368,29.0675,12.95,-6.3525
834,9301214,1.186084,0.068442,0.091012,29.8025,14.0175,-6.4575
835,9301312,1.2724600000000001,0.048922,0.132004,29.575,14.63,-7.5075
836,9301410,1.320894,0.007320001,0.183976,27.65,14.0,-9.5375
837,9301508,1.3359,-0.054412,0.236436,24.7275,12.6525,-12.3725
838,9301605,1.327726,-0.12444000000000001,0.276696,21.7,11.2,-15.7325
839,9301703,1.297348,-0.173118,0.31049,19.2325,8.3475,-19.39
840,9301801,1.259528,-0.196664,0.33123,17.6225,4.515,-22.8025
841,9301899,1.2280520000000001,-0.163724,0.337696,15.3125,1.6975,-25.7075
842,9301997,1.247572,-0.10309000000000001,0.183488,12.04,-0.5425,-28.0175
843,9302095,1.319796,-0.055265999999999996,-0.055022,3.2725,-10.465,-29.61
844,9302193,1.4396,-0.19764,-0.147742,-5.355,-17.3075,-31.535
845,9302291,1.49145,-0.357582,-0.155916,-9.065,-4.0075,-37.065
846,9302389,1.393972,-0.376004,-0.223016,-17.0275,7.245,-48.37
847,9302487,1.25416,-0.347456,-0.400038,-30.135,-2.31,-61.32
848,9302585,1.045662,-0.269864,-0.420534,-37.87,-13.1425,-66.9375
849,9302682,0.9711200999999999,-0.291458,-0.316834,-30.485,-10.0275,-66.115
850,9302780,0.8999940000000001,-0.12017,-0.376126,-30.5025,-7.315,-66.6575
851,9302878,0.794708,0.1098,-0.367708,-30.17,-16.59,-61.915
852,9302976,0.8210601000000001,0.12163399999999999,-0.40809,-18.13,-12.9325,-59.0975
853,9303074,0.8516819999999999,0.196786,-0.44676400000000005,-12.18,-7.98,-57.4175
854,9303172,0.878034,0.241682,-0.459086,-1.68,-4.9525,-53.76
855,9303270,0.895114,0.262788,-0.459086,7.4375,-3.9725,-52.7275
856,9303368,0.93696,0.271938,-0.439932,14.8925,-5.5825,-52.7975
857,9303466,0.980514,0.24424400000000002,-0.406138,22.54,-7.98,-53.41
858,9303564,1.021018,0.21276799999999998,-0.371368,29.2425,-12.7575,-52.2375
859,9303662,1.071404,0.196176,-0.331108,34.335,-15.505,-47.6175
860,9303759,1.1265479999999999,0.146156,-0.26608200000000004,36.085,-15.4175,-38.99
861,9303857,1.156194,0.04575,-0.19642,33.635,-13.2125,-26.18
862,9303955,1.170102,-0.057584,-0.158966,26.985,-12.04,-12.53
863,9304053,1.126792,-0.14213,-0.1403,19.7575,-10.2025,0.6825
864,9304151,1.0279719999999999,-0.197518,-0.136518,13.6675,-8.7675,11.865
865,9304249,0.9241501,-0.25363800000000003,-0.14701,9.38,-8.68,20.65
866,9304347,0.839482,-0.29463,-0.14713199999999999,5.2325,-7.6825,26.495
867,9304445,0.775798,-0.298168,-0.1342,0.7,-6.545,28.7
868,9304543,0.733464,-0.275964,-0.129686,-3.8325,-6.7375,28.0175
869,9304641,0.722362,-0.242048,-0.126148,-7.8925,-6.335,25.4275
870,9304739,0.7348060000000001,-0.21276799999999998,-0.111752,-12.7925,-4.9,22.1725
871,9304836,0.7564001,-0.175924,-0.103578,-17.9375,-4.095,18.865
872,9304934,0.790682,-0.14164200000000002,-0.10223600000000001,-21.9275,-3.2375,15.5925
873,9305032,0.8327720999999999,-0.09821001,-0.10052799999999999,-25.025,-1.995,13.265
874,9305130,0.8758381,-0.058316,-0.090158,-26.7225,-0.1575,12.775
875,9305228,0.906826,-0.022692,-0.06795401,-27.3875,1.4175,13.1425
876,9305326,0.92171,0.021228,-0.042212,-29.2075,1.4875,13.7725
877,9305424,0.919636,0.050874,-0.027694,-29.8375,-0.8925,14.4025
878,9305522,0.9004821,0.063318,-0.023546,-29.2075,-5.005,14.735
879,9305620,0.8735200000000001,0.06795401,-0.03477,-28.0,-9.205,14.21
880,9305718,0.8397261,0.062586,-0.04404201,-26.2325,-13.2825,13.055
881,9305815,0.81862,0.05929201,-0.056608000000000006,-24.08,-16.5375,11.55
882,9305913,0.8066641,0.047458,-0.059902,-21.875,-18.9,9.555
883,9306011,0.7953180000000001,0.033306,-0.058926,-19.67,-20.58,7.315
884,9306109,0.7823859999999999,0.006344,-0.049898000000000005,-17.6575,-21.1925,4.8825
885,9306207,0.763354,-0.02257,-0.042822000000000006,-16.0825,-21.0175,2.87
886,9306305,0.7352941,-0.064294,-0.023302,-15.2775,-19.7575,1.3475
887,9306403,0.71309,-0.07381001,-0.021228,-14.9275,-16.975,0.1575
888,9306501,0.699914,-0.067832,-0.016225999999999997,-15.2075,-14.035,-1.015
889,9306599,0.704306,-0.06380599999999999,-0.009150001,-16.485,-11.3575,-2.065
890,9306697,0.7285841,-0.066978,-0.009394,-18.13,-8.89,-2.8
891,9306795,0.7771399999999999,-0.085522,-0.014396,-20.02,-6.3525,-3.535
892,9306892,0.85644,-0.12041400000000001,-0.021838,-21.7,-3.395,-4.1475
893,9306990,0.9506241,-0.150792,-0.026595999999999998,-22.4175,-0.91,-4.445
894,9307088,1.0473700000000001,-0.135908,-0.030987999999999998,-22.33,-0.175,-4.27
895,9307186,1.142896,-0.114192,-0.032086,-21.0875,-0.595,-3.5175
896,9307284,1.236104,-0.09784401,0.00488,-18.41,-1.05,-2.3625
897,9307382,1.318454,-0.067588,0.06539201,-14.7175,0.1925,-0.8925
898,9307480,1.370792,-0.001464,0.135542,-10.15,1.4,2.0475
899,9307578,1.392752,0.056852,0.205936,-6.5275,2.38,6.895
900,9307676,1.3705479999999999,0.059048,0.275476,-4.9875,3.8675,13.1075
901,9307774,1.349076,-0.017568,0.198372,-5.355,3.2375,19.355
902,9307872,1.375062,-0.136152,0.06356201,-7.56,-3.115,25.6375
903,9307970,1.4398440000000001,-0.17360599999999998,-0.039894,-13.9475,-4.9,30.7475
904,9308067,1.512312,-0.039528,-0.15579400000000002,-18.445,5.74,35.98
905,9308165,1.48596,0.044286,-0.280478,-11.3575,18.1475,41.545
906,9308263,1.4177620000000002,0.131394,-0.390644,5.915,19.915,48.16
907,9308361,1.261236,0.09552601,-0.33671999999999996,23.31,11.1125,54.4075
908,9308459,1.069696,0.082228,-0.22045399999999998,20.44,3.255,53.375
909,9308557,1.017724,0.087352,-0.267912,15.26,5.81,47.9675
910,9308655,0.9106081,0.006344,-0.290604,27.125,-1.085,44.1
911,9308753,0.753594,-0.102602,-0.24082800000000001,26.88,-13.3875,34.72
912,9308851,0.760914,-0.201544,-0.31158800000000003,17.3075,-6.195,28.77
913,9308949,0.775798,-0.28316199999999997,-0.30402399999999996,14.0,-3.0625,28.14
914,9309047,0.859856,-0.285846,-0.337208,1.8025,0.0175,26.4075
915,9309144,0.9656300999999999,-0.31232,-0.33379200000000003,-4.8125,3.745,28.4025
916,9309242,1.062742,-0.302682,-0.325252,-11.445,-0.6125,31.2725
917,9309340,1.128744,-0.285236,-0.27633,-14.56,-5.74,33.705
918,9309438,1.1537540000000002,-0.27205999999999997,-0.250344,-16.0825,-10.85,32.34
919,9309536,1.107882,-0.236558,-0.241682,-18.025,-17.0275,26.7925
920,9309634,1.053592,-0.18251199999999998,-0.24656199999999998,-19.95,-20.65,18.13
921,9309732,0.99735,-0.141276,-0.237168,-21.2975,-19.39,8.785
922,9309830,0.9581881,-0.106262,-0.215574,-20.8075,-15.2075,-0.665
923,9309928,0.898042,-0.052826,-0.188124,-18.655,-11.655,-9.905
924,9310026,0.827526,0.012688,-0.179584,-15.015,-9.9225,-17.7275
925,9310124,0.7671359999999999,0.064416,-0.171166,-11.06,-7.6475,-22.6625
926,9310221,0.733586,0.097478,-0.15677,-7.6475,-4.8125,-24.7625
927,9310319,0.72773,0.104066,-0.14469200000000002,-4.2,-2.8,-24.78
928,9310417,0.745908,0.08967,-0.13456600000000002,-0.8225,-1.3825,-23.94
929,9310515,0.767746,0.07442,-0.11870599999999999,1.575,-0.875,-23.17
930,9310613,0.8119101,0.0488,-0.11321600000000001,4.6025,-0.1925,-22.505
931,9310711,0.8616860000000001,0.021594,-0.09869801,7.945,0.735,-21.945
932,9310809,0.8995059999999999,0.000488,-0.074542,11.3925,0.4725,-21.385
933,9310907,0.906826,-0.012444,-0.053436000000000004,14.875,-1.3825,-20.51
934,9311005,0.8860860999999999,-0.01464,-0.03782,17.885,-4.375,-19.215
935,9311103,0.8581479999999999,-0.030133999999999998,-0.039284,20.3175,-8.0325,-17.0625
936,9311201,0.823744,-0.048922,-0.0488,21.455,-10.185,-15.7675
937,9311299,0.803248,-0.05246,-0.034648000000000005,22.4525,-10.71,-14.7175
938,9311396,0.783362,-0.052948,-0.020984,23.2575,-11.7425,-13.685
939,9311494,0.7787261,-0.056729999999999996,0.000366,23.9225,-12.565,-12.88
940,9311592,0.7722600000000001,-0.062341999999999995,0.013663999999999999,23.9225,-14.245,-11.795
941,9311690,0.7600600000000001,-0.063928,0.025376,23.38,-15.9775,-10.3775
942,9311788,0.745664,-0.060634,0.03416,22.89,-16.38,-9.065
943,9311886,0.735172,-0.04331,0.035746,22.7675,-15.1025,-8.12
944,9311984,0.727486,0.00061,0.031598,22.61,-13.1075,-7.56
945,9312082,0.727242,0.004514,0.021228,23.52,-11.2,-6.8425
946,9312180,0.7501781,-0.004758,0.009882,26.145,-8.8725,-5.5475
947,9312278,0.8010520000000001,0.000122,0.008174001,29.19,-5.6175,-3.7275
948,9312376,0.8818159999999999,0.025742,0.016104,31.115,-2.1525,-1.6275
949,9312473,0.98393,0.06075601,0.022692,31.675,0.6475,0.8400001
950,9312571,1.106052,0.07222401,0.02074,30.7475,2.0125,2.8175
951,9312669,1.20841,0.040626,0.060267999999999995,28.28,1.9775,3.6575
952,9312767,1.2786819999999999,-0.020252000000000003,0.148352,25.3225,3.3075,2.6425
953,9312865,1.322602,-0.127856,0.22862800000000003,21.2275,4.3575,-0.6825
954,9312963,1.328946,-0.239852,0.29072600000000004,15.785,2.9575,-6.44
955,9313061,1.304302,-0.30487800000000004,0.34892,11.5325,1.4175,-13.825
956,9313159,1.288808,-0.29768,0.31146599999999997,10.29,0.2625,-21.2975
957,9313257,1.3407799999999999,-0.228872,0.013908000000000002,7.4375,-9.1175,-27.615
958,9313355,1.405196,-0.19825,-0.163846,-3.57,-28.385,-31.7275
959,9313453,1.4823,-0.357704,-0.196542,-12.0575,-26.74,-34.8425
960,9313551,1.544642,-0.43493000000000004,-0.24558600000000003,-20.0025,-5.0925,-43.715
961,9313648,1.5201200000000001,-0.5056901,-0.343674,-35.21,-6.0725,-58.5725
962,9313746,1.3035700000000001,-0.454816,-0.354532,-47.3375,-17.185,-70.6825
963,9313844,1.142042,-0.364048,-0.170068,-45.5525,-10.115,-72.205
964,9313942,1.065548,-0.23606999999999997,-0.20313,-37.03,-4.4625,-72.1175
965,9314040,0.8671761,0.14457,-0.315492,-43.5225,-17.8325,-65.50251
966,9314138,0.870958,0.22191799999999998,-0.42517,-34.7375,-14.84,-59.255
967,9314236,0.8975540000000001,0.2318,-0.4697,-28.4725,-8.0325,-58.065
968,9314334,0.9189040999999999,0.23753400000000002,-0.470188,-17.5875,-10.0625,-55.7025
969,9314432,0.9619700000000001,0.249734,-0.47043199999999996,-8.155,-12.775,-55.5975
970,9314530,1.031144,0.231312,-0.44029799999999997,-0.7175,-12.39,-56.7525
971,9314627,1.097024,0.19397999999999999,-0.398086,5.9325,-12.9325,-58.4325
972,9314725,1.141066,0.156892,-0.36478,10.4825,-15.5575,-57.33
973,9314823,1.15839,0.130662,-0.34111199999999997,13.0725,-15.9075,-51.975
974,9314921,1.1392360000000001,0.09906401,-0.302072,14.6475,-14.3675,-43.0675
975,9315019,1.122522,0.031354,-0.267058,13.51,-12.985,-30.94
976,9315117,1.105198,-0.036478,-0.233508,9.275,-12.9325,-17.2725
977,9315215,1.064694,-0.101626,-0.208254,3.955,-13.1075,-3.465
978,9315313,0.9836860999999999,-0.168604,-0.20105599999999998,-0.7525,-14.455,8.8725
979,9315411,0.8847440999999999,-0.23668000000000003,-0.20190999999999998,-4.1825,-16.24,18.445
980,9315509,0.7983680000000001,-0.26657,-0.199348,-7.1225,-16.2575,24.6225
981,9315607,0.723582,-0.275354,-0.193248,-9.625,-15.0325,27.825
982,9315704,0.6588,-0.27633,-0.18141400000000002,-11.235,-13.755,28.5425
983,9315802,0.624152,-0.25925,-0.170312,-13.6675,-12.495,27.5975
984,9315900,0.61793,-0.22277199999999997,-0.158722,-17.2725,-9.9575,24.955
985,9315998,0.627446,-0.183122,-0.15128,-20.6675,-6.93,21.35
986,9316096,0.635742,-0.135786,-0.139202,-23.03,-4.83,17.6925
987,9316194,0.669292,-0.080886,-0.139934,-24.78,-3.43,14.525
988,9316292,0.722118,-0.05209400000000001,-0.12651400000000002,-24.92,-0.4025,12.74
989,9316390,0.756644,-0.008906,-0.09259801,-25.9875,3.64,12.3025
990,9316488,0.7779941,0.020130000000000002,-0.065514,-26.845,2.94,12.145
991,9316586,0.7928781,0.036478,-0.049288,-26.635,-1.015,11.41
992,9316684,0.7903161,0.0366,-0.04392,-26.67,-4.3925,10.4125
993,9316781,0.781532,0.029768,-0.047336,-25.8475,-6.7725,8.785
994,9316879,0.7795801,0.02135,-0.045262000000000004,-24.0275,-8.1725,6.72
995,9316977,0.77653,0.011346,-0.036844,-21.7875,-9.8,3.9375
996,9317075,0.775188,0.005246,-0.02501,-19.3725,-11.76,1.05
997,9317173,0.774212,-0.0122,-0.018056,-16.73,-14.175,-1.4525
998,9317271,0.7643300000000001,-0.02623,-0.009516001,-14.595,-16.6775,-3.6575
999,9317369,0.756888,-0.040138,-0.008418,-13.4225,-18.1125,-5.53
1000,9317467,0.7478600000000001,-0.07551801,0.00671,-12.775,-17.955,-6.8775
1001,9317565,0.7417600000000001,-0.08052000000000001,0.003904,-12.915,-16.38,-7.9975
1002,9317663,0.7348060000000001,-0.07490801,0.010492,-14.7875,-13.3525,-8.995
1003,9317761,0.7540819999999999,-0.08454600000000001,0.017202000000000002,-17.08,-9.8175,-10.08
1004,9317859,0.8006861,-0.13664,0.014518000000000001,-19.6875,-6.125,-10.8325
1005,9317956,0.8786440999999999,-0.203008,-0.000366,-21.595,-2.7475,-11.2175
1006,9318054,0.9956421,-0.220088,-0.024034,-22.645,0.4725,-11.4975
1007,9318152,1.140944,-0.22191799999999998,-0.082228,-22.3825,2.4675,-10.9375
1008,9318250,1.250378,-0.18178,-0.063196,-20.86,3.78,-9.87
1009,9318348,1.3329719999999998,-0.06283,0.019032,-17.8325,7.7,-8.8025
1010,9318446,1.3954360000000001,0.050386,0.132736,-10.5175,12.0225,-4.0075
1011,9318544,1.44265,0.197762,0.235948,-1.33,16.03,4.9175
1012,9318642,1.47559,0.307562,0.317932,6.8775,19.81,15.8025
1013,9318740,1.408978,0.259006,0.289506,11.9525,17.885,26.7225
1014,9318838,1.3116219999999998,0.008174001,0.04392,13.2825,4.7775,34.825
1015,9318936,1.314794,-0.133224,-0.137494,5.39,-8.47,40.0575
1016,9319034,1.43289,-0.04148,-0.272548,-9.59,0.1925,43.4875
1017,9319131,1.4940120000000001,-0.01281,-0.452132,-11.9175,19.915,45.9725
1018,9319229,1.452288,-0.169214,-0.623542,10.2025,17.3425,52.115
1019,9319327,1.336388,-0.149328,-0.547048,26.005,4.55,56.6475
1020,9319425,1.331508,0.14164200000000002,-0.5368,22.1725,12.0225,55.3
1021,9319523,1.160708,0.222894,-0.384544,36.435,9.8875,56.665
1022,9319621,0.8625401,0.257786,-0.26156799999999997,40.9325,-6.965,52.6575
1023,9319719,0.7442,0.081862,-0.307318,38.045,-10.6225,47.215
1024,9319817,0.720288,-0.19642,-0.36295,35.385,-12.005,45.99
1025,9319915,0.7836061,-0.34257600000000005,-0.378444,23.9575,-3.92,43.47
1026,9320013,0.8931620000000001,-0.386862,-0.360632,12.4075,5.6175,39.34
1027,9320111,1.015284,-0.404308,-0.337574,3.7975,5.88,34.9125
1028,9320209,1.147166,-0.401502,-0.30927,0.35,-0.4725,31.92
1029,9320307,1.20963,-0.39918400000000004,-0.282064,-0.9625,-7.2275,26.425
1030,9320404,1.1807159999999999,-0.333914,-0.243756,-3.99,-14.1225,18.55
1031,9320502,1.125084,-0.254004,-0.23167800000000002,-7.8225,-18.5325,8.3825
1032,9320600,1.057374,-0.158356,-0.236192,-10.045,-20.195,-2.1
1033,9320698,0.9990581000000001,-0.07246799999999999,-0.235094,-8.645,-19.39,-11.6375
1034,9320796,0.9392780000000001,0.004636001,-0.210694,-4.62,-17.01,-20.44
1035,9320894,0.8665661,0.082594,-0.179706,0.9625,-15.0325,-27.37
1036,9320992,0.791048,0.141764,-0.15921,7.735,-14.105,-31.36
1037,9321090,0.730292,0.188612,-0.14871800000000002,13.265,-13.86,-32.2175
1038,9321188,0.6958880000000001,0.19885999999999998,-0.142252,17.15,-13.7375,-30.7125
1039,9321286,0.6993041,0.18483,-0.135908,20.3525,-12.9675,-28.2625
1040,9321384,0.7239479999999999,0.14566800000000002,-0.12566,23.905,-11.76,-25.9875
1041,9321481,0.75457,0.090036,-0.104676,28.07,-10.57,-24.325
1042,9321579,0.7926340000000001,0.01403,-0.080276,31.675,-8.7325,-23.2225
1043,9321677,0.8289901,-0.051972000000000004,-0.056729999999999996,33.18,-7.735,-22.785
1044,9321775,0.8544879999999999,-0.110654,-0.036112,33.3375,-8.6975,-22.5575
1045,9321873,0.849852,-0.146156,-0.020618,33.04,-11.2875,-22.085
1046,9321971,0.8274040000000001,-0.167384,-0.0051240009999999996,32.5325,-14.455,-21.07
1047,9322069,0.793488,-0.171166,-0.001464,32.025,-17.5,-19.775
1048,9322167,0.755424,-0.162382,-0.005978,31.045,-19.67,-18.69
1049,9322265,0.732244,-0.14798599999999998,-0.00488,29.6275,-19.32,-17.185
1050,9322363,0.71797,-0.12980799999999998,0.016347999999999998,27.5625,-18.1125,-15.155
1051,9322461,0.702232,-0.11358199999999999,0.030987999999999998,25.13,-16.9925,-13.0025
1052,9322559,0.689666,-0.095282,0.042456,22.575,-16.345,-10.6925
1053,9322656,0.686372,-0.06880801,0.050508,19.9325,-14.735,-8.4
1054,9322754,0.6956439999999999,-0.04331,0.04941,18.0775,-11.725,-6.1075
1055,9322852,0.69967,-0.020496,0.04867801,17.15,-8.435,-4.0075
1056,9322950,0.7143101,-0.02135,0.048434,18.305,-5.565,-2.0125
1057,9323048,0.753838,-0.027083999999999997,0.036233999999999995,21.175,-2.9575,-0.2275
1058,9323146,0.8192299999999999,-0.010248,0.020496,24.6225,-1.4175,0.875
1059,9323244,0.9173181,0.039162,0.023302,26.2675,0.875,1.47
1060,9323342,1.032608,0.081496,0.021594,26.04,3.8675,1.96
1061,9323440,1.171932,0.102968,0.0064659999999999995,25.55,4.935,2.17
1062,9323538,1.292834,0.10516400000000001,0.039772,23.9575,4.025,0.8225
1063,9323636,1.372256,0.030866,0.11846199999999998,22.4875,4.3575,-1.435
1064,9323734,1.404464,-0.13859200000000002,0.207156,20.4575,5.6175,-4.76
1065,9323832,1.3743299999999998,-0.265228,0.291824,15.12,5.5825,-9.6425
1066,9323929,1.313818,-0.303048,0.362218,9.0825,6.685,-16.135
1067,9324027,1.259772,-0.27510999999999997,0.404186,6.9825,6.545,-22.82
1068,9324125,1.26819,-0.208254,0.135054,6.44,1.33,-28.49
1069,9324223,1.313574,-0.095282,-0.21594000000000002,-6.16,-18.305,-31.22
1070,9324321,1.4435040000000001,-0.23802199999999998,-0.341844,-21.035,-31.8675,-32.2175
1071,9324419,1.588684,-0.462868,-0.389424,-29.3475,-10.115,-39.9525
1072,9324517,1.5982,-0.60024,-0.359656,-40.985,15.9425,-57.295
1073,9324615,1.326018,-0.49885799999999997,-0.45688999999999996,-53.7775,-0.4725,-74.18251
1074,9324713,1.088484,-0.52094,-0.39613400000000004,-56.7525,-21.98,-81.77750999999999
1075,9324811,0.988078,-0.41504399999999997,-0.264374,-48.1075,-9.7475,-85.76751
1076,9324909,0.8221581,-0.08442401,-0.2623,-50.4175,-10.8325,-87.15
1077,9325007,0.753472,0.16714,-0.310734,-44.2225,-14.6825,-81.46251
1078,9325105,0.8228901,0.30780599999999997,-0.434198,-40.7925,-8.7325,-75.845
1079,9325203,0.8670540999999999,0.377956,-0.515328,-34.3525,-13.51,-68.355
1080,9325301,0.9587979999999999,0.43785799999999997,-0.526918,-24.78,-11.935,-61.425
1081,9325398,1.0711600000000001,0.41882600000000003,-0.503128,-16.4675,-11.48,-56.035
1082,9325496,1.184986,0.343308,-0.46774799999999994,-7.2975,-12.7225,-51.1
1083,9325594,1.250378,0.24558600000000003,-0.44249399999999994,0.035,-14.7525,-44.2575
1084,9325692,1.29869,0.152866,-0.402478,4.1825,-14.7525,-35.1575
1085,9325790,1.32675,0.06380599999999999,-0.335012,6.72,-12.1625,-23.17
1086,9325888,1.297592,0.029889999999999996,-0.265228,7.3675,-10.1675,-8.855
1087,9325986,1.1923059999999999,-0.02196,-0.227042,6.2825,-11.69,5.5475
1088,9326084,1.031144,-0.135664,-0.221308,4.375,-16.9925,18.4275
1089,9326182,0.8975540000000001,-0.21374400000000002,-0.209718,0.56,-18.935,27.9825
1090,9326280,0.777628,-0.262056,-0.176778,-4.445,-17.605,34.0725
1091,9326378,0.684542,-0.275964,-0.162748,-9.4675,-17.0975,36.0325
1092,9326476,0.604388,-0.284138,-0.166408,-12.4425,-17.255,35.07
1093,9326574,0.55266,-0.268278,-0.171532,-13.58,-15.7675,32.5325
1094,9326671,0.543266,-0.233996,-0.17055599999999999,-15.295,-12.0575,28.2975
1095,9326769,0.556686,-0.167628,-0.16506600000000002,-16.73,-7.7875,23.0125
1096,9326867,0.57096,-0.108702,-0.15054800000000002,-17.7975,-5.7225,18.06
1097,9326965,0.620858,-0.045018,-0.14884,-18.7775,-4.9525,13.685
1098,9327063,0.694058,-0.009272001,-0.132858,-18.3225,-2.59,10.5175
1099,9327161,0.757376,0.032208,-0.10248,-19.2325,0.3675,8.9775
1100,9327259,0.80215,0.05624199999999999,-0.07515201,-19.495,0.875,8.2075
1101,9327357,0.820572,0.044652,-0.050996,-18.8475,-1.645,7.945
1102,9327455,0.8261841000000001,0.029768,-0.041602,-19.1625,-4.9525,7.7
1103,9327553,0.8106899999999999,0.014762,-0.033428,-20.23,-8.3475,7.3325
1104,9327651,0.784826,-0.002928,-0.031354,-21.1925,-12.9675,6.1075
1105,9327749,0.764818,-0.00549,-0.04087,-21.665,-17.15,4.095
1106,9327847,0.7506659999999999,-0.015006,-0.045872,-20.9125,-19.145,1.8725
1107,9327945,0.752984,-0.034648000000000005,-0.038918,-19.565,-18.8125,-0.35
1108,9328042,0.758108,-0.055754,-0.018788,-18.55,-18.8125,-2.5025
1109,9328140,0.762134,-0.07747001,0.0035380000000000003,-18.83,-18.3575,-4.235
1110,9328238,0.75762,-0.09930800000000001,0.020008,-19.95,-16.8875,-5.6
1111,9328336,0.7479819999999999,-0.11773,0.030256,-21.525,-15.085,-7.07
1112,9328434,0.73688,-0.114192,0.040260000000000004,-24.2725,-11.7075,-8.6975
1113,9328532,0.736392,-0.119926,0.047458,-26.985,-7.805,-10.535
1114,9328630,0.768234,-0.14518,0.029401999999999998,-28.84,-3.675,-12.32
1115,9328728,0.8437520000000001,-0.158112,-0.000244,-28.945,0.49,-13.545
1116,9328826,0.9575780999999999,-0.130052,-0.028792,-28.49,4.3575,-13.6325
1117,9328924,1.106052,-0.10943399999999999,-0.070516,-26.5475,7.665,-12.2675
1118,9329022,1.232322,-0.050874,-0.03477,-22.8725,11.025,-8.645
1119,9329119,1.333582,0.022692,0.04575,-16.52,15.61,-3.4475
1120,9329217,1.39751,0.11724200000000001,0.140178,-5.7925,17.4825,4.515
1121,9329315,1.429352,0.217404,0.23838800000000002,4.375,17.885,13.44
1122,9329413,1.4635120000000001,0.224358,0.13176,11.7075,16.8175,22.7675
1123,9329511,1.4417959999999999,0.075762,-0.080886,13.335,4.2175,32.2175
1124,9329609,1.464488,-0.007808001,-0.233264,4.305,-7.2975,39.795
1125,9329707,1.573312,0.091744,-0.434564,-5.39,3.7275,45.325
1126,9329805,1.632116,0.142496,-0.685396,0.3675,17.78,50.8725
1127,9329903,1.47986,-0.05612,-0.615368,26.1975,5.5825,59.675
1128,9330001,1.369206,0.07637200000000001,-0.567178,28.385,0.175,61.46
1129,9330099,1.2688,0.234118,-0.496662,35.1225,5.1975,59.255
1130,9330196,0.9568459999999999,0.185806,-0.330376,43.2425,-8.3475,54.6525
1131,9330294,0.800076,0.06832001,-0.291214,36.26,-7.595,47.9675
1132,9330392,0.7357821,-0.185196,-0.312564,30.38,-5.2325,43.7325
1133,9330490,0.745908,-0.359534,-0.37258800000000003,17.57,-0.6125,40.5475
1134,9330588,0.818376,-0.42895200000000006,-0.380274,4.2175,7.7875,37.4325
1135,9330686,0.9315921,-0.449692,-0.348798,-7.665,12.4425,33.145
1136,9330784,1.0589600000000001,-0.433954,-0.317688,-12.005,9.625,29.82
1137,9330882,1.1622940000000002,-0.37746799999999997,-0.292434,-11.48,5.11,26.6
1138,9330980,1.20963,-0.272426,-0.263642,-11.7775,1.295,21.665
1139,9331078,1.2221959999999998,-0.17238599999999998,-0.226798,-14.7175,-1.4,14.8925
1140,9331176,1.2019440000000001,-0.07027201,-0.20313,-18.0425,-4.41,6.93
1141,9331273,1.150216,0.013908000000000002,-0.197518,-18.4975,-7.665,-0.98
1142,9331371,1.069086,0.08100801,-0.19642,-15.015,-10.78,-7.8575
1143,9331469,0.949892,0.12505,-0.200446,-8.68,-12.88,-13.37
1144,9331567,0.826428,0.155672,-0.20776599999999998,-1.7675,-13.5975,-16.905
1145,9331665,0.741638,0.180072,-0.202032,3.99,-13.0375,-18.0425
1146,9331763,0.687592,0.174582,-0.19861600000000001,8.0325,-13.055,-17.605
1147,9331861,0.6673399999999999,0.136518,-0.19215,11.4275,-13.5275,-16.38
1148,9331959,0.66063,0.098088,-0.182024,14.595,-12.25,-15.6625
1149,9332057,0.663924,0.054412,-0.164212,18.13,-11.0075,-15.855
1150,9332155,0.684664,0.00061,-0.143228,21.245,-9.66,-16.1175
1151,9332253,0.718214,-0.054778,-0.124074,23.135,-8.2075,-16.5725
1152,9332351,0.75457,-0.10650599999999999,-0.10430999999999999,24.3075,-7.245,-17.3775
1153,9332448,0.77775,-0.134322,-0.08845001,24.85,-6.825,-18.55
1154,9332546,0.78385,-0.14213,-0.071614,24.9725,-6.93,-18.9875
1155,9332644,0.779824,-0.146522,-0.06490399999999999,24.255,-6.3525,-18.585
1156,9332742,0.777628,-0.131272,-0.05941401,22.7325,-4.655,-17.6225
1157,9332840,0.776042,-0.111508,-0.046604,21.9275,-3.255,-15.96
1158,9332938,0.7714061,-0.089914,-0.02196,21.77,-2.59,-13.615
1159,9333036,0.760304,-0.071004,0.003904,21.385,-2.66,-10.71
1160,9333134,0.753472,-0.065148,0.024522,20.9125,-2.765,-7.5075
1161,9333232,0.746396,-0.053801999999999996,0.047702,19.635,-2.17,-4.3225
1162,9333330,0.7399300999999999,-0.04404201,0.070638,18.095,-1.0675,-1.715
1163,9333427,0.7427361,-0.036233999999999995,0.085156,16.8875,-0.105,0.175
1164,9333525,0.746762,-0.035746,0.087352,16.52,0.35,1.4875
1165,9333623,0.7584741,-0.022326,0.085888,16.625,0.63,2.205
1166,9333721,0.798978,-0.016836,0.08296,17.9025,2.3625,2.975
1167,9333819,0.8704700000000001,0.00488,0.07710399999999999,20.0375,3.955,3.9025
1168,9333917,0.966728,0.024522,0.060512,22.54,4.48,4.655
1169,9334015,1.071526,0.042334,0.032208,23.9925,3.85,5.18
1170,9334113,1.195234,0.048068,-0.014396,23.7475,1.6975,5.32
1171,9334211,1.291858,0.038064,-0.00427,22.0675,-1.8375,4.7075
1172,9334309,1.3266280000000001,0.024766,0.066246,19.845,-2.45,2.555
1173,9334407,1.311012,-0.05368,0.174582,17.255,0.1225,-0.77
1174,9334505,1.27673,-0.18117,0.267058,13.9825,0.7,-4.725
1175,9334602,1.2342739999999999,-0.26766799999999996,0.330742,10.4825,0.7175,-10.92
1176,9334700,1.2049940000000001,-0.273524,0.362706,8.995,0.77,-18.165
1177,9334798,1.2372020000000001,-0.223504,0.160308,9.695,-0.0875,-24.5525
1178,9334896,1.296494,-0.070516,-0.133468,1.8725,-14.245,-29.9425
1179,9334994,1.366766,-0.164212,-0.203984,-10.9725,-29.4875,-32.1475
1180,9335092,1.44936,-0.374418,-0.21166999999999997,-14.3325,-14.4375,-35.665
1181,9335190,1.508896,-0.401624,-0.251686,-22.4525,7.105,-48.0375
1182,9335288,1.337242,-0.412116,-0.335134,-34.86,0.4725,-66.99
1183,9335386,1.106174,-0.392108,-0.327326,-45.01,-10.8325,-77.91
1184,9335484,1.011136,-0.39918400000000004,-0.24058400000000002,-40.4425,-7.8925,-79.555
1185,9335582,0.9015799999999999,-0.16689600000000002,-0.335134,-42.9975,-8.6275,-84.9275
1186,9335679,0.763232,0.019275999999999998,-0.35587399999999997,-49.0525,-19.8625,-83.96500999999999
1187,9335777,0.8193521,0.050996,-0.42578,-38.675,-12.2675,-81.445
1188,9335875,0.864492,0.15311,-0.496906,-36.0325,-13.755,-77.945
1189,9335973,0.9752681000000001,0.193248,-0.523014,-27.685,-12.1975,-73.43
1190,9336071,1.1095899999999999,0.233386,-0.485072,-23.1,-10.43,-70.735
1191,9336169,1.25416,0.250344,-0.423584,-16.73,-9.625,-67.935
1192,9336267,1.329434,0.268034,-0.37576,-10.5525,-12.1975,-62.58
1193,9336365,1.325896,0.273158,-0.357338,-7.0,-15.1725,-53.2525
1194,9336463,1.287344,0.238998,-0.325008,-5.67,-15.925,-39.4975
1195,9336561,1.2425700000000002,0.184342,-0.294142,-5.9325,-14.6125,-21.5775
1196,9336659,1.16144,0.087474,-0.26461799999999996,-6.755,-12.5125,-3.43
1197,9336757,1.0589600000000001,-0.01891,-0.23546,-7.2275,-11.8125,12.1625
1198,9336854,0.9605060999999999,-0.13078399999999998,-0.188368,-8.575,-11.0425,24.5875
1199,9336952,0.8638819999999999,-0.233386,-0.144448,-11.7775,-10.3775,33.5125
1200,9337050,0.795562,-0.28365,-0.126636,-16.275,-11.2875,38.5
1201,9337148,0.72895,-0.29133600000000004,-0.131272,-20.0025,-12.6875,40.0225
1202,9337246,0.676856,-0.26779000000000003,-0.137982,-22.155,-12.5825,39.27
1203,9337344,0.652944,-0.228872,-0.129442,-24.675,-9.9225,36.3125
1204,9337442,0.644526,-0.18251199999999998,-0.113094,-27.8425,-6.5625,31.0625
1205,9337540,0.636718,-0.130052,-0.100406,-30.555,-4.5675,24.745
1206,9337638,0.642452,-0.07307801,-0.09638,-32.2,-4.3225,19.1975
1207,9337736,0.678808,-0.036356,-0.09247601,-31.955,-4.1475,15.05
1208,9337834,0.713334,-0.008540001,-0.07612801,-31.64,-2.3975,13.09
1209,9337932,0.7418819999999999,0.022692,-0.047945999999999996,-32.55,0.7525,12.7575
1210,9338029,0.7598161,0.045384,-0.025254,-33.3375,1.295,13.265
1211,9338127,0.769576,0.034282,-0.008784,-34.5975,-1.33,13.895
1212,9338225,0.772748,0.027327999999999998,-0.001586,-37.17,-4.5675,13.3175
1213,9338323,0.768478,0.021838,-0.001464,-39.0775,-9.485,11.1825
1214,9338421,0.761524,0.003904,-0.000244,-39.095,-13.9475,7.7
1215,9338519,0.765062,-0.006587999999999999,0.000488,-37.94,-17.185,3.5875
1216,9338617,0.760426,-0.01769,-0.006222,-35.735,-21.0875,-0.7175
1217,9338715,0.759938,-0.024522,-0.002928,-33.6,-23.2925,-4.97
1218,9338813,0.751642,-0.016836,0.011101999999999999,-32.27,-23.2925,-8.2775
1219,9338911,0.749812,-0.006954000000000001,0.015738,-31.4475,-22.3125,-10.185
1220,9339009,0.737002,-0.011346,0.014396,-30.66,-20.5625,-10.85
1221,9339106,0.721264,-0.008418,0.019764,-30.1525,-17.6575,-10.9025
1222,9339204,0.72102,-0.023302,0.03172,-30.31,-13.16,-10.9025
1223,9339302,0.762134,-0.07173600000000001,0.025863999999999998,-29.75,-8.015,-10.535
1224,9339400,0.854244,-0.12895399999999999,0.020130000000000002,-27.8425,-3.185,-9.415
1225,9339498,0.99735,-0.12261,-0.011834,-24.92,1.4875,-7.525
1226,9339596,1.16449,-0.140666,-0.07600599999999999,-21.2275,3.675,-5.4425
1227,9339694,1.284416,-0.07881200000000001,-0.031476,-19.04,5.915,-2.5025
1228,9339792,1.40056,0.05612,0.05977999999999999,-16.555,12.0225,-0.49
1229,9339890,1.433134,0.14701,0.138348,-5.845,14.0875,3.0625
1230,9339988,1.419714,0.24046199999999998,0.180194,9.2225,10.7625,9.6775
1231,9340086,1.407392,0.264862,0.160918,21.4375,11.025,17.15
1232,9340183,1.3607879999999999,0.120048,0.026108,26.88,4.8475,24.5175
1233,9340281,1.301496,-0.018422,-0.10858,20.72,-6.44,30.7125
1234,9340379,1.372378,-0.010736,-0.221552,7.875,-0.4025,35.0
1235,9340477,1.4635120000000001,0.103822,-0.382714,0.5425,18.6725,40.7575
1236,9340575,1.444724,0.029524,-0.564372,13.6675,20.93,49.7175
1237,9340673,1.319552,-0.083814,-0.512644,33.6875,6.44,59.8325
1238,9340771,1.241594,0.058926,-0.416508,30.9575,8.47,63.175
1239,9340869,1.157292,0.15506199999999998,-0.36112,34.86,13.0025,63.7525
1240,9340967,0.9137799999999999,0.116388,-0.221308,44.3975,0.2275,60.865
1241,9341065,0.81862,-0.066978,-0.239608,36.68,-2.5025,52.57
1242,9341163,0.7904380999999999,-0.312808,-0.28328400000000004,30.905,-3.8325,48.265
1243,9341260,0.8244761,-0.45811,-0.34050199999999997,16.94,-1.435,43.89
1244,9341358,0.9168301,-0.520452,-0.342942,2.5725,7.5775,39.9
1245,9341456,1.048468,-0.522526,-0.335866,-7.595,8.435,36.7325
1246,9341554,1.177422,-0.46616199999999997,-0.322202,-11.76,2.205,35.07
1247,9341652,1.236226,-0.370026,-0.29377600000000004,-12.1275,-3.85,31.9025
1248,9341750,1.22671,-0.268644,-0.256444,-12.4425,-8.8725,25.9875
1249,9341848,1.185352,-0.181292,-0.23448400000000003,-14.735,-13.02,17.78
1250,9341946,1.133868,-0.091134,-0.23680199999999998,-16.94,-16.7125,8.085
1251,9342044,1.084824,-0.018422,-0.22875,-16.38,-17.43,-1.505
1252,9342142,1.0084520000000001,0.033916,-0.20788800000000002,-12.39,-16.8875,-10.2025
1253,9342239,0.901214,0.095282,-0.191174,-6.37,-16.8875,-17.99
1254,9342337,0.798856,0.14823,-0.177876,0.385,-16.45,-23.6075
1255,9342435,0.733708,0.17519200000000001,-0.158356,6.37,-14.7,-26.11
1256,9342533,0.69906,0.171654,-0.144326,10.675,-13.475,-26.8625
1257,9342631,0.679784,0.144448,-0.136518,14.42,-13.335,-25.9
1258,9342729,0.684664,0.101016,-0.132858,17.15,-12.565,-24.8325
1259,9342827,0.7134560999999999,0.040138,-0.12468399999999999,19.95,-11.165,-23.3625
1260,9342925,0.74908,-0.011590000000000001,-0.1098,22.2775,-9.52,-22.5925
1261,9343023,0.784216,-0.06405001,-0.0854,25.0075,-8.1025,-23.03
1262,9343121,0.8102020000000001,-0.098576,-0.06356201,27.72,-7.4375,-24.0275
1263,9343219,0.8136180000000001,-0.11345999999999999,-0.045994,29.7325,-8.645,-24.78
1264,9343316,0.798978,-0.109922,-0.038674,30.975,-10.9725,-24.6225
1265,9343414,0.784582,-0.101748,-0.038918,31.185,-13.1075,-23.345
1266,9343512,0.776042,-0.08405800000000001,-0.036478,30.6775,-14.2625,-21.3675
1267,9343610,0.774822,-0.062952,-0.029158,30.275,-14.6125,-18.7775
1268,9343708,0.773968,-0.043676,-0.012322,29.8025,-14.07,-15.785
1269,9343806,0.77653,-0.02745,0.005978,29.1025,-13.5625,-12.3025
1270,9343904,0.7701859999999999,-0.024888,0.020130000000000002,27.9125,-14.2275,-8.9075
1271,9344002,0.7570100000000001,-0.018666,0.035624,26.6,-14.2975,-6.1775
1272,9344100,0.74542,-0.022692,0.044774,26.1625,-12.95,-4.0425
1273,9344198,0.73078,-0.047580000000000004,0.045018,26.985,-10.885,-2.4325
1274,9344295,0.720532,-0.062586,0.05209400000000001,28.84,-8.015,-1.12
1275,9344393,0.741272,-0.035013999999999997,0.067344,31.185,-3.185,-0.14
1276,9344491,0.7928781,0.007320001,0.076616,33.4425,2.45,0.525
1277,9344589,0.8736421,0.049532,0.08332601,34.6325,5.95,1.155
1278,9344687,0.9817341,0.05795,0.071614,34.0725,6.7375,2.3275
1279,9344785,1.1125180000000001,0.040748,0.022082,31.3775,5.5825,3.3775
1280,9344883,1.220366,-0.019764,0.024034,26.1275,3.4475,3.5525
1281,9344981,1.269288,-0.08308201,0.098088,20.9125,4.69,2.31
1282,9345079,1.278194,-0.166408,0.191662,15.1375,7.7875,-0.875
1283,9345177,1.263676,-0.249246,0.266814,8.995,7.7525,-5.1275
1284,9345274,1.24196,-0.262422,0.32696,4.515,6.895,-10.8675
1285,9345372,1.221586,-0.21362199999999998,0.354288,4.445,6.335,-17.325
1286,9345470,1.264286,-0.15823399999999999,0.06270801,6.3175,2.555,-23.0125
1287,9345568,1.321992,-0.07747001,-0.213988,-2.1,-15.015,-26.8975
1288,9345666,1.404708,-0.206058,-0.246074,-11.3575,-27.1775,-28.9625
1289,9345764,1.4514340000000001,-0.374662,-0.23485,-14.4375,-6.6675,-35.0
1290,9345862,1.492426,-0.46628400000000003,-0.26718000000000003,-23.73,9.1875,-50.7325
1291,9345960,1.29564,-0.499346,-0.363804,-37.905,-5.8275,-70.875
1292,9346058,1.047126,-0.439688,-0.266326,-47.5125,-15.82,-81.865
1293,9346156,1.037,-0.406992,-0.20069,-39.1825,-3.5175,-86.15250999999999
1294,9346253,0.8945040000000001,-0.037088,-0.31781,-43.68,-7.8925,-89.9675
1295,9346351,0.8361879999999999,0.09516001,-0.395036,-42.5775,-16.135,-85.5925
1296,9346449,0.8938940000000001,0.161528,-0.508618,-33.4425,-8.1025,-84.01751
1297,9346547,0.9394,0.205448,-0.529846,-25.025,-10.4825,-79.94
1298,9346645,1.016016,0.236192,-0.537044,-14.2975,-11.8125,-76.44001
1299,9346743,1.124962,0.248148,-0.490928,-7.4725,-12.04,-75.005
1300,9346841,1.2343959999999998,0.229726,-0.432612,0.1225,-12.495,-74.4275
1301,9346939,1.290638,0.211914,-0.383812,5.985,-13.6675,-71.015
1302,9347037,1.292834,0.21655,-0.36356,9.1525,-13.895,-62.79
1303,9347135,1.259894,0.193858,-0.320494,11.48,-12.7925,-49.2275
1304,9347232,1.223172,0.11467999999999999,-0.279746,11.5325,-12.005,-31.815
1305,9347330,1.16571,0.018544,-0.24424400000000002,8.9775,-11.34,-13.965
1306,9347428,1.093974,-0.06575800000000001,-0.21447600000000003,5.46,-10.745,2.065
1307,9347526,1.003572,-0.150792,-0.184098,1.6275,-11.7425,15.2425
1308,9347624,0.9080459999999999,-0.225212,-0.159088,-1.82,-13.51,25.2175
1309,9347722,0.8132520999999999,-0.265838,-0.146156,-5.285,-14.735,31.325
1310,9347820,0.7266321,-0.27510999999999997,-0.1525,-7.8575,-15.61,34.0025
1311,9347918,0.656848,-0.26900999999999997,-0.15201199999999998,-9.38,-16.135,34.125
1312,9348016,0.6262260000000001,-0.251442,-0.141154,-11.9875,-14.56,32.235
1313,9348114,0.6258600000000001,-0.22448,-0.120902,-16.03,-11.48,28.7875
1314,9348211,0.636108,-0.172508,-0.100284,-21.1575,-8.47,23.8525
1315,9348309,0.6525781,-0.10736,-0.095648,-25.3925,-7.0,19.2675
1316,9348407,0.69967,-0.056608000000000006,-0.10052799999999999,-27.2825,-6.3525,15.645
1317,9348505,0.7390760000000001,-0.047458,-0.08235001,-27.79,-5.18,14.0525
1318,9348603,0.7643300000000001,-0.012322,-0.063074,-30.31,-4.8125,13.055
1319,9348701,0.776896,0.0122,-0.050508,-31.5525,-6.615,12.985
1320,9348799,0.78446,0.01281,-0.032330000000000005,-32.1475,-8.645,13.5275
1321,9348897,0.785558,0.018666,-0.020496,-34.1775,-11.2175,13.23
1322,9348995,0.7732359999999999,0.015006,-0.023912,-35.6125,-15.6625,12.04
1323,9349093,0.77287,0.007686,-0.024522,-35.3325,-19.53,9.7125
1324,9349191,0.7870221,-0.004514,-0.018178,-33.845,-21.4375,6.6325
1325,9349288,0.7944641,-0.01281,-0.0035380000000000003,-32.165,-22.995,2.9925
1326,9349386,0.800808,-0.021716,0.01342,-30.59,-24.99,-0.56
1327,9349484,0.788608,-0.020374,0.025863999999999998,-29.715,-26.4775,-3.8675
1328,9349582,0.768356,-0.007198,0.03538,-30.135,-25.9525,-6.5975
1329,9349680,0.7540819999999999,-0.01037,0.034526,-30.8175,-22.9425,-8.3125
1330,9349778,0.733586,-0.014274,0.031232,-31.535,-20.93,-9.17
1331,9349876,0.71736,-0.020862000000000002,0.027327999999999998,-32.515,-17.5,-9.8175
1332,9349974,0.726388,-0.06771001,0.012565999999999999,-33.145,-12.74,-10.4125
1333,9350072,0.774944,-0.127734,-0.003172,-32.5325,-8.1375,-10.6575
1334,9350170,0.8852321,-0.156404,-0.050508,-30.6775,-2.7825,-10.29
1335,9350267,1.02846,-0.203374,-0.153598,-26.8625,-0.385,-9.24
1336,9350365,1.143628,-0.15201199999999998,-0.16433399999999998,-23.31,0.4025,-8.5575
1337,9350463,1.224758,-0.027694,-0.086864,-19.355,5.355,-8.925
1338,9350561,1.280756,0.08881599,0.05246,-12.6,11.585,-8.4
1339,9350659,1.339316,0.230702,0.15921,-0.5425,15.4,-1.96
1340,9350757,1.39202,0.351116,0.233264,11.6725,17.64,6.65
1341,9350855,1.398364,0.337574,0.199104,21.35,16.765,16.835
1342,9350953,1.3473680000000001,0.12895399999999999,0.049288,26.845,6.65,26.25
1343,9351051,1.34871,-0.032574,-0.082716,21.2975,-2.52,33.8975
1344,9351149,1.450458,-0.0122,-0.208864,7.5425,4.4625,39.55
1345,9351246,1.5048700000000002,0.064538,-0.373076,1.085,19.8275,44.2225
1346,9351344,1.413614,-0.115656,-0.565226,17.5,15.54,50.4
1347,9351442,1.275266,-0.244488,-0.5941401,31.99,1.68,55.86
1348,9351540,1.294298,-0.058926,-0.5997520000000001,27.93,13.335,57.7325
1349,9351638,1.1508260000000001,0.229116,-0.402844,39.725,18.1475,61.39
1350,9351736,0.892918,0.257786,-0.232654,42.98,5.1625,58.415
1351,9351834,0.783972,0.089792,-0.260348,40.53,-6.3875,53.9175
1352,9351932,0.738344,-0.14579,-0.315004,35.77,-12.565,50.505
1353,9352030,0.796294,-0.318054,-0.336354,25.8125,-4.06,47.6175
1354,9352127,0.899384,-0.409066,-0.36966,13.9125,4.7075,43.54
1355,9352225,0.99125,-0.43602799999999997,-0.370026,4.76,6.1075,39.2525
1356,9352323,1.103612,-0.399794,-0.326106,-0.1575,4.41,35.5075
1357,9352421,1.1916959999999999,-0.359656,-0.29097,-0.6125,0.595,31.2025
1358,9352519,1.1984059999999999,-0.301218,-0.264984,-2.2575,-6.51,25.06
1359,9352617,1.18523,-0.229726,-0.246928,-4.935,-12.5475,16.59
1360,9352715,1.1415540000000002,-0.14078800000000002,-0.24131599999999997,-7.0,-15.505,6.475
1361,9352813,1.089582,-0.08503401,-0.23851,-5.9325,-15.6275,-3.5525
1362,9352911,1.009916,-0.013541999999999998,-0.23485,-2.205,-16.0475,-12.7925
1363,9353009,0.89792,0.07686,-0.22033200000000003,3.395,-16.2575,-20.3525
1364,9353106,0.8023939999999999,0.154574,-0.203374,10.6225,-15.3825,-25.1475
1365,9353204,0.7442,0.198982,-0.193736,17.955,-13.475,-26.74
1366,9353302,0.701256,0.21801399999999999,-0.1769,24.64,-11.3575,-26.6875
1367,9353400,0.695034,0.194712,-0.156282,30.3275,-9.94,-25.865
1368,9353498,0.7166279999999999,0.13725,-0.143716,35.28,-8.6275,-25.4275
1369,9353596,0.7483479999999999,0.078446,-0.133712,39.5325,-7.035,-25.7425
1370,9353694,0.798124,0.020008,-0.114924,42.9625,-4.55,-26.81
1371,9353792,0.8471681000000001,-0.0305,-0.08113001,45.71,-2.4675,-28.07
1372,9353890,0.8690061,-0.079178,-0.046726,47.3025,-2.6425,-28.7875
1373,9353988,0.862662,-0.10528599999999999,-0.024888,47.5475,-4.725,-28.35
1374,9354085,0.8479,-0.12895399999999999,-0.0244,46.9,-7.63,-27.1425
1375,9354183,0.8270379999999999,-0.137982,-0.030256,45.745,-10.115,-24.99
1376,9354281,0.8014180000000001,-0.135298,-0.031842,44.24,-11.3575,-22.365
1377,9354379,0.7788480999999999,-0.128344,-0.020130000000000002,42.5425,-11.2,-19.67
1378,9354477,0.7686,-0.12248800000000001,-0.00183,41.265,-10.2025,-16.7825
1379,9354575,0.7679901,-0.11345999999999999,0.016347999999999998,39.8125,-10.08,-13.6325
1380,9354673,0.763476,-0.105896,0.030744,37.765,-11.41,-10.5525
1381,9354771,0.758352,-0.089426,0.043676,35.4375,-11.55,-7.735
1382,9354869,0.75274,-0.075762,0.05941401,33.2675,-10.1325,-4.97
1383,9354967,0.7442,-0.083936,0.06283,31.9025,-8.3125,-2.4675
1384,9355065,0.7259001,-0.09711201,0.057218,31.115,-6.8075,-0.315
1385,9355162,0.7260220000000001,-0.102114,0.05355801,31.3075,-4.1825,1.8725
1386,9355260,0.7548140999999999,-0.060877999999999995,0.0549,31.3425,-0.175,3.395
1387,9355358,0.8247200000000001,0.008174001,0.057218,29.925,4.0425,4.165
1388,9355456,0.93147,0.030987999999999998,0.053801999999999996,27.615,7.0525,4.7425
1389,9355554,1.062986,0.0061,0.017812,24.9375,7.1225,4.9875
1390,9355652,1.1801059999999999,-0.048068,0.004636001,21.0175,3.815,4.41
1391,9355750,1.241838,-0.103578,0.057218,16.0125,2.94,2.555
1392,9355848,1.2730700000000001,-0.155916,0.128832,9.87,5.9325,-1.505
1393,9355946,1.272338,-0.216428,0.20691199999999998,4.0075,6.3175,-6.265
1394,9356044,1.246474,-0.24046199999999998,0.284992,0.28,6.3,-12.39
1395,9356142,1.214266,-0.209108,0.325984,-0.595,6.3875,-19.6
1396,9356240,1.196698,-0.13847,0.28328400000000004,0.21,4.7425,-26.18
1397,9356337,1.247206,-0.08808401,-0.01708,0.1225,-1.3825,-30.0475
1398,9356435,1.299788,-0.061610000000000005,-0.17848599999999998,-7.7,-18.48,-31.36
1399,9356533,1.386652,-0.183366,-0.21411,-11.4975,-21.91,-32.27
1400,9356631,1.414224,-0.29341,-0.22472399999999998,-15.9075,0.595,-39.06
1401,9356729,1.408612,-0.46628400000000003,-0.217404,-24.4475,12.53,-53.55
1402,9356827,1.226954,-0.435784,-0.362584,-38.08,-2.7125,-69.895
1403,9356925,1.000278,-0.390034,-0.390766,-47.0575,-19.04,-77.9625
1404,9357023,1.006134,-0.491782,-0.309392,-41.93,-8.505,-85.575
1405,9357121,0.8596120999999999,-0.32269000000000003,-0.217648,-42.175,-1.4875,-93.8175
1406,9357219,0.766526,-0.06832001,-0.267424,-35.735,-11.83,-91.9275
1407,9357316,0.7754321,0.13298,-0.41370200000000007,-28.7525,-15.05,-87.29
1408,9357414,0.8575379999999999,0.273402,-0.469822,-21.63,-9.66,-81.76001
1409,9357510,0.9589200999999999,0.34586999999999996,-0.48495,-9.3625,-7.5425,-75.7925
1410,9357608,1.0431,0.404186,-0.483242,1.4875,-10.0625,-71.0325
1411,9357706,1.134966,0.407968,-0.43358800000000003,12.3025,-8.6275,-66.955
1412,9357804,1.21512,0.35868,-0.364536,21.84,-4.27,-61.355
1413,9357902,1.26209,0.31158800000000003,-0.338672,27.6325,-3.7625,-53.095
1414,9358000,1.288442,0.20630199999999999,-0.30402399999999996,31.4475,-4.5325,-42.0525
1415,9358098,1.2877100000000001,0.09869801,-0.25424800000000003,33.635,-3.4825,-28.91
1416,9358196,1.251476,-0.016592,-0.212036,33.565,-3.92,-15.89
1417,9358293,1.197552,-0.144448,-0.186172,32.165,-6.405,-3.8325
1418,9358391,1.10532,-0.25498000000000004,-0.15274400000000002,28.0175,-9.0825,6.8075
1419,9358489,1.000278,-0.31171,-0.13078399999999998,21.91,-11.13,15.2425
1420,9358587,0.8935280999999999,-0.334158,-0.135176,15.3475,-13.335,20.2125
1421,9358685,0.793244,-0.317932,-0.14457,11.0075,-14.6475,21.6825
1422,9358783,0.724314,-0.290116,-0.154696,8.505,-15.1725,20.195
1423,9358881,0.688934,-0.243756,-0.154818,5.95,-13.335,16.345
1424,9358979,0.693082,-0.18361,-0.144326,3.0975,-9.2925,11.725
1425,9359077,0.711138,-0.119682,-0.139202,0.35,-6.265,8.0675
1426,9359175,0.731634,-0.05648601,-0.13383399999999998,-1.995,-5.39,5.145
1427,9359273,0.776774,-0.01403,-0.136274,-3.36,-6.0725,3.4475
1428,9359370,0.8280139999999999,-0.000122,-0.11614400000000001,-3.395,-5.4425,4.13
1429,9359468,0.8642481,0.013786000000000001,-0.08967,-4.935,-4.2875,6.335
1430,9359566,0.868762,0.015616,-0.059658,-6.405,-4.6025,9.1
1431,9359664,0.8554641,0.001464,-0.030744,-7.945,-6.8425,11.34
1432,9359762,0.8294780999999999,-0.00488,-0.02745,-9.9225,-10.7975,12.0225
1433,9359860,0.7870221,-0.023302,-0.023668,-10.78,-15.505,10.9025
1434,9359958,0.7509100000000001,-0.037454,-0.027206,-9.905,-18.06,8.365
1435,9360056,0.73383,-0.044896,-0.022936,-8.3125,-18.2525,4.97
1436,9360154,0.7224841,-0.05124001,-0.006222,-6.3525,-18.48,1.225
1437,9360252,0.7183361,-0.048922,0.006587999999999999,-5.18,-18.7075,-2.415
1438,9360349,0.7178479999999999,-0.053924,0.015128,-4.515,-18.445,-5.74
1439,9360447,0.7183361,-0.070638,0.01891,-3.99,-17.8325,-8.5225
1440,9360545,0.71858,-0.07832401,0.010126000000000001,-3.8325,-17.815,-10.6925
1441,9360643,0.7226060000000001,-0.066856,0.004514,-5.5125,-17.045,-12.4775
1442,9360741,0.736514,-0.057218,0.005002,-8.505,-14.8575,-14.4725
1443,9360839,0.7761640999999999,-0.05819401,0.004758,-11.55,-11.13,-16.31
1444,9360937,0.8461921,-0.081252,-0.005978,-13.02,-6.335,-17.5875
1445,9361035,0.9347639999999999,-0.110898,-0.024034,-12.4075,-2.3975,-17.6225
1446,9361133,1.0432219999999999,-0.151036,-0.0732,-10.4475,-0.6125,-16.7475
1447,9361230,1.143262,-0.153232,-0.082472,-7.5425,-0.6825,-15.155
1448,9361328,1.21329,-0.08174001,-0.027572000000000003,-5.32,0.49,-14.2275
1449,9361426,1.244644,0.020008,0.038674,0.105,3.0975,-12.95
1450,9361524,1.257576,0.10833599999999999,0.100406,9.765,5.495,-9.9575
1451,9361622,1.2561120000000001,0.170678,0.173362,19.0925,8.3475,-5.4075
1452,9361720,1.2397639999999999,0.165188,0.236436,23.52,11.34,0.8925
1453,9361818,1.219634,0.038308,0.15274400000000002,21.0175,11.025,7.35
1454,9361916,1.2056040000000001,-0.135786,-0.022692,15.0675,3.78,12.81
1455,9362014,1.2465959999999998,-0.23729,-0.190564,9.625,-0.6475,17.1325
1456,9362112,1.366644,-0.15762400000000001,-0.30402399999999996,5.6175,9.17,22.155
1457,9362209,1.3862860000000001,-0.101626,-0.41541000000000006,8.4,22.47,26.7925
1458,9362307,1.307108,-0.16652999999999998,-0.484096,21.945,19.67,31.78
1459,9362405,1.22244,-0.089792,-0.49593000000000004,30.94,17.0625,39.48
1460,9362503,1.178764,0.249856,-0.496906,40.04,18.6725,47.0575
1461,9362601,1.012722,0.49129399999999995,-0.322324,53.6025,9.555,52.1325
1462,9362699,0.8615640999999999,0.446032,-0.24326799999999998,56.175,-0.455,52.4825
1463,9362797,0.812276,0.228384,-0.319152,58.2225,-8.2075,50.54
1464,9362895,0.8113001,-0.015372,-0.376736,60.3575,-9.2925,47.8975
1465,9362993,0.8801081000000001,-0.1647,-0.37637,57.155,-1.6625,42.7175
1466,9363091,0.972828,-0.215086,-0.339404,55.7375,3.3425,36.33
1467,9363189,1.084824,-0.25437,-0.315492,58.905,3.4825,29.4175
1468,9363287,1.1659540000000002,-0.24156,-0.309026,64.68,2.0475,20.5275
1469,9363384,1.19072,-0.19483399999999998,-0.27584200000000003,70.7175,-1.9425,10.57
1470,9363482,1.191818,-0.125904,-0.255956,73.01,-6.965,-0.945
1471,9363580,1.163758,-0.07710399999999999,-0.23997399999999997,73.5,-9.8875,-12.39
1472,9363678,1.102514,-0.028914,-0.23228800000000002,74.585,-10.395,-22.4
1473,9363776,1.012234,0.023546,-0.238632,77.805,-10.8325,-29.75
1474,9363874,0.9286639999999999,0.07222401,-0.239852,83.23001,-11.8475,-34.2475
1475,9363972,0.883524,0.110654,-0.226066,89.495,-11.165,-36.855
1476,9364070,0.873276,0.14005599999999999,-0.20861999999999997,95.26999,-9.3275,-37.6075
1477,9364168,0.8765700000000001,0.155428,-0.186416,100.6775,-8.435,-37.135
1478,9364266,0.8796200000000001,0.13237000000000002,-0.152988,105.525,-8.19,-35.9275
1479,9364364,0.8870620000000001,0.08332601,-0.125538,109.235,-8.3825,-34.3175
1480,9364462,0.895236,0.028548,-0.108824,112.0875,-9.59,-33.1625
1481,9364560,0.9067040000000001,-0.02623,-0.09223200000000001,113.8025,-11.025,-32.3225
1482,9364658,0.9158540999999999,-0.079666,-0.07710399999999999,114.345,-12.81,-31.5
1483,9364755,0.91622,-0.11712,-0.066978,113.575,-15.47,-30.9575
1484,9364853,0.913536,-0.13969,-0.06636801,112.49,-18.1125,-30.275
1485,9364951,0.9030440000000001,-0.15067,-0.067344,111.02,-20.8775,-29.1725
1486,9365049,0.8968221,-0.157868,-0.06832001,109.27,-23.065,-27.4575
1487,9365147,0.889136,-0.15091400000000002,-0.06892999999999999,107.3275,-25.13,-25.2525
1488,9365245,0.8690061,-0.14518,-0.055265999999999996,105.9275,-27.0025,-22.3475
1489,9365343,0.850218,-0.138226,-0.047824,104.4925,-26.985,-19.915
1490,9365441,0.8337481,-0.119682,-0.040748,102.9525,-25.34,-17.8675
1491,9365539,0.820816,-0.106262,-0.027327999999999998,101.9725,-24.4125,-16.415
1492,9365637,0.8235001000000001,-0.088328,-0.022936,101.6925,-24.9725,-15.33
1493,9365735,0.832406,-0.07600599999999999,-0.008540001,101.395,-25.0775,-14.3325
1494,9365832,0.84424,-0.044652,0.000366,101.115,-24.7275,-13.86
1495,9365930,0.849608,-0.02684,0.008784,101.7975,-24.255,-13.265
1496,9366028,0.8640040000000001,-0.011224,0.0122,102.2,-22.89,-12.4425
1497,9366126,0.8826700000000001,-0.002684,0.010248,101.7625,-21.7,-11.5675
1498,9366224,0.928054,0.00366,0.006222,99.855,-20.3,-10.9025
1499,9366322,0.983808,0.000122,0.002074,97.3175,-19.5125,-10.675
1500,9366420,1.02419,0.026595999999999998,0.011590000000000001,95.235,-18.8825,-10.9375
1501,9366518,1.062742,0.034892,0.020252000000000003,91.2275,-15.54,-13.3
1502,9366616,1.095072,-0.03965,0.018056,87.1325,-12.74,-16.3625
1503,9366714,1.11081,-0.115534,0.034892,83.055,-11.7075,-19.6525
1504,9366811,1.124474,-0.171532,0.061975999999999996,79.7125,-9.3975,-22.9425
1505,9366909,1.11935,-0.18544000000000002,0.094062,77.07,-8.19,-25.2
1506,9367007,1.09251,-0.153354,0.12395199999999999,76.16001,-7.9625,-26.46
1507,9367105,1.042734,-0.093086,0.137128,76.16001,-7.2625,-27.58
1508,9367203,0.981612,-0.041724000000000004,0.119926,76.895,-7.0525,-28.35
1509,9367301,0.9433041,-0.07637200000000001,-0.07637200000000001,77.7175,-9.94,-28.245
1510,9367399,0.8988959999999999,-0.180072,-0.27389,77.2975,-22.5225,-26.2675
1511,9367497,0.9259799999999999,-0.24851399999999998,-0.331962,80.90250999999999,-29.3825,-25.34
1512,9367595,1.019188,-0.30402399999999996,-0.327936,84.455,-19.1275,-28.8575
1513,9367693,1.060424,-0.293288,-0.327936,80.43,-16.135,-38.815
1514,9367791,1.095072,-0.27718400000000004,-0.357948,71.225,-22.82,-55.335
1515,9367888,1.144116,-0.28792,-0.321104,65.555,-24.6575,-72.835
1516,9367986,1.1289879999999999,-0.30402399999999996,-0.224846,66.6575,-17.675,-89.145
1517,9368084,1.0615219999999999,-0.14493599999999998,-0.222894,70.91001,-12.6175,-98.54251
1518,9368182,0.9994241,0.05941401,-0.29951,75.145,-14.525,-99.8725
1519,9368280,1.000766,0.14078800000000002,-0.3477,82.81,-14.56,-95.4975
1520,9368378,1.050908,0.157136,-0.359534,89.565,-12.1625,-86.5025
1521,9368476,1.102148,0.132126,-0.347578,92.89001,-14.1225,-75.4775
1522,9368574,1.1537540000000002,0.04404201,-0.317688,94.51751,-16.625,-64.995
1523,9368672,1.203652,-0.039772,-0.281454,95.6375,-15.7675,-55.895
1524,9368770,1.248792,-0.097478,-0.24436599999999997,96.1975,-15.1025,-47.775
1525,9368868,1.264042,-0.14823,-0.21362199999999998,96.25,-16.2925,-40.0925
1526,9368965,1.24745,-0.20556999999999997,-0.19702999999999998,95.3225,-16.7125,-32.165
1527,9369063,1.19255,-0.254126,-0.198372,92.89001,-17.78,-24.815
1528,9369161,1.10471,-0.288652,-0.203374,89.145,-19.7575,-18.97
1529,9369259,1.03151,-0.284992,-0.21289,85.76751,-20.23,-14.525
1530,9369357,0.9834421,-0.256688,-0.22691999999999998,83.72001,-20.79,-11.55
1531,9369455,0.9423280999999999,-0.219966,-0.22643200000000002,82.845,-21.35,-9.765
1532,9369553,0.9232961,-0.182024,-0.220942,82.0925,-20.7725,-9.905
1533,9369651,0.919026,-0.14688800000000002,-0.208254,81.935,-19.985,-10.5525
1534,9369749,0.91927,-0.128344,-0.192028,82.1275,-19.8975,-10.815
1535,9369847,0.9089001,-0.11834000000000001,-0.172508,82.425,-20.195,-11.0775
1536,9369945,0.8941380999999999,-0.105896,-0.164212,82.39,-20.9825,-11.305
1537,9370042,0.8777901,-0.08369201,-0.165798,82.6875,-22.61,-11.7775
1538,9370140,0.8652241,-0.06929600000000001,-0.167262,83.51001,-24.64,-12.495
1539,9370238,0.8548540000000001,-0.04575,-0.16897,84.595,-26.3725,-13.5975
1540,9370336,0.8491200000000001,-0.036233999999999995,-0.171044,86.73,-27.1425,-13.9825
1541,9370434,0.8422879999999999,-0.023790000000000002,-0.159698,88.9875,-26.985,-14.4725
1542,9370532,0.8332601000000001,-0.010126000000000001,-0.146034,89.9675,-26.04,-14.6475
1543,9370630,0.8192299999999999,-0.008418,-0.133712,91.805,-26.3375,-15.155
1544,9370728,0.815692,-0.015738,-0.12248800000000001,93.7475,-26.0575,-16.1875
1545,9370826,0.818742,-0.028792,-0.11163,95.515,-25.6725,-16.975
1546,9370924,0.827526,-0.047092,-0.09418401,97.0375,-25.095,-17.955
1547,9371021,0.842166,-0.07393200000000001,-0.07344400000000001,98.245,-24.0275,-19.1975
1548,9371119,0.85034,-0.10223600000000001,-0.055510000000000004,99.1375,-22.75,-20.7375
1549,9371217,0.861442,-0.12053599999999999,-0.038308,99.27750999999999,-21.07,-22.33
1550,9371315,0.8668100000000001,-0.142008,-0.033428,99.19001,-19.005,-24.01
1551,9371413,0.868762,-0.15982000000000002,-0.024766,98.875,-16.9575,-25.7425
1552,9371511,0.874862,-0.173728,-0.014762,98.4375,-14.4375,-27.3525
1553,9371609,0.8824261,-0.180804,-0.005856,98.2275,-11.13,-29.0675
1554,9371707,0.8937719999999999,-0.175558,0.004514,97.825,-8.085,-30.7125
1555,9371805,0.89975,-0.166652,0.010492,97.3875,-5.2325,-32.165
1556,9371903,0.9060940000000001,-0.155672,0.010736,96.8975,-3.22,-33.5475
1557,9372000,0.9103641,-0.15274400000000002,0.011956,96.21500999999999,-1.575,-35.0175
1558,9372098,0.9293961,-0.15018199999999998,0.020862000000000002,95.04251,0.7175,-36.4
1559,9372196,0.966484,-0.163724,0.024034,94.1325,2.625,-38.08
1560,9372294,0.996862,-0.183122,0.020252000000000003,93.17,3.5525,-40.1975
1561,9372392,1.018334,-0.199104,0.011346,92.365,4.2,-42.7
1562,9372490,1.0201639999999998,-0.19959200000000002,0.002562,92.34751,4.8825,-44.8175
1563,9372588,1.001376,-0.183366,-0.00305,93.03,5.3725,-45.92
1564,9372686,0.987956,-0.162626,-0.001952,94.01,6.4575,-45.9025
1565,9372784,0.9850280999999999,-0.148108,-0.013054,93.7825,9.31,-44.45
1566,9372882,0.9700219999999999,-0.165798,-0.028669999999999998,92.05001,11.8475,-41.475
1567,9372979,0.9806360000000001,-0.24351199999999998,-0.18727,90.8425,13.1775,-37.66
1568,9373077,1.029436,-0.450912,-0.44810600000000006,93.08249,9.4325,-31.815
1569,9373175,1.11264,-0.461404,-0.53741,93.8875,7.4025,-23.94
1570,9373273,1.246474,-0.180926,-0.44981400000000005,91.105,25.06,-15.155
1571,9373371,1.270508,0.146278,-0.326106,93.6775,42.175,-9.1
1572,9373469,1.0876299999999999,0.17995,-0.23521599999999998,105.665,24.5875,-7.91
1573,9373567,0.941108,0.15018199999999998,-0.25864000000000004,111.8425,4.55,-7.525
1574,9373665,0.8921860999999999,0.135054,-0.330986,114.17,-0.91,-7.1225
1575,9373763,0.84241,0.080886,-0.35221399999999997,114.45,-7.0,-7.875
1576,9373861,0.818742,0.039772,-0.37856599999999996,113.3475,-9.4325,-10.4475
1577,9373958,0.846802,-0.015372,-0.373198,116.6025,-8.05,-13.755
1578,9374056,0.94001,-0.047214,-0.346602,122.78,-5.775,-17.6575
1579,9374154,1.070184,-0.040016,-0.3355,127.8375,-3.4475,-22.365
1580,9374252,1.1866940000000001,-0.014274,-0.325252,131.9325,-4.8125,-26.8975
1581,9374350,1.2852700000000001,0.001342,-0.302438,134.2075,-8.4875,-32.6725
1582,9374448,1.352248,0.00793,-0.252418,135.3275,-11.725,-39.165
1583,9374546,1.347124,0.022692,-0.21655,135.9925,-14.9975,-45.4825
1584,9374643,1.250744,0.019886,-0.191418,137.7075,-17.71,-50.3125
1585,9374741,1.12789,0.036356,-0.194102,139.86,-19.0925,-52.8675
1586,9374839,1.033584,0.060267999999999995,-0.189588,141.96,-17.7275,-52.955
1587,9374937,0.983564,0.05929201,-0.16775,143.64,-15.19,-50.75
1588,9375035,0.9609940999999999,0.033916,-0.15237799999999999,144.0425,-14.035,-47.74
1589,9375133,0.9663620999999999,-0.00549,-0.137982,143.325,-12.88,-45.08
1590,9375231,0.9825879999999999,-0.053070000000000006,-0.121512,142.065,-12.635,-44.1525
1591,9375329,0.996008,-0.090646,-0.110898,140.5775,-13.335,-45.2025
1592,9375426,0.9951540000000001,-0.123464,-0.10248,138.6175,-14.49,-47.4775
1593,9375524,0.9806360000000001,-0.154086,-0.08698601,136.3075,-15.3475,-49.805
1594,9375622,0.96319,-0.155672,-0.074786,132.615,-15.855,-52.1325
1595,9375720,0.940132,-0.14762,-0.06771001,127.9075,-16.5025,-54.11
1596,9375818,0.9224421,-0.149206,-0.07076001,123.1475,-17.3425,-55.16
1597,9375916,0.9085340000000001,-0.143594,-0.07564,118.265,-17.5525,-55.825
1598,9376014,0.8977980999999999,-0.13078399999999998,-0.07600599999999999,114.0475,-17.2025,-55.825
1599,9376112,0.892552,-0.109678,-0.08064199,110.145,-17.045,-55.0375
1600,9376209,0.89487,-0.08759601,-0.08466801,106.3125,-17.7275,-53.4275
1601,9376307,0.8959681,-0.069174,-0.07722601,102.69,-17.85,-51.52
1602,9376405,0.9021899999999999,-0.062464,-0.06270801,99.5925,-16.8525,-49.6125
1603,9376503,0.9018241,-0.06380599999999999,-0.058316,96.56501,-16.135,-47.74
1604,9376601,0.892552,-0.068076,-0.052216,93.9225,-15.015,-46.025
1605,9376699,0.8755940000000001,-0.06661201,-0.039894,91.0875,-12.6,-44.1
1606,9376797,0.8582700999999999,-0.056852,-0.036112,88.13,-10.22,-41.8425
1607,9376895,0.8488761,-0.04453,-0.03721,85.05,-8.8725,-38.885
1608,9376992,0.856074,-0.040382,-0.033062,82.215,-7.35,-35.63
1609,9377090,0.8752280000000001,-0.041968,-0.021106,80.5,-4.795,-32.3925
1610,9377188,0.897066,-0.047580000000000004,-0.008052001,80.1325,-1.7675,-29.54
1611,9377286,0.919758,0.001464,-0.003782,78.8725,1.0675,-27.72
1612,9377384,0.9464761,0.000366,-0.009028000999999999,76.30001,3.57,-26.7575
1613,9377482,0.9764879999999999,-0.015982,-0.005002,74.9,5.9325,-26.46
1614,9377580,0.995398,-0.02257,0.010004,75.46,9.0125,-27.0725
1615,9377678,1.001132,-0.013908000000000002,0.01769,75.495,10.7625,-27.545
1616,9377775,1.006378,-0.005002,0.015006,73.815,11.165,-27.195
1617,9377873,1.013698,0.002562,0.032208,72.135,12.4775,-26.7925
1618,9377971,1.019066,0.003782,0.060877999999999995,71.26,14.91,-26.39
1619,9378069,1.031388,0.0,0.07710399999999999,70.6475,16.9925,-26.0925
1620,9378167,1.036756,0.010858,0.085888,70.1575,17.8325,-25.55
1621,9378265,1.035536,0.015372,0.093696,70.9975,18.8125,-24.08
1622,9378363,1.05469,0.049898000000000005,-0.015128,72.5375,18.5675,-21.7175
1623,9378461,1.1148360000000002,0.033306,-0.20861999999999997,70.6475,13.8075,-19.18
1624,9378558,1.197308,-0.132126,-0.33245,67.06,10.92,-17.6925
1625,9378656,1.2688,-0.30683,-0.32635,64.61,17.8325,-19.4075
1626,9378754,1.29015,-0.41541000000000006,-0.274378,60.655,25.48,-26.25
1627,9378852,1.202798,-0.46116,-0.245098,54.6875,20.195,-34.965
1628,9378950,1.078968,-0.42028999999999994,-0.258762,53.1825,14.5075,-40.0575
1629,9379048,0.978806,-0.299144,-0.32256799999999997,53.0775,16.065,-41.5625
1630,9379146,0.921344,-0.14152,-0.37417399999999995,53.655,18.3575,-39.5675
1631,9379244,0.9239059999999999,-0.005002,-0.41150600000000004,59.185,22.0675,-37.0475
1632,9379341,0.9474520000000001,0.094306,-0.43627200000000005,64.26,21.2275,-34.825
1633,9379439,0.9944221,0.195444,-0.426756,70.1225,18.6025,-32.935
1634,9379537,1.057496,0.233264,-0.388448,74.25251,15.8025,-32.34
1635,9379635,1.115202,0.199958,-0.344894,77.875,11.13,-32.2875
1636,9379733,1.15534,0.106994,-0.303292,80.5175,6.825,-32.27
1637,9379831,1.17974,0.023912,-0.273158,81.235,3.045,-31.08
1638,9379929,1.18767,-0.043188,-0.241804,81.13,-0.2975,-27.2825
1639,9380027,1.16693,-0.123098,-0.2196,79.5025,-1.5925,-20.4925
1640,9380124,1.131428,-0.208864,-0.201544,75.495,-2.87,-12.5125
1641,9380222,1.086288,-0.285846,-0.190564,69.4925,-4.8125,-3.71
1642,9380320,1.041636,-0.31659,-0.18361,61.8625,-5.7575,3.71
1643,9380418,0.98149,-0.30805,-0.17946199999999998,55.44,-7.1225,9.3975
1644,9380516,0.9037761000000001,-0.277428,-0.188612,51.0475,-8.435,12.95
1645,9380614,0.836676,-0.24107199999999998,-0.193614,48.3175,-8.9425,14.315
1646,9380712,0.7820199999999999,-0.211792,-0.198372,46.69,-8.7325,14.21
1647,9380810,0.7494460000000001,-0.18324400000000002,-0.19764,45.1325,-8.9775,13.195
1648,9380907,0.73383,-0.162626,-0.191296,43.6275,-8.9775,11.4625
1649,9381005,0.7278521,-0.14493599999999998,-0.18556199999999998,42.0175,-8.8375,9.485
1650,9381103,0.735416,-0.12261,-0.179828,40.53,-8.9775,7.385
1651,9381201,0.761158,-0.10553,-0.17543599999999998,39.235,-8.75,5.2675
1652,9381299,0.789706,-0.085156,-0.15921,38.29,-7.875,4.4275
1653,9381397,0.8182541,-0.079544,-0.140422,37.66,-6.8075,4.445
1654,9381495,0.8376520000000001,-0.069174,-0.118828,36.5225,-6.9475,4.2875
1655,9381593,0.8405800999999999,-0.06563601,-0.10089400000000001,35.455,-8.435,4.34
1656,9381690,0.8274040000000001,-0.06819800000000001,-0.08601,34.965,-10.2725,4.3925
1657,9381788,0.812642,-0.071858,-0.082716,34.825,-11.7425,4.4275
1658,9381886,0.8067861,-0.08454600000000001,-0.079544,35.175,-12.635,4.7775
1659,9381984,0.815448,-0.09845401,-0.07588400000000001,35.595,-12.915,4.76
1660,9382082,0.8352120000000001,-0.121146,-0.062464,35.7875,-12.355,4.725
1661,9382180,0.8591241,-0.149816,-0.045384,35.315,-12.2675,4.48
1662,9382278,0.8769360999999999,-0.189832,-0.024278,33.95,-12.0575,3.605
1663,9382375,0.888282,-0.233264,-0.009272001,31.99,-11.2175,2.275
1664,9382473,0.8826700000000001,-0.244732,0.011590000000000001,29.4175,-10.6925,1.26
1665,9382571,0.8712021000000001,-0.230946,0.028182,25.655,-10.0275,0.4375
1666,9382669,0.8510719999999999,-0.204716,0.049776,20.9125,-8.435,-0.35
1667,9382767,0.8397261,-0.198006,0.05843801,15.75,-6.72,-0.91
1668,9382865,0.846802,-0.21838000000000002,0.035624,10.395,-6.23,-1.1725
1669,9382963,0.874252,-0.265106,0.007564001,5.04,-6.3,-1.82
1670,9383061,0.9240280000000001,-0.30402399999999996,-0.005612,-0.1925,-5.1275,-2.8525
1671,9383158,0.9894200000000001,-0.31463800000000003,-0.0034159999999999998,-4.83,-2.8525,-3.9725
1672,9383256,1.056154,-0.29524,0.015738,-7.98,-1.085,-4.7075
1673,9383354,1.1270360000000001,-0.25803000000000004,0.042212,-9.2925,0.4725,-5.04
1674,9383452,1.19316,-0.204228,0.07002799999999999,-9.345,2.625,-4.095
1675,9383550,1.24379,-0.139568,0.107726,-8.89,5.46,-0.8225
1676,9383648,1.281366,-0.082106,0.157136,-7.4725,8.6975,4.095
1677,9383746,1.303326,-0.03904,0.216428,-6.0725,12.355,10.045
1678,9383844,1.300276,-0.030622000000000003,0.244732,-4.8825,14.6125,15.8025
1679,9383941,1.29259,-0.132858,0.141276,-3.2375,12.0925,20.3175
1680,9384039,1.315892,-0.22728600000000002,-0.06039,-3.045,4.55,23.1525
