,T,ax,ay,az,gx,gy,gz
0,7495416,0.862296,-0.077836,-0.195688,10.15,-9.485,-9.7125
1,7495560,0.9259799999999999,-0.090768,-0.260226,-34.5625,-39.2,-87.60501
2,7495657,1.0107700000000002,-0.102724,-0.290604,-61.4425,-76.6325,-128.0475
3,7495754,0.9919821,-0.101626,-0.29902199999999995,18.0075,-97.12501,-49.7175
4,7495851,0.9636780999999999,-0.097478,-0.304634,-3.4475,-3.0975,-3.99
5,7495947,0.954284,-0.098332,-0.312686,-2.7475,0.3675,-2.835
6,7496044,0.949526,-0.098332,-0.317932,-1.575,1.645,-2.695
7,7496141,0.9453780999999999,-0.09650201,-0.321592,0.245,3.08,-2.7475
8,7496238,0.946232,-0.096868,-0.319762,2.73,4.515,-2.8875
9,7496334,0.9465981,-0.093086,-0.3111,5.95,6.3875,-3.15
10,7496431,0.947574,-0.094062,-0.30134,10.85,9.52,-3.7625
11,7496528,0.9511120000000001,-0.093086,-0.274744,17.0625,13.8775,-4.41
12,7496625,0.955626,-0.09455001,-0.390034,26.355,17.2375,-5.285
13,7496721,0.9318360000000001,-0.09698999999999999,-0.30927,27.825,17.4125,-5.6175
14,7496818,0.9496479999999999,-0.116022,-0.29133600000000004,20.79,21.1575,-4.41
15,7496915,0.9620920000000001,-0.111996,-0.2684,13.4575,18.97,-2.905
16,7497012,0.9630681000000001,-0.10492,-0.24424400000000002,8.96,15.225,-1.6275
17,7497108,0.9628241,-0.09845401,-0.23582600000000004,7.665,13.335,-1.19
18,7497205,0.9612379999999999,-0.094672,-0.23301999999999998,6.6675,12.285,-0.9275
19,7497302,0.9587979999999999,-0.08576601,-0.233996,5.18,11.1125,-0.7175
20,7497399,0.961116,-0.08405800000000001,-0.24522,3.15,8.8725,-0.77
21,7497495,0.962458,-0.08332601,-0.260714,1.33,6.265,-1.1025
22,7497592,0.96441,-0.08601,-0.267912,0.35,4.6725,-1.575
23,7497689,0.964776,-0.08967,-0.268644,0.945,4.6025,-2.2225
24,7497785,0.966118,-0.09235399999999999,-0.259738,2.1,5.775,-2.6425
25,7497882,0.966484,-0.091988,-0.25193000000000004,3.045,7.49,-2.8875
26,7497979,0.971242,-0.09418401,-0.24717199999999998,3.99,8.6275,-3.185
27,7498076,0.9680700000000001,-0.101748,-0.235704,4.4975,8.9425,-3.22
28,7498172,0.966484,-0.100284,-0.23729,3.6575,8.8375,-2.9225
29,7498269,0.9608721,-0.09991799999999999,-0.24461,3.185,8.4875,-2.6775
30,7498366,0.96014,-0.099186,-0.2379,2.835,8.05,-2.485
31,7498463,0.9585541,-0.09784401,-0.230458,2.0475,7.84,-2.3625
32,7498559,0.9563581,-0.09516001,-0.220698,1.435,7.2975,-2.135
33,7498656,0.9525761,-0.085156,-0.199958,1.225,7.0175,-1.9425
34,7498753,0.9609940999999999,-0.091012,-0.20691199999999998,1.8725,7.0,-2.1525
35,7498850,1.0920219999999998,-0.24583000000000002,-0.091744,3.29,7.21,-2.485
36,7498946,0.968558,-0.033428,-0.174216,-8.575,-3.5525,0.0
37,7499043,0.9487940999999999,-0.08052000000000001,-0.218746,-3.64,-10.15,-1.8375
38,7499140,1.012722,-0.07698201,-0.147254,-2.87,-6.86,-2.5025
39,7499237,0.966484,-0.09784401,-0.19556600000000002,8.47,-1.75,-5.5825
40,7499333,0.964044,-0.10052799999999999,-0.228384,7.8925,-1.5925,-5.1625
41,7499430,0.9602620999999999,-0.089426,-0.213378,-0.4375,-5.7225,-3.36
42,7499527,0.9553821,-0.09259801,-0.21716,-3.6925,-8.645,-2.345
43,7499624,0.9526979999999999,-0.097478,-0.21411,-3.0975,-7.9625,-2.2225
44,7499720,0.9540401,-0.09845401,-0.214842,-2.5025,-7.5425,-2.3275
45,7499817,0.952332,-0.10065,-0.217404,-2.2575,-7.77,-2.2575
46,7499914,0.9465981,-0.09991799999999999,-0.221552,-2.03,-7.28,-2.1
47,7500011,0.9507460999999999,-0.100162,-0.22277199999999997,-1.7675,-6.335,-2.205
48,7500107,0.954284,-0.102114,-0.22362600000000002,-1.645,-5.6,-2.275
49,7500204,0.9612379999999999,-0.10345599999999999,-0.224846,-1.75,-5.25,-2.38
50,7500301,0.969412,-0.10553,-0.22326,-1.7675,-5.3025,-2.5025
51,7500398,0.975878,-0.10540799999999999,-0.21899000000000002,-1.68,-5.3025,-2.555
52,7500494,0.9775860000000001,-0.104066,-0.215452,-1.5925,-5.39,-2.7125
53,7500591,0.979294,-0.10394400000000001,-0.215086,-1.5575,-5.32,-2.8525
54,7500688,0.9762440999999998,-0.10321199999999998,-0.213988,-1.645,-5.4075,-2.7825
55,7500785,0.9725841000000001,-0.10223600000000001,-0.213256,-1.645,-5.6,-2.695
56,7500881,0.966606,-0.102358,-0.213988,-1.365,-5.5475,-2.59
57,7500978,0.9646541,-0.102968,-0.21813600000000002,-1.225,-5.565,-2.52
58,7501075,0.9623360999999999,-0.10540799999999999,-0.21801399999999999,-1.05,-5.5825,-2.3975
59,7501172,0.9613601,-0.10638399999999999,-0.220088,-0.8575,-5.635,-2.3275
60,7501268,0.9598959999999999,-0.107726,-0.219478,-0.63,-5.425,-2.24
61,7501365,0.96075,-0.10736,-0.219966,-0.4725,-5.3025,-2.2225
62,7501462,0.9619700000000001,-0.107726,-0.223016,-0.35,-5.3725,-2.3275
63,7501559,0.9638,-0.10919000000000001,-0.224846,-0.2625,-5.3025,-2.24
64,7501655,0.9652639999999999,-0.11028800000000001,-0.221796,-0.0525,-5.1975,-2.24
65,7501752,0.9678261,-0.109922,-0.2196,0.245,-5.0225,-2.2575
66,7501849,0.9700219999999999,-0.107726,-0.217282,0.525,-4.935,-2.31
67,7501946,0.969534,-0.107482,-0.21716,0.735,-4.795,-2.38
68,7502042,0.9688021000000001,-0.104066,-0.21520799999999998,0.77,-4.83,-2.5725
69,7502139,0.967094,-0.104432,-0.21581799999999998,0.875,-4.725,-2.6425
70,7502236,0.9648979999999999,-0.107116,-0.216306,1.0675,-4.55,-2.7125
71,7502332,0.9638,-0.10723800000000001,-0.21972199999999997,1.225,-4.3575,-2.9225
72,7502429,0.9628241,-0.10919000000000001,-0.220698,1.295,-4.2875,-2.975
73,7502526,0.9629459999999999,-0.11138599999999999,-0.22362600000000002,1.4525,-4.235,-3.115
74,7502623,0.961726,-0.11321600000000001,-0.222894,1.6625,-4.025,-3.255
75,7502720,0.959774,-0.11285,-0.224358,1.785,-3.85,-3.2725
76,7502816,0.9598959999999999,-0.11224,-0.22386999999999999,1.7675,-3.85,-3.29
77,7502913,0.960384,-0.11126400000000002,-0.22582199999999997,1.855,-3.9375,-3.185
78,7503010,0.95831,-0.11163,-0.228262,1.8375,-4.0425,-3.0275
79,7503106,0.959774,-0.110654,-0.22789600000000002,1.7675,-4.0425,-2.9925
80,7503203,0.96075,-0.11102000000000001,-0.22753,1.9425,-3.85,-2.8175
81,7503300,0.96319,-0.111996,-0.22777399999999998,2.065,-3.7275,-2.8
82,7503397,0.964044,-0.11236199999999999,-0.229726,2.1525,-3.99,-2.7825
83,7503493,0.9638,-0.11345999999999999,-0.228262,2.1875,-4.025,-2.6775
84,7503590,0.9642879999999999,-0.114802,-0.23009200000000002,2.065,-4.1825,-2.5375
85,7503687,0.965874,-0.11504600000000001,-0.230458,1.96,-4.305,-2.4675
86,7503784,0.966606,-0.11614400000000001,-0.233752,1.7675,-4.3225,-2.31
87,7503880,0.96929,-0.117852,-0.235094,1.5225,-4.3925,-2.135
88,7503977,0.9711200999999999,-0.12041400000000001,-0.236558,1.4,-4.48,-2.135
89,7504074,0.9724620999999999,-0.11760799999999999,-0.23826599999999998,1.2775,-4.4625,-2.1525
90,7504171,0.9779521000000001,-0.11358199999999999,-0.23997399999999997,0.875,-3.885,-2.24
91,7504267,0.9818561,-0.116632,-0.239852,0.455,-3.6575,-2.5375
92,7504364,0.9822219999999999,-0.11943800000000002,-0.23753400000000002,0.2975,-4.1125,-2.7825
93,7504461,0.9772200999999999,-0.116998,-0.23826599999999998,-0.1225,-5.04,-2.8875
94,7504558,0.9734381,-0.11224,-0.24131599999999997,-0.2975,-5.915,-3.045
95,7504655,0.972218,-0.11163,-0.242536,-0.56,-6.4575,-3.185
96,7504751,0.9736819999999999,-0.1098,-0.242902,-0.8225,-7.0525,-3.4125
97,7504848,0.972218,-0.111508,-0.243878,-0.8225,-7.6475,-3.6225
98,7504945,0.974292,-0.114558,-0.245098,-0.875,-8.3475,-3.885
99,7505041,0.979294,-0.11626600000000001,-0.24668400000000001,-1.0675,-8.96,-3.99
100,7505138,0.984906,-0.115168,-0.245098,-1.33,-9.8175,-4.1125
101,7505235,0.9892981,-0.11345999999999999,-0.24717199999999998,-1.7325,-10.9375,-4.27
102,7505332,0.9889319999999999,-0.113704,-0.24705,-2.135,-11.8825,-4.3925
103,7505429,0.989908,-0.11358199999999999,-0.24717199999999998,-2.52,-12.46,-4.48
104,7505525,0.988078,-0.113826,-0.24875799999999998,-2.8175,-13.2125,-4.585
105,7505622,0.98393,-0.111752,-0.24875799999999998,-3.01,-14.4025,-4.55
106,7505719,0.984174,-0.111508,-0.249856,-3.115,-15.575,-4.7775
107,7505816,0.984174,-0.11138599999999999,-0.249612,-3.29,-16.345,-4.8825
108,7505912,0.98393,-0.112972,-0.251442,-3.6225,-17.3775,-5.0225
109,7506009,0.985516,-0.114924,-0.252052,-3.92,-18.4975,-5.0225
110,7506106,0.987712,-0.115168,-0.25132,-4.06,-19.7575,-5.1275
111,7506203,0.9861260000000001,-0.11724200000000001,-0.25424800000000003,-4.1825,-21.035,-5.2675
112,7506299,0.9850280999999999,-0.11895,-0.254492,-4.375,-22.2425,-5.46
113,7506396,0.9829540000000001,-0.11955999999999999,-0.255712,-4.585,-22.9775,-5.565
114,7506493,0.978074,-0.12065799999999999,-0.259128,-4.8475,-23.7825,-5.6175
115,7506590,0.974658,-0.116388,-0.261446,-5.18,-24.605,-5.67
116,7506686,0.9708760000000001,-0.11504600000000001,-0.263886,-5.39,-25.655,-5.5475
117,7506783,0.9711200999999999,-0.11345999999999999,-0.266936,-5.775,-26.705,-5.4775
118,7506880,0.9720960999999999,-0.111996,-0.2684,-6.1775,-27.7375,-5.46
119,7506977,0.9718521000000001,-0.11102000000000001,-0.266326,-6.51,-28.805,-5.4425
120,7507073,0.969534,-0.11016600000000001,-0.268034,-6.5975,-29.4525,-5.3025
121,7507170,0.965996,-0.10919000000000001,-0.273158,-6.685,-30.3625,-5.145
122,7507267,0.963434,-0.11321600000000001,-0.28011199999999997,-6.9125,-31.2375,-5.005
123,7507363,0.9596520000000001,-0.11626600000000001,-0.28304,-7.2625,-32.2525,-4.8475
124,7507460,0.9552601000000001,-0.116754,-0.28328400000000004,-7.595,-33.145,-4.6725
125,7507557,0.954528,-0.11614400000000001,-0.287798,-8.015,-33.46,-4.655
126,7507654,0.9526979999999999,-0.114558,-0.291214,-8.61,-33.9325,-4.445
127,7507750,0.9470860000000001,-0.11407,-0.293166,-9.3625,-34.72,-4.2175
128,7507847,0.9433041,-0.11345999999999999,-0.295484,-9.835,-35.5425,-4.13
129,7507944,0.939766,-0.114192,-0.29902199999999995,-10.0975,-35.8575,-4.0775
130,7508041,0.940132,-0.113704,-0.30109600000000003,-10.2725,-36.05,-3.99
131,7508137,0.9446460999999999,-0.110898,-0.30402399999999996,-10.4125,-36.82,-3.8675
132,7508234,0.9394,-0.10553,-0.303292,-10.395,-37.3975,-3.605
133,7508331,0.939522,-0.10223600000000001,-0.304634,-10.465,-37.31,-3.43
134,7508428,0.9385460999999999,-0.09613601,-0.30536599999999997,-10.29,-37.2925,-3.29
135,7508524,0.931226,-0.09650201,-0.3111,-9.8,-37.5025,-3.3425
136,7508621,0.9292739999999999,-0.096868,-0.31171,-9.415,-37.7825,-3.29
137,7508718,0.919392,-0.09577000000000001,-0.31476,-9.3625,-37.5375,-3.185
138,7508815,0.9174399999999999,-0.09284201,-0.316834,-9.3975,-37.0125,-2.94
139,7508911,0.91622,-0.091134,-0.31951799999999997,-9.345,-36.4525,-2.835
140,7509008,0.9158540999999999,-0.091988,-0.32708200000000004,-9.3625,-35.8925,-2.905
141,7509105,0.9148780000000001,-0.09223200000000001,-0.329034,-9.38,-35.245,-2.765
142,7509201,0.9097540000000001,-0.089914,-0.33061999999999997,-9.31,-34.4925,-2.5025
143,7509298,0.9092661,-0.08918200000000001,-0.332694,-9.135,-33.53,-2.45
144,7509395,0.9060940000000001,-0.086864,-0.337452,-8.9775,-32.235,-2.5375
145,7509492,0.901336,-0.08674201,-0.339648,-8.9075,-31.5525,-2.5025
146,7509588,0.90036,-0.08564401,-0.34050199999999997,-8.96,-31.0625,-2.4325
147,7509685,0.9034101000000001,-0.08442401,-0.344406,-8.8725,-30.0825,-2.31
148,7509782,0.8973101000000001,-0.087474,-0.34831,-8.6275,-28.7175,-2.17
149,7509879,0.895358,-0.08674201,-0.354532,-8.4,-27.5975,-2.1175
150,7509975,0.8967,-0.08771799999999999,-0.359534,-8.05,-26.5125,-2.0825
151,7510072,0.8962120000000001,-0.08869401,-0.36234,-7.63,-25.445,-2.0125
152,7510169,0.8988959999999999,-0.08442401,-0.363194,-7.28,-23.8875,-1.925
153,7510266,0.8941380999999999,-0.08296,-0.360998,-6.8775,-22.505,-1.9075
154,7510362,0.895114,-0.079422,-0.366732,-6.51,-21.21,-2.03
155,7510459,0.897432,-0.078202,-0.373564,-6.2825,-20.23,-1.96
156,7510556,0.8954801,-0.07527400000000001,-0.37576,-5.88,-19.4425,-1.855
157,7510653,0.893284,-0.076738,-0.37759000000000004,-5.4775,-18.2875,-1.8375
158,7510749,0.8991401,-0.07747001,-0.38308000000000003,-5.1625,-16.5725,-1.855
159,7510846,0.900848,-0.07490801,-0.383202,-4.8475,-14.9275,-1.68
160,7510943,0.9036540000000001,-0.072956,-0.38503200000000004,-4.69,-14.455,-1.68
161,7511040,0.8943821,-0.07417601,-0.387228,-4.69,-14.4725,-1.6275
162,7511136,0.8903561,-0.07442,-0.390156,-4.7075,-14.385,-1.75
163,7511233,0.895236,-0.07710399999999999,-0.39589,-4.5325,-13.6675,-1.8375
164,7511330,0.8976761000000001,-0.079666,-0.399306,-4.2,-12.6875,-1.8375
165,7511427,0.903166,-0.07869,-0.404552,-3.7975,-11.375,-1.6275
166,7511523,0.898042,-0.07551801,-0.401502,-3.255,-10.4825,-1.47
167,7511620,0.9001161,-0.07344400000000001,-0.40199,-3.15,-10.0975,-1.61
168,7511717,0.9028,-0.07076001,-0.401868,-2.8875,-9.45,-1.785
169,7511814,0.8992620000000001,-0.06941801,-0.403942,-2.6775,-9.0125,-1.925
170,7511910,0.89487,-0.06892999999999999,-0.406138,-2.275,-8.8025,-2.03
171,7512007,0.8910879999999999,-0.07112601,-0.407846,-2.065,-8.5225,-2.0125
172,7512104,0.8890140999999999,-0.072712,-0.41053,-1.75,-8.015,-2.0475
173,7512201,0.8862081,-0.07393200000000001,-0.41272600000000004,-1.4525,-7.2975,-2.1875
174,7512297,0.88633,-0.07332201,-0.414312,-1.19,-6.6675,-2.2575
175,7512394,0.886818,-0.071858,-0.416508,-1.05,-6.3175,-2.3625
176,7512491,0.8880380999999999,-0.07259,-0.419436,-0.8575,-6.195,-2.5725
177,7512588,0.889624,-0.07381001,-0.42151000000000005,-0.7175,-6.0725,-2.7125
178,7512684,0.890966,-0.07503,-0.423706,-0.595,-5.7925,-2.7475
179,7512781,0.8931620000000001,-0.07527400000000001,-0.425292,-0.49,-5.4075,-2.87
180,7512878,0.8940161,-0.07490801,-0.42822,-0.385,-5.145,-3.045
181,7512975,0.89426,-0.074664,-0.42944,-0.245,-5.0575,-3.08
182,7513071,0.8949921000000001,-0.07515201,-0.42931800000000003,-0.035,-4.9,-3.0975
183,7513168,0.89426,-0.07503,-0.42736599999999997,0.0525,-4.76,-3.08
184,7513265,0.892918,-0.076494,-0.427122,0.1575,-4.6725,-3.1325
185,7513362,0.89243,-0.07564,-0.42700000000000005,0.42,-4.41,-3.115
186,7513458,0.8912100000000001,-0.07747001,-0.428708,0.665,-4.3225,-3.1675
187,7513555,0.8935280999999999,-0.07686,-0.42931800000000003,0.7875,-4.1475,-3.15
188,7513652,0.8941380999999999,-0.07527400000000001,-0.426512,0.8400001,-3.675,-3.2375
189,7513749,0.895602,-0.073688,-0.426878,1.0675,-3.5875,-3.29
190,7513845,0.8973101000000001,-0.07344400000000001,-0.42602399999999996,1.33,-3.7625,-3.325
191,7513942,0.90036,-0.07246799999999999,-0.42443800000000004,1.61,-3.78,-3.29
192,7514039,0.9028,-0.071248,-0.42321800000000004,1.8025,-3.29,-3.1325
193,7514136,0.903532,-0.07234600000000001,-0.42333999999999994,2.0125,-2.7475,-2.9575
194,7514232,0.906948,-0.071492,-0.421754,2.31,-2.3625,-2.8175
195,7514329,0.9110959999999999,-0.07356601,-0.41882600000000003,2.7475,-2.3275,-2.8175
196,7514426,0.910974,-0.07173600000000001,-0.414678,3.0625,-2.3625,-2.6775
197,7514523,0.9093880999999999,-0.07246799999999999,-0.41199399999999997,3.4475,-2.0125,-2.485
198,7514619,0.91012,-0.07222401,-0.413336,3.85,-1.6975,-2.38
199,7514716,0.91012,-0.07222401,-0.41382399999999997,4.3225,-1.54,-2.2575
200,7514813,0.912438,-0.07137001,-0.41175,4.7775,-1.7675,-2.1525
201,7514910,0.9112181,-0.06466001,-0.40357600000000005,4.9525,-1.785,-2.17
202,7515006,0.9103641,-0.06283,-0.402966,5.2675,-1.5925,-2.31
203,7515103,0.910242,-0.06575800000000001,-0.403454,5.6175,-1.96,-2.695
204,7515200,0.9089001,-0.066124,-0.399794,5.705,-2.1875,-2.9925
205,7515296,0.9114620000000001,-0.068564,-0.39723200000000003,5.67,-1.7675,-3.29
206,7515393,0.9146340000000001,-0.074664,-0.393328,5.8275,-1.3125,-3.64
207,7515490,0.910974,-0.07991000000000001,-0.381616,6.23,-1.33,-3.885
208,7515587,0.9030440000000001,-0.081862,-0.37515,6.6325,-1.4,-3.955
209,7515683,0.8921860999999999,-0.072712,-0.38198200000000004,6.825,-1.6975,-3.9725
210,7515780,0.8890140999999999,-0.069906,-0.384178,6.79,-1.645,-3.7975
211,7515877,0.892918,-0.07356601,-0.37856599999999996,6.72,-0.6825,-3.4825
212,7515974,0.8987741,-0.076738,-0.3721,6.3,0.665,-3.395
213,7516070,0.9001161,-0.079544,-0.372344,5.8975,1.155,-3.43
214,7516167,0.9019459999999999,-0.082716,-0.368562,5.6875,0.7,-3.5175
215,7516264,0.9018241,-0.085888,-0.367586,5.2325,0.63,-3.6225
216,7516361,0.9051181,-0.087108,-0.365146,4.725,1.0325,-3.5
217,7516457,0.9082899999999999,-0.09125599999999999,-0.362462,4.34,1.5225,-3.3425
218,7516554,0.9097540000000001,-0.093696,-0.360754,4.0425,2.1175,-3.0625
219,7516651,0.9110959999999999,-0.09125599999999999,-0.35868,3.8325,2.5375,-2.905
220,7516748,0.909632,-0.090036,-0.35563,3.7625,2.3975,-2.7125
221,7516844,0.9112181,-0.088328,-0.354044,3.6575,2.6425,-2.415
222,7516941,0.9107301,-0.08442401,-0.351482,3.675,2.9925,-2.3275
223,7517038,0.9120720999999999,-0.080398,-0.35221399999999997,3.5875,3.2725,-2.275
224,7517135,0.913658,-0.08100801,-0.3477,3.815,3.4825,-2.2575
225,7517231,0.9112181,-0.077592,-0.34586999999999996,4.025,3.6225,-2.3975
226,7517328,0.90951,-0.07551801,-0.347456,4.1125,3.9375,-2.5375
227,7517425,0.9091440000000001,-0.07442,-0.345016,4.235,4.3225,-2.765
228,7517522,0.907802,-0.076616,-0.346358,4.4275,4.515,-2.8
229,7517618,0.907192,-0.0793,-0.344528,4.4975,4.9175,-2.7475
230,7517715,0.9060940000000001,-0.079666,-0.341478,4.4975,5.495,-2.765
231,7517812,0.9063379999999999,-0.081252,-0.338062,4.5675,6.23,-2.7825
232,7517909,0.900848,-0.082716,-0.335256,4.8125,6.79,-2.8525
233,7518005,0.8991401,-0.07869,-0.33305999999999997,5.0225,6.9825,-2.835
234,7518102,0.895602,-0.074542,-0.328912,5.2675,7.35,-2.9925
235,7518199,0.8910879999999999,-0.07612801,-0.326716,5.53,7.7,-3.3425
236,7518296,0.8845,-0.08113001,-0.32269000000000003,5.845,7.9625,-3.7975
237,7518392,0.8790100000000001,-0.08466801,-0.31951799999999997,6.09,8.2775,-4.27
238,7518489,0.8764481,-0.08601,-0.316834,6.545,8.925,-4.83
239,7518586,0.874252,-0.08466801,-0.312076,7.1575,9.3975,-5.5475
240,7518683,0.8701040000000001,-0.090158,-0.310246,7.945,9.5025,-6.6675
241,7518779,0.862174,-0.09333,-0.30988000000000004,8.8025,8.5575,-7.8925
242,7518876,0.8546101,-0.094306,-0.30780599999999997,9.6775,7.5075,-9.3275
243,7518973,0.8483879999999999,-0.10321199999999998,-0.311832,10.4825,6.965,-11.27
244,7519069,0.8483879999999999,-0.11333800000000001,-0.31842,11.5325,6.23,-13.1075
245,7519166,0.8486319999999999,-0.124806,-0.319762,12.46,5.5125,-15.3825
246,7519263,0.859978,-0.13359000000000001,-0.33000999999999997,13.405,5.1625,-17.6575
247,7519360,0.8735200000000001,-0.130052,-0.343552,14.595,5.0225,-20.02
248,7519456,0.9010921000000001,-0.114436,-0.338916,14.98,6.125,-22.0325
249,7519553,0.9463540000000001,-0.11712,-0.33013200000000004,15.3825,9.0475,-23.59
250,7519650,0.9961300999999999,-0.10321199999999998,-0.328546,15.47,11.6725,-24.4475
251,7519747,1.038586,-0.07747001,-0.306464,14.8575,12.9325,-24.3425
252,7519843,1.070062,-0.057218,-0.28365,13.755,13.2825,-23.66
253,7519940,1.08336,-0.060634,-0.27071799999999996,13.9825,10.885,-22.54
254,7520037,1.0704280000000002,-0.07527400000000001,-0.259982,14.945,6.405,-20.7375
255,7520134,1.055788,-0.094306,-0.271938,15.1375,3.0625,-18.2175
256,7520230,1.051396,-0.106628,-0.288774,14.6825,1.12,-15.1725
257,7520327,1.054202,-0.119682,-0.293288,13.86,0.91,-12.04
258,7520424,1.065304,-0.1342,-0.283894,13.125,1.7325,-9.275
259,7520521,1.073234,-0.153598,-0.273524,12.5125,1.5575,-7.0175
260,7520617,1.060302,-0.17519200000000001,-0.269498,12.145,-0.875,-5.1275
261,7520714,1.042246,-0.183366,-0.265716,11.34,-5.7575,-3.8325
262,7520811,1.02053,-0.19459,-0.265838,10.605,-10.64,-2.555
263,7520908,0.9978379999999999,-0.193004,-0.259006,9.3625,-13.825,-1.4525
264,7521004,0.975634,-0.18666,-0.253882,8.015,-15.295,-0.385
265,7521101,0.9557479999999999,-0.17934,-0.246928,6.5275,-15.9425,0.8925
266,7521198,0.9352520000000001,-0.16835999999999998,-0.23753400000000002,4.41,-15.8725,1.9425
267,7521295,0.9134141,-0.158356,-0.22362600000000002,2.3625,-15.12,2.9225
268,7521391,0.8935280999999999,-0.154574,-0.21472,0.3325,-14.9275,3.885
269,7521488,0.8845,-0.15006,-0.2074,-1.5925,-14.525,4.0775
270,7521585,0.8815719999999999,-0.137494,-0.194712,-3.7975,-14.0525,4.0775
271,7521682,0.8901120000000001,-0.132736,-0.190076,-5.285,-12.6875,3.64
272,7521778,0.9070700999999999,-0.119804,-0.17995,-6.5975,-11.235,2.9575
273,7521875,0.925858,-0.106994,-0.174826,-8.2775,-9.7475,2.31
274,7521972,0.9381801,-0.101382,-0.163114,-9.5375,-8.645,2.1525
275,7522069,0.9476959999999999,-0.097478,-0.158844,-10.5525,-8.4175,1.6275
276,7522165,0.9526979999999999,-0.091988,-0.154696,-10.71,-9.38,1.3125
277,7522262,0.9553821,-0.08845001,-0.15067,-10.7625,-10.08,0.7525
278,7522359,0.955992,-0.08479,-0.14566800000000002,-10.92,-9.8875,0.28
279,7522456,0.956968,-0.079056,-0.143716,-11.1125,-9.3975,-0.1925
280,7522552,0.9531860000000001,-0.078202,-0.142252,-11.34,-9.17,-0.7175
281,7522649,0.9502581,-0.086864,-0.142984,-11.3925,-9.345,-1.47
282,7522746,0.9479401,-0.101016,-0.151158,-11.55,-9.8,-1.96
283,7522843,0.9479401,-0.11870599999999999,-0.153354,-11.9,-10.045,-2.1875
284,7522939,0.9479401,-0.131028,-0.156282,-12.285,-10.185,-1.9425
285,7523036,0.9450120000000001,-0.136884,-0.155916,-12.6175,-10.08,-1.575
286,7523133,0.946232,-0.145302,-0.162748,-12.6525,-9.87,-1.12
287,7523230,0.947574,-0.14896199999999998,-0.166042,-12.565,-9.7125,-0.49
288,7523326,0.951722,-0.149328,-0.167262,-12.355,-9.2925,0.35
289,7523423,0.9547720999999999,-0.145302,-0.169702,-11.9875,-8.89,1.1025
290,7523520,0.9591639999999999,-0.142008,-0.171776,-11.41,-8.6975,1.8025
291,7523617,0.969412,-0.141032,-0.17848599999999998,-10.8675,-8.05,2.6075
292,7523713,0.9822219999999999,-0.143716,-0.178608,-10.64,-7.6125,3.22
293,7523810,0.998814,-0.142252,-0.1708,-10.815,-7.56,4.095
294,7523907,1.018822,-0.148108,-0.162504,-11.2175,-7.7,5.04
295,7524004,1.036268,-0.141398,-0.160674,-11.1825,-7.28,6.0725
296,7524100,1.070794,-0.14688800000000002,-0.14945,-11.1475,-4.9,6.9475
297,7524197,1.110566,-0.159576,-0.118828,-11.4975,-1.505,7.4375
298,7524294,1.1569260000000001,-0.155916,-0.07698201,-12.0225,2.38,7.245
299,7524391,1.183034,-0.162992,-0.14457,-11.6375,6.44,6.2125
300,7524487,1.1960879999999998,-0.199226,-0.330254,-7.455,6.335,5.1275
301,7524584,1.257454,-0.071614,-0.26169000000000003,-7.49,8.96,7.2625
302,7524681,1.350296,0.06661201,-0.158844,-7.9975,20.4575,10.92
303,7524778,1.3571280000000001,0.074298,-0.24717199999999998,5.88,21.28,8.2425
304,7524874,1.256844,0.011224,-0.325496,19.9675,3.0625,2.6425
305,7524971,1.18462,0.02684,-0.30402399999999996,20.7375,-6.0025,-0.455
306,7525068,1.116544,-0.008296000999999999,-0.376614,20.93,-4.6375,-4.41
307,7525165,1.078114,-0.07893401,-0.48531599999999997,28.4725,-12.6525,-9.59
308,7525261,1.067134,0.007198,-0.417362,23.6425,-16.24,-12.075
309,7525358,1.0711600000000001,0.04453,-0.430782,18.865,-9.2925,-11.235
310,7525455,1.046028,-0.047580000000000004,-0.505324,24.15,-15.75,-9.87
311,7525551,0.9919821,-0.070882,-0.5009319999999999,25.0775,-27.5275,-8.225
312,7525648,0.9032879999999999,-0.061,-0.43932200000000005,22.715,-28.9275,-5.355
313,7525745,0.7661600000000001,-0.077592,-0.42297399999999996,23.8175,-29.4525,-3.0975
314,7525842,0.6794180000000001,-0.164822,-0.47677600000000003,23.3975,-31.9375,-1.9775
315,7525938,0.686372,-0.22326,-0.487146,18.795,-31.64,1.4525
316,7526035,0.7044279999999999,-0.22862800000000003,-0.46921199999999996,11.2175,-26.845,6.51
317,7526132,0.749934,-0.2135,-0.45554799999999995,6.4225,-19.39,11.27
318,7526229,0.8596120999999999,-0.194102,-0.451034,4.7075,-11.0425,14.1575
319,7526325,0.939766,-0.184952,-0.417362,5.775,-5.8625,14.4725
320,7526422,0.999302,-0.148352,-0.40662600000000004,5.635,-5.7225,11.445
321,7526519,1.041026,-0.116632,-0.4148,5.5125,-8.1725,6.37
322,7526616,1.0377319999999999,-0.09942999999999999,-0.40833400000000003,5.46,-10.64,1.085
323,7526712,0.995764,-0.091744,-0.399916,5.565,-12.5475,-3.6225
324,7526809,0.936716,-0.101382,-0.392962,5.39,-14.2275,-7.3675
325,7526906,0.8751059999999999,-0.116876,-0.37746799999999997,3.92,-16.065,-10.36
326,7527003,0.8261841000000001,-0.13480999999999999,-0.358558,1.7675,-18.3225,-12.39
327,7527099,0.772626,-0.129686,-0.34221,-1.4,-20.02,-13.6325
328,7527196,0.73139,-0.11846199999999998,-0.329888,-4.4625,-20.965,-14.0875
329,7527293,0.6952781,-0.104798,-0.323056,-7.14,-20.475,-13.72
330,7527390,0.679906,-0.097234,-0.31524800000000003,-9.4675,-17.7975,-12.845
331,7527486,0.665144,-0.096014,-0.30707399999999996,-11.48,-13.9475,-12.18
332,7527583,0.6707561,-0.09333,-0.30048600000000003,-12.4075,-10.99,-11.6375
333,7527680,0.690764,-0.09516001,-0.29036,-13.4925,-9.1525,-11.34
334,7527777,0.717726,-0.093696,-0.27876999999999996,-14.56,-7.665,-10.92
335,7527873,0.748836,-0.09577000000000001,-0.268522,-15.085,-5.5125,-9.695
336,7527970,0.789706,-0.09589201,-0.249002,-14.7875,-1.9425,-7.595
337,7528067,0.8369200000000001,-0.08442401,-0.236436,-14.7525,3.5875,-5.25
338,7528164,0.877058,-0.08052000000000001,-0.229238,-14.21,9.205,-2.555
339,7528260,0.903898,-0.07503,-0.224602,-13.2125,13.1425,0.0
340,7528357,0.9117061,-0.06539201,-0.21228000000000002,-12.495,14.315,1.785
341,7528454,0.8988959999999999,-0.046360000000000005,-0.203984,-11.55,13.72,2.695
342,7528551,0.8973101000000001,-0.035013999999999997,-0.20861999999999997,-10.78,11.48,2.9225
343,7528647,0.880474,-0.017812,-0.198006,-10.15,9.7825,2.94
344,7528744,0.8698601,-0.008296000999999999,-0.17934,-9.1,10.5875,2.765
345,7528841,0.8638819999999999,-0.000122,-0.16506600000000002,-6.825,13.44,2.6775
346,7528938,0.858392,0.012565999999999999,-0.160918,-3.92,16.765,2.66
347,7529034,0.8428979999999999,0.023058000000000002,-0.151646,-0.5425,19.285,2.765
348,7529131,0.8411900999999999,0.03599,-0.144326,2.94,21.28,2.66
349,7529228,0.8397261,0.032574,-0.14493599999999998,6.8775,22.47,2.3625
350,7529325,0.8521700999999999,0.03843,-0.153354,10.0975,22.9775,2.1
351,7529421,0.8736421,0.043676,-0.170068,11.4975,24.8325,1.855
352,7529518,0.9089001,0.038674,-0.193248,12.1625,28.42,2.135
353,7529615,0.964044,0.037454,-0.213988,12.215,32.76,1.89
354,7529712,1.024434,0.026595999999999998,-0.19251600000000002,10.8675,37.905,0.5075
355,7529809,1.084702,0.004758,-0.178974,8.4175,41.965,-0.9625
356,7529905,1.1712,-0.03965,-0.160064,4.1125,38.5175,-2.7475
357,7530002,1.2343959999999998,-0.129686,-0.111874,-1.61,30.415,-3.9025
358,7530099,1.253184,-0.19556600000000002,-0.064538,-6.685,22.785,-5.215
359,7530196,1.2190239999999999,-0.225334,-0.021228,-8.9425,14.9625,-6.6325
360,7530292,1.1679059999999999,-0.218746,-0.063684,-8.085,12.04,-7.7
361,7530389,1.140944,-0.158478,-0.356362,-5.04,13.825,-7.7
362,7530486,1.183034,-0.248148,-0.228384,-2.835,17.9025,-8.4175
363,7530583,1.3649360000000001,-0.276452,0.000488,1.1725,38.29,-10.5
364,7530679,1.503894,-0.22143000000000002,-0.11773,-1.365,41.58,-14.49
365,7530777,1.315526,-0.17751,-0.309392,-11.34,3.7275,-17.745
366,7530873,1.151192,-0.13054000000000002,-0.294142,-17.2025,-13.0725,-16.6075
367,7530970,1.075064,0.017202000000000002,-0.575962,-17.92,-10.7625,-16.7825
368,7531066,1.003328,-0.03721,-0.8910879999999999,-26.25,-30.905,-21.6825
369,7531163,0.9943001,-0.30256,-0.6070720000000001,-25.5325,-25.7425,-30.5375
370,7531260,1.05774,-0.35233600000000004,-0.48983000000000004,-25.2525,-6.5275,-44.6775
371,7531357,0.9950319999999999,-0.319884,-0.43505200000000005,-26.95,-30.8,-53.4625
372,7531453,0.8026380999999999,-0.189588,-0.5764501,-30.2225,-63.4025,-57.19
373,7531550,0.6872261,0.037454,-0.781166,-35.945,-84.07001,-56.9275
374,7531647,0.7056479999999999,0.07698201,-0.67588,-36.9775,-73.97251,-58.2225
375,7531744,0.808982,0.0122,-0.528748,-30.45,-29.4875,-62.3
376,7531840,0.9944221,0.050752,-0.46726,-24.0275,6.72,-60.83
377,7531937,1.1964540000000001,0.08906,-0.48312,-23.765,18.97,-52.57
378,7532034,1.2566,0.059902,-0.49849209999999994,-25.48,14.6825,-39.095
379,7532131,1.220976,0.04404201,-0.45457200000000003,-26.775,5.0575,-24.745
380,7532227,1.1326479999999999,0.036966000000000006,-0.40967600000000004,-25.445,0.8575,-10.64
381,7532324,1.037,0.046116000000000004,-0.40272199999999997,-24.08,-2.415,1.0675
382,7532421,0.9526979999999999,0.045506,-0.398818,-22.435,-8.5225,9.0825
383,7532518,0.8746181000000001,0.029158,-0.36880599999999997,-20.1075,-14.77,13.9475
384,7532614,0.812032,-0.004392,-0.34221,-18.48,-18.48,15.8025
385,7532711,0.749812,-0.047336,-0.305122,-17.0275,-19.425,16.205
386,7532808,0.6946681,-0.089426,-0.277306,-15.68,-18.5675,15.6275
387,7532905,0.657824,-0.115168,-0.266326,-14.4025,-18.27,14.4725
388,7533001,0.636352,-0.136274,-0.271084,-14.14,-19.2675,12.4425
389,7533098,0.630984,-0.12431800000000001,-0.264862,-14.28,-20.6325,11.06
390,7533195,0.641232,-0.121024,-0.258762,-15.0325,-21.665,10.9025
391,7533292,0.656482,-0.104432,-0.25058800000000003,-16.485,-20.72,11.0075
392,7533388,0.671854,-0.090036,-0.23729,-18.9175,-18.585,10.6225
393,7533485,0.7016220000000001,-0.07173600000000001,-0.219356,-20.3175,-15.1025,10.01
394,7533582,0.7401741,-0.055265999999999996,-0.199226,-21.14,-9.7475,9.0475
395,7533679,0.771528,-0.036722000000000005,-0.18043800000000002,-20.5275,-2.695,7.6125
396,7533775,0.7893399999999999,-0.037576,-0.172996,-20.0025,4.6375,6.09
397,7533872,0.8075180000000001,-0.040992,-0.167262,-18.69,10.22,4.2175
398,7533969,0.8245979999999999,-0.032695999999999996,-0.16226,-17.71,13.755,2.17
399,7534066,0.8403360000000001,-0.034892,-0.142862,-16.9575,15.4,0.9275
400,7534162,0.835456,-0.031476,-0.141032,-16.59,15.8375,0.2625
401,7534259,0.8114220999999999,-0.025742,-0.124928,-16.31,14.2275,0.7
402,7534356,0.782508,-0.029158,-0.111142,-17.2725,13.16,1.4175
403,7534453,0.76189,-0.036356,-0.107848,-19.1275,14.315,2.2925
404,7534549,0.754692,-0.053801999999999996,-0.101382,-21.35,17.29,3.22
405,7534646,0.769454,-0.07515201,-0.12029200000000001,-24.045,21.105,4.7425
406,7534743,0.789218,-0.093696,-0.14688800000000002,-26.4075,22.61,6.09
407,7534840,0.8369200000000001,-0.10394400000000001,-0.159698,-28.315,23.1,6.4225
408,7534937,0.9024341,-0.10126,-0.15738,-29.015,26.3725,5.88
409,7535033,0.9895421,-0.078446,-0.151036,-29.0675,32.0775,5.3725
410,7535130,1.095438,-0.04819,-0.148352,-27.37,38.745,5.1975
411,7535227,1.1631479999999998,-0.020374,-0.12358599999999999,-23.7475,39.6375,5.6875
412,7535324,1.236348,-0.002928,-0.11626600000000001,-19.04,32.5675,6.7025
413,7535420,1.322236,-0.00427,-0.09930800000000001,-12.3725,22.4875,8.05
414,7535517,1.393606,0.006222,-0.065514,-7.525,12.4425,10.43
415,7535614,1.457778,0.01952,-0.0035380000000000003,-4.375,6.3525,12.8625
416,7535710,1.4909620000000001,-0.007198,-0.050508,-1.645,3.465,14.4025
417,7535807,1.43167,-0.10126,-0.322934,4.69,-3.5175,14.49
418,7535904,1.3740860000000001,-0.012688,-0.191906,7.455,-7.7875,16.6425
419,7536001,1.464244,0.11358199999999999,-0.11760799999999999,6.5975,15.89,18.83
420,7536098,1.5445200000000001,0.148596,-0.25803000000000004,21.4375,28.1925,15.925
421,7536194,1.3857979999999999,0.183854,-0.314394,35.7175,5.355,8.575
422,7536291,1.20414,0.13908,-0.406382,37.0825,-13.685,2.695
423,7536388,1.078602,-0.005734,-0.611464,36.8375,-23.9225,-0.7875
424,7536485,1.0054020000000001,-0.0017079999999999999,-0.69052,43.26,-34.755,0.2275
425,7536581,0.9265901,0.119926,-0.58743,40.39,-33.495,4.5325
426,7536678,0.916586,0.11541199999999999,-0.571814,45.6575,-23.975,5.425
427,7536775,0.8987741,0.026962,-0.5594920999999999,51.485,-24.4825,5.6875
428,7536872,0.8487540000000001,-0.041236,-0.513498,45.36,-30.24,9.31
429,7536968,0.774822,-0.12456199999999999,-0.5099600000000001,36.0325,-37.5375,13.58
430,7537065,0.761402,-0.262178,-0.5544899999999999,30.0475,-41.195,19.7575
431,7537162,0.8532681000000001,-0.32025,-0.5296021,24.7625,-37.1875,29.3125
432,7537259,0.9678261,-0.30353600000000003,-0.47372600000000004,19.0575,-24.4475,37.9575
433,7537355,1.08641,-0.29682600000000003,-0.459208,20.0375,-9.835,41.72
434,7537452,1.143994,-0.27876999999999996,-0.393816,23.03,-4.2525,36.89
435,7537549,1.131672,-0.23997399999999997,-0.33305999999999997,24.3425,-4.7425,24.92
436,7537646,1.099464,-0.195078,-0.31402800000000003,25.305,-9.8175,11.8825
437,7537742,1.045296,-0.149816,-0.337086,26.18,-17.3775,0.7875
438,7537839,0.9827101,-0.107848,-0.343186,26.285,-26.2675,-7.5425
439,7537936,0.9075581,-0.0732,-0.332084,26.005,-31.8325,-13.335
440,7538033,0.84546,-0.044896,-0.31781,24.22,-33.2325,-17.465
441,7538129,0.788852,-0.007076001,-0.30048600000000003,22.12,-32.095,-20.58
442,7538226,0.7285841,0.021838,-0.279746,21.0875,-30.52,-22.7325
443,7538323,0.6695361,0.040016,-0.258884,21.7525,-29.5925,-23.415
444,7538420,0.6224441,0.049288,-0.256444,22.8375,-28.7,-22.6975
445,7538516,0.5885281,0.04453,-0.254858,24.395,-27.405,-21.07
446,7538613,0.579012,0.040260000000000004,-0.25363800000000003,26.3025,-24.6925,-19.04
447,7538710,0.593774,0.01342,-0.23692399999999997,28.6475,-20.37,-17.4125
448,7538807,0.635498,-0.007808001,-0.21581799999999998,30.5375,-14.98,-16.17
449,7538903,0.6823461,-0.03782,-0.188856,32.2525,-9.6775,-14.84
450,7539000,0.72773,-0.07002799999999999,-0.16348,33.8975,-5.8275,-13.3175
451,7539097,0.758352,-0.081374,-0.136274,34.4225,-2.1525,-11.9
452,7539194,0.7829961,-0.092964,-0.118584,34.02,1.155,-10.9025
453,7539290,0.7856801,-0.11041,-0.11102000000000001,33.5125,3.465,-9.4675
454,7539387,0.7895840999999999,-0.118096,-0.12163399999999999,32.8475,4.3575,-7.665
455,7539484,0.7944641,-0.125172,-0.12529400000000002,32.305,5.705,-5.145
456,7539581,0.7998321,-0.10614000000000001,-0.123098,32.445,8.855,-2.6775
457,7539678,0.803858,-0.10553,-0.116388,32.34,12.0225,-0.7175
458,7539774,0.803858,-0.101992,-0.107482,32.1125,14.6125,0.77
459,7539871,0.7956840999999999,-0.098576,-0.110898,31.6225,17.64,1.8025
460,7539968,0.7862901,-0.08100801,-0.109556,31.5525,20.79,3.0975
461,7540065,0.7732359999999999,-0.039894,-0.111142,31.955,24.08,4.4625
462,7540161,0.771528,-0.009028000999999999,-0.103822,32.585,24.5175,5.5475
463,7540258,0.79483,0.013175999999999998,-0.100284,32.83,24.15,6.37
464,7540355,0.8466800999999999,-0.008540001,-0.09223200000000001,31.22,26.1975,6.475
465,7540452,0.898652,-0.10248,-0.10430999999999999,29.1025,29.0325,6.615
466,7540548,0.9595300999999999,-0.197274,-0.08649801,25.1125,29.6275,6.8075
467,7540645,1.036024,-0.233996,-0.069052,16.9925,29.54,6.1775
468,7540742,1.149118,-0.24131599999999997,-0.076738,5.285,24.675,3.4125
469,7540839,1.2435459999999998,-0.288774,-0.057339999999999995,-7.1575,15.3475,0.245
470,7540935,1.3255299999999999,-0.340746,-0.024644,-15.05,10.045,-2.975
471,7541032,1.414102,-0.349774,-0.024766,-18.4975,8.47,-6.23
472,7541129,1.4454559999999999,-0.271938,-0.229726,-18.62,8.4525,-8.855
473,7541226,1.42313,-0.315736,-0.271572,-15.085,9.2575,-12.3725
474,7541323,1.4570459999999998,-0.404918,0.140666,-3.8325,27.685,-15.9775
475,7541419,1.665544,-0.32147,0.028182,-0.9975,40.04,-20.545
476,7541516,1.388116,-0.29792399999999997,-0.23741199999999998,-10.5,1.82,-24.29
477,7541613,1.1866940000000001,-0.131394,-0.44676400000000005,-20.5975,-28.595,-23.2225
478,7541710,1.138992,0.005368,-0.717238,-21.7,-23.0825,-22.82
479,7541806,1.158024,-0.196176,-0.754692,-26.4075,-24.7625,-32.095
480,7541903,1.163758,-0.42004600000000003,-0.42419399999999996,-32.0425,-21.0175,-44.345
481,7542000,1.13582,-0.366854,-0.24497600000000003,-35.91,-20.65,-52.185
482,7542097,1.009672,-0.175558,-0.496174,-44.9925,-51.555,-51.6775
483,7542193,0.798978,-0.023912,-0.665632,-49.4375,-92.48751,-46.41
484,7542290,0.682956,0.041114,-0.618052,-50.645,-94.115,-46.865
485,7542387,0.7135779999999999,0.033794,-0.528382,-41.0375,-60.9525,-50.2425
486,7542484,0.8591241,0.07259,-0.5127659999999999,-27.0375,-33.7925,-53.83
487,7542580,1.016626,0.12456199999999999,-0.537044,-19.1275,-31.99,-53.34
488,7542677,1.1324040000000002,0.142374,-0.558882,-19.5125,-39.8475,-50.4175
489,7542774,1.215486,0.082228,-0.482266,-20.09,-32.2,-42.7525
490,7542871,1.282708,0.07112601,-0.422364,-22.1375,-4.13,-30.7125
491,7542967,1.233542,0.054655999999999996,-0.35843600000000003,-23.1175,18.0075,-15.9425
492,7543064,1.125816,0.043798000000000004,-0.31585799999999997,-22.8725,19.145,-4.06
493,7543161,1.019798,0.017568,-0.309392,-22.155,4.9875,3.7275
494,7543258,0.92537,-0.024522,-0.309758,-22.82,-16.5375,8.5225
495,7543354,0.8355780999999999,-0.081496,-0.294752,-23.4675,-32.3575,11.3925
496,7543451,0.754204,-0.133102,-0.266326,-22.5225,-35.2975,13.5275
497,7543548,0.6834439999999999,-0.166652,-0.24668400000000001,-20.93,-30.31,14.175
498,7543645,0.628178,-0.158966,-0.228262,-19.6175,-25.235,12.985
499,7543742,0.59353,-0.123708,-0.21618400000000002,-18.4975,-21.805,11.3575
500,7543838,0.590968,-0.097234,-0.20837600000000003,-17.0975,-20.72,10.4825
501,7543935,0.599874,-0.079056,-0.208132,-15.8725,-21.28,10.7975
502,7544032,0.61305,-0.070516,-0.20288599999999998,-15.4875,-22.715,11.585
503,7544129,0.637938,-0.055998,-0.188124,-16.0825,-22.4175,12.2675
504,7544225,0.662826,-0.051484,-0.180804,-16.555,-20.545,12.915
505,7544322,0.6911301,-0.058803999999999995,-0.17580199999999999,-16.4325,-17.01,13.5975
506,7544419,0.713212,-0.05172801,-0.15982000000000002,-16.2225,-13.4225,13.615
507,7544516,0.7245581,-0.053314,-0.14396,-15.3125,-8.225,12.495
508,7544612,0.740296,-0.05185,-0.141276,-14.035,-1.4175,10.115
509,7544709,0.754204,-0.04819,-0.110654,-12.425,5.845,7.7525
510,7544806,0.777628,-0.050142,-0.11163,-10.9725,12.04,5.1975
511,7544903,0.7821421,-0.03477,-0.09455001,-11.2,13.16,3.535
512,7544999,0.768844,-0.042822000000000006,-0.079178,-13.23,12.18,2.9575
513,7545096,0.7666480999999999,-0.049288,-0.077714,-17.115,12.04,3.2375
514,7545193,0.7617681,-0.06039,-0.061366,-21.42,13.405,4.55
515,7545290,0.75884,-0.071614,-0.070638,-25.8825,16.8525,6.2475
516,7545386,0.765306,-0.101504,-0.099186,-28.455,19.845,7.805
517,7545483,0.774944,-0.11431400000000001,-0.138958,-30.4325,20.93,9.1
518,7545580,0.8249639999999999,-0.10931199999999999,-0.146278,-30.3275,24.92,9.59
519,7545677,0.8935280999999999,-0.082228,-0.11407,-28.0525,34.1425,9.3625
520,7545773,1.01443,-0.057462,-0.10614000000000001,-21.525,44.905,8.6275
521,7545870,1.1958440000000001,-0.043676,-0.112972,-9.8525,50.19,7.0525
522,7545967,1.33712,0.009516001,-0.09272000000000001,3.57,46.69,5.67
523,7546064,1.4326459999999999,0.08454600000000001,-0.02135,14.805,37.4325,4.8475
524,7546160,1.480958,0.135786,0.060877999999999995,20.335,27.1425,2.8
525,7546257,1.477298,0.13115,0.119072,21.9625,14.8925,0.0175
526,7546354,1.4204459999999999,0.0035380000000000003,-0.249734,21.7,2.835,-2.8
527,7546451,1.32797,-0.11407,-0.414312,26.915,-11.69,-2.03
528,7546547,1.375306,0.163358,-0.21862399999999999,14.2275,3.6575,4.7775
529,7546644,1.425326,0.09418401,-0.410774,24.3425,32.3925,5.46
530,7546741,1.3169899999999999,0.011834,-0.457988,41.7725,15.015,1.4
531,7546838,1.154608,-0.072102,-0.549244,40.1275,-2.03,2.52
532,7546935,1.088484,-0.19983599999999999,-0.9668501,36.015,-15.61,3.745
533,7547031,0.9924700000000001,-0.146156,-1.037366,38.1325,-45.0625,9.31
534,7547128,0.930372,0.21801399999999999,-0.694058,25.2175,-38.605,20.02
535,7547225,0.9539181000000001,0.177754,-0.54473,33.005,-13.93,17.78
536,7547322,1.001254,-0.230946,-0.605608,48.2125,-15.925,18.0425
537,7547418,1.012844,-0.403088,-0.527284,41.2475,-31.325,28.595
538,7547515,0.917684,-0.414678,-0.41284799999999994,21.4725,-36.0325,36.9425
539,7547612,0.971242,-0.45335200000000003,-0.42456000000000005,1.8725,-29.8725,43.12
540,7547709,1.186816,-0.475922,-0.48128999999999994,-7.595,-23.7125,47.495
541,7547805,1.26209,-0.432978,-0.442616,-10.4475,-20.7025,45.8325
542,7547902,1.254892,-0.330986,-0.39345,-10.465,-21.0,34.895
543,7547999,1.2139,-0.24631799999999998,-0.363682,-7.35,-18.6025,20.9825
544,7548096,1.165466,-0.193492,-0.363072,-4.235,-17.99,9.345
545,7548193,1.0845799999999999,-0.11321600000000001,-0.34221,-2.52,-26.8275,1.89
546,7548289,0.984418,-0.02684,-0.31646799999999997,-2.5375,-38.115,-3.0975
547,7548386,0.888282,0.045506,-0.30487800000000004,-3.2025,-42.9275,-7.0875
548,7548483,0.80886,0.093574,-0.28609,-3.3425,-40.9675,-10.745
549,7548580,0.733586,0.125904,-0.256688,-1.68,-36.26,-14.0175
550,7548676,0.64904,0.122,-0.23009200000000002,0.6125,-31.5,-16.38
551,7548773,0.577914,0.09028,-0.223748,3.185,-28.28,-17.5
552,7548870,0.5296021,0.045506,-0.21301199999999998,4.76,-27.755,-17.185
553,7548967,0.501786,0.011956,-0.21313400000000002,4.9,-26.915,-16.2225
554,7549063,0.5060560000000001,-0.013786000000000001,-0.195078,5.565,-24.5875,-15.6275
555,7549160,0.513864,-0.03721,-0.186904,6.405,-22.1025,-15.4175
556,7549257,0.548756,-0.07027201,-0.17433800000000002,7.9275,-19.5825,-15.505
557,7549354,0.593774,-0.09418401,-0.145912,8.82,-16.625,-15.365
558,7549450,0.6409881,-0.095282,-0.12175599999999999,8.1375,-11.34,-14.5425
559,7549547,0.68198,-0.09272000000000001,-0.09845401,7.175,-3.4125,-12.6
560,7549644,0.7266321,-0.08417999999999999,-0.08845001,5.7925,5.6175,-9.485
561,7549741,0.765184,-0.07564,-0.08479,4.3575,14.0525,-5.425
562,7549837,0.7937320999999999,-0.07515201,-0.104798,4.76,20.9825,-1.33
563,7549934,0.8011741,-0.070638,-0.122366,7.315,25.655,2.3275
564,7550031,0.790682,-0.062586,-0.119316,11.13,29.1725,4.4975
565,7550128,0.7712840999999999,-0.05929201,-0.10638399999999999,14.8575,33.1975,5.81
566,7550224,0.759328,-0.050874,-0.096868,18.3225,38.3075,6.265
567,7550321,0.7439560000000001,-0.03538,-0.082838,20.2825,41.545,7.0175
568,7550418,0.733708,-0.031964,-0.074664,21.805,43.68,7.175
569,7550515,0.7721380999999999,-0.047945999999999996,-0.07246799999999999,20.8775,45.6575,6.23
570,7550611,0.8554641,-0.097722,-0.05770599999999999,19.39,49.1575,6.545
571,7550708,0.9770981,-0.124806,-0.076494,16.345,56.735,6.055
572,7550805,1.109834,-0.152134,-0.039772,10.0975,61.4075,4.9525
573,7550902,1.227808,-0.185684,0.019398,1.5225,60.1475,3.78
574,7550998,1.363106,-0.26108000000000003,0.021594,-9.0825,51.2925,3.185
575,7551095,1.431548,-0.349042,0.02562,-19.25,33.3725,2.03
576,7551192,1.4088559999999999,-0.312808,-0.11102000000000001,-26.775,12.7225,0.105
577,7551289,1.322724,-0.299266,-0.339648,-26.1275,-2.3975,-3.115
578,7551385,1.282952,-0.461038,-0.047824,-19.6875,2.45,-7.8925
579,7551482,1.478274,-0.41785,-0.04514,-14.21,23.1,-12.95
580,7551579,1.370914,-0.30536599999999997,-0.18605,-18.2525,7.735,-17.7275
581,7551676,1.2190239999999999,-0.029401999999999998,-0.620492,-23.065,-16.24,-21.49
582,7551772,1.2136559999999998,0.09906401,-0.98149,-27.93,-19.9675,-28.2975
583,7551869,1.305644,-0.237168,-0.7670140000000001,-30.695,-13.7725,-47.215
584,7551966,1.321992,-0.462136,-0.370392,-29.3825,-0.9975,-65.345
585,7552063,1.2334200000000002,-0.20435,-0.369172,-31.3775,-18.4975,-71.3125
586,7552160,1.044442,0.058803999999999995,-0.6442821,-34.6675,-68.6175,-67.13
587,7552256,0.8921860999999999,0.11211800000000001,-0.67527,-33.6,-101.2725,-60.69
588,7552353,0.799466,0.136518,-0.5799880000000001,-27.125,-86.6075,-61.1275
589,7552450,0.8848659999999999,0.16128399999999998,-0.555588,-14.875,-55.1425,-65.66
590,7552547,1.11264,0.19154000000000002,-0.583282,-5.285,-41.3525,-68.075
591,7552643,1.292956,0.161528,-0.5785241,-3.22,-36.365,-65.415
592,7552740,1.40788,0.0671,-0.49702799999999997,-3.5875,-25.2525,-57.435
593,7552837,1.3943379999999999,0.029646,-0.428464,-7.35,-7.2625,-43.6625
594,7552934,1.309548,0.009150001,-0.374052,-10.29,-0.4375,-28.6825
595,7553030,1.1747379999999998,-0.007198,-0.35075,-10.5875,-7.4375,-17.0275
596,7553127,1.0230920000000001,-0.038674,-0.32757,-9.205,-20.475,-8.6275
597,7553224,0.8938940000000001,-0.064294,-0.281698,-9.1175,-33.74,-2.24
598,7553321,0.788486,-0.10553,-0.25742,-8.4175,-44.0825,3.15
599,7553417,0.680516,-0.14310599999999998,-0.22996999999999998,-7.91,-50.435,7.4025
600,7553514,0.576816,-0.161772,-0.214598,-7.805,-49.98,10.115
601,7553611,0.49288000000000004,-0.162992,-0.20483800000000002,-6.4225,-46.0425,10.605
602,7553708,0.44115200000000004,-0.13298,-0.196176,-4.375,-42.63,9.135
603,7553804,0.42151000000000005,-0.102846,-0.188978,-2.625,-38.3425,7.63
604,7553901,0.43029399999999995,-0.08296,-0.18251199999999998,-0.595,-32.6375,6.685
605,7553998,0.449692,-0.05941401,-0.180316,-0.4025,-29.12,6.9475
606,7554095,0.48653599999999997,-0.053924,-0.188612,-0.805,-27.3875,7.7525
607,7554191,0.536556,-0.057218,-0.191052,-1.2425,-26.11,8.785
608,7554288,0.5945060000000001,-0.040016,-0.192882,-4.8475,-22.61,9.1875
609,7554385,0.657092,-0.037332,-0.18775799999999998,-7.105,-17.185,9.7125
610,7554482,0.702232,-0.040382,-0.14152,-8.6975,-8.82,8.8725
611,7554578,0.7531061,-0.052703999999999994,-0.09942999999999999,-9.45,5.3025,6.8775
612,7554675,0.817034,-0.036233999999999995,-0.064782,-8.26,19.285,4.585
613,7554772,0.8518040000000001,-0.021228,-0.052948,-7.2275,28.7875,3.08
614,7554869,0.8520479999999999,-0.02684,-0.05185,-7.4375,33.8625,2.8525
615,7554965,0.8359440999999999,-0.05172801,-0.06575800000000001,-9.1525,34.2825,3.325
616,7555062,0.805566,-0.091988,-0.07039400000000001,-12.7575,30.03,3.7275
617,7555159,0.784216,-0.133956,-0.07637200000000001,-17.0625,24.3775,4.3575
618,7555256,0.769942,-0.160796,-0.09638,-21.28,19.565,4.5325
619,7555352,0.78141,-0.153842,-0.11163,-24.71,18.0775,4.3225
620,7555449,0.832894,-0.119316,-0.116998,-25.97,23.9575,3.5525
621,7555546,0.96319,-0.096868,-0.122366,-22.9425,36.5575,2.17
622,7555643,1.0979999999999999,-0.083814,-0.14078800000000002,-14.28,46.3925,2.7475
623,7555739,1.2383,-0.063928,-0.146034,-3.0275,45.2375,3.85
624,7555836,1.353712,-0.000976,-0.11895,6.615,38.99,5.635
625,7555933,1.470344,0.068686,-0.038551999999999996,13.545,33.8275,8.1375
626,7556030,1.570506,0.119926,0.073688,18.83,30.2575,10.15
627,7556126,1.562576,0.175314,0.150426,22.19,25.1475,10.8675
628,7556223,1.464976,0.13725,-0.15921,24.5875,12.4075,8.5225
629,7556320,1.292834,0.008418,-0.269864,30.3975,-7.2275,6.1775
630,7556417,1.23525,0.137006,-0.117974,15.1025,1.1025,8.085
631,7556513,1.201578,0.00183,-0.35075,20.4925,19.355,8.6625
632,7556610,1.112152,-0.108702,-0.5063,41.0025,4.7075,5.2675
633,7556707,0.990884,0.08479,-0.5313100000000001,37.7825,-0.7175,3.6225
634,7556804,1.01626,-0.028426,-0.936106,36.855,-6.475,1.995
635,7556901,1.0643280000000002,0.016592,-1.061888,44.17,-38.955,7.4725
636,7556997,1.031266,0.34721199999999997,-0.796294,35.9625,-36.225,20.685
637,7557094,0.998448,0.31158800000000003,-0.519964,48.965,-12.4775,25.06
638,7557191,0.9535521,-0.049044,-0.49861400000000006,66.0975,-2.765,28.91
639,7557288,0.9125601000000001,-0.375882,-0.48543800000000004,68.0925,-12.915,38.535
640,7557384,0.8790100000000001,-0.468236,-0.388814,45.3775,-17.3075,44.9575
641,7557481,0.969046,-0.5132541,-0.36539,16.31,-3.1325,49.1575
642,7557578,1.1709559999999999,-0.5906020000000001,-0.343796,2.6425,8.2775,52.29
643,7557675,1.242936,-0.5764501,-0.263764,-0.3675,7.3675,45.605
644,7557771,1.24623,-0.46457600000000004,-0.242292,-1.89,-6.895,30.275
645,7557868,1.215486,-0.36844,-0.279746,-2.87,-16.7475,15.2775
646,7557965,1.201578,-0.27718400000000004,-0.302682,-5.7925,-20.8075,3.71
647,7558062,1.130818,-0.16433399999999998,-0.31049,-8.995,-26.53,-2.45
648,7558158,1.037488,-0.058926,-0.30292600000000003,-11.2175,-31.2025,-4.795
649,7558255,0.9370821,0.022448,-0.284138,-12.3025,-31.29,-6.0025
650,7558352,0.8405800999999999,0.07637200000000001,-0.267302,-11.3575,-28.8925,-7.595
651,7558449,0.753228,0.105652,-0.24656199999999998,-8.2425,-26.67,-9.7825
652,7558545,0.6733180000000001,0.12065799999999999,-0.22582199999999997,-4.375,-25.0775,-11.1825
653,7558642,0.6039,0.102846,-0.21801399999999999,-0.7175,-23.7125,-11.3925
654,7558739,0.5574180999999999,0.083204,-0.20996199999999998,2.03,-23.59,-10.325
655,7558836,0.521306,0.06771001,-0.20008,2.905,-23.4675,-9.94
656,7558932,0.5191100000000001,0.046360000000000005,-0.190564,4.4975,-21.875,-10.3775
657,7559029,0.543632,0.033428,-0.168482,6.7725,-17.6575,-11.0775
658,7559126,0.568154,0.00122,-0.147376,8.47,-11.725,-12.0575
659,7559223,0.582916,-0.034282,-0.124928,10.7275,-6.65,-13.09
660,7559319,0.6075600999999999,-0.053191999999999996,-0.10309000000000001,12.145,-4.5675,-14.3675
661,7559416,0.640134,-0.061975999999999996,-0.09650201,12.565,-0.8925,-13.79
662,7559513,0.7047939999999999,-0.063684,-0.09589201,12.635,5.74,-11.4275
663,7559610,0.783972,-0.06880801,-0.11773,14.28,14.7525,-7.6475
664,7559706,0.83631,-0.050752,-0.134688,17.6575,21.5775,-3.71
665,7559803,0.853756,-0.025498,-0.127246,21.875,26.145,-0.3325
666,7559900,0.8489979999999999,0.001952,-0.116754,25.62,30.38,1.995
667,7559997,0.810934,0.030744,-0.08430201,29.225,33.88,3.7975
668,7560093,0.791658,0.045872,-0.055022,30.7475,35.84,5.0225
669,7560190,0.788608,0.047336,-0.028304000000000003,31.43,34.6675,6.2825
670,7560287,0.8613200000000001,-0.003172,-0.025131999999999998,31.2025,33.18,6.3175
671,7560384,0.9128040000000001,-0.102602,-0.009150001,31.57,33.18,5.285
672,7560480,0.9749021000000001,-0.169336,-0.00122,27.8775,31.2025,3.465
673,7560577,1.059326,-0.20410599999999998,0.041358,21.0175,27.0725,1.435
674,7560674,1.1873040000000001,-0.24095,0.069662,9.4325,23.8875,0.7175
675,7560771,1.281,-0.345382,0.066124,-3.78,18.69,-0.5775
676,7560867,1.3621299999999998,-0.380152,-0.01037,-15.54,9.24,-2.45
677,7560964,1.371646,-0.334036,-0.31012399999999996,-20.2825,-0.1225,-4.0775
678,7561061,1.3377299999999999,-0.374296,-0.254492,-20.1075,-8.05,-7.595
679,7561158,1.485472,-0.46811400000000003,-0.026474,-19.9325,13.0725,-13.5625
680,7561254,1.524512,-0.361852,-0.167384,-24.99,22.715,-20.93
681,7561351,1.418982,-0.251442,-0.508862,-32.7075,-10.395,-27.3525
682,7561448,1.273558,-0.187148,-0.7539600000000001,-36.5925,-31.885,-30.52
683,7561545,1.2404959999999998,-0.17360599999999998,-0.606584,-35.63,-27.545,-40.425
684,7561642,1.265384,-0.334768,-0.428098,-40.3375,-26.145,-56.735
685,7561738,1.060546,-0.24558600000000003,-0.353434,-44.8,-40.5125,-63.0
686,7561835,0.9023121,0.016592,-0.6686821,-50.8375,-70.7525,-63.3325
687,7561932,0.8247200000000001,0.0549,-0.7093081,-52.08,-98.2625,-61.6175
688,7562029,0.7722600000000001,0.026351999999999997,-0.585112,-45.745,-81.935,-66.08
689,7562125,0.834968,0.048922,-0.600362,-31.2025,-48.6675,-72.1875
690,7562222,1.0432219999999999,0.130174,-0.629764,-17.5875,-37.1525,-76.58
691,7562319,1.248304,0.1769,-0.6252501,-12.9675,-36.6625,-74.8825
692,7562416,1.413248,0.144814,-0.559736,-9.8175,-22.365,-67.165
693,7562512,1.4630239999999999,0.105652,-0.45713400000000004,-11.4275,2.5725,-52.2375
694,7562609,1.410564,0.07978801,-0.370026,-17.0625,14.315,-33.8625
695,7562706,1.264408,0.055388,-0.321592,-18.9175,6.9825,-18.165
696,7562803,1.1425299999999998,0.038551999999999996,-0.30487800000000004,-19.04,-12.7225,-7.0
697,7562899,1.0049139999999999,-0.002074,-0.29707,-19.1275,-32.935,0.7
698,7562996,0.8921860999999999,-0.049044,-0.26779000000000003,-18.27,-46.0425,6.055
699,7563093,0.8030041,-0.10687200000000001,-0.24034,-16.66,-47.5125,9.275
700,7563190,0.7217521,-0.142252,-0.205326,-15.085,-43.785,10.6575
701,7563287,0.6389140999999999,-0.149084,-0.18324400000000002,-14.0,-38.99,10.36
702,7563383,0.57706,-0.130296,-0.17641199999999999,-13.4925,-36.47,9.2925
703,7563480,0.55632,-0.10492,-0.177144,-13.02,-35.91,8.4
704,7563577,0.5455840000000001,-0.09540401,-0.17812,-12.0225,-35.5075,8.96
705,7563674,0.55083,-0.08296,-0.18361,-11.27,-37.24,10.71
706,7563770,0.571448,-0.06600201,-0.18422,-10.7625,-40.1625,13.5275
707,7563867,0.5843801,-0.06771001,-0.180804,-10.7275,-40.81,16.4675
708,7563964,0.6076819999999999,-0.072102,-0.17921800000000002,-11.48,-37.135,19.39
709,7564061,0.6314721,-0.06270801,-0.179706,-11.69,-29.7675,20.79
710,7564157,0.6537980999999999,-0.069052,-0.17629,-11.1475,-21.84,20.93
711,7564254,0.677588,-0.07698201,-0.165432,-9.38,-12.285,18.8825
712,7564351,0.7169939999999999,-0.082472,-0.135542,-9.3275,-2.94,15.6625
713,7564448,0.7531061,-0.07234600000000001,-0.117974,-10.535,6.3,12.8625
714,7564544,0.754448,-0.06880801,-0.07222401,-11.69,12.53,10.4475
715,7564641,0.7427361,-0.070882,-0.036356,-13.7725,16.485,8.715
716,7564738,0.726266,-0.07417601,-0.02135,-16.8525,18.0075,7.42
717,7564835,0.7211420999999999,-0.08857201,-0.0008540001,-21.35,16.975,7.07
718,7564931,0.72956,-0.08845001,0.001464,-26.775,17.6225,7.77
719,7565028,0.7523741,-0.09650201,-0.029646,-30.66,19.04,8.8025
720,7565125,0.779946,-0.088328,-0.08417999999999999,-31.5875,20.4225,9.7475
721,7565222,0.821426,-0.06112201,-0.11358199999999999,-30.3975,25.585,10.4475
722,7565319,0.9451341000000001,-0.027694,-0.13298,-25.9,39.725,10.045
723,7565415,1.089582,-0.01403,-0.138714,-16.4325,56.4375,8.68
724,7565512,1.2458639999999999,-0.024522,-0.125416,-5.3725,65.065,6.825
725,7565609,1.361276,-0.009272001,-0.077592,4.7425,62.545,4.2
726,7565706,1.482056,0.020130000000000002,-0.006222,9.1,49.9975,2.6425
727,7565802,1.504138,0.040382,-0.060634,10.71,33.74,0.8225
728,7565899,1.426302,-0.05624199999999999,-0.412116,15.6975,10.9375,0.1575
729,7565996,1.336632,0.074664,-0.312442,17.78,-5.215,3.08
730,7566093,1.387018,0.151524,-0.48739,13.125,14.9275,7.7
731,7566189,1.44387,0.019886,-0.7589621,35.9975,24.85,10.0625
732,7566286,1.38958,0.100284,-0.637694,47.0925,18.48,14.5075
733,7566383,1.3857979999999999,0.25376,-0.547292,44.695,28.1225,18.62
734,7566480,1.246718,0.13078399999999998,-0.5753520000000001,52.5875,6.16,15.3475
735,7566576,1.032486,0.07222401,-0.636108,49.9975,-33.775,11.0775
736,7566673,0.88328,0.10638399999999999,-0.501908,32.9,-45.8325,11.585
737,7566770,0.7779941,0.012565999999999999,-0.397598,20.405,-37.975,11.4625
738,7566867,0.8192299999999999,-0.29341,-0.6545300000000001,18.3925,-32.2,14.1575
739,7566964,0.9703879999999999,-0.443958,-0.683566,16.6425,-41.265,27.8775
740,7567060,1.040538,-0.370148,-0.571448,2.205,-33.46,44.5725
741,7567157,1.166442,-0.35538600000000004,-0.5077640999999999,-3.3775,-10.115,56.49
742,7567254,1.3205280000000001,-0.402844,-0.431392,4.6725,9.135,62.51
743,7567351,1.327116,-0.440176,-0.317688,13.6675,11.34,54.425
744,7567447,1.2458639999999999,-0.36648800000000004,-0.27510999999999997,11.7775,-1.68,36.9775
745,7567544,1.15107,-0.277794,-0.32086,7.9625,-17.99,20.055
746,7567641,1.0584719999999999,-0.197152,-0.37258800000000003,6.8075,-29.4875,7.875
747,7567738,0.9646541,-0.10345599999999999,-0.364292,7.5425,-36.7325,0.4025
748,7567834,0.8827921000000001,-0.016225999999999997,-0.31659,7.4725,-38.43,-5.075
749,7567931,0.81679,0.047824,-0.276208,4.655,-35.1575,-9.94
750,7568028,0.7523741,0.09735601,-0.254004,1.6975,-32.585,-13.7375
751,7568125,0.6634359999999999,0.12175599999999999,-0.23228800000000002,0.07,-33.4075,-16.555
752,7568221,0.579012,0.13383399999999998,-0.23009200000000002,-0.0525,-36.715,-18.1825
753,7568318,0.5124001,0.126148,-0.23240999999999998,1.7675,-41.23,-18.7425
754,7568415,0.49422200000000005,0.10931199999999999,-0.24656199999999998,4.55,-43.6275,-18.935
755,7568512,0.49885799999999997,0.09516001,-0.24717199999999998,7.8575,-41.825,-19.6
756,7568608,0.5248441,0.07856801,-0.23424,10.885,-36.6975,-20.3875
757,7568705,0.5604680000000001,0.054412,-0.21618400000000002,14.665,-30.17,-20.3175
758,7568802,0.5949939999999999,0.010614,-0.182024,17.885,-22.82,-20.44
759,7568899,0.61549,-0.031842,-0.144082,20.685,-15.26,-20.4225
760,7568995,0.6430621,-0.05429,-0.122732,21.5775,-7.56,-20.3
761,7569092,0.6832,-0.06588,-0.105652,21.2275,-0.665,-19.285
762,7569189,0.715164,-0.07600599999999999,-0.10065,20.265,7.1225,-17.3775
763,7569286,0.7494460000000001,-0.08174001,-0.091744,19.7225,14.0175,-14.1925
764,7569382,0.775676,-0.07832401,-0.09882,20.86,20.265,-10.15
765,7569479,0.78446,-0.069784,-0.080398,24.36,26.215,-6.2125
766,7569576,0.780068,-0.04514,-0.052338,28.9275,31.7625,-2.94
767,7569673,0.768966,-0.005612,-0.038796,33.0225,35.4725,0.035
768,7569769,0.748714,-0.014518000000000001,-0.03172,36.295,37.1,2.625
769,7569866,0.7638421,-0.004758,-0.054167999999999994,35.4725,39.06,4.585
770,7569963,0.8058101,-0.065026,-0.046482,31.9725,44.1,6.475
771,7570060,0.8574161,-0.128344,-0.06112201,26.845,50.2425,8.4
772,7570157,0.9648979999999999,-0.15054800000000002,-0.026351999999999997,18.6025,51.0475,8.6975
773,7570253,1.091534,-0.194224,0.0122,8.05,49.0175,8.575
774,7570350,1.2627,-0.29292199999999996,0.012565999999999999,-3.6575,41.86,7.1225
775,7570447,1.387384,-0.42883009999999994,0.018178,-14.8225,29.085,4.9175
776,7570544,1.438258,-0.44286000000000003,-0.034404000000000004,-22.1375,15.2775,2.6075
777,7570640,1.3771360000000001,-0.31354,-0.341966,-21.42,4.6375,0.665
778,7570737,1.328214,-0.36197399999999996,-0.151402,-17.15,2.6775,-2.73
779,7570834,1.500234,-0.320982,0.013786000000000001,-13.545,24.9025,-7.9625
780,7570931,1.445578,-0.208986,-0.119072,-16.52,20.9475,-13.125
781,7571027,1.300764,-0.078202,-0.6512359999999999,-17.5525,-9.8175,-15.295
782,7571124,1.208288,0.029889999999999996,-0.9211,-22.855,-22.89,-16.4325
783,7571221,1.348832,-0.32025,-0.669902,-27.3875,-11.655,-30.1
784,7571318,1.433378,-0.561688,-0.26535,-34.9475,1.9425,-50.7675
785,7571414,1.24745,-0.318054,-0.366,-47.6,-23.5025,-63.1575
786,7571511,0.9505020000000001,-0.12041400000000001,-0.5363121,-57.0675,-89.3025,-65.66
787,7571608,0.67832,0.001342,-0.650016,-58.205,-121.485,-61.845
788,7571705,0.574254,0.162626,-0.6645340000000001,-52.9725,-102.83,-59.0275
789,7571802,0.662948,0.204594,-0.608536,-32.8825,-56.175,-62.86
790,7571898,0.9799041,0.26766799999999996,-0.653432,-12.3725,-20.23,-70.4375
791,7571995,1.314794,0.242536,-0.61183,-3.43,-5.565,-71.3125
792,7572092,1.47986,0.139202,-0.5100819999999999,-1.6625,8.3825,-62.09
793,7572189,1.512556,0.079544,-0.437126,-7.7,18.865,-45.36
794,7572285,1.4238620000000002,0.048068,-0.37881,-13.7725,17.1325,-25.025
795,7572382,1.2841719999999999,0.020496,-0.336598,-15.4175,6.405,-9.2925
796,7572479,1.1448479999999999,-0.020984,-0.343186,-14.28,-7.56,0.035
797,7572576,1.00345,-0.047214,-0.326594,-14.595,-25.1125,5.7925
798,7572672,0.879986,-0.078446,-0.313296,-14.385,-35.0175,9.555
799,7572769,0.7821421,-0.116388,-0.281088,-12.8975,-34.895,12.4075
800,7572866,0.6958880000000001,-0.14762,-0.25193000000000004,-11.585,-29.33,13.5975
801,7572963,0.6191501,-0.152988,-0.22448,-9.9225,-24.7625,12.985
802,7573059,0.576206,-0.12529400000000002,-0.21301199999999998,-7.9625,-23.4325,11.48
803,7573156,0.5532701,-0.08723001,-0.20496,-6.7375,-24.2375,10.08
804,7573253,0.542656,-0.074786,-0.19556600000000002,-6.65,-25.83,9.6775
805,7573350,0.549244,-0.07893401,-0.202032,-6.5625,-27.335,10.8325
806,7573446,0.564006,-0.091744,-0.219234,-7.5775,-30.24,12.985
807,7573543,0.57889,-0.08954801,-0.22021,-8.505,-33.705,14.91
808,7573640,0.580476,-0.09442801,-0.216428,-11.5675,-33.0925,17.0275
809,7573737,0.5871860999999999,-0.086132,-0.213378,-14.455,-28.525,17.99
810,7573833,0.6070720000000001,-0.094062,-0.199226,-16.5025,-21.35,17.3425
811,7573930,0.634522,-0.100284,-0.17324,-18.1125,-11.025,15.1375
812,7574027,0.677832,-0.10504200000000001,-0.16201600000000002,-20.09,0.4025,12.2325
813,7574124,0.73078,-0.087962,-0.14798599999999998,-22.05,10.185,9.2925
814,7574220,0.7483479999999999,-0.094062,-0.12993,-25.1825,17.64,7.1575
815,7574317,0.741272,-0.101382,-0.111142,-28.0875,22.61,6.16
816,7574414,0.7088201,-0.119072,-0.077958,-31.4125,27.125,6.79
817,7574511,0.68808,-0.135176,-0.033672,-34.72,32.7775,8.6275
818,7574608,0.693326,-0.161406,-0.008296000999999999,-36.085,37.3975,10.6925
819,7574704,0.7168720000000001,-0.161162,-0.025986000000000002,-35.0175,36.7675,12.495
820,7574801,0.753594,-0.124074,-0.025131999999999998,-34.09,33.425,13.65
821,7574898,0.837408,-0.056608000000000006,-0.040382,-33.74,37.2575,13.86
822,7574995,0.99125,-0.008906,-0.06892999999999999,-28.525,49.105,12.0575
823,7575091,1.170468,0.0305,-0.091988,-16.8875,58.03,9.9575
824,7575188,1.345416,0.07076001,-0.06746601,-1.155,57.085,7.63
825,7575285,1.487668,0.15067,-0.002318,11.1125,51.1,6.265
826,7575382,1.563552,0.186538,0.10345599999999999,15.7675,41.7025,5.5825
827,7575478,1.58051,0.162138,0.186416,14.63,26.7225,5.5125
828,7575575,1.478274,0.104676,0.01098,11.9525,11.8825,4.2175
829,7575672,1.3235780000000001,-0.07234600000000001,-0.28792,15.4,-4.8475,2.1525
830,7575769,1.261724,0.056608000000000006,-0.12212200000000001,9.1525,-5.46,2.94
831,7575865,1.300642,0.020984,-0.264374,12.145,17.1325,3.85
832,7575962,1.230492,0.04392,-0.374418,24.2025,15.8375,0.6125
833,7576059,1.120326,-0.07686,-0.7208981,30.6075,5.8625,-0.3675
834,7576156,1.179008,-0.077836,-1.05835,38.885,-5.4075,3.15
835,7576252,1.23525,0.327814,-0.8855980999999999,33.6175,-15.995,17.5175
836,7576349,1.307596,0.517524,-0.6505041,38.15,3.57,27.335
837,7576446,1.216218,0.16909200000000002,-0.5605899999999999,63.9275,12.0575,27.0375
838,7576543,1.030168,-0.30317,-0.616344,69.58,-11.27,34.86
839,7576639,0.8504620999999999,-0.414312,-0.452376,49.8925,-33.8625,42.9275
840,7576736,0.784704,-0.41455600000000004,-0.369904,21.315,-27.0375,41.72
841,7576833,0.9203680000000001,-0.57218,-0.41284799999999994,6.195,-13.125,46.3225
842,7576930,1.13277,-0.6381821,-0.417972,-2.4325,-12.4425,53.4275
843,7577027,1.2021879999999998,-0.556808,-0.34038,-10.2725,-19.0575,52.255
844,7577123,1.1947459999999999,-0.41675200000000007,-0.30195,-16.6425,-23.87,40.5475
845,7577220,1.186328,-0.316346,-0.31476,-16.2225,-19.425,23.8
846,7577317,1.171932,-0.25498000000000004,-0.308904,-11.97,-12.9675,9.1875
847,7577414,1.129842,-0.148596,-0.299388,-9.345,-15.68,0.0875
848,7577510,1.03639,-0.029036000000000003,-0.29219,-8.4525,-25.27,-5.6
849,7577607,0.94245,0.050386,-0.292312,-7.91,-31.5,-10.115
850,7577704,0.8576601,0.09516001,-0.280478,-6.545,-30.9925,-13.8075
851,7577801,0.777262,0.120048,-0.253882,-5.3725,-27.7025,-16.5025
852,7577898,0.7046720999999999,0.137128,-0.23851,-4.795,-24.9025,-17.78
853,7577994,0.64294,0.12444000000000001,-0.231434,-3.9025,-23.415,-17.5175
854,7578091,0.584746,0.094672,-0.22582199999999997,-2.8,-23.415,-16.03
855,7578188,0.546682,0.060024,-0.219844,-1.925,-23.3625,-14.7875
856,7578285,0.518988,0.042456,-0.219844,-1.2425,-21.9625,-15.1025
857,7578381,0.517402,0.030987999999999998,-0.208986,-0.455,-20.79,-16.5375
858,7578478,0.546438,0.017446,-0.196542,1.4875,-20.125,-18.4975
859,7578575,0.594262,-0.006954000000000001,-0.174948,4.3575,-17.92,-19.9325
860,7578672,0.647454,-0.022326,-0.141276,7.2275,-12.9675,-20.4925
861,7578768,0.6954,-0.028792,-0.11163,9.9575,-5.215,-19.845
862,7578865,0.736758,-0.023180000000000003,-0.10614000000000001,12.04,4.305,-17.29
863,7578962,0.777872,-0.029401999999999998,-0.09991799999999999,13.8775,11.76,-13.2125
864,7579059,0.81252,-0.025131999999999998,-0.085522,15.8725,16.905,-8.33
865,7579155,0.83204,-0.033306,-0.087962,19.25,21.56,-3.4125
866,7579252,0.825574,-0.041968,-0.0854,23.695,24.1325,0.875
867,7579349,0.800564,-0.0549,-0.07027201,27.895,25.4625,4.025
868,7579446,0.7789699999999999,-0.05587601,-0.07637200000000001,30.7475,27.265,5.845
869,7579542,0.778604,-0.020862000000000002,-0.07283401,31.7975,30.0475,6.79
870,7579639,0.781532,-0.017446,-0.061854,31.6575,34.5625,7.1225
871,7579736,0.7928781,-0.01952,-0.055510000000000004,31.2725,35.385,7.2275
872,7579833,0.82411,-0.053314,-0.050386,29.995,32.6725,6.86
873,7579929,0.8934059999999999,-0.11614400000000001,-0.051972000000000004,29.8375,32.2175,6.37
874,7580026,0.9757561,-0.160064,-0.028792,28.0175,31.7625,5.8275
875,7580123,1.0754299999999999,-0.18788,0.024766,22.4,28.6125,5.705
876,7580219,1.186084,-0.22996999999999998,0.04453,12.3375,24.0275,5.0575
877,7580316,1.30113,-0.310734,0.07808001,-0.4025,15.1025,4.2875
878,7580413,1.350906,-0.385276,0.11943800000000002,-12.2675,6.44,2.73
879,7580510,1.340292,-0.361852,0.081984,-19.67,0.7875,1.33
880,7580606,1.300886,-0.262178,-0.18873399999999999,-20.8075,-2.38,-0.175
881,7580703,1.2695319999999999,-0.32513000000000003,-0.043188,-16.8175,0.245,-2.4675
882,7580800,1.440698,-0.33171799999999996,0.09320801,-8.9075,18.305,-5.425
883,7580897,1.3882379999999999,-0.20996199999999998,-0.07612801,-8.75,13.895,-9.6775
884,7580993,1.289296,-0.05624199999999999,-0.57523,-12.4775,-12.7925,-13.1075
885,7581090,1.23708,-0.033428,-0.7539600000000001,-16.6775,-19.6525,-15.4875
886,7581187,1.30174,-0.266326,-0.571326,-18.97,-6.44,-28.56
887,7581284,1.408368,-0.42114399999999996,-0.57218,-29.0675,-4.025,-47.495
888,7581380,1.311744,-0.33916,-0.434076,-45.8325,-31.885,-60.27
889,7581477,1.047248,-0.20105599999999998,-0.344406,-53.6725,-59.815,-67.515
890,7581574,0.8016621,-0.01098,-0.507642,-49.1925,-81.06,-63.0
891,7581671,0.7165060000000001,0.171044,-0.592188,-38.7625,-90.35251,-55.3525
892,7581767,0.7500560000000001,0.179706,-0.559004,-22.3825,-69.2825,-56.28
893,7581864,0.8935280999999999,0.173728,-0.5723020999999999,-3.99,-39.6725,-61.1625
894,7581961,1.1232540000000002,0.147376,-0.5073979999999999,4.025,-24.4475,-67.06
895,7582058,1.321504,0.06405001,-0.468846,2.9575,-8.33,-64.4525
896,7582154,1.40788,0.011101999999999999,-0.422608,-4.8475,9.135,-53.13
897,7582251,1.370426,-0.005612,-0.340136,-12.81,15.7325,-37.0825
898,7582348,1.2755100000000001,-0.01464,-0.283406,-16.7475,11.7775,-21.84
899,7582445,1.179008,-0.039772,-0.269986,-19.005,-0.8400001,-11.0425
900,7582541,1.046394,-0.050508,-0.266692,-22.1025,-20.1075,-3.57
901,7582638,0.9181720999999999,-0.08235001,-0.273768,-25.83,-36.4,2.6075
902,7582735,0.8127641,-0.132858,-0.27071799999999996,-27.825,-41.3525,8.085
903,7582832,0.738222,-0.178608,-0.25046599999999997,-27.965,-36.96,12.04
904,7582928,0.681858,-0.1952,-0.219112,-26.9325,-30.0475,13.475
905,7583025,0.636108,-0.19397999999999999,-0.19483399999999998,-25.2525,-24.64,13.5275
906,7583122,0.606462,-0.18056,-0.184342,-23.905,-21.35,12.39
907,7583219,0.5810860999999999,-0.16043,-0.17543599999999998,-24.0625,-19.915,11.235
908,7583315,0.578036,-0.14823,-0.167994,-24.815,-20.37,10.71
909,7583412,0.575962,-0.125538,-0.163968,-26.0575,-21.07,11.2875
910,7583509,0.5934081,-0.120048,-0.16201600000000002,-26.985,-23.485,12.215
911,7583606,0.620736,-0.122,-0.15494000000000002,-27.7725,-26.8275,13.8075
912,7583702,0.6600201,-0.099552,-0.16592,-29.085,-25.0075,14.8925
913,7583799,0.6864941,-0.07869,-0.17519200000000001,-30.6425,-18.13,16.205
914,7583896,0.717238,-0.05124001,-0.170922,-31.955,-9.835,16.065
915,7583993,0.755912,-0.036478,-0.17446,-32.7775,-0.805,14.63
916,7584089,0.792024,-0.023790000000000002,-0.145912,-32.1125,6.7025,12.4425
917,7584186,0.823744,-0.004636001,-0.119682,-30.9225,13.895,10.0625
918,7584283,0.831674,0.010858,-0.089304,-29.5925,18.48,8.8725
919,7584380,0.8215481,0.027816000000000004,-0.05648601,-30.205,20.195,8.6275
920,7584477,0.8086161000000001,0.025131999999999998,-0.034892,-31.0975,21.525,9.7125
921,7584573,0.8003201,0.0183,-0.01281,-31.08,22.68,11.025
922,7584670,0.790194,-0.005612,0.00244,-30.0475,23.205,11.725
923,7584767,0.792146,-0.03355,-0.00793,-27.3875,21.5425,11.55
924,7584864,0.806542,-0.041846,-0.013908000000000002,-23.8,19.005,10.4125
925,7584960,0.8365541,-0.024522,-0.022692,-19.635,19.11,7.7
926,7585057,0.9024341,0.001098,-0.02684,-14.5775,22.4525,4.2525
927,7585154,1.004426,-0.006832001,-0.049776,-7.6825,27.8425,0.665
928,7585251,1.131428,-0.020496,-0.07137001,0.4725,30.205,-2.17
929,7585347,1.2634319999999999,-0.033062,-0.078202,5.95,27.44,-3.5
930,7585444,1.346148,-0.031232,-0.028426,6.65,23.38,-3.9025
931,7585541,1.405562,-0.013297999999999999,0.036356,1.7325,18.8825,-3.955
932,7585638,1.453508,-0.03294,0.05843801,-2.3275,12.1975,-3.605
933,7585734,1.387994,-0.13456600000000002,-0.23485,-1.575,1.0325,-3.3775
934,7585831,1.24013,-0.15579400000000002,-0.227042,1.435,-13.37,-2.03
935,7585928,1.225856,0.047092,-0.082472,-8.68,2.87,3.08
936,7586025,1.327116,0.028304000000000003,-0.24046199999999998,-0.5775,30.03,5.2675
937,7586121,1.226222,-0.005612,-0.35099400000000003,16.065,15.925,1.96
938,7586218,1.107638,-0.002196,-0.343186,17.6575,0.2975,1.1725
939,7586315,1.051884,-0.066734,-0.58682,11.7425,0.3675,0.7875
940,7586412,1.030656,-0.145302,-0.829966,22.785,-15.96,3.4125
941,7586508,0.9828321,0.05624199999999999,-0.757864,19.6,-22.8025,14.4375
942,7586605,1.003572,0.24912399999999998,-0.61305,18.34,-5.6,25.6725
943,7586702,1.044198,0.064538,-0.531676,33.39,5.285,29.33
944,7586799,1.044442,-0.13151600000000002,-0.46543,36.6975,-1.1725,36.6275
945,7586895,0.9764879999999999,-0.24863600000000002,-0.354044,26.7575,-13.37,44.975
946,7586992,0.9219540999999999,-0.330864,-0.284504,8.68,-22.8025,48.65
947,7587089,0.9539181000000001,-0.384056,-0.32269000000000003,-10.605,-24.8675,51.6425
948,7587186,1.059448,-0.433954,-0.37685799999999997,-19.985,-25.515,52.5175
949,7587283,1.111054,-0.419192,-0.340014,-22.5225,-18.55,47.67
950,7587379,1.121424,-0.333426,-0.28731,-19.6175,-8.295,34.72
951,7587476,1.1211799999999998,-0.282186,-0.27633,-11.4275,-2.5725,18.1475
952,7587573,1.1209360000000002,-0.225212,-0.283406,-4.83,-2.0825,3.64
953,7587670,1.09495,-0.128466,-0.280966,-2.8175,-9.4325,-5.6875
954,7587766,1.050176,-0.02562,-0.29097,-2.9925,-17.745,-10.0275
955,7587863,0.99125,0.06344,-0.296094,-4.1825,-20.44,-11.9175
956,7587960,0.9330560999999999,0.111142,-0.28462600000000005,-3.5875,-18.76,-13.09
957,7588057,0.880718,0.13115,-0.264862,-1.1725,-16.2925,-14.0525
958,7588153,0.83265,0.12712400000000001,-0.260592,2.135,-14.6825,-14.5075
959,7588250,0.7937320999999999,0.11016600000000001,-0.257176,5.18,-14.5425,-14.1225
960,7588347,0.764208,0.08906,-0.25058800000000003,7.77,-15.2425,-12.355
961,7588444,0.7476161,0.06356201,-0.23448400000000003,9.975,-14.84,-10.5525
962,7588541,0.74603,0.037698,-0.22362600000000002,11.97,-12.8975,-9.3275
963,7588637,0.7515201,-0.012322,-0.20190999999999998,14.8925,-10.6925,-9.24
964,7588734,0.763598,-0.061488,-0.165676,17.5525,-9.695,-10.7275
965,7588831,0.785802,-0.090158,-0.13639600000000002,19.5475,-9.3625,-12.74
966,7588928,0.8025161,-0.111874,-0.11614400000000001,21.1225,-9.8875,-14.91
967,7589024,0.813862,-0.12029200000000001,-0.11053199999999999,22.2075,-11.4975,-16.2575
968,7589121,0.8310639999999999,-0.10809200000000001,-0.09247601,21.6125,-12.565,-16.3275
969,7589218,0.8453381,-0.101138,-0.09284201,21.4025,-9.8,-14.9275
970,7589315,0.8461921,-0.098332,-0.083936,23.52,-7.105,-12.9675
971,7589411,0.8314301,-0.085522,-0.077592,27.0025,-5.355,-10.9375
972,7589508,0.794342,-0.048068,-0.074786,30.4675,-3.15,-9.59
973,7589605,0.754204,-0.002684,-0.06563601,33.18,-0.2975,-8.9775
974,7589702,0.716384,0.04087,-0.065026,35.875,3.1325,-8.47
975,7589798,0.677466,0.04514,-0.062952,37.4325,5.3725,-7.8225
976,7589895,0.6734399999999999,0.03538,-0.06929600000000001,38.5175,7.56,-7.2625
977,7589992,0.684542,0.020130000000000002,-0.08466801,38.185,12.39,-7.21
978,7590089,0.7387100000000001,0.012688,-0.13176,35.4025,17.605,-8.3125
979,7590185,0.7983680000000001,-0.01281,-0.101016,30.94,23.7475,-10.045
980,7590282,0.850096,-0.049654000000000004,-0.025376,27.37,32.6375,-12.005
981,7590379,0.9484280999999999,-0.12627,0.023424,25.9175,38.6925,-13.475
982,7590476,1.075796,-0.21667199999999998,0.029524,20.9125,34.615,-14.175
983,7590572,1.15229,-0.277672,0.014152000000000001,15.645,23.065,-13.7725
984,7590669,1.194258,-0.27571999999999997,-0.12980799999999998,15.6275,12.46,-12.6875
985,7590766,1.185352,-0.30439,-0.216306,21.8225,7.385,-13.3525
986,7590863,1.211582,-0.375394,0.007198,32.375,21.0,-15.9775
987,7590959,1.346392,-0.300608,-0.008906,37.94,38.8325,-19.145
988,7591056,1.358226,-0.144448,-0.12980799999999998,33.74,24.8325,-22.2425
989,7591153,1.2013340000000001,-0.016104,-0.5309441,33.565,4.5675,-26.04
990,7591250,1.218048,-0.08601,-0.719434,33.1625,-2.345,-32.2
991,7591346,1.316502,-0.438712,-0.516426,35.21,14.9975,-43.68
992,7591443,1.482422,-0.342454,-0.570716,27.7725,21.0525,-53.3225
993,7591540,1.5342719999999999,-0.24949000000000002,-0.342088,11.515,-2.8,-64.3125
994,7591637,1.318698,-0.19154000000000002,-0.312076,9.975,-21.665,-77.105
995,7591733,1.062376,0.019642,-0.5893821,11.1475,-70.8575,-77.5075
996,7591830,0.8852321,0.10833599999999999,-0.655018,21.84,-111.51,-72.3975
997,7591927,0.818986,0.12212200000000001,-0.639524,38.6925,-99.6975,-73.02750999999999
998,7592024,0.86193,0.12395199999999999,-0.621834,54.67,-68.95,-76.1075
999,7592121,1.063718,0.08052000000000001,-0.575962,67.5325,-40.95,-79.1875
1000,7592217,1.320162,-0.004148001,-0.5577840000000001,68.1625,-14.7175,-74.9875
1001,7592314,1.449238,-0.043066,-0.473116,62.1775,4.795,-61.67
1002,7592411,1.443382,-0.074054,-0.333548,57.4175,12.005,-44.415
1003,7592508,1.3642040000000002,-0.096624,-0.251442,56.4025,11.0775,-28.42
1004,7592604,1.254648,-0.083814,-0.262544,51.975,-2.5725,-15.96
1005,7592701,1.108614,-0.08052000000000001,-0.283528,46.4975,-27.475,-6.545
1006,7592798,0.9590420000000001,-0.108702,-0.302194,42.3325,-48.2475,-0.7875
1007,7592895,0.8532681000000001,-0.160308,-0.30866,42.77,-55.9475,1.47
1008,7592991,0.777018,-0.20410599999999998,-0.277306,44.7825,-54.1975,0.1575
1009,7593088,0.709064,-0.23240999999999998,-0.259128,46.4975,-47.145,-3.5175
1010,7593185,0.680638,-0.225456,-0.261202,48.615,-40.8975,-8.5225
1011,7593282,0.686372,-0.19861600000000001,-0.27571999999999997,49.8925,-38.71,-13.615
1012,7593378,0.696132,-0.165798,-0.26535,49.315,-38.92,-17.85
1013,7593475,0.692106,-0.14871800000000002,-0.252296,47.565,-39.725,-20.9475
1014,7593572,0.70333,-0.13602999999999998,-0.229116,45.29,-42.945,-23.065
1015,7593669,0.724924,-0.12627,-0.20178800000000002,43.89,-45.9375,-23.94
1016,7593765,0.734318,-0.130052,-0.18470799999999998,42.7875,-44.8875,-23.555
1017,7593862,0.7496901,-0.136518,-0.183122,42.105,-40.8275,-22.5225
1018,7593959,0.750788,-0.12651400000000002,-0.18788,40.8625,-34.0725,-21.525
1019,7594056,0.76189,-0.115168,-0.1952,40.53,-25.4625,-21.2275
1020,7594152,0.774334,-0.124806,-0.20008,40.4775,-17.2725,-22.365
1021,7594249,0.7865340000000001,-0.137128,-0.20508200000000001,39.795,-13.1775,-23.905
1022,7594346,0.789462,-0.135298,-0.171654,38.535,-12.9675,-25.06
1023,7594443,0.7836061,-0.14152,-0.14457,37.1525,-11.725,-26.0225
1024,7594539,0.765428,-0.14396,-0.111996,35.7875,-11.655,-26.88
1025,7594636,0.7421260000000001,-0.133712,-0.078202,33.6175,-12.6525,-27.2475
1026,7594733,0.7256560000000001,-0.11541199999999999,-0.062341999999999995,30.9225,-12.2675,-27.09
1027,7594830,0.7217521,-0.09320801,-0.052582000000000004,28.875,-8.3125,-26.8625
1028,7594926,0.731268,-0.07747001,-0.059048,27.6325,-0.8575,-27.02
1029,7595023,0.749568,-0.07747001,-0.08442401,27.825,7.07,-27.685
1030,7595120,0.7869,-0.090036,-0.118828,29.5925,12.5475,-28.8575
1031,7595217,0.8283799999999999,-0.09479401,-0.14871800000000002,32.445,15.8375,-30.66
1032,7595313,0.8786440999999999,-0.08527801,-0.170312,35.91,18.9,-33.005
1033,7595410,0.9492821,-0.067344,-0.192272,38.64,23.3275,-35.56
1034,7595507,1.027118,-0.02135,-0.195078,39.9875,28.735,-37.7125
1035,7595604,1.091656,0.036112,-0.14762,40.39,31.8325,-39.62
1036,7595700,1.128256,0.077592,-0.076494,39.9,29.435,-41.265
1037,7595797,1.148752,0.077592,-0.07356601,39.7075,20.5625,-43.96
1038,7595894,1.136308,-0.024766,-0.24095,41.685,6.1075,-46.3225
1039,7595991,1.059936,-0.120048,-0.291092,46.76,-4.5325,-45.2375
1040,7596088,1.065426,-0.169946,-0.279014,54.5125,7.4375,-40.355
1041,7596184,1.105564,-0.22777399999999998,-0.5188659999999999,66.29,28.665,-36.295
1042,7596281,1.179374,-0.360144,-0.9602620999999999,82.5475,29.7325,-31.57
1043,7596378,1.19865,-0.251808,-0.8067861,90.72001,21.8575,-21.245
1044,7596474,1.3468799999999999,0.08003201,-0.6836880999999999,89.3725,42.0525,-8.33
1045,7596571,1.450824,0.268644,-0.52155,93.87,41.86,0.49
1046,7596668,1.308816,0.19702999999999998,-0.3599,102.375,-14.35,-0.175
1047,7596765,1.0431,0.08369201,-0.46628400000000003,98.2625,-63.3325,2.415
1048,7596861,0.8228901,-0.021228,-0.49824799999999997,82.25,-85.47,9.87
1049,7596958,0.7515201,-0.140544,-0.540948,65.1,-76.65,17.92
1050,7597055,0.820572,-0.24949000000000002,-0.5532701,57.7325,-43.925,25.0425
1051,7597152,0.939766,-0.289506,-0.571814,60.62,-6.3,27.86
1052,7597249,1.03578,-0.262178,-0.5516840000000001,68.495,8.995,23.2225
1053,7597345,1.068598,-0.187148,-0.49959,73.6925,1.68,11.655
1054,7597442,1.111176,-0.106262,-0.442982,78.2075,-8.3125,-3.0275
1055,7597539,1.160952,-0.041602,-0.384544,85.2425,-11.3575,-16.5025
1056,7597636,1.1685159999999999,0.064416,-0.366732,91.28,-13.8075,-26.4425
1057,7597732,1.119716,0.19825,-0.3843,95.5325,-19.1625,-33.53
1058,7597829,1.063962,0.309026,-0.392962,99.8375,-24.5875,-38.6225
1059,7597926,0.97783,0.377224,-0.37759000000000004,106.3125,-26.845,-42.42
1060,7598023,0.9006040999999999,0.38918,-0.35233600000000004,115.1325,-25.865,-45.745
1061,7598119,0.8488761,0.357094,-0.325008,124.04,-23.135,-48.4225
1062,7598216,0.8119101,0.313906,-0.306952,131.5475,-20.055,-50.365
1063,7598313,0.7849480999999999,0.269986,-0.28365,137.865,-17.64,-52.22
1064,7598410,0.790682,0.21386599999999997,-0.25193000000000004,143.045,-17.8675,-55.37
1065,7598506,0.827526,0.145302,-0.246074,147.84,-18.8475,-59.85
1066,7598603,0.8624181000000001,0.07978801,-0.219478,152.2675,-19.145,-65.0825
1067,7598700,0.9049959999999999,0.021594,-0.183854,155.3125,-18.48,-70.0525
1068,7598797,0.942816,-0.023302,-0.14798599999999998,156.625,-16.835,-74.3225
1069,7598893,0.978318,-0.072712,-0.13847,156.625,-15.365,-77.7
1070,7598990,1.006256,-0.11248399999999999,-0.13115,155.4875,-15.96,-80.8675
1071,7599087,1.02846,-0.14786400000000002,-0.133102,153.125,-18.3575,-82.355
1072,7599184,1.014308,-0.173118,-0.11846199999999998,150.6225,-19.53,-82.32
1073,7599280,0.9799041,-0.195688,-0.108214,149.5375,-18.2175,-81.515
1074,7599377,0.9347639999999999,-0.22118600000000002,-0.09625801,148.785,-16.3975,-79.695
1075,7599474,0.901336,-0.247538,-0.08820599999999999,147.49,-14.8925,-77.14
1076,7599571,0.868274,-0.270474,-0.058926,144.97,-13.7375,-74.06
1077,7599667,0.831674,-0.279014,-0.049288,142.275,-10.6575,-70.9975
1078,7599764,0.8067861,-0.271816,-0.050874,139.16,-8.12,-67.69001
1079,7599861,0.793244,-0.251808,-0.06539201,134.925,-6.7025,-64.365
1080,7599958,0.793244,-0.188002,-0.066734,128.1525,-4.3225,-61.355
1081,7600054,0.8117880000000001,-0.189222,-0.052582000000000004,122.5875,2.8175,-58.8875
1082,7600151,0.834724,-0.180194,-0.031354,119.0,8.2425,-56.0525
1083,7600248,0.874984,-0.19825,-0.070882,116.935,8.8725,-53.2
1084,7600345,0.91561,-0.191418,-0.08308201,114.415,8.2775,-49.9975
1085,7600441,0.9391560999999999,-0.17519200000000001,-0.068686,113.7325,10.64,-46.6375
1086,7600538,0.9873460999999999,-0.15237799999999999,-0.063928,113.3125,14.9975,-44.1
1087,7600635,1.020286,-0.144204,-0.06771001,111.93,17.64,-42.175
1088,7600732,1.033096,-0.148108,-0.089426,107.4325,14.3675,-40.355
1089,7600828,1.041148,-0.16287000000000001,-0.101748,101.675,9.135,-37.52
1090,7600925,1.0565200000000001,-0.181658,-0.08113001,97.8425,7.035,-34.2475
1091,7601022,1.075796,-0.208254,-0.06636801,96.98501,8.575,-31.115
1092,7601119,1.08885,-0.20435,-0.133956,97.26501,10.1675,-27.4575
1093,7601216,1.083848,-0.228384,-0.24790399999999999,97.2475,9.2225,-23.7475
1094,7601312,1.102392,-0.306952,-0.29524,100.1,12.25,-20.9825
1095,7601409,1.143384,-0.404186,-0.23216599999999998,105.9275,23.66,-19.46
1096,7601506,1.161684,-0.36087600000000003,-0.181658,109.0775,29.33,-18.235
1097,7601603,1.098122,-0.282308,-0.319762,108.99,14.0,-18.8125
1098,7601699,1.001376,-0.17055599999999999,-0.574986,105.735,-14.07,-23.2925
1099,7601796,0.9913719999999999,-0.17507,-0.644648,103.4425,-22.4,-30.1
1100,7601893,1.036634,-0.21228000000000002,-0.42895200000000006,103.32,-6.335,-38.08
1101,7601990,1.0310219999999999,-0.05636401,-0.463478,102.0425,0.8575,-46.2875
1102,7602086,1.002718,0.08881599,-0.556076,99.5225,-18.2525,-55.51
1103,7602183,0.960384,0.05209400000000001,-0.5038600000000001,101.29,-33.4425,-65.9925
1104,7602280,0.904386,-0.0064659999999999995,-0.495442,105.875,-39.55,-73.2375
1105,7602377,0.868274,0.0035380000000000003,-0.486048,109.9,-44.3975,-76.02
1106,7602474,0.910486,0.014274,-0.44725200000000004,112.9625,-38.78,-78.9775
1107,7602570,1.000156,-0.02562,-0.48068,113.96,-24.4825,-79.87
1108,7602667,1.09495,-0.098332,-0.471408,115.7975,-14.63,-75.1625
1109,7602764,1.1927940000000001,-0.133712,-0.41418999999999995,114.905,-9.94,-67.2
1110,7602861,1.254404,-0.14786400000000002,-0.354898,108.99,-5.985,-57.995
1111,7602957,1.246718,-0.160552,-0.35624,103.5125,-4.8475,-48.6325
1112,7603054,1.1899879999999998,-0.18043800000000002,-0.374662,101.9025,-10.2025,-40.495
1113,7603151,1.121912,-0.15616,-0.36966,103.8625,-18.48,-34.9825
1114,7603248,1.0620100000000001,-0.12627,-0.36112,106.26,-27.195,-32.41
1115,7603344,0.9906401,-0.114558,-0.353312,109.025,-34.72,-31.4125
1116,7603441,0.9191481,-0.134688,-0.313052,111.9125,-38.85,-30.975
1117,7603538,0.862662,-0.14274,-0.291214,114.6425,-39.27,-31.4825
1118,7603635,0.8271601000000001,-0.138104,-0.273768,117.3375,-39.6375,-33.2325
1119,7603731,0.799588,-0.11236199999999999,-0.270962,119.7525,-41.16,-35.9275
1120,7603828,0.785558,-0.10065,-0.25681,121.205,-45.325,-38.36
1121,7603925,0.803736,-0.097966,-0.247416,121.52,-48.93,-40.4075
1122,7604022,0.8123981,-0.10919000000000001,-0.22362600000000002,120.6275,-50.225,-41.545
1123,7604118,0.8084939999999999,-0.11529,-0.20752199999999998,118.5275,-49.105,-41.755
1124,7604215,0.8274040000000001,-0.12712400000000001,-0.2013,115.5525,-45.7275,-42.035
1125,7604312,0.8332601000000001,-0.163114,-0.182024,113.19,-39.2525,-42.385
1126,7604409,0.8437520000000001,-0.202276,-0.176778,110.495,-31.99,-42.8575
1127,7604506,0.8548540000000001,-0.22801799999999997,-0.17629,107.905,-25.0075,-43.61
1128,7604602,0.8550979999999999,-0.261324,-0.183488,104.475,-20.5975,-44.275
1129,7604699,0.833016,-0.301706,-0.187148,100.4325,-19.81,-43.8725
1130,7604796,0.8239880999999999,-0.327936,-0.192638,95.4975,-21.35,-43.225
1131,7604892,0.812642,-0.342454,-0.198128,90.52750999999999,-23.0125,-42.595
1132,7604989,0.794952,-0.35099400000000003,-0.21362199999999998,84.2275,-25.3225,-41.895
1133,7605086,0.781776,-0.3538,-0.200324,77.7,-26.005,-40.705
1134,7605183,0.7983680000000001,-0.32574000000000003,-0.174704,70.7525,-20.7375,-38.99
1135,7605279,0.8475341000000001,-0.27279200000000003,-0.148596,64.0675,-10.8675,-37.03
1136,7605376,0.8813280000000001,-0.257298,-0.12627,58.73,-0.525,-35.6825
1137,7605473,0.9112181,-0.270352,-0.117852,55.0025,6.72,-34.615
1138,7605570,0.9496479999999999,-0.31232,-0.12078,52.3075,10.78,-33.2675
1139,7605666,0.9878341,-0.349774,-0.13480999999999999,51.415,12.495,-31.7275
1140,7605763,1.021018,-0.359534,-0.135176,52.675,14.77,-30.5025
1141,7605860,1.0528600000000001,-0.34782199999999996,-0.099186,54.9325,20.02,-30.4675
1142,7605957,1.078114,-0.322934,-0.08808401,57.9075,26.4075,-31.7625
1143,7606054,1.081042,-0.302316,-0.11211800000000001,61.3375,29.365,-33.6175
1144,7606150,1.086166,-0.264984,-0.082716,62.755,26.5825,-35.7525
1145,7606247,1.111664,-0.27510999999999997,-0.309514,64.26,20.825,-38.0275
1146,7606344,1.113982,-0.273524,-0.587918,70.5075,7.91,-39.6725
1147,7606441,1.103612,-0.143228,-0.723338,66.045,6.825,-39.76
1148,7606537,1.12606,-0.141398,-0.9174399999999999,68.8975,19.565,-37.1875
1149,7606634,1.24745,0.05563200000000001,-0.919026,81.18251,22.2775,-30.3625
1150,7606731,1.226222,0.347456,-0.6491621,83.195,23.0825,-22.8725
1151,7606828,1.114226,0.367342,-0.560956,96.5475,6.72,-20.4925
1152,7606924,0.91012,0.229848,-0.6530661,101.465,-32.27,-18.3225
1153,7607021,0.71065,0.067344,-0.627934,90.965,-61.2325,-14.63
1154,7607118,0.59963,-0.041358,-0.5631520000000001,76.44001,-59.8325,-12.4425
1155,7607215,0.6605081,-0.170922,-0.6167100000000001,67.13,-34.02,-10.4125
1156,7607311,0.804346,-0.247538,-0.6378159999999999,70.0,-6.405,-4.7425
1157,7607408,0.91195,-0.23363,-0.6009720000000001,73.5,5.775,-1.3825
1158,7607505,1.078724,-0.182756,-0.532408,77.54251,4.9,-2.6075
1159,7607602,1.229272,-0.176656,-0.449326,79.8,0.9625,-7.21
1160,7607698,1.277706,-0.162504,-0.390766,79.415,-3.64,-14.14
1161,7607795,1.249768,-0.145058,-0.360632,78.19,-8.89,-21.385
1162,7607892,1.176202,-0.117486,-0.365512,78.5925,-17.045,-27.5625
1163,7607989,1.078846,-0.062952,-0.375272,79.905,-28.1925,-32.7075
1164,7608086,0.9697780999999999,-0.010004,-0.37112399999999995,81.2,-36.4875,-36.855
1165,7608182,0.8514379999999999,0.02806,-0.355996,83.3875,-40.04,-40.3025
1166,7608279,0.7664041,0.056852,-0.332084,85.62751,-40.775,-43.2075
1167,7608376,0.687958,0.06380599999999999,-0.31451599999999996,88.6375,-37.275,-45.64
1168,7608473,0.6441600000000001,0.066856,-0.305732,92.0675,-32.2175,-47.0925
1169,7608569,0.641232,0.05453401,-0.30097399999999996,94.37751,-26.635,-47.81
1170,7608666,0.6533100000000001,0.032330000000000005,-0.28694400000000003,96.4775,-20.3,-49.14
1171,7608763,0.659776,0.018422,-0.255712,97.14251,-15.1375,-51.4325
1172,7608860,0.671854,-0.000244,-0.233996,95.97,-11.5325,-54.5475
1173,7608956,0.70394,-0.030133999999999998,-0.21972199999999997,94.2725,-9.135,-57.365
1174,7609053,0.738954,-0.063928,-0.213256,91.735,-6.685,-58.31
1175,7609150,0.7808001,-0.102846,-0.20556999999999997,89.2675,-2.3275,-57.995
1176,7609247,0.8239880999999999,-0.14274,-0.194712,87.0625,3.15,-56.5075
1177,7609343,0.8488761,-0.183122,-0.188246,84.8575,8.8025,-54.215
1178,7609440,0.8418,-0.21093800000000001,-0.172996,82.565,13.93,-51.7825
1179,7609537,0.8076399999999999,-0.23009200000000002,-0.152988,80.0975,18.0425,-48.86
1180,7609634,0.764452,-0.242414,-0.134932,77.3675,20.9125,-45.9375
1181,7609730,0.722362,-0.254736,-0.12065799999999999,74.25251,21.84,-42.9275
1182,7609827,0.702598,-0.24461,-0.13639600000000002,70.6825,21.175,-39.7075
1183,7609924,0.69967,-0.207156,-0.13359000000000001,66.955,20.8775,-36.435
1184,7610021,0.712236,-0.197274,-0.106994,64.12,24.535,-33.04
1185,7610118,0.735172,-0.183488,-0.07978801,62.86,31.185,-29.715
1186,7610214,0.770308,-0.16811600000000002,-0.079178,62.7025,36.5925,-26.6
1187,7610311,0.8371639999999999,-0.171532,-0.11394800000000001,62.7725,39.4975,-23.765
1188,7610408,0.8855980999999999,-0.201178,-0.152988,61.7225,40.39,-20.2125
1189,7610505,0.948306,-0.23058,-0.171654,59.2375,42.98,-16.625
1190,7610601,1.026996,-0.259494,-0.149084,57.47,53.725,-13.6325
1191,7610698,1.105076,-0.269742,-0.111142,53.935,67.4975,-11.585
1192,7610795,1.17974,-0.262666,-0.083204,46.48,72.485,-9.9575
1193,7610892,1.243668,-0.271816,-0.06819800000000001,35.5425,64.295,-8.155
1194,7610988,1.271606,-0.291458,-0.050996,24.1675,47.88,-7.28
1195,7611085,1.266238,-0.287066,-0.04867801,16.45,32.06,-6.965
1196,7611182,1.217438,-0.217404,-0.23155599999999998,12.74,21.315,-7.07
1197,7611279,1.187182,-0.215574,-0.423462,9.9925,15.5575,-7.455
1198,7611376,1.175714,-0.363804,-0.13480999999999999,12.1625,33.81,-7.14
1199,7611472,1.334558,-0.34257600000000005,-0.128222,15.47,65.8175,-7.8225
1200,7611569,1.359568,-0.25424800000000003,-0.414678,8.925,49.8925,-10.4125
1201,7611666,1.21451,-0.228384,-0.6681941,-2.135,1.9075,-17.6575
1202,7611763,1.217316,-0.35587399999999997,-0.7550581000000001,-5.1975,-10.395,-26.18
1203,7611859,1.266238,-0.481412,-0.525088,-4.4275,2.87,-36.12
1204,7611956,1.250866,-0.44225,-0.354044,-8.6275,5.8275,-45.2375
1205,7612053,1.071526,-0.101382,-0.6128060000000001,-15.96,-19.39,-47.8625
1206,7612150,0.9209780000000001,-0.013175999999999998,-0.71553,-21.98,-62.6675,-47.1275
1207,7612246,0.774578,-0.01525,-0.6986939999999999,-15.4175,-66.885,-50.1725
1208,7612343,0.720532,0.089304,-0.702842,-8.6275,-47.7925,-54.6525
1209,7612440,0.8342360000000001,0.141154,-0.66856,0.8400001,-29.47,-60.4975
1210,7612537,1.009672,0.10675,-0.6790520999999999,5.6,-17.9025,-64.33
1211,7612633,1.1831559999999999,0.06563601,-0.612318,8.05,-17.0625,-63.0
1212,7612730,1.333216,0.043432,-0.580354,7.4725,-13.7025,-55.5625
1213,7612827,1.402512,0.081862,-0.533018,5.495,-8.1025,-42.035
1214,7612924,1.3542,0.1098,-0.45688999999999996,4.2875,-4.3575,-25.41
1215,7613020,1.235616,0.076738,-0.426634,6.335,-4.06,-10.045
1216,7613117,1.1100780000000001,0.048312,-0.434564,6.8425,-12.0925,1.9775
1217,7613214,0.981978,0.019886,-0.40565,6.3525,-26.0225,9.3975
1218,7613311,0.8907221,-0.024034,-0.36966,7.875,-36.505,12.915
1219,7613408,0.8165460999999999,-0.08784,-0.32208000000000003,12.775,-41.09,13.58
1220,7613504,0.739808,-0.132004,-0.270352,16.2575,-42.7175,12.39
1221,7613601,0.677954,-0.153598,-0.235582,18.2875,-41.1425,10.15
1222,7613698,0.649406,-0.135542,-0.22423600000000002,19.0575,-37.8,7.4725
1223,7613795,0.637206,-0.09333,-0.224846,19.565,-35.1225,5.1625
1224,7613891,0.620736,-0.060634,-0.22118600000000002,20.93,-34.8425,3.745
1225,7613988,0.6161,-0.044286,-0.21886799999999998,21.91,-36.96,3.0625
1226,7614085,0.619394,-0.05002,-0.214964,23.065,-40.6525,2.59
1227,7614182,0.6368401,-0.05917000000000001,-0.199714,23.1175,-42.84,2.73
1228,7614278,0.659044,-0.066246,-0.18788,21.6125,-40.0925,3.2375
1229,7614375,0.718214,-0.081618,-0.183488,19.8975,-31.6925,3.5875
1230,7614472,0.7617681,-0.098332,-0.191052,18.655,-18.935,4.06
1231,7614569,0.7881199999999999,-0.12334200000000001,-0.18788,17.85,-7.5425,3.955
1232,7614665,0.8042239999999999,-0.15128,-0.163602,18.06,1.0325,2.835
1233,7614762,0.81984,-0.148596,-0.130418,17.395,8.2075,1.4875
1234,7614859,0.823866,-0.14469200000000002,-0.11358199999999999,17.4825,11.5675,0.525
1235,7614956,0.7937320999999999,-0.139568,-0.089426,15.9775,10.4475,-0.105
1236,7615053,0.746396,-0.14310599999999998,-0.079056,13.1425,8.295,-0.3675
1237,7615149,0.7141881,-0.12529400000000002,-0.060146000000000005,9.1,8.3475,-0.1225
1238,7615246,0.7105279999999999,-0.098332,-0.055144000000000006,4.1825,13.4575,0.77
1239,7615343,0.71614,-0.097722,-0.071614,-0.28,21.28,2.1875
1240,7615440,0.7340741,-0.12444000000000001,-0.11345999999999999,-3.71,26.5825,3.4125
1241,7615536,0.74603,-0.145546,-0.147742,-6.9825,29.12,4.3575
1242,7615633,0.800564,-0.149694,-0.172752,-10.22,33.5125,4.9875
1243,7615730,0.876692,-0.135664,-0.17055599999999999,-11.865,42.7875,5.3375
1244,7615827,0.9901521000000001,-0.137128,-0.14005599999999999,-11.0075,53.2,5.845
1245,7615923,1.132282,-0.134688,-0.121268,-4.55,60.515,6.3
1246,7616020,1.259284,-0.10687200000000001,-0.08771799999999999,4.655,56.735,5.705
1247,7616117,1.353102,-0.06405001,-0.02928,11.76,41.1075,5.4775
1248,7616214,1.4245940000000001,-0.0122,0.0064659999999999995,15.4875,24.9025,4.69
1249,7616310,1.42801,0.019398,0.038308,16.6075,15.365,2.3275
1250,7616407,1.402512,-0.08357,-0.309148,19.25,11.3925,-0.805
1251,7616504,1.345538,-0.163358,-0.42297399999999996,27.51,3.7275,-1.6975
1252,7616601,1.4391120000000002,0.108824,-0.20008,14.3675,18.0425,1.645
1253,7616697,1.51219,0.03599,-0.319762,22.8375,39.34,1.4
1254,7616794,1.38958,-0.035502,-0.50264,38.955,17.325,-4.62
1255,7616891,1.196698,-0.14566800000000002,-0.7983680000000001,40.6175,-16.3275,-6.0375
1256,7616988,1.11935,-0.026718000000000002,-0.9150001,37.485,-25.97,-3.255
1257,7617084,1.053836,0.10492,-0.8541221,38.2725,-31.325,2.3625
1258,7617181,1.0079639999999999,0.27816,-0.7324881,43.1725,-22.61,8.785
1259,7617278,0.93879,0.284382,-0.5764501,49.9625,-13.44,13.5275
1260,7617375,0.8543661,0.082472,-0.546072,53.4975,-22.4875,15.68
1261,7617471,0.749202,-0.184098,-0.55266,49.63,-38.8325,19.32
1262,7617568,0.72346,-0.351238,-0.503128,39.4625,-40.67,24.01
1263,7617665,0.766526,-0.372832,-0.441274,24.4125,-23.8525,32.0775
1264,7617762,0.91012,-0.42016800000000004,-0.432978,11.8475,-7.5425,42.1225
1265,7617858,1.108614,-0.43651599999999996,-0.436638,7.0,-1.68,50.0675
1266,7617955,1.204628,-0.41248199999999996,-0.36234,6.6325,-3.5175,47.1975
1267,7618052,1.2373239999999999,-0.33671999999999996,-0.318786,5.3375,-11.0425,34.16
1268,7618149,1.194258,-0.274988,-0.325374,6.055,-18.865,18.6375
1269,7618245,1.138992,-0.22753,-0.348798,8.9425,-24.4475,6.4225
1270,7618342,1.0504200000000001,-0.146034,-0.365268,11.6025,-30.73,-0.98
1271,7618439,0.944524,-0.056974000000000004,-0.359412,12.81,-34.7375,-5.8625
1272,7618536,0.8596120999999999,0.019886,-0.33610999999999996,13.055,-32.8125,-10.0275
1273,7618633,0.790194,0.067344,-0.307684,13.4925,-28.805,-13.685
1274,7618729,0.726266,0.09333,-0.2806,13.755,-26.285,-16.7125
1275,7618826,0.6581899999999999,0.110044,-0.255102,14.1925,-25.34,-17.9725
1276,7618923,0.587918,0.107482,-0.24265799999999998,15.1725,-26.04,-17.71
1277,7619020,0.536068,0.09150001,-0.236192,16.1525,-28.14,-16.3975
1278,7619116,0.515938,0.06490399999999999,-0.235948,16.555,-28.385,-14.9975
1279,7619213,0.52765,0.04453,-0.234118,17.5525,-26.075,-14.1575
1280,7619310,0.567666,0.012931999999999999,-0.20984,19.355,-22.9075,-13.6325
1281,7619407,0.604632,-0.011834,-0.190686,21.315,-16.9925,-13.6675
1282,7619503,0.635254,-0.049166,-0.16226,23.1,-11.235,-14.245
1283,7619600,0.665632,-0.076738,-0.14518,24.115,-6.7025,-14.525
1284,7619697,0.70699,-0.095038,-0.13456600000000002,24.01,-2.5375,-14.07
1285,7619794,0.7610359999999999,-0.11102000000000001,-0.14518,23.4325,3.22,-12.635
1286,7619890,0.812154,-0.116388,-0.151158,22.8725,10.115,-10.5
1287,7619987,0.8541221,-0.111996,-0.161406,22.6625,17.3775,-8.0325
1288,7620084,0.8735200000000001,-0.105896,-0.142496,23.555,23.4675,-5.9675
1289,7620181,0.8782780000000001,-0.10126,-0.114436,25.7075,29.365,-4.48
1290,7620277,0.8611979999999999,-0.104066,-0.081496,28.9975,33.075,-3.8325
1291,7620374,0.835456,-0.09479401,-0.060634,32.2525,34.09,-3.71
1292,7620471,0.8067861,-0.080886,-0.050386,35.21,32.0075,-3.4475
1293,7620568,0.78446,-0.052338,-0.05929201,36.9075,28.245,-3.115
1294,7620664,0.76189,-0.062098,-0.07698201,35.665,25.8125,-2.7475
1295,7620761,0.7700640999999999,-0.09442801,-0.08771799999999999,32.8125,29.015,-1.3475
1296,7620858,0.847412,-0.13761600000000002,-0.07564,29.1725,38.6225,1.085
1297,7620955,0.9761219999999999,-0.15677,-0.06892999999999999,24.99,49.4375,3.5875
1298,7621052,1.117398,-0.17263,-0.050508,19.075,53.2875,5.18
1299,7621148,1.277218,-0.183122,-0.048068,10.36,49.875,6.23
1300,7621245,1.403,-0.23521599999999998,-0.01708,1.68,39.515,7.3325
1301,7621342,1.4692459999999998,-0.269742,0.049288,-2.835,23.38,7.525
1302,7621439,1.412028,-0.258884,0.062341999999999995,-1.7675,7.805,6.37
1303,7621535,1.329434,-0.18605,-0.26718000000000003,4.2525,-3.955,4.1125
1304,7621632,1.214022,-0.30548800000000004,-0.183732,9.2925,-9.275,1.1375
1305,7621729,1.299544,-0.32574000000000003,-0.017324000000000003,13.02,11.585,-1.9775
1306,7621826,1.2750219999999999,-0.262422,-0.162138,10.43,15.2075,-8.4175
1307,7621922,1.226832,-0.22033200000000003,-0.476166,2.9925,-5.95,-14.385
1308,7622019,1.132282,-0.036356,-0.8392381,-8.12,-18.445,-17.6225
1309,7622116,1.155584,-0.138714,-0.898042,-18.8475,-31.0275,-28.98
1310,7622213,1.207678,-0.534848,-0.478728,-25.55,-30.345,-50.4525
1311,7622309,1.0201639999999998,-0.525698,-0.4636,-36.68,-28.6825,-65.87
1312,7622406,0.91195,-0.12334200000000001,-0.7854361,-49.2275,-74.0775,-69.0725
1313,7622503,0.830332,-0.061366,-0.765672,-54.4075,-114.8525,-69.72
1314,7622600,0.6505041,-0.107116,-0.633668,-45.535,-90.30001,-70.455
1315,7622697,0.6442821,0.00366,-0.596336,-26.1275,-45.43,-71.3125
1316,7622793,0.9433041,0.169824,-0.5826720000000001,-10.8675,-20.7725,-74.25251
1317,7622890,1.251598,0.209108,-0.604754,-5.9325,-4.62,-71.015
1318,7622987,1.328702,0.149206,-0.49434399999999995,-0.4025,12.0925,-57.6625
1319,7623084,1.36945,0.099186,-0.417484,-0.2275,20.9475,-39.725
1320,7623180,1.31516,0.037332,-0.355752,-3.78,21.3675,-21.665
1321,7623277,1.21756,0.022326,-0.318054,-7.8225,12.67,-7.8575
1322,7623374,1.117276,-0.01647,-0.31781,-8.9075,-2.1,0.665
1323,7623471,1.025044,-0.06636801,-0.303902,-10.5175,-18.935,5.1625
1324,7623567,0.913048,-0.122732,-0.27523200000000003,-13.09,-30.0475,6.825
1325,7623664,0.8084939999999999,-0.158966,-0.240218,-15.33,-31.78,7.07
1326,7623761,0.7232161,-0.188002,-0.22204000000000002,-16.8175,-27.7375,6.5975
1327,7623858,0.6581899999999999,-0.19032000000000002,-0.21862399999999999,-18.06,-24.255,5.6525
1328,7623954,0.6224441,-0.184098,-0.214598,-19.11,-22.715,4.8475
1329,7624051,0.611586,-0.169946,-0.212524,-20.335,-22.3475,4.655
1330,7624148,0.614758,-0.147376,-0.20435,-22.12,-22.05,4.8125
1331,7624245,0.612684,-0.139934,-0.193126,-24.1675,-20.3875,5.985
1332,7624342,0.635742,-0.13383399999999998,-0.16909200000000002,-25.62,-19.18,8.365
1333,7624438,0.6653880999999999,-0.12285399999999999,-0.15494000000000002,-27.72,-15.4175,11.76
1334,7624535,0.6762461,-0.09650201,-0.13847,-28.91,-8.155,14.98
1335,7624632,0.6763680000000001,-0.072712,-0.131272,-29.82,-1.785,17.185
1336,7624729,0.670268,-0.07722601,-0.121024,-30.17,0.8400001,18.0075
1337,7624825,0.6872261,-0.08625401,-0.10540799999999999,-30.8,3.2725,17.8325
1338,7624922,0.735538,-0.09589201,-0.12529400000000002,-32.62,7.7,17.78
1339,7625019,0.7808001,-0.091744,-0.13602999999999998,-35.2975,12.0925,17.99
1340,7625116,0.811178,-0.08954801,-0.14078800000000002,-38.535,17.1675,18.5675
1341,7625212,0.834724,-0.099186,-0.146522,-42.385,22.085,19.915
1342,7625309,0.83936,-0.103578,-0.130662,-46.8475,25.6375,21.945
1343,7625406,0.8346021,-0.10797000000000001,-0.101382,-51.5375,28.7,24.4825
1344,7625503,0.8300879999999999,-0.101992,-0.08808401,-55.02,30.9925,26.355
1345,7625599,0.84729,-0.08064199,-0.08601,-55.5975,30.8875,27.9125
1346,7625696,0.86193,-0.04697001,-0.07198,-52.8325,30.9925,28.7875
1347,7625793,0.9146340000000001,-0.002074,-0.05636401,-48.125,33.495,28.49
1348,7625890,0.9989360999999999,0.046482,-0.051362,-40.775,36.9075,27.055
1349,7625986,1.119594,0.078202,-0.071248,-31.6925,35.6125,24.395
1350,7626083,1.2578200000000002,0.09625801,-0.067588,-21.4025,27.51,21.77
1351,7626180,1.3826260000000001,0.137982,-0.029158,-11.48,22.4175,18.97
1352,7626277,1.4844959999999998,0.172996,0.03477,-4.55,21.35,14.5775
1353,7626373,1.5584280000000001,0.16592,0.118584,0.035,21.0,9.1525
1354,7626470,1.558062,0.095648,0.020374,2.9225,19.32,3.4125
1355,7626567,1.436428,-0.10126,-0.33623200000000003,11.8825,5.3375,-1.4
1356,7626664,1.284538,0.032330000000000005,-0.18849000000000002,9.3275,-6.545,-3.185
1357,7626760,1.274778,0.111996,-0.237656,3.5525,13.7725,-2.2225
1358,7626857,1.2505,0.097234,-0.40979799999999994,12.2675,13.475,-4.3575
1359,7626954,1.17547,0.033062,-0.53497,24.5175,-7.91,-6.09
1360,7627051,1.109712,0.007076001,-0.7518859999999999,23.24,-20.09,-6.09
1361,7627148,1.077626,-0.039406000000000004,-0.895114,25.0075,-33.005,-2.2925
1362,7627244,1.018822,0.06075601,-0.7977581,28.385,-40.4075,7.56
1363,7627341,0.9592860000000001,0.20264200000000002,-0.602558,31.6575,-29.26,17.22
1364,7627438,0.8775459999999999,0.052338,-0.448838,40.4775,-16.9925,23.2575
1365,7627535,0.8314301,-0.203618,-0.396256,42.42,-15.61,29.75
1366,7627631,0.8155701,-0.429928,-0.42748800000000003,33.6525,-22.2425,36.1025
1367,7627728,0.8243541,-0.558394,-0.456524,15.1725,-29.9075,43.3125
1368,7627825,0.9358620999999999,-0.54168,-0.475434,-4.8475,-29.1025,50.8025
1369,7627922,1.087996,-0.430782,-0.46945600000000004,-13.93,-22.1725,54.25
1370,7628018,1.187792,-0.34586999999999996,-0.41882600000000003,-12.285,-13.2125,49.63
1371,7628115,1.23586,-0.269742,-0.33610999999999996,-6.6675,-6.86,37.5025
1372,7628212,1.2250020000000001,-0.19459,-0.274988,-3.7625,-4.6025,23.345
1373,7628309,1.1953559999999999,-0.13859200000000002,-0.262544,-3.8675,-7.6825,11.9
1374,7628405,1.121546,-0.072956,-0.285724,-4.865,-18.3925,3.6925
1375,7628502,1.004792,-0.010858,-0.30402399999999996,-3.99,-32.13,-2.1
1376,7628599,0.894626,0.03416,-0.30073,-2.52,-38.85,-6.4925
1377,7628696,0.804834,0.069662,-0.27571999999999997,-1.295,-37.5025,-10.2725
1378,7628793,0.731268,0.090036,-0.24790399999999999,0.8225,-33.18,-13.2825
1379,7628889,0.648552,0.107116,-0.22996999999999998,2.94,-30.59,-15.1375
1380,7628986,0.57523,0.10492,-0.220698,5.1975,-31.3075,-16.0475
1381,7629083,0.5161819999999999,0.091378,-0.213988,7.805,-32.6375,-16.135
1382,7629180,0.5008100999999999,0.068442,-0.209108,10.29,-33.0925,-16.1525
1383,7629276,0.511424,0.041968,-0.20801,13.3,-30.6425,-16.1525
1384,7629373,0.544852,0.014518000000000001,-0.193858,16.555,-26.25,-16.695
1385,7629470,0.600484,-0.01647,-0.16652999999999998,19.425,-21.1225,-17.045
1386,7629567,0.6517241,-0.050996,-0.14152,21.21,-14.2625,-17.955
1387,7629663,0.712358,-0.085522,-0.119682,22.3125,-8.12,-18.6025
1388,7629760,0.757376,-0.12749000000000002,-0.114924,23.555,-1.925,-17.9025
1389,7629857,0.7986121,-0.137494,-0.096868,24.5525,5.67,-16.205
1390,7629954,0.8400921,-0.14152,-0.09979600000000001,25.6725,15.575,-13.545
1391,7630051,0.865956,-0.147742,-0.096014,27.86,23.6425,-10.0975
1392,7630147,0.8662001,-0.126026,-0.08759601,30.94,28.91,-6.755
1393,7630244,0.8443620999999999,-0.093086,-0.069784,33.53,31.6925,-3.99
1394,7630341,0.809836,-0.057462,-0.05453401,35.5775,31.8675,-2.275
1395,7630438,0.7721380999999999,-0.009150001,-0.035013999999999997,37.2575,29.715,-1.26
1396,7630534,0.7540819999999999,0.010492,-0.04514,36.6625,26.355,-1.1725
1397,7630631,0.749324,-0.0366,-0.07076001,35.1575,24.3775,-0.6475
1398,7630728,0.780922,-0.09821001,-0.08564401,31.045,27.4925,-0.56
1399,7630825,0.8357,-0.162626,-0.07722601,25.9875,34.6325,-0.0175
1400,7630921,0.9296399999999999,-0.188124,-0.040504000000000005,18.305,40.285,0.35
1401,7631018,1.051518,-0.20788800000000002,-0.00366,9.2575,43.68,0.455
1402,7631115,1.2160959999999998,-0.262544,0.040260000000000004,-0.4025,41.5275,0.595
1403,7631212,1.3796979999999999,-0.366854,0.065148,-9.3625,33.7225,-0.28
1404,7631308,1.4526540000000001,-0.407602,0.104066,-14.5425,20.65,-1.015
1405,7631405,1.3923860000000001,-0.36661,0.145302,-11.8125,8.89,-1.365
1406,7631502,1.336876,-0.258274,-0.125782,-1.6625,3.2375,-2.1
1407,7631599,1.23281,-0.25851799999999997,-0.144326,5.425,-3.22,-4.34
1408,7631695,1.2658719999999999,-0.21618400000000002,0.063196,6.3,6.4225,-8.6625
1409,7631790,1.158268,-0.13847,-0.08527801,3.29,10.1325,-13.895
1410,7631887,1.09617,-0.11345999999999999,-0.331962,-2.9225,-2.345,-16.7825
1411,7631984,1.006622,-0.014518000000000001,-0.47604399999999997,-6.8425,-4.69,-18.6375
1412,7632081,1.02236,-0.038796,-0.580598,-8.5225,-12.5475,-27.615
1413,7632177,0.996862,-0.138104,-0.9762440999999998,-16.3275,-33.0925,-42.42
1414,7632274,0.975878,-0.255468,-1.084336,-33.075,-57.4,-57.54
1415,7632371,1.086654,-0.57889,-0.6977180000000001,-43.1375,-51.8875,-78.89
1416,7632468,1.0126,-0.556198,-0.388448,-47.53,-21.0525,-96.67
1417,7632565,0.9641661,-0.17202,-0.543998,-47.5125,-23.9225,-99.27750999999999
1418,7632661,0.9945440000000001,0.161894,-0.6347661,-36.9075,-57.4,-92.1025
1419,7632758,1.028094,0.38918,-0.621224,-19.005,-62.125,-83.895
1420,7632855,1.244522,0.46506400000000003,-0.516426,-1.0325,-30.38,-76.51
1421,7632952,1.436428,0.383934,-0.44652,12.2675,17.71,-62.51
1422,7633048,1.496208,0.227408,-0.37759000000000004,9.8525,36.26,-40.1975
1423,7633145,1.41337,0.091012,-0.329278,3.115,31.1675,-18.7425
1424,7633242,1.314306,0.000732,-0.30292600000000003,2.38,11.62,-5.565
1425,7633339,1.191574,-0.090768,-0.291946,4.2525,-12.4075,-0.735
1426,7633435,1.078114,-0.14688800000000002,-0.269254,4.9175,-28.4025,0.6825
1427,7633532,0.9762440999999998,-0.17921800000000002,-0.22496799999999997,3.1675,-36.0675,0.8225
1428,7633629,0.8638819999999999,-0.200812,-0.196298,0.3675,-35.945,0.0
1429,7633726,0.7779941,-0.238632,-0.19580999999999998,-2.87,-34.44,-0.315
1430,7633822,0.70699,-0.258274,-0.19983599999999999,-6.86,-34.615,0.7175
1431,7633919,0.663558,-0.24192600000000003,-0.21374400000000002,-11.515,-36.5225,2.065
1432,7634016,0.6258600000000001,-0.204716,-0.21386599999999997,-13.79,-39.13,3.885
1433,7634113,0.58987,-0.179096,-0.21166999999999997,-15.295,-40.1275,5.74
1434,7634209,0.584868,-0.16530999999999998,-0.20483800000000002,-16.1,-41.0725,8.5225
1435,7634306,0.613294,-0.161528,-0.20190999999999998,-16.765,-38.43,12.145
1436,7634403,0.625128,-0.14164200000000002,-0.17763199999999998,-17.64,-30.0825,16.065
1437,7634500,0.625494,-0.12871,-0.166042,-18.41,-21.665,19.46
1438,7634597,0.6128060000000001,-0.12041400000000001,-0.16811600000000002,-18.55,-17.045,20.86
1439,7634693,0.6145141,-0.116632,-0.187026,-19.3025,-16.24,19.7575
1440,7634790,0.6527,-0.112606,-0.189832,-20.9825,-15.0675,17.5175
1441,7634887,0.7156520000000001,-0.104554,-0.186172,-24.2375,-10.5,15.19
1442,7634984,0.784338,-0.101016,-0.18446400000000002,-27.0025,-3.08,13.7375
1443,7635080,0.820938,-0.09418401,-0.157746,-30.5375,3.885,12.6875
1444,7635177,0.815692,-0.10052799999999999,-0.11504600000000001,-34.545,9.2225,13.1775
1445,7635274,0.789218,-0.09991799999999999,-0.07027201,-39.13,12.5825,14.8575
1446,7635371,0.7540819999999999,-0.08698601,-0.011712,-42.84,13.2825,16.9925
1447,7635467,0.7330979999999999,-0.044652,0.009637999999999999,-43.6625,12.8275,18.935
1448,7635564,0.727242,-0.00671,0.004026,-40.9675,10.885,20.4225
1449,7635661,0.755912,0.047092,-0.015982,-34.0725,10.9375,20.1425
1450,7635758,0.853512,0.08784,-0.043432,-24.885,17.0625,17.325
1451,7635854,0.9734381,0.08759601,-0.058926,-14.0,27.5975,13.5975
1452,7635951,1.156194,0.063684,-0.070882,-3.43,37.87,10.01
1453,7636048,1.352858,0.044774,-0.05648601,7.14,45.3425,7.805
1454,7636145,1.488522,0.047458,0.03599,13.16,43.4875,5.635
1455,7636242,1.581974,0.046726,0.097478,12.3025,32.9175,2.66
1456,7636338,1.59576,-0.01769,-0.114924,12.04,15.1025,-0.8575
1457,7636435,1.487424,-0.08857201,-0.34281999999999996,16.625,-8.645,-3.4125
1458,7636532,1.39934,0.0793,-0.18470799999999998,14.9975,-10.22,-2.45
1459,7636629,1.398852,0.133102,-0.245464,21.6125,14.245,-2.0125
1460,7636725,1.329312,0.134444,-0.365146,34.9475,14.4025,-5.7225
1461,7636822,1.1930379999999998,0.0034159999999999998,-0.639402,38.6225,-4.165,-7.035
1462,7636919,1.151802,-0.12175599999999999,-0.8931620000000001,37.87,-16.2925,-4.48
1463,7637016,1.121302,0.11895,-0.783972,29.155,-20.6325,6.125
1464,7637113,1.1003180000000001,0.23546,-0.633302,29.5225,-13.93,15.1375
1465,7637209,1.072624,0.12248800000000001,-0.486292,46.97,-7.9975,16.52
1466,7637306,0.966118,-0.10760399999999999,-0.474458,48.86,-14.0525,18.5325
1467,7637403,0.813984,-0.33610999999999996,-0.485072,40.81,-32.585,23.66
1468,7637500,0.7357821,-0.446032,-0.5042260000000001,23.1,-47.11,29.4875
1469,7637596,0.7598161,-0.5185,-0.5363121,8.33,-44.555,39.13
1470,7637693,0.9302501,-0.442982,-0.5170359999999999,-3.4475,-31.8325,49.9275
1471,7637790,1.126914,-0.359534,-0.524112,-6.93,-16.59,55.3
1472,7637887,1.236836,-0.324398,-0.45030200000000004,-1.365,-7.8925,51.905
1473,7637983,1.285758,-0.27145,-0.343064,0.5075,-2.45,39.9
1474,7638080,1.253306,-0.20861999999999997,-0.28987199999999996,0.455,-0.77,25.2875
1475,7638177,1.169126,-0.158966,-0.30805,2.5025,-8.085,11.585
1476,7638274,1.048224,-0.116388,-0.345504,6.615,-21.735,0.9975
1477,7638370,0.9191481,-0.07747001,-0.339404,8.9775,-33.5475,-7.14
1478,7638467,0.8397261,-0.03172,-0.31537,7.0525,-36.6275,-12.67
1479,7638564,0.7828741,0.008296000999999999,-0.278526,3.1675,-31.9375,-15.8725
1480,7638661,0.730902,0.032574,-0.245342,-0.525,-26.005,-17.045
1481,7638757,0.660752,0.055754,-0.22167399999999998,-2.5725,-21.735,-16.555
1482,7638854,0.599142,0.040992,-0.20996199999999998,-2.9925,-20.615,-14.6825
1483,7638951,0.5604680000000001,0.027327999999999998,-0.208742,-2.8175,-22.1025,-12.7925
1484,7639048,0.5391180999999999,0.012078,-0.21289,-2.3975,-23.4325,-11.34
1485,7639144,0.535824,-0.005978,-0.21533000000000002,-1.4875,-21.7,-10.325
1486,7639241,0.579622,-0.027206,-0.20435,0.0175,-18.34,-10.64
1487,7639338,0.637694,-0.05002,-0.183122,1.96,-13.755,-10.5
1488,7639435,0.700036,-0.072956,-0.15506199999999998,4.1475,-8.19,-10.5175
1489,7639532,0.74542,-0.09821001,-0.12248800000000001,6.4575,-1.995,-10.3075
1490,7639628,0.7626221,-0.118584,-0.101138,8.5925,4.165,-9.3975
1491,7639725,0.7700640999999999,-0.128466,-0.085888,10.08,9.6075,-7.875
1492,7639822,0.7732359999999999,-0.12529400000000002,-0.08308201,11.655,14.9625,-5.8625
1493,7639919,0.776774,-0.118218,-0.07344400000000001,13.58,18.3575,-3.57
1494,7640015,0.774944,-0.09845401,-0.070638,16.45,21.35,-1.1025
1495,7640112,0.7679901,-0.07710399999999999,-0.07527400000000001,20.4225,25.515,0.945
1496,7640209,0.747494,-0.044407999999999996,-0.082106,23.9225,29.9775,2.2575
1497,7640306,0.726754,0.01098,-0.0793,27.0375,33.04,3.71
1498,7640402,0.7117479999999999,0.05563200000000001,-0.082472,28.91,34.8425,4.9175
1499,7640499,0.7333420999999999,0.063318,-0.10528599999999999,30.205,35.8575,6.265
1500,7640596,0.768966,0.017202000000000002,-0.10650599999999999,30.345,38.955,6.5275
1501,7640693,0.8145941,-0.06344,-0.115168,29.4,42.9275,6.755
1502,7640790,0.8960899999999999,-0.09540401,-0.08454600000000001,26.7225,44.7125,5.7925
1503,7640886,0.957822,-0.102968,-0.039772,20.02,44.2925,4.1125
1504,7640983,1.052494,-0.13602999999999998,-0.017446,9.7125,39.795,2.205
1505,7641080,1.178398,-0.240218,0.004148001,-0.2975,33.075,1.0325
1506,7641177,1.280878,-0.320616,0.033916,-7.315,24.2375,0.3325
1507,7641273,1.371646,-0.311954,-0.013541999999999998,-10.045,16.2575,-0.7875
1508,7641370,1.38287,-0.30744,-0.218746,-8.33,9.9225,-4.1475
1509,7641467,1.3299219999999998,-0.382714,-0.026595999999999998,-1.9425,7.7525,-9.7475
1510,7641564,1.423374,-0.36136399999999996,0.08967,3.99,23.24,-15.61
1511,7641660,1.481568,-0.28023400000000004,-0.005002,1.4525,24.185,-22.7325
1512,7641757,1.321992,-0.24863600000000002,-0.342454,-5.075,4.2875,-29.8725
1513,7641854,1.23159,-0.17507,-0.720288,-12.25,-14.0175,-31.8675
1514,7641951,1.217682,-0.318542,-0.609146,-16.8525,-9.1525,-37.415
1515,7642048,1.325896,-0.5214281,-0.28999400000000003,-20.335,11.1825,-51.7475
1516,7642144,1.3499299999999999,-0.31232,-0.326472,-33.285,4.865,-63.2625
1517,7642241,1.17303,-0.09247601,-0.46030600000000005,-46.6025,-43.435,-65.625
1518,7642338,0.9683141,-0.004636001,-0.673806,-49.4375,-84.385,-67.7425
1519,7642435,0.784094,0.013541999999999998,-0.645258,-42.3325,-97.16001,-68.705
1520,7642532,0.737246,0.062341999999999995,-0.619516,-27.93,-73.1325,-72.1875
1521,7642628,0.862784,0.081862,-0.624396,-9.555,-41.0025,-78.62751
1522,7642725,1.071892,0.14457,-0.580598,3.185,-24.2725,-80.99
1523,7642822,1.269776,0.156038,-0.516304,8.82,-14.4025,-77.28
1524,7642919,1.41642,0.133346,-0.48495,10.57,-4.34,-65.8
1525,7643015,1.410198,0.119682,-0.37856599999999996,7.8225,0.6825,-47.6525
1526,7643112,1.306864,0.074298,-0.274256,4.9875,0.9275,-28.77
1527,7643209,1.2189020000000002,0.03172,-0.25607800000000003,3.71,-1.2775,-13.195
1528,7643306,1.116666,-0.014152000000000001,-0.274622,4.025,-12.495,-2.3975
1529,7643403,1.003572,-0.063196,-0.271572,4.0075,-31.7275,4.1825
1530,7643499,0.9052401,-0.101504,-0.25559,5.2325,-44.5725,7.63
1531,7643596,0.805078,-0.14347200000000002,-0.22509,7.7,-47.3375,8.68
1532,7643693,0.7068681,-0.17763199999999998,-0.190808,9.4675,-44.5725,7.8925
1533,7643790,0.6320819999999999,-0.17763199999999998,-0.174582,9.7475,-40.8275,6.4225
1534,7643886,0.5727901,-0.168238,-0.176656,9.2575,-37.9575,4.585
1535,7643983,0.5443640000000001,-0.146278,-0.18361,9.275,-37.6075,3.115
1536,7644080,0.531676,-0.12651400000000002,-0.193736,9.59,-38.29,2.2225
1537,7644177,0.543998,-0.094062,-0.196054,8.6975,-39.3225,2.3975
1538,7644273,0.568154,-0.094306,-0.188978,9.1175,-40.4425,3.8325
1539,7644370,0.5987760999999999,-0.101748,-0.17140999999999998,9.45,-38.9375,5.7925
1540,7644467,0.6311060000000001,-0.105652,-0.145302,7.105,-31.815,7.875
1541,7644564,0.6749041,-0.11236199999999999,-0.147742,5.1625,-19.915,9.765
1542,7644661,0.7108941,-0.11626600000000001,-0.149084,4.13,-8.9075,10.955
1543,7644757,0.755424,-0.129564,-0.149206,3.605,-0.7525,10.9375
1544,7644854,0.8094701,-0.142252,-0.150426,3.64,4.9875,9.345
1545,7644951,0.8525360000000001,-0.14213,-0.128466,3.5,8.6975,6.965
1546,7645048,0.880718,-0.13847,-0.09638,3.325,10.395,4.935
1547,7645144,0.887184,-0.142984,-0.058682000000000005,1.8725,9.975,3.85
1548,7645241,0.8692501,-0.137006,-0.030256,-2.1875,9.345,2.9925
1549,7645338,0.862174,-0.124806,-0.013054,-8.26,8.3475,2.975
1550,7645435,0.8371639999999999,-0.11577799999999999,0.004636001,-15.6625,7.525,3.5
1551,7645531,0.8226459999999999,-0.127734,-0.007564001,-21.035,6.72,4.2
1552,7645628,0.811056,-0.144326,-0.042212,-22.0325,4.865,4.935
1553,7645725,0.8197180000000001,-0.130906,-0.06039,-21.1575,6.6325,5.1975
1554,7645822,0.871568,-0.122,-0.062586,-16.765,16.52,5.635
1555,7645918,0.978684,-0.132736,-0.071614,-8.1375,28.0525,6.1775
1556,7646015,1.119838,-0.15420799999999998,-0.07893401,2.765,32.0075,7.385
1557,7646112,1.240008,-0.15237799999999999,-0.063684,13.02,28.77,8.5225
1558,7646209,1.322724,-0.11345999999999999,0.00793,18.5325,22.365,8.7675
1559,7646305,1.416664,-0.07076001,0.08637601,18.0075,16.87,7.7525
1560,7646402,1.457168,-0.048922,0.08698601,14.5425,13.195,5.9325
1561,7646499,1.4082459999999999,-0.147498,-0.286456,15.365,7.0875,3.92
1562,7646596,1.356152,-0.066856,-0.219478,14.8925,-0.245,5.11
1563,7646692,1.4001940000000002,0.069662,-0.153354,6.09,17.1325,11.095
1564,7646789,1.371768,0.030866,-0.43859,24.5,23.0475,10.29
1565,7646886,1.18218,-0.012688,-0.659532,39.515,1.4,4.9875
1566,7646983,1.133258,0.024888,-0.8119101,37.66,-5.8275,5.0925
1567,7647080,1.1776659999999999,0.23692399999999997,-0.8624181000000001,30.4675,-5.7575,12.215
1568,7647176,1.16876,0.352702,-0.74908,38.3775,-16.5725,20.44
1569,7647273,1.09251,0.30780599999999997,-0.530456,49.4725,-15.8025,23.3625
1570,7647370,0.9740479999999999,0.070516,-0.484096,55.1075,-9.8175,24.325
1571,7647467,0.8625401,-0.236314,-0.5604680000000001,52.255,-21.245,25.06
1572,7647563,0.8306979999999999,-0.398086,-0.519476,37.59,-33.635,26.74
1573,7647660,0.8522921,-0.44066400000000006,-0.44591000000000003,17.85,-25.8475,32.2175
1574,7647757,0.9734381,-0.473116,-0.443592,2.1875,-12.915,41.0375
1575,7647854,1.170712,-0.469578,-0.46421,-3.29,-12.075,49.5425
1576,7647950,1.25599,-0.44725200000000004,-0.40809,-1.7675,-17.29,49.0
1577,7648047,1.255136,-0.375882,-0.346358,-3.01,-21.105,36.82
1578,7648144,1.2220739999999999,-0.294508,-0.32195799999999997,-4.6725,-20.1075,20.7025
1579,7648241,1.16998,-0.250954,-0.32269000000000003,-2.415,-19.2675,6.895
1580,7648337,1.093852,-0.18068199999999998,-0.334646,2.03,-25.7075,-2.835
1581,7648434,0.9888101,-0.09698999999999999,-0.320738,4.8125,-35.245,-9.975
1582,7648531,0.891942,-0.023424,-0.30073,5.25,-40.5125,-15.47
1583,7648628,0.8132520999999999,0.022082,-0.275964,4.305,-39.5675,-19.3375
1584,7648725,0.742492,0.062952,-0.251686,2.9575,-36.8025,-21.56
1585,7648821,0.6785640000000001,0.08308201,-0.237046,1.8375,-35.63,-22.015
1586,7648918,0.6062181,0.09418401,-0.24265799999999998,1.7675,-36.4525,-20.755
1587,7649015,0.546194,0.091134,-0.24436599999999997,2.3975,-38.6925,-18.2
1588,7649112,0.520208,0.079056,-0.253272,3.22,-38.115,-15.505
1589,7649208,0.517524,0.071492,-0.245342,5.4775,-34.4225,-13.685
1590,7649305,0.542168,0.060877999999999995,-0.221308,7.8225,-29.2775,-12.985
1591,7649402,0.589016,0.029768,-0.200324,10.5175,-23.1525,-13.265
1592,7649499,0.624152,-0.00305,-0.17519200000000001,13.58,-16.8875,-13.79
1593,7649595,0.65575,-0.034648000000000005,-0.14688800000000002,15.75,-11.69,-14.49
1594,7649692,0.6911301,-0.046848,-0.123464,18.0075,-6.6675,-14.5075
1595,7649789,0.7237041,-0.07417601,-0.11943800000000002,19.985,-1.75,-14.035
1596,7649886,0.7501781,-0.09040201,-0.10858,21.3325,1.82,-12.6175
1597,7649983,0.771772,-0.09906401,-0.104554,21.9275,6.0725,-10.745
1598,7650079,0.79361,-0.109556,-0.098576,23.17,11.1825,-8.8025
1599,7650176,0.7999539999999999,-0.10943399999999999,-0.09052401,24.4125,16.9925,-7.0
1600,7650273,0.794586,-0.091134,-0.079422,26.075,23.5025,-5.565
1601,7650370,0.7787261,-0.07442,-0.070638,28.0,29.9075,-4.2
1602,7650466,0.7707961,-0.066856,-0.063928,30.1525,34.58,-2.905
1603,7650563,0.7792140000000001,-0.04404201,-0.056729999999999996,31.5875,35.6125,-1.435
1604,7650660,0.792146,-0.063928,-0.067344,31.395,35.84,0.2275
1605,7650757,0.823744,-0.11541199999999999,-0.07686,29.5925,37.1875,2.345
1606,7650853,0.8693719999999999,-0.183,-0.067222,27.37,39.7075,4.62
1607,7650950,0.9714860000000001,-0.205448,-0.05917000000000001,23.9575,42.035,5.285
1608,7651047,1.064938,-0.209596,-0.01586,15.855,41.9125,5.53
1609,7651144,1.1831559999999999,-0.222162,0.014518000000000001,6.3875,38.2375,4.9875
1610,7651241,1.275754,-0.275964,0.038918,-4.8125,28.105,4.1475
1611,7651337,1.362984,-0.311954,0.06588,-11.9,16.0475,3.4475
1612,7651434,1.37067,-0.275354,0.03416,-13.9475,7.6825,2.8875
1613,7651531,1.336754,-0.171898,-0.30353600000000003,-11.795,2.625,2.4675
1614,7651628,1.287588,-0.276086,-0.076616,-10.9375,1.9775,1.1375
1615,7651724,1.4514340000000001,-0.272548,0.046360000000000005,-6.51,22.61,-1.715
1616,7651821,1.405806,-0.23533800000000002,-0.101382,-7.1575,20.8425,-6.8075
1617,7651918,1.276242,-0.15945399999999998,-0.40809,-12.74,-7.525,-11.4975
1618,7652015,1.153022,-0.08881599,-0.665876,-17.5175,-17.7275,-12.25
1619,7652111,1.10105,-0.10187,-0.670024,-19.215,-16.555,-18.3575
1620,7652208,1.160464,-0.272426,-0.61488,-24.045,-15.2775,-33.6175
1621,7652305,1.1533879999999999,-0.43639399999999995,-0.407968,-31.5,-19.7225,-48.9825
1622,7652402,1.013332,-0.281454,-0.487512,-41.335,-34.6325,-59.92
1623,7652498,0.9091440000000001,-0.042578,-0.7187020000000001,-50.8025,-72.4325,-65.0825
1624,7652595,0.7869,-0.006222,-0.6579461,-50.5575,-93.17,-67.27
1625,7652692,0.6943020000000001,0.03355,-0.622078,-36.9075,-66.7975,-70.1575
1626,7652789,0.8219139999999999,0.133346,-0.5784020000000001,-19.845,-37.6775,-73.0625
1627,7652885,1.093852,0.208498,-0.5511961,-11.725,-18.3575,-74.7425
1628,7652982,1.327116,0.168848,-0.551928,-9.9575,1.8025,-69.1775
1629,7653079,1.420934,0.09821001,-0.46457600000000004,-11.725,13.6675,-55.02
1630,7653176,1.404708,0.052582000000000004,-0.37088000000000004,-15.9425,14.84,-36.1025
1631,7653272,1.30113,0.023546,-0.333426,-18.2525,9.1175,-18.4275
1632,7653369,1.17791,-0.009394,-0.34281999999999996,-18.5675,-1.5225,-5.88
1633,7653466,1.059204,-0.057584,-0.340258,-18.9175,-15.54,2.065
1634,7653563,0.957944,-0.107726,-0.31646799999999997,-19.3375,-25.9875,7.14
1635,7653660,0.8701040000000001,-0.159576,-0.265716,-19.11,-29.61,9.9225
1636,7653756,0.774334,-0.203862,-0.232044,-18.865,-27.895,11.34
1637,7653853,0.696132,-0.23448400000000003,-0.21838000000000002,-19.355,-25.9875,12.0225
1638,7653950,0.62647,-0.234362,-0.211304,-20.1775,-25.4275,11.9875
1639,7654047,0.579622,-0.215574,-0.2135,-21.525,-25.1125,11.375
1640,7654143,0.551928,-0.181902,-0.223504,-24.325,-24.43,10.6225
1641,7654240,0.55632,-0.166774,-0.219356,-27.0375,-24.0975,10.9025
1642,7654337,0.57584,-0.148352,-0.197274,-29.26,-23.4675,12.46
1643,7654434,0.598166,-0.14213,-0.192394,-30.905,-20.4225,15.085
1644,7654530,0.618174,-0.132736,-0.17629,-32.9875,-18.445,18.2525
1645,7654627,0.628178,-0.106628,-0.16897,-34.7725,-13.7375,21.07
1646,7654724,0.6389140999999999,-0.09284201,-0.152866,-37.345,-8.89,22.9425
1647,7654821,0.662948,-0.08527801,-0.15054800000000002,-39.935,-3.7275,23.31
1648,7654917,0.7041841,-0.08369201,-0.153476,-42.1225,1.575,22.5225
1649,7655014,0.7582300000000001,-0.07808001,-0.135786,-43.4175,7.8925,20.7725
1650,7655111,0.819108,-0.064416,-0.13176,-44.345,14.14,19.145
1651,7655208,0.8493641,-0.052703999999999994,-0.12175599999999999,-46.34,17.4475,18.3225
1652,7655304,0.8547319999999999,-0.060634,-0.11028800000000001,-49.28,19.1625,18.935
1653,7655401,0.856562,-0.065026,-0.080886,-52.7975,20.895,20.3525
1654,7655498,0.853878,-0.06039,-0.046360000000000005,-56.7875,22.5575,21.805
1655,7655595,0.8510719999999999,-0.05917000000000001,-0.01891,-59.0975,23.3275,22.435
1656,7655691,0.8480221,-0.05941401,-0.015006,-58.6425,21.56,22.26
1657,7655788,0.841678,-0.037088,-0.025498,-54.705,17.7625,21.2625
1658,7655885,0.8703481,-0.0051240009999999996,-0.036844,-49.0,17.255,19.46
1659,7655982,0.917074,0.037942000000000004,-0.033184,-42.1225,22.2075,16.9225
1660,7656079,1.0077200000000002,0.05563200000000001,-0.033916,-35.6125,28.1925,13.9125
1661,7656175,1.11874,0.064294,-0.037942000000000004,-28.665,30.485,10.955
1662,7656272,1.242936,0.058926,-0.033916,-22.8375,27.2475,8.75
1663,7656369,1.3618860000000002,0.05819401,-0.008174001,-19.9325,20.7025,6.4925
1664,7656466,1.456192,0.04819,0.002928,-19.7225,14.8575,3.9025
1665,7656562,1.4959639999999998,-0.006344,-0.142374,-16.975,8.8025,1.225
1666,7656659,1.46949,-0.07686,-0.342332,-8.085,0.0875,-0.5425
1667,7656756,1.421422,0.074298,-0.142252,-3.0625,4.13,0.2275
1668,7656853,1.510726,0.182756,-0.145058,4.4275,28.5425,0.56
1669,7656949,1.469856,0.17446,-0.35038400000000003,23.7125,23.905,-3.7625
1670,7657046,1.341634,0.130662,-0.640744,36.2775,-6.7375,-8.1725
1671,7657143,1.237934,0.254126,-0.6686821,24.6575,-13.475,-6.615
1672,7657240,1.303814,0.236314,-0.71614,22.82,-0.315,0.6475
1673,7657337,1.334558,0.168482,-0.6390359999999999,39.935,-4.06,9.24
1674,7657433,1.192672,0.026474,-0.446276,49.9275,-3.99,11.76
1675,7657530,1.002474,-0.151158,-0.41760600000000003,52.2025,-4.6025,14.0175
1676,7657627,0.834724,-0.359046,-0.49702799999999997,41.8775,-25.8125,14.8925
1677,7657724,0.78385,-0.479338,-0.49702799999999997,24.7975,-44.31,17.36
1678,7657820,0.813862,-0.445788,-0.45554799999999995,6.3525,-46.0425,23.9575
