,T,ax,ay,az,gx,gy,gz
0,131509,0.5307,-0.284992,-0.534604,18.025,-17.605,-20.86
1,131659,0.5673,-0.275476,-0.652456,-40.32,-4.165,-288.54
2,131757,0.611952,-0.281332,-0.697108,-10.0975,-98.7175,-352.625
3,131855,0.611464,-0.282552,-0.7007680000000001,32.13,-103.32,-83.94751
4,131953,0.6141479999999999,-0.28377199999999997,-0.7027201,3.7625,-6.265,-6.09
5,132051,0.611952,-0.281088,-0.703696,3.2375,-4.8825,-4.97
6,132149,0.612684,-0.285724,-0.698328,3.15,-4.83,-5.04
7,132247,0.613416,-0.2867,-0.699792,2.9225,-4.865,-4.9875
8,132345,0.611464,-0.28694400000000003,-0.703696,2.87,-4.9175,-5.075
9,132443,0.6141479999999999,-0.28621199999999997,-0.7015,2.73,-4.8125,-5.2325
10,132542,0.615368,-0.285236,-0.70394,2.7475,-4.655,-5.1625
11,132640,0.614636,-0.285724,-0.70394,2.765,-4.515,-5.18
12,132738,0.613416,-0.286456,-0.702476,2.7825,-4.305,-5.11
13,132836,0.612684,-0.286456,-0.702232,2.7475,-4.2,-4.9175
14,132934,0.6117081,-0.29158,-0.6985720999999999,2.8,-4.2175,-4.9525
15,133032,0.61488,-0.289628,-0.699548,2.5375,-4.0075,-5.0575
16,133130,0.612196,-0.291824,-0.70028,2.45,-4.06,-5.2325
17,133228,0.615368,-0.290848,-0.698816,2.24,-4.0775,-5.39
18,133326,0.614392,-0.29036,-0.7007680000000001,2.1,-4.235,-5.53
19,133424,0.61488,-0.289628,-0.697596,2.03,-4.27,-5.5125
20,133522,0.6124400999999999,-0.289628,-0.701012,1.8375,-4.1825,-5.6
21,133620,0.612684,-0.2928,-0.69906,1.645,-4.2175,-5.67
22,133718,0.612684,-0.293532,-0.698816,1.5575,-4.2875,-5.7925
23,133816,0.6124400999999999,-0.2928,-0.69784,1.4875,-4.305,-5.81
24,133914,0.6158561,-0.292068,-0.697108,1.2775,-4.375,-6.055
25,134012,0.6170760000000001,-0.290604,-0.69906,1.155,-4.1475,-6.1075
26,134110,0.634644,-0.334036,-0.7217521,1.2075,-4.0425,-6.335
27,134209,0.61488,-0.288652,-0.6856399999999999,-0.805,-3.4475,-7.315
28,134307,0.612928,-0.296216,-0.6980841,1.4,-4.27,-6.265
29,134405,0.616588,-0.288652,-0.69906,1.085,-4.2525,-6.405
30,134503,0.616344,-0.291824,-0.698328,0.8400001,-4.1475,-6.475
31,134601,0.6182960999999999,-0.288652,-0.6993041,0.9275,-4.1825,-6.5275
32,134699,0.61732,-0.288652,-0.698328,0.8225,-4.095,-6.6325
33,134797,0.617564,-0.290116,-0.6985720999999999,0.8925,-4.165,-6.615
34,134895,0.6131721,-0.294508,-0.698328,0.91,-4.27,-6.6675
35,134993,0.616588,-0.290604,-0.69906,0.8400001,-4.34,-6.93
36,135091,0.619028,-0.290116,-0.69784,0.7175,-4.3925,-7.0
37,135189,0.620736,-0.2928,-0.6939361,0.7525,-4.445,-7.035
38,135287,0.62098,-0.290604,-0.69784,0.63,-4.48,-7.0525
39,135385,0.62098,-0.29036,-0.697596,0.665,-4.62,-6.9125
40,135483,0.6202479999999999,-0.288896,-0.6958880000000001,0.525,-4.8475,-6.8775
41,135581,0.619272,-0.290848,-0.696376,0.2625,-5.005,-6.685
42,135679,0.6182960999999999,-0.292068,-0.696132,0.3675,-5.18,-6.86
43,135777,0.619516,-0.290116,-0.693692,0.245,-5.425,-7.035
44,135875,0.6197600000000001,-0.28987199999999996,-0.6939361,0.14,-5.5825,-7.175
45,135973,0.620004,-0.29133600000000004,-0.6973520000000001,-0.0175,-5.7575,-7.21
46,136071,0.618784,-0.290848,-0.696132,-0.035,-5.8625,-7.2975
47,136169,0.617564,-0.29036,-0.696376,-0.105,-5.95,-7.4725
48,136267,0.618052,-0.28914,-0.697108,-0.2625,-6.16,-7.5775
49,136366,0.61854,-0.28914,-0.696132,-0.2975,-6.2475,-7.4725
50,136464,0.619028,-0.288896,-0.6985720999999999,-0.3325,-6.2825,-7.525
51,136562,0.6197600000000001,-0.290116,-0.6993041,-0.2975,-6.335,-7.6125
52,136660,0.618052,-0.287432,-0.6980841,-0.245,-6.16,-7.63
53,136758,0.61854,-0.287432,-0.69784,-0.1225,-6.125,-7.665
54,136856,0.6170760000000001,-0.287432,-0.696864,0.035,-6.125,-7.595
55,136954,0.618052,-0.2867,-0.6973520000000001,-0.07,-6.055,-7.5425
56,137052,0.618784,-0.288652,-0.69662,0.0175,-6.125,-7.455
57,137150,0.618052,-0.2867,-0.6956439999999999,-0.0175,-6.195,-7.455
58,137248,0.6219561,-0.285968,-0.6958880000000001,-0.0875,-6.2475,-7.525
59,137346,0.618784,-0.28694400000000003,-0.697596,0.0175,-6.195,-7.385
60,137444,0.620492,-0.28377199999999997,-0.697596,-0.0175,-6.195,-7.3675
61,137542,0.620004,-0.284504,-0.6985720999999999,0.07,-6.09,-7.385
62,137640,0.620492,-0.285236,-0.697596,0.21,-5.985,-7.14
63,137738,0.620492,-0.285236,-0.697108,0.3675,-6.02,-7.035
64,137836,0.621468,-0.28426,-0.6973520000000001,0.4725,-5.95,-6.9475
65,137934,0.620004,-0.282308,-0.6954,0.63,-5.845,-6.895
66,138033,0.620004,-0.285236,-0.695156,0.7,-5.775,-6.79
67,138131,0.620736,-0.285968,-0.6956439999999999,0.665,-5.8625,-6.825
68,138229,0.61732,-0.288408,-0.696864,0.7,-5.8625,-6.755
69,138327,0.62098,-0.284748,-0.69662,0.6475,-5.8625,-6.825
70,138425,0.619272,-0.28548,-0.696864,0.7175,-5.95,-6.8075
71,138523,0.620004,-0.284504,-0.694912,0.735,-5.7925,-6.755
72,138621,0.6202479999999999,-0.286456,-0.6954,0.6825,-5.8275,-6.685
73,138719,0.616588,-0.287188,-0.696864,0.665,-5.81,-6.8075
74,138817,0.619516,-0.284504,-0.696132,0.595,-5.7575,-6.86
75,138915,0.6182960999999999,-0.28377199999999997,-0.6985720999999999,0.665,-5.88,-6.93
76,139013,0.619272,-0.28548,-0.6956439999999999,0.7,-5.81,-6.9125
77,139111,0.616588,-0.288896,-0.6958880000000001,0.6475,-5.8625,-6.9125
78,139209,0.6182960999999999,-0.284504,-0.6954,0.595,-5.88,-6.895
79,139307,0.6197600000000001,-0.2867,-0.69418,0.56,-5.7925,-6.9825
80,139405,0.6182960999999999,-0.28767600000000004,-0.696864,0.5775,-5.8275,-7.07
81,139503,0.6197600000000001,-0.284992,-0.695156,0.455,-5.8625,-7.0175
82,139601,0.6197600000000001,-0.284992,-0.6956439999999999,0.42,-5.845,-7.105
83,139699,0.620492,-0.285968,-0.697596,0.4025,-5.845,-7.1225
84,139797,0.619028,-0.28548,-0.696376,0.385,-5.8625,-7.1925
85,139895,0.6178081,-0.28792,-0.696864,0.4025,-5.8625,-7.0875
86,139993,0.6202479999999999,-0.28377199999999997,-0.696376,0.385,-5.9325,-7.07
87,140091,0.6202479999999999,-0.285724,-0.696132,0.28,-5.9325,-7.2275
88,140189,0.62098,-0.28426,-0.6980841,0.385,-5.9675,-7.245
89,140287,0.621468,-0.28426,-0.696864,0.2975,-6.02,-7.1925
90,140386,0.61854,-0.285968,-0.69662,0.175,-6.09,-7.2275
91,140484,0.619516,-0.28548,-0.696376,0.1225,-6.1775,-7.2275
92,140582,0.620492,-0.284016,-0.694912,0.0175,-6.3175,-7.245
93,140680,0.618052,-0.28548,-0.697108,-0.035,-6.4925,-7.35
94,140778,0.619516,-0.28377199999999997,-0.6980841,-0.21,-6.7375,-7.455
95,140876,0.620004,-0.284016,-0.697108,-0.315,-6.86,-7.3675
96,140974,0.6202479999999999,-0.284504,-0.6956439999999999,-0.56,-7.0525,-7.5075
97,141072,0.618052,-0.28377199999999997,-0.6980841,-0.7,-7.2275,-7.6475
98,141170,0.61854,-0.28157600000000005,-0.69784,-0.7525,-7.21,-7.63
99,141268,0.6178081,-0.281332,-0.7005239999999999,-0.7175,-7.28,-7.665
100,141366,0.6182960999999999,-0.279624,-0.698328,-0.595,-7.07,-7.595
101,141464,0.6178081,-0.280356,-0.700036,-0.49,-6.93,-7.455
102,141562,0.6178081,-0.281332,-0.701256,-0.35,-6.86,-7.35
103,141660,0.6158561,-0.282064,-0.7027201,-0.1925,-6.7375,-7.35
104,141758,0.6178081,-0.279868,-0.7015,-0.07,-6.65,-7.2625
105,141856,0.61488,-0.282308,-0.7027201,0.0525,-6.615,-7.1225
106,141954,0.61854,-0.27889200000000003,-0.701012,0.0525,-6.615,-7.1225
107,142053,0.6182960999999999,-0.27816,-0.701012,0.035,-6.5275,-7.105
108,142151,0.61732,-0.27938,-0.701012,0.07,-6.475,-7.0175
109,142249,0.6178081,-0.27938,-0.70028,0.175,-6.3875,-7.0
110,142347,0.616588,-0.27816,-0.7007680000000001,0.28,-6.44,-6.93
111,142445,0.616344,-0.277916,-0.7017439999999999,0.315,-6.37,-6.895
112,142543,0.617564,-0.278404,-0.7017439999999999,0.3325,-6.3875,-6.93
113,142641,0.616588,-0.280356,-0.701012,0.385,-6.3175,-6.86
114,142739,0.613416,-0.280844,-0.703696,0.3675,-6.3,-6.965
115,142837,0.615124,-0.280844,-0.7019880000000001,0.385,-6.1775,-7.0
116,142935,0.6168319999999999,-0.278648,-0.7005239999999999,0.4375,-6.265,-6.8775
117,143033,0.616588,-0.278404,-0.7005239999999999,0.4025,-6.195,-6.8775
118,143131,0.61732,-0.279136,-0.701256,0.4725,-6.1775,-6.93
119,143229,0.6168319999999999,-0.276208,-0.7005239999999999,0.455,-6.265,-6.895
120,143327,0.615368,-0.282796,-0.7019880000000001,0.3675,-6.16,-6.9475
121,143425,0.6141479999999999,-0.279624,-0.702476,0.4375,-6.2475,-6.8775
122,143523,0.61366,-0.280356,-0.702476,0.455,-6.2825,-6.965
123,143621,0.61366,-0.27938,-0.702476,0.315,-6.2825,-7.035
124,143719,0.6158561,-0.27938,-0.7015,0.4025,-6.3175,-7.0
125,143817,0.6168319999999999,-0.28011199999999997,-0.7015,0.4375,-6.23,-6.895
126,143915,0.616344,-0.278648,-0.7015,0.5425,-6.0725,-6.8075
127,144013,0.615368,-0.279624,-0.7015,0.63,-6.02,-6.93
128,144111,0.618052,-0.278648,-0.701256,0.6475,-5.9675,-6.86
129,144209,0.6158561,-0.278648,-0.701012,0.7,-5.8975,-6.7725
130,144307,0.61732,-0.277672,-0.701012,0.63,-5.845,-6.72
131,144405,0.614392,-0.28011199999999997,-0.7019880000000001,0.5775,-5.7925,-6.755
132,144504,0.615124,-0.279624,-0.701256,0.63,-5.9325,-6.8075
133,144602,0.613416,-0.28181999999999996,-0.702232,0.7,-5.8975,-6.8075
134,144700,0.61488,-0.277428,-0.702964,0.7175,-5.8275,-6.7375
135,144798,0.615124,-0.2806,-0.701256,0.7875,-5.8625,-6.72
136,144896,0.613416,-0.27938,-0.7034521,0.6825,-5.8625,-6.755
137,144994,0.6156119999999999,-0.276208,-0.7027201,0.7175,-5.74,-6.7725
138,145092,0.61488,-0.278404,-0.701256,0.8400001,-5.775,-6.6675
139,145190,0.6168319999999999,-0.27938,-0.701256,0.9625,-5.7575,-6.51
140,145288,0.618052,-0.27718400000000004,-0.7032079999999999,1.0675,-5.74,-6.5275
141,145386,0.6170760000000001,-0.27694,-0.702232,1.19,-5.6175,-6.4575
142,145484,0.6178081,-0.278404,-0.701012,1.26,-5.5475,-6.37
143,145582,0.6141479999999999,-0.278404,-0.7044279999999999,1.365,-5.6175,-6.335
144,145680,0.617564,-0.28011199999999997,-0.7015,1.365,-5.4775,-6.335
145,145778,0.612684,-0.281088,-0.7017439999999999,1.33,-5.565,-6.2475
146,145876,0.616344,-0.278648,-0.7007680000000001,1.3475,-5.53,-6.2125
147,145974,0.614392,-0.279136,-0.7041841,1.505,-5.4075,-6.23
148,146072,0.61488,-0.28157600000000005,-0.702232,1.61,-5.5125,-6.335
149,146170,0.614392,-0.279624,-0.703696,1.645,-5.4075,-6.195
150,146269,0.6156119999999999,-0.27938,-0.7017439999999999,1.68,-5.4775,-6.1075
151,146367,0.618052,-0.27938,-0.701012,1.7325,-5.5125,-6.195
152,146465,0.614636,-0.2806,-0.702232,1.8375,-5.4075,-6.09
153,146563,0.6156119999999999,-0.281088,-0.701012,1.9075,-5.4775,-6.195
154,146661,0.613416,-0.282308,-0.7017439999999999,1.9425,-5.5825,-6.16
155,146759,0.61366,-0.280844,-0.7027201,2.135,-5.46,-6.0025
156,146857,0.61488,-0.282308,-0.7017439999999999,2.345,-5.3725,-5.8625
157,146955,0.6156119999999999,-0.282064,-0.701256,2.5375,-5.3025,-5.8975
158,147053,0.615368,-0.282796,-0.701256,2.66,-5.2325,-5.7925
159,147151,0.615124,-0.282308,-0.701256,2.87,-5.2675,-5.81
160,147249,0.6124400999999999,-0.282308,-0.701012,3.01,-5.285,-5.7225
161,147347,0.611952,-0.284504,-0.70028,3.115,-5.18,-5.7225
162,147445,0.616588,-0.28181999999999996,-0.698328,3.15,-5.1975,-5.775
163,147543,0.618052,-0.284748,-0.7015,3.325,-5.1275,-5.6525
164,147641,0.61488,-0.284016,-0.7027201,3.815,-5.145,-5.5125
165,147739,0.61488,-0.285968,-0.701256,4.1475,-5.2325,-5.495
166,147837,0.620004,-0.287432,-0.705404,4.6025,-5.145,-5.4775
167,147935,0.6156119999999999,-0.287188,-0.702232,5.425,-5.11,-5.2675
168,148033,0.6170760000000001,-0.28621199999999997,-0.7032079999999999,6.3175,-4.9525,-5.005
169,148131,0.62098,-0.288408,-0.703696,7.2275,-4.9,-4.7775
170,148229,0.619272,-0.290116,-0.705404,8.12,-4.8125,-4.445
171,148328,0.619272,-0.28767600000000004,-0.702476,9.45,-4.7425,-4.235
172,148426,0.615368,-0.292312,-0.7005239999999999,10.6225,-4.69,-3.85
173,148524,0.618052,-0.29377600000000004,-0.6944241,11.1125,-4.655,-3.78
174,148622,0.613904,-0.29524,-0.6944241,11.025,-4.6375,-3.7975
175,148720,0.6202479999999999,-0.296948,-0.6993041,11.1125,-4.5675,-3.745
176,148818,0.619516,-0.29792399999999997,-0.692716,11.48,-4.6375,-3.5875
177,148916,0.620492,-0.30378,-0.6917399999999999,11.9,-5.1275,-3.325
178,149014,0.614392,-0.303048,-0.6883239999999999,11.6725,-5.7225,-3.1325
179,149112,0.612928,-0.30744,-0.6834439999999999,11.06,-6.1075,-3.185
180,149210,0.621224,-0.30012,-0.6954,10.4475,-6.405,-3.2375
181,149308,0.6222,-0.3111,-0.693448,10.6925,-7.0175,-3.01
182,149406,0.617564,-0.30622,-0.6897880999999999,10.7625,-7.315,-2.765
183,149504,0.6158561,-0.30841599999999997,-0.691008,10.6225,-7.84,-2.66
184,149602,0.618052,-0.310856,-0.688812,10.0975,-8.26,-2.765
185,149700,0.6158561,-0.310856,-0.68808,10.08,-8.68,-2.73
186,149798,0.619516,-0.31012399999999996,-0.691008,10.01,-9.065,-2.625
187,149896,0.6202479999999999,-0.311832,-0.6944241,10.1675,-9.6775,-2.5025
188,149994,0.6197600000000001,-0.313052,-0.6902761,10.395,-10.3075,-2.4325
189,150092,0.60878,-0.318664,-0.686616,10.3075,-10.955,-2.5025
190,150190,0.6109760000000001,-0.322324,-0.6954,10.1675,-11.1825,-2.695
191,150289,0.6224441,-0.316712,-0.70028,10.7625,-11.2875,-2.5375
192,150387,0.618052,-0.31598000000000004,-0.69418,11.935,-12.005,-2.135
193,150485,0.6058520000000001,-0.325008,-0.6883239999999999,12.53,-12.565,-2.1
194,150583,0.609024,-0.3233,-0.6851520999999999,12.4425,-12.705,-2.2225
195,150681,0.598532,-0.330864,-0.6946681,11.935,-12.5825,-2.52
196,150779,0.604632,-0.343308,-0.6912520000000001,11.795,-12.495,-2.695
197,150877,0.60634,-0.33379200000000003,-0.6912520000000001,11.935,-12.6,-2.6075
198,150975,0.602436,-0.332816,-0.6897880999999999,12.1625,-13.16,-2.6075
199,151073,0.58804,-0.343308,-0.686372,12.5125,-13.8075,-2.3275
200,151171,0.586088,-0.345504,-0.686616,11.375,-13.475,-2.765
201,151269,0.592188,-0.343064,-0.68686,10.5175,-13.0375,-3.0975
202,151367,0.5885281,-0.343796,-0.686128,9.7475,-12.67,-3.325
203,151465,0.592188,-0.349896,-0.687104,9.24,-12.425,-3.5525
204,151563,0.610244,-0.344528,-0.69906,8.9775,-12.3725,-3.5875
205,151661,0.604388,-0.345748,-0.6912520000000001,9.73,-13.1075,-3.43
206,151759,0.58682,-0.353068,-0.684176,9.8175,-13.895,-3.395
207,151857,0.576328,-0.348432,-0.6851520999999999,8.8375,-13.6325,-3.7275
208,151955,0.572912,-0.349896,-0.6844201,7.6825,-12.9325,-4.2175
209,152053,0.5736441,-0.35526399999999997,-0.685396,6.615,-12.2675,-4.55
210,152151,0.5777920999999999,-0.351848,-0.687104,5.6175,-11.725,-5.0225
211,152250,0.5751081,-0.351848,-0.68808,4.7775,-11.095,-5.3025
212,152348,0.5875520000000001,-0.35843600000000003,-0.69662,4.445,-10.5,-5.355
213,152446,0.58804,-0.35014,-0.695156,4.4275,-10.535,-5.39
214,152544,0.58194,-0.357216,-0.6917399999999999,4.4275,-10.535,-5.4775
215,152642,0.584136,-0.356484,-0.695156,4.305,-10.1675,-5.46
216,152740,0.5814520000000001,-0.352092,-0.6919841,4.13,-10.01,-5.355
217,152838,0.573156,-0.351848,-0.6878361,3.8675,-9.7475,-5.5475
218,152936,0.5697399999999999,-0.354532,-0.687348,3.3075,-9.24,-5.7225
219,153034,0.569984,-0.357216,-0.685396,2.6775,-8.4525,-5.985
220,153132,0.572912,-0.355752,-0.687104,2.135,-7.6475,-6.23
221,153230,0.5734,-0.354044,-0.686616,1.7675,-7.07,-6.37
222,153328,0.5694961,-0.35868,-0.687104,1.225,-6.4575,-6.5975
223,153426,0.570716,-0.35843600000000003,-0.68808,0.7875,-5.705,-6.79
224,153524,0.57462,-0.35843600000000003,-0.6912520000000001,0.2625,-5.1275,-7.035
225,153622,0.580964,-0.356484,-0.694912,-0.035,-4.76,-7.105
226,153720,0.58316,-0.357704,-0.6944241,0.1925,-4.655,-7.175
227,153818,0.585112,-0.35868,-0.69662,0.2625,-4.7425,-7.035
228,153916,0.583648,-0.355752,-0.6973520000000001,0.5075,-4.9525,-6.965
229,154014,0.593896,-0.357948,-0.702964,0.7175,-5.3025,-6.965
230,154112,0.587796,-0.35477600000000004,-0.694912,1.05,-5.985,-6.6675
231,154210,0.5795,-0.35843600000000003,-0.6917399999999999,1.1725,-6.4575,-6.65
232,154309,0.58316,-0.357948,-0.6946681,0.9625,-6.37,-6.755
233,154407,0.588284,-0.354532,-0.69784,0.9975,-6.4225,-6.79
234,154505,0.5968241,-0.357948,-0.7068681,1.155,-6.65,-6.7025
235,154603,0.6009720000000001,-0.355752,-0.7034521,1.6975,-7.4375,-6.405
236,154701,0.604144,-0.373564,-0.6822239999999999,2.5725,-9.1875,-6.545
237,154799,0.5885281,-0.35868,-0.700036,3.1675,-10.4125,-6.2475
238,154897,0.596336,-0.35843600000000003,-0.7076001000000001,3.5875,-10.9375,-5.705
239,154995,0.614636,-0.366732,-0.721508,3.5875,-12.075,-5.5825
240,155093,0.619272,-0.381128,-0.7176041,3.71,-14.3325,-4.9875
241,155191,0.6307401,-0.386496,-0.7285841,3.64,-16.8525,-4.3925
242,155289,0.630252,-0.374784,-0.724924,3.29,-20.0725,-3.4125
243,155387,0.62952,-0.382348,-0.729804,3.045,-23.4675,-2.835
244,155485,0.61,-0.384544,-0.731024,2.5025,-26.285,-2.345
245,155583,0.6182960999999999,-0.384788,-0.7376119999999999,2.4325,-28.735,-1.89
246,155681,0.61854,-0.377224,-0.74054,2.3275,-31.36,-1.19
247,155779,0.599508,-0.373808,-0.736392,2.7125,-34.02,-0.56
248,155877,0.549732,-0.36575599999999997,-0.7283400999999999,2.765,-36.2775,0.105
249,155975,0.504836,-0.344528,-0.7176041,3.4475,-36.715,0.5075
250,156074,0.5170359999999999,-0.334036,-0.726876,4.1825,-35.455,0.805
251,156172,0.525088,-0.34038,-0.731024,6.1775,-34.02,0.8575
252,156270,0.502152,-0.361852,-0.726388,6.6675,-33.985,0.805
253,156368,0.508008,-0.36722,-0.707112,7.455,-32.1475,1.2425
254,156466,0.5248441,-0.373808,-0.7237041,6.7375,-30.4675,1.225
255,156564,0.513376,-0.371856,-0.7200439999999999,6.3875,-29.225,1.0325
256,156662,0.5009319999999999,-0.376248,-0.7137001000000001,5.425,-28.42,0.63
257,156760,0.48385200000000006,-0.366732,-0.7027201,4.2525,-27.1075,-0.2975
258,156858,0.484828,-0.36844,-0.7034521,3.2025,-25.27,-1.12
259,156956,0.472384,-0.366732,-0.7027201,2.3975,-23.0825,-1.89
260,157054,0.46506400000000003,-0.36282800000000004,-0.70394,1.96,-20.72,-2.7475
261,157152,0.487512,-0.368684,-0.715164,1.33,-18.5675,-3.57
262,157250,0.48995200000000005,-0.372344,-0.7195560000000001,2.03,-16.4675,-4.13
263,157348,0.47165200000000007,-0.37454,-0.715164,1.645,-15.155,-4.4625
264,157446,0.478972,-0.371368,-0.715164,1.1375,-13.6325,-5.075
265,157544,0.487756,-0.374052,-0.721996,0.875,-11.9175,-5.7225
266,157642,0.48922,-0.37332,-0.7178479999999999,0.77,-10.395,-6.2475
267,157740,0.475312,-0.370148,-0.7200439999999999,0.77,-8.8025,-6.6325
268,157839,0.486048,-0.374784,-0.731268,0.805,-7.4025,-6.9825
269,157937,0.488976,-0.373564,-0.730292,1.05,-6.4225,-7.21
270,158035,0.486048,-0.37551599999999996,-0.726144,1.0325,-5.7225,-7.4725
271,158133,0.48848800000000003,-0.374052,-0.7283400999999999,1.0325,-4.55,-7.665
272,158231,0.48165600000000003,-0.37088000000000004,-0.721264,0.8400001,-3.675,-7.945
273,158329,0.48116800000000004,-0.372832,-0.7195560000000001,0.4725,-2.59,-8.435
274,158427,0.478728,-0.36892800000000003,-0.716384,-0.245,-1.3125,-8.925
275,158525,0.47946000000000005,-0.370392,-0.71614,-0.91,0.0175,-9.625
276,158623,0.487756,-0.372832,-0.72468,-1.2075,1.085,-10.1675
277,158721,0.48995200000000005,-0.373564,-0.7224841,-1.68,2.0825,-10.64
278,158819,0.490684,-0.369172,-0.7239479999999999,-2.0125,2.8525,-11.2525
279,158917,0.48824399999999996,-0.36892800000000003,-0.7166279999999999,-2.625,3.6575,-11.7425
280,159015,0.489464,-0.366732,-0.7178479999999999,-3.15,4.655,-12.4075
281,159113,0.48678,-0.360632,-0.715164,-3.8325,5.7925,-12.915
282,159211,0.477996,-0.35038400000000003,-0.707112,-4.3925,7.245,-13.7375
283,159309,0.485072,-0.353068,-0.715164,-4.4275,8.995,-14.6125
284,159407,0.47946000000000005,-0.33184,-0.720532,-4.445,10.64,-15.61
285,159505,0.4697,-0.34526,-0.715164,-3.815,12.3725,-16.52
286,159603,0.437004,-0.319152,-0.696864,-2.94,15.2425,-17.045
287,159701,0.44847200000000004,-0.284748,-0.708332,-1.75,19.6525,-18.69
288,159799,0.428708,-0.305244,-0.7095520000000001,2.135,25.41,-19.5475
289,159897,0.441884,-0.27694,-0.73688,6.0025,31.045,-19.46
290,159996,0.44505600000000006,-0.222284,-0.780312,11.55,35.77,-20.58
291,160094,0.787144,-0.575596,-0.961116,15.8025,39.34,-23.625
292,160192,0.782752,-0.64904,-0.578036,-14.945,36.1725,-21.0525
293,160290,0.519964,-0.449692,-0.6453800000000001,-17.43,27.6675,-13.86
294,160388,0.472872,-0.45871999999999996,-0.750788,-22.085,29.365,-18.165
295,160486,0.697108,-0.52704,-0.694912,-27.545,33.74,-25.6025
296,160584,0.59536,-0.538752,-0.640012,-31.57,38.8675,-37.625
297,160682,0.484828,-0.38966799999999996,-0.94306,-21.07,39.0775,-52.57
298,160780,0.49751599999999996,-0.223504,-1.210972,1.2425,38.64,-69.93
299,160878,0.457012,-0.25742,-1.00894,34.93,44.24,-87.185
300,160976,0.6097560000000001,-0.527528,-0.8652241,56.2275,54.635,-103.53
301,161074,0.7639640999999999,-0.769088,-0.7761640999999999,73.01,61.1275,-118.265
302,161172,0.69418,-1.1538760000000001,-0.7451760000000001,80.92,63.525,-127.68
303,161270,0.792024,-1.5584280000000001,-0.9850280999999999,68.46,62.9475,-122.045
304,161368,0.5292359999999999,-1.594784,-0.9506241,38.6225,55.9475,-99.505
305,161466,0.236192,-1.4513120000000002,-0.8720559999999999,14.9275,50.9775,-66.71
306,161564,0.047580000000000004,-1.277096,-0.8759601,5.88,55.6675,-29.89
307,161662,-0.05587601,-1.137284,-0.973316,8.5225,63.0875,6.7375
308,161761,-0.124196,-1.017236,-1.11386,14.35,65.0825,40.53
309,161859,-0.195444,-0.8488761,-1.2312239999999999,16.2225,59.815,69.3525
310,161957,-0.260592,-0.6466,-1.314184,16.275,49.5075,92.47001
311,162055,-0.280356,-0.471896,-1.3834799999999998,17.465,37.485,109.9525
312,162153,-0.260836,-0.343064,-1.436672,19.3375,24.0975,122.2725
313,162251,-0.201544,-0.27084,-1.4842520000000001,19.0925,8.1725,129.815
314,162349,-0.134444,-0.20642399999999997,-1.507676,13.2125,-10.3075,132.8775
315,162447,-0.057339999999999995,-0.142008,-1.516216,3.08,-30.24,131.3375
316,162545,0.014396,-0.071004,-1.5001120000000001,-8.1375,-49.315,126.0525
317,162643,0.09345201,-0.024644,-1.474492,-18.0775,-66.60501,118.02
318,162741,0.17568,-0.013663999999999999,-1.441064,-25.06,-82.285,107.7125
319,162839,0.271084,-0.043676,-1.410564,-31.43,-96.63501,95.935
320,162937,0.334768,-0.09247601,-1.37006,-37.8175,-110.145,83.79001
321,163035,0.47482399999999997,-0.15982000000000002,-1.347124,-44.1,-123.375,71.19
322,163133,0.5577840000000001,-0.208132,-1.2944200000000001,-49.9625,-135.905,60.235
323,163231,0.635376,-0.25522399999999995,-1.22488,-54.1975,-147.6475,50.5575
324,163329,0.681492,-0.287432,-1.14192,-57.155,-157.465,41.3175
325,163427,0.7283400999999999,-0.316956,-1.0711600000000001,-58.1,-164.5175,32.3225
326,163525,0.784216,-0.34892,-1.005768,-57.19,-169.155,23.7475
327,163623,0.822768,-0.384544,-0.942816,-54.3025,-172.305,16.3625
328,163722,0.836676,-0.4209,-0.8586360000000001,-49.8925,-174.44,10.7625
329,163820,0.83936,-0.43358800000000003,-0.758596,-45.115,-175.7175,6.79
330,163918,0.80886,-0.42212,-0.6497721,-39.235,-173.8625,5.425
331,164016,0.796172,-0.38186,-0.556808,-31.6925,-167.4225,7.0875
332,164114,0.815936,-0.343552,-0.49141599999999996,-22.05,-157.465,11.41
333,164212,0.84546,-0.33916,-0.412116,-11.865,-145.6175,16.45
334,164310,0.8930401,-0.346236,-0.337208,-5.8975,-132.16,20.2825
335,164408,0.9476959999999999,-0.332816,-0.251076,-6.685,-117.1275,22.1375
336,164506,0.999668,-0.310856,-0.17324,-13.4575,-101.2725,22.0325
337,164604,1.054568,-0.276696,-0.091012,-23.5375,-85.365,20.1425
338,164702,1.1028799999999999,-0.248148,-0.031964,-35.105,-69.37,16.8525
339,164800,1.1568040000000002,-0.207156,0.028792,-45.6925,-54.7575,12.3725
340,164898,1.1746159999999999,-0.170312,0.082472,-54.3375,-41.7375,7.1225
341,164996,1.166808,-0.130296,0.146644,-57.645,-28.8925,0.805
342,165094,1.171932,-0.11102000000000001,0.179096,-53.7775,-15.4875,-5.6175
343,165192,1.2043840000000001,-0.11321600000000001,0.183976,-42.3675,-2.0475,-11.13
344,165290,1.24196,-0.153476,0.161528,-27.51,10.1325,-16.17
345,165388,1.301984,-0.21618400000000002,0.11760799999999999,-13.335,20.1075,-22.295
346,165486,1.325896,-0.26303200000000004,0.09028,-2.8525,27.2125,-30.0125
347,165584,0.225944,-0.206668,-0.009516001,5.6875,31.465,-38.0275
348,165682,-0.406748,-1.34566,-2.271152,29.085,36.435,-54.25
349,165780,-1.637728,-0.10687200000000001,-0.21057199999999998,33.985,86.03,-68.1975
350,165878,-0.0051240009999999996,-0.533384,0.489708,74.515,147.35,-105.98
351,165976,1.8221919999999998,-0.9864921,-1.58356,51.66,179.8475,-119.6125
352,166075,0.895236,-0.72956,-0.773724,15.47,147.5775,-84.0525
353,166173,0.334524,-0.36722,-0.41577600000000003,15.8725,139.79,-48.6325
354,166271,1.257332,-0.518744,-0.711504,37.9575,158.2175,-25.8825
355,166369,1.226588,0.734196,-1.531588,34.9475,159.8975,-8.6275
356,166467,1.009916,0.727364,-1.617476,65.205,136.745,-13.72
357,166565,0.9940559999999999,-0.8113001,-0.74542,93.5725,109.6375,-32.725
358,166663,1.2214639999999999,-1.8419560000000001,-0.642696,97.8425,101.325,-28.2625
359,166761,0.8757159999999999,-0.8071520000000001,-0.9389120000000001,58.31,83.4925,-12.5475
360,166859,0.509472,-0.11955999999999999,-0.8620521000000001,19.6525,69.615,-14.385
361,166957,0.465796,-0.5614439999999999,-0.755912,38.5175,63.07,-21.1575
362,167055,1.0187,-1.0972680000000001,-0.7793359999999999,13.8075,63.0525,-12.74
363,167153,0.691496,-0.46433199999999997,-0.743224,-44.8,48.475,-6.055
364,167251,0.58194,-0.412116,-0.7056479999999999,-35.385,35.98,-13.965
365,167349,0.5499761,-0.542656,-0.6885680999999999,-38.5875,30.7825,-22.5225
366,167447,0.647332,-0.42822,-0.7241920000000001,-44.4675,26.95,-26.565
367,167545,0.6675840000000001,-0.4819,-0.7361481,-44.2225,20.09,-30.1175
368,167643,0.631228,-0.42016800000000004,-0.7266321,-45.08,12.6175,-31.4825
369,167741,0.617564,-0.36209600000000003,-0.767624,-43.05,8.0325,-30.9925
370,167839,0.632448,-0.35087199999999996,-0.760304,-38.92,4.6375,-29.645
371,167937,0.5926760999999999,-0.336964,-0.7468840999999999,-34.1425,1.365,-27.965
372,168036,0.576084,-0.346236,-0.74664,-30.8875,-0.455,-26.3375
373,168134,0.567056,-0.346236,-0.732244,-28.315,-1.33,-24.8325
374,168232,0.5502199999999999,-0.35672800000000005,-0.718824,-27.09,-1.33,-23.765
375,168330,0.53314,-0.368684,-0.7034521,-27.44,-0.0525,-23.94
376,168428,0.543876,-0.360144,-0.71736,-28.84,1.54,-24.7625
377,168526,0.53192,-0.373076,-0.7056479999999999,-29.6625,2.0475,-25.7075
378,168624,0.542412,-0.35502,-0.724436,-29.925,3.4475,-27.195
379,168722,0.585112,-0.335012,-0.740052,-29.4,4.1825,-28.7175
380,168820,0.5826720000000001,-0.305,-0.7227279999999999,-28.21,2.31,-30.24
381,168918,0.559736,-0.35038400000000003,-0.706136,-25.34,-0.315,-31.0975
382,169016,0.5843801,-0.322812,-0.709064,-28.4725,-0.3325,-31.4475
383,169114,0.5797441,-0.295484,-0.735416,-30.45,-0.7175,-29.925
384,169212,0.576328,-0.30353600000000003,-0.7415161,-30.205,-0.49,-27.545
385,169310,0.59292,-0.29987600000000003,-0.7417600000000001,-30.7825,-0.105,-25.795
386,169408,0.585356,-0.288164,-0.739564,-28.9275,-0.2975,-24.5525
387,169506,0.5838920999999999,-0.27694,-0.748592,-26.985,-1.1025,-23.5725
388,169604,0.588284,-0.281088,-0.74054,-24.2025,-2.0125,-22.6975
389,169702,0.589504,-0.260104,-0.7537159999999999,-21.77,-2.7825,-22.47
390,169800,0.5843801,-0.270352,-0.743468,-18.41,-3.885,-22.4875
391,169898,0.587064,-0.271816,-0.742492,-15.8725,-4.3575,-23.345
392,169997,0.568032,-0.29426399999999997,-0.7373681,-13.4925,-4.0075,-24.2725
393,170095,0.5856,-0.269864,-0.739564,-12.6175,-3.185,-26.5125
394,170193,0.589016,-0.260348,-0.735416,-11.2,-2.415,-28.0525
395,170291,0.592432,-0.25132,-0.7415161,-9.38,-1.4175,-29.1375
396,170389,0.597312,-0.24107199999999998,-0.7378560000000001,-8.0675,0.175,-29.9075
397,170487,0.592188,-0.24082800000000001,-0.739564,-6.6325,2.17,-30.31
398,170585,0.5785241,-0.22277199999999997,-0.739564,-5.32,4.935,-31.0275
399,170683,0.574864,-0.258396,-0.745908,-3.395,8.68,-32.69
400,170781,0.550708,-0.200324,-0.7954399999999999,-3.0275,13.93,-34.65
401,170879,0.555832,-0.181292,-0.786656,-0.4025,21.595,-34.7725
402,170977,0.532896,-0.17055599999999999,-0.817156,6.3875,32.3575,-34.615
403,171075,0.55998,-0.155916,-0.81252,18.6025,43.82,-34.2125
404,171173,0.5453399999999999,-0.174948,-0.793488,21.805,56.245,-33.495
405,171271,0.556076,-0.17738800000000002,-0.809348,20.02,68.65250999999999,-33.145
406,171369,0.557052,-0.18104800000000001,-0.803248,24.92,81.27,-33.67
407,171467,0.6070720000000001,-0.216428,-0.844972,27.4925,97.1075,-35.315
408,171565,0.648308,-0.246928,-0.8115439999999999,32.27,116.2175,-38.0975
409,171663,0.51484,-0.20642399999999997,-0.7551800000000001,36.7675,137.9875,-43.33
410,171762,0.7956840999999999,-0.32256799999999997,-0.72712,34.1075,157.745,-51.205
411,171860,0.571204,-0.28792,-0.80642,45.815,194.285,-58.1525
412,171958,0.7883640000000001,-0.416264,-0.781776,51.1,236.915,-67.7425
413,172056,0.733464,-0.360388,-0.74054,55.51,281.505,-81.235
414,172154,0.76372,-0.32452,-0.7659161,53.305,335.9475,-95.1475
415,172252,0.7956840999999999,-0.351848,-0.807396,53.1125,403.0775,-104.23
416,172350,0.784216,-0.360144,-0.9232961,58.24,471.275,-115.43
417,172448,0.7881199999999999,-0.374296,-1.0262639999999998,53.3925,541.7825,-127.715
418,172546,1.073356,-0.506788,-0.9757561,50.7325,572.635,-140.2975
419,172644,2.148176,-0.644648,-0.8127641,44.9575,573.0025,-167.0025
420,172742,2.3602119999999998,-0.203496,-0.677344,43.4175,558.7575,-179.8475
421,172840,2.2831080000000004,-0.72956,-0.739808,52.36,511.2975,-170.415
422,172938,2.052772,-0.701012,-1.042368,81.235,445.655,-162.085
423,173036,1.779004,-1.100684,-1.554768,89.88,354.13,-170.94
424,173134,1.413736,-1.014308,-1.538664,46.9525,249.27,-122.6225
425,173232,2.5683439999999997,-0.9120720999999999,-1.576972,34.09,198.485,-98.3675
426,173330,3.144916,-1.6265040000000002,-2.9431279999999997,-23.31,200.2,-113.645
427,173428,1.137284,-1.368596,-2.769156,-33.8625,130.97,-79.9225
428,173527,0.9567241,-1.305888,-2.6993720000000003,-20.0025,-8.05,-13.265
429,173625,0.381616,-1.099952,-2.073024,-28.0,-104.755,21.21
430,173723,-0.049532,-0.8874280999999999,-1.581608,-45.7275,-150.5,33.39
431,173821,0.048068,-0.7415161,-1.436428,-48.125,-168.42,39.235
432,173919,0.182024,-0.674172,-1.370792,-46.7075,-185.3425,50.61
433,174017,0.345504,-0.6453800000000001,-1.3468799999999999,-41.9825,-212.5025,68.0575
434,174115,0.5441199999999999,-0.65514,-1.271728,-37.415,-246.26,88.34000999999999
435,174213,0.625616,-0.606096,-1.124596,-37.555,-282.6425,107.765
436,174311,0.68198,-0.548268,-0.9901521000000001,-41.755,-315.7525,123.585
437,174409,0.7734800000000001,-0.469944,-0.8908440999999999,-46.025,-341.0575,136.0975
438,174507,0.87718,-0.40504,-0.786412,-49.2625,-360.885,146.2125
439,174605,0.9118280000000001,-0.332084,-0.730536,-49.315,-375.0775,154.7875
440,174703,0.966728,-0.29158,-0.697596,-45.3425,-387.94,160.405
441,174801,1.0206520000000001,-0.28792,-0.692228,-40.88,-397.7925,162.5575
442,174899,1.073112,-0.302316,-0.7015,-35.9275,-402.78,162.19
443,174997,1.11752,-0.315492,-0.721996,-33.25,-405.1425,159.1625
444,175095,1.134844,-0.327936,-0.707356,-31.64,-405.2475,153.3
445,175193,1.1773,-0.294752,-0.711016,-29.6975,-401.415,144.4275
446,175291,1.328824,-0.24326799999999998,-0.775676,-22.855,-392.665,133.035
447,175389,1.5311,-0.241804,-0.8903561,-10.2025,-383.39,119.4375
448,175487,1.712636,-0.290848,-0.9806360000000001,7.2975,-379.0325,104.4925
449,175585,1.8317080000000001,-0.367464,-1.008208,24.5175,-379.0325,91.9275
450,175683,1.98738,-0.446276,-1.037488,37.275,-376.88,82.915
451,175782,2.390468,-0.560956,-1.123864,47.565,-374.9725,78.96
452,175880,2.82674,-0.5648601,-1.111908,54.7225,-376.6,82.32
453,175978,3.028284,-0.46506400000000003,-0.8884040000000001,56.315,-382.1825,91.175
454,176076,3.00486,-0.35526399999999997,-0.526308,55.51,-385.6125,97.405
455,176174,2.891644,-0.27571999999999997,-0.14152,48.02,-374.43,97.28251
456,176272,2.83894,-0.21374400000000002,0.204228,32.585,-346.3075,90.35251
457,176370,2.868464,-0.10540799999999999,0.522892,13.3,-306.1975,78.19
458,176468,2.900672,-0.03416,0.906216,-2.975,-261.2575,64.1025
459,176566,2.8726119999999997,0.009028000999999999,1.349564,-15.47,-216.1425,49.5775
460,176664,2.816736,0.10394400000000001,1.71776,-23.6775,-165.3225,35.8575
461,176762,2.817956,0.264252,1.832684,-20.86,-109.7775,28.56
462,176860,2.82186,0.344528,1.759728,-4.34,-57.33,30.695
463,176958,2.762324,0.35233600000000004,1.583804,7.6475,-11.9,34.4225
464,177056,2.358016,0.321592,1.356152,3.885,27.3875,29.89
465,177154,0.143228,-0.13785999999999998,0.473116,-56.735,125.475,-16.0125
466,177252,-1.294176,-0.0305,-2.954352,-60.06,232.12,-62.58
467,177350,0.306708,0.159088,1.166808,-26.1275,265.2125,-106.1375
468,177448,2.252364,0.544608,-1.443748,-69.1075,279.195,-154.6475
469,177546,1.40056,-0.24082800000000001,-1.200236,-25.375,253.435,-139.09
470,177644,0.950868,0.263764,-0.503128,-42.77,234.2725,-98.2975
471,177742,1.9539520000000001,0.333304,-1.8519599999999998,7.2625,245.0525,-80.045
472,177840,1.5913680000000001,-0.197152,-1.19804,-0.9625,199.4475,-121.03
473,177939,1.343708,-0.617564,-1.338584,5.5825,164.36,-97.825
474,178037,1.480592,-0.130052,-0.7861680999999999,-4.1125,153.51,-72.0825
475,178135,1.1087360000000002,-0.29597199999999996,-1.330044,11.9175,136.3775,-47.4775
476,178233,0.43676000000000004,-0.12444000000000001,-0.9677040000000001,11.445,117.5825,-41.4225
477,178331,1.0911680000000001,-1.136064,-1.7633880000000002,23.2575,118.93,-23.6425
478,178429,1.843664,-0.680516,-0.55266,-67.0075,102.7425,9.555
479,178527,1.359324,-0.41675200000000007,-1.129476,-51.0825,52.8325,-7.1225
480,178625,0.644648,-0.29792399999999997,-0.757864,-38.85,17.5175,-16.2575
481,178723,0.597068,-0.14396,-0.7259001,-15.6625,11.025,-13.755
482,178821,0.5975560000000001,-0.37258800000000003,-0.7378560000000001,-3.01,3.5175,-10.6225
483,178919,0.6117081,-0.338916,-0.7168720000000001,-3.535,3.8675,-8.3825
484,179017,0.5914560000000001,-0.35014,-0.7056479999999999,-0.2975,2.8175,-7.0175
485,179115,0.590236,-0.345016,-0.7068681,-0.7175,1.8725,-6.3875
486,179213,0.585112,-0.33671999999999996,-0.7005239999999999,-0.7175,1.155,-6.65
487,179311,0.58682,-0.335744,-0.696864,-1.435,1.0325,-7.0875
488,179409,0.5843801,-0.331108,-0.69662,-2.1175,0.5425,-7.735
489,179507,0.578036,-0.33013200000000004,-0.7005239999999999,-3.605,0.1925,-8.575
490,179605,0.5785241,-0.32208000000000003,-0.706624,-5.3025,0.035,-9.59
491,179704,0.57706,-0.317688,-0.7056479999999999,-7.5075,-0.07,-10.71
492,179802,0.580232,-0.32086,-0.7056479999999999,-9.065,-0.245,-11.7425
493,179900,0.5838920999999999,-0.323056,-0.7007680000000001,-10.3425,-0.56,-12.7925
494,179998,0.5799880000000001,-0.31524800000000003,-0.692228,-11.8475,-0.5425,-13.6325
495,180096,0.5797441,-0.321348,-0.6919841,-13.4225,-0.175,-14.3325
496,180194,0.5797441,-0.325252,-0.68198,-15.75,0.5075,-15.33
497,180292,0.584136,-0.322324,-0.68686,-17.9375,1.5575,-16.2225
498,180390,0.5946279999999999,-0.31842,-0.6734399999999999,-20.755,1.8025,-16.9225
499,180488,0.593896,-0.355996,-0.669048,-23.6775,0.0525,-17.7975
500,180586,0.607316,-0.321104,-0.6939361,-25.83,-1.715,-19.6875
501,180684,0.61,-0.2989,-0.7107720000000001,-25.69,-2.8875,-21.385
502,180782,0.603168,-0.293288,-0.7034521,-24.465,-3.955,-22.8725
503,180880,0.605608,-0.293044,-0.716384,-23.9225,-4.935,-24.1675
504,180978,0.562176,-0.282064,-0.7076001000000001,-23.3275,-6.3525,-25.2875
505,181076,0.614392,-0.296704,-0.7283400999999999,-23.1525,-7.7,-25.865
506,181174,0.590968,-0.296704,-0.7366361,-22.5225,-8.4875,-26.74
507,181272,0.587064,-0.301584,-0.7285841,-20.5625,-8.6275,-27.335
508,181370,0.587796,-0.2989,-0.7417600000000001,-19.005,-7.8925,-27.8775
509,181468,0.582184,-0.276696,-0.740296,-16.8525,-6.3875,-28.4375
510,181566,0.5799880000000001,-0.291824,-0.743468,-14.035,-5.0575,-30.3975
511,181665,0.6068279999999999,-0.252784,-0.7329760000000001,-12.3025,-2.73,-32.9175
512,181763,0.5941401,-0.26303200000000004,-0.733708,-9.8175,-0.4375,-33.74
513,181861,0.584868,-0.26108000000000003,-0.7468840999999999,-8.085,3.1675,-35.4725
514,181959,0.5838920999999999,-0.156404,-0.748836,-5.9325,9.8525,-38.1675
515,182057,0.538752,-0.23472800000000002,-0.814472,4.06,19.2675,-41.23
516,182155,0.6517241,-0.1403,-0.844972,8.3475,33.915,-41.5275
517,182253,0.605608,-0.1464,-0.84546,20.09,49.1225,-37.835
518,182351,0.569984,-0.10321199999999998,-0.8405800999999999,24.85,65.415,-35.665
519,182449,0.5743761,-0.139812,-0.853024,26.635,83.58001,-32.935
520,182547,0.576328,-0.195688,-0.8637601,32.7775,106.26,-31.29
521,182645,0.5724239999999999,-0.2257,-0.88328,41.3175,135.485,-33.1625
522,182743,0.7200439999999999,-0.280356,-0.9247601000000001,52.43,172.375,-37.135
523,182841,0.619272,-0.3355,-0.829356,66.8325,216.9475,-42.9275
524,182939,0.5131319999999999,-0.317932,-0.9079241,72.975,265.8075,-55.1775
525,183037,0.570472,-0.3599,-0.9296399999999999,81.83001,319.13,-71.8375
526,183135,0.485804,-0.423584,-0.940132,83.685,382.585,-90.14251
527,183233,0.7227279999999999,-0.427976,-1.010892,89.11,456.995,-116.5325
528,183331,0.751276,-0.296948,-1.185108,90.2475,549.29,-136.255
529,183429,0.887916,-0.35502,-1.035292,94.4825,573.3875,-137.935
530,183527,1.733132,-0.765184,-0.8874280999999999,100.8175,573.405,-134.89
531,183625,2.751588,-0.314272,-0.620004,111.3525,573.405,-132.3
532,183724,2.767204,-0.656848,-0.9030440000000001,113.3825,569.2924,-122.4125
533,183822,2.4378040000000003,-0.9577,-1.313452,117.3375,499.1525,-129.85
534,183920,1.717516,-1.204872,-1.843176,98.0175,357.175,-130.2175
535,184018,1.3947040000000002,-1.081164,-1.85684,33.6,245.56,-84.8575
536,184116,5.775723999999999,-1.461804,-1.998116,69.2475,230.615,-105.8225
537,184214,2.151348,-1.789984,-3.4550400000000003,-57.82,265.685,-142.765
538,184312,1.2658719999999999,-1.289052,-3.001932,-18.5675,142.275,-105.5425
539,184410,1.052616,-1.3729879999999999,-3.066104,-3.1325,-8.3475,-41.3875
540,184508,0.182268,-1.128256,-2.188924,-15.8025,-115.675,-6.7375
541,184606,-0.23887600000000003,-0.9142680000000001,-1.725812,-33.5475,-165.445,4.3575
542,184704,0.02074,-0.8679081,-1.569164,-43.3475,-186.4275,10.6575
543,184802,0.17397200000000002,-0.820572,-1.505968,-48.3,-207.5325,21.3325
544,184900,0.379176,-0.8030041,-1.436672,-50.225,-237.895,38.71
545,184998,0.533628,-0.7834840000000001,-1.322236,-52.6925,-275.695,59.15
546,185096,0.62708,-0.72712,-1.16632,-57.7675,-315.0175,78.47
547,185194,0.67588,-0.62952,-1.0016200000000002,-65.24,-348.3725,92.83751
548,185292,0.7166279999999999,-0.487756,-0.8652241,-68.3375,-373.3275,102.7775
549,185390,0.7893399999999999,-0.393084,-0.764696,-65.8175,-392.3675,111.125
550,185488,0.8954801,-0.35136,-0.7156520000000001,-56.4025,-406.525,119.315
551,185586,0.9708760000000001,-0.351848,-0.678808,-45.9725,-416.7275,125.7025
552,185685,1.0492,-0.385764,-0.6856399999999999,-37.31,-425.005,129.2375
553,185783,1.107272,-0.447496,-0.726388,-30.8875,-431.34,131.88
554,185881,1.186328,-0.511424,-0.762988,-27.335,-434.8225,134.505
555,185979,1.226588,-0.548268,-0.769576,-26.11,-434.4375,137.3575
556,186077,1.295396,-0.543388,-0.8108121,-25.9875,-430.2025,137.48
557,186175,1.517924,-0.5885281,-0.899384,-19.705,-422.905,135.6075
558,186273,1.8104799999999999,-0.648308,-1.005768,-11.9175,-417.9525,132.405
559,186371,2.03496,-0.6946681,-1.009428,-0.525,-417.6375,132.3
560,186469,2.204296,-0.768844,-0.972828,12.2675,-416.4475,136.8675
561,186567,2.4112080000000002,-0.87718,-0.89426,20.02,-409.5175,143.3775
562,186665,2.802584,-0.8752280000000001,-0.83814,20.4925,-395.9375,150.29
563,186763,3.2103080000000004,-0.71492,-0.697108,15.155,-382.165,156.625
564,186861,3.409168,-0.58072,-0.395768,11.83,-375.2175,157.6925
565,186959,3.349388,-0.480436,0.090768,7.0875,-365.9425,150.29
566,187057,3.365004,-0.37332,0.6344,-3.3775,-340.3925,132.615
567,187155,3.3491440000000003,-0.16835999999999998,1.188768,-14.7525,-298.0425,106.89
568,187253,3.336212,-0.052703999999999994,1.6521240000000001,-11.025,-246.6625,81.62001
569,187351,3.374276,-0.003904,1.94468,5.8625,-191.9575,65.3975
570,187449,3.325232,0.166652,2.138172,23.52,-137.9175,61.215
571,187548,3.1934720000000003,0.36356,2.21064,39.83,-85.505,61.4075
572,187646,3.0402400000000003,0.386496,2.125972,50.225,-33.11,54.915
573,187744,2.9829,0.31646799999999997,1.8031599999999999,43.155,18.795,34.3175
574,187842,2.225768,0.05929201,1.062132,28.4025,61.11,7.42
575,187940,-0.9137799999999999,-2.2457759999999998,-3.568744,-11.795,118.5625,-33.39
576,188038,-3.869596,-0.181292,0.14152,-111.5975,279.51,-77.175
577,188136,2.9309279999999998,1.0845799999999999,0.590968,-121.24,388.64,-155.925
578,188234,2.942884,-0.572912,-1.76778,-36.995,394.8525,-86.25751
579,188332,1.1746159999999999,0.80276,-0.353312,-47.46,345.4675,-22.1025
580,188430,2.662528,0.512888,-0.974292,0.665,350.8225,-5.1975
581,188528,3.4504040000000002,1.921012,-3.6055879999999996,13.5625,311.9375,-51.5725
582,188626,1.9358959999999998,-1.6357760000000001,-1.259772,115.4125,192.6925,-105.98
583,188724,0.771528,-0.7571321,-0.79422,28.56,174.2125,-60.025
584,188822,1.6897,-1.44692,-1.43228,16.8525,163.345,-26.495
585,188920,1.491328,-0.6292760000000001,-0.7820199999999999,-122.9375,127.9775,-12.88
586,189018,1.145092,-0.510936,-0.9567241,-73.7275,87.4125,-21.84
587,189116,1.168028,-0.41260399999999997,-0.927932,-82.3025,55.4575,-31.605
588,189214,0.8664440000000001,-0.20105599999999998,-0.8337481,-40.7575,23.1175,-34.0725
589,189312,0.671488,-0.36112,-0.7407841,-19.8625,5.74,-30.065
590,189410,0.621712,-0.396012,-0.7078439999999999,-14.245,0.525,-27.3175
591,189508,0.5873079999999999,-0.42333999999999994,-0.699548,-11.1125,-4.1475,-28.945
592,189606,0.630008,-0.366732,-0.685884,-12.425,-8.3125,-32.3575
593,189704,0.6058520000000001,-0.334036,-0.720288,-11.3225,-12.1625,-33.53
594,189802,0.591212,-0.306464,-0.7373681,-10.255,-13.4925,-33.2675
595,189900,0.605608,-0.299144,-0.7088201,-10.045,-12.0925,-30.94
596,189998,0.57828,-0.34111199999999997,-0.699548,-9.2225,-10.3075,-27.6325
597,190097,0.5826720000000001,-0.317444,-0.6985720999999999,-11.0775,-7.9975,-26.3025
598,190195,0.5941401,-0.30866,-0.6753920999999999,-13.65,-5.32,-24.605
599,190293,0.5777920999999999,-0.30475599999999997,-0.7178479999999999,-15.2775,-1.9775,-21.63
600,190391,0.58682,-0.308904,-0.6958880000000001,-16.59,1.1725,-19.67
601,190489,0.57584,-0.32208000000000003,-0.7041841,-17.395,2.73,-18.62
602,190587,0.5873079999999999,-0.327448,-0.676124,-20.02,3.57,-18.69
603,190685,0.586332,-0.31842,-0.687592,-22.4525,5.005,-19.2675
604,190783,0.6029241,-0.308904,-0.69662,-24.3775,6.4225,-19.5825
605,190881,0.6068279999999999,-0.284016,-0.72712,-25.4275,7.525,-19.565
606,190979,0.612684,-0.30134,-0.7134560999999999,-24.5175,7.91,-18.795
607,191077,0.6095119999999999,-0.30841599999999997,-0.715896,-22.8375,7.385,-18.9
608,191175,0.6161,-0.27816,-0.7227279999999999,-21.49,6.7025,-20.1775
609,191273,0.608536,-0.277916,-0.719312,-18.8825,5.32,-21.2275
610,191371,0.602436,-0.285968,-0.7198,-16.6425,3.745,-23.0825
611,191469,0.598532,-0.305732,-0.71492,-15.2075,3.045,-26.0225
612,191567,0.59902,-0.284748,-0.7241920000000001,-13.895,2.8875,-29.5925
613,191665,0.6541640000000001,-0.238144,-0.708576,-12.075,3.5,-32.69
614,191763,0.6378159999999999,-0.24351199999999998,-0.702232,-9.2575,4.1475,-35.5075
615,191861,0.612196,-0.251564,-0.734928,-4.62,6.1775,-37.1
616,191959,0.591212,-0.1403,-0.792512,-4.165,9.765,-37.765
617,192058,0.613904,-0.185196,-0.740296,1.6275,15.4175,-35.385
618,192156,0.602436,-0.20984,-0.772504,9.1,24.4825,-32.9175
619,192254,0.5934081,-0.192272,-0.796172,14.9625,36.365,-32.62
620,192352,0.565836,-0.185684,-0.7998321,19.355,50.26,-33.1275
621,192450,0.59902,-0.183488,-0.800564,19.7225,64.54,-33.9675
622,192548,0.658068,-0.192028,-0.790072,24.0275,80.85,-33.915
623,192646,0.57584,-0.165432,-0.8071520000000001,29.785,99.82,-32.69
624,192744,0.6502600000000001,-0.208864,-0.811056,34.0025,121.835,-32.025
625,192842,0.768356,-0.274988,-0.8344801,44.135,150.08,-33.39
626,192940,0.650748,-0.258152,-0.8596120999999999,57.1375,187.355,-36.6975
627,193038,0.7093081,-0.31158800000000003,-0.8720559999999999,70.21,232.05,-42.8925
628,193136,0.600484,-0.369904,-0.8310639999999999,80.5875,283.5875,-51.8525
629,193234,0.47775200000000007,-0.328912,-0.9311040999999999,88.69,341.25,-70.0525
630,193332,0.8030041,-0.394304,-0.927932,92.2075,411.4425,-91.49
631,193430,0.70028,-0.20252,-1.149484,89.79251,507.5,-104.79
632,193528,0.8291120999999999,-0.24424400000000002,-1.049444,99.68,569.3275,-101.045
633,193626,1.390068,-0.6724640000000001,-1.3664,104.6325,573.405,-89.495
634,193724,2.6703360000000003,-0.692228,-0.65758,128.31,573.405,-87.22
635,193822,2.702788,-0.400404,-0.569984,134.33,573.3875,-79.45
636,193921,2.7589080000000004,-0.609024,-1.1636360000000001,133.84,549.185,-84.1225
637,194019,2.2789599999999997,-1.2312239999999999,-1.7453319999999999,147.35,432.285,-71.61
638,194117,1.7219080000000002,-1.0345600000000001,-1.939068,120.645,281.4525,-56.035
639,194215,1.742648,-0.9964959999999999,-1.387872,126.035,200.0775,-38.325
640,194313,4.0582080000000005,-2.03862,-3.214212,67.7425,238.63,-97.475
641,194411,1.382992,-1.478884,-3.4550400000000003,-0.805,182.5075,-126.4025
642,194509,1.2317120000000001,-1.481324,-3.484808,22.89,15.2075,-67.585
643,194607,0.33671999999999996,-1.259772,-2.71084,3.4825,-111.37,-26.355
644,194705,-0.26961999999999997,-0.9806360000000001,-2.007388,-20.8775,-177.73,-10.0275
645,194803,0.008540001,-0.955992,-1.8663560000000001,-32.7775,-201.81,-0.315
646,194901,0.17812,-0.8964561,-1.785104,-41.1775,-224.805,14.5425
647,194999,0.418216,-0.870592,-1.682868,-47.285,-259.5425,36.645
648,195097,0.553636,-0.808372,-1.521828,-54.6175,-303.3275,61.355
649,195195,0.599996,-0.685884,-1.297104,-62.545,-345.415,82.6175
650,195293,0.6512359999999999,-0.5294800000000001,-1.112396,-65.065,-380.6775,98.82251
651,195392,0.762744,-0.39967199999999997,-0.9738041,-59.78,-406.735,112.6125
652,195490,0.8940161,-0.320616,-0.889136,-50.225,-427.3325,123.8125
653,195588,1.0248,-0.258152,-0.8410681000000001,-38.9375,-443.975,132.3875
654,195686,1.106052,-0.252052,-0.787876,-28.56,-458.15,137.1475
655,195784,1.139724,-0.282064,-0.765184,-20.1775,-468.5975,137.305
656,195882,1.2282959999999998,-0.309636,-0.7722600000000001,-16.24,-474.075,133.1225
657,195980,1.239276,-0.335256,-0.768356,-16.17,-472.395,127.33
658,196078,1.2846600000000001,-0.348432,-0.815204,-15.9425,-464.1,119.49
659,196176,1.5791680000000001,-0.40626,-0.89792,-10.4125,-452.8825,110.425
660,196274,1.86172,-0.46921199999999996,-0.9679481,-4.2,-444.815,106.5225
661,196372,2.062288,-0.45554799999999995,-0.93086,7.07,-436.835,109.025
662,196470,2.215764,-0.536068,-0.8335040000000001,18.97,-424.3225,114.1175
663,196568,2.520276,-0.636108,-0.8049561,25.865,-402.64,119.42
664,196666,3.121736,-0.6558721,-0.8298440999999999,26.4075,-376.565,127.925
665,196764,3.620472,-0.5294800000000001,-0.697596,21.28,-363.335,139.65
666,196862,3.659268,-0.432612,-0.285724,9.8,-361.8475,147.1925
667,196960,3.5258,-0.34648,0.253272,-11.2525,-353.36,141.0675
668,197058,3.442108,-0.182268,0.838628,-41.475,-325.5,121.0475
669,197156,3.361588,-0.045384,1.4457,-64.365,-282.2575,95.9
670,197255,3.207624,-0.013663999999999999,1.9773759999999998,-69.3175,-226.345,73.325
671,197353,3.289364,-0.038064,2.157936,-53.76,-159.915,59.5525
672,197451,3.3669559999999996,0.033184,2.19112,-28.525,-98.2625,58.17
673,197549,3.237392,0.202276,2.1642799999999998,-3.6575,-50.2425,60.8475
674,197647,3.1415,0.3477,1.9300400000000002,19.6525,-9.7125,53.4625
675,197745,3.031212,0.39771999999999996,1.60186,38.045,24.01,30.5025
676,197843,2.8299119999999998,0.260592,1.236104,50.015,47.95,-0.875
677,197941,-0.48165600000000003,-2.418284,-3.4667519999999996,62.825,64.33,-40.8275
678,198039,-3.28546,-0.627812,-0.333548,-36.225,183.8375,-85.69751
679,198137,1.2099959999999998,0.27084,1.665056,-88.02501,301.5075,-157.2025
680,198235,2.870416,-0.528504,-2.1179200000000002,-59.57,335.02,-198.24
681,198333,0.8086161000000001,1.784128,-0.6080479999999999,-88.0775,272.685,-140.4725
682,198431,2.5390639999999998,1.50548,-1.212192,-43.925,307.2825,-64.5575
683,198529,3.123688,-0.48922,-2.181116,82.4775,272.7725,-106.3125
684,198627,2.08498,-1.7453319999999999,-1.3510280000000001,101.5175,187.46,-97.79
685,198725,1.120692,0.021472,-1.1575360000000001,-21.805,170.5725,-70.1575
686,198823,0.8698601,-0.45164399999999993,-1.330532,24.7275,145.8975,-63.035
687,198921,1.967128,-1.367376,-0.61,-18.6025,124.425,-34.3
688,199019,1.7921799999999999,-0.250344,-1.1690040000000002,-107.3625,79.555,-27.3
689,199118,0.6822239999999999,-0.385764,-0.693204,-31.325,28.7,-37.9225
690,199215,0.7139439999999999,-0.42578,-0.7861680999999999,-23.8175,12.985,-38.0625
691,199313,0.6605081,-0.30792800000000004,-0.750544,-26.8625,4.2,-35.105
692,199412,0.599508,-0.38308000000000003,-0.70638,-18.515,-1.4175,-33.5125
693,199510,0.6158561,-0.416508,-0.7166279999999999,-19.8975,-5.215,-33.11
694,199608,0.613416,-0.36209600000000003,-0.7007680000000001,-21.21,-9.2925,-34.7025
695,199706,0.601216,-0.30109600000000003,-0.712724,-21.77,-11.445,-34.1425
696,199804,0.597312,-0.293532,-0.748592,-20.23,-10.8325,-31.0275
697,199902,0.6109760000000001,-0.244,-0.748592,-18.5325,-7.14,-26.81
698,200000,0.5968241,-0.278404,-0.7439560000000001,-14.8225,-1.785,-21.105
699,200098,0.595604,-0.273036,-0.7449321,-12.355,1.75,-17.6925
700,200196,0.615368,-0.260348,-0.684664,-11.97,4.2,-15.5575
701,200294,0.5892601,-0.265228,-0.716384,-11.8475,4.62,-13.02
702,200392,0.6019479999999999,-0.256932,-0.721508,-12.67,5.5125,-11.655
703,200490,0.5885281,-0.28694400000000003,-0.709796,-12.0575,7.0875,-11.0425
704,200588,0.5799880000000001,-0.32574000000000003,-0.70638,-12.9325,7.98,-12.285
705,200686,0.60512,-0.34526,-0.659288,-15.9775,8.1725,-16.38
706,200784,0.615368,-0.31524800000000003,-0.686616,-19.5825,6.79,-20.5275
707,200882,0.6197600000000001,-0.266936,-0.711992,-22.505,4.585,-23.695
708,200980,0.6290319999999999,-0.260836,-0.7129681,-22.925,2.9925,-25.2525
709,201078,0.581696,-0.28011199999999997,-0.702232,-21.525,0.9975,-26.53
710,201176,0.620004,-0.292556,-0.746396,-21.7,-1.54,-28.245
711,201274,0.606096,-0.244732,-0.7378560000000001,-19.6175,-1.295,-30.485
712,201372,0.612196,-0.250832,-0.743224,-15.8025,0.4025,-30.59
713,201470,0.6107319999999999,-0.266936,-0.728096,-11.655,2.2925,-32.1825
714,201568,0.6009720000000001,-0.2562,-0.7376119999999999,-8.61,4.62,-34.965
715,201667,0.572912,-0.203984,-0.785192,-6.8425,7.8925,-36.925
716,201765,0.609024,-0.220088,-0.7317560000000001,-4.585,12.6525,-36.785
717,201863,0.6039,-0.193248,-0.743224,-1.575,17.395,-36.7325
718,201961,0.599508,-0.18056,-0.7564001,1.995,23.1,-35.7525
719,202059,0.6785640000000001,-0.217404,-0.790072,8.5575,30.9575,-35.2625
720,202157,0.5221600000000001,-0.19276,-0.787388,12.495,41.16,-37.17
721,202255,0.5675439999999999,-0.185928,-0.796172,10.29,53.095,-41.6675
722,202353,0.5997520000000001,-0.180072,-0.7883640000000001,11.4625,67.025,-44.8175
723,202451,0.5980439999999999,-0.158112,-0.793488,13.3525,82.81,-46.76
724,202549,0.542412,-0.14786400000000002,-0.7986121,16.5375,100.7475,-47.4075
725,202647,0.612684,-0.171532,-0.821792,19.5475,122.7975,-48.9825
726,202745,0.420412,-0.111752,-0.833016,24.5525,149.5375,-52.815
727,202843,0.659288,-0.196176,-0.8845,25.935,182.2275,-58.8175
728,202941,1.038708,-0.433832,-0.8671761,40.7575,231.245,-67.41001
729,203039,0.9701440999999998,-0.46116,-0.8244761,57.7325,299.3025,-81.6375
730,203137,0.783728,-0.306464,-0.9474520000000001,68.915,385.385,-101.6925
731,203235,0.7686,-0.337452,-1.1270360000000001,73.745,485.765,-116.9
732,203333,0.649528,-0.42285200000000006,-1.4337440000000001,72.1175,564.305,-125.545
733,203431,1.0079639999999999,-0.41406800000000005,-0.9450120000000001,72.9925,573.405,-134.0325
734,203530,2.023736,-0.577548,-1.2517200000000002,71.015,573.405,-156.0475
735,203628,3.017304,-0.7041841,-0.505324,74.9,573.405,-170.31
736,203726,2.612996,-0.763476,-0.8479,121.9575,562.8525,-133.5775
737,203824,2.3006759999999997,-1.204872,-1.507188,142.905,475.8075,-138.4425
738,203922,1.87758,-1.15412,-2.063508,128.5725,317.4325,-161.14
739,204020,1.9764,-1.4940120000000001,-2.206004,47.67,202.405,-114.1525
740,204118,6.133184,-2.268956,-2.793556,-37.345,209.2125,-123.34
741,204216,1.596492,-1.8885599999999998,-3.5338519999999995,-106.855,224.7875,-117.9675
742,204314,1.072624,-1.3005200000000001,-3.044876,-95.4975,87.8325,-48.23
743,204412,0.7088201,-1.2282959999999998,-2.8286919999999998,-91.6125,-40.145,15.155
744,204510,0.015128,-0.9037761000000001,-2.036912,-91.735,-125.7725,48.5975
745,204608,-0.1403,-0.720288,-1.723128,-85.05,-160.9125,58.3975
746,204706,0.070516,-0.6505041,-1.60552,-76.7025,-184.24,63.0875
747,204804,0.276696,-0.61854,-1.56526,-69.055,-215.88,71.1725
748,204902,0.418704,-0.57218,-1.440576,-60.7075,-259.0875,85.015
749,205000,0.565104,-0.549488,-1.273192,-53.725,-306.0925,100.8875
750,205098,0.601704,-0.49873599999999996,-1.078724,-49.63,-345.0825,114.9225
751,205196,0.62098,-0.374296,-0.9228081,-48.1775,-375.0775,126.105
752,205294,0.679784,-0.30012,-0.7829961,-44.135,-396.165,135.0475
753,205392,0.785192,-0.26718000000000003,-0.741272,-37.1175,-408.345,141.4875
754,205491,0.9225639999999999,-0.225456,-0.74542,-29.505,-415.7125,146.3175
755,205589,0.996008,-0.22277199999999997,-0.768356,-24.115,-424.515,148.47
756,205687,1.051884,-0.242292,-0.7732359999999999,-20.3875,-433.0375,147.56
757,205785,1.096292,-0.23741199999999998,-0.796904,-21.805,-437.29,142.4675
758,205883,1.151924,-0.22496799999999997,-0.821304,-24.64,-437.535,134.2075
759,205981,1.18218,-0.15982000000000002,-0.822768,-22.19,-434.4375,125.09
760,206079,1.391532,-0.13542,-0.9357401,-10.85,-426.2475,115.395
761,206177,1.739232,-0.207644,-1.061644,8.6625,-418.7925,105.8925
762,206275,1.944192,-0.328912,-1.072136,27.93,-418.6525,98.7175
763,206373,2.0679,-0.457012,-1.003816,44.2925,-419.44,94.3425
764,206471,2.304092,-0.677832,-0.9464761,52.8675,-410.6025,92.435
765,206569,2.726944,-0.8471681000000001,-0.9320801,49.7875,-395.85,96.91501
766,206667,3.254716,-0.803248,-0.8615640999999999,38.115,-384.3,112.385
767,206765,3.404776,-0.555832,-0.479216,22.0675,-379.33,130.7075
768,206863,3.303272,-0.353312,0.099552,7.84,-367.885,137.165
769,206961,3.289364,-0.25351599999999996,0.674416,-8.4525,-333.795,125.7725
770,207059,3.4386919999999996,-0.171044,1.182424,-27.125,-283.7975,102.4625
771,207157,3.399896,-0.039284,1.6784759999999999,-40.3375,-232.645,77.77
772,207255,3.3628080000000002,0.067832,1.9820119999999999,-34.0375,-181.02,58.5025
773,207353,3.361832,0.21106,2.1106,-11.8125,-128.94,50.715
774,207452,3.26716,0.386984,2.13378,13.335,-79.7825,50.2075
775,207550,3.157604,0.448716,1.9942119999999999,31.22,-33.04,45.71
776,207648,2.922876,0.21032800000000001,3.188348,26.25,22.0325,20.2475
777,207746,-0.6178081,0.942572,0.793488,-67.7075,186.06,-56.2975
778,207844,-0.927688,-1.813896,-1.9398,82.8275,290.465,-111.3175
779,207942,3.2656959999999997,0.458476,0.803248,-89.25,346.5,-199.8325
780,208040,1.993724,-1.9947,-2.0691200000000003,-76.09000999999999,320.1275,-220.325
781,208138,1.235128,0.466772,-0.69906,-128.555,270.6025,-177.45
782,208236,1.9593200000000002,1.518656,-1.4156879999999998,-111.51,267.7675,-112.49
783,208334,3.088796,2.2606599999999997,-1.641388,-63.7,239.715,-103.53
784,208432,1.281,-1.0504200000000001,-1.64822,42.8925,156.345,-121.555
785,208530,-0.331352,-0.08417999999999999,-0.59048,2.765,143.9375,-87.6225
786,208628,0.542168,1.254404,-1.30784,12.635,193.41,-43.2425
787,208726,4.574512,-1.76046,-1.369572,111.0725,143.045,-27.37
788,208824,1.10166,-2.0764400000000003,0.091988,-46.585,28.6825,31.3775
789,208922,0.58072,0.55632,-1.062132,-29.785,9.3975,-4.27
790,209020,0.6378159999999999,-0.573156,-0.6373281,-6.1425,9.94,-10.0275
791,209118,0.631228,-0.312076,-0.711504,-9.555,11.0775,-3.5175
792,209216,0.6231760999999999,-0.365512,-0.7068681,-4.585,9.1,-3.6225
793,209314,0.604144,-0.388448,-0.7088201,-6.44,9.1175,-3.325
794,209412,0.640256,-0.32086,-0.6822239999999999,-4.55,7.9975,-4.9
795,209510,0.614392,-0.360632,-0.6917399999999999,-4.935,6.37,-6.125
796,209609,0.589016,-0.36502399999999996,-0.68076,-3.605,4.1475,-7.0875
797,209707,0.612928,-0.235948,-0.7171161,-7.035,3.78,-9.5025
798,209805,0.59048,-0.335256,-0.6902761,-4.3925,3.9375,-8.4175
799,209903,0.5997520000000001,-0.34111199999999997,-0.654408,-6.09,3.675,-9.905
800,210001,0.5892601,-0.341356,-0.666852,-10.5175,2.4675,-12.285
801,210099,0.6007279999999999,-0.322324,-0.6912520000000001,-13.44,1.1725,-14.2625
802,210197,0.6107319999999999,-0.251808,-0.733708,-16.1875,1.54,-14.7525
803,210295,0.592432,-0.334524,-0.7168720000000001,-13.58,2.1525,-13.6675
804,210393,0.59902,-0.343552,-0.675148,-14.665,2.0125,-15.54
805,210491,0.60146,-0.344528,-0.6895439999999999,-16.8875,-1.47,-18.55
806,210589,0.6170760000000001,-0.338428,-0.691496,-19.7225,-5.5475,-22.3475
807,210687,0.6097560000000001,-0.326716,-0.6993041,-20.475,-6.965,-26.3725
808,210785,0.6080479999999999,-0.327936,-0.7005239999999999,-21.105,-7.105,-28.2975
809,210883,0.6009720000000001,-0.3172,-0.720532,-21.1575,-5.845,-28.84
810,210981,0.636108,-0.288408,-0.8030041,-21.175,-4.165,-29.1375
811,211079,0.6202479999999999,-0.223016,-0.729316,-20.4575,-3.2725,-28.2975
812,211177,0.589016,-0.276208,-0.735172,-15.3475,-2.135,-26.2675
813,211275,0.586576,-0.288164,-0.739564,-12.9325,-0.525,-27.125
814,211373,0.6497721,-0.20691199999999998,-0.718092,-11.48,1.2425,-30.1
815,211471,0.627568,-0.200324,-0.71614,-7.105,1.2425,-31.92
816,211569,0.64782,-0.6453800000000001,-0.5636399999999999,5.705,-0.6825,-33.53
817,211667,0.570472,0.026108,-0.9098761000000001,3.115,-0.0175,-39.0425
818,211765,0.644892,-0.248148,-0.675148,-3.7975,9.905,-34.3
819,211864,0.5843801,-0.22862800000000003,-0.775676,1.82,17.5875,-32.7075
820,211962,0.598288,-0.16835999999999998,-0.786656,9.2225,28.63,-34.58
821,212060,0.531188,-0.170312,-0.8203280000000001,15.645,42.98,-34.2475
822,212158,0.5734,-0.17738800000000002,-0.79666,16.59,56.3325,-36.75
823,212256,0.6178081,-0.15494000000000002,-0.801784,17.4825,71.225,-37.205
824,212354,0.552904,-0.1647,-0.8378960999999999,23.695,90.42251,-35.7875
825,212452,0.5292359999999999,-0.183,-0.8361879999999999,28.84,112.8925,-37.2575
826,212550,0.6944241,-0.2684,-0.826916,31.1325,139.4575,-42.0
827,212648,0.642696,-0.258396,-0.9103641,43.6625,178.1325,-46.9
828,212746,0.809836,-0.385764,-0.900848,58.625,228.865,-53.41
829,212844,0.545096,-0.38308000000000003,-0.9208561,74.55,288.61,-63.9975
830,212942,0.657092,-0.417728,-0.9450120000000001,86.6775,354.8825,-85.82
831,213040,0.6422081000000001,-0.430904,-0.9969841,101.4475,444.7275,-112.8225
832,213138,0.672708,-0.41992399999999996,-1.16876,103.1625,546.875,-137.76
833,213236,0.744688,-0.575596,-1.191208,88.7775,573.3875,-149.345
834,213334,1.41764,-0.754692,-0.856196,85.1725,573.405,-160.02
835,213432,3.911808,-0.039284,-2.0356919999999996,81.39251,572.4775,-182.5075
836,213530,2.114016,-0.879376,-1.007232,104.2125,513.4675,-136.0975
837,213628,2.2953080000000003,-1.253916,-1.280756,138.67,414.26,-113.8725
838,213726,2.117432,-1.389092,-1.69702,88.585,337.715,-132.4225
839,213824,1.428376,-1.4112959999999999,-1.9598080000000002,45.325,261.905,-121.0475
840,213922,6.176616,-2.217228,-3.049512,-13.1775,250.985,-155.015
841,214021,1.611376,-1.813652,-3.5750879999999996,-93.2925,236.74,-136.7625
842,214119,1.0589600000000001,-1.340048,-3.127104,-62.6325,91.56,-59.675
843,214217,0.5219159999999999,-1.262456,-2.77794,-52.8325,-35.84,1.33
844,214315,-0.10345599999999999,-0.9474520000000001,-2.004216,-56.1575,-111.3175,26.8975
845,214413,-0.19032000000000002,-0.794952,-1.7570439999999998,-54.25,-137.4625,29.8725
846,214511,-0.001952,-0.7373681,-1.706292,-52.3775,-158.83,31.395
847,214609,0.275964,-0.733952,-1.68848,-53.8475,-193.9175,39.97
848,214707,0.466528,-0.7034521,-1.591612,-53.7075,-243.25,54.915
849,214805,0.5577840000000001,-0.6451359999999999,-1.3912879999999999,-54.005,-296.0125,72.4675
850,214903,0.634156,-0.594384,-1.181448,-55.7725,-342.265,88.37501
851,215001,0.699548,-0.48653599999999997,-0.984296,-56.7,-376.5825,101.57
852,215099,0.752984,-0.36502399999999996,-0.8522921,-53.585,-401.6075,113.75
853,215197,0.8491200000000001,-0.302316,-0.7788480999999999,-43.9775,-421.225,126.6825
854,215295,0.957456,-0.288896,-0.7200439999999999,-31.64,-434.8925,138.8975
855,215393,0.9974719999999999,-0.280844,-0.698816,-22.0675,-443.8175,147.56
856,215491,1.0582280000000002,-0.321592,-0.735904,-15.9075,-450.03,151.62
857,215589,1.1272799999999998,-0.374296,-0.755424,-15.925,-453.005,151.165
858,215687,1.1509479999999999,-0.384544,-0.776408,-22.645,-450.45,145.915
859,215785,1.250744,-0.35843600000000003,-0.8300879999999999,-26.6,-444.115,137.9525
860,215883,1.563796,-0.398452,-0.9442801,-20.405,-436.73,128.905
861,215981,1.8583040000000002,-0.467992,-0.9918600000000001,-8.365,-433.7725,122.7975
862,216079,2.010316,-0.5077640999999999,-0.9089001,8.2075,-430.71,122.955
863,216178,2.140612,-0.662216,-0.8052,23.3275,-418.0575,126.0175
864,216276,2.4766,-0.874984,-0.788852,29.5225,-395.2725,129.7975
865,216374,3.055612,-0.942084,-0.793488,24.1325,-369.915,138.985
866,216472,3.5282400000000003,-0.789828,-0.6058520000000001,11.375,-356.895,154.5425
867,216570,3.543368,-0.601704,-0.156648,-2.24,-351.4,164.9725
868,216668,3.493348,-0.51362,0.360144,-16.5025,-335.1425,159.6175
869,216766,3.475048,-0.385764,0.974292,-38.22,-302.47,137.69
870,216864,3.344996,-0.180072,1.6504159999999999,-56.595,-256.06,107.66
871,216962,3.261792,-0.118828,2.0937639999999997,-50.7675,-200.2,80.97251
872,217060,3.3130319999999998,-0.03904,2.20332,-23.1525,-142.2575,68.04
873,217158,3.257888,0.135908,2.260904,10.29,-90.00251,70.4375
874,217256,3.064152,0.299632,2.2262560000000002,42.175,-43.9425,71.225
875,217354,3.020476,0.296216,1.93492,63.9625,0.35,58.6075
876,217452,2.922144,0.2257,1.559648,64.4525,37.205,35.175
877,217550,1.47254,-0.671976,1.0911680000000001,55.86,63.5075,5.985
878,217648,-1.6887240000000001,-1.9197919999999997,-3.198352,-15.12,136.6575,-48.3
879,217746,-2.452688,-0.5063,1.5279280000000002,-97.00251,265.3525,-91.7175
880,217844,2.577616,2.261148,-1.136796,-165.2175,361.6375,-178.115
881,217942,2.186484,0.529724,-1.4630239999999999,-30.52,351.575,-113.26
882,218040,2.8247880000000003,1.69092,-0.730536,-23.3975,322.1575,-77.63
883,218138,3.7793160000000006,0.24717199999999998,-3.314496,52.4825,288.9775,-124.0225
884,218236,1.6487080000000003,-1.6548080000000003,-1.17486,114.905,197.3475,-105.875
885,218334,1.136552,0.029036000000000003,-1.09922,-16.9925,191.9225,-69.59751
886,218432,1.2968600000000001,-0.94306,-1.677744,54.4425,167.93,-56.35
887,218531,2.440732,-1.37616,-0.60634,-34.5275,131.9675,-23.94
888,218629,0.9869800999999999,-0.21081599999999998,-0.9006040999999999,-96.005,60.83,-20.3875
889,218727,0.630984,-0.46481999999999996,-0.6729520999999999,-21.4025,29.0675,-21.805
890,218825,0.7808001,-0.38918,-0.745908,-27.16,25.3575,-19.005
891,218923,0.6290319999999999,-0.375272,-0.711992,-23.8,16.17,-16.345
892,219021,0.6231760999999999,-0.401624,-0.694912,-18.865,11.1825,-15.96
893,219119,0.571204,-0.450424,-0.670268,-18.3225,8.365,-16.835
894,219217,0.65758,-0.380884,-0.7241920000000001,-20.23,6.125,-20.3525
895,219315,0.63318,-0.30988000000000004,-0.728096,-19.5125,2.73,-21.945
896,219413,0.599264,-0.31232,-0.743712,-14.735,0.525,-20.0375
897,219511,0.610488,-0.30353600000000003,-0.7283400999999999,-13.72,1.61,-18.025
898,219609,0.596336,-0.334768,-0.7232161,-10.7975,2.17,-15.5925
899,219707,0.5892601,-0.354288,-0.7015,-8.8725,1.7675,-15.4
900,219805,0.61366,-0.329156,-0.674416,-9.45,1.68,-15.68
901,219903,0.576816,-0.345016,-0.6885680999999999,-9.1,0.42,-15.68
902,220001,0.597068,-0.31524800000000003,-0.6834439999999999,-10.885,0.42,-17.0975
903,220099,0.58316,-0.34648,-0.6802720999999999,-11.7775,-0.42,-18.9875
904,220197,0.570472,-0.385764,-0.6405,-14.4725,0.1225,-22.12
905,220295,0.5917,-0.36722,-0.6292760000000001,-21.1225,1.645,-24.6925
906,220393,0.5968241,-0.36575599999999997,-0.670512,-27.3,1.19,-26.6525
907,220491,0.6224441,-0.30134,-0.711504,-30.835,1.33,-28.4375
908,220589,0.6307401,-0.277428,-0.72346,-29.5575,1.75,-27.965
909,220688,0.631228,-0.287188,-0.720288,-25.0775,1.8725,-26.845
910,220786,0.627812,-0.283528,-0.719312,-20.72,1.4175,-26.075
911,220884,0.626836,-0.277672,-0.7117479999999999,-17.43,1.225,-24.955
912,220982,0.6283,-0.268156,-0.7129681,-14.2275,0.175,-24.255
913,221080,0.6161,-0.27084,-0.724436,-11.97,-1.0325,-23.9575
914,221178,0.6117081,-0.271816,-0.707112,-10.08,-0.805,-24.6225
915,221276,0.607804,-0.289628,-0.708576,-8.6275,-0.455,-26.32
916,221374,0.60878,-0.285968,-0.701012,-7.6825,0.0875,-28.56
917,221472,0.61122,-0.270352,-0.7088201,-6.7725,0.9975,-30.9575
918,221570,0.636596,-0.264984,-0.685884,-5.1625,2.765,-32.935
919,221668,0.625616,-0.24570799999999998,-0.7093081,-4.8825,4.1125,-33.7575
920,221766,0.61122,-0.215452,-0.740296,-4.1825,5.5825,-32.9525
921,221864,0.5946279999999999,-0.24156,-0.733952,-1.68,9.7825,-31.4475
922,221962,0.6314721,-0.25790799999999997,-0.772992,4.0425,17.255,-31.6575
923,222060,0.5958479999999999,-0.23668000000000003,-0.787876,9.52,27.825,-33.005
924,222158,0.529968,-0.19885999999999998,-0.800076,14.6825,41.7025,-35.14
925,222256,0.574132,-0.196176,-0.7893399999999999,13.9825,54.7925,-38.7625
926,222354,0.6224441,-0.2074,-0.793244,16.6775,69.755,-40.1275
927,222452,0.578036,-0.177876,-0.8105680000000001,21.595,87.36,-40.5125
928,222550,0.6790520999999999,-0.22252800000000003,-0.8049561,25.9175,107.87,-41.6325
929,222648,0.754448,-0.270108,-0.8298440999999999,35.595,134.715,-43.12
930,222746,0.699548,-0.266692,-0.8657120999999999,50.015,169.715,-46.3925
931,222844,0.615368,-0.26596,-0.8827921000000001,64.225,211.9075,-52.43
932,222942,0.5673,-0.35697199999999996,-0.877668,78.96,259.105,-63.035
933,223040,0.546072,-0.349408,-0.9059721,89.215,312.6375,-83.5625
934,223138,0.8718120999999999,-0.447984,-0.862296,91.77,382.1475,-108.465
935,223237,0.7117479999999999,-0.328424,-1.036756,94.53501,481.775,-130.095
936,223335,0.692228,-0.389424,-1.141432,102.41,563.3775,-136.78
937,223433,1.02846,-0.47458,-0.9989360999999999,104.8775,573.405,-137.725
938,223531,2.589816,-1.004792,-1.400072,109.7775,573.405,-148.925
939,223629,2.170868,-0.19642,-0.536068,81.165,550.0775,-162.5925
940,223727,2.8247880000000003,-0.809836,-1.0025959999999998,94.93751,529.7775,-135.9225
941,223825,2.228208,-0.8913321,-1.211948,96.6,466.3925,-143.0275
942,223923,1.851472,-1.060668,-1.6491959999999999,71.99501,327.6175,-113.6625
943,224021,1.278316,-1.257332,-1.921012,70.0,224.665,-62.58
944,224119,6.405488,-2.314828,-2.7593959999999997,55.195,218.9775,-100.3275
945,224217,1.645536,-1.7092200000000002,-3.29766,-57.785,225.33,-127.155
946,224315,1.109956,-1.230736,-2.793556,-45.22,85.5225,-81.3575
947,224413,0.697596,-1.1407,-2.586888,-49.735,-40.3025,-32.095
948,224511,-0.010736,-0.849852,-1.8358560000000002,-59.5,-122.1325,-8.3825
949,224609,-0.325496,-0.6649,-1.484984,-61.845,-155.96,-1.5925
950,224707,0.025376,-0.70516,-1.405928,-56.5075,-176.4875,3.325
951,224805,0.186904,-0.727608,-1.367376,-54.915,-201.67,11.5675
952,224903,0.35160399999999997,-0.758596,-1.2763639999999998,-53.06,-236.355,25.6725
953,225001,0.525088,-0.781776,-1.179252,-53.97,-276.6225,43.715
954,225099,0.588284,-0.763476,-1.011136,-59.535,-315.98,62.335
955,225197,0.6409881,-0.721264,-0.8342360000000001,-66.4125,-348.32,79.9225
956,225295,0.6563601,-0.6219561,-0.6993041,-71.505,-370.7375,95.48
957,225393,0.7117479999999999,-0.526308,-0.6182960999999999,-71.61,-385.8225,109.97
958,225491,0.7788480999999999,-0.5038600000000001,-0.562664,-64.8025,-396.3575,125.02
959,225589,0.868152,-0.47775200000000007,-0.559004,-58.3625,-401.3275,137.445
960,225687,0.9120720999999999,-0.459696,-0.5694961,-52.605,-405.2825,145.6
961,225785,0.968192,-0.478972,-0.6231760999999999,-48.2475,-408.555,149.3275
962,225884,1.046516,-0.50508,-0.6756361,-44.9925,-409.2025,149.765
963,225982,1.1028799999999999,-0.47946000000000005,-0.7027201,-44.87,-407.855,146.65
964,226080,1.19682,-0.41846000000000005,-0.7625,-41.195,-405.2125,140.175
965,226178,1.4569239999999999,-0.41260399999999997,-0.889868,-26.0225,-401.8525,132.475
966,226276,1.71776,-0.45554799999999995,-0.965752,-4.55,-402.8675,123.8475
967,226374,1.844396,-0.498004,-0.9042641,20.72,-405.4575,118.335
968,226472,2.0098279999999997,-0.621712,-0.888648,46.305,-400.015,116.655
969,226570,2.358748,-0.85034,-0.898164,62.1775,-386.505,116.9
970,226668,2.88164,-0.9979600000000001,-0.9262239999999999,62.1775,-373.66,121.905
971,226766,3.3501199999999995,-0.8544879999999999,-0.7895840999999999,47.81,-368.2175,131.25
972,226864,3.378424,-0.580232,-0.36209600000000003,30.66,-369.845,135.7825
973,226962,3.255448,-0.346236,0.1769,20.9475,-361.41,130.1475
974,227060,3.238612,-0.172264,0.685396,14.21,-332.7975,111.1075
975,227158,3.209332,0.022203999999999998,1.2043840000000001,11.025,-291.165,85.92501
976,227256,3.179076,0.112728,1.5906360000000002,17.4825,-242.235,60.9525
977,227354,3.219336,0.15201199999999998,1.772904,32.06,-191.8875,44.2225
978,227452,3.190544,0.23448400000000003,1.895148,43.54,-144.27,39.655
979,227550,3.022184,0.332328,1.972984,47.285,-99.26001,39.69
980,227648,2.905552,0.33916,1.8705040000000002,43.2775,-52.0625,37.205
981,227746,2.8426,0.25986,1.555256,28.5075,-5.6875,28.35
982,227845,0.8852321,-0.856684,1.589416,3.1675,46.165,5.11
983,227943,-1.972984,-0.58804,-2.098888,-124.2325,186.83,-61.1975
984,228041,-1.7460639999999998,-0.24522,1.61284,-60.0075,275.59,-89.215
985,228139,2.618852,1.1453360000000001,-0.537288,-146.1425,342.0025,-136.395
986,228237,1.789984,-0.7283400999999999,-1.30784,-38.255,325.7275,-101.185
987,228335,0.840824,1.058716,-0.381616,-102.0775,305.62,-40.6525
988,228433,2.045452,0.847412,-1.3766479999999999,-16.275,324.4325,-10.4125
989,228531,2.4561040000000003,1.778272,-1.5323200000000001,-10.325,290.4475,-60.725
990,228629,2.645936,-1.432524,-2.0181240000000003,61.635,205.135,-115.2375
991,228727,1.104588,-1.056276,-0.682712,53.1475,165.8125,-72.4325
992,228825,1.770464,-1.37616,-1.907348,-23.6775,161.175,-34.685
993,228923,1.6628599999999998,-0.225456,-1.124352,-120.785,114.0125,-21.98
994,229021,1.348344,-0.372832,-0.9581881,-63.4375,67.2175,-39.9175
995,229119,0.862296,-0.302316,-0.791536,-50.26,31.01,-37.45
996,229217,0.6075600999999999,-0.31354,-0.7134560999999999,-23.835,15.7325,-32.375
997,229315,0.6109760000000001,-0.358192,-0.679296,-25.7075,14.7525,-30.345
998,229413,0.6080479999999999,-0.373564,-0.6844201,-27.8075,12.7225,-30.7475
999,229511,0.60268,-0.423828,-0.6980841,-31.08,9.8175,-32.935
1000,229609,0.607316,-0.40138,-0.6954,-32.4975,5.2675,-36.3125
1001,229707,0.6409881,-0.357216,-0.6851520999999999,-35.175,2.5375,-38.78
1002,229805,0.642452,-0.316712,-0.664168,-35.77,-0.805,-38.745
1003,229904,0.6348881,-0.264252,-0.756644,-37.975,-2.17,-36.3825
1004,230002,0.641232,-0.29158,-0.72346,-34.4225,-0.14,-33.6175
1005,230100,0.6390359999999999,-0.254492,-0.7388319999999999,-31.045,1.295,-31.6225
1006,230198,0.6456241,-0.24644000000000002,-0.72956,-28.5425,0.6125,-29.61
1007,230296,0.660996,-0.223748,-0.708088,-25.235,-0.21,-27.3525
1008,230394,0.6380600000000001,-0.24936799999999998,-0.720532,-22.26,-1.1725,-23.94
1009,230492,0.642452,-0.255468,-0.7232161,-20.3525,-1.7325,-21.7875
1010,230590,0.6373281,-0.250832,-0.72346,-18.7075,-2.5025,-20.65
1011,230688,0.636352,-0.266692,-0.699792,-16.9925,-2.73,-20.2475
1012,230786,0.635376,-0.271084,-0.701256,-16.17,-2.87,-21.4725
1013,230884,0.6392800000000001,-0.25351599999999996,-0.70638,-15.75,-3.5175,-22.7325
1014,230982,0.638304,-0.21374400000000002,-0.715896,-15.015,-4.025,-23.3275
1015,231080,0.650748,-0.23424,-0.706624,-12.915,-3.7625,-22.33
1016,231178,0.644892,-0.22716399999999998,-0.7068681,-11.2,-3.7625,-21.6475
1017,231276,0.647576,-0.2074,-0.70516,-9.7825,-3.7975,-20.9125
1018,231374,0.645868,-0.20178800000000002,-0.707112,-8.1375,-3.5875,-19.46
1019,231472,0.636352,-0.20861999999999997,-0.708576,-6.3,-3.08,-18.06
1020,231570,0.632448,-0.20861999999999997,-0.702476,-4.7775,-1.785,-17.36
1021,231669,0.630008,-0.202276,-0.7032079999999999,-3.3775,-0.0175,-17.1325
1022,231767,0.6280560000000001,-0.20105599999999998,-0.7046720999999999,-2.03,1.8725,-16.94
1023,231865,0.6405,-0.20178800000000002,-0.7017439999999999,-0.7,3.2725,-16.7125
1024,231963,0.638304,-0.20837600000000003,-0.7017439999999999,0.315,3.7275,-16.3275
1025,232061,0.628788,-0.193004,-0.7237041,1.47,4.1825,-16.2225
1026,232159,0.6168319999999999,-0.20837600000000003,-0.7329760000000001,4.0075,6.3175,-16.345
1027,232257,0.6158561,-0.20861999999999997,-0.739808,6.9475,11.025,-17.5525
1028,232355,0.5753520000000001,-0.17202,-0.75762,10.0975,17.465,-19.32
1029,232453,0.6170760000000001,-0.174948,-0.75274,10.6925,23.9225,-20.51
1030,232551,0.598532,-0.1769,-0.7664041,12.845,31.6225,-20.895
1031,232649,0.614636,-0.208132,-0.765428,15.4525,41.02,-21.84
1032,232747,0.61488,-0.22033200000000003,-0.77104,18.5325,52.7275,-24.85
1033,232845,0.582184,-0.202764,-0.782752,22.4,67.1475,-29.3825
1034,232943,0.589992,-0.193492,-0.7881199999999999,25.9875,84.08751,-34.16
1035,233041,0.5575399999999999,-0.16201600000000002,-0.84546,30.6425,105.9275,-38.43
1036,233139,0.6156119999999999,-0.25254,-0.8235001000000001,36.0325,134.2775,-42.665
1037,233237,0.468724,-0.194956,-0.8713241,45.3775,170.0825,-52.1675
1038,233335,0.894748,-0.333304,-0.862784,47.915,212.4675,-65.59
1039,233433,0.6893,-0.284992,-0.9918600000000001,66.78,276.64,-75.32
1040,233531,0.562176,-0.30402399999999996,-1.113616,93.415,359.03,-86.32751
1041,233630,0.590236,-0.369172,-1.16266,107.765,452.2175,-104.335
1042,233728,0.7237041,-0.18544000000000002,-1.18584,119.105,546.9975,-123.585
1043,233826,1.242448,-0.141032,-1.400072,133.0175,573.335,-123.305
1044,233924,2.3306880000000003,-0.9450120000000001,-1.1070280000000001,189.665,572.775,-84.03501
1045,234022,1.753872,0.051972000000000004,-0.101992,225.925,551.2325,-56.9975
1046,234120,2.895304,-1.3668879999999999,-1.286368,202.8425,532.14,-92.4525
1047,234218,2.019832,-1.0060120000000001,-1.8712360000000001,238.8925,364.1925,-71.78501
1048,234316,1.719956,-0.72102,-1.443016,180.425,177.66,-45.2725
1049,234414,3.3201080000000003,-1.2334200000000002,-2.094984,183.47,129.9025,-33.0225
1050,234512,1.598932,-1.293444,-3.239588,116.9525,100.6075,-100.6075
1051,234610,0.775676,-0.9999121,-2.64374,104.475,-9.45,-94.30751
1052,234708,-0.183976,-0.8425321,-1.695312,89.4075,-115.6925,-72.2925
1053,234806,-0.7068681,-0.62708,-0.973316,75.88,-134.7325,-74.375
1054,234904,-0.397476,-0.654408,-0.9784401,70.525,-124.88,-78.55751
1055,235002,-0.1403,-0.733708,-1.0760399999999999,71.99501,-129.2025,-64.1375
1056,235100,0.049288,-0.760792,-1.154852,73.465,-152.985,-30.4325
1057,235198,0.19154000000000002,-0.732244,-1.130696,73.955,-186.6025,13.265
1058,235296,0.233996,-0.6517241,-1.036024,70.7175,-219.765,55.1425
1059,235395,0.294752,-0.5343600000000001,-0.9296399999999999,61.4775,-246.2425,90.44001
1060,235493,0.354532,-0.383324,-0.8357,49.84,-265.23,118.1425
1061,235591,0.42138809999999993,-0.22423600000000002,-0.7712840999999999,40.0925,-278.1975,138.46
1062,235689,0.46311199999999997,-0.051972000000000004,-0.7515201,32.9875,-288.855,151.48
1063,235787,0.548024,0.07978801,-0.778604,31.3075,-296.73,158.3225
1064,235885,0.6480640000000001,0.213256,-0.8447280999999999,34.58,-302.015,160.5975
1065,235983,0.800808,0.306708,-0.944524,42.385,-309.75,157.535
1066,236081,0.9089001,0.38918,-1.004548,52.115,-321.615,149.38
1067,236179,0.995764,0.48214399999999996,-1.043588,62.02,-336.14,136.4125
1068,236277,1.0711600000000001,0.555832,-1.041392,72.03,-351.3125,118.0025
1069,236375,1.086532,0.6326921,-0.9769760000000001,83.615,-364.735,94.95501
1070,236473,1.205116,0.672708,-0.9711200999999999,99.26001,-372.7325,69.125
1071,236571,1.340048,0.599996,-0.9943001,117.1625,-376.0925,43.2075
1072,236669,1.494256,0.444812,-1.00406,133.595,-379.505,20.265
1073,236767,1.552816,0.296948,-0.9774639999999999,142.8175,-379.6275,5.18
1074,236865,1.684088,0.207156,-0.9901521000000001,148.2075,-372.9425,-1.05
1075,236963,1.933212,0.155916,-1.0243120000000001,154.0175,-361.2175,0.35
1076,237061,2.2814,0.194956,-1.019188,160.7025,-351.9775,7.735
1077,237159,2.643252,0.42626800000000004,-0.907192,164.6225,-348.2675,17.3075
1078,237257,2.833328,0.7610359999999999,-0.6178081,167.1075,-345.5025,19.4775
1079,237355,2.792336,1.05164,-0.2623,169.12,-333.445,4.585
1080,237453,2.729384,1.226832,0.046360000000000005,167.0375,-309.3125,-27.545
1081,237551,2.803316,1.2463520000000001,0.2013,159.46,-276.36,-69.0725
1082,237650,2.917996,1.105808,0.376248,148.645,-244.1775,-106.8375
1083,237748,2.82674,0.8476561,0.714432,136.7625,-215.145,-130.5325
1084,237846,2.619828,0.5502199999999999,1.071404,118.93,-182.665,-136.9375
1085,237944,2.440244,0.363316,1.268556,93.52,-139.2475,-125.895
1086,238042,2.2709080000000004,0.306708,1.245376,65.52,-87.74501,-100.2925
1087,238140,1.978352,-0.21447600000000003,1.815116,-9.975,-1.785,-95.935
1088,238238,0.97478,-0.172508,-1.374452,-151.305,118.72,-112.6825
1089,238336,-0.716384,-1.992016,-0.9803921,-71.5925,127.4525,-121.3975
1090,238434,1.43106,0.936716,-0.539972,-196.28,169.0675,-214.6025
1091,238532,1.484984,-0.454084,-1.867576,-192.0275,141.4525,-214.025
1092,238630,1.759484,0.28987199999999996,-1.063352,-165.4625,124.25,-160.9475
1093,238728,1.76656,-0.00366,-1.6662759999999999,-178.045,115.6925,-106.0675
1094,238826,0.662704,0.715896,-0.9296399999999999,-150.4125,97.9475,-61.985
1095,238924,0.8342360000000001,0.298412,-1.434964,-89.215,94.37751,-43.3825
1096,239022,1.2609920000000001,-0.327936,-1.057008,-30.3975,74.97,-36.89
1097,239120,0.49141599999999996,-0.010492,-0.876692,-34.51,49.3675,-26.285
1098,239218,0.733952,-0.12932000000000002,-0.918416,-14.35,45.3075,-16.9575
1099,239316,0.7266321,-0.40894400000000003,-0.7793359999999999,-8.925,37.0825,-11.8125
1100,239414,0.742492,-0.2379,-0.8827921000000001,-7.4725,31.745,-5.67
1101,239512,0.6117081,-0.271572,-0.7451760000000001,-6.5625,20.51,-2.24
1102,239610,0.5892601,-0.263764,-0.7503,-1.0325,16.9225,1.6975
1103,239709,0.642452,-0.384056,-0.727608,-0.49,15.2075,1.435
1104,239807,0.62708,-0.320616,-0.733464,-3.745,11.9875,0.21
1105,239905,0.598532,-0.302072,-0.73688,-4.27,9.7475,-0.21
1106,240003,0.5968241,-0.288164,-0.7283400999999999,-3.8325,8.6625,0.1225
1107,240101,0.60146,-0.235948,-0.7478600000000001,-2.5025,8.1375,1.5225
1108,240199,0.6131721,-0.24034,-0.7288279999999999,-0.21,8.5575,4.34
1109,240297,0.60268,-0.24936799999999998,-0.7320001,1.9075,8.995,7.595
1110,240395,0.606584,-0.273524,-0.714432,2.7125,9.5375,10.045
1111,240493,0.59292,-0.294508,-0.715164,3.3425,9.905,11.515
1112,240591,0.5987760999999999,-0.34892,-0.68198,3.2375,9.765,10.6925
1113,240689,0.598288,-0.364292,-0.6790520999999999,1.6275,8.33,8.1725
1114,240787,0.594384,-0.349408,-0.689056,-0.9625,5.95,4.6025
1115,240885,0.59536,-0.35258,-0.682956,-2.8875,4.1125,1.1725
1116,240983,0.589016,-0.380396,-0.674172,-3.8325,2.2575,-1.96
1117,241081,0.589016,-0.35282399999999997,-0.6844201,-5.9675,0.1225,-6.0375
1118,241179,0.599508,-0.32866799999999996,-0.68686,-8.2075,-1.68,-9.2925
1119,241277,0.5978,-0.31354,-0.7032079999999999,-9.5725,-3.0975,-11.2525
1120,241375,0.604876,-0.302316,-0.7019880000000001,-9.835,-3.6925,-12.0575
1121,241473,0.5980439999999999,-0.30866,-0.704916,-9.7825,-4.5675,-12.46
1122,241571,0.59048,-0.30841599999999997,-0.706136,-10.22,-5.215,-13.1075
1123,241669,0.593896,-0.31598000000000004,-0.699548,-10.7975,-5.7575,-14.56
1124,241767,0.59658,-0.305732,-0.7078439999999999,-10.185,-5.845,-16.5025
1125,241865,0.593896,-0.314272,-0.709796,-7.84,-5.7225,-18.165
1126,241963,0.5987760999999999,-0.30475599999999997,-0.7129681,-8.015,-5.3375,-18.725
1127,242062,0.5936520000000001,-0.305,-0.71736,-6.7025,-4.6725,-18.725
1128,242160,0.5897479999999999,-0.30134,-0.71492,-5.32,-4.0775,-18.48
1129,242258,0.58194,-0.310368,-0.7200439999999999,-4.1125,-3.43,-19.005
1130,242356,0.619516,-0.260348,-0.71248,-3.3775,-1.96,-19.9325
1131,242454,0.60878,-0.270596,-0.716384,-1.1025,0.2275,-19.74
1132,242552,0.6070720000000001,-0.266204,-0.7137001000000001,1.26,1.7325,-19.3375
1133,242650,0.584136,-0.28792,-0.727608,5.7925,3.4475,-19.7925
1134,242748,0.6007279999999999,-0.271328,-0.72468,10.5875,6.055,-22.3475
1135,242846,0.612928,-0.290116,-0.7093081,11.3225,8.8725,-23.4675
1136,242944,0.627812,-0.266692,-0.73078,14.735,10.7625,-23.8
1137,243042,0.60146,-0.250832,-0.742492,15.7325,13.6325,-23.485
1138,243140,0.6034121,-0.23521599999999998,-0.7707961,17.1675,18.2875,-21.1225
1139,243238,0.5814520000000001,-0.228872,-0.767868,21.0525,25.3225,-19.1975
1140,243336,0.618052,-0.23521599999999998,-0.7625,24.2725,33.145,-18.8825
1141,243434,0.6375721,-0.242292,-0.762988,29.96,42.0,-17.3775
1142,243532,0.64782,-0.246928,-0.7673800000000001,36.2775,52.185,-14.56
1143,243630,0.658068,-0.238144,-0.791292,43.6975,64.4875,-12.04
1144,243728,0.6502600000000001,-0.24082800000000001,-0.8244761,54.4075,80.0275,-8.5925
1145,243827,0.5897479999999999,-0.236436,-0.853024,65.94,99.6625,-5.5475
1146,243925,0.6573359999999999,-0.294996,-0.883768,78.1375,122.605,-6.685
1147,244023,0.5968241,-0.209596,-0.9189040999999999,95.9175,150.745,-9.38
1148,244121,0.580232,-0.162504,-1.0260200000000002,114.0475,182.1925,-10.5875
1149,244219,0.638792,-0.15982000000000002,-1.120692,135.52,226.0125,-6.9125
1150,244317,0.452132,-0.004392,-1.270508,166.9325,282.8525,2.24
1151,244415,0.636352,0.163724,-1.32736,197.89,330.1375,16.8875
1152,244513,1.140212,-0.182024,-1.170468,260.295,355.985,56.7175
1153,244611,1.909056,-0.062464,-1.259528,347.0075,383.4775,103.915
1154,244709,2.439756,0.112972,-1.42618,469.2275,364.035,174.9825
1155,244807,1.338096,0.499468,-1.200236,566.3875,292.4425,258.055
1156,244905,1.104832,-0.08174001,-0.621468,573.405,189.0175,297.6575
1157,245003,0.8361879999999999,-1.047736,-0.31890799999999997,573.3875,96.91501,259.7175
1158,245101,0.859856,-2.175992,-0.61,558.845,47.4425,143.85
1159,245199,3.099776,-1.729228,-1.4396,400.68,20.23,-21.035
1160,245297,2.07888,-0.665632,-4.066992,207.06,-66.1675,-173.2325
1161,245395,0.490196,0.296948,-1.920768,155.68,-248.8325,-211.47
1162,245493,-0.03294,0.5577840000000001,-1.1953559999999999,180.005,-313.5125,-229.5825
1163,245591,0.159088,0.203984,-0.9386681,247.03,-322.1925,-240.5375
1164,245689,0.221552,-0.250832,-0.9291520000000001,287.8225,-320.635,-232.19
1165,245788,0.35672800000000005,-0.623908,-0.9076799999999999,287.98,-327.355,-204.3125
1166,245886,0.282064,-0.9501360999999999,-0.9506241,258.615,-335.0725,-160.4575
1167,245984,0.317932,-1.039928,-0.9686799999999999,188.58,-337.4175,-114.625
1168,246082,0.29597199999999996,-0.7229720000000001,-0.995764,104.1775,-328.3175,-73.815
1169,246180,0.288408,-0.26961999999999997,-0.9376921,44.5025,-315.2275,-34.755
1170,246278,0.374296,0.151036,-0.9701440999999998,20.2125,-303.3275,1.4875
1171,246376,0.5343600000000001,0.354044,-1.040416,26.5125,-295.505,33.95
1172,246474,0.714432,0.49263599999999996,-1.128744,43.1375,-294.2275,59.15
1173,246572,0.8842561,0.563884,-1.219268,59.01,-300.125,74.165
1174,246670,1.053348,0.636108,-1.280756,64.7325,-312.7425,75.6525
1175,246768,1.157292,0.760792,-1.280024,59.43,-329.2275,64.27750999999999
1176,246866,1.2080440000000001,0.9433041,-1.238544,51.415,-344.435,42.28
1177,246964,1.306132,1.102148,-1.232688,51.485,-356.1425,12.9675
1178,247062,1.436672,1.172908,-1.239032,62.825,-366.485,-19.4775
1179,247160,1.580876,1.081896,-1.21756,81.46251,-379.0325,-50.6625
1180,247258,1.671644,0.9406200000000001,-1.146068,95.1475,-391.755,-76.615
1181,247356,1.706048,0.8281360999999999,-1.032852,101.3775,-400.3825,-94.4825
1182,247454,1.770464,0.665144,-0.913292,102.3225,-399.9275,-106.61
1183,247552,1.86172,0.47458,-0.7376119999999999,97.02,-391.65,-115.8675
1184,247650,2.042036,0.268644,-0.582184,86.9225,-378.805,-120.4875
1185,247749,2.203808,0.080276,-0.35624,74.025,-364.9625,-118.5275
1186,247847,2.3089720000000002,-0.083204,-0.073688,59.325,-347.235,-108.8675
1187,247945,2.421944,-0.133712,0.21447600000000003,43.855,-321.475,-94.15
1188,248043,2.5171040000000002,0.023424,0.456768,34.2475,-290.2725,-80.43
1189,248141,2.541992,0.259372,0.666852,39.7075,-258.3,-73.395
1190,248239,2.558584,0.41358,0.8252079999999999,59.955,-226.8175,-76.6675
1191,248337,2.498072,0.46945600000000004,0.9713639999999999,81.9875,-198.065,-91.7875
1192,248435,2.2770080000000004,0.36648800000000004,1.0589600000000001,95.3225,-169.645,-114.6075
1193,248533,2.8618759999999996,-0.138836,2.401936,49.4375,-75.705,-163.52
1194,248631,3.290828,0.725412,2.19844,8.26,38.1675,-228.55
1195,248729,0.818376,0.439688,-0.630008,6.3875,85.015,-264.215
1196,248827,-0.105652,-1.861476,-1.462536,98.84000999999999,98.0,-235.1125
1197,248925,1.599176,-1.209264,0.381616,-26.04,142.52,-170.7125
1198,249023,3.6290120000000003,-1.72386,-2.3968119999999997,28.595,154.4025,-126.9975
1199,249121,0.6661201,0.171044,-1.21146,-112.6825,88.9175,-49.35
1200,249219,0.148108,0.7793359999999999,-0.743224,-87.2725,92.645,-40.915
1201,249317,0.337208,0.05563200000000001,-0.9598959999999999,-3.1325,115.08,-46.1825
1202,249415,0.54656,-0.39284,-0.705892,9.555,116.025,-55.7375
1203,249513,0.786656,-0.416264,-0.787144,18.935,119.2625,-47.915
1204,249611,0.8730319999999999,-0.558516,-0.919392,16.6075,115.675,-41.58
1205,249709,2.558828,-1.1714440000000002,-0.763476,-11.7425,90.4575,-33.1625
1206,249807,0.7183361,-0.04392,-1.001132,-85.0325,21.595,-26.075
1207,249905,0.681248,-0.262056,-0.668072,-18.6725,23.835,-15.4
1208,250003,0.71736,-0.28792,-0.8052,-22.9775,22.435,-11.235
1209,250102,0.658556,-0.30402399999999996,-0.74664,-15.9425,18.095,-8.0675
1210,250200,0.6566041,-0.289628,-0.726144,-6.4225,15.33,-5.985
1211,250298,0.6480640000000001,-0.2806,-0.729072,-3.57,14.28,-4.06
1212,250396,0.639768,-0.283528,-0.7229720000000001,0.98,13.0025,-1.7325
1213,250494,0.639768,-0.261324,-0.7041841,3.745,12.425,0.4025
1214,250592,0.6314721,-0.267424,-0.706624,6.3525,12.0225,2.38
1215,250690,0.6329359999999999,-0.29158,-0.68808,7.0875,12.215,3.4125
1216,250788,0.6283,-0.30012,-0.665876,6.72,11.9525,3.6925
1217,250886,0.6224441,-0.318664,-0.6600201,4.8825,11.375,3.115
1218,250984,0.6168319999999999,-0.340136,-0.6463561,1.4875,10.6575,1.2425
1219,251082,0.6117081,-0.36356,-0.633668,-2.87,9.7125,-1.6275
1220,251180,0.611952,-0.384544,-0.614392,-7.84,8.33,-5.67
1221,251278,0.6170760000000001,-0.37746799999999997,-0.6168319999999999,-14.105,6.44,-10.6575
1222,251376,0.6222,-0.353068,-0.633668,-20.265,3.9725,-15.365
1223,251474,0.623908,-0.3538,-0.6344,-25.655,1.05,-19.4075
1224,251572,0.6283,-0.333304,-0.658312,-29.54,-0.77,-22.995
1225,251670,0.636108,-0.316956,-0.671244,-30.765,-1.785,-25.8825
1226,251768,0.626104,-0.310368,-0.6885680999999999,-29.4875,-2.7475,-28.63
1227,251866,0.62464,-0.308904,-0.689056,-27.16,-4.3925,-32.165
1228,251964,0.621712,-0.313052,-0.691496,-26.0925,-6.2475,-36.015
1229,252063,0.635864,-0.33184,-0.676612,-24.535,-7.42,-40.3725
1230,252161,0.597068,-0.305244,-0.693692,-22.3825,-4.305,-44.2575
1231,252259,0.650748,-0.28377199999999997,-0.6956439999999999,-21.0875,-1.8375,-45.9025
1232,252357,0.673928,-0.24644000000000002,-0.68686,-17.92,-0.0525,-46.97
1233,252455,0.684664,-0.219844,-0.688812,-14.3325,0.07,-46.4625
1234,252553,0.729072,-0.17934,-0.638792,-11.76,0.6825,-45.885
1235,252651,0.67832,-0.211304,-0.693448,-5.635,1.1025,-43.12
1236,252749,0.668072,-0.190808,-0.6917399999999999,-2.7825,2.4325,-39.5675
1237,252847,0.6673399999999999,-0.239852,-0.696132,2.9925,4.4975,-37.625
1238,252945,0.6441600000000001,-0.216916,-0.7176041,4.9175,9.7825,-37.6075
1239,253043,0.59536,-0.2074,-0.761524,10.6575,16.31,-39.41
1240,253141,0.631228,-0.149328,-0.7808001,13.23,28.07,-41.16
1241,253239,0.6512359999999999,-0.157868,-0.774212,15.435,40.845,-40.3025
1242,253337,0.635864,-0.119072,-0.786412,17.8675,54.11,-39.06
1243,253435,0.651968,-0.10736,-0.773968,21.9975,69.65,-36.2425
1244,253533,0.671732,-0.134932,-0.780312,27.51,86.975,-31.955
1245,253631,0.601216,-0.11394800000000001,-0.784704,35.28,106.9775,-29.155
1246,253729,0.705404,-0.172752,-0.752496,41.2475,128.59,-27.93
1247,253827,0.709796,-0.17543599999999998,-0.7832399999999999,52.29,156.66,-27.615
1248,253926,0.8215481,-0.233752,-0.8030041,62.1425,190.715,-27.2825
1249,254024,0.7664041,-0.313784,-0.7793359999999999,73.4475,230.58,-28.1925
1250,254122,0.5777920999999999,-0.17934,-0.8662001,85.2425,275.24,-34.685
1251,254220,0.6344,-0.203008,-0.936472,95.515,322.9275,-43.54
1252,254318,0.774456,-0.1952,-0.9577,103.81,390.8975,-50.3475
1253,254416,0.738588,-0.09345201,-1.0462719999999999,114.7475,487.095,-50.2075
1254,254514,0.777628,-0.025131999999999998,-1.102148,124.46,562.1175,-40.39
1255,254612,1.736792,-0.443104,-1.05164,149.625,573.405,-9.59
1256,254710,2.63642,-0.462624,-0.8601,198.59,572.7925,48.0025
1257,254808,2.498072,-0.054412,-0.9484280999999999,226.1,543.48,82.4075
1258,254906,1.990796,-0.8400921,-1.068232,278.705,460.46,112.7175
1259,255004,1.5433,-1.2136559999999998,-1.4598520000000001,311.4825,350.735,96.67
1260,255102,1.779004,-1.115324,-1.7982799999999999,244.9475,239.1375,35.0
1261,255200,3.2351959999999997,-1.3590799999999998,-1.7672919999999999,234.535,180.8625,-22.3475
1262,255298,2.55956,-1.380064,-3.024136,122.3775,195.58,-126.455
1263,255396,1.086044,-1.116788,-2.952888,92.90751,110.845,-152.04
1264,255494,1.170468,-1.2763639999999998,-2.953864,102.235,-39.8125,-100.695
1265,255592,0.251564,-1.0723799999999999,-2.208444,86.835,-147.63,-57.3825
1266,255690,-0.10638399999999999,-0.9103641,-1.6206479999999999,69.80751,-201.285,-29.75
1267,255788,0.007808001,-0.868884,-1.47254,57.645,-216.1775,-11.3575
1268,255886,0.189344,-0.8054439999999999,-1.40544,43.3825,-227.29,7.665
1269,255984,0.34794400000000003,-0.7078439999999999,-1.3603,25.1475,-246.0325,28.28
1270,256082,0.5002,-0.576084,-1.301252,7.385,-272.37,49.7875
1271,256180,0.5975560000000001,-0.407236,-1.212192,-6.72,-301.84,68.635
1272,256278,0.679296,-0.24082800000000001,-1.127768,-15.6275,-330.9075,83.4225
1273,256376,0.773968,-0.090036,-1.041392,-18.2875,-355.32,94.46500999999999
1274,256474,0.8466800999999999,0.032695999999999996,-0.9955200000000001,-15.61,-376.9675,100.835
1275,256573,0.9825879999999999,0.082228,-0.9616040000000001,-7.455,-397.25,103.775
1276,256671,1.019676,0.10760399999999999,-0.8998719999999999,-1.2425,-415.5375,104.4225
1277,256769,1.067988,0.064172,-0.8759601,2.94,-429.59,101.7275
1278,256867,1.168028,0.023912,-0.8927959999999999,4.27,-437.43,98.035
1279,256965,1.22,-0.0061,-0.8962120000000001,3.3775,-439.6175,95.83
1280,257063,1.2214639999999999,-0.00244,-0.856684,2.975,-439.8275,94.81501
1281,257161,1.2785600000000001,0.029524,-0.84424,6.755,-435.5925,94.115
1282,257259,1.520852,-0.023668,-0.9320801,16.2225,-424.9875,92.645
1283,257357,1.69702,-0.07856801,-0.968192,27.1075,-415.6775,92.33001
1284,257455,1.754604,-0.145912,-0.898164,37.4675,-407.5225,93.625
1285,257553,1.8663560000000001,-0.301584,-0.8510719999999999,42.9975,-393.2775,94.115
1286,257651,2.1691599999999998,-0.5038600000000001,-0.8901120000000001,39.7425,-373.1525,95.1125
1287,257749,2.7142560000000002,-0.6566041,-0.964532,31.1325,-358.05,103.075
1288,257847,3.2107959999999998,-0.6729520999999999,-0.8376520000000001,13.9125,-356.195,119.8575
1289,257945,3.310104,-0.5002,-0.407724,-9.66,-361.69,134.26
1290,258043,3.132472,-0.290116,0.181536,-30.8175,-357.9975,133.945
1291,258141,2.965088,-0.09223200000000001,0.7659161,-45.0625,-331.1525,118.3175
1292,258239,2.9670400000000003,0.063196,1.2190239999999999,-48.5975,-282.73,92.34751
1293,258337,3.12564,0.056608000000000006,1.508408,-36.5925,-226.4675,62.1075
1294,258435,3.2544720000000003,0.010736,1.6897,-16.1875,-176.1725,37.8
1295,258533,3.1812720000000003,0.071004,1.892952,3.9025,-133.14,26.88
1296,258631,3.014376,0.239608,2.006168,20.0375,-89.5825,26.25
1297,258729,2.8918880000000002,0.34038,1.921256,31.71,-42.4375,26.9675
1298,258827,2.808928,0.318176,1.659688,31.2725,2.555,18.515
1299,258925,2.716452,0.30841599999999997,1.3083280000000002,17.5875,39.095,-2.9925
1300,259023,-0.250344,-0.61488,-3.24154,15.5925,66.4475,-38.255
1301,259121,-2.8308880000000003,-0.532652,-1.8173119999999998,29.89,159.8975,-95.9525
1302,259220,-0.028548,0.41016400000000003,2.632516,-7.3675,254.17,-166.0225
1303,259318,2.8552880000000003,-0.382592,-2.0813200000000003,-25.34,305.1125,-226.065
1304,259416,1.384212,-0.537776,-0.41577600000000003,-9.2225,253.12,-185.64
1305,259514,2.0191,-0.20496,-0.998448,-57.0675,251.4925,-158.025
1306,259612,2.386564,-1.068232,-1.7873,26.3375,226.1175,-151.76
1307,259710,2.3467919999999998,0.36966,-1.334192,-83.52750999999999,171.815,-130.655
1308,259808,1.573312,-0.209108,-1.459608,33.0225,126.1225,-76.6675
1309,259906,0.49117200000000005,-0.228872,-0.936716,-23.24,108.045,-59.8325
1310,260004,0.765672,-0.8113001,-1.3266280000000001,16.205,106.4,-48.125
1311,260102,1.7694880000000002,-0.9964959999999999,-1.1629040000000002,-44.555,100.8875,-25.3575
1312,260200,1.11386,-0.19739600000000002,-0.8364321,-81.2875,53.375,-20.2825
1313,260298,0.60268,-0.29597199999999996,-0.8256960999999999,-34.055,18.41,-21.1225
1314,260396,0.7198,-0.327448,-0.7617681,-30.03,17.9375,-18.4275
1315,260494,0.618052,-0.29597199999999996,-0.742492,-19.7575,11.2175,-14.7875
1316,260592,0.60512,-0.360388,-0.727364,-15.295,9.8,-13.3
1317,260690,0.600484,-0.384056,-0.70516,-14.0525,7.49,-12.845
1318,260788,0.6182960999999999,-0.343552,-0.714676,-12.565,5.0225,-13.335
1319,260886,0.602436,-0.337696,-0.7107720000000001,-10.85,3.2725,-12.8625
1320,260984,0.610244,-0.306952,-0.741272,-9.625,2.5725,-11.8125
1321,261082,0.589016,-0.315736,-0.7227279999999999,-7.3325,2.555,-10.71
1322,261180,0.5875520000000001,-0.328912,-0.7200439999999999,-5.3725,2.765,-9.73
1323,261278,0.585356,-0.332084,-0.7015,-5.0575,2.8525,-9.835
1324,261377,0.589504,-0.33794,-0.687104,-6.055,2.8525,-10.6225
1325,261475,0.582428,-0.34281999999999996,-0.6985720999999999,-7.8225,2.2925,-11.7775
1326,261573,0.589016,-0.32208000000000003,-0.687104,-10.045,1.6975,-13.475
1327,261671,0.5856,-0.321348,-0.694912,-12.18,1.26,-14.9975
1328,261769,0.580476,-0.33794,-0.6856399999999999,-15.4525,1.3475,-17.325
1329,261867,0.591212,-0.35526399999999997,-0.653188,-18.27,0.35,-21.385
1330,261965,0.5978,-0.361608,-0.633912,-21.0875,-1.0675,-26.355
1331,262063,0.599264,-0.339648,-0.62464,-28.1925,-4.1475,-30.415
1332,262161,0.6107319999999999,-0.324276,-0.686128,-35.1925,-6.5975,-33.005
1333,262259,0.5946279999999999,-0.317444,-0.693692,-38.71,-7.0,-34.2125
1334,262357,0.6075600999999999,-0.30182800000000004,-0.7449321,-37.3275,-5.7575,-34.4575
1335,262455,0.6158561,-0.24497600000000003,-0.759084,-33.985,-3.78,-32.55
1336,262553,0.612684,-0.21374400000000002,-0.764208,-28.6475,-3.745,-28.7175
1337,262651,0.6058520000000001,-0.243756,-0.7625,-22.5225,-3.395,-26.0575
1338,262749,0.5897479999999999,-0.271084,-0.7442,-17.9375,-2.765,-25.725
1339,262847,0.57218,-0.30134,-0.741272,-15.365,-1.715,-27.895
1340,262945,0.5751081,-0.29646,-0.74054,-14.2625,0.1925,-32.0775
1341,263043,0.5892601,-0.26596,-0.7390760000000001,-12.88,2.695,-36.575
1342,263141,0.621468,-0.28328400000000004,-0.701256,-9.135,4.9875,-41.1075
1343,263239,0.62098,-0.22277199999999997,-0.7288279999999999,-7.4025,7.805,-44.9925
1344,263337,0.5814520000000001,-0.172264,-0.8052,-5.4075,11.27,-45.185
1345,263435,0.57706,-0.187392,-0.787632,-1.5575,19.18,-43.4875
1346,263533,0.57218,-0.163724,-0.7956840999999999,4.3575,32.2175,-42.5775
1347,263631,0.636352,-0.160064,-0.7937320999999999,13.8425,46.445,-42.0
1348,263729,0.6368401,-0.163724,-0.815936,20.86,62.16,-39.165
1349,263827,0.530456,-0.123464,-0.827892,23.1175,79.31,-37.8525
1350,263925,0.6326921,-0.164456,-0.8308200000000001,23.0475,96.9675,-38.5
1351,264023,0.6822239999999999,-0.20105599999999998,-0.8308200000000001,29.9775,120.4175,-37.9575
1352,264122,0.639768,-0.20008,-0.8493641,39.8825,148.575,-38.8675
1353,264220,0.8105680000000001,-0.296704,-0.856684,49.0525,182.9275,-42.6475
1354,264318,0.58194,-0.21276799999999998,-0.9320801,64.295,228.6725,-47.74
1355,264416,0.5892601,-0.313784,-0.9577,78.6625,281.26,-56.4025
1356,264514,0.541924,-0.44554399999999994,-0.9179280000000001,87.99,341.5475,-74.0775
1357,264612,0.756156,-0.373808,-1.029924,89.285,419.755,-104.0025
1358,264710,0.734196,-0.255468,-1.1831559999999999,94.86751,523.775,-123.8125
1359,264808,0.726144,-0.15128,-1.22,104.195,572.005,-122.9725
1360,264906,1.1192280000000001,-0.46238,-1.121668,106.9425,573.405,-110.4075
1361,265004,3.0636639999999997,-0.21057199999999998,-1.26514,111.1075,573.405,-113.2775
1362,265102,2.248704,-0.778604,-1.237568,121.0125,564.27,-89.79251
1363,265200,1.701412,-1.1009280000000001,-0.9179280000000001,155.505,472.7975,-60.7425
1364,265298,2.500268,-1.220244,-1.80682,115.8325,421.435,-114.9575
1365,265396,2.186728,-1.175592,-2.097424,43.1725,333.83,-117.0225
1366,265494,2.972408,-1.267824,-1.41398,56.2625,249.3925,-96.67
1367,265592,3.131496,-1.890512,-3.372812,-41.8075,270.655,-128.6425
1368,265690,1.417884,-1.487424,-3.2939999999999996,-67.9875,180.18,-119.665
1369,265788,1.1448479999999999,-1.361032,-3.218116,-47.11,16.3975,-51.625
1370,265886,0.242048,-1.108248,-2.340448,-53.55,-101.0625,-10.5
1371,265984,-0.245464,-0.874252,-1.7158080000000002,-64.0325,-158.34,3.3075
1372,266083,-0.09735601,-0.801296,-1.542812,-66.5175,-178.15,5.005
1373,266181,0.11394800000000001,-0.7598161,-1.495476,-67.725,-197.19,8.47
1374,266279,0.3172,-0.758596,-1.442528,-69.16,-227.6225,16.9925
1375,266377,0.557296,-0.754204,-1.396168,-69.52750999999999,-270.97,29.9775
1376,266475,0.6182960999999999,-0.721996,-1.214388,-70.91001,-318.325,44.66
1377,266573,0.716384,-0.684908,-1.031144,-70.595,-361.41,58.8875
1378,266671,0.786412,-0.620736,-0.892308,-71.5575,-395.255,70.49
1379,266769,0.850096,-0.55266,-0.76372,-67.3575,-421.4525,81.2875
1380,266867,0.9330560999999999,-0.570716,-0.670024,-57.1725,-440.72,94.4125
1381,266965,0.9706319999999999,-0.5516840000000001,-0.5975560000000001,-49.35,-451.885,106.575
1382,267063,1.0169920000000001,-0.5795,-0.56852,-41.65,-457.905,116.9
1383,267161,1.026508,-0.598532,-0.5499761,-34.825,-457.065,125.58
1384,267259,1.052616,-0.6168319999999999,-0.547292,-31.36,-450.73,131.4425
1385,267357,1.103856,-0.574864,-0.5499761,-27.72,-440.2125,134.645
1386,267455,1.294176,-0.564616,-0.66978,-18.935,-425.145,135.9225
1387,267553,1.598444,-0.657824,-0.8359440999999999,-7.0,-411.7925,133.315
1388,267651,1.843176,-0.766892,-0.9145120999999999,3.885,-407.995,129.5525
1389,267749,1.9959200000000001,-0.8178880999999999,-0.8945040000000001,12.7575,-408.4675,129.1675
1390,267847,2.181848,-0.9459880999999999,-0.8247200000000001,19.53,-402.535,133.245
1391,267946,2.53028,-1.0262639999999998,-0.7761640999999999,21.945,-389.4975,139.9825
1392,268044,3.058052,-0.9616040000000001,-0.735416,19.425,-374.9025,151.8825
1393,268142,3.5009120000000005,-0.69296,-0.5607121,15.2425,-366.8525,165.4975
1394,268240,3.554104,-0.4023561,-0.147376,14.5775,-362.8275,171.36
1395,268338,3.421124,-0.16226,0.34794400000000003,15.47,-346.15,162.1025
1396,268436,3.3950160000000005,-0.058316,0.818376,12.0575,-311.2725,135.94
1397,268534,3.427224,-0.027083999999999997,1.2641639999999998,3.6925,-268.1525,97.7375
1398,268632,3.360124,-0.000976,1.6504159999999999,-3.1675,-223.58,59.4125
1399,268730,3.3018080000000003,0.023180000000000003,1.915888,4.025,-176.715,36.82
1400,268828,3.1995720000000003,0.090768,2.088152,21.4025,-124.565,33.495
1401,268926,3.0990439999999997,0.15738,2.082052,41.44,-71.3125,39.41
1402,269024,3.0524400000000003,0.189344,1.8602560000000001,55.1775,-20.9825,44.2925
1403,269122,2.871636,0.16958,1.558184,54.7575,22.9775,42.875
1404,269220,1.481324,-0.652456,0.8769360999999999,46.7775,60.025,29.61
1405,269318,-1.606496,-1.836832,-3.3130319999999998,-31.185,131.0575,-3.115
1406,269416,-3.149796,0.293532,0.447984,-124.1975,258.615,-51.625
1407,269514,2.472696,2.5644400000000003,-0.3904,-129.99,350.0525,-131.4075
1408,269612,2.7833080000000003,0.44115200000000004,-2.046672,-27.65,342.545,-125.265
1409,269710,1.520852,1.264652,-0.869128,-51.5375,276.9725,-144.2175
1410,269809,2.210396,-0.16226,-1.187548,13.545,259.0525,-135.065
1411,269907,2.339228,-1.760948,-1.2190239999999999,54.565,221.585,-112.07
1412,270005,1.849032,0.298168,-1.6555400000000002,-21.9975,195.37,-75.8275
1413,270103,1.164612,-0.08662001,-1.2444,21.35,146.5975,-69.87751
1414,270201,0.646844,-0.324764,-0.91012,16.7825,130.445,-60.0775
1415,270299,0.662704,-0.21472,-0.8801081000000001,32.935,129.2725,-46.9525
1416,270397,1.4635120000000001,-1.9183279999999998,-0.9296399999999999,27.72,124.2675,-38.71
1417,270495,1.6204040000000002,-0.5673,-0.984784,-96.84501,98.89251,-16.8
1418,270593,1.084092,-0.18422,-0.945744,-69.52750999999999,50.3475,-26.3725
1419,270691,0.74298,-0.37576,-0.784704,-39.4275,24.605,-27.9825
1420,270789,0.695156,-0.30353600000000003,-0.734928,-30.0125,16.73,-26.46
1421,270887,0.62098,-0.366976,-0.708088,-23.5025,9.975,-26.5825
1422,270985,0.6422081000000001,-0.353556,-0.718824,-21.84,6.3175,-26.95
1423,271083,0.633424,-0.319152,-0.721264,-19.9675,2.59,-27.055
1424,271181,0.6290319999999999,-0.299144,-0.7183361,-17.7275,-0.1925,-26.18
1425,271279,0.6219561,-0.27084,-0.7483479999999999,-14.84,-2.5025,-25.165
1426,271377,0.6224441,-0.27328,-0.7256560000000001,-13.37,-4.0775,-24.57
1427,271475,0.590968,-0.304268,-0.7107720000000001,-10.7625,-5.3025,-24.29
1428,271573,0.5897479999999999,-0.310368,-0.694912,-12.0925,-5.2325,-24.815
1429,271671,0.604388,-0.30012,-0.679784,-14.7,-3.64,-24.85
1430,271769,0.59048,-0.292068,-0.703696,-16.8525,-2.94,-24.0975
1431,271867,0.613904,-0.284992,-0.699792,-18.235,-2.415,-23.94
1432,271965,0.60878,-0.309636,-0.66978,-20.09,-2.31,-23.7475
1433,272064,0.586576,-0.3233,-0.6810039999999999,-23.4675,-2.3975,-25.0775
1434,272162,0.6007279999999999,-0.3355,-0.663924,-28.455,-2.1,-27.8425
1435,272260,0.6019479999999999,-0.316712,-0.7007680000000001,-32.0075,-1.855,-30.24
1436,272358,0.61732,-0.255468,-0.7229720000000001,-34.755,-1.505,-31.3425
1437,272456,0.6156119999999999,-0.235948,-0.740296,-33.425,-1.5225,-30.59
1438,272554,0.632448,-0.229848,-0.738588,-30.1875,-0.8575,-28.1925
1439,272652,0.6329359999999999,-0.235704,-0.7451760000000001,-25.7075,-0.8400001,-26.285
1440,272750,0.6109760000000001,-0.22789600000000002,-0.746396,-20.79,-0.63,-26.145
1441,272848,0.6039,-0.260104,-0.739564,-16.6775,0.5075,-26.8625
1442,272946,0.6141479999999999,-0.249856,-0.726144,-13.72,2.345,-28.9625
1443,273044,0.6131721,-0.254004,-0.719312,-10.85,4.2175,-31.045
1444,273142,0.618052,-0.259128,-0.71736,-9.415,6.09,-34.02
1445,273240,0.6283,-0.225944,-0.7200439999999999,-8.61,7.98,-37.73
1446,273338,0.6097560000000001,-0.194712,-0.741272,-7.105,9.8175,-40.6525
1447,273436,0.6075600999999999,-0.21886799999999998,-0.74298,-3.3425,13.1775,-43.225
1448,273534,0.54778,-0.14152,-0.835456,-2.3625,20.3525,-43.9425
1449,273632,0.577304,-0.15762400000000001,-0.7903161,3.4475,32.9525,-42.7875
1450,273730,0.621712,-0.150792,-0.815936,11.0775,48.16,-43.8025
1451,273829,0.5294800000000001,-0.08296,-0.818132,16.6775,63.5775,-43.1725
1452,273927,0.6082920999999999,-0.098576,-0.818376,16.555,77.77,-41.6325
1453,274025,0.6182960999999999,-0.121268,-0.815936,19.1275,94.78,-39.9175
1454,274123,0.583404,-0.132004,-0.8335040000000001,24.045,115.99,-40.3375
1455,274221,0.6202479999999999,-0.164944,-0.8296,28.665,140.84,-43.0675
1456,274319,0.571936,-0.160552,-0.8298440999999999,34.3175,170.065,-48.51
1457,274417,0.540704,-0.15274400000000002,-0.8549761,41.79,206.9725,-57.12
1458,274515,1.017724,-0.416264,-0.811056,48.86,254.6075,-69.0025
1459,274613,0.5702281,-0.358192,-0.91622,67.515,324.975,-82.53
1460,274711,0.615124,-0.351848,-1.006256,89.285,406.945,-105.5075
1461,274809,0.671732,-0.219844,-1.263188,96.70501,505.7325,-131.74
1462,274907,0.552416,-0.17812,-1.4837639999999999,101.745,569.9749,-135.3975
1463,275005,0.919636,-0.072956,-1.0582280000000002,97.28251,573.405,-128.135
1464,275103,1.5786799999999999,-0.489708,-0.42016800000000004,93.38,573.3875,-128.3625
1465,275201,3.460164,-0.39967199999999997,-0.960628,120.82,573.405,-86.9575
1466,275299,2.763788,-0.681736,-1.011868,164.7275,558.985,-55.965
1467,275397,2.4029119999999997,-1.2336639999999999,-1.807796,174.23,431.3225,-86.7825
1468,275495,1.580388,-1.111176,-1.8580599999999998,112.4375,255.7625,-90.125
1469,275593,3.3698839999999994,-1.605032,-1.931504,29.7325,192.64,-81.2875
1470,275691,2.995588,-1.731668,-3.1873720000000003,-74.6025,235.585,-139.685
1471,275789,1.323944,-1.40544,-3.138328,-63.56,176.995,-120.995
1472,275887,1.055056,-1.3298,-3.098312,-40.95,29.9075,-48.3175
1473,275985,0.251808,-1.1533879999999999,-2.307264,-35.525,-77.525,-3.7625
1474,276083,-0.200324,-0.9503799999999999,-1.7280080000000002,-40.6,-133.665,12.565
1475,276182,-0.10540799999999999,-0.8283799999999999,-1.572092,-40.2325,-156.6425,16.6775
1476,276280,0.0732,-0.738588,-1.5708719999999998,-38.745,-182.28,24.8325
1477,276378,0.363072,-0.7129681,-1.508652,-36.9775,-222.5475,40.7925
1478,276476,0.555588,-0.65758,-1.403732,-33.285,-271.46,60.4275
1479,276574,0.6231760999999999,-0.590724,-1.194136,-30.9925,-319.9175,80.3425
1480,276672,0.682956,-0.523868,-1.004304,-31.7975,-361.235,96.74
1481,276770,0.745664,-0.423096,-0.8544879999999999,-34.02,-390.39,109.55
1482,276868,0.845216,-0.371856,-0.7829961,-32.41,-411.0925,120.575
1483,276966,0.927688,-0.329644,-0.7388319999999999,-27.265,-425.565,131.635
1484,277064,0.976,-0.308904,-0.6844201,-20.6325,-436.6075,141.8375
1485,277162,1.0406600000000001,-0.326228,-0.6973520000000001,-15.575,-443.6425,149.485
1486,277260,1.130208,-0.370636,-0.7700640999999999,-13.055,-447.37,154.07
1487,277358,1.217072,-0.376492,-0.8095920999999999,-13.895,-449.2775,156.45
1488,277456,1.24806,-0.346236,-0.8220360000000001,-17.7975,-448.4025,156.2925
1489,277554,1.281244,-0.2745,-0.8344801,-19.6,-444.955,152.145
1490,277652,1.46766,-0.20861999999999997,-0.922076,-12.7575,-437.325,143.325
1491,277750,1.79462,-0.25742,-1.048712,1.9075,-429.5025,128.6775
1492,277848,2.00568,-0.35087199999999996,-1.078968,20.3875,-426.86,114.8175
1493,277946,2.182092,-0.47555600000000003,-1.041148,39.27,-422.555,107.1
1494,278044,2.4429279999999998,-0.709064,-0.9442801,52.2025,-410.76,104.44
1495,278142,2.8809080000000002,-0.8808401,-0.85888,52.85,-393.575,109.025
1496,278240,3.4667519999999996,-0.8510719999999999,-0.701256,40.8975,-377.5625,121.03
1497,278338,3.6580480000000004,-0.659776,-0.302072,24.3775,-368.6025,133.5775
1498,278437,3.56362,-0.503616,0.268156,11.3225,-355.1625,138.6
1499,278535,3.466996,-0.367708,0.868396,-4.0075,-322.91,130.69
1500,278633,3.458456,-0.23155599999999998,1.3886040000000002,-19.075,-274.785,113.5925
1501,278731,3.3584160000000005,-0.06636801,1.8241439999999998,-25.76,-221.3575,95.1125
1502,278829,3.268136,0.09906401,2.10206,-16.905,-166.18,83.73751
1503,278927,3.26106,0.248392,2.206004,2.9575,-107.905,80.255
1504,279025,3.240564,0.36136399999999996,2.1447599999999998,24.1675,-54.8975,79.695
1505,279123,3.136376,0.401624,1.9602959999999998,34.3,-9.2575,75.35501
1506,279221,2.321904,-0.28181999999999996,2.83894,22.575,49.2975,49.945
1507,279319,-0.528992,0.426756,-0.820816,-114.1175,211.1725,-29.3475
1508,279417,-0.9535521,-1.355664,-1.4374040000000001,-7.0,299.8275,-78.41751
1509,279515,2.09596,1.7943759999999997,0.361608,-151.0775,334.8975,-146.545
1510,279613,1.796084,-0.10858,-1.316868,-80.4475,329.56,-120.9075
1511,279711,1.40788,0.6348881,-0.7556681,-49.6475,305.2,-79.8
1512,279809,2.9028680000000002,2.022272,-2.607628,-31.605,308.28,-70.5075
1513,279907,2.5817639999999997,-0.207644,-1.7389880000000002,30.8175,226.3975,-120.26
1514,280005,1.398364,-0.6878361,-1.3163799999999999,7.9975,182.21,-94.6925
1515,280103,0.9433041,-0.193248,-1.028948,31.3425,158.0775,-61.0575
1516,280201,0.44115200000000004,-0.29572800000000005,-0.9091440000000001,12.9325,152.7575,-51.4325
1517,280299,1.48474,-1.7524080000000002,-0.43236800000000003,-1.61,150.6925,-34.3
1518,280397,1.618452,-0.479704,-0.6954,-144.585,131.285,-21.035
1519,280495,2.7084,0.17543599999999998,-1.058716,-77.1225,69.73751,-44.0825
1520,280593,0.669292,-0.36282800000000004,-0.7366361,-31.5875,13.7725,-53.2175
1521,280692,0.676612,-0.21057199999999998,-0.661972,-14.4375,14.4025,-34.23
1522,280790,0.638304,-0.366732,-0.696864,-15.3475,8.925,-31.85
1523,280888,0.630252,-0.308172,-0.714676,-20.16,4.585,-32.06
1524,280986,0.61122,-0.35282399999999997,-0.6939361,-18.97,-0.735,-34.3525
1525,281084,0.619028,-0.305976,-0.7032079999999999,-21.98,-4.69,-37.38
1526,281182,0.6439159999999999,-0.271816,-0.7139439999999999,-23.6775,-7.455,-37.6425
1527,281280,0.6158561,-0.274256,-0.7183361,-22.89,-8.365,-35.0525
1528,281378,0.614636,-0.27938,-0.70638,-23.2225,-6.545,-31.885
1529,281476,0.622688,-0.276452,-0.691008,-24.85,-3.8675,-29.4175
1530,281574,0.61854,-0.269864,-0.68686,-27.51,-2.415,-27.895
1531,281672,0.60146,-0.266448,-0.7168720000000001,-30.1,-1.1025,-27.475
1532,281770,0.6224441,-0.2501,-0.718092,-32.375,0.63,-27.23
1533,281868,0.61732,-0.2562,-0.721508,-32.34,1.7325,-27.0025
1534,281966,0.712724,-0.20642399999999997,-0.759328,-32.2525,1.2775,-26.915
1535,282064,0.658556,-0.197152,-0.7259001,-30.0475,-2.485,-26.74
1536,282162,0.643428,-0.2013,-0.72346,-23.8525,-5.075,-25.2525
1537,282260,0.634644,-0.197884,-0.736392,-21.5775,-5.705,-24.15
1538,282358,0.6351319999999999,-0.194224,-0.721264,-18.0775,-5.67,-23.1175
1539,282456,0.637084,-0.188612,-0.725168,-15.3475,-5.495,-21.7525
1540,282554,0.633424,-0.17812,-0.721508,-12.6875,-5.355,-20.0375
1541,282652,0.636108,-0.166164,-0.72468,-10.29,-4.3225,-18.235
1542,282751,0.6405,-0.17836400000000002,-0.7156520000000001,-7.7875,-2.66,-16.2225
1543,282849,0.6307401,-0.195688,-0.710284,-6.195,-1.8375,-15.2425
1544,282947,0.627568,-0.189832,-0.714432,-5.0575,-0.9625,-15.995
1545,283045,0.6258600000000001,-0.194712,-0.711504,-3.9025,0.7875,-17.29
1546,283143,0.630008,-0.196176,-0.7117479999999999,-2.625,3.2025,-18.935
1547,283241,0.63318,-0.196664,-0.7088201,-1.575,5.4075,-20.9125
1548,283339,0.6368401,-0.19642,-0.70638,-0.6125,6.4225,-22.82
1549,283437,0.62708,-0.196908,-0.720776,0.035,6.7725,-24.5
1550,283535,0.58804,-0.186416,-0.7439560000000001,1.68,8.9425,-27.0375
1551,283633,0.6097560000000001,-0.170068,-0.762744,4.4275,14.525,-31.745
1552,283731,0.6068279999999999,-0.1708,-0.763232,6.405,23.6075,-34.2125
1553,283829,0.5692520000000001,-0.118584,-0.7954399999999999,11.8125,34.16,-35.0175
1554,283927,0.6082920999999999,-0.09516001,-0.7929999999999999,12.4425,44.17,-35.5775
1555,284025,0.6109760000000001,-0.10223600000000001,-0.796904,13.9475,55.65,-34.51
1556,284123,0.61488,-0.138836,-0.795928,18.0775,69.125,-33.74
1557,284221,0.5799880000000001,-0.134444,-0.812032,22.1725,86.13501,-35.525
1558,284319,0.5914560000000001,-0.13785999999999998,-0.8195960999999999,26.67,106.435,-38.92
1559,284417,0.49580799999999997,-0.11224,-0.849852,31.15,129.92,-43.295
1560,284515,0.6304960000000001,-0.176656,-0.8488761,35.07,158.8125,-49.5775
1561,284613,0.43676000000000004,-0.19397999999999999,-0.8459479999999999,43.9075,195.055,-59.9725
1562,284712,0.966484,-0.36087600000000003,-0.8954801,43.05,239.33,-77.0875
1563,284810,0.7766521,-0.30378,-0.9120720999999999,67.27,308.175,-93.1525
1564,284908,0.658556,-0.23424,-1.0018639999999999,80.2375,396.06,-108.0625
1565,285006,0.797148,-0.337696,-1.168028,85.1375,509.3025,-117.635
1566,285104,0.732244,-0.29743600000000003,-1.338584,78.48751,570.885,-124.1625
1567,285202,1.152656,-0.2318,-1.2019440000000001,66.92,573.405,-125.475
1568,285300,2.1703799999999998,0.170312,-0.681492,87.4475,573.405,-128.2225
1569,285398,2.931416,-0.9142680000000001,-0.870592,147.8575,573.405,-77.6825
1570,285496,2.6474,-1.105808,-1.03578,177.415,559.615,-60.3575
1571,285594,2.2591959999999998,-1.047492,-1.7048279999999998,162.47,442.3825,-115.71
1572,285692,1.6567599999999998,-0.919636,-1.619672,103.88,269.8325,-132.16
1573,285790,2.585424,-1.565016,-2.205028,17.01,190.435,-84.9625
1574,285888,4.281956,-1.921256,-2.95728,-46.7775,207.4625,-115.5
1575,285986,1.180228,-1.516704,-3.1973759999999998,-67.165,158.585,-88.6025
1576,286084,0.976,-1.229028,-2.99266,-45.0275,9.6075,-5.6525
1577,286182,0.139812,-0.9947881,-2.1874599999999997,-41.335,-97.12501,42.0
1578,286280,-0.268644,-0.7473721,-1.628456,-44.415,-143.115,57.435
1579,286378,-0.08174001,-0.595604,-1.509628,-44.415,-157.3075,55.685
1580,286476,0.18324400000000002,-0.49824799999999997,-1.5469600000000001,-39.1125,-176.0675,57.33
1581,286574,0.396256,-0.42285200000000006,-1.5347600000000001,-27.9475,-211.2075,68.915
1582,286673,0.519964,-0.36648800000000004,-1.452776,-14.105,-258.4575,87.7625
1583,286771,0.6605081,-0.335744,-1.280756,-4.235,-305.935,107.625
1584,286869,0.692228,-0.282308,-1.090924,-1.54,-344.575,123.34
1585,286967,0.7256560000000001,-0.175924,-0.956968,-5.4075,-371.21,134.155
1586,287065,0.812032,-0.07637200000000001,-0.8820601,-6.475,-388.5525,143.36
1587,287163,0.901336,-0.024888,-0.8518040000000001,-2.94,-401.1,152.5475
1588,287261,0.9711200999999999,-0.001464,-0.8342360000000001,0.035,-410.6375,159.635
1589,287359,1.01016,-0.009028000999999999,-0.8271601000000001,0.0175,-418.5825,162.82
1590,287457,1.067012,-0.05929201,-0.8703481,-7.7875,-425.005,160.195
1591,287555,1.140456,-0.06588,-0.916464,-20.055,-427.7,153.2475
1592,287653,1.2075559999999999,-0.046848,-0.9628241,-32.3925,-426.6325,144.445
1593,287751,1.2993,0.0051240009999999996,-1.0086959999999998,-40.1275,-425.32,133.8225
1594,287849,1.472784,0.055388,-1.067012,-37.345,-424.935,121.065
1595,287947,1.75436,0.031476,-1.114348,-23.765,-424.8125,105.98
1596,288045,1.9339439999999999,-0.026595999999999998,-1.0858,-5.285,-424.165,92.3825
1597,288143,2.059116,-0.134444,-1.007476,14.665,-418.39,81.9875
1598,288241,2.205028,-0.345748,-0.904508,27.3525,-405.0375,73.90250999999999
1599,288340,2.734752,-0.597312,-0.9272,29.7675,-387.0825,71.7675
1600,288438,3.329136,-0.669048,-0.8357,22.995,-372.995,79.38
1601,288536,3.5475160000000003,-0.625616,-0.43334399999999995,10.605,-367.815,94.02750999999999
1602,288634,3.4372279999999997,-0.5602239999999999,0.17568,-5.8975,-358.575,103.11
1603,288732,3.3318199999999996,-0.454816,0.827892,-27.16,-330.1375,100.6425
1604,288830,3.280092,-0.28767600000000004,1.413248,-46.0425,-283.3075,90.59751
1605,288928,3.160532,-0.132492,1.8880720000000002,-51.7475,-226.065,79.4325
1606,289026,3.191276,-0.067344,2.0620439999999998,-39.6375,-163.2225,69.66751
1607,289124,3.247884,0.049288,2.088152,-18.445,-104.1075,63.3675
1608,289222,3.117832,0.21447600000000003,2.057896,3.2025,-57.1025,62.2475
1609,289320,2.950936,0.29987600000000003,1.903688,20.6675,-15.295,58.6425
1610,289418,2.7959959999999997,0.34526,1.599664,27.895,24.2375,41.335
1611,289516,0.7473721,-0.0183,0.533872,33.5125,65.8175,5.6875
1612,289614,-2.167452,-0.264008,-2.281156,37.73,173.8975,-58.94
1613,289712,-1.17364,-0.27205999999999997,1.205848,30.9925,271.18,-142.135
1614,289810,2.722552,0.22277199999999997,-0.8581479999999999,-74.0075,292.1275,-274.9775
1615,289908,1.5001120000000001,-0.7954399999999999,-0.8491200000000001,-23.2575,267.4,-234.5875
1616,290007,2.181116,1.309304,-1.053836,-60.48,269.43,-147.9975
1617,290105,2.7833080000000003,-0.171532,-2.226012,37.6425,247.6075,-125.685
1618,290203,2.55468,-1.6540759999999999,-1.351272,39.7775,172.9,-106.8025
1619,290301,0.9479401,-0.171776,-1.20902,0.63,139.335,-67.0775
1620,290399,0.518988,0.2684,-0.9928360999999999,-15.75,124.95,-54.0925
1621,290497,0.8818159999999999,-1.096048,-1.577948,26.53,121.065,-55.4575
1622,290595,2.032276,-1.086288,-0.709796,-37.9575,102.2175,-23.73
1623,290693,1.0262639999999998,-0.07490801,-0.987712,-87.8325,51.4325,-23.8
1624,290791,0.66368,-0.278404,-0.833016,-36.155,17.7975,-26.1275
1625,290889,0.682712,-0.270108,-0.771772,-26.495,14.0525,-21.665
1626,290987,0.5926760999999999,-0.310612,-0.7517640999999999,-19.81,8.6625,-17.71
1627,291085,0.609268,-0.344528,-0.752496,-16.8175,6.86,-16.8875
1628,291183,0.6007279999999999,-0.321348,-0.738588,-14.9625,4.655,-17.0625
1629,291281,0.606584,-0.28938400000000003,-0.741272,-14.0175,3.2025,-16.555
1630,291380,0.59536,-0.2806,-0.760792,-11.0775,1.6625,-14.98
1631,291478,0.590724,-0.2684,-0.769332,-8.5225,1.925,-13.475
1632,291576,0.5753520000000001,-0.271816,-0.754692,-6.0725,3.045,-11.305
1633,291674,0.571936,-0.304512,-0.7376119999999999,-3.815,3.71,-10.0275
1634,291772,0.57706,-0.284992,-0.730292,-3.8675,4.5325,-10.0275
1635,291870,0.5838920999999999,-0.29524,-0.70394,-3.9375,5.1275,-9.8
1636,291968,0.5736441,-0.28767600000000004,-0.730292,-4.4625,5.32,-9.66
1637,292066,0.583404,-0.287188,-0.705892,-6.0375,6.2475,-10.1675
1638,292164,0.567056,-0.290848,-0.7256560000000001,-6.755,7.175,-10.325
1639,292262,0.5734,-0.343796,-0.666608,-9.0475,8.1375,-12.005
1640,292360,0.59292,-0.325252,-0.6707561,-14.0,8.3825,-15.3475
1641,292458,0.584136,-0.316224,-0.677832,-17.605,6.65,-17.0625
1642,292556,0.5936520000000001,-0.294752,-0.7041841,-24.0625,4.9175,-19.8625
1643,292654,0.59658,-0.29524,-0.698328,-27.7725,3.5525,-23.135
1644,292752,0.5934081,-0.30792800000000004,-0.693692,-29.3825,2.9575,-26.8975
1645,292850,0.589504,-0.28792,-0.726876,-31.395,2.415,-30.17
1646,292949,0.5934081,-0.274012,-0.726388,-32.2875,1.12,-33.3025
1647,293047,0.6390359999999999,-0.24082800000000001,-0.70638,-33.46,-2.625,-36.4525
1648,293145,0.564128,-0.30012,-0.7605481,-28.805,-6.965,-38.4825
1649,293243,0.5946279999999999,-0.252784,-0.7622561,-26.74,-5.915,-41.1425
1650,293341,0.620736,-0.21716,-0.7503,-23.345,-4.13,-43.225
1651,293439,0.613416,-0.21716,-0.7517640999999999,-18.655,-2.205,-43.12
1652,293537,0.61366,-0.22277199999999997,-0.7378560000000001,-16.1175,-0.0175,-42.77
1653,293635,0.619516,-0.19154000000000002,-0.74298,-13.9825,1.4525,-42.735
1654,293733,0.604388,-0.173728,-0.754204,-10.99,3.3425,-42.35
1655,293831,0.595116,-0.20105599999999998,-0.762012,-6.545,7.2275,-42.9275
1656,293929,0.5502199999999999,-0.112728,-0.8383841000000001,-4.865,14.42,-43.5225
1657,294027,0.576328,-0.154696,-0.803736,2.275,25.095,-42.28
1658,294125,0.5577840000000001,-0.12761199999999998,-0.8271601000000001,11.0775,38.2025,-41.9125
1659,294223,0.5663239999999999,-0.10004,-0.817156,13.4225,51.66,-41.965
1660,294321,0.5648601,-0.09930800000000001,-0.8335040000000001,12.3025,66.08,-41.055
1661,294419,0.601216,-0.119804,-0.8383841000000001,14.875,83.1425,-39.8125
1662,294517,0.5926760999999999,-0.12761199999999998,-0.8261841000000001,19.6525,103.7925,-40.0225
1663,294615,0.575596,-0.140544,-0.8479,26.8625,128.4675,-42.0
1664,294713,0.474092,-0.101504,-0.8781559999999999,31.5525,157.29,-46.025
1665,294811,0.9042641,-0.265228,-0.9325680000000001,35.875,193.6725,-51.625
1666,294909,0.777872,-0.365512,-0.8786440999999999,54.4075,248.1325,-57.8375
1667,295007,0.5968241,-0.28694400000000003,-0.9093880999999999,71.4175,308.315,-74.2175
1668,295105,0.6058520000000001,-0.20252,-1.010892,80.64,382.1125,-95.3225
1669,295203,0.760792,-0.22496799999999997,-1.113616,93.8525,478.45,-110.495
1670,295301,0.663192,-0.164456,-1.293688,101.85,561.575,-117.1975
1671,295399,0.8847440999999999,-0.0976,-1.1209360000000002,99.925,573.405,-110.3025
1672,295498,2.035936,-0.131028,-0.818376,112.0875,573.405,-102.48
1673,295596,2.8979880000000002,-0.8249639999999999,-0.71614,138.0575,572.5825,-87.4475
1674,295694,2.657648,-1.107516,-0.9325680000000001,152.25,547.19,-69.1075
1675,295792,2.40218,-1.086288,-1.4010479999999998,114.835,462.385,-127.435
1676,295890,1.700924,-1.2341520000000001,-1.9117400000000002,65.03,328.5625,-161.77
1677,295988,1.5372,-1.240984,-1.96908,-19.2325,224.56,-123.8475
1678,296086,5.811104,-1.576972,-2.122068,-45.0975,225.5925,-135.205
1679,296184,1.856352,-1.576484,-3.367688,-125.37,264.3725,-137.62
1680,296282,1.087264,-1.079456,-2.842356,-80.08,142.0825,-75.495
1681,296380,0.868884,-1.148996,-2.783064,-58.1175,7.105,-14.49
1682,296478,0.10687200000000001,-0.9408639999999999,-2.008852,-55.16,-89.0575,15.9775
1683,296576,-0.1464,-0.835456,-1.573312,-59.535,-134.155,22.085
1684,296674,-0.058803999999999995,-0.7612800999999999,-1.4337440000000001,-64.225,-152.8625,19.425
1685,296772,0.139568,-0.769332,-1.368108,-70.0525,-174.685,20.8775
1686,296870,0.317444,-0.761524,-1.3327280000000001,-74.76,-207.55,29.155
1687,296968,0.5011760000000001,-0.7700640999999999,-1.230004,-78.19,-248.08,42.6125
1688,297066,0.60146,-0.74908,-1.0889719999999998,-81.2175,-291.795,56.6475
1689,297164,0.630984,-0.70028,-0.8996280999999999,-83.96500999999999,-329.84,69.51
