,T,ax,ay,az,gx,gy,gz
0,22548,0.5577840000000001,0.18788,-0.608536,19.67,-19.6525,-17.78
1,22702,0.584868,0.193004,-0.710284,101.64,-123.3925,-6.3
2,22800,0.6202479999999999,0.195932,-0.7564001,66.29,-134.8725,38.43
3,22898,0.6222,0.19764,-0.7564001,49.3675,-118.02,-15.7675
4,22996,0.622688,0.19885999999999998,-0.7539600000000001,3.045,-8.05,-4.235
5,23094,0.6222,0.19764,-0.7564001,1.645,-4.585,-3.85
6,23192,0.624396,0.196664,-0.756156,1.6275,-4.6025,-3.8325
7,23290,0.623908,0.195688,-0.756156,1.575,-4.5325,-3.7975
8,23388,0.620736,0.196176,-0.758352,1.4875,-4.48,-3.8325
9,23486,0.6224441,0.196176,-0.7571321,1.435,-4.55,-3.885
10,23584,0.62098,0.19861600000000001,-0.759084,1.435,-4.48,-3.85
11,23683,0.6202479999999999,0.197884,-0.7598161,1.4525,-4.55,-3.8325
12,23781,0.6229319999999999,0.196664,-0.756888,1.4875,-4.515,-3.9375
13,23879,0.622688,0.195688,-0.75762,1.575,-4.48,-3.9375
14,23977,0.6222,0.196664,-0.7571321,1.54,-4.4975,-3.9025
15,24075,0.620492,0.19764,-0.759084,1.5575,-4.5325,-3.8325
16,24173,0.621224,0.19764,-0.759328,1.645,-4.4975,-3.7975
17,24271,0.619516,0.196664,-0.759084,1.6275,-4.55,-3.78
18,24369,0.621468,0.19861600000000001,-0.758352,1.6975,-4.5325,-3.745
19,24468,0.6224441,0.195932,-0.757376,1.575,-4.445,-3.885
20,24566,0.6219561,0.196664,-0.759572,1.5575,-4.3925,-3.7975
21,24664,0.621224,0.198372,-0.758352,1.645,-4.4975,-3.7275
22,24762,0.620736,0.196908,-0.7600600000000001,1.6625,-4.48,-3.6925
23,24860,0.621224,0.198128,-0.757376,1.6625,-4.4275,-3.78
24,24958,0.6231760999999999,0.196664,-0.757376,1.6975,-4.515,-3.78
25,25056,0.620492,0.196908,-0.759084,1.6625,-4.48,-3.745
26,25154,0.624396,0.195932,-0.755912,1.61,-4.515,-3.78
27,25252,0.621712,0.193248,-0.7551800000000001,1.47,-4.55,-3.885
28,25351,0.621224,0.194712,-0.7564001,1.4525,-4.585,-3.9375
29,25449,0.621224,0.19764,-0.758596,1.4525,-4.48,-3.9025
30,25547,0.6202479999999999,0.195444,-0.758352,1.47,-4.515,-3.885
31,25645,0.6222,0.198128,-0.758596,1.54,-4.48,-3.9025
32,25743,0.624884,0.196908,-0.7549359999999999,1.4525,-4.4625,-3.85
33,25841,0.6222,0.194956,-0.757376,1.54,-4.55,-3.8325
34,25939,0.620736,0.19739600000000002,-0.758596,1.54,-4.55,-3.885
35,26037,0.620736,0.196664,-0.759572,1.54,-4.3925,-3.9025
36,26135,0.620004,0.19642,-0.759328,1.54,-4.55,-3.92
37,26234,0.6202479999999999,0.198128,-0.75884,1.5575,-4.5325,-3.885
38,26332,0.6229319999999999,0.195688,-0.757864,1.5575,-4.515,-3.815
39,26430,0.6222,0.194956,-0.756644,1.5575,-4.48,-3.7625
40,26528,0.62098,0.19642,-0.758108,1.54,-4.375,-3.815
41,26626,0.62098,0.195444,-0.760792,1.5225,-4.4625,-3.9025
42,26724,0.6224441,0.19739600000000002,-0.75762,1.505,-4.4625,-3.78
43,26822,0.6219561,0.196908,-0.75762,1.54,-4.515,-3.7975
44,26920,0.6222,0.195932,-0.755912,1.575,-4.445,-3.885
45,27019,0.6219561,0.19642,-0.75762,1.505,-4.4275,-3.8675
46,27117,0.624396,0.198372,-0.7564001,1.5575,-4.3575,-3.9025
47,27215,0.621468,0.199104,-0.758108,1.5925,-4.4625,-3.85
48,27313,0.621712,0.194468,-0.7556681,1.645,-4.4975,-3.885
49,27411,0.62342,0.197152,-0.7564001,1.575,-4.34,-3.85
50,27509,0.6229319999999999,0.1952,-0.755912,1.6275,-4.375,-3.8325
51,27607,0.6224441,0.194224,-0.755424,1.5925,-4.3575,-3.9025
52,27705,0.62342,0.195932,-0.7551800000000001,1.4875,-4.4275,-3.955
53,27803,0.6219561,0.194956,-0.754692,1.4875,-4.48,-3.955
54,27902,0.6229319999999999,0.195688,-0.75762,1.2775,-4.3925,-3.9375
55,28000,0.6219561,0.194224,-0.755912,1.085,-4.41,-4.0075
56,28098,0.622688,0.196664,-0.758108,1.1375,-4.515,-4.1125
57,28196,0.621224,0.19739600000000002,-0.758108,1.085,-4.4275,-4.1475
58,28294,0.62342,0.196664,-0.7556681,1.12,-4.4975,-4.0425
59,28392,0.6265921,0.193492,-0.758108,1.1725,-4.515,-4.0425
60,28490,0.637084,0.181536,-0.7500560000000001,0.8400001,-4.5325,-4.2175
61,28589,0.624396,0.202764,-0.7549359999999999,0.4025,-4.7775,-4.4975
62,28687,0.621224,0.194956,-0.75762,-0.2625,-4.76,-4.6375
63,28785,0.620492,0.201544,-0.758596,-0.2625,-4.8125,-4.62
64,28883,0.620492,0.20008,-0.7564001,-0.315,-4.9,-4.6025
65,28981,0.620004,0.199348,-0.7556681,0.21,-4.795,-4.375
66,29079,0.6156119999999999,0.196908,-0.754204,0.5075,-4.795,-4.305
67,29177,0.61732,0.203496,-0.757376,0.7175,-4.8825,-4.2175
68,29275,0.618784,0.200812,-0.756644,1.05,-4.8475,-3.9375
69,29374,0.6178081,0.200812,-0.7571321,1.33,-4.8825,-3.815
70,29472,0.6222,0.19959200000000002,-0.758108,1.6275,-4.7775,-3.745
71,29570,0.621224,0.200568,-0.756644,1.8025,-4.655,-3.6575
72,29668,0.620736,0.199104,-0.7556681,1.9775,-4.655,-3.5525
73,29766,0.6202479999999999,0.200812,-0.759084,2.0475,-4.585,-3.5525
74,29864,0.62098,0.198128,-0.757864,2.2575,-4.5325,-3.5175
75,29962,0.619516,0.20105599999999998,-0.757864,2.3275,-4.48,-3.4825
76,30061,0.619028,0.19885999999999998,-0.756156,2.5025,-4.515,-3.5175
77,30159,0.62098,0.19885999999999998,-0.755912,2.625,-4.48,-3.5
78,30257,0.6219561,0.19861600000000001,-0.7564001,2.6775,-4.4275,-3.4475
79,30355,0.62098,0.19861600000000001,-0.757376,2.7475,-4.4275,-3.4475
80,30453,0.620492,0.196664,-0.757376,2.6775,-4.3925,-3.4475
81,30551,0.624396,0.196664,-0.7551800000000001,2.6425,-4.445,-3.5
82,30649,0.621224,0.198372,-0.759328,2.6075,-4.41,-3.465
83,30747,0.61854,0.19739600000000002,-0.7556681,2.6425,-4.445,-3.4825
84,30846,0.620004,0.198128,-0.757376,2.4675,-4.375,-3.5175
85,30944,0.62098,0.194712,-0.75762,2.3275,-4.3925,-3.465
86,31042,0.6197600000000001,0.196664,-0.757864,2.415,-4.305,-3.535
87,31140,0.6222,0.196176,-0.7549359999999999,2.2225,-4.27,-3.5525
88,31238,0.617564,0.1952,-0.757864,2.275,-4.2,-3.4825
89,31336,0.61854,0.19885999999999998,-0.758108,2.2575,-4.0425,-3.4125
90,31434,0.620004,0.194712,-0.758596,2.345,-3.9375,-3.2375
91,31533,0.6158561,0.19861600000000001,-0.763476,2.52,-3.85,-3.185
92,31631,0.619516,0.200812,-0.7539600000000001,2.835,-3.885,-2.94
93,31729,0.6265921,0.192272,-0.756888,3.6225,-4.025,-2.5375
94,31827,0.62098,0.19642,-0.7625,4.97,-4.2,-1.8725
95,31925,0.624152,0.19642,-0.7598161,5.6,-4.4275,-1.5925
96,32023,0.626836,0.192272,-0.753472,5.8625,-4.6725,-1.3475
97,32121,0.625128,0.19276,-0.7564001,5.565,-4.6375,-1.4525
98,32219,0.624884,0.192272,-0.758108,5.0575,-4.6025,-1.505
99,32318,0.61488,0.17568,-0.757864,4.3575,-4.585,-1.68
100,32416,0.630008,0.200568,-0.7612800999999999,2.66,-4.4975,-3.3075
101,32514,0.6222,0.179828,-0.755424,3.2725,-4.34,-2.905
102,32612,0.621468,0.186172,-0.7549359999999999,2.9225,-4.1125,-2.975
103,32710,0.6229319999999999,0.187636,-0.755912,2.485,-3.885,-3.185
104,32808,0.622688,0.187636,-0.756888,2.2225,-3.78,-3.3425
105,32906,0.625372,0.19032000000000002,-0.754448,1.995,-3.85,-3.5
106,33004,0.622688,0.188856,-0.758108,1.8375,-3.7625,-3.535
107,33103,0.622688,0.187636,-0.7571321,1.75,-3.7625,-3.675
108,33201,0.623908,0.188124,-0.755912,1.6275,-3.815,-3.675
109,33299,0.6231760999999999,0.187148,-0.756156,1.575,-3.85,-3.7275
110,33397,0.6229319999999999,0.186416,-0.755912,1.4175,-3.7625,-3.7625
111,33495,0.6229319999999999,0.190076,-0.759572,1.19,-3.78,-3.955
112,33593,0.625372,0.1891,-0.7549359999999999,0.9975,-3.7625,-4.1125
113,33691,0.623908,0.189344,-0.7539600000000001,0.735,-3.6925,-4.1825
114,33789,0.6258600000000001,0.187392,-0.754448,0.49,-3.71,-4.3925
115,33888,0.624884,0.187636,-0.756644,0.315,-3.5525,-4.48
116,33986,0.624884,0.190808,-0.755912,0.1925,-3.4125,-4.62
117,34084,0.625616,0.187148,-0.7537159999999999,0.0,-3.4125,-4.7075
118,34182,0.626104,0.190076,-0.754692,0.035,-3.36,-4.795
119,34280,0.6258600000000001,0.190564,-0.755912,0.0875,-3.5175,-4.795
120,34378,0.6263479999999999,0.19251600000000002,-0.756156,0.3325,-3.64,-4.69
121,34476,0.623664,0.19397999999999999,-0.756156,0.525,-3.9025,-4.6025
122,34574,0.6263479999999999,0.19178399999999998,-0.7564001,0.63,-4.1125,-4.515
123,34673,0.626836,0.192028,-0.7564001,0.8225,-4.2875,-4.445
124,34771,0.626104,0.19276,-0.756156,1.05,-4.41,-4.3575
125,34869,0.6263479999999999,0.19251600000000002,-0.755912,1.05,-4.5675,-4.235
126,34967,0.624152,0.19251600000000002,-0.7556681,1.2075,-4.655,-4.27
127,35065,0.6219561,0.19251600000000002,-0.756156,1.2775,-4.7775,-4.2175
128,35163,0.6231760999999999,0.193248,-0.759328,1.295,-4.655,-4.1475
129,35261,0.623664,0.19276,-0.758352,1.2775,-4.7425,-4.1125
130,35359,0.6258600000000001,0.192272,-0.7556681,1.3125,-4.5675,-4.0775
131,35458,0.625372,0.19178399999999998,-0.756156,1.2775,-4.515,-4.025
132,35556,0.625616,0.19154000000000002,-0.7564001,1.3475,-4.55,-4.1125
133,35654,0.6231760999999999,0.192028,-0.7551800000000001,1.295,-4.55,-4.06
134,35752,0.624884,0.19251600000000002,-0.757376,1.26,-4.4625,-4.1825
135,35850,0.6263479999999999,0.192028,-0.756888,1.26,-4.445,-4.1125
136,35948,0.625616,0.193736,-0.7564001,1.295,-4.445,-4.06
137,36046,0.625128,0.193004,-0.756644,1.365,-4.48,-4.0775
138,36144,0.624884,0.193004,-0.7571321,1.4,-4.5675,-4.025
139,36242,0.625616,0.191296,-0.756644,1.4,-4.515,-3.99
140,36341,0.6229319999999999,0.193248,-0.756888,1.505,-4.55,-3.955
141,36439,0.624152,0.192028,-0.7556681,1.47,-4.445,-3.9725
142,36537,0.624152,0.192028,-0.756888,1.54,-4.48,-3.955
143,36635,0.623908,0.192272,-0.756644,1.61,-4.4625,-3.92
144,36733,0.625372,0.191296,-0.756644,1.505,-4.48,-3.8325
145,36831,0.62342,0.193248,-0.7564001,1.505,-4.34,-3.8325
146,36929,0.62342,0.19276,-0.7564001,1.4525,-4.2875,-3.9375
147,37027,0.6258600000000001,0.192272,-0.757376,1.47,-4.2875,-3.9025
148,37126,0.625128,0.192028,-0.7564001,1.5225,-4.3225,-3.9375
149,37224,0.625372,0.191296,-0.757376,1.5225,-4.3225,-3.9725
150,37322,0.625128,0.19276,-0.759328,1.505,-4.34,-3.99
151,37420,0.6258600000000001,0.193492,-0.7551800000000001,1.5225,-4.34,-3.9025
152,37518,0.623664,0.19154000000000002,-0.75884,1.435,-4.375,-3.99
153,37616,0.623664,0.19178399999999998,-0.7556681,1.4175,-4.34,-4.0425
154,37714,0.621468,0.19178399999999998,-0.754448,1.435,-4.3225,-4.0075
155,37813,0.623908,0.194468,-0.754692,1.3825,-4.3925,-4.0075
156,37911,0.62464,0.192272,-0.758352,1.4,-4.375,-4.0425
157,38009,0.6229319999999999,0.19154000000000002,-0.7556681,1.3125,-4.41,-4.0775
158,38107,0.624396,0.19276,-0.7549359999999999,1.2075,-4.3225,-4.0775
159,38205,0.623908,0.1952,-0.754204,1.085,-4.34,-4.0425
160,38303,0.623664,0.192028,-0.756644,1.12,-4.41,-4.095
161,38401,0.625128,0.193004,-0.756888,1.1725,-4.48,-4.095
162,38499,0.625128,0.1952,-0.7556681,1.2075,-4.4975,-4.025
163,38598,0.626104,0.193492,-0.7549359999999999,1.3125,-4.48,-4.0075
164,38696,0.623908,0.193492,-0.7551800000000001,1.4,-4.4625,-3.99
165,38794,0.625372,0.193248,-0.7571321,1.4875,-4.5675,-3.99
166,38892,0.620492,0.191296,-0.7500560000000001,1.5575,-4.7425,-4.0775
167,38990,0.625616,0.193004,-0.7551800000000001,1.54,-4.83,-3.9725
168,39088,0.625128,0.19276,-0.75884,1.61,-4.7775,-3.9725
169,39186,0.62342,0.196176,-0.752984,1.575,-4.795,-3.955
170,39284,0.624396,0.194224,-0.754448,1.61,-4.83,-3.8675
171,39382,0.625372,0.19178399999999998,-0.758108,1.68,-4.8825,-3.9375
172,39481,0.6231760999999999,0.192272,-0.756156,1.5925,-4.8825,-3.955
173,39579,0.623908,0.19251600000000002,-0.758108,1.54,-4.8475,-3.9375
174,39677,0.624152,0.192272,-0.757376,1.61,-4.795,-4.0075
175,39775,0.623664,0.19276,-0.7564001,1.5575,-4.795,-3.9725
176,39873,0.623664,0.195444,-0.754448,1.54,-4.8125,-3.99
177,39971,0.6229319999999999,0.194468,-0.7551800000000001,1.5925,-4.795,-3.9375
178,40069,0.6229319999999999,0.193492,-0.7549359999999999,1.575,-4.8125,-3.955
179,40168,0.62342,0.191296,-0.7571321,1.5925,-4.7425,-3.955
180,40266,0.6231760999999999,0.19251600000000002,-0.756644,1.5575,-4.8475,-4.06
181,40364,0.624152,0.192028,-0.758352,1.505,-4.83,-4.095
182,40462,0.6258600000000001,0.19276,-0.757864,1.4175,-4.795,-4.2175
183,40560,0.6229319999999999,0.194468,-0.756888,1.225,-4.655,-4.3575
184,40658,0.6222,0.192028,-0.755912,1.05,-4.6725,-4.3575
185,40756,0.6222,0.194712,-0.754692,0.98,-4.6025,-4.3925
186,40854,0.623664,0.196908,-0.7537159999999999,0.945,-4.69,-4.305
187,40953,0.62342,0.196176,-0.754448,0.8925,-4.62,-4.27
188,41051,0.6229319999999999,0.197152,-0.7551800000000001,1.085,-4.725,-4.2
189,41149,0.6229319999999999,0.19739600000000002,-0.754448,1.2075,-4.795,-4.1475
190,41247,0.623908,0.195444,-0.7564001,1.26,-4.725,-4.095
191,41345,0.623908,0.19642,-0.7551800000000001,1.225,-4.655,-4.0425
192,41443,0.623908,0.195688,-0.754692,1.1025,-4.725,-4.025
193,41541,0.624396,0.195932,-0.7549359999999999,1.19,-4.655,-4.025
194,41639,0.62342,0.193004,-0.7564001,1.2075,-4.6025,-3.9025
195,41738,0.624884,0.19251600000000002,-0.757864,1.05,-4.5675,-4.0075
196,41836,0.625616,0.193492,-0.759328,0.7175,-4.6375,-4.13
197,41934,0.6224441,0.19397999999999999,-0.7571321,0.42,-4.6725,-4.305
198,42032,0.623664,0.194712,-0.7549359999999999,0.21,-4.69,-4.445
199,42130,0.6224441,0.196176,-0.7539600000000001,0.245,-4.725,-4.55
200,42228,0.621712,0.195932,-0.756156,0.28,-4.725,-4.515
201,42326,0.622688,0.19642,-0.756156,0.385,-4.62,-4.4975
202,42424,0.6231760999999999,0.19642,-0.7551800000000001,0.4025,-4.55,-4.4975
203,42522,0.621712,0.197884,-0.7564001,0.595,-4.55,-4.4625
204,42621,0.6219561,0.19764,-0.755424,0.77,-4.4975,-4.2525
205,42719,0.6231760999999999,0.196176,-0.7556681,0.8925,-4.48,-4.2
206,42817,0.623664,0.199104,-0.755424,0.9275,-4.41,-4.235
207,42915,0.6224441,0.19739600000000002,-0.7556681,0.9625,-4.55,-4.1825
208,43013,0.621712,0.197152,-0.759084,0.91,-4.585,-4.1475
209,43111,0.621712,0.196176,-0.758352,0.7525,-4.55,-4.305
210,43209,0.624884,0.19885999999999998,-0.757376,0.6475,-4.55,-4.41
211,43307,0.625616,0.195932,-0.74908,0.4375,-4.6375,-4.5675
212,43406,0.623664,0.19739600000000002,-0.753228,0.35,-4.6725,-4.4975
213,43504,0.621712,0.19764,-0.7571321,0.35,-4.5325,-4.6375
214,43602,0.622688,0.19861600000000001,-0.7556681,0.49,-4.6025,-4.62
215,43700,0.623908,0.199348,-0.7571321,0.665,-4.515,-4.62
216,43798,0.621468,0.197884,-0.7556681,0.6125,-4.48,-4.5675
217,43896,0.624396,0.20008,-0.756644,0.6125,-4.48,-4.55
218,43994,0.62342,0.199104,-0.75762,0.7175,-4.445,-4.55
219,44092,0.621468,0.20008,-0.754448,0.665,-4.5325,-4.41
220,44191,0.619272,0.200324,-0.754692,0.805,-4.515,-4.3225
221,44289,0.6202479999999999,0.20105599999999998,-0.754692,0.9975,-4.55,-4.27
222,44387,0.623908,0.19885999999999998,-0.756644,1.0325,-4.4975,-4.13
223,44485,0.6222,0.199104,-0.755424,0.9975,-4.48,-4.2175
224,44583,0.621712,0.199104,-0.755424,0.9625,-4.515,-4.2
225,44681,0.623908,0.19861600000000001,-0.7556681,0.945,-4.5675,-4.2875
226,44779,0.620736,0.19885999999999998,-0.753472,0.91,-4.4975,-4.27
227,44877,0.6202479999999999,0.20105599999999998,-0.755424,0.8400001,-4.445,-4.27
228,44976,0.6219561,0.200812,-0.754692,1.0325,-4.445,-4.1475
229,45074,0.62098,0.200324,-0.7556681,1.19,-4.3925,-4.1125
230,45172,0.6197600000000001,0.197884,-0.754204,1.2075,-4.3925,-4.13
231,45270,0.6219561,0.20178800000000002,-0.7549359999999999,1.4,-4.41,-4.0775
232,45368,0.6197600000000001,0.19983599999999999,-0.7551800000000001,1.4875,-4.41,-4.13
233,45466,0.622688,0.203984,-0.75274,1.47,-4.305,-3.99
234,45564,0.6197600000000001,0.20105599999999998,-0.7551800000000001,1.4875,-4.2875,-3.99
235,45662,0.6219561,0.201544,-0.7539600000000001,1.575,-4.305,-4.1125
236,45760,0.621224,0.202032,-0.7539600000000001,1.6975,-4.34,-3.9725
237,45859,0.6229319999999999,0.203252,-0.753472,1.8025,-4.375,-3.9025
238,45957,0.621224,0.201544,-0.753228,1.96,-4.445,-3.85
239,46055,0.620736,0.201544,-0.756156,2.1,-4.3925,-3.7625
240,46153,0.620492,0.20252,-0.7564001,2.31,-4.34,-3.6925
241,46251,0.621468,0.2013,-0.753472,2.5025,-4.2525,-3.605
242,46349,0.623664,0.202764,-0.755424,2.59,-4.305,-3.5525
243,46447,0.6222,0.201544,-0.7537159999999999,2.625,-4.3925,-3.5175
244,46545,0.621712,0.19959200000000002,-0.755424,2.8,-4.4275,-3.43
245,46644,0.622688,0.19959200000000002,-0.7556681,2.8175,-4.48,-3.36
246,46742,0.623908,0.200568,-0.7598161,2.73,-4.5325,-3.4125
247,46840,0.623908,0.199348,-0.7549359999999999,2.555,-4.515,-3.4825
248,46938,0.623908,0.19885999999999998,-0.756888,2.59,-4.4975,-3.3775
249,47036,0.6222,0.197884,-0.755912,2.6075,-4.48,-3.395
250,47134,0.6224441,0.19861600000000001,-0.756156,2.6425,-4.5675,-3.395
251,47232,0.6224441,0.19739600000000002,-0.756156,2.5725,-4.515,-3.43
252,47330,0.621468,0.199104,-0.755424,2.625,-4.48,-3.3775
253,47429,0.621224,0.197884,-0.754204,2.765,-4.3925,-3.3425
254,47527,0.621712,0.196908,-0.7564001,2.73,-4.445,-3.3775
255,47625,0.62098,0.197884,-0.756644,2.6425,-4.4625,-3.3425
256,47723,0.6178081,0.19983599999999999,-0.756888,2.7825,-4.235,-3.36
257,47821,0.61854,0.199348,-0.7551800000000001,2.8175,-4.165,-3.15
258,47919,0.618052,0.196176,-0.755912,2.975,-3.99,-3.0975
259,48017,0.621468,0.19397999999999999,-0.756888,2.905,-3.7275,-3.2025
260,48115,0.619516,0.19739600000000002,-0.755424,2.8525,-3.6575,-3.2025
261,48214,0.619028,0.196664,-0.756644,2.8175,-3.465,-3.255
262,48312,0.6178081,0.194956,-0.757864,2.8175,-3.29,-3.185
263,48410,0.621468,0.194712,-0.756644,2.66,-3.0625,-3.2375
264,48508,0.62952,0.19397999999999999,-0.7517640999999999,2.38,-2.8875,-3.36
265,48606,0.626836,0.194224,-0.7564001,2.0475,-2.975,-3.5875
266,48704,0.624884,0.198372,-0.755912,1.8375,-2.87,-3.7275
267,48802,0.6273241,0.193004,-0.752984,1.6275,-2.94,-3.7625
268,48900,0.6263479999999999,0.196664,-0.754692,1.295,-2.7825,-3.9375
269,48998,0.627812,0.195688,-0.7549359999999999,0.91,-2.8525,-4.06
270,49097,0.62708,0.190808,-0.752984,1.0675,-2.87,-4.0075
271,49195,0.625616,0.197152,-0.752496,1.365,-3.115,-3.885
272,49293,0.625616,0.194224,-0.754204,1.4175,-3.255,-3.85
273,49391,0.6280560000000001,0.194224,-0.7517640999999999,1.3475,-3.43,-3.7975
274,49489,0.624884,0.194956,-0.7549359999999999,1.3475,-3.535,-3.815
275,49587,0.627568,0.193736,-0.752984,1.19,-3.5175,-3.9375
276,49685,0.6273241,0.19642,-0.7551800000000001,1.3475,-3.535,-3.99
277,49784,0.6265921,0.196176,-0.753472,1.4,-3.6575,-3.955
278,49882,0.6263479999999999,0.195932,-0.7500560000000001,1.4,-3.7625,-3.92
279,49980,0.6263479999999999,0.195444,-0.754204,1.4525,-3.9375,-3.9375
280,50078,0.6280560000000001,0.197152,-0.755424,1.505,-4.1125,-3.92
281,50176,0.626836,0.19764,-0.750544,1.5925,-4.2,-3.9025
282,50274,0.626104,0.195688,-0.751276,1.575,-4.305,-3.9725
283,50372,0.626104,0.195932,-0.752984,1.6975,-4.445,-3.9025
284,50471,0.6263479999999999,0.193736,-0.754204,1.7325,-4.48,-3.7625
285,50569,0.6258600000000001,0.195932,-0.755424,1.75,-4.55,-3.78
286,50667,0.6258600000000001,0.194956,-0.7539600000000001,1.6975,-4.6375,-3.85
287,50765,0.625372,0.194224,-0.754204,1.68,-4.655,-3.9725
288,50863,0.62708,0.194468,-0.754692,1.8025,-4.76,-3.885
289,50961,0.62708,0.194712,-0.754448,1.8025,-4.865,-3.7975
290,51059,0.6273241,0.193492,-0.7522521,1.785,-4.9,-3.815
291,51157,0.6229319999999999,0.1952,-0.7510321,1.855,-4.865,-3.78
292,51256,0.6229319999999999,0.19861600000000001,-0.754204,1.9075,-4.935,-3.8325
293,51354,0.6231760999999999,0.194468,-0.7503,1.89,-4.935,-3.6575
294,51452,0.625616,0.19642,-0.7539600000000001,1.855,-4.865,-3.6925
295,51550,0.6280560000000001,0.194956,-0.754448,1.7675,-4.7075,-3.675
296,51648,0.625128,0.194956,-0.754448,1.6975,-4.5675,-3.78
297,51746,0.625372,0.194224,-0.752984,1.6625,-4.48,-3.8675
298,51844,0.626104,0.194956,-0.754448,1.6275,-4.41,-3.8675
299,51942,0.6258600000000001,0.194712,-0.7539600000000001,1.5575,-4.515,-3.85
300,52041,0.625372,0.194224,-0.7539600000000001,1.4875,-4.3575,-3.8325
301,52139,0.62464,0.197152,-0.752984,1.4875,-4.2525,-3.8675
302,52237,0.6263479999999999,0.194956,-0.7539600000000001,1.4875,-4.1825,-3.8675
303,52335,0.625372,0.195444,-0.75274,1.47,-4.095,-3.815
304,52433,0.626104,0.196176,-0.753472,1.4525,-4.2525,-3.9025
305,52531,0.62464,0.193248,-0.754692,1.435,-4.1825,-3.8675
306,52629,0.6263479999999999,0.1952,-0.754204,1.47,-4.1825,-3.885
307,52727,0.626104,0.194956,-0.75274,1.4175,-4.0425,-3.9025
308,52825,0.6231760999999999,0.195688,-0.751276,1.3475,-3.955,-3.955
309,52924,0.6258600000000001,0.194712,-0.752008,1.435,-4.06,-3.78
310,53022,0.625616,0.195932,-0.753472,1.4875,-4.0775,-3.7975
311,53120,0.624152,0.193004,-0.7500560000000001,1.4525,-4.165,-3.85
312,53218,0.6258600000000001,0.19397999999999999,-0.75274,1.4525,-4.2875,-3.9025
313,53316,0.62708,0.19642,-0.7539600000000001,1.5225,-4.235,-3.85
314,53414,0.62708,0.195688,-0.7551800000000001,1.575,-4.3925,-3.8675
315,53512,0.6265921,0.19642,-0.7539600000000001,1.5925,-4.4975,-3.7975
316,53610,0.6258600000000001,0.1952,-0.754692,1.6275,-4.48,-3.7975
317,53708,0.626836,0.193248,-0.751276,1.645,-4.55,-3.71
318,53807,0.6263479999999999,0.19397999999999999,-0.7539600000000001,1.5925,-4.6025,-3.7975
319,53905,0.62464,0.195444,-0.752984,1.6625,-4.515,-3.85
320,54003,0.6265921,0.195444,-0.75274,1.645,-4.55,-3.8325
321,54101,0.624152,0.193736,-0.755424,1.61,-4.6025,-3.7975
322,54199,0.627568,0.194712,-0.755424,1.715,-4.6725,-3.885
323,54297,0.62708,0.19397999999999999,-0.75274,1.7325,-4.7775,-3.92
324,54395,0.626836,0.194224,-0.7539600000000001,1.8025,-4.865,-3.7625
325,54493,0.625128,0.1952,-0.752008,1.785,-4.9,-3.7625
326,54592,0.626104,0.194712,-0.754204,1.8375,-5.04,-3.745
327,54690,0.624152,0.195688,-0.7517640999999999,1.8725,-5.075,-3.7275
328,54788,0.626836,0.194956,-0.756156,1.8375,-5.075,-3.745
329,54886,0.623908,0.193492,-0.7549359999999999,1.785,-4.9525,-3.7625
330,54984,0.624152,0.193004,-0.755912,1.68,-4.9,-3.815
331,55082,0.624884,0.194956,-0.753472,1.645,-4.8125,-3.9375
332,55180,0.621224,0.195444,-0.755424,1.5925,-4.76,-3.9375
333,55278,0.623664,0.1952,-0.753472,1.4875,-4.6025,-3.8675
334,55377,0.623908,0.194956,-0.7556681,1.4525,-4.5675,-3.85
335,55475,0.6258600000000001,0.195444,-0.7539600000000001,1.4875,-4.4625,-3.92
336,55573,0.62342,0.194712,-0.7503,1.4875,-4.375,-3.9375
337,55671,0.624884,0.194468,-0.754448,1.5225,-4.375,-3.9025
338,55769,0.624396,0.195932,-0.752984,1.505,-4.41,-3.92
339,55867,0.624152,0.196176,-0.7510321,1.575,-4.41,-3.9025
340,55965,0.62342,0.197152,-0.754692,1.6975,-4.4275,-3.8675
341,56064,0.6258600000000001,0.1952,-0.755424,1.7325,-4.4625,-3.675
342,56162,0.623908,0.194956,-0.751276,1.6625,-4.48,-3.675
343,56260,0.623908,0.194956,-0.753472,1.68,-4.445,-3.6575
344,56358,0.624884,0.194956,-0.753228,1.575,-4.3225,-3.745
345,56456,0.625616,0.193736,-0.754204,1.5575,-4.34,-3.71
346,56554,0.625616,0.193736,-0.7551800000000001,1.5225,-4.2,-3.7625
347,56652,0.624152,0.194712,-0.753472,1.5225,-4.235,-3.8325
348,56751,0.624396,0.194712,-0.7522521,1.505,-4.13,-3.85
349,56849,0.6263479999999999,0.194712,-0.754204,1.4525,-4.13,-3.8675
350,56947,0.627812,0.194224,-0.7537159999999999,1.47,-4.2,-3.815
351,57045,0.625616,0.1952,-0.7549359999999999,1.47,-4.2525,-3.8675
352,57143,0.626836,0.196908,-0.7517640999999999,1.5225,-4.27,-3.815
353,57241,0.625616,0.19397999999999999,-0.7537159999999999,1.6275,-4.3575,-3.8675
354,57339,0.624396,0.19642,-0.7539600000000001,1.68,-4.3925,-3.885
355,57437,0.6229319999999999,0.193492,-0.749812,1.6275,-4.4625,-3.885
356,57536,0.625616,0.194224,-0.7549359999999999,1.61,-4.5325,-3.8675
357,57634,0.62708,0.194712,-0.7556681,1.61,-4.515,-3.92
358,57732,0.625128,0.194712,-0.755424,1.575,-4.4625,-3.9025
359,57830,0.624152,0.19397999999999999,-0.7549359999999999,1.4875,-4.4275,-3.9375
360,57928,0.62708,0.192028,-0.752008,1.4525,-4.34,-3.99
361,58026,0.62708,0.1952,-0.7549359999999999,1.4875,-4.3575,-4.0075
362,58124,0.62708,0.193736,-0.753228,1.5575,-4.48,-4.0075
363,58222,0.624884,0.196664,-0.751276,1.6275,-4.445,-3.92
364,58321,0.626836,0.193492,-0.753228,1.5575,-4.4975,-3.92
365,58419,0.6265921,0.194712,-0.7556681,1.5575,-4.515,-3.955
366,58517,0.627568,0.194224,-0.753472,1.505,-4.4625,-3.99
367,58615,0.625372,0.19251600000000002,-0.756644,1.5925,-4.4625,-3.9025
368,58713,0.6258600000000001,0.1952,-0.754204,1.5925,-4.55,-4.025
369,58811,0.626104,0.194468,-0.754204,1.47,-4.48,-3.99
370,58909,0.6263479999999999,0.195932,-0.7551800000000001,1.47,-4.5325,-3.9725
371,59007,0.624396,0.195932,-0.752496,1.505,-4.585,-3.99
372,59106,0.623908,0.196908,-0.752984,1.54,-4.585,-3.99
373,59204,0.625616,0.1952,-0.755912,1.4,-4.6725,-4.06
374,59302,0.624396,0.194468,-0.7549359999999999,1.47,-4.5675,-4.0425
375,59400,0.6263479999999999,0.194956,-0.7551800000000001,1.47,-4.5325,-4.025
376,59498,0.624152,0.194712,-0.754204,1.47,-4.6725,-3.9725
377,59596,0.627568,0.194956,-0.755912,1.47,-4.69,-3.99
378,59694,0.62708,0.194468,-0.754204,1.505,-4.62,-4.025
379,59793,0.6263479999999999,0.194468,-0.7539600000000001,1.5225,-4.725,-4.0775
380,59891,0.625616,0.1952,-0.754448,1.5225,-4.655,-4.0425
381,59989,0.6263479999999999,0.195444,-0.754448,1.6275,-4.7425,-4.06
382,60087,0.626104,0.193736,-0.754692,1.61,-4.7775,-4.025
383,60185,0.62464,0.194712,-0.7549359999999999,1.54,-4.76,-3.9725
384,60283,0.625372,0.19397999999999999,-0.753228,1.54,-4.7775,-3.955
385,60381,0.623664,0.195688,-0.7556681,1.61,-4.8125,-3.9725
386,60480,0.62708,0.1952,-0.754692,1.61,-4.76,-3.955
387,60578,0.626104,0.194468,-0.754692,1.61,-4.83,-3.99
388,60676,0.624152,0.193736,-0.7549359999999999,1.5925,-4.83,-4.0075
389,60774,0.6229319999999999,0.19397999999999999,-0.7549359999999999,1.6975,-4.795,-4.0075
390,60872,0.623908,0.198128,-0.753472,1.5575,-4.8125,-4.0075
391,60970,0.6222,0.19739600000000002,-0.7537159999999999,1.4875,-4.76,-3.9725
392,61068,0.625128,0.195688,-0.753228,1.4875,-4.6025,-3.9375
393,61166,0.623664,0.194468,-0.756644,1.5925,-4.62,-3.955
394,61265,0.624152,0.19642,-0.752984,1.5225,-4.62,-3.92
395,61363,0.62464,0.195688,-0.753228,1.505,-4.585,-3.885
396,61461,0.62464,0.197152,-0.7537159999999999,1.6275,-4.6025,-3.8325
397,61559,0.62464,0.195688,-0.754204,1.61,-4.5325,-3.815
398,61657,0.62342,0.197152,-0.7515201,1.5575,-4.515,-3.815
399,61755,0.623908,0.198372,-0.752496,1.5925,-4.55,-3.815
400,61853,0.625128,0.194956,-0.7522521,1.5925,-4.5675,-3.7975
401,61952,0.62464,0.196176,-0.7537159999999999,1.6275,-4.4975,-3.7975
402,62050,0.62464,0.196664,-0.753472,1.645,-4.5325,-3.745
403,62148,0.624152,0.194712,-0.7549359999999999,1.645,-4.4975,-3.745
404,62246,0.6263479999999999,0.195932,-0.7551800000000001,1.68,-4.5325,-3.7625
405,62344,0.6229319999999999,0.19276,-0.754692,1.6975,-4.5675,-3.78
406,62442,0.62464,0.19397999999999999,-0.753472,1.6625,-4.515,-3.85
407,62540,0.624884,0.19251600000000002,-0.7564001,1.5225,-4.48,-3.815
408,62639,0.6219561,0.192272,-0.754204,1.5575,-4.3225,-3.8325
409,62737,0.622688,0.194224,-0.754204,1.5225,-4.41,-3.815
410,62835,0.6258600000000001,0.194712,-0.754448,1.505,-4.41,-3.8675
411,62933,0.623908,0.195932,-0.753228,1.5225,-4.3575,-3.92
412,63031,0.622688,0.195444,-0.753472,1.5575,-4.48,-3.92
413,63129,0.625128,0.195688,-0.7537159999999999,1.61,-4.48,-3.885
414,63227,0.626836,0.194956,-0.754692,1.505,-4.34,-3.8675
415,63325,0.623908,0.196908,-0.7551800000000001,1.5225,-4.34,-3.92
416,63424,0.625616,0.195688,-0.7539600000000001,1.54,-4.445,-3.9725
417,63522,0.62342,0.196664,-0.753472,1.54,-4.3225,-3.9375
418,63620,0.6258600000000001,0.195932,-0.7551800000000001,1.5575,-4.41,-3.92
419,63718,0.625128,0.19397999999999999,-0.752496,1.505,-4.305,-3.955
420,63816,0.625372,0.194712,-0.754448,1.575,-4.2875,-3.885
421,63914,0.625372,0.1952,-0.754448,1.47,-4.375,-3.885
422,64012,0.623908,0.196664,-0.752496,1.47,-4.3225,-3.9025
423,64110,0.626104,0.194956,-0.752984,1.4,-4.2875,-3.885
424,64209,0.624884,0.19642,-0.7537159999999999,1.435,-4.445,-3.9375
425,64307,0.6229319999999999,0.195688,-0.751276,1.47,-4.3925,-3.9375
426,64405,0.623908,0.194956,-0.7515201,1.54,-4.48,-3.9375
427,64503,0.6231760999999999,0.196908,-0.752984,1.6275,-4.5675,-3.9025
428,64601,0.625372,0.195444,-0.753228,1.5925,-4.55,-3.9375
429,64699,0.624396,0.194224,-0.752984,1.68,-4.6025,-3.9025
430,64797,0.6265921,0.194224,-0.755424,1.6275,-4.6025,-3.92
431,64895,0.624152,0.19642,-0.754448,1.5925,-4.5325,-3.92
432,64994,0.624152,0.196908,-0.7537159999999999,1.5925,-4.55,-3.8675
433,65092,0.625372,0.194468,-0.7539600000000001,1.645,-4.4975,-3.8675
434,65190,0.624152,0.196664,-0.753472,1.5575,-4.55,-3.85
435,65288,0.6258600000000001,0.194956,-0.753472,1.5925,-4.5675,-3.885
436,65386,0.624884,0.195932,-0.753472,1.6275,-4.5325,-3.9375
437,65484,0.625372,0.193248,-0.753228,1.6275,-4.6375,-3.885
438,65582,0.624884,0.1952,-0.7537159999999999,1.68,-4.655,-3.885
439,65680,0.625616,0.194956,-0.7549359999999999,1.5575,-4.5675,-3.8325
440,65779,0.623908,0.194712,-0.753228,1.61,-4.6375,-3.8325
441,65877,0.6231760999999999,0.19276,-0.7549359999999999,1.61,-4.55,-3.8325
442,65975,0.624396,0.194712,-0.754448,1.6625,-4.585,-3.8675
443,66073,0.625372,0.197152,-0.754204,1.645,-4.62,-3.7975
444,66171,0.626104,0.194224,-0.7537159999999999,1.5925,-4.6025,-3.78
445,66269,0.6263479999999999,0.194956,-0.754204,1.645,-4.6375,-3.8675
446,66367,0.6263479999999999,0.19397999999999999,-0.754692,1.645,-4.6725,-3.7975
447,66466,0.625128,0.194712,-0.7549359999999999,1.6625,-4.585,-3.815
448,66564,0.625616,0.194712,-0.7549359999999999,1.68,-4.6025,-3.85
449,66662,0.622688,0.192028,-0.754692,1.6625,-4.6725,-3.8675
450,66760,0.624396,0.1952,-0.7549359999999999,1.645,-4.69,-3.8325
451,66858,0.625372,0.194956,-0.7549359999999999,1.645,-4.7425,-3.815
452,66956,0.625616,0.195932,-0.756156,1.645,-4.69,-3.8675
453,67054,0.6229319999999999,0.193736,-0.7537159999999999,1.68,-4.6725,-3.885
454,67152,0.624884,0.195932,-0.7564001,1.715,-4.795,-3.8325
455,67251,0.6224441,0.193004,-0.7551800000000001,1.645,-4.7075,-3.8325
456,67349,0.6222,0.19276,-0.754448,1.6275,-4.62,-3.8325
457,67447,0.624396,0.195688,-0.753472,1.645,-4.5325,-3.9025
458,67545,0.6219561,0.19276,-0.7556681,1.54,-4.5675,-3.8675
459,67643,0.621712,0.193004,-0.754204,1.5575,-4.62,-3.8325
460,67741,0.6202479999999999,0.192272,-0.7549359999999999,1.5225,-4.585,-3.9025
461,67839,0.624152,0.196908,-0.7539600000000001,1.5225,-4.5675,-3.885
462,67937,0.62464,0.1952,-0.7537159999999999,1.6275,-4.55,-3.85
463,68036,0.6224441,0.193248,-0.7549359999999999,1.6275,-4.585,-3.8675
464,68134,0.623664,0.19764,-0.754692,1.645,-4.6025,-3.8675
465,68232,0.6231760999999999,0.193492,-0.7551800000000001,1.6275,-4.445,-3.9025
466,68330,0.623908,0.195444,-0.7549359999999999,1.6625,-4.5325,-3.815
467,68428,0.623664,0.193736,-0.756644,1.645,-4.4975,-3.9025
468,68526,0.6231760999999999,0.19276,-0.757864,1.6275,-4.4975,-3.92
469,68624,0.623664,0.19397999999999999,-0.7549359999999999,1.5925,-4.41,-3.9375
470,68723,0.625128,0.19397999999999999,-0.7549359999999999,1.4875,-4.305,-3.99
471,68821,0.6231760999999999,0.194956,-0.7539600000000001,1.505,-4.305,-3.955
472,68919,0.625616,0.195444,-0.7549359999999999,1.505,-4.3225,-4.025
473,69017,0.624884,0.194956,-0.754448,1.5225,-4.27,-3.92
474,69115,0.6229319999999999,0.193004,-0.756156,1.505,-4.27,-3.9725
475,69213,0.624884,0.194956,-0.756156,1.505,-4.2875,-3.9375
476,69311,0.6231760999999999,0.194224,-0.7549359999999999,1.54,-4.34,-3.9725
477,69409,0.624396,0.195444,-0.752984,1.4875,-4.3925,-3.9375
478,69507,0.62342,0.1952,-0.752008,1.4875,-4.3575,-3.9375
479,69606,0.625372,0.194468,-0.754448,1.5225,-4.3225,-3.92
480,69704,0.62464,0.195688,-0.7539600000000001,1.5225,-4.3925,-3.9375
481,69802,0.62342,0.193492,-0.7549359999999999,1.505,-4.4275,-3.9725
482,69900,0.623908,0.196908,-0.752984,1.54,-4.3575,-3.9375
483,69998,0.624884,0.194224,-0.753472,1.4875,-4.2875,-3.9725
484,70096,0.6229319999999999,0.193492,-0.7556681,1.5225,-4.3225,-4.0075
485,70194,0.624396,0.194712,-0.7551800000000001,1.575,-4.3225,-3.92
486,70292,0.623664,0.196664,-0.7537159999999999,1.505,-4.3925,-3.99
487,70391,0.6258600000000001,0.194224,-0.7551800000000001,1.5925,-4.3925,-3.99
488,70489,0.624152,0.195932,-0.752984,1.505,-4.3925,-3.955
489,70587,0.624152,0.194224,-0.753472,1.5575,-4.375,-3.885
490,70685,0.624152,0.197884,-0.7537159999999999,1.575,-4.41,-3.9025
491,70783,0.625372,0.194224,-0.754448,1.54,-4.4625,-3.885
492,70881,0.6231760999999999,0.19276,-0.7549359999999999,1.54,-4.3575,-3.92
493,70979,0.625128,0.193248,-0.753472,1.61,-4.41,-3.955
494,71078,0.62464,0.198128,-0.754448,1.54,-4.48,-3.92
495,71176,0.626104,0.191052,-0.75274,1.435,-4.3925,-3.9725
496,71274,0.623664,0.198128,-0.753228,1.05,-4.2,-4.2175
497,71372,0.625128,0.19178399999999998,-0.7564001,0.77,-4.2525,-4.2875
498,71470,0.624884,0.193248,-0.7539600000000001,0.6125,-4.2875,-4.41
499,71568,0.624152,0.20642399999999997,-0.7539600000000001,0.525,-4.34,-4.4975
500,71666,0.6258600000000001,0.183488,-0.754448,0.7175,-4.41,-4.375
501,71764,0.618784,0.19397999999999999,-0.7503,0.735,-4.4275,-4.4975
502,71863,0.6229319999999999,0.198372,-0.7549359999999999,0.945,-4.3925,-4.2875
503,71961,0.62342,0.198128,-0.753472,1.085,-4.235,-4.165
504,72059,0.625372,0.19764,-0.7551800000000001,1.0675,-4.2875,-4.13
505,72157,0.624884,0.19739600000000002,-0.7517640999999999,0.8925,-4.2875,-4.13
506,72255,0.624396,0.19739600000000002,-0.754692,0.91,-4.375,-4.0425
507,72353,0.621468,0.19739600000000002,-0.753228,0.735,-4.4625,-4.06
508,72451,0.621224,0.19642,-0.752496,0.8925,-4.55,-3.9725
509,72549,0.625372,0.194712,-0.754692,0.945,-4.6375,-4.025
510,72648,0.62464,0.19397999999999999,-0.7522521,0.8575,-4.6725,-4.1125
511,72746,0.621712,0.19739600000000002,-0.7539600000000001,0.805,-4.6725,-4.2175
512,72844,0.624152,0.197152,-0.752984,0.9275,-4.5675,-4.1825
513,72942,0.6258600000000001,0.19983599999999999,-0.7564001,0.7525,-4.5675,-4.1825
514,73040,0.6265921,0.191052,-0.756156,0.56,-4.6375,-4.34
515,73138,0.6231760999999999,0.19861600000000001,-0.755424,0.4725,-4.585,-4.4625
516,73236,0.622688,0.198372,-0.753228,0.5425,-4.515,-4.4275
517,73334,0.6229319999999999,0.200324,-0.75274,0.665,-4.515,-4.41
518,73432,0.6231760999999999,0.200568,-0.754204,0.8575,-4.55,-4.3575
519,73531,0.622688,0.20105599999999998,-0.754204,1.0675,-4.655,-4.2175
520,73629,0.623908,0.199104,-0.7556681,1.225,-4.7075,-4.1125
521,73727,0.62464,0.19885999999999998,-0.7539600000000001,1.295,-4.7775,-4.0075
522,73825,0.624152,0.199348,-0.755424,1.295,-4.725,-4.0775
523,73923,0.623664,0.19861600000000001,-0.753472,1.3125,-4.9175,-4.0775
524,74021,0.622688,0.19959200000000002,-0.753472,1.365,-4.97,-4.06
525,74119,0.6231760999999999,0.199104,-0.754692,1.5225,-4.9875,-4.0075
526,74217,0.6273241,0.197884,-0.7556681,1.54,-4.9875,-4.06
527,74316,0.625128,0.1952,-0.755424,1.4175,-4.8125,-4.13
528,74414,0.622688,0.19861600000000001,-0.754204,1.3475,-4.8125,-4.2525
529,74512,0.62098,0.195932,-0.754448,1.4,-4.83,-4.34
530,74610,0.619272,0.20105599999999998,-0.755424,1.47,-4.76,-4.3575
531,74708,0.6229319999999999,0.203984,-0.752496,1.47,-4.62,-4.2875
532,74806,0.622688,0.195444,-0.7556681,1.6275,-4.585,-4.235
533,74904,0.62342,0.203008,-0.75274,1.5575,-4.41,-4.2175
534,75002,0.623664,0.198372,-0.756156,1.6625,-4.41,-4.13
535,75101,0.62342,0.20496,-0.7522521,1.7675,-4.445,-4.0775
536,75199,0.621468,0.19739600000000002,-0.756888,1.9425,-4.4275,-3.9725
537,75297,0.624152,0.19983599999999999,-0.75274,1.9425,-4.5325,-3.99
538,75395,0.6258600000000001,0.19739600000000002,-0.752984,1.645,-4.5675,-4.025
539,75493,0.62464,0.19764,-0.753472,1.1725,-4.515,-4.2
540,75591,0.6222,0.2013,-0.754204,0.8575,-4.55,-4.34
541,75689,0.623908,0.193736,-0.754204,0.945,-4.5675,-4.375
542,75787,0.6258600000000001,0.194712,-0.756644,0.735,-4.5675,-4.6025
543,75886,0.628788,0.188368,-0.755912,0.21,-4.4275,-5.0225
544,75984,0.620492,0.19178399999999998,-0.758108,-0.385,-4.34,-5.46
545,76082,0.6229319999999999,0.19764,-0.752496,-0.4725,-4.5675,-5.32
546,76180,0.6265921,0.20178800000000002,-0.754692,-0.42,-4.515,-5.5475
547,76278,0.6258600000000001,0.201544,-0.759084,-0.315,-4.8125,-5.39
548,76376,0.6292760000000001,0.20447200000000001,-0.7571321,-0.3675,-5.0575,-5.2675
549,76474,0.6304960000000001,0.20252,-0.7539600000000001,-0.5775,-5.2325,-5.355
550,76572,0.6290319999999999,0.205204,-0.756156,-0.7175,-5.6,-5.39
551,76670,0.6219561,0.206668,-0.7510321,-0.6475,-5.775,-5.25
552,76769,0.620492,0.205936,-0.753228,-0.28,-5.9675,-4.9875
553,76867,0.6202479999999999,0.20642399999999997,-0.748104,0.2625,-5.845,-4.76
554,76965,0.6178081,0.2074,-0.752496,0.5075,-5.81,-4.655
555,77063,0.621468,0.207156,-0.7515201,0.8575,-5.6,-4.48
556,77161,0.6273241,0.205936,-0.7478600000000001,1.1725,-5.32,-4.1125
557,77259,0.635864,0.203984,-0.748104,1.12,-4.83,-3.9025
558,77357,0.627568,0.204716,-0.752984,0.7875,-4.6375,-3.815
559,77455,0.6273241,0.207156,-0.757864,0.91,-4.375,-3.605
560,77554,0.624884,0.21618400000000002,-0.7564001,1.3825,-3.815,-3.29
561,77652,0.623908,0.22448,-0.762012,2.03,-3.1325,-2.7125
562,77750,0.6161,0.229116,-0.7671359999999999,3.15,-2.2925,-1.68
563,77848,0.616588,0.24326799999999998,-0.7732359999999999,4.13,-1.05,-0.07
564,77946,0.606584,0.261812,-0.781532,4.69,0.77,2.3625
565,78044,0.580232,0.264496,-0.8010520000000001,6.0375,3.3075,5.9675
566,78142,0.542168,0.24278000000000002,-0.844972,6.545,8.505,10.0625
567,78240,0.471408,0.305976,-0.9686799999999999,4.9875,19.0925,15.75
568,78339,0.36966,0.216916,-0.9821,7.6125,40.3025,24.465
569,78437,0.46921199999999996,0.347456,-0.983564,2.4675,63.7525,33.005
570,78535,0.529724,0.498004,-1.224636,2.8875,77.77,38.9375
571,78633,0.404308,0.745908,-1.5164600000000001,9.555,76.02,36.295
572,78731,0.1342,0.6722199999999999,-1.47986,28.5425,59.99,34.3875
573,78829,0.12932000000000002,0.6068279999999999,-1.551352,33.565,49.8225,24.745
574,78927,-0.05002,0.559004,-1.5196319999999999,23.625,33.1275,7.6475
575,79025,-0.212036,0.508008,-1.480348,13.265,16.87,-8.365
576,79123,-0.323544,0.44334799999999996,-1.438868,4.6375,1.5925,-21.91
577,79222,-0.355508,0.37698000000000004,-1.44204,-1.3125,-10.7975,-30.31
578,79320,-0.315492,0.31842,-1.476932,-5.4425,-23.135,-35.0175
579,79418,-0.269864,0.264984,-1.483032,-8.4875,-38.2025,-38.255
580,79516,-0.22204000000000002,0.232776,-1.43594,-10.6925,-54.2675,-40.81
581,79614,-0.14078800000000002,0.22814,-1.375672,-10.955,-68.1625,-41.9125
582,79712,-0.058316,0.22252800000000003,-1.332484,-8.6625,-79.2575,-41.3525
583,79810,0.028304000000000003,0.213988,-1.273192,-4.9525,-87.6225,-39.9525
584,79909,0.11736400000000001,0.21472,-1.230492,-1.5925,-93.205,-37.7825
585,80007,0.20861999999999997,0.229604,-1.1873040000000001,0.595,-96.72251,-35.6125
586,80105,0.277672,0.255956,-1.145824,1.8375,-98.84000999999999,-34.2125
587,80203,0.325984,0.28987199999999996,-1.094096,3.2025,-99.82,-33.18
588,80301,0.34111199999999997,0.31646799999999997,-1.042856,6.3,-98.84000999999999,-31.815
589,80399,0.356484,0.321592,-0.9906401,11.7075,-95.235,-29.645
590,80497,0.366244,0.33623200000000003,-0.9894200000000001,17.0975,-89.95,-26.9325
591,80595,0.418704,0.333548,-1.0086959999999998,21.56,-84.0525,-24.2725
592,80694,0.5160600000000001,0.33184,-1.078724,23.7475,-79.8175,-22.6275
593,80792,0.641232,0.335256,-1.153632,21.315,-79.66001,-23.94
594,80890,0.74908,0.343308,-1.211948,15.68,-85.4,-28.455
595,80988,0.813008,0.34038,-1.2080440000000001,8.12,-95.8125,-35.5075
596,81086,0.796904,0.325984,-1.125328,0.2625,-108.325,-44.3975
597,81184,0.7571321,0.288164,-1.004548,-6.9125,-118.3525,-53.4275
598,81282,0.726876,0.248392,-0.8845,-12.2675,-123.1125,-60.0425
599,81380,0.708576,0.18544000000000002,-0.7747001,-13.965,-122.2725,-62.16
600,81478,0.70394,0.120048,-0.680028,-13.7375,-117.18,-60.305
601,81577,0.7176041,0.05636401,-0.622688,-13.1775,-109.7775,-55.44
602,81675,0.7503,-0.010004,-0.579012,-13.685,-101.8325,-48.23
603,81773,0.7666480999999999,-0.063684,-0.5453399999999999,-15.7675,-94.85,-39.34
604,81871,0.7978801,-0.094672,-0.5292359999999999,-19.81,-88.865,-29.1025
605,81969,0.8235001000000001,-0.104676,-0.51362,-24.6575,-84.6475,-18.7425
606,82067,0.8235001000000001,-0.10052799999999999,-0.487512,-29.3125,-82.14499,-9.4325
607,82165,0.792756,-0.0854,-0.437492,-32.6025,-79.59000999999999,-1.365
608,82263,0.739808,-0.059048,-0.378688,-33.8275,-75.075,5.985
609,82362,0.7095520000000001,-0.027816000000000004,-0.33379200000000003,-32.9175,-67.27,12.5825
610,82460,0.705404,-0.004392,-0.30036399999999996,-30.1,-56.8925,18.13
611,82558,0.7093081,0.023424,-0.276696,-26.6875,-45.4475,22.3475
612,82656,0.7200439999999999,0.05246,-0.26596,-22.9425,-33.6875,25.55
613,82754,0.737124,0.08442401,-0.2501,-18.55,-21.7,28.21
614,82852,0.7664041,0.118096,-0.239364,-13.9125,-9.555,29.7675
615,82950,0.793488,0.147376,-0.22691999999999998,-9.065,2.66,29.82
616,83048,0.844972,0.183976,-0.237168,-4.4975,15.1025,27.8425
617,83146,0.9325680000000001,0.22448,-0.268644,0.665,26.985,24.115
618,83245,0.9784401,0.24936799999999998,-0.293044,6.8425,36.61,18.8475
619,83343,0.999668,0.24522,-0.27718400000000004,12.18,45.045,11.795
620,83441,1.035048,0.250832,-0.256688,16.1525,53.5325,3.99
621,83539,1.073356,0.260836,-0.250344,19.7925,61.81,-3.885
622,83637,1.1455799999999998,0.267424,-0.271328,23.3625,69.4925,-12.67
623,83735,0.028548,-0.32256799999999997,-0.704916,22.6975,76.72,-17.7975
624,83833,0.179828,0.22106399999999998,-0.815204,-32.8125,89.46,-26.2325
625,83931,-0.451888,0.24107199999999998,-0.8813280000000001,-53.4275,104.825,-11.3925
626,84030,0.07710399999999999,0.462136,-0.757376,-45.5175,141.8375,33.39
627,84128,1.2695319999999999,0.514108,-0.8671761,-19.74,170.87,63.735
628,84226,1.168272,0.60268,-1.162416,-16.0125,137.865,58.695
629,84324,0.763232,0.484096,-0.886452,-12.5475,123.8475,41.685
630,84422,0.7983680000000001,0.454816,-0.8967,-8.015,126.7175,26.915
631,84520,0.863028,0.22204000000000002,-1.001132,1.61,126.8225,31.3075
632,84618,0.892064,0.0488,-1.0065,5.075,120.4525,35.175
633,84717,1.08092,0.08417999999999999,-1.112152,1.6275,114.3275,34.58
634,84815,0.966728,0.2562,-1.037488,0.315,99.6275,28.8925
635,84913,0.806176,0.663924,-1.340048,6.58,86.03,22.2075
636,85011,1.211948,0.6505041,-0.9801479999999999,51.695,71.2075,14.9975
637,85109,1.123376,-0.053924,-0.8769360999999999,65.8875,52.64,21.9625
638,85207,0.877912,0.154696,-0.8910879999999999,38.64,36.785,13.3
639,85305,0.693204,0.347456,-0.768844,22.2775,30.3625,5.215
640,85403,0.72346,0.21618400000000002,-0.844972,21.42,20.2475,3.99
641,85502,0.6856399999999999,0.215696,-0.7890961,19.0575,15.3825,1.7675
642,85600,0.664412,0.244488,-0.789828,14.28,9.4675,-0.98
643,85698,0.656116,0.205936,-0.791536,10.885,5.5125,-2.5375
644,85796,0.62464,0.254492,-0.7686,6.3,2.87,-4.1825
645,85894,0.61488,0.25058800000000003,-0.7664041,4.62,1.715,-4.305
646,85992,0.613416,0.24156,-0.7664041,3.08,1.3825,-3.955
647,86090,0.61854,0.241804,-0.7598161,1.54,1.575,-3.85
648,86188,0.626836,0.2318,-0.7510321,0.6825,1.33,-3.5
649,86287,0.63318,0.214232,-0.7551800000000001,-0.07,1.085,-3.57
650,86385,0.632448,0.205936,-0.753472,-1.82,0.9625,-4.6375
651,86483,0.621712,0.23838800000000002,-0.7473721,-3.3775,0.63,-5.985
652,86581,0.6131721,0.256688,-0.744688,-3.2025,-0.0175,-5.7225
653,86679,0.6161,0.244,-0.749324,-1.9425,-0.385,-4.6375
654,86777,0.61488,0.243756,-0.7503,-1.7325,-0.56,-4.2
655,86875,0.605364,0.248148,-0.748836,-1.6275,-0.6825,-3.85
656,86973,0.597312,0.254004,-0.73932,-0.91,-0.42,-3.115
657,87072,0.60634,0.254492,-0.7390760000000001,-0.28,-0.07,-1.8025
658,87170,0.613904,0.25302800000000003,-0.734928,0.8575,-0.105,-0.4025
659,87268,0.619028,0.253272,-0.740052,1.96,-0.8225,0.8575
660,87366,0.616344,0.24058400000000002,-0.7422481,2.765,-1.575,1.7675
661,87464,0.619516,0.22252800000000003,-0.748104,3.3075,-1.89,2.38
662,87562,0.6161,0.24424400000000002,-0.7468840999999999,4.375,-2.3625,4.4275
663,87660,0.6231760999999999,0.23692399999999997,-0.7373681,5.635,-2.45,4.7075
664,87758,0.6326921,0.228872,-0.742004,6.7375,-2.73,3.85
665,87857,0.6314721,0.21618400000000002,-0.7442,6.79,-3.1325,4.34
666,87955,0.628788,0.23082399999999997,-0.744688,6.9475,-4.3225,6.965
667,88053,0.6329359999999999,0.23009200000000002,-0.736392,8.225,-5.5825,9.0825
668,88151,0.633424,0.24058400000000002,-0.738588,9.6425,-6.8775,9.2925
669,88249,0.627568,0.22082,-0.74298,11.83,-8.5925,10.255
670,88347,0.631228,0.259372,-0.748836,13.055,-11.4275,14.1225
671,88445,0.627812,0.229116,-0.7478600000000001,13.2125,-13.125,13.475
672,88543,0.6219561,0.219844,-0.767868,11.8825,-13.4925,12.285
673,88642,0.609268,0.21716,-0.7707961,9.66,-11.34,11.6725
674,88740,0.6058520000000001,0.225944,-0.7861680999999999,6.685,-6.195,12.3375
675,88838,0.574864,0.193248,-0.777628,5.32,1.925,15.4875
676,88936,0.555588,0.167628,-0.7951961,-0.245,15.4525,18.55
677,89034,0.5846241,0.199348,-0.792512,-8.19,32.8825,20.3525
678,89132,0.5697399999999999,0.14762,-0.780556,-13.8775,49.42,23.065
679,89230,0.5702281,0.16835999999999998,-0.802272,-19.11,67.655,21.315
680,89328,0.57218,0.1891,-0.8066641,-21.2275,86.5025,17.71
681,89427,0.582184,0.202032,-0.855708,-20.1775,105.525,15.6275
682,89525,0.5814520000000001,0.21301199999999998,-0.91012,-10.6225,120.96,15.505
683,89623,0.5914560000000001,0.21716,-0.8869401,7.5075,133.07,19.005
684,89721,0.6039,0.2257,-0.944524,24.255,146.0375,24.5175
685,89819,0.628544,0.18446400000000002,-1.040904,43.89,150.8675,32.8125
686,89917,0.577304,0.208132,-1.022604,65.625,151.55,42.735
687,90015,0.47946000000000005,0.2318,-0.9318360000000001,78.75,172.9525,51.9575
688,90113,0.4404201,0.24888000000000002,-0.8840120000000001,84.03501,203.0875,62.44
689,90211,0.6558721,0.241804,-0.690764,83.02,247.59,71.68
690,90310,1.771196,0.09345201,-0.8574161,78.55751,333.585,70.945
691,90408,1.10532,0.081252,-0.5343600000000001,78.62751,496.51,45.115
692,90506,0.9503799999999999,0.42724399999999996,-1.1709559999999999,12.8975,535.22,15.995
693,90604,2.258464,0.5675439999999999,-1.2395200000000002,11.2525,542.64,33.6525
694,90702,2.4268240000000003,0.512644,-1.374452,0.945,498.4,58.0825
695,90800,1.627968,-0.242536,-1.475468,-27.9825,440.65,73.71
696,90898,2.4160880000000002,0.28767600000000004,-0.9179280000000001,-89.79251,363.0725,71.19
697,90996,2.8975,0.580964,-0.870592,-90.07251,402.8325,41.3875
698,91095,1.576972,0.601704,-2.219424,-221.3925,395.9025,19.8975
699,91193,1.293688,-0.329888,-3.033896,-285.635,304.2025,33.5825
700,91291,1.6613959999999999,0.49849209999999994,-2.47782,-217.9275,179.0075,80.3775
701,91389,0.9674601,0.801784,-2.4270680000000002,-175.0875,42.035,88.2175
702,91487,0.388692,1.023336,-2.065704,-141.6975,-37.485,84.525
703,91585,-0.098332,1.117764,-1.58966,-91.56,-63.0,73.5525
704,91683,-0.08052000000000001,1.095072,-1.41398,-30.45,-60.9875,53.865
705,91781,0.118828,0.9652639999999999,-1.438136,15.8025,-68.3725,24.885
706,91879,0.1708,0.7951961,-1.376892,41.1075,-95.2175,-11.7075
707,91978,0.178608,0.632448,-1.271728,54.845,-126.7525,-49.0
708,92076,0.21008400000000002,0.49288000000000004,-1.170224,61.4425,-156.275,-78.8725
709,92174,0.25376,0.387472,-1.05774,66.0975,-182.4375,-99.225
710,92272,0.27694,0.30744,-0.925736,69.44,-204.3825,-110.8975
711,92370,0.323056,0.254492,-0.820816,69.4575,-220.1325,-116.7075
712,92468,0.43554,0.25424800000000003,-0.7869,66.9025,-230.2475,-118.93
713,92566,0.5602239999999999,0.299632,-0.7991,63.945,-239.855,-119.805
714,92664,0.7107720000000001,0.35136,-0.8239880999999999,63.105,-250.8275,-120.5225
715,92763,0.865956,0.351848,-0.800564,65.29251,-263.9175,-121.065
716,92861,0.9472079999999999,0.31451599999999996,-0.764452,66.395,-277.585,-119.5775
717,92959,1.043588,0.30036399999999996,-0.7522521,62.4225,-290.22,-114.7825
718,93057,1.1192280000000001,0.32574000000000003,-0.769088,52.2725,-302.33,-109.97
719,93155,1.212436,0.37454,-0.8127641,40.0925,-313.145,-107.31
720,93253,1.293688,0.44334799999999996,-0.8547319999999999,29.0325,-323.54,-106.4175
721,93351,1.345904,0.516304,-0.8820601,21.0,-332.99,-106.61
722,93449,1.407636,0.584136,-0.9262239999999999,16.8175,-339.92,-107.5375
723,93547,1.476688,0.6224441,-0.990884,16.24,-343.5775,-109.8475
724,93646,1.578436,0.636596,-1.076284,15.855,-344.6975,-114.24
725,93744,1.7211759999999998,0.6453800000000001,-1.149728,13.8775,-344.9425,-120.26
726,93842,1.9063720000000002,0.665144,-1.175836,10.71,-344.9425,-126.7
727,93940,2.0984,0.612928,-1.119716,8.085,-344.085,-132.72
728,94038,2.2814,0.43505200000000005,-1.0182120000000001,4.025,-338.5375,-139.125
729,94136,2.51076,0.24790399999999999,-0.8754719999999999,-4.9875,-327.74,-141.6625
730,94234,2.714012,0.0976,-0.692228,-18.1475,-315.4025,-133.7525
731,94332,2.873344,-0.014396,-0.416996,-33.985,-302.6625,-115.99
732,94431,2.833572,0.0427,-0.09028,-48.37,-288.9425,-94.90250999999999
733,94529,2.642276,0.22326,0.286456,-49.665,-270.8475,-72.9925
734,94627,2.4668400000000004,0.21862399999999999,0.68808,-30.7475,-241.3425,-49.8225
735,94725,2.417796,0.071004,1.08092,-8.0325,-205.1,-30.415
736,94823,2.36802,-0.24131599999999997,1.4337440000000001,-3.5875,-166.6175,-14.4025
737,94921,2.3663119999999997,-0.42944,1.677744,-25.6725,-127.54,-9.45
738,95019,2.40706,-0.366976,1.798768,-54.215,-91.5425,-13.5625
739,95117,2.400716,-0.232776,1.821948,-60.4975,-53.095,-13.51
740,95216,2.351672,-0.126148,1.667984,-42.7525,-9.5375,-4.4975
741,95314,2.296528,-0.07442,1.450092,-9.905,35.2275,5.5475
742,95412,2.278716,-0.059048,1.1472879999999999,25.4275,76.72,13.545
743,95510,2.323856,-0.047336,0.7549359999999999,50.4525,110.985,18.27
744,95608,2.337764,0.007808001,0.296948,60.2175,132.7725,19.95
745,95706,-0.546804,1.5852680000000001,-3.892776,51.38,119.6475,22.82
746,95804,-1.8524479999999999,0.17543599999999998,-3.057076,60.0775,71.0675,20.9475
747,95902,-2.839916,0.721508,-1.085556,27.615,93.7125,6.9125
748,96001,-0.33184,0.47653199999999996,2.713524,-14.9275,180.39,15.5225
749,96099,3.4452800000000003,0.6946681,-2.03618,-41.58,281.2775,-8.05
750,96197,2.188192,-0.387716,-2.3614319999999998,-13.2475,215.8625,9.7475
751,96295,0.992592,-1.1685159999999999,-0.643184,54.3375,169.575,35.0525
752,96393,1.3978760000000001,-0.06588,-1.5103600000000001,-9.1,168.98,56.455
753,96491,1.058716,0.72956,-0.9228081,-13.4225,148.1025,54.075
754,96589,1.144116,0.94306,-1.306864,0.3325,142.5375,39.3575
755,96687,1.411784,0.6329359999999999,-1.253184,67.83,110.215,43.7675
756,96786,1.098976,0.07222401,-0.951356,116.13,76.3875,44.31
757,96884,0.9757561,0.1403,-0.7808001,88.935,55.93,39.2525
758,96982,1.079456,0.418216,-0.8522921,74.55,43.5225,32.34
759,97080,0.7317560000000001,0.212524,-0.8049561,62.265,33.145,29.54
760,97178,0.885964,-0.065148,-0.9230520000000001,46.585,21.035,26.8975
761,97276,0.711504,0.2501,-0.843508,28.21,6.3875,16.8
762,97374,0.6836880999999999,0.165432,-0.784216,24.7975,3.045,9.5375
763,97472,0.648308,0.197884,-0.7829961,21.28,0.245,6.1075
764,97571,0.62342,0.20178800000000002,-0.779824,18.7425,-1.1725,3.29
765,97669,0.612684,0.22472399999999998,-0.773968,16.5025,-2.24,1.9775
766,97767,0.610488,0.200568,-0.7686,14.665,-2.905,1.33
767,97865,0.606096,0.179096,-0.762012,12.39,-2.8175,0.175
768,97963,0.6161,0.191296,-0.760792,9.9225,-1.715,-1.82
769,98061,0.611952,0.21667199999999998,-0.7666480999999999,8.155,-1.3475,-3.15
770,98159,0.6029241,0.227408,-0.770308,7.56,-1.82,-3.1325
771,98257,0.594384,0.22423600000000002,-0.7754321,7.035,-2.765,-2.66
772,98356,0.5838920999999999,0.21472,-0.7712840999999999,6.3,-2.9925,-2.2925
773,98454,0.595604,0.20984,-0.7671359999999999,5.6175,-2.415,-2.3975
774,98552,0.6009720000000001,0.22814,-0.755424,5.355,-1.855,-2.4325
775,98650,0.593164,0.231312,-0.760792,5.6525,-2.5025,-1.715
776,98748,0.595604,0.20984,-0.759328,6.02,-3.5525,-0.3325
777,98846,0.597068,0.205204,-0.761524,5.495,-4.4275,0.4025
778,98944,0.605364,0.200568,-0.759572,4.2,-4.795,0.5425
779,99042,0.60634,0.1952,-0.762012,3.255,-4.9,0.9275
780,99140,0.60024,0.185684,-0.7707961,2.87,-4.865,1.12
781,99239,0.60268,0.175924,-0.7664041,3.815,-3.85,0.0
782,99337,0.6075600999999999,0.186416,-0.769576,2.87,-2.4325,-0.77
783,99435,0.6124400999999999,0.20837600000000003,-0.771772,1.6975,-1.2075,-1.33
784,99533,0.624152,0.2135,-0.7664041,1.2775,-0.6475,-1.2425
785,99631,0.628788,0.211548,-0.765428,0.42,-1.6975,0.035
786,99729,0.62464,0.209596,-0.767868,-0.14,-3.1675,1.435
787,99827,0.614636,0.203496,-0.767624,-0.9275,-4.2175,2.695
788,99926,0.6178081,0.20861999999999997,-0.763476,-2.7825,-3.5,4.2525
789,100024,0.59658,0.21301199999999998,-0.7856801,-4.0425,-1.785,5.7925
790,100122,0.59536,0.22082,-0.7793359999999999,-4.235,2.3625,7.77
791,100220,0.590968,0.244732,-0.8010520000000001,-5.705,8.6275,11.4975
792,100318,0.49117200000000005,0.08174001,-0.794708,-6.475,19.2675,15.645
793,100416,0.5975560000000001,0.23521599999999998,-0.824232,-17.01,40.8275,17.1325
794,100514,0.5631520000000001,0.157868,-0.80642,-19.6175,59.9025,18.6025
795,100612,0.548024,0.141032,-0.823256,-21.035,78.82,17.0625
796,100711,0.5551,0.162992,-0.843508,-19.1975,100.065,13.5975
797,100809,0.550952,0.164212,-0.8586360000000001,-18.515,121.0825,10.6225
798,100907,0.553636,0.172752,-0.898164,-15.4,142.45,9.695
799,101005,0.5551,0.19154000000000002,-0.9503799999999999,-5.6,160.9475,11.025
800,101103,0.8015399999999999,0.235704,-1.129964,11.0775,173.075,15.785
801,101201,0.607804,0.255712,-1.0887280000000001,28.6825,174.475,22.61
802,101299,0.384544,0.25058800000000003,-1.15046,49.6825,197.785,28.9625
803,101397,0.386008,0.239852,-1.00284,61.2325,216.16,45.9725
804,101495,0.469944,0.288652,-0.7381001,50.785,244.9825,60.655
805,101594,2.816248,0.23887600000000003,-0.45018,44.205,331.8,64.2425
806,101692,0.30353600000000003,0.124928,-1.186084,28.14,501.62,47.075
807,101790,1.0906799999999999,0.302804,-1.157292,-4.515,567.385,34.5975
808,101888,1.8058439999999998,0.711504,-1.17852,-10.4475,558.6875,39.5325
809,101986,2.435608,0.61,-1.085068,-10.78,532.4725,58.8
810,102084,2.149884,0.183488,-1.425936,-27.7725,505.2075,73.78
811,102182,1.531588,0.42724399999999996,-1.664812,-46.4275,447.2475,85.1025
812,102281,3.181028,0.75762,-1.24806,-48.5975,418.355,76.23001
813,102379,2.22284,0.550952,-2.241384,-71.295,475.195,39.9175
814,102477,1.420324,0.17055599999999999,-3.1534560000000003,-221.7775,396.655,28.735
815,102575,1.997384,0.199348,-2.942396,-198.6775,251.5625,44.7825
816,102673,1.378844,0.7881199999999999,-3.2876559999999997,-153.2125,74.04251,48.58
817,102771,0.744688,0.7829961,-2.800632,-142.5725,-45.22,50.575
818,102869,0.22789600000000002,0.68808,-2.126704,-119.8225,-113.6975,48.51
819,102967,0.031232,0.6734399999999999,-1.7446,-92.1025,-139.2475,38.6225
820,103066,0.06636801,0.6695361,-1.57746,-72.2225,-150.815,20.44
821,103164,0.220088,0.6502600000000001,-1.537688,-55.0025,-168.875,0.3325
822,103262,0.357948,0.59048,-1.490108,-40.7225,-197.47,-21.35
823,103360,0.392108,0.489464,-1.343464,-25.9175,-230.685,-43.33
824,103458,0.395036,0.37576,-1.170468,-15.6275,-260.435,-63.1575
825,103556,0.42748800000000003,0.284748,-1.02114,-10.15,-283.185,-78.575
826,103654,0.488976,0.223016,-0.916464,-8.96,-299.3375,-89.4425
827,103752,0.58194,0.19885999999999998,-0.8693719999999999,-10.92,-310.695,-97.16001
828,103851,0.699792,0.20178800000000002,-0.8569280999999999,-14.1575,-319.8825,-103.53
829,103949,0.7954399999999999,0.23228800000000002,-0.8547319999999999,-17.535,-329.77,-110.11
830,104047,0.8703481,0.2684,-0.8605879999999999,-17.815,-339.0625,-115.605
831,104145,0.9511120000000001,0.30182800000000004,-0.889868,-14.245,-345.66,-118.72
832,104243,1.048468,0.33916,-0.9354959999999999,-8.505,-349.405,-119.315
833,104341,1.171932,0.360388,-0.9711200999999999,-2.9575,-351.96,-119.49
834,104439,1.303936,0.398208,-1.025776,-0.07,-355.3725,-120.5925
835,104537,1.43472,0.43066000000000004,-1.0943399999999999,0.4025,-359.8875,-122.5
836,104636,1.548424,0.465796,-1.169492,-1.2075,-364.35,-126.945
837,104734,1.7158080000000002,0.491904,-1.176568,-5.425,-366.6775,-132.9125
838,104832,1.9266240000000001,0.5131319999999999,-1.104344,-10.8325,-365.9425,-139.895
839,104930,2.1362200000000002,0.51118,-0.968924,-17.675,-359.94,-148.19
840,105028,2.351672,0.460916,-0.8410681000000001,-23.9925,-347.305,-160.125
841,105126,2.618608,0.3782,-0.7088201,-28.14,-328.6325,-175.4025
842,105224,3.018768,0.254004,-0.555832,-29.4,-305.515,-186.935
843,105322,3.428932,0.071004,-0.354044,-26.8975,-279.5275,-189.4025
844,105421,3.6570720000000003,-0.11712,-0.07978801,-21.385,-260.4525,-182.735
845,105519,3.84666,-0.124928,0.36575599999999997,-9.555,-252.035,-165.655
846,105617,3.470168,-0.038796,0.9247601000000001,16.625,-239.33,-131.6875
847,105715,3.08416,-0.1464,1.6384599999999998,58.905,-213.7625,-87.6575
848,105813,2.8848119999999997,-0.45286400000000004,2.144272,85.8725,-171.9375,-48.125
849,105911,2.7654959999999997,-0.5751081,2.29604,64.6275,-126.525,-27.2125
850,106009,2.836256,-0.49776000000000004,2.2540720000000003,21.07,-81.11251,-25.1125
851,106107,2.916776,-0.42333999999999994,2.2191799999999997,-5.1275,-40.4075,-25.8475
852,106205,2.7725720000000003,-0.36844,2.0874200000000003,-9.485,3.395,-16.5375
853,106304,2.737924,-0.220088,1.7214200000000002,-3.78,50.12,-2.8175
854,106402,2.737192,-0.01464,1.17974,13.8775,91.8925,8.085
855,106500,0.5887720000000001,0.000976,0.154452,33.6,112.98,13.3525
856,106598,-0.6514800000000001,0.9340321,-6.791252,-2.7825,40.81,29.715
857,106696,-3.667564,-0.09882,-1.571848,-6.4225,55.4575,1.0675
858,106794,-0.9528200000000001,1.289052,2.295064,-127.7325,172.55,32.8475
859,106892,3.913272,1.0262639999999998,-0.40992,-47.95,276.08,72.2575
860,106990,1.392508,1.129964,-2.061556,-29.2075,197.26,44.3625
861,107089,1.560624,-0.377712,-1.1773,29.8025,219.3275,32.2
862,107187,2.038864,-1.0201639999999998,-1.796572,19.2325,215.3025,47.53
863,107285,1.346392,-0.144204,-1.191452,-7.0,172.2525,56.7875
864,107383,0.7195560000000001,0.9564799999999999,-0.936716,-25.655,145.6175,42.175
865,107481,1.5579399999999999,1.3005200000000001,-1.8346360000000002,23.8875,133.4725,35.0175
866,107579,1.4837639999999999,-0.01098,-0.7476161,123.62,86.3625,37.8175
867,107677,1.062864,0.26303200000000004,-1.042124,94.60501,49.665,33.1625
868,107775,1.029924,0.290604,-0.657092,56.1225,38.99,21.1925
869,107874,0.800564,0.227408,-0.8620521000000001,35.7525,25.9525,15.3825
870,107972,0.73688,0.270596,-0.795928,27.125,20.1075,11.0775
871,108070,0.6946681,0.268888,-0.779824,25.27,12.845,8.68
872,108168,0.6802720999999999,0.261812,-0.77104,24.5175,7.5075,7.7175
873,108266,0.654408,0.233752,-0.7622561,21.8225,3.9725,6.685
874,108364,0.6107319999999999,0.250344,-0.772992,19.2325,1.015,5.7225
875,108462,0.592188,0.23911999999999997,-0.7707961,17.6225,-0.245,5.3725
876,108560,0.59536,0.223016,-0.757864,17.29,-0.175,5.67
877,108659,0.6021920000000001,0.233752,-0.740296,18.445,0.105,6.51
878,108757,0.597068,0.21862399999999999,-0.740052,19.81,0.35,7.2275
879,108855,0.568764,0.284748,-0.765672,21.14,0.07,7.8925
880,108953,0.574132,0.2684,-0.765672,21.4375,0.4025,9.7125
881,109051,0.594384,0.21081599999999998,-0.770308,19.7575,0.805,10.92
882,109149,0.671488,0.18788,-0.7747001,15.9075,0.0525,10.78
883,109247,0.64904,0.219844,-0.758352,13.4925,-2.17,9.0125
884,109346,0.6161,0.229848,-0.7686,11.27,-4.5325,7.665
885,109444,0.6222,0.22252800000000003,-0.7476161,9.6075,-5.6525,7.7525
886,109542,0.6368401,0.20618000000000003,-0.7417600000000001,8.0325,-6.4575,7.91
887,109640,0.637084,0.23009200000000002,-0.748104,6.755,-7.1925,7.42
888,109738,0.6373281,0.229848,-0.756156,5.985,-9.38,7.735
889,109836,0.635376,0.219356,-0.7510321,5.25,-11.3575,8.4525
890,109934,0.623664,0.193248,-0.756156,4.305,-12.565,8.4175
891,110032,0.620736,0.18422,-0.7605481,3.0275,-12.53,7.595
892,110131,0.619028,0.18666,-0.7686,1.2425,-10.9375,6.125
893,110229,0.614392,0.19276,-0.768844,0.21,-9.1175,4.9875
894,110327,0.611464,0.198128,-0.7661600000000001,-1.365,-7.175,4.69
895,110425,0.615368,0.21594000000000002,-0.769576,-3.0975,-4.9,5.46
896,110523,0.604632,0.22033200000000003,-0.7759199999999999,-4.6375,-2.415,7.1575
897,110621,0.6036560999999999,0.20178800000000002,-0.780556,-5.8975,1.6975,10.045
898,110719,0.57218,0.186172,-0.8030041,-9.2575,7.1575,12.74
899,110817,0.548756,0.145912,-0.7707961,-11.8125,19.6875,13.755
900,110916,0.5736441,0.22935999999999998,-0.794708,-17.99,36.155,14.0525
901,111014,0.5753520000000001,0.205204,-0.7998321,-20.7375,51.31,17.0975
902,111112,0.5648601,0.168604,-0.803492,-22.015,69.265,18.8475
903,111210,0.576328,0.16714,-0.814472,-20.4225,88.11251,17.045
904,111308,0.5858439999999999,0.189832,-0.8383841000000001,-16.31,107.3275,13.405
905,111406,0.603168,0.198372,-0.8791321,-7.875,123.4275,11.2875
906,111504,0.59658,0.19251600000000002,-0.8671761,3.9375,134.225,11.55
907,111602,0.586332,0.20788800000000002,-0.869128,15.1725,147.7175,13.3875
908,111701,0.596092,0.217648,-0.882548,22.505,162.1725,18.2
909,111799,0.7417600000000001,0.2501,-0.9994241,30.9225,176.4875,26.6175
910,111897,0.49605200000000005,0.219844,-0.978684,40.95,176.5925,36.54
911,111995,0.494588,0.212036,-0.9633120999999999,47.355,189.35,49.4375
912,112093,0.42822,0.23546,-0.809836,47.1275,215.215,64.47
913,112191,0.8937719999999999,0.227408,-0.55388,40.7575,259.2975,76.30001
914,112289,2.397544,0.178608,-0.9262239999999999,43.68,370.09,72.6075
915,112387,0.796904,0.260348,-1.19438,21.1575,502.18,58.24
916,112486,1.404952,0.7442,-1.3664,-1.6975,527.2224,52.185
917,112584,2.188192,0.6082920999999999,-1.021872,2.45,494.7775,72.8
918,112682,2.064484,0.248392,-1.553304,-24.885,458.6225,85.71500999999999
919,112780,1.476688,0.6422081000000001,-1.410076,-63.805,399.8225,98.21
920,112878,3.27936,0.7076001000000001,-1.2932,-66.5175,385.9975,96.74
921,112976,1.9163759999999999,0.696376,-2.338496,-67.2175,437.605,72.695
922,113074,1.006744,0.477996,-2.3419119999999998,-173.285,362.25,74.3225
923,113173,1.6872599999999998,0.32086,-3.156384,-177.0125,261.835,75.425
924,113271,1.158024,0.850096,-3.156384,-125.825,87.99,65.5725
925,113369,0.500688,0.8596120999999999,-2.6815599999999997,-126.21,-22.0675,52.4825
926,113467,0.124196,0.863028,-2.134268,-109.6025,-78.96,44.1875
927,113565,-0.114192,0.889868,-1.816336,-78.68,-100.5725,36.785
928,113663,-0.033672,0.8488761,-1.689212,-48.2825,-111.9125,23.5025
929,113761,0.10345599999999999,0.774212,-1.6540759999999999,-25.0775,-132.4925,5.11
930,113859,0.195688,0.6724640000000001,-1.5738,-10.9375,-162.89,-18.1825
931,113958,0.24522,0.5463161,-1.4398440000000001,-3.255,-195.4225,-43.2425
932,114056,0.273524,0.43798000000000004,-1.284904,-2.3625,-226.2575,-66.9025
933,114154,0.315736,0.35502,-1.14314,-4.8125,-251.7725,-86.8875
934,114252,0.392352,0.304268,-1.0406600000000001,-8.2075,-270.4625,-102.025
935,114350,0.47458,0.288896,-0.9652639999999999,-10.71,-283.8675,-112.63
936,114448,0.5565640000000001,0.30256,-0.93086,-10.9375,-293.9125,-120.225
937,114546,0.6985720999999999,0.3233,-0.9442801,-9.6775,-301.945,-127.19
938,114644,0.8476561,0.336964,-0.975512,-7.455,-310.8525,-134.995
939,114743,0.9391560999999999,0.349164,-0.9921040999999999,-4.0075,-321.1775,-142.9225
940,114841,1.02114,0.368684,-1.023824,0.14,-329.735,-149.5025
941,114939,1.132892,0.396744,-1.049444,5.2325,-335.7025,-153.2825
942,115037,1.22976,0.430172,-1.064084,11.0425,-339.9725,-155.0325
943,115135,1.33346,0.46896800000000005,-1.0911680000000001,17.115,-342.685,-154.56
944,115233,1.429352,0.490684,-1.140944,21.385,-343.6825,-153.685
945,115331,1.538176,0.5070319999999999,-1.167296,22.225,-342.3175,-155.4175
946,115429,1.7160520000000001,0.55266,-1.157292,18.8475,-337.6625,-159.145
947,115528,1.914668,0.596092,-1.073356,13.2825,-329.245,-163.7125
948,115626,2.1252400000000002,0.557052,-0.925736,6.93,-315.875,-170.1875
949,115724,2.408036,0.5131319999999999,-0.821792,-2.485,-296.24,-181.6325
950,115822,2.814296,0.5002,-0.7522521,-12.95,-275.6425,-194.9325
951,115920,3.24154,0.47360399999999997,-0.706136,-17.675,-261.9925,-206.3075
952,116018,3.6966,0.359412,-0.47506800000000005,-10.9375,-260.2775,-210.84
953,116116,3.697332,0.199348,-0.07564,6.755,-263.97,-198.6075
954,116215,3.420636,0.057828,0.47506800000000005,36.26,-264.3025,-170.8
955,116313,3.0012,0.020984,1.051152,71.75,-248.5175,-127.8375
956,116411,2.689612,-0.23668000000000003,1.6811599999999998,98.07,-213.115,-78.9075
957,116509,2.501976,-0.541192,2.170624,84.0525,-165.6025,-42.2275
958,116607,2.523936,-0.7007680000000001,2.395836,17.7975,-112.4025,-23.3625
959,116705,2.81332,-0.41382399999999997,2.274324,-64.0675,-65.9225,-18.1475
960,116803,2.907016,-0.115168,2.1108439999999997,-102.34,-26.2325,-12.2675
961,116902,2.761348,0.14566800000000002,1.8348799999999998,-93.275,19.3025,0.0875
962,117000,2.7459759999999998,0.335988,1.402756,-51.7475,65.8875,12.285
963,117098,2.736704,0.36087600000000003,0.972828,4.97,102.27,20.615
964,117196,0.418216,0.55388,-0.1098,46.025,113.33,26.215
965,117294,-1.543056,0.6802720999999999,-4.965888,14.035,56.28,31.64
966,117392,-3.206892,0.15738,-0.7937320999999999,38.29,75.1975,5.95
967,117490,0.228384,0.9821,1.492304,-64.855,202.195,56.2975
968,117588,2.9077479999999998,0.7808001,-1.104588,-16.9925,269.9725,103.4425
969,117687,0.8047121,0.444568,-1.492792,24.36,203.4025,69.3175
970,117785,1.5913680000000001,-0.984784,-1.188036,31.7975,232.9425,43.4525
971,117883,1.956636,-1.1263040000000002,-1.736548,-4.06,234.64,60.3225
972,117981,1.5081639999999998,0.051972000000000004,-1.259528,-40.145,190.5925,72.135
973,118079,1.541592,2.380952,-2.6288560000000003,-56.3325,163.31,51.1875
974,118177,1.368352,1.284904,-0.4514,106.2425,113.05,35.805
975,118275,1.24806,-0.426756,-1.044076,156.1525,81.515,47.075
976,118373,1.228784,0.43676000000000004,-0.8344801,80.2725,43.155,34.965
977,118472,0.822524,0.388692,-0.7056479999999999,56.7175,40.495,21.8575
978,118570,0.820816,0.201544,-0.75884,44.0125,35.315,20.7725
979,118668,0.7929999999999999,0.270108,-0.8178880999999999,32.6025,26.1275,17.675
980,118766,0.6897880999999999,0.183732,-0.8327720999999999,25.655,16.24,14.2275
981,118864,0.6649,0.246928,-0.796172,18.025,10.0275,9.555
982,118962,0.624152,0.22716399999999998,-0.7832399999999999,13.7025,6.16,6.6675
983,119060,0.6141479999999999,0.242536,-0.773968,9.835,4.6725,4.6025
984,119158,0.6229319999999999,0.223748,-0.748592,6.6675,4.8825,2.94
985,119257,0.651968,0.237168,-0.735416,3.7625,5.075,0.805
986,119355,0.624884,0.256932,-0.754692,0.9975,4.375,-1.1725
987,119453,0.6080479999999999,0.246196,-0.7556681,0.1575,4.13,-1.68
988,119551,0.624152,0.22691999999999998,-0.751276,-0.595,4.725,-1.8025
989,119649,0.625616,0.25058800000000003,-0.732244,-2.3275,5.2675,-2.87
990,119747,0.6168319999999999,0.27523200000000003,-0.734684,-2.695,5.0575,-3.2375
991,119845,0.6161,0.282308,-0.737124,-1.6625,4.27,-2.17
992,119943,0.6265921,0.271084,-0.7198,-0.3675,3.6575,-0.385
993,120042,0.62098,0.26156799999999997,-0.72224,0.7175,2.695,1.19
994,120140,0.621712,0.28377199999999997,-0.7227279999999999,1.925,2.0825,2.625
995,120238,0.6307401,0.27889200000000003,-0.7198,4.375,1.4875,4.935
996,120336,0.642696,0.259128,-0.72346,7.21,-0.0175,7.1575
997,120434,0.6566041,0.237168,-0.72102,8.9425,-1.855,8.47
998,120532,0.6661201,0.232044,-0.710284,8.82,-3.7625,8.4
999,120630,0.649528,0.238144,-0.7315119999999999,7.035,-5.46,8.2075
1000,120728,0.6463561,0.246196,-0.7315119999999999,6.545,-6.1425,7.98
1001,120827,0.6470880999999999,0.25058800000000003,-0.736392,5.3375,-6.79,8.3475
1002,120925,0.642452,0.248148,-0.731268,4.445,-7.455,9.205
1003,121023,0.62708,0.23009200000000002,-0.74542,2.835,-7.7875,10.325
1004,121121,0.6182960999999999,0.223748,-0.746152,2.0475,-5.88,10.57
1005,121219,0.600484,0.23301999999999998,-0.7510321,-0.2975,-1.365,10.5875
1006,121317,0.580476,0.20642399999999997,-0.762988,-4.7425,6.8075,10.9725
1007,121415,0.581696,0.21228000000000002,-0.7327321,-8.2775,20.9125,10.6575
1008,121513,0.590236,0.24497600000000003,-0.768112,-15.5925,36.3825,12.5475
1009,121612,0.598288,0.21886799999999998,-0.755424,-22.1725,52.22,15.54
1010,121710,0.586088,0.19983599999999999,-0.7734800000000001,-27.9475,69.5625,15.61
1011,121808,0.583404,0.20691199999999998,-0.7808001,-31.99,89.81,13.51
1012,121906,0.58316,0.202032,-0.8071520000000001,-35.6475,112.6475,10.9725
1013,122004,0.590724,0.212036,-0.844972,-34.86,135.135,8.505
1014,122102,0.6895439999999999,0.255956,-0.9989360999999999,-29.75,153.09,7.4375
1015,122200,0.602436,0.271084,-0.9394,-8.365,159.355,11.9
1016,122299,0.644892,0.284504,-0.9638,14.3675,169.33,20.545
1017,122397,0.547536,0.28328400000000004,-1.0126,30.7475,185.8325,29.925
1018,122495,0.437004,0.25742,-0.993568,46.97,214.48,39.3225
1019,122593,0.396012,0.27571999999999997,-0.9381801,48.825,246.4875,52.955
1020,122691,1.696288,0.43041599999999997,-0.44773999999999997,40.25,303.2925,69.72
1021,122789,0.889624,0.237168,-0.83204,16.3975,453.74,84.175
1022,122887,1.1829120000000002,0.373564,-1.486448,-44.6075,558.7924,83.125
1023,122985,1.505968,0.670512,-1.667984,-37.4675,567.315,89.25
1024,123083,2.47416,0.6883239999999999,-1.0016200000000002,-40.32,524.51,92.7325
1025,123181,2.58518,0.35746,-1.693116,-72.6075,474.635,93.9925
1026,123280,1.627968,-0.03782,-1.559892,-64.995,407.225,120.19
1027,123378,3.538244,0.5777920999999999,-1.577948,-83.615,340.6375,92.47001
1028,123476,1.884168,1.106052,-1.9193040000000001,-159.4075,332.5175,48.5625
1029,123574,1.6469999999999998,-0.619028,-3.7741919999999998,-248.955,310.45,70.2625
1030,123672,1.44692,0.548268,-3.39526,-214.41,157.22,108.115
1031,123770,0.529968,0.42163199999999995,-2.747684,-197.575,-15.5225,119.7875
1032,123868,0.28792,0.900848,-2.4138919999999997,-184.7825,-71.6975,123.9
1033,123966,0.023668,1.1324040000000002,-2.0230040000000002,-145.2325,-89.53,121.135
1034,124065,0.198128,1.217072,-1.9954319999999999,-91.0175,-107.7825,107.555
1035,124163,0.21862399999999999,1.10532,-1.8819720000000002,-43.4875,-142.2925,77.6475
1036,124261,0.16909200000000002,0.8827921000000001,-1.6438279999999998,-10.71,-180.8975,36.3125
1037,124359,0.126148,0.669292,-1.391532,3.7975,-214.6025,-6.3
1038,124457,0.111508,0.49776000000000004,-1.169492,6.5975,-241.815,-41.86
1039,124555,0.10321199999999998,0.36478,-0.954528,4.165,-260.435,-68.79251
1040,124653,0.053191999999999996,0.233508,-0.711992,-3.78,-269.4825,-87.6925
1041,124751,0.204716,0.208132,-0.68686,-17.2725,-266.2275,-101.115
1042,124849,0.444324,0.28011199999999997,-0.820816,-29.9425,-260.995,-112.28
1043,124948,0.666852,0.39528,-0.9372040999999999,-37.1525,-265.125,-124.7225
1044,125046,0.8298440999999999,0.49702799999999997,-1.009184,-34.8775,-276.955,-137.7075
1045,125144,0.967216,0.548268,-1.022116,-21.0875,-290.745,-148.575
1046,125242,1.063596,0.559736,-0.9803921,-2.415,-303.5725,-156.87
1047,125340,1.148752,0.559004,-0.9503799999999999,15.3475,-314.125,-162.2425
1048,125438,1.25416,0.573156,-0.9442801,30.1525,-321.8075,-165.375
1049,125536,1.368108,0.5958479999999999,-0.9818561,41.2125,-328.2825,-167.65
1050,125634,1.477908,0.6007279999999999,-1.049444,47.775,-334.7225,-170.8875
1051,125732,1.627968,0.60634,-1.111664,49.0,-341.5125,-174.93
1052,125831,1.7873,0.612928,-1.147044,45.9025,-348.3375,-179.13
1053,125929,1.9727400000000002,0.60878,-1.095316,40.705,-353.1675,-182.98
1054,126027,2.09108,0.57828,-0.9906401,34.6325,-352.8175,-186.3225
1055,126125,2.332884,0.50142,-0.8476561,28.8225,-344.3475,-191.52
1056,126223,2.5742,0.419192,-0.7137001000000001,21.7875,-327.915,-194.04
1057,126321,2.895304,0.309148,-0.539484,18.165,-308.7,-192.955
1058,126419,3.172244,0.09906401,-0.264008,18.585,-288.4875,-186.9175
1059,126517,3.3674440000000003,-0.15420799999999998,0.05977999999999999,13.79,-266.7525,-174.755
1060,126615,3.4282,-0.240096,0.36234,3.92,-247.0475,-158.69
1061,126714,3.463336,-0.093696,0.699548,3.8325,-229.845,-136.675
1062,126812,3.15004,0.010248,1.208532,25.41,-207.305,-99.31251
1063,126910,2.864804,-0.225212,1.7751,52.395,-172.515,-55.685
1064,127008,2.744024,-0.3782,2.033496,42.945,-128.7125,-24.71
1065,127106,2.7593959999999997,-0.367464,2.0291040000000002,4.13,-85.365,-11.6725
1066,127204,2.871148,-0.231068,1.908568,-30.0125,-48.79,-8.785
1067,127302,2.814296,-0.188612,1.896368,-40.7575,-15.575,-2.8525
1068,127400,2.384856,-0.1586,1.55916,-36.82,22.96,7.56
1069,127498,1.386896,0.37698000000000004,0.919392,-5.7925,83.0025,28.7175
1070,127597,0.9225639999999999,-0.44652,-1.6616400000000002,5.1275,138.9675,48.8075
1071,127695,-2.249436,0.49654,-2.4268240000000003,-26.1625,111.0375,46.62
1072,127793,1.060668,0.9091440000000001,-0.27889200000000003,-64.3125,205.345,103.9675
1073,127891,1.299788,0.30744,0.135908,-3.255,225.645,144.6375
1074,127989,2.02032,1.40544,-2.27164,-53.935,216.0375,55.125
1075,128087,1.604056,-0.192028,-1.283928,-5.355,228.3575,39.3575
1076,128185,1.4959639999999998,-0.332816,-1.256844,7.84,194.6875,49.7175
1077,128283,1.1533879999999999,0.145912,-1.025044,-16.4675,174.3525,46.025
1078,128381,0.935984,0.756888,-0.9967401,-23.1525,152.775,39.0425
1079,128480,1.46034,1.245376,-1.814384,17.8325,131.74,29.1725
1080,128578,1.485716,0.111752,-0.8720559999999999,118.6325,89.1275,27.265
1081,128676,0.9825879999999999,0.104676,-0.81252,96.1275,53.0775,24.85
1082,128774,1.1041,0.38795999999999997,-0.763232,56.98,36.6975,14.4725
1083,128872,0.8376520000000001,0.1403,-0.8359440999999999,36.715,28.0875,10.8325
1084,128970,0.772992,0.265472,-0.759328,19.9675,21.0525,6.1425
1085,129068,0.71004,0.273524,-0.756156,16.8175,15.855,4.27
1086,129166,0.6588,0.24497600000000003,-0.7849480999999999,16.4325,11.0425,4.62
1087,129265,0.643672,0.255956,-0.7732359999999999,16.0825,7.665,4.0775
1088,129363,0.618052,0.23546,-0.772992,15.575,4.935,3.6925
1089,129461,0.60634,0.256932,-0.77104,15.085,3.3425,3.85
1090,129559,0.604876,0.262056,-0.7564001,15.5225,2.24,4.97
1091,129657,0.622688,0.242048,-0.741272,16.275,1.575,6.7725
1092,129755,0.63318,0.21374400000000002,-0.743224,15.645,0.595,6.685
1093,129853,0.610244,0.23472800000000002,-0.7671359999999999,13.8775,-0.805,5.3725
1094,129951,0.6117081,0.233508,-0.76372,12.46,-1.1375,4.6025
1095,130049,0.6068279999999999,0.238632,-0.7483479999999999,10.6925,-1.155,4.3575
1096,130148,0.610244,0.233508,-0.741028,9.4675,-1.2425,3.8675
1097,130246,0.6141479999999999,0.23887600000000003,-0.7483479999999999,8.5575,-1.225,3.36
1098,130344,0.6107319999999999,0.244,-0.751276,7.49,-1.6275,3.22
1099,130442,0.6161,0.23155599999999998,-0.745908,6.545,-1.995,3.3075
1100,130540,0.625616,0.233264,-0.741028,5.355,-2.45,3.7975
1101,130638,0.6326921,0.246928,-0.738588,4.9875,-3.535,4.3225
1102,130736,0.635376,0.240096,-0.7376119999999999,4.515,-5.6175,5.53
1103,130834,0.6224441,0.229604,-0.7476161,3.6575,-7.42,7.28
1104,130932,0.625616,0.205692,-0.74664,3.9375,-8.085,6.93
1105,131030,0.620004,0.19178399999999998,-0.755424,2.31,-7.5425,5.6525
1106,131129,0.620492,0.195688,-0.7617681,0.9975,-5.635,3.78
1107,131227,0.62464,0.21228000000000002,-0.754448,-0.0875,-3.6925,2.3625
1108,131325,0.6348881,0.21716,-0.75274,-1.365,-2.5375,2.0475
1109,131423,0.636352,0.21813600000000002,-0.7451760000000001,-2.38,-2.065,2.0825
1110,131521,0.630008,0.21813600000000002,-0.749568,-3.255,-2.275,2.59
1111,131619,0.6224441,0.20642399999999997,-0.751276,-3.535,-1.7675,2.7825
1112,131717,0.633668,0.230336,-0.74542,-4.515,0.28,2.9575
1113,131815,0.6222,0.24912399999999998,-0.76982,-6.2475,2.94,4.4275
1114,131914,0.571204,0.189588,-0.765672,-7.98,8.3825,7.5775
1115,132012,0.5702281,0.20496,-0.769088,-14.42,21.595,10.8325
1116,132110,0.589992,0.201544,-0.783972,-19.67,40.215,13.0725
1117,132208,0.578036,0.187392,-0.775676,-24.0975,55.7375,14.105
1118,132306,0.5690081,0.192272,-0.788608,-27.3175,77.3325,13.09
1119,132404,0.583404,0.20447200000000001,-0.80276,-30.8175,100.0475,11.48
1120,132502,0.5675439999999999,0.21520799999999998,-0.8420440999999999,-32.6025,123.165,10.29
1121,132600,0.5663239999999999,0.225212,-0.91622,-27.5275,146.1775,10.57
1122,132698,0.5692520000000001,0.2379,-0.966728,-12.6175,166.0225,12.8625
1123,132796,0.5856,0.22862800000000003,-0.94306,7.105,180.04,17.815
1124,132895,0.641232,0.23009200000000002,-1.0384639999999998,19.845,188.0025,25.3925
1125,132993,0.5214281,0.259372,-1.023824,34.44,193.235,33.495
1126,133091,0.40528400000000003,0.279868,-0.9762440999999998,46.69,222.3375,44.9225
1127,133189,0.393084,0.27694,-0.8066641,43.9075,248.7275,63.1225
1128,133287,1.730936,0.382836,-0.30109600000000003,34.3175,303.065,80.5
1129,133385,0.8547319999999999,0.282064,-0.8910879999999999,20.1775,462.4725,90.755
1130,133483,0.6902761,0.404796,-1.565748,-19.005,560.9099,98.105
1131,133581,1.987136,1.158512,-2.085468,21.3325,560.7175,105.1575
1132,133679,2.429996,0.3782,-1.16388,-2.0125,492.485,122.71
1133,133778,1.562332,0.49702799999999997,-1.550864,-10.2725,449.19,140.9625
1134,133876,2.188192,0.586088,-0.9396440999999999,-45.92,397.88,131.46
1135,133974,2.618364,0.845216,-1.613328,-26.7925,450.9225,92.48751
1136,134072,1.957368,0.87718,-2.210152,-132.7725,439.6525,66.885
1137,134170,1.640412,-0.225212,-4.3444199999999995,-214.2,354.165,60.1825
1138,134268,1.292712,1.068476,-3.032676,-152.9325,170.3275,67.8475
1139,134366,0.9274440999999999,0.8471681000000001,-2.823324,-126.4375,12.285,44.905
1140,134464,0.29377600000000004,0.859856,-2.401448,-100.695,-84.28,38.15
1141,134562,-0.11834000000000001,0.7288279999999999,-1.8048680000000001,-78.41751,-122.955,31.3425
1142,134660,-0.138348,0.70028,-1.57502,-58.7125,-128.9225,21.8925
1143,134759,0.019032,0.655628,-1.5098719999999999,-42.9275,-136.2375,6.265
1144,134857,0.188856,0.5919439999999999,-1.4945,-33.6,-157.955,-12.95
1145,134955,0.274988,0.5165481,-1.418128,-26.915,-188.895,-35.0175
1146,135053,0.323788,0.42748800000000003,-1.2963719999999999,-21.56,-220.6225,-56.42
1147,135151,0.392108,0.343308,-1.178032,-17.92,-248.4475,-74.13
1148,135249,0.43602799999999997,0.269376,-1.036756,-15.015,-271.985,-87.5
1149,135347,0.480436,0.214232,-0.921832,-14.4375,-289.8,-97.5625
1150,135445,0.544852,0.19764,-0.8525360000000001,-16.24,-301.49,-105.0875
1151,135543,0.636352,0.22082,-0.836676,-17.9375,-308.63,-110.7575
1152,135642,0.7539600000000001,0.2562,-0.8574161,-16.6425,-313.8625,-114.6075
1153,135740,0.8801081000000001,0.2928,-0.916464,-12.8625,-319.095,-116.8475
1154,135838,1.009672,0.321836,-0.9940559999999999,-8.2425,-325.1675,-118.545
1155,135936,1.111908,0.334524,-1.030412,-3.6925,-332.815,-121.0825
1156,136034,1.203652,0.373564,-1.043588,-0.7,-340.8825,-124.7225
1157,136132,1.299788,0.41577600000000003,-1.069452,1.61,-347.375,-128.5375
1158,136230,1.382016,0.438712,-1.1263040000000002,2.9925,-351.1025,-133.5075
1159,136328,1.5037719999999999,0.44408000000000003,-1.167784,1.75,-352.17,-139.5625
1160,136426,1.72996,0.45993999999999996,-1.1653440000000002,-1.26,-350.805,-145.8975
1161,136525,1.971032,0.4758,-1.084336,-6.8425,-346.7975,-152.635
1162,136623,2.201612,0.40211199999999997,-0.913048,-14.77,-338.8,-162.7675
1163,136721,2.46562,0.302316,-0.7571321,-24.01,-323.2075,-176.015
1164,136819,2.8421119999999997,0.213256,-0.676612,-32.4625,-302.2775,-187.5825
1165,136917,3.380132,0.105652,-0.537776,-33.32,-286.58,-193.6025
1166,137015,3.6504839999999996,-0.08881599,-0.246196,-24.8675,-275.73,-187.4775
1167,137113,3.7800480000000003,-0.30353600000000003,0.25351599999999996,-8.225,-267.1025,-170.2925
1168,137211,3.581432,-0.391376,0.772504,11.165,-251.6675,-142.8875
1169,137309,3.378912,-0.302316,1.26514,35.9975,-226.555,-106.9075
1170,137408,3.100996,-0.431148,1.7951080000000001,63.91,-194.53,-66.43
1171,137506,2.9628919999999996,-0.611464,2.229428,68.635,-156.6075,-36.12
1172,137604,2.7603720000000003,-0.6390359999999999,2.401936,37.03,-109.585,-19.95
1173,137702,2.78282,-0.5814520000000001,2.368264,3.36,-56.8925,-12.95
1174,137800,2.872856,-0.544852,2.176724,-15.925,-7.3325,-5.425
1175,137898,2.478308,-0.5502199999999999,1.9373599999999997,-19.6875,49.8575,5.7925
1176,137996,1.0004,-0.30012,1.1392360000000001,-17.5525,135.135,29.1375
1177,138094,-0.683932,0.08662001,-3.077328,-51.7125,165.025,46.935
1178,138193,0.016347999999999998,0.9076799999999999,-2.2384560000000002,-111.405,157.885,93.7125
1179,138291,1.8707479999999999,0.388936,1.54574,-34.405,223.895,120.925
1180,138389,1.0321200000000001,0.877912,-1.4459440000000001,-43.9075,199.4825,98.9275
1181,138487,2.305068,0.7078439999999999,-2.005436,-54.1975,255.64,67.025
1182,138585,2.045208,0.390888,-1.34322,6.335,213.36,73.3775
1183,138683,1.77998,1.0230920000000001,-2.151836,25.235,174.1075,52.745
1184,138781,1.04188,0.76494,-0.7007680000000001,110.145,122.6575,50.33
1185,138879,1.347856,0.297192,-1.250256,132.44,100.695,42.14
1186,138977,1.4154440000000001,-0.30475599999999997,-0.797148,103.9675,57.0325,43.1725
1187,139076,0.8403360000000001,0.381372,-0.865468,42.4725,29.12,22.645
1188,139174,0.7503,0.338916,-0.745664,27.1075,26.005,12.4075
1189,139272,0.806908,0.235948,-0.748836,26.005,16.59,10.9725
1190,139370,0.7283400999999999,0.208864,-0.7893399999999999,19.4075,8.82,6.1425
1191,139468,0.687592,0.1952,-0.774944,14.14,5.005,0.735
1192,139566,0.644892,0.25058800000000003,-0.75762,9.6075,3.43,-3.4475
1193,139664,0.6344,0.2562,-0.751276,6.79,1.715,-4.865
1194,139762,0.632448,0.256688,-0.7515201,4.305,0.9975,-5.3725
1195,139860,0.624396,0.29524,-0.7376119999999999,2.975,0.5075,-5.285
1196,139959,0.6158561,0.292556,-0.737124,3.675,-0.8400001,-3.3775
1197,140057,0.61366,0.25742,-0.7422481,5.1275,-1.7675,-1.05
1198,140155,0.619028,0.242536,-0.749324,5.2325,-2.135,-0.2625
1199,140253,0.6229319999999999,0.238632,-0.7442,4.6725,-1.8725,-0.735
1200,140351,0.614392,0.251564,-0.74542,3.7975,-1.8375,-1.505
1201,140449,0.614392,0.256932,-0.744444,3.815,-2.03,-1.6975
1202,140547,0.6107319999999999,0.258884,-0.7468840999999999,4.13,-2.1,-1.295
1203,140645,0.610244,0.264008,-0.738344,4.4975,-2.0125,-0.4025
1204,140743,0.6178081,0.28181999999999996,-0.73932,4.5325,-2.0125,0.91
1205,140842,0.620736,0.26303200000000004,-0.733708,5.2325,-2.6775,2.45
1206,140940,0.620736,0.254492,-0.73688,5.39,-3.7625,3.4825
1207,141038,0.621224,0.23228800000000002,-0.737124,4.8825,-4.2175,3.64
1208,141136,0.6265921,0.24156,-0.7381001,4.4625,-4.1125,3.115
1209,141234,0.630252,0.25376,-0.734196,4.235,-4.655,3.15
1210,141332,0.628788,0.255956,-0.7439560000000001,3.99,-5.7225,4.375
1211,141430,0.6273241,0.245952,-0.74054,4.655,-6.58,4.41
1212,141528,0.6280560000000001,0.23448400000000003,-0.743712,4.095,-7.1925,4.5675
1213,141626,0.6258600000000001,0.237168,-0.746396,3.395,-7.56,4.6375
1214,141725,0.631228,0.242048,-0.7415161,2.8175,-8.015,5.2325
1215,141823,0.6263479999999999,0.24326799999999998,-0.74298,2.555,-8.9775,6.09
1216,141921,0.6258600000000001,0.2379,-0.743468,1.925,-9.59,6.7725
1217,142019,0.620004,0.23301999999999998,-0.751276,0.735,-9.485,7.1925
1218,142117,0.615368,0.23228800000000002,-0.752496,-0.595,-7.9975,7.315
1219,142215,0.611952,0.238144,-0.754204,-2.1525,-5.4425,7.56
1220,142313,0.6141479999999999,0.259372,-0.7622561,-4.0425,-2.1525,8.54
1221,142411,0.5941401,0.28328400000000004,-0.7856801,-6.3175,2.4325,10.99
1222,142509,0.50264,0.18666,-0.7832399999999999,-9.1525,14.35,15.54
1223,142607,0.576084,0.22472399999999998,-0.7991,-17.64,38.2025,18.9
1224,142706,0.562176,0.190808,-0.79422,-22.435,59.7625,19.9325
1225,142804,0.5553441,0.179584,-0.793244,-25.3575,83.545,18.0075
1226,142902,0.571204,0.194224,-0.815936,-27.6675,106.365,14.56
1227,143000,0.5734,0.205936,-0.8164239999999999,-27.6675,127.435,10.7625
1228,143098,0.593896,0.23887600000000003,-0.8757159999999999,-25.165,146.51,8.7675
1229,143196,0.5736441,0.249612,-0.8910879999999999,-15.61,161.84,9.695
1230,143294,0.643184,0.266692,-0.9686799999999999,-1.225,171.78,14.56
1231,143392,0.62952,0.260104,-0.9945440000000001,15.6975,174.1075,23.1875
1232,143490,0.518744,0.28328400000000004,-1.0182120000000001,27.755,187.81,31.8675
1233,143589,0.41968,0.296704,-1.033096,42.665,216.965,44.5725
1234,143687,0.41406800000000005,0.291092,-0.8222799999999999,48.1425,247.6775,62.195
1235,143785,1.6616400000000002,0.393328,-0.43724799999999997,38.29,303.3275,79.4325
1236,143883,1.0826280000000001,0.298656,-0.987956,16.3625,446.635,92.435
1237,143981,0.9650200999999999,0.366244,-1.6531,-20.965,550.4275,97.21251
1238,144079,1.418128,0.67466,-1.535492,8.5925,557.305,100.24
1239,144177,2.30702,0.176656,-0.774456,-25.3225,493.5,106.8025
1240,144275,2.109624,0.7390760000000001,-1.7226400000000002,-53.935,463.645,100.87
1241,144373,1.5518399999999999,0.5099600000000001,-1.1958440000000001,-86.8875,406.525,97.685
1242,144472,3.035848,1.089216,-1.6521240000000001,-71.99501,404.6,85.1375
1243,144570,2.054236,0.6954,-2.051552,-84.5075,446.32,59.5175
1244,144668,1.279536,-0.075396,-3.2896080000000003,-193.76,367.5875,55.0025
1245,144766,1.625528,0.567056,-2.834304,-176.085,220.22,72.8
1246,144864,1.098976,0.7056479999999999,-2.934344,-113.085,39.3575,57.435
1247,144962,0.359656,0.6588,-2.3597240000000004,-109.34,-68.3025,48.37
1248,145060,-0.065148,0.640744,-1.747528,-103.11,-113.505,39.69
1249,145158,-0.177144,0.691008,-1.4884,-83.8425,-119.35,33.6875
1250,145256,-0.04514,0.7361481,-1.425936,-58.8175,-118.195,24.255
1251,145355,0.14347200000000002,0.734684,-1.40422,-31.5175,-130.795,11.06
1252,145453,0.319884,0.679784,-1.399584,-7.805,-157.1675,-6.8075
1253,145551,0.40821199999999996,0.589504,-1.307352,13.2475,-190.61,-28.2625
1254,145649,0.4392,0.487512,-1.156072,28.805,-223.685,-47.6875
1255,145747,0.488976,0.387228,-1.027484,37.59,-251.02,-62.4575
1256,145845,0.549732,0.325008,-0.9201241,40.1975,-273.14,-74.13
1257,145943,0.60268,0.29524,-0.8383841000000001,38.22,-291.06,-82.8975
1258,146041,0.662948,0.285236,-0.79178,34.1775,-304.15,-89.355
1259,146139,0.758596,0.303292,-0.7883640000000001,28.3675,-313.565,-95.445
1260,146238,0.8430200999999999,0.337452,-0.787144,23.345,-321.9825,-101.045
1261,146336,0.897432,0.373564,-0.802272,21.2625,-329.1575,-104.895
1262,146434,0.9830760000000001,0.401136,-0.8464360000000001,21.175,-333.7075,-107.4325
1263,146532,1.1070280000000001,0.443592,-0.9006040999999999,20.965,-337.435,-109.585
1264,146630,1.244156,0.504592,-0.9489161,20.4225,-342.265,-112.56
1265,146728,1.363716,0.5489999999999999,-0.995764,20.1775,-348.0575,-115.2025
1266,146826,1.462048,0.5499761,-1.043588,18.2875,-352.8875,-119.14
1267,146925,1.6028360000000001,0.5614439999999999,-1.098488,10.2375,-356.1075,-123.9
1268,147023,1.8519599999999998,0.559736,-1.08336,-2.5375,-357.6825,-128.345
1269,147121,2.112308,0.564372,-1.021872,-18.8825,-357.9275,-134.61
1270,147219,2.343864,0.5043479999999999,-0.9503799999999999,-37.8175,-355.6875,-146.2825
1271,147317,2.619584,0.45554799999999995,-0.877424,-54.67,-351.2075,-165.48
1272,147415,2.933612,0.359412,-0.68808,-62.6675,-344.9425,-183.295
1273,147513,3.170048,0.168848,-0.357704,-59.08,-331.31,-191.9925
1274,147611,3.2483720000000003,-0.087108,0.09735601,-47.8625,-307.265,-188.685
1275,147709,3.2966839999999995,-0.22082,0.555588,-32.025,-273.07,-172.1825
1276,147808,3.1939599999999997,-0.08857201,0.9286639999999999,-7.77,-230.125,-141.47
1277,147906,3.0439,0.050752,1.4213,33.495,-187.81,-100.5025
1278,148004,2.979972,-0.2379,1.991772,71.1025,-144.0775,-59.36
1279,148102,2.817224,-0.490928,2.25822,58.0475,-97.825,-30.625
1280,148200,2.81454,-0.496296,2.234552,2.1875,-56.3675,-24.15
1281,148298,2.88774,-0.272304,2.01666,-49.3675,-20.545,-31.815
1282,148396,2.8125880000000003,-0.147376,1.8099919999999998,-60.48,14.98,-34.0025
1283,148494,2.581032,-0.033672,1.483032,-41.685,52.605,-27.4225
1284,148593,1.736792,0.9323239999999999,-0.19276,16.6425,98.54251,-14.3325
1285,148691,0.7686,-0.137128,-1.8134080000000001,84.8925,138.2675,13.86
1286,148789,-2.059604,0.19739600000000002,-2.70718,30.9225,116.3925,-0.2625
1287,148887,-0.2196,-0.016347999999999998,0.7449321,-46.4975,188.3525,-13.0375
1288,148985,2.209664,0.203984,-0.472872,-61.1975,277.655,-12.565
1289,149083,2.171112,-0.094916,-2.663748,-49.105,248.5175,10.745
1290,149181,1.830732,-0.335988,-1.303692,-13.58,214.935,41.2125
1291,149279,1.502308,0.202276,-1.1775440000000001,-18.235,172.6375,63.455
1292,149377,1.085068,0.7795801,-1.049688,-25.935,145.04,42.9625
1293,149476,1.170224,1.334192,-1.7394759999999998,16.345,122.7975,32.655
1294,149574,0.9598959999999999,0.563884,-0.5404601,120.5925,100.975,34.4225
1295,149672,1.6552959999999999,-0.24912399999999998,-1.19926,113.3475,68.95,36.8375
1296,149770,1.051396,0.4514,-0.6314721,67.5325,39.095,27.4225
1297,149868,0.720776,0.549244,-0.676612,38.7275,38.9025,16.8175
1298,149966,0.871568,0.166408,-0.9093880999999999,48.965,30.5025,22.5225
1299,150064,0.7571321,0.201544,-0.736392,38.9725,15.6975,19.0925
1300,150162,0.69784,0.276696,-0.774456,29.47,7.665,12.1625
1301,150261,0.679296,0.254004,-0.749568,28.49,4.095,10.5
1302,150359,0.6612401,0.251564,-0.754204,24.3075,1.4875,9.0125
1303,150457,0.6273241,0.272304,-0.757376,20.2125,-0.9275,8.085
1304,150555,0.6021920000000001,0.28694400000000003,-0.761524,17.64,-2.1,8.4875
1305,150653,0.621712,0.302316,-0.7510321,16.45,-2.4675,10.5525
1306,150751,0.6709999999999999,0.2013,-0.69296,16.6775,-2.7125,12.1275
1307,150849,0.64294,0.212036,-0.7388319999999999,14.3325,-4.865,9.94
1308,150947,0.62464,0.241804,-0.7600600000000001,12.9675,-5.215,7.0175
1309,151045,0.61,0.239608,-0.756888,12.25,-4.9175,5.3725
1310,151144,0.61122,0.23155599999999998,-0.7483479999999999,10.71,-4.0075,4.445
1311,151242,0.623664,0.243756,-0.7373681,9.4675,-2.695,3.57
1312,151340,0.628544,0.258396,-0.739564,8.505,-2.695,3.0975
1313,151438,0.628788,0.260836,-0.741028,7.6475,-4.025,3.6925
1314,151536,0.6283,0.24278000000000002,-0.7417600000000001,6.4925,-5.95,5.0225
1315,151634,0.628788,0.239608,-0.7320001,5.2325,-7.7525,5.7925
1316,151732,0.6344,0.249856,-0.739808,3.8675,-9.38,6.195
1317,151830,0.6304960000000001,0.22814,-0.7478600000000001,3.4125,-11.3925,6.65
1318,151928,0.623664,0.20691199999999998,-0.749324,2.9925,-12.3025,6.335
1319,152027,0.62098,0.2135,-0.7503,1.925,-11.4975,4.935
1320,152125,0.616588,0.208864,-0.7551800000000001,1.1025,-9.94,3.36
1321,152223,0.613416,0.20788800000000002,-0.753472,0.5425,-7.98,1.7675
1322,152321,0.613416,0.214232,-0.752984,-0.42,-5.6,0.42
1323,152419,0.613904,0.21862399999999999,-0.7522521,-1.33,-3.6225,-0.1925
1324,152517,0.620492,0.22935999999999998,-0.7451760000000001,-2.415,-1.8025,-0.21
1325,152615,0.62098,0.229604,-0.7468840999999999,-3.5875,-0.5075,0.35
1326,152713,0.613416,0.22716399999999998,-0.7517640999999999,-4.725,1.015,1.12
1327,152811,0.614636,0.227652,-0.754204,-5.8275,3.6225,1.925
1328,152910,0.610244,0.228384,-0.758108,-6.2475,6.825,2.8875
1329,153008,0.5694961,0.188368,-0.772748,-5.9325,12.425,4.0075
1330,153106,0.6124400999999999,0.28938400000000003,-0.780068,-10.045,24.22,5.425
1331,153204,0.597068,0.25961599999999996,-0.74664,-14.7525,34.9825,8.89
1332,153302,0.588284,0.23668000000000003,-0.768844,-18.9525,47.2675,12.88
1333,153400,0.5975560000000001,0.22277199999999997,-0.784704,-20.055,60.795,15.05
1334,153498,0.5897479999999999,0.234972,-0.79666,-22.7325,76.055,15.4
1335,153596,0.581208,0.24131599999999997,-0.8547319999999999,-22.435,93.66,15.7675
1336,153694,0.581208,0.23155599999999998,-0.9154880999999999,-14.8575,111.335,16.8
1337,153793,0.543632,0.229848,-0.9228081,-1.6975,128.0475,18.7075
1338,153891,0.535092,0.2074,-0.9125601000000001,9.94,150.1675,21.3325
1339,153989,0.601216,0.207156,-0.958432,17.64,173.005,25.235
1340,154087,0.562908,0.205448,-0.917684,25.2175,182.7875,32.0075
1341,154185,0.41358,0.212036,-1.0858,29.2775,199.115,39.6025
1342,154283,0.30792800000000004,0.23546,-0.979416,32.8125,231.4725,50.9425
1343,154381,0.8439959999999999,0.395036,-0.587796,27.79,284.235,62.3525
1344,154479,2.430484,0.488,-0.678808,23.3625,408.7125,72.8175
1345,154577,0.188612,0.37502800000000003,-1.3620079999999999,-21.525,552.4225,85.33
1346,154676,0.909632,0.6378159999999999,-1.743868,-5.88,571.34,94.5525
1347,154774,2.4207240000000003,0.6314721,-0.8342360000000001,-17.5175,524.8775,101.64
1348,154872,1.9053959999999999,0.22057600000000002,-1.3412680000000001,-26.8975,480.27,107.6075
1349,154970,1.523536,0.315004,-1.49084,-22.12,444.325,122.605
1350,155068,2.53638,0.724924,-0.835456,-25.5325,403.095,113.4
1351,155166,2.263588,0.756888,-1.647488,-19.0925,457.45,60.865
1352,155265,1.6857959999999999,0.6058520000000001,-2.037644,-128.6075,423.325,32.6025
1353,155362,2.4160880000000002,-0.586088,-4.280492,-177.45,322.5775,52.185
1354,155461,1.4154440000000001,0.6832,-3.0890400000000002,-82.7575,118.6675,87.4475
1355,155559,0.7795801,0.454084,-2.423164,-72.17,-9.695,82.915
1356,155657,0.318664,0.5170359999999999,-1.979084,-72.835,-87.115,81.305
1357,155755,0.0305,0.5734,-1.512556,-69.405,-120.8725,71.1025
1358,155853,-0.009028000999999999,0.725412,-1.3351680000000001,-58.9225,-132.0375,56.805
1359,155951,0.098576,0.8476561,-1.28344,-37.0125,-142.9225,41.2125
1360,156049,0.21838000000000002,0.9018241,-1.24074,-5.215,-162.015,24.7975
1361,156147,0.320616,0.8788879999999999,-1.170712,30.1,-186.55,6.51
1362,156246,0.38503200000000004,0.808372,-1.064816,63.1925,-212.4675,-12.53
1363,156344,0.450912,0.70516,-0.9354959999999999,87.57,-236.5475,-30.4675
1364,156442,0.515084,0.632204,-0.8322841000000001,101.045,-257.8625,-45.9375
1365,156540,0.59536,0.5919439999999999,-0.755912,106.2425,-275.2575,-58.905
1366,156638,0.690032,0.589504,-0.727608,105.455,-289.4675,-69.51
1367,156736,0.7854361,0.610488,-0.708088,102.025,-302.0325,-78.715
1368,156834,0.8796200000000001,0.63318,-0.669048,97.895,-313.2325,-87.4825
1369,156932,0.9479401,0.6634359999999999,-0.635864,94.30751,-323.12,-95.09501
1370,157031,1.017724,0.692472,-0.636352,90.475,-329.5075,-101.325
1371,157129,1.129232,0.7451760000000001,-0.677588,86.13501,-333.0775,-107.17
1372,157227,1.247084,0.8486319999999999,-0.706624,82.565,-336.805,-111.9825
1373,157325,1.324432,0.944768,-0.718824,82.32,-341.075,-116.095
1374,157423,1.392996,1.064084,-0.7537159999999999,83.52750999999999,-343.6125,-121.8875
1375,157521,1.470832,1.136308,-0.8215481,86.59,-343.2625,-130.235
1376,157619,1.6204040000000002,1.1834,-0.898408,88.9525,-339.9025,-141.925
1377,157718,1.82512,1.215852,-0.9203680000000001,88.97,-336.525,-154.2975
1378,157816,2.049112,1.273924,-0.892308,85.365,-333.165,-165.7075
1379,157914,2.262368,1.32492,-0.821304,78.82,-329.77,-177.59
1380,158012,2.5315,1.328824,-0.681248,71.9425,-324.625,-191.905
1381,158110,2.683512,1.231468,-0.472628,62.755,-314.755,-205.94
1382,158208,2.8243,0.9955200000000001,-0.16104000000000002,52.99,-299.775,-221.06
1383,158306,2.967284,0.781776,0.126148,38.1675,-278.5825,-233.59
1384,158404,3.00242,0.535824,0.417484,21.84,-255.185,-235.34
1385,158503,3.0524400000000003,0.462868,0.680028,3.115,-233.52,-231.455
1386,158601,3.001688,0.639524,0.864492,-8.575,-214.76,-222.985
1387,158699,2.810148,0.740296,1.206824,7.175,-193.0425,-201.8625
1388,158797,2.562,0.5543680000000001,1.603324,37.6425,-158.83,-175.49
1389,158895,2.403156,0.392596,1.8824599999999998,50.68,-116.0775,-159.4425
1390,158993,2.389004,0.293288,2.032764,39.4625,-71.365,-153.055
1391,159091,2.418772,0.244,2.057652,16.5725,-26.8625,-151.2
1392,159189,2.34484,0.17812,1.979816,-8.1375,17.0975,-150.2725
1393,159287,2.067168,0.8579041,2.299944,-1.7675,90.475,-171.4125
1394,159385,0.9413520000000001,0.458232,1.6501720000000002,41.615,196.7875,-181.1075
1395,159484,-0.271816,-0.324764,-2.554436,3.3075,208.1975,-185.99
1396,159582,1.1653440000000002,-0.906948,-1.538664,-46.48,292.565,-206.5
1397,159680,2.706448,-2.412428,-0.9091440000000001,-59.1675,321.5275,-131.04
1398,159778,2.93044,-1.748748,-2.466108,-81.41001,291.515,-72.1
1399,159876,1.987136,-1.6960439999999999,-2.397056,-122.7975,209.3175,-25.9525
1400,159974,1.181448,-0.143228,-1.1477760000000001,-151.55,142.73,27.4575
1401,160072,0.6661201,1.09556,-0.6034121,-174.0025,115.185,48.475
1402,160170,0.828624,2.9441040000000003,-1.5469600000000001,-123.3575,106.3125,50.3125
1403,160269,0.505568,3.1412560000000003,0.2501,26.215,88.7425,-11.305
1404,160367,2.036912,0.23546,-1.103612,128.5025,107.8875,-10.9375
1405,160465,1.0077200000000002,0.141276,-0.887184,115.9025,54.25,26.1275
1406,160563,0.6512359999999999,0.749324,-0.526552,74.62,34.9125,16.8875
1407,160661,0.833992,0.43334399999999995,-0.7956840999999999,82.075,38.01,27.3525
1408,160759,0.734196,0.265716,-0.8400921,74.34,29.435,36.6975
1409,160857,0.702964,0.30378,-0.8544879999999999,58.205,20.895,38.395
1410,160955,0.648796,0.35746,-0.818376,45.3425,9.8875,38.01
1411,161054,0.582428,0.428464,-0.820816,38.6225,-1.1025,38.9375
1412,161152,0.60634,0.353556,-0.7822640000000001,41.2475,-7.56,43.82
1413,161250,0.6527,0.29646,-0.761524,39.5325,-11.865,45.43
1414,161348,0.692716,0.208132,-0.797636,34.4925,-17.325,44.625
1415,161446,0.59902,0.2684,-0.7986121,26.46,-23.73,42.6475
1416,161544,0.613904,0.177876,-0.759572,22.82,-23.5725,41.5625
1417,161642,0.60878,0.15738,-0.772748,18.655,-20.545,37.8
1418,161740,0.6117081,0.173484,-0.7612800999999999,14.0875,-15.995,31.92
1419,161839,0.599508,0.198128,-0.773968,8.015,-13.16,27.1775
1420,161937,0.6612401,0.11541199999999999,-0.707356,7.3675,-10.4475,24.2725
1421,162035,0.622688,0.14713199999999999,-0.8215481,3.9375,-9.9575,19.075
1422,162133,0.61122,0.27279200000000003,-0.763232,5.0575,-9.065,13.5625
1423,162231,0.595116,0.200568,-0.745908,0.1925,-5.7225,13.7375
1424,162329,0.5936520000000001,0.205692,-0.772748,0.2275,-3.5,15.2075
1425,162427,0.6095119999999999,0.21594000000000002,-0.762744,-0.1225,-1.6275,15.4
1426,162525,0.6058520000000001,0.190564,-0.761524,-0.35,-1.82,15.68
1427,162624,0.6007279999999999,0.18056,-0.764208,0.525,-1.925,14.6825
1428,162722,0.596092,0.187392,-0.764696,1.3125,-1.0675,12.88
1429,162820,0.5946279999999999,0.19154000000000002,-0.769576,1.12,0.5425,11.6375
1430,162918,0.597068,0.20008,-0.7734800000000001,1.47,2.5025,11.06
1431,163016,0.604144,0.20861999999999997,-0.7661600000000001,1.785,5.04,10.9375
1432,163114,0.613416,0.2074,-0.767624,1.7325,7.0875,11.5325
1433,163212,0.606584,0.211548,-0.770308,1.9425,9.0125,12.915
1434,163310,0.604632,0.22448,-0.775188,2.485,11.2,14.7525
1435,163409,0.606096,0.203252,-0.777872,3.745,13.72,16.87
1436,163507,0.611464,0.189344,-0.772504,5.775,17.08,17.6575
1437,163605,0.601704,0.1708,-0.783728,6.7725,21.105,16.905
1438,163703,0.6021920000000001,0.145424,-0.772992,8.4875,26.53,15.015
1439,163801,0.602436,0.14884,-0.794708,8.2775,32.655,12.425
1440,163899,0.6097560000000001,0.14396,-0.7944641,8.4875,39.8475,9.4675
1441,163997,0.605608,0.15201199999999998,-0.813496,7.84,47.32,7.9975
1442,164095,0.596092,0.162504,-0.80886,10.3775,56.175,7.56
1443,164194,0.589016,0.163236,-0.8271601000000001,14.2625,67.655,7.525
1444,164292,0.5917,0.17568,-0.8361879999999999,17.9725,80.535,8.505
1445,164390,0.571936,0.187636,-0.86498,21.875,96.0575,11.2175
1446,164488,0.554856,0.21228000000000002,-0.9152440000000001,26.5475,115.2025,16.625
1447,164586,0.528016,0.20837600000000003,-0.957456,31.92,138.0575,25.6025
1448,164684,0.5172800999999999,0.194712,-1.017968,36.6975,165.2525,38.045
1449,164782,0.505568,0.242292,-1.093852,43.3475,195.58,52.6575
1450,164880,0.6566041,0.24717199999999998,-1.277584,56.1575,228.27,71.3825
1451,164979,0.346724,0.30792800000000004,-1.105564,63.3325,241.6225,94.85
1452,165077,0.494588,0.442616,-1.062864,71.9425,276.745,126.21
1453,165175,1.711416,0.5702281,-1.2141440000000001,115.815,347.0775,155.7325
1454,165273,2.590548,0.650016,-2.308728,174.405,429.1,160.0725
1455,165371,1.7824200000000001,0.41992399999999996,-1.533784,249.8475,441.0875,174.3
1456,165469,1.530856,0.311832,-1.404464,255.7625,399.91,163.7825
1457,165567,2.301164,0.8632719999999999,-1.505724,255.22,373.695,133.6825
1458,165665,1.759728,0.679784,-1.348832,289.5375,406.5075,87.9375
1459,165763,1.122644,0.322324,-1.7685119999999999,227.92,415.1175,49.7175
1460,165862,0.050263999999999996,-0.696132,-3.013156,167.7375,346.8325,13.3
1461,165960,1.077992,0.158112,-2.798924,209.3875,176.68,11.9875
1462,166058,0.546804,-0.06661201,-2.230648,203.9625,14.21,1.0325
1463,166156,0.231312,0.35672800000000005,-1.931504,173.1975,-51.2925,-1.82
1464,166254,0.182268,0.7034521,-1.699704,169.68,-81.90001,8.855
1465,166352,0.20691199999999998,0.927688,-1.5201200000000001,196.105,-102.655,24.535
1466,166450,0.312808,1.03334,-1.423008,231.1925,-124.6,34.0725
1467,166548,0.397476,1.127524,-1.294908,256.48,-154.63,34.1425
1468,166647,0.452132,1.216828,-1.148752,269.675,-185.6925,24.7975
1469,166745,0.4636,1.315892,-0.975024,273.98,-214.4975,9.87
1470,166843,0.4453,1.4010479999999998,-0.7812880999999999,271.495,-236.5825,-8.715
1471,166941,0.485072,1.504504,-0.658068,264.8275,-247.9225,-30.9575
1472,167039,0.639768,1.572824,-0.576572,259.3675,-249.83,-56.5425
1473,167137,0.793488,1.669448,-0.5392399999999999,257.0575,-249.0775,-82.3725
1474,167235,0.916952,1.7502119999999999,-0.5072760000000001,258.5275,-248.8675,-102.2
1475,167333,1.047248,1.818532,-0.488976,262.6575,-249.095,-116.9525
1476,167432,1.20536,1.9002720000000002,-0.465796,265.475,-251.7375,-127.75
1477,167530,1.29808,1.9832319999999999,-0.38966799999999996,266.8225,-258.6675,-135.1525
1478,167628,1.3266280000000001,2.107916,-0.363804,267.89,-265.8075,-141.3825
1479,167726,1.250256,2.182824,-0.332328,267.7325,-270.13,-150.08
1480,167824,1.242204,2.1472,-0.353556,265.2475,-267.75,-164.5175
1481,167922,1.267336,2.04472,-0.4023561,257.0225,-263.445,-181.265
1482,168020,1.303448,1.9205240000000001,-0.462136,241.6575,-260.225,-196.1575
1483,168119,1.341024,1.81414,-0.5131319999999999,219.6075,-258.58,-207.2
1484,168217,1.370792,1.7448439999999998,-0.5404601,193.4975,-257.845,-214.9
1485,168315,1.4252040000000001,1.719224,-0.5665680000000001,167.335,-255.99,-219.66
1486,168413,1.5257319999999999,1.749236,-0.605364,144.4625,-252.63,-222.0575
1487,168511,1.652612,1.8221919999999998,-0.6034121,128.2575,-249.3925,-223.2475
1488,168609,1.7570439999999998,1.8636720000000002,-0.5565640000000001,120.54,-246.0325,-224.2275
1489,168707,1.842444,1.850496,-0.466772,118.7375,-240.5025,-227.15
1490,168805,1.933212,1.8043799999999999,-0.353312,118.4925,-232.82,-231.9975
1491,168903,2.009584,1.7428919999999999,-0.24107199999999998,116.7075,-223.405,-236.145
1492,169002,2.060336,1.64212,-0.14713199999999999,110.74,-212.0825,-237.4925
1493,169100,2.111576,1.491328,-0.07808001,96.4075,-199.15,-238.0
1494,169198,2.075708,1.225856,0.030987999999999998,71.61,-186.55,-239.9425
1495,169296,1.8944159999999999,0.621224,0.22326,34.825,-172.725,-248.2725
1496,169394,1.86294,0.35843600000000003,0.325496,-26.11,-153.86,-269.2725
1497,169492,2.0339840000000002,0.5072760000000001,0.27084,-86.73,-138.9325,-282.5725
1498,169590,2.19112,0.69418,0.232776,-105.8225,-125.9475,-272.9825
1499,169688,2.166964,0.74908,0.309392,-82.215,-111.65,-248.7275
1500,169787,2.182824,0.824232,0.405528,-33.46,-94.22,-222.95
1501,169885,2.1374400000000002,0.665144,0.640744,31.045,-75.1275,-197.9775
1502,169983,2.0093400000000003,0.320372,0.8903561,85.90751,-55.2125,-176.505
1503,170081,1.96786,0.047824,1.003816,99.365,-34.125,-161.945
1504,170179,1.9534639999999999,-0.08662001,1.007476,74.34,-14.385,-152.845
1505,170277,1.9061279999999998,-0.058072000000000006,0.89426,32.235,2.0125,-147.4025
1506,170375,1.8697720000000002,0.085888,0.657824,-2.975,17.5175,-144.025
1507,170473,1.539152,0.8525360000000001,0.365268,-16.625,33.285,-143.325
1508,170571,0.284748,0.124928,0.8559521000000001,60.0075,88.795,-169.7325
1509,170670,0.4697,-1.217804,-0.696132,77.7525,145.285,-174.1075
1510,170768,-0.668072,-1.5013319999999999,-1.095316,-39.62,159.0925,-226.6075
1511,170866,1.202676,-1.8004759999999997,-0.8703481,-101.0625,269.71,-191.3975
1512,170964,2.881884,-1.937604,-2.1959999999999997,-95.06,273.9625,-33.7925
1513,171062,2.142808,-0.6405,-1.830976,-111.4925,209.335,14.2975
1514,171160,1.242448,0.711992,-0.9711200999999999,-126.6475,153.9125,32.1475
1515,171258,0.9037761000000001,1.642364,-0.711504,-135.03,135.3975,20.9475
1516,171356,1.55306,1.860012,-2.096448,-78.26,129.465,2.17
1517,171455,1.35664,0.71614,-0.89426,42.6475,88.2,2.415
1518,171553,1.128256,0.628544,-0.8459479999999999,65.73,47.8625,12.0225
1519,171651,0.77836,0.765184,-0.621224,65.45,33.425,19.25
1520,171749,0.76982,0.54656,-0.74298,65.4675,35.2275,25.3575
1521,171847,0.8015399999999999,0.327204,-0.796416,65.0125,31.92,31.465
1522,171945,0.7093081,0.393816,-0.805932,54.67,22.4175,32.1825
1523,172043,0.7978801,0.250344,-0.8862081,51.065,13.5975,30.835
1524,172141,0.686128,0.21228000000000002,-0.778116,39.725,1.4,25.9175
1525,172239,0.6563601,0.305,-0.764452,28.0525,-4.795,20.79
1526,172338,0.665876,0.26718000000000003,-0.756888,24.9375,-6.3525,17.9725
1527,172436,0.63562,0.264008,-0.750544,19.88,-8.26,15.505
1528,172534,0.6068279999999999,0.24912399999999998,-0.7551800000000001,16.7475,-9.345,13.5975
1529,172632,0.6158561,0.24424400000000002,-0.756644,13.65,-9.1,12.075
1530,172730,0.6319600000000001,0.205204,-0.739808,10.43,-8.05,9.905
1531,172828,0.627568,0.196908,-0.739564,6.3175,-6.65,5.74
1532,172926,0.618052,0.20837600000000003,-0.7510321,2.065,-5.425,0.6125
1533,173024,0.60268,0.256932,-0.74908,-1.3475,-4.5325,-3.0625
1534,173123,0.587064,0.231312,-0.746396,-2.3275,-4.375,-4.1825
1535,173221,0.586576,0.22935999999999998,-0.754204,0.245,-4.2875,-3.6925
1536,173319,0.583648,0.254004,-0.750788,3.5,-4.725,-2.695
1537,173417,0.5873079999999999,0.25424800000000003,-0.750788,6.125,-4.69,-1.435
1538,173515,0.587064,0.27718400000000004,-0.734928,8.5225,-5.0225,-0.2625
1539,173613,0.586576,0.27205999999999997,-0.7361481,10.815,-5.3375,1.47
1540,173711,0.592188,0.27718400000000004,-0.7439560000000001,12.5475,-6.3,3.4125
1541,173809,0.590968,0.27328,-0.7366361,13.37,-7.7175,5.39
1542,173907,0.595604,0.275964,-0.748592,15.225,-8.96,7.4725
1543,174006,0.592188,0.268156,-0.7571321,16.345,-10.0625,9.205
1544,174104,0.580232,0.279136,-0.7705521,17.64,-10.465,10.85
1545,174202,0.6029241,0.22277199999999997,-0.7664041,17.7975,-10.1675,12.18
1546,174300,0.659288,0.187392,-0.7266321,17.08,-8.9075,11.9525
1547,174398,0.62098,0.23253200000000002,-0.769088,14.1925,-9.4675,10.5525
1548,174496,0.622688,0.2318,-0.762744,13.1775,-8.575,9.555
1549,174594,0.6231760999999999,0.250832,-0.758108,10.8325,-8.4875,8.9775
1550,174692,0.623664,0.226188,-0.7539600000000001,8.96,-7.28,8.4525
1551,174791,0.6182960999999999,0.222284,-0.7625,6.4925,-6.1075,7.8925
1552,174889,0.61488,0.23253200000000002,-0.762744,4.0075,-4.9,7.63
1553,174987,0.620492,0.212524,-0.7625,2.205,-3.7975,7.9975
1554,175085,0.6202479999999999,0.22472399999999998,-0.75884,0.77,-2.135,7.7525
1555,175183,0.614636,0.220088,-0.7705521,-0.455,-0.665,7.665
1556,175281,0.5987760999999999,0.221308,-0.781044,-1.2775,1.6975,8.0675
1557,175379,0.5221600000000001,0.176656,-0.8142281,-1.96,5.7575,7.4375
1558,175477,0.587796,0.26352,-0.782752,-5.985,21.5075,8.1375
1559,175575,0.5663239999999999,0.197152,-0.772748,-14.2625,38.0625,11.7075
1560,175674,0.5694961,0.213988,-0.8149601,-18.9525,56.49,14.63
1561,175772,0.5655920999999999,0.223992,-0.8030041,-19.775,77.3325,15.68
1562,175870,0.5604680000000001,0.239852,-0.828624,-19.32,100.17,16.555
1563,175968,0.5514399999999999,0.233264,-0.860344,-14.5425,123.13,17.4475
1564,176066,0.558272,0.2379,-0.9474520000000001,-6.3,141.4,19.2675
1565,176164,0.559736,0.23887600000000003,-0.93696,8.4175,150.5,22.6975
1566,176262,0.642696,0.258396,-1.030656,19.9325,161.6825,29.1725
1567,176360,0.5980439999999999,0.239852,-0.9969841,32.375,167.265,39.445
1568,176459,0.5124001,0.21276799999999998,-0.930372,40.11,171.7625,51.2925
1569,176557,0.44652,0.2074,-0.9015799999999999,41.3525,186.165,64.8025
1570,176655,0.42822,0.258396,-0.8142281,48.4225,212.94,79.6425
1571,176753,0.8493641,0.387472,-0.6109760000000001,58.87,251.5975,97.05501
1572,176851,1.820972,0.3843,-0.8662001,66.71,330.715,110.635
1573,176949,1.8048680000000001,0.477508,-1.1807159999999999,73.745,466.5675,121.485
1574,177047,1.5140200000000001,0.960384,-1.841468,82.1275,479.675,143.675
1575,177145,2.240164,0.74054,-1.358104,124.81,432.7925,174.685
1576,177244,1.637728,0.509716,-1.441308,127.3475,400.1375,185.15
1577,177342,1.5767280000000001,0.8735200000000001,-1.105808,102.5675,363.44,179.165
1578,177440,2.4209680000000002,0.564616,-1.096048,142.38,410.6725,142.45
1579,177538,1.613084,1.017236,-2.021296,51.1525,448.6475,100.275
1580,177636,0.9821,0.189832,-2.7242599999999997,-43.715,433.3175,80.15
1581,177734,1.82024,0.5368,-2.8426,-16.835,306.32,75.7925
1582,177832,1.175592,1.010892,-3.0512200000000003,20.16,137.7075,31.71
1583,177930,0.708332,0.964044,-2.7420720000000003,25.7775,38.3425,-4.1825
1584,178029,0.262056,0.80886,-2.198196,41.5625,-24.9375,-23.275
1585,178127,0.031232,0.665876,-1.889536,59.9725,-52.5525,-33.0225
1586,178225,0.077836,0.568276,-1.7572880000000002,69.755,-69.615,-42.2275
1587,178323,0.21862399999999999,0.499712,-1.735084,71.5925,-92.55751,-52.6925
1588,178421,0.327448,0.44822799999999996,-1.689212,68.6175,-125.3525,-64.155
1589,178519,0.37746799999999997,0.397964,-1.569164,63.49,-163.52,-74.34
1590,178617,0.371856,0.357216,-1.3973879999999999,57.855,-199.955,-81.67251
1591,178715,0.388204,0.329156,-1.2395200000000002,51.835,-229.775,-86.18751
1592,178814,0.422608,0.316224,-1.100196,45.3425,-252.875,-88.02501
1593,178912,0.47213999999999995,0.321592,-0.9928360999999999,40.005,-270.34,-87.6925
1594,179010,0.5489999999999999,0.34111199999999997,-0.9286639999999999,35.56,-283.465,-85.9425
1595,179108,0.6505041,0.365512,-0.9028,30.9925,-294.8575,-84.03501
1596,179206,0.74664,0.406992,-0.8815719999999999,25.9875,-306.5825,-83.72001
1597,179304,0.820816,0.478728,-0.8693719999999999,21.7,-318.465,-85.26
1598,179402,0.9042641,0.5429,-0.877424,19.04,-328.58,-87.95501
1599,179500,0.984296,0.59658,-0.891576,18.1125,-336.6825,-93.0475
1600,179599,1.071404,0.6707561,-0.9171961,17.71,-343.1575,-99.5225
1601,179697,1.160708,0.74298,-0.9394,18.375,-348.6175,-106.575
1602,179795,1.2397639999999999,0.8142281,-0.9706319999999999,19.3375,-352.1,-116.4275
1603,179893,1.321016,0.8849879999999999,-1.0201639999999998,20.3875,-352.31,-127.6975
1604,179991,1.479616,0.9679481,-1.073112,21.5775,-348.4425,-138.46
1605,180089,1.8053560000000002,1.011136,-1.0943399999999999,22.68,-342.055,-149.1875
1606,180187,2.090592,1.031876,-1.081408,21.6825,-337.2075,-160.4575
1607,180285,2.351184,0.908168,-1.0060120000000001,18.34,-332.9025,-173.7575
1608,180384,2.6598439999999997,0.690032,-0.9054840000000001,6.37,-325.465,-191.625
1609,180482,3.003884,0.418704,-0.7134560999999999,-15.5225,-316.575,-209.195
1610,180580,3.3157160000000006,0.11736400000000001,-0.400404,-42.805,-306.9675,-219.835
1611,180678,3.489932,-0.153232,-0.020252000000000003,-71.4175,-295.05,-215.4425
1612,180776,3.4860279999999997,-0.333548,0.42553599999999997,-89.2675,-277.2525,-195.5625
1613,180874,3.400872,-0.067344,0.709796,-86.5375,-252.735,-165.34
1614,180972,3.15492,0.226188,1.1350879999999999,-34.1425,-217.98,-115.85
1615,181071,3.0280400000000003,0.058316,1.737036,48.545,-170.9575,-59.2375
1616,181169,2.91336,-0.22691999999999998,2.084004,90.0375,-125.9475,-19.67
1617,181267,2.810636,-0.44896,2.317024,63.63,-87.7975,-6.685
1618,181365,2.887984,-0.325496,2.3128759999999997,0.1575,-50.505,-10.8675
1619,181463,2.87676,-0.1769,2.146712,-47.8975,-14.49,-10.7625
1620,181561,2.787456,0.01586,1.8165799999999999,-63.6825,25.3225,-4.7075
1621,181659,1.94346,0.284016,1.1192280000000001,-52.15,65.24,0.1225
1622,181757,0.642696,1.4945,-2.576152,5.32,84.245,-2.31
1623,181855,-1.8346360000000002,-1.181448,-1.367376,65.415,133.665,6.755
1624,181954,-1.2695319999999999,0.787876,0.23472800000000002,-75.3025,188.1425,-5.95
1625,182052,3.415024,0.7415161,-0.318664,-61.705,345.1875,40.355
1626,182150,1.731668,0.390888,-2.101084,-9.17,272.7725,44.45
1627,182248,1.987136,-0.17397200000000002,-1.517192,5.8275,262.92,31.3425
1628,182346,2.00568,-0.44505600000000006,-1.791204,18.76,234.57,64.715
1629,182444,1.5852680000000001,0.14347200000000002,-1.321748,-0.8575,178.5175,65.50251
1630,182542,0.906216,1.33102,-1.627968,4.725,135.17,47.5125
1631,182640,1.535004,1.081652,-1.3969,96.3725,108.9025,43.1025
1632,182739,1.8934400000000002,-0.291824,-0.711016,160.4225,78.435,49.6125
1633,182837,0.8461921,0.167384,-0.9403761,67.7075,32.8475,35.6825
1634,182935,0.902068,0.43212399999999995,-0.720776,36.4,29.0325,19.88
1635,183033,0.70638,0.209352,-0.830576,30.3275,17.5175,17.745
1636,183131,0.729804,0.217892,-0.7993439999999999,27.65,9.485,13.1075
1637,183229,0.682712,0.239608,-0.77836,21.8925,4.41,7.525
1638,183327,0.64904,0.237168,-0.772504,19.32,0.665,4.9175
1639,183425,0.628788,0.234972,-0.7686,15.9775,-0.77,2.45
1640,183524,0.6109760000000001,0.24644000000000002,-0.7661600000000001,12.4775,-1.2075,0.315
1641,183622,0.587796,0.262544,-0.7747001,9.8,-1.575,-0.7175
1642,183720,0.580476,0.279624,-0.7734800000000001,7.84,-1.5925,-0.5075
1643,183818,0.59536,0.25302800000000003,-0.7510321,7.07,-1.12,0.4025
1644,183916,0.6080479999999999,0.21008400000000002,-0.740296,5.915,-0.8225,0.28
1645,184014,0.597312,0.22716399999999998,-0.756156,5.075,-0.5425,-1.47
1646,184112,0.585112,0.235948,-0.7722600000000001,4.4275,0.0175,-2.835
1647,184210,0.576084,0.262788,-0.7793359999999999,4.41,1.015,-2.9575
1648,184308,0.5787680000000001,0.28426,-0.758108,5.5475,1.8025,-1.6625
1649,184407,0.5892601,0.284016,-0.743224,7.0875,2.1,0.56
1650,184505,0.581696,0.30622,-0.7605481,8.435,0.945,3.22
1651,184603,0.5941401,0.278404,-0.7617681,9.555,-0.805,6.6325
1652,184701,0.618784,0.23301999999999998,-0.74908,9.275,-2.1875,9.1525
1653,184799,0.638548,0.23253200000000002,-0.744444,8.155,-3.465,9.31
1654,184897,0.62952,0.24326799999999998,-0.7551800000000001,6.195,-5.4075,8.645
1655,184995,0.632204,0.21374400000000002,-0.7468840999999999,5.3725,-7.665,8.4
1656,185093,0.6182960999999999,0.20447200000000001,-0.7612800999999999,4.025,-9.2925,7.91
1657,185192,0.615368,0.20861999999999997,-0.75762,2.8,-9.8175,6.4575
1658,185290,0.609268,0.20691199999999998,-0.764208,1.8025,-9.0825,5.2675
1659,185388,0.6117081,0.214964,-0.7639640999999999,0.7175,-7.7,3.99
1660,185486,0.6058520000000001,0.22277199999999997,-0.76982,-0.6125,-6.475,3.4125
1661,185584,0.604144,0.227652,-0.7700640999999999,-2.0125,-5.11,3.8325
1662,185682,0.603168,0.24131599999999997,-0.76982,-3.7275,-2.6775,4.935
1663,185780,0.601704,0.23692399999999997,-0.7707961,-4.7075,0.8925,6.8075
1664,185878,0.565836,0.19959200000000002,-0.791292,-5.9675,5.985,8.26
1665,185977,0.505568,0.1586,-0.773968,-8.9425,15.6975,9.1
1666,186075,0.574864,0.263276,-0.8042239999999999,-16.52,34.2825,9.9225
1667,186173,0.5648601,0.243024,-0.8047121,-20.3,51.1175,13.8425
1668,186271,0.548024,0.194468,-0.8044680999999999,-24.4475,72.8,17.0975
1669,186369,0.535824,0.177876,-0.8252079999999999,-28.175,99.26001,17.29
1670,186467,0.559248,0.190808,-0.8805960999999999,-29.82,126.7525,15.3125
1671,186565,0.558272,0.215696,-0.9247601000000001,-23.275,148.54,13.0725
1672,186663,0.537044,0.239852,-0.9394,-9.695,160.5275,14.1925
1673,186762,0.657092,0.24888000000000002,-1.011624,2.205,170.9575,19.355
1674,186860,0.54656,0.25864000000000004,-1.059692,11.34,175.56,27.3525
1675,186958,0.41016400000000003,0.277428,-1.023824,24.045,190.8375,36.19
1676,187056,0.321592,0.246928,-0.9962521000000001,36.1725,221.34,49.525
1677,187154,0.44554399999999994,0.284748,-0.849852,39.0775,265.9125,66.185
1678,187252,2.340936,0.57218,-0.518988,26.18,350.175,82.9325
1679,187350,0.057584,0.2074,-0.5414359999999999,7.63,531.265,99.295
1680,187448,1.5403719999999999,0.449204,-1.760948,-56.42,572.18,101.5875
1681,187546,2.05692,0.698328,-1.7033639999999999,-35.35,571.55,99.785
1682,187645,2.324344,0.531676,-1.01748,-31.535,566.86,106.61
1683,187743,2.553216,0.519476,-1.9102759999999999,-36.575,546.7175,106.645
1684,187841,1.6326040000000002,0.672708,-1.074576,-66.4475,445.41,107.1
1685,187939,3.219336,1.270508,-1.7524080000000002,-14.875,465.0625,87.3075
1686,188037,2.0154400000000003,0.8554641,-2.2957959999999997,-82.425,489.7725,55.6675
1687,188135,1.9947,-0.36087600000000003,-4.680408,-200.7775,397.7575,50.61
1688,188233,1.7265439999999999,0.9537959999999999,-3.3974559999999996,-135.9925,182.245,66.745
1689,188331,1.17364,0.7612800999999999,-3.0524400000000003,-119.7,10.885,50.7675
1690,188429,0.5009319999999999,0.7771399999999999,-2.563708,-105.7175,-97.14251,40.5125
1691,188528,0.035136,0.67588,-1.915888,-92.89001,-145.04,28.4025
1692,188626,0.007320001,0.698816,-1.6735959999999999,-76.4225,-155.1375,16.9925
1693,188724,0.164944,0.693448,-1.578436,-54.985,-163.52,4.8475
1694,188822,0.3294,0.6329359999999999,-1.514996,-33.355,-186.1825,-8.2775
1695,188920,0.430172,0.544608,-1.424228,-17.4475,-220.2375,-25.165
1696,189018,0.460916,0.44164,-1.250988,-5.635,-255.9725,-44.31
1697,189116,0.45335200000000003,0.364536,-1.060912,0.7525,-286.405,-61.67
1698,189214,0.47604399999999997,0.315004,-0.9137799999999999,4.3925,-308.0,-73.9375
1699,189313,0.51362,0.29036,-0.795928,6.7725,-321.3875,-81.725
1700,189411,0.557296,0.28987199999999996,-0.7005239999999999,8.1725,-328.965,-87.0975
1701,189509,0.59536,0.310856,-0.642696,8.085,-332.08,-92.1025
1702,189607,0.653432,0.36209600000000003,-0.636108,7.245,-331.555,-97.79
1703,189705,0.7707961,0.44066400000000006,-0.702476,7.245,-328.895,-103.915
1704,189803,0.927688,0.5443640000000001,-0.822524,10.0975,-327.0925,-110.1625
1705,189901,1.079456,0.6463561,-0.9181720999999999,15.4175,-328.9475,-117.355
1706,189999,1.223172,0.748104,-0.993812,22.575,-334.88,-125.895
1707,190098,1.3529799999999998,0.792512,-1.069208,30.52,-342.195,-136.4125
1708,190196,1.491084,0.8418,-1.1575360000000001,36.4175,-349.755,-148.3475
1709,190294,1.7099520000000001,0.9250040999999999,-1.252208,38.8325,-357.28,-158.5325
1710,190392,2.160864,0.8300879999999999,-1.1746159999999999,40.425,-365.575,-169.4
1711,190490,2.417796,0.813984,-1.113372,35.6125,-375.935,-181.5625
1712,190588,2.6327599999999998,0.6646561,-0.9564799999999999,28.315,-384.9125,-188.86
1713,190686,2.882372,0.403332,-0.7829961,14.8575,-383.7225,-200.375
1714,190784,3.1280799999999997,0.131028,-0.5219159999999999,-4.7775,-376.285,-208.8275
1715,190883,3.417464,-0.17934,-0.12029200000000001,-26.2325,-362.25,-206.1675
1716,190981,3.5924120000000004,-0.45896400000000004,0.336476,-49.35,-339.2375,-188.3
1717,191079,3.6548760000000002,-0.462868,0.7093081,-69.3875,-307.37,-158.2875
1718,191177,3.583628,-0.196664,1.01504,-65.94,-267.3825,-120.2075
1719,191275,3.4526,-0.030256,1.557452,-25.3575,-226.9925,-76.895
1720,191373,3.1937159999999998,-0.325984,2.2357720000000003,26.565,-179.0425,-36.33
1721,191471,3.078548,-0.4453,2.5132,35.1225,-127.9425,-11.5325
1722,191569,3.0817200000000002,-0.41358,2.4622040000000003,8.155,-77.0875,-3.0975
1723,191668,3.2183599999999997,-0.35233600000000004,2.3075080000000003,-15.8025,-31.01,-7.63
1724,191766,3.289364,-0.35746,2.132316,-28.6125,7.7525,-8.225
1725,191864,2.59616,0.11224,1.482544,-27.86,50.505,-1.75
1726,191962,0.6141479999999999,0.209108,-0.548268,35.595,112.2975,5.8975
1727,192060,-2.00202,-0.223504,-2.7398759999999998,36.33,167.72,19.74
1728,192158,0.29987600000000003,0.9857600000000001,-0.701012,-81.3575,186.5325,37.9225
1729,192256,1.7328880000000002,-0.53192,1.01138,9.4325,282.24,94.79751
1730,192354,2.010072,0.463844,-2.316536,-38.85,248.99,50.9075
1731,192452,2.3119,-0.18470799999999998,-2.07156,-48.1075,284.235,29.6625
1732,192551,1.781932,-0.29572800000000005,-1.332484,9.0125,219.1,72.45
1733,192649,1.407148,0.762744,-1.125084,-18.83,178.045,54.18
1734,192747,0.681736,0.903532,-0.715896,0.6125,143.7275,43.05
1735,192845,1.410808,1.291004,-1.97396,66.7975,132.16,44.59
1736,192943,2.440488,-0.285236,-0.906216,159.705,84.595,53.095
1737,193041,0.798856,0.34794400000000003,-0.8552200000000001,66.53501,29.925,40.6525
1738,193139,0.80886,0.5221600000000001,-0.7315119999999999,29.54,20.6675,23.6075
1739,193237,0.7834840000000001,0.15396400000000002,-0.781776,41.0025,11.305,25.76
1740,193336,0.760304,0.20984,-0.770308,33.11,3.255,20.51
1741,193434,0.72102,0.21228000000000002,-0.759084,26.8625,0.595,14.0
1742,193532,0.687104,0.241804,-0.752496,24.675,-3.2025,10.4125
1743,193630,0.644648,0.24058400000000002,-0.746152,21.35,-5.67,7.2275
1744,193728,0.619516,0.23911999999999997,-0.754204,18.655,-7.2625,4.795
1745,193826,0.594384,0.279868,-0.772748,15.3825,-7.8225,3.3425
1746,193924,0.5856,0.30012,-0.773968,12.95,-8.0675,3.4125
1747,194022,0.6068279999999999,0.261812,-0.7388319999999999,11.8825,-8.0675,4.655
1748,194120,0.6156119999999999,0.216916,-0.727608,11.235,-8.12,4.725
1749,194219,0.604632,0.247416,-0.7483479999999999,9.7125,-8.505,2.8875
1750,194317,0.579256,0.25424800000000003,-0.769576,8.645,-8.6625,1.5575
1751,194415,0.561688,0.260348,-0.780556,7.42,-8.155,1.2425
1752,194513,0.576084,0.248148,-0.754204,6.0725,-6.0725,1.435
1753,194611,0.603168,0.24424400000000002,-0.74054,5.2325,-4.3225,1.645
1754,194709,0.60146,0.271328,-0.748592,4.62,-4.7425,1.925
1755,194807,0.5997520000000001,0.262788,-0.754204,3.675,-6.8075,3.0625
1756,194905,0.6161,0.24034,-0.7415161,2.555,-8.2425,4.5325
1757,195004,0.61854,0.244,-0.740052,1.365,-9.3275,5.1625
