,T,ax,ay,az,gx,gy,gz
0,10233229,0.721874,0.114192,-0.400038,19.915,-19.0225,-17.99
1,10233371,0.780434,0.10248,-0.43944399999999995,-46.41,-4.4625,-74.62
2,10233468,0.8985301,0.11773,-0.509472,-59.15,-73.92,-130.655
3,10233565,0.8884040000000001,0.122366,-0.509472,24.0275,-97.825,-57.8375
4,10233661,0.9029221,0.13359000000000001,-0.525942,-0.1575,0.5075,-8.3125
5,10233758,0.8792540999999999,0.124074,-0.496418,-0.07,1.1375,-5.7925
6,10233855,0.84851,0.121268,-0.49434399999999995,1.19,-1.9775,-5.1275
7,10233951,0.8581479999999999,0.131394,-0.492514,4.41,-2.73,-3.955
8,10234048,0.882548,0.14493599999999998,-0.496174,8.925,-5.18,-2.975
9,10234145,0.9082899999999999,0.146156,-0.521672,12.775,-12.565,-3.465
10,10234242,0.85949,0.13054000000000002,-0.505324,14.1575,-25.2,-4.4975
11,10234338,0.699548,0.124196,-0.602436,7.4725,-35.2625,-4.0425
12,10234435,0.725412,0.14762,-0.5009319999999999,3.3075,-25.655,-2.905
13,10234532,0.768966,0.10675,-0.532408,9.52,11.48,0.315
14,10234629,0.7965380999999999,0.125904,-0.5252100000000001,11.5675,24.3775,3.3425
15,10234725,0.8182541,0.117852,-0.5233800000000001,18.2525,34.1075,6.3175
16,10234822,0.83265,0.132858,-0.543388,25.795,43.5225,9.8175
17,10234919,0.8497299999999999,0.132736,-0.523746,34.23,48.72,11.795
18,10235016,0.8609540999999999,0.12285399999999999,-0.5165481,41.265,52.815,12.0575
19,10235112,0.868396,0.10833599999999999,-0.496906,47.005,53.8475,9.9575
20,10235209,0.863028,0.09698999999999999,-0.48873199999999994,50.8025,52.85,8.68
21,10235306,0.870958,0.09638,-0.492026,50.6625,48.7375,7.21
22,10235403,0.8641260000000001,0.08064199,-0.4758,45.92,40.985,4.7075
23,10235499,0.8587581,0.067832,-0.46469799999999994,37.485,33.0925,2.975
24,10235596,0.8704700000000001,0.052826,-0.445788,34.1425,30.9225,3.115
25,10235693,0.8283799999999999,0.07564,-0.435906,33.6175,29.8375,4.76
26,10235790,0.8371639999999999,0.081618,-0.427976,30.94,32.305,3.0275
27,10235886,0.9357401,0.098088,-0.395524,26.495,37.4325,-3.43
28,10235983,1.062254,0.09418401,-0.45201,19.18,30.2575,-8.995
29,10236080,0.984906,0.054412,-0.511302,17.255,5.215,-5.46
30,10236176,0.889502,0.07112601,-0.469944,20.755,-17.2725,-3.675
31,10236273,0.9037761000000001,0.064294,-0.426756,22.3475,-21.9975,-6.195
32,10236370,0.8964561,0.046116000000000004,-0.33976999999999996,26.39,-12.7925,-7.4025
33,10236467,0.8727879999999999,0.049898000000000005,-0.241438,23.38,0.665,-7.56
34,10236563,0.8820601,0.069174,-0.268522,2.275,15.5575,-7.1925
35,10236660,0.8913321,0.076616,-0.390034,-16.66,24.01,-5.3025
36,10236757,0.893284,0.072102,-0.489708,-20.475,24.36,-4.9
37,10236853,0.8885261000000001,0.08869401,-0.5038600000000001,-16.1175,19.88,-4.725
38,10236950,0.8985301,0.070638,-0.47067600000000004,-10.0975,15.6625,-4.9875
39,10237047,0.8907221,0.080154,-0.401014,-1.19,13.4225,-6.1425
40,10237144,0.8781559999999999,0.071614,-0.39345,-0.0525,10.5,-5.81
41,10237240,0.901458,0.046360000000000005,-0.43249,-8.33,8.0325,-7.0175
42,10237337,1.093364,-0.066734,-0.42163199999999995,0.595,9.4325,-0.1225
43,10237434,0.879864,0.15006,-0.293898,22.9775,19.18,14.945
44,10237531,0.76067,0.140422,-0.30561,14.8225,35.0,2.38
45,10237627,0.8699821,0.046360000000000005,-0.42065600000000003,-3.5,38.43,3.01
46,10237724,0.9774639999999999,0.008662000999999999,-0.46628400000000003,12.18,31.7625,1.54
47,10237821,0.904142,0.050752,-0.398452,46.6725,20.6325,7.7
48,10237918,0.9347639999999999,0.05819401,-0.28682199999999997,59.4475,23.065,9.0125
49,10238014,0.936716,0.029646,-0.26961999999999997,45.29,45.7975,4.375
50,10238111,0.924638,0.025376,-0.309636,33.7575,60.9875,5.4075
51,10238208,0.9575780999999999,0.04404201,-0.34099,26.7575,60.935,5.6
52,10238304,1.001376,-0.026351999999999997,-0.36197399999999996,13.4925,58.275,6.2475
53,10238401,0.9846620999999999,-0.04453,-0.26900999999999997,36.6275,77.105,10.9375
54,10238498,0.8815719999999999,0.000488,-0.12322000000000001,90.86,131.145,12.285
55,10238595,0.795074,0.133712,-0.193858,103.6,190.68,6.1425
56,10238691,0.961482,-0.014884,-0.45566999999999996,46.795,186.7775,1.9425
57,10238788,1.006378,0.02684,-0.45457200000000003,100.31,186.445,4.6375
58,10238885,1.11142,0.04404201,-0.288164,112.7175,141.2775,-2.87
59,10238982,1.1655879999999998,-0.017324000000000003,-0.29292199999999996,1.8375,35.7525,-5.53
60,10239078,1.0169920000000001,0.022082,-0.156526,-37.625,-39.1825,-7.3325
61,10239175,0.878034,0.013054,-0.003782,-0.35,-49.1225,-5.5475
62,10239272,0.892308,-0.022936,-0.076738,6.0025,-23.03,0.175
63,10239369,0.9967401,0.007076001,-0.243146,-0.1225,7.6125,-3.1675
64,10239465,1.03029,0.0017079999999999999,-0.274744,2.485,11.2175,-2.7825
65,10239562,1.00223,-0.008174001,-0.183732,2.8875,-5.495,-2.0475
66,10239659,0.9739261,0.001952,-0.14518,-1.715,-12.3025,-2.6075
67,10239755,0.978806,-0.0008540001,-0.152622,0.91,-6.3525,-2.7125
68,10239852,0.9945440000000001,-0.002684,-0.175314,1.9775,-3.0975,-2.905
69,10239949,0.995398,0.001952,-0.185074,-0.28,-6.2475,-3.2025
70,10240046,0.9834421,-0.001098,-0.17385,0.525,-8.715,-2.9225
71,10240142,0.979294,-0.00244,-0.16909200000000002,0.595,-7.63,-2.8875
72,10240239,0.9785620999999999,-0.002074,-0.1708,-0.4375,-6.3,-3.185
73,10240336,0.976366,-0.004758,-0.167262,-0.56,-6.44,-3.1675
74,10240433,0.97173,-0.008174001,-0.172508,-0.4025,-7.0,-2.9925
75,10240529,0.9762440999999998,-0.01342,-0.177876,-0.56,-6.72,-3.22
76,10240626,0.9817341,-0.01586,-0.181658,-0.56,-5.5825,-3.4125
77,10240723,0.9851501,-0.017812,-0.18104800000000001,-0.245,-4.48,-3.4825
78,10240820,0.989176,-0.017446,-0.174094,0.1225,-4.025,-3.4125
79,10240916,0.9873460999999999,-0.011712,-0.165554,0.14,-3.9025,-3.2025
80,10241013,0.989176,-0.009882,-0.15945399999999998,-0.035,-3.8325,-3.255
81,10241110,0.990884,-0.0061,-0.16104000000000002,-0.385,-4.095,-3.1675
82,10241206,0.9934460999999999,-0.011346,-0.162382,-0.4725,-4.445,-3.325
83,10241303,0.996374,-0.0122,-0.161162,-0.525,-4.9,-3.22
84,10241400,0.9980821,-0.020618,-0.16128399999999998,-0.945,-5.775,-3.0625
85,10241497,0.9949100000000001,-0.02196,-0.158478,-1.0325,-6.8425,-2.6425
86,10241593,0.9945440000000001,-0.027938,-0.15579400000000002,-1.715,-7.8225,-2.6425
87,10241690,0.988566,-0.035258,-0.156404,-2.03,-8.3125,-2.3625
88,10241787,0.9863700000000001,-0.038551999999999996,-0.15982000000000002,-3.08,-8.47,-2.1175
89,10241884,0.984296,-0.028182,-0.16433399999999998,-4.865,-8.26,-1.9775
90,10241980,0.9802700000000001,-0.021472,-0.16226,-5.8625,-7.6825,-1.715
91,10242077,0.974658,-0.01342,-0.160064,-5.5475,-7.245,-1.4175
92,10242174,0.9791719999999999,-0.023546,-0.15823399999999999,-5.1275,-6.895,-1.26
93,10242271,0.9817341,-0.025742,-0.15799000000000002,-4.515,-5.705,-0.8400001
94,10242367,0.983808,-0.027694,-0.16433399999999998,-4.62,-3.955,-1.435
95,10242464,0.9864921,-0.024644,-0.162992,-4.4275,-3.29,-1.5925
96,10242561,0.9911281,-0.020008,-0.155428,-3.745,-3.0625,-1.435
97,10242657,0.9895421,-0.020374,-0.15677,-3.395,-2.345,-1.855
98,10242754,0.9914940999999999,-0.0183,-0.158356,-3.08,-1.5925,-1.925
99,10242851,0.9874681000000001,-0.018666,-0.16506600000000002,-3.3075,-0.8575,-2.03
100,10242948,0.9903959999999999,-0.019886,-0.167018,-3.2025,-0.8225,-1.505
101,10243044,0.9969841,-0.015738,-0.158844,-2.6075,-0.2625,-1.2075
102,10243141,1.002718,-0.014152000000000001,-0.15372,-3.99,0.5075,-1.295
103,10243238,0.9869800999999999,-0.020008,-0.155306,-5.425,0.5075,-0.8400001
104,10243335,0.9861260000000001,-0.011712,-0.14005599999999999,-4.165,-1.89,-0.7525
105,10243431,0.9924700000000001,-0.004148001,-0.135176,-3.99,-3.5175,-0.49
106,10243528,1.0004,-0.002562,-0.134444,-3.8675,-3.815,-0.63
107,10243625,1.007476,-0.0032939999999999996,-0.135542,-2.345,-4.4975,-0.77
108,10243721,1.011136,-0.01525,-0.147742,-2.0475,-5.215,-1.54
109,10243818,1.0054020000000001,-0.015738,-0.1525,-1.1375,-7.175,-2.415
110,10243915,0.99979,-0.019398,-0.145058,0.035,-10.0975,-3.5
111,10244012,0.9869800999999999,-0.025376,-0.138348,0.56,-12.6875,-4.0425
112,10244108,0.9766101,-0.035502,-0.134078,1.925,-14.6475,-3.99
113,10244205,0.9752681000000001,-0.036356,-0.140178,3.64,-15.5925,-4.5675
114,10244302,0.978806,-0.028548,-0.15311,4.3225,-15.995,-6.055
115,10244399,0.9753901,-0.035746,-0.160308,5.1975,-16.94,-6.4925
116,10244495,0.9590420000000001,-0.045018,-0.158112,5.425,-18.4275,-6.86
117,10244592,0.947818,-0.036478,-0.155672,2.4675,-20.4575,-7.8575
118,10244689,0.9153661,-0.041846,-0.162626,0.105,-22.7675,-8.4875
119,10244785,0.9591639999999999,-0.05429,-0.163358,1.1725,-25.0075,-9.2575
120,10244882,0.9630681000000001,-0.024888,-0.142374,3.29,-26.635,-9.0125
121,10244979,0.9668501,-0.01525,-0.1403,4.235,-28.105,-9.5025
122,10245076,0.702476,-0.038551999999999996,-0.180926,9.065,-29.54,-8.4175
123,10245172,0.755302,0.047945999999999996,-0.137494,19.4775,-45.7625,-12.0225
124,10245269,0.7937320999999999,0.057339999999999995,-0.130662,16.24,-59.2375,-2.52
125,10245366,0.787144,0.064172,-0.22643200000000002,1.5575,-62.0725,-0.735
126,10245463,0.9484280999999999,0.022448,-0.24656199999999998,-3.8325,-65.38,-5.1625
127,10245559,1.023824,-0.051362,-0.271938,-1.645,-69.87751,-2.835
128,10245656,1.176324,-0.036478,-0.24875799999999998,8.225,-87.78,-7.98
129,10245753,1.4143459999999999,-0.01647,-0.33000999999999997,-4.27,-112.805,-19.53
130,10245849,1.436184,0.009882,-0.419314,-24.3775,-104.51,-11.34
131,10245946,0.8365541,0.01952,-0.429928,-26.845,-59.2375,7.98
132,10246043,0.8757159999999999,0.036722000000000005,-0.194712,-25.97,-43.82,14.455
133,10246140,1.118252,0.2013,-0.23485,-31.57,-35.63,28.4725
134,10246236,0.9340321,0.22277199999999997,-0.26596,-24.255,-5.95,92.4525
135,10246333,0.737246,-0.15189,-0.294142,-35.9625,27.37,94.5
136,10246430,1.0018639999999999,-0.110898,-0.324886,-53.1825,20.0025,31.955
137,10246527,1.141066,0.031842,-0.263154,-48.3525,29.225,-0.35
138,10246623,0.973316,0.170434,-0.212524,-48.405,48.1425,2.2225
139,10246720,0.9825879999999999,0.06356201,-0.149572,-46.3925,30.38,17.36
140,10246817,0.959774,-0.170312,-0.160674,-31.29,0.2275,12.1625
141,10246914,1.02175,0.002196,-0.127002,-20.5975,-14.245,-22.435
142,10247010,0.9801479999999999,0.071858,-0.187148,-37.3625,-6.615,-30.8525
143,10247107,1.0187,0.10540799999999999,-0.161406,-29.5225,0.175,-28.42
144,10247204,1.011136,0.054655999999999996,-0.11736400000000001,-14.875,-1.785,-29.2075
145,10247301,1.033218,0.097234,-0.14274,-17.2725,-8.715,-37.59
146,10247397,0.9580661,0.181536,-0.20374,-22.3125,-12.0575,-38.7275
147,10247494,0.9125601000000001,0.14213,-0.157136,-6.8425,-14.4375,-30.5725
148,10247591,0.922076,0.138714,-0.159576,-2.485,-14.315,-25.6025
149,10247687,0.924394,0.1342,-0.182756,-7.0175,-9.31,-23.205
150,10247784,0.9250040999999999,0.146278,-0.17873,-4.235,-5.53,-23.205
151,10247881,0.9320801,0.145058,-0.19032000000000002,-5.075,-2.9925,-23.1
152,10247978,0.937326,0.12712400000000001,-0.188368,-4.9875,-2.3275,-22.925
153,10248074,0.9404981,0.10052799999999999,-0.16592,-2.1525,-3.465,-22.9075
154,10248171,0.937326,0.071614,-0.142374,1.015,-5.39,-21.875
155,10248268,0.94489,0.044774,-0.12139000000000001,5.075,-6.7375,-21.07
156,10248365,0.9444020000000001,0.034648000000000005,-0.118828,7.7175,-6.755,-19.1975
157,10248461,0.94611,0.042944,-0.12041400000000001,7.8225,-7.56,-17.3425
158,10248558,0.9476959999999999,0.05209400000000001,-0.111752,7.9975,-7.98,-14.9625
159,10248655,0.9553821,0.053314,-0.09540401,8.54,-8.295,-12.985
160,10248751,0.954284,0.065148,-0.08357,7.455,-8.89,-11.235
161,10248848,0.952942,0.07856801,-0.08845001,5.3375,-9.1175,-10.0275
162,10248945,0.9567241,0.08479,-0.09845401,4.5325,-8.2075,-8.6975
163,10249042,0.9598959999999999,0.091012,-0.101748,5.005,-7.49,-8.155
164,10249138,0.9602620999999999,0.10126,-0.09845401,6.0725,-8.4175,-7.805
165,10249235,0.9572120999999999,0.103334,-0.08723001,8.0675,-9.8,-8.3125
166,10249332,0.95221,0.118584,-0.07112601,10.2025,-9.7475,-8.68
167,10249429,0.9453780999999999,0.11224,-0.06771001,11.235,-8.4525,-9.205
168,10249525,0.9414741,0.110776,-0.07002799999999999,11.3575,-7.98,-10.0975
169,10249622,0.9354959999999999,0.09882,-0.08100801,10.9025,-7.9625,-11.34
170,10249719,0.924394,0.09869801,-0.08601,11.4975,-8.5575,-11.515
171,10249815,0.9270780999999999,0.09784401,-0.09089001,10.99,-9.6425,-12.11
172,10249912,0.9267120000000001,0.09516001,-0.10430999999999999,8.645,-10.4125,-12.0225
173,10250009,0.9331780000000001,0.08417999999999999,-0.116876,7.28,-11.9525,-12.4775
174,10250106,0.9323239999999999,0.07747001,-0.129442,10.01,-15.5225,-13.615
175,10250202,0.9683141,0.117974,-0.10906800000000001,13.7725,-18.69,-14.14
176,10250299,0.9897860999999999,0.12749000000000002,-0.12444000000000001,9.0475,-18.4975,-13.4225
177,10250396,0.9994241,0.11224,-0.161406,3.5525,-16.135,-14.98
178,10250493,1.0060120000000001,0.118584,-0.18104800000000001,4.69,-16.2575,-13.7725
179,10250589,1.03273,0.14798599999999998,-0.168604,12.7225,-16.7475,-13.7025
180,10250686,1.048834,0.17751,-0.14701,16.8,-15.7325,-12.565
181,10250783,1.062986,0.190686,-0.150304,14.42,-13.545,-10.9025
182,10250880,1.097756,0.20105599999999998,-0.137128,15.75,-9.38,-10.5175
183,10250976,1.117398,0.178852,-0.13383399999999998,20.9825,-3.745,-8.855
184,10251073,1.155706,0.21447600000000003,-0.0854,28.2975,-0.91,-11.8475
185,10251170,1.2025540000000001,0.206546,-0.063074,29.47,-0.8400001,-16.9925
186,10251267,1.219878,0.201422,-0.04331,28.2275,0.105,-17.6225
187,10251363,1.216218,0.191174,-0.020496,33.2325,1.855,-16.8875
188,10251460,1.197918,0.19642,0.036844,39.9,2.59,-17.71
189,10251557,1.175714,0.19337000000000001,0.049044,34.895,4.3575,-17.2025
190,10251654,1.173152,0.166164,-0.023912,22.3825,5.915,-15.4525
191,10251750,1.235616,0.13908,-0.121146,16.1875,2.6075,-16.6075
192,10251847,1.3177219999999998,0.114802,-0.23887600000000003,8.3475,-4.3925,-16.1875
193,10251944,1.3357780000000001,0.08369201,-0.265594,1.155,-12.0225,-18.1825
194,10252040,1.241594,0.03599,-0.23606999999999997,-3.1675,-19.67,-18.69
195,10252137,1.147044,0.011712,-0.24412199999999998,-4.5675,-25.3225,-15.2075
196,10252234,1.074088,-0.007442,-0.33818400000000004,-10.4825,-21.595,-11.8475
197,10252331,1.007354,-0.028792,-0.45506,-17.5175,-10.0975,-7.91
198,10252427,0.946842,-0.02623,-0.517646,-18.76,-3.255,-2.1175
199,10252524,0.8987741,-0.040748,-0.5458281,-15.61,-2.7825,3.01
200,10252621,0.8491200000000001,-0.047824,-0.5620541,-11.2875,-3.3075,6.9825
201,10252718,0.8058101,-0.071492,-0.572546,-7.21,-2.2925,10.0975
202,10252814,0.7517640999999999,-0.07686,-0.5959701,-2.5725,-0.91,12.3025
203,10252911,0.73505,-0.063318,-0.59109,0.805,-1.82,12.775
204,10253008,0.749324,-0.049166,-0.5612,2.7125,-2.0125,11.4275
205,10253105,0.7922680000000001,-0.0183,-0.535946,5.145,-3.2025,10.7275
206,10253201,0.850706,0.013297999999999999,-0.5188659999999999,9.205,-3.99,9.7475
207,10253298,0.9331780000000001,0.054046000000000004,-0.488976,13.685,-1.0675,7.1925
208,10253395,1.011136,0.081374,-0.46787,15.3125,3.6575,4.1825
209,10253491,1.031144,0.128222,-0.41858199999999995,16.1875,4.2175,2.1
210,10253588,1.068354,0.128344,-0.35685,12.775,1.5575,1.19
211,10253685,1.077504,0.12334200000000001,-0.32147,8.925,2.38,3.3425
212,10253782,1.048956,0.108214,-0.313784,7.805,2.065,7.91
213,10253878,0.9940559999999999,0.043066,-0.345016,7.8225,-0.91,13.1425
214,10253975,0.9484280999999999,0.022448,-0.334646,10.6575,-3.99,18.48
215,10254072,0.9423280999999999,-0.06563601,-0.32574000000000003,9.24,-5.075,19.6525
216,10254169,0.9247601000000001,-0.098576,-0.30292600000000003,8.855,-6.37,21.98
217,10254265,0.895358,-0.115168,-0.291702,7.4025,-7.5075,23.345
218,10254362,0.85949,-0.094306,-0.272304,5.145,-7.385,24.4825
219,10254459,0.843508,-0.136762,-0.28609,2.135,-6.3525,23.73
220,10254555,0.796416,-0.06941801,-0.280478,3.9725,-6.79,25.55
221,10254652,0.7793359999999999,-0.053801999999999996,-0.264496,6.1075,-6.475,25.55
222,10254749,0.771894,-0.065026,-0.262056,2.8175,-3.01,25.8125
223,10254846,0.7548140999999999,-0.018056,-0.245464,0.1225,-1.225,28.42
224,10254942,0.756644,-0.053314,-0.28011199999999997,-4.725,-0.105,25.935
225,10255039,0.7345619999999999,-0.013663999999999999,-0.243146,-4.1825,-0.035,27.37
226,10255136,0.736514,-0.020496,-0.212402,-6.44,-0.28,26.565
227,10255233,0.729316,-0.047824,-0.21362199999999998,-10.43,1.61,27.895
228,10255329,0.7187020000000001,-0.05453401,-0.16506600000000002,-9.59,2.065,29.5925
229,10255426,0.702842,-0.06892999999999999,-0.18556199999999998,-17.955,4.655,29.7675
230,10255523,0.690154,-0.113704,-0.213256,-24.0625,7.8925,28.98
231,10255620,0.7241920000000001,-0.098088,-0.191418,-20.2125,8.9425,24.745
232,10255716,0.7754321,-0.10394400000000001,-0.141032,-16.7475,11.2,17.045
233,10255813,0.771894,-0.109556,-0.107482,-26.1975,15.785,16.8175
234,10255910,0.7771399999999999,-0.186538,-0.08845001,-40.8975,22.5225,14.735
235,10256006,0.77775,-0.157746,-0.08784,-47.0575,31.3775,9.38
236,10256103,0.789706,-0.09882,-0.039284,-38.8325,44.0475,0.63
237,10256200,0.793244,-0.057584,-0.01403,-39.2875,55.9475,-2.73
238,10256297,0.805566,-0.08576601,-0.005368,-45.7275,63.35,-2.1525
239,10256393,0.835456,-0.10833599999999999,-0.01769,-49.5775,65.0125,2.7475
240,10256490,0.8810841,-0.09540401,-0.006832001,-44.905,62.58,8.6975
241,10256587,0.963922,-0.06270801,0.015616,-40.915,57.085,7.595
242,10256684,1.086044,-0.028304000000000003,-0.015006,-50.54,43.715,4.41
243,10256780,1.24501,0.0034159999999999998,-0.069906,-60.515,20.965,1.6275
244,10256877,1.373842,0.031476,-0.047702,-57.715,-4.7425,1.5575
245,10256974,1.402756,0.048434,0.002318,-53.48,-19.7225,4.2525
246,10257070,1.3327280000000001,0.052338,0.024888,-48.2475,-18.13,7.63
247,10257167,1.2444,0.09613601,0.07637200000000001,-35.4025,-9.1875,7.2275
248,10257264,1.2197559999999998,0.10687200000000001,0.11236199999999999,-25.0425,0.28,6.0375
249,10257361,1.1773,0.11760799999999999,0.11773,-17.4825,9.275,3.1675
250,10257457,1.13704,0.100162,0.1098,-12.215,12.5475,-1.89
251,10257554,1.224148,0.06075601,0.09235399999999999,-9.0825,7.245,-7.84
252,10257651,1.368108,0.027206,-0.047945999999999996,-10.185,-3.01,-8.4525
253,10257748,1.52805,-0.007320001,-0.23729,-6.0375,-23.1,-3.1325
254,10257844,1.631262,-0.005368,-0.340868,5.5825,-51.8525,4.515
255,10257941,1.6461459999999999,0.023180000000000003,-0.372344,18.935,-68.4775,14.175
256,10258038,1.483032,0.015616,-0.5158159999999999,23.8,-63.6125,21.4375
257,10258134,1.252818,0.0366,-0.5976779999999999,27.7725,-53.4625,24.2725
258,10258231,0.9951540000000001,0.055998,-0.60146,28.3325,-35.805,17.5175
259,10258328,0.7645741,0.052948,-0.5620541,22.8725,-14.5075,8.365
260,10258425,0.644892,-0.033306,-0.543876,18.6375,6.72,2.8
261,10258521,0.624762,-0.150792,-0.557174,11.7075,18.0425,-0.1575
262,10258618,0.6329359999999999,-0.21313400000000002,-0.6109760000000001,3.4125,15.7675,-1.5575
263,10258715,0.71614,-0.23582600000000004,-0.661972,-5.7925,5.1625,-2.205
264,10258812,0.913658,-0.229604,-0.630862,-13.02,-4.445,-2.7125
265,10258908,1.090192,-0.24095,-0.550098,-22.1025,-10.5875,0.3675
266,10259005,1.194502,-0.20069,-0.41687399999999997,-26.6175,-13.86,8.085
267,10259102,1.290516,-0.121878,-0.353678,-24.78,-14.6475,13.0025
268,10259198,1.314062,-0.06270801,-0.352458,-15.8725,-11.41,18.0425
269,10259295,1.2907600000000001,-0.018666,-0.386496,-14.98,-11.9175,9.4675
270,10259392,1.087508,0.043798000000000004,-0.39479200000000003,-17.045,-22.75,-0.63
271,10259489,0.958432,-0.001586,-0.371368,-9.5025,-22.6275,-7.56
272,10259585,0.8764481,-0.024766,-0.366122,-5.8975,-8.2425,-11.6375
273,10259682,0.8407021000000001,-0.014518000000000001,-0.31964000000000004,-6.195,-2.8175,-16.205
274,10259779,0.801296,0.013908000000000002,-0.310368,-10.9375,-6.6325,-21.0175
275,10259875,0.7659161,0.050142,-0.29572800000000005,-12.355,-8.75,-26.075
276,10259972,0.7600600000000001,0.08820599999999999,-0.29365399999999997,-13.4575,-6.72,-29.4525
277,10260069,0.750422,0.10638399999999999,-0.290604,-13.3175,-5.3025,-30.555
278,10260166,0.7162621,0.132004,-0.25351599999999996,-6.7025,-8.6625,-29.6975
279,10260262,0.674294,0.148474,-0.22814,-5.0575,-11.585,-30.87
280,10260359,0.650016,0.198738,-0.25363800000000003,-6.93,-10.0975,-34.755
281,10260456,0.63989,0.20447200000000001,-0.22814,3.8325,-10.29,-37.1175
282,10260553,0.6573359999999999,0.14493599999999998,-0.22716399999999998,14.385,-12.3725,-41.4575
283,10260649,0.6469659999999999,0.115656,-0.22777399999999998,27.895,-17.885,-43.1025
284,10260746,0.71187,0.09638,-0.249734,44.4675,-15.365,-50.575
285,10260843,0.721874,0.021106,-0.319762,58.4675,6.965,-52.85
286,10260940,0.742858,0.0035380000000000003,-0.310612,77.5775,42.8225,-61.1625
287,10261036,0.805688,0.121512,-0.234362,78.54,83.4575,-54.775
288,10261133,0.8765700000000001,0.132614,-0.156648,53.6025,122.5,-42.6825
289,10261230,0.9114620000000001,0.099552,-0.094062,22.33,156.6425,-25.165
290,10261326,0.8346021,0.071004,-0.153354,-1.4875,193.9,-5.3725
291,10261423,0.759328,0.050508,-0.18043800000000002,-2.1175,226.135,-2.065
292,10261520,0.7856801,0.077836,-0.040382,26.8625,240.765,-10.64
293,10261617,0.82045,0.1037,0.24131599999999997,55.265,232.4,-8.6975
294,10261713,0.793976,0.1098,0.441396,54.845,205.7475,-2.24
295,10261810,0.7345619999999999,0.096624,0.542656,41.475,151.69,-0.98
296,10261907,0.7237041,0.08881599,0.442616,20.6325,78.82,-1.9425
297,10262004,0.76677,0.06356201,0.32574000000000003,12.9675,17.29,-2.6075
298,10262100,0.8357,0.07356601,0.172996,11.8825,-11.69,-2.275
299,10262197,0.8820601,0.07490801,0.042212,9.765,-3.1675,-0.8400001
300,10262294,0.969412,0.08308201,-0.057828,4.9,24.955,0.7175
301,10262391,1.077626,0.07600599999999999,-0.023302,14.2975,51.135,2.345
302,10262487,1.127524,0.02806,0.12456199999999999,24.29,66.1675,6.895
303,10262584,1.089704,-0.042944,0.280478,20.16,60.8475,12.67
304,10262681,1.042612,-0.104676,0.383324,15.575,46.4275,10.9375
305,10262777,1.062132,-0.146278,0.371368,10.08,41.79,6.9825
306,10262874,1.1476540000000002,-0.112606,0.321226,5.5825,61.775,-2.24
307,10262971,1.2141440000000001,-0.059658,0.327204,3.5,99.7675,-7.735
308,10263068,1.196332,-0.040626,0.41553199999999996,-2.905,134.8375,-11.1825
309,10263164,1.145458,0.02196,0.586332,-8.505,148.89,-13.4925
310,10263261,1.052738,0.083814,0.731878,-13.37,143.3425,-13.2825
311,10263358,0.976366,0.14005599999999999,0.790072,-19.1975,125.755,-7.07
312,10263455,1.00284,0.239242,0.771162,-20.895,101.64,0.385
313,10263551,1.222928,0.374784,0.815082,-14.525,58.8,9.3625
314,10263648,1.572092,0.255468,0.537654,-28.42,-10.535,16.8525
315,10263745,1.9581,-0.3111,1.2130459999999998,91.385,-246.5225,-27.58
316,10263842,1.190476,0.287554,0.566446,141.47,-542.0625,-69.195
317,10263938,0.7828741,0.203618,0.18446400000000002,72.0125,-573.405,-35.945
318,10264035,0.653554,-0.089426,0.062586,84.5425,-573.405,11.55
319,10264132,0.76677,-0.138226,-0.38735,55.6675,-567.9975,62.4575
320,10264228,0.7135779999999999,-0.638792,-2.323856,-68.215,-432.95,67.3225
321,10264325,0.239608,-0.498126,-2.588108,-155.89,-93.7475,0.7875
322,10264422,0.53375,-0.119316,-0.8615640999999999,-59.885,137.34,-34.8075
323,10264519,0.809836,-0.161894,0.107848,40.6175,189.8575,-25.34
324,10264615,0.8235001000000001,-0.188856,0.302438,34.44,187.46,-12.25
325,10264712,0.815936,-0.100284,-0.134932,-63.0175,126.035,-10.955
326,10264809,0.9656300999999999,0.053436000000000004,-0.475312,-89.845,7.9275,-22.1375
327,10264906,1.283562,0.232654,-0.533384,-24.255,-107.3275,-24.36
328,10265002,1.455582,0.301584,-0.53497,16.2575,-135.8875,-1.2425
329,10265099,1.494256,0.211304,-0.5239901,3.2725,-69.0025,26.18
330,10265196,1.3055219999999998,0.135176,-0.447984,-18.9175,22.9425,22.505
331,10265293,1.134722,0.19397999999999999,-0.253272,-26.9325,44.4325,8.8025
332,10265389,1.03639,0.1952,-0.08235001,-8.8025,20.055,-4.3575
333,10265486,0.9356180000000001,0.032818,0.003904,25.27,-2.5725,-10.955
334,10265583,0.7390760000000001,-0.02623,-0.11126400000000002,48.335,-23.0475,7.49
335,10265679,0.715164,-0.008662000999999999,-0.22386999999999999,37.8,-46.3925,30.555
336,10265776,0.8550979999999999,0.02684,-0.266814,11.165,-42.0875,25.375
337,10265873,0.8049561,0.026962,-0.316834,8.295,-10.955,18.025
338,10265970,0.768356,-0.006222,-0.25742,9.1525,-7.2975,22.6975
339,10266066,0.76189,-0.0032939999999999996,-0.171532,9.065,-9.7475,16.345
340,10266163,0.7137001000000001,-0.025986000000000002,-0.15579400000000002,2.9925,-6.8425,12.39
341,10266260,0.684176,-0.095648,-0.149694,-2.0475,-6.86,6.8075
342,10266356,0.6882020000000001,-0.13725,-0.14518,-10.2375,-11.76,0.6825
343,10266453,0.676612,-0.16226,-0.162626,-19.8975,-13.615,-2.5025
344,10266550,0.660996,-0.131882,-0.185684,-23.6425,-12.285,-2.4325
345,10266647,0.66063,-0.090768,-0.166286,-18.7425,-9.065,-0.8575
346,10266743,0.678808,-0.04575,-0.130906,-13.79,-4.795,1.6975
347,10266840,0.705282,-0.035624,-0.09540401,-9.6075,-2.1,4.4275
348,10266937,0.737734,0.006344,-0.045872,-3.4475,-1.2075,4.6375
349,10267034,0.764452,-0.017568,-0.035136,-1.05,-0.2975,0.1225
350,10267130,0.74908,-0.018178,-0.055265999999999996,-7.2975,0.455,2.3975
351,10267227,0.74237,-0.018178,-0.067832,-14.14,2.485,0.42
352,10267324,0.745786,-0.009150001,-0.072712,-20.2475,10.4825,-4.935
353,10267420,0.744688,0.007320001,-0.058926,-24.5,24.535,-7.7
354,10267517,0.745054,-0.009394,-0.031598,-25.1125,39.83,-9.0475
355,10267614,0.78446,-0.03355,-0.008052001,-25.725,50.68,-9.275
356,10267711,0.855708,-0.05819401,-0.011468,-27.9825,54.3725,-7.56
357,10267807,0.9581881,-0.055388,-0.04575,-29.05,48.7375,-6.72
358,10267904,1.0856780000000001,-0.024644,-0.08893801,-26.2325,31.43,-10.465
359,10268001,1.2580639999999998,0.0427,-0.11431400000000001,-22.3125,4.2,-17.955
360,10268097,1.390068,0.143594,-0.12029200000000001,-24.4825,-24.7625,-18.2875
361,10268194,1.405562,0.205692,-0.103334,-29.715,-40.0925,-8.0325
362,10268291,1.345172,0.22716399999999998,-0.07869,-28.0,-35.49,4.585
363,10268388,1.289052,0.241804,-0.0122,-15.435,-20.5975,9.6075
364,10268484,1.283562,0.25132,0.061732,-1.155,-5.0575,8.7675
365,10268581,1.25355,0.298046,0.079544,10.465,9.345,11.1475
366,10268678,1.267946,0.246806,0.06039,17.1675,17.6925,10.29
367,10268775,1.3603,0.150304,-0.049654000000000004,24.71,15.995,7.21
368,10268871,1.5043819999999999,0.117852,-0.18873399999999999,41.965,-3.4125,7.875
369,10268968,1.5936860000000002,0.07307801,-0.11577799999999999,64.61,-40.46,6.5275
370,10269065,1.52683,0.06563601,0.02135,65.9575,-62.8775,8.4525
371,10269161,1.4210559999999999,0.045872,0.045872,45.0975,-58.3625,15.925
372,10269258,1.313086,-0.06563601,-0.09784401,26.915,-56.175,23.4325
373,10269355,1.05103,-0.237046,-0.532652,26.1275,-73.3075,37.5025
374,10269452,0.853512,-0.231068,-0.6681941,51.905,-79.52,34.3
375,10269548,0.737978,-0.183732,-0.780068,26.3375,-79.52,22.0325
376,10269645,0.6469659999999999,-0.153598,-0.736514,-0.525,-38.885,21.56
377,10269742,0.658434,-0.182756,-0.609634,2.2925,19.285,20.5625
378,10269839,0.661118,-0.189466,-0.5011760000000001,7.1575,42.175,20.2475
379,10269935,0.685396,-0.191906,-0.447374,-1.925,23.135,18.4975
380,10270032,0.8881600000000001,-0.122366,-0.490562,-25.41,-4.0425,4.935
381,10270129,1.08702,-0.06490399999999999,-0.5795,-47.53,-14.8925,-2.695
382,10270225,1.1447260000000001,-0.040992,-0.530456,-44.1,-10.5,6.195
383,10270322,1.20414,-0.098332,-0.407602,-33.2325,-2.1175,19.8275
384,10270419,1.2756319999999999,-0.134688,-0.331352,-30.8175,5.775,32.2
385,10270516,1.294664,-0.15555,-0.288774,-29.9425,8.1025,22.505
386,10270612,1.22,-0.102358,-0.228384,-28.525,-6.265,1.05
387,10270709,1.043466,-0.06466001,-0.265472,-30.8525,-27.965,-3.7275
388,10270806,0.907802,-0.049654000000000004,-0.290482,-23.31,-41.755,-4.06
389,10270903,0.8486319999999999,-0.029158,-0.318054,-24.15,-42.665,-10.92
390,10270999,0.822524,0.004758,-0.346602,-33.7225,-33.845,-17.325
391,10271096,0.786412,0.06380599999999999,-0.32403200000000004,-29.4875,-22.225,-18.8475
392,10271193,0.719312,0.12029200000000001,-0.275354,-20.51,-15.9425,-20.9825
393,10271289,0.688934,0.122732,-0.258152,-20.405,-18.585,-26.635
394,10271386,0.646112,0.141764,-0.285724,-21.0,-21.875,-28.1225
395,10271483,0.603046,0.16909200000000002,-0.301706,-17.43,-20.125,-27.3175
396,10271580,0.6037779999999999,0.164212,-0.30548800000000004,-13.02,-17.5525,-26.3725
397,10271676,0.6186619999999999,0.165798,-0.284016,-7.175,-13.2475,-23.5375
398,10271773,0.6563601,0.150792,-0.26900999999999997,-0.385,-6.7375,-21.6475
399,10271870,0.6408659999999999,0.178242,-0.246196,7.49,0.035,-19.18
400,10271967,0.637206,0.17616800000000002,-0.23777800000000002,11.025,-0.175,-20.5975
401,10272063,0.6642899999999999,0.175924,-0.21813600000000002,15.5225,-4.9525,-22.54
402,10272160,0.7065020000000001,0.17202,-0.19739600000000002,21.5775,-7.0875,-22.96
403,10272257,0.75335,0.14188599999999998,-0.181292,23.8875,-5.355,-21.8575
404,10272353,0.759328,0.14383800000000002,-0.174826,23.9225,-0.21,-17.71
405,10272450,0.7612800999999999,0.141276,-0.167994,26.8625,7.315,-16.5725
406,10272547,0.7666480999999999,0.107116,-0.12761199999999998,32.2,15.12,-14.9275
407,10272644,0.77531,0.074786,-0.069906,35.3675,25.27,-10.5875
408,10272740,0.7661600000000001,0.05612,-0.033062,37.485,40.18,-4.865
409,10272837,0.7754321,0.059048,-0.00976,39.55,53.6725,-2.3625
410,10272934,0.8459479999999999,0.059658,-0.017446,36.47,59.3075,-4.8825
411,10273031,0.9142680000000001,0.060024,-0.048434,32.445,56.07,-6.1075
412,10273127,0.987224,0.108946,-0.07710399999999999,35.595,48.65,-6.4575
413,10273224,1.143872,0.132736,-0.082594,44.2225,38.36,-12.2675
414,10273321,1.3054,0.130662,-0.061732,50.5225,25.13,-15.3825
415,10273417,1.3766479999999999,0.125538,-0.015738,49.9625,8.645,-12.2325
416,10273514,1.3851879999999999,0.07698201,0.0305,49.105,-7.7525,-12.8275
417,10273611,1.349076,0.030744,0.07515201,51.205,-21.9975,-17.0275
418,10273708,1.254648,-0.009516001,0.07686,52.885,-31.4825,-16.3625
419,10273804,1.195234,-0.060146000000000005,0.042944,48.125,-33.565,-14.455
420,10273901,1.157902,-0.08857201,0.013175999999999998,38.2025,-23.9225,-13.125
421,10273998,1.137894,-0.10394400000000001,0.00976,27.5975,-6.125,-10.4475
422,10274095,1.1241079999999999,-0.09577000000000001,0.029889999999999996,23.59,12.705,-3.5525
423,10274191,1.120814,-0.035136,0.014152000000000001,22.68,21.525,5.075
424,10274288,1.21756,0.08784,-0.105774,12.8975,11.515,7.42
425,10274385,1.401658,0.070882,-0.288286,-6.615,-21.595,-1.2075
426,10274481,1.36579,0.007198,-0.46030600000000005,-11.2175,-55.755,-7.2275
427,10274578,1.063108,0.03538,-0.627812,8.75,-76.3175,-7.5075
428,10274675,0.9142680000000001,-0.082228,-0.605974,23.94,-83.335,-17.01
429,10274772,0.918782,-0.24912399999999998,-0.8271601000000001,6.9825,-54.67,-22.47
430,10274868,1.0110139999999999,-0.321714,-0.9867360999999999,-29.47,-17.7625,-36.0675
431,10274965,0.9941780000000001,-0.42553599999999997,-0.760426,-35.6475,18.5675,-52.2725
432,10275062,0.8610761,-0.4392,-0.521306,-29.505,50.8375,-56.595
433,10275159,0.6423300999999999,-0.23155599999999998,-0.46323400000000003,-40.145,48.4925,-52.2025
434,10275255,0.6872261,-0.066856,-0.432978,-44.2225,20.0025,-51.1
435,10275352,0.868274,0.030744,-0.54595,-38.465,7.3675,-45.1325
436,10275449,1.11691,0.179096,-0.63318,-28.2275,7.735,-20.825
437,10275545,1.294298,0.261812,-0.6280560000000001,-27.2475,17.22,-3.92
438,10275642,1.36945,0.305732,-0.419314,-27.335,26.3725,-2.5025
439,10275739,1.41886,0.312686,-0.225212,-27.3175,30.52,0.7175
440,10275836,1.300886,0.24802600000000002,-0.13054000000000002,-22.2775,22.0675,10.8675
441,10275932,1.099098,0.11541199999999999,-0.089426,-5.2325,-9.275,14.91
442,10276029,0.9817341,0.00549,-0.129198,12.4425,-41.055,11.515
443,10276126,0.8479,-0.0244,-0.241438,16.3625,-52.4125,14.9625
444,10276223,0.767624,-0.027327999999999998,-0.28633400000000003,18.865,-43.4875,17.4125
445,10276319,0.7105279999999999,0.0017079999999999999,-0.269498,16.695,-23.5375,19.88
446,10276416,0.701256,0.021228,-0.225944,9.7475,-6.37,18.0775
447,10276513,0.7004020000000001,0.018178,-0.20496,6.23,0.595,13.8775
448,10276609,0.695156,0.0,-0.19580999999999998,7.0525,-4.025,12.3025
449,10276706,0.66246,-0.053924,-0.22716399999999998,6.3,-14.7,15.925
450,10276803,0.6411100000000001,-0.077714,-0.24156,3.465,-26.4775,20.65
451,10276900,0.64782,-0.153598,-0.266326,-2.2925,-30.31,16.9925
452,10276996,0.6439159999999999,-0.163358,-0.26303200000000004,-8.435,-28.315,15.75
453,10277093,0.64965,-0.191296,-0.2196,-14.0,-23.45,12.845
454,10277190,0.6645340000000001,-0.208132,-0.173728,-23.9575,-15.225,9.8175
455,10277286,0.669902,-0.18056,-0.169458,-36.435,-8.1025,11.0075
456,10277383,0.687348,-0.11529,-0.160064,-36.89,-5.04,10.71
457,10277480,0.7288279999999999,-0.068076,-0.12078,-29.505,-2.6425,8.12
458,10277577,0.76982,-0.031964,-0.09613601,-25.655,3.0275,4.97
459,10277673,0.8117880000000001,-0.004758,-0.079666,-25.41,10.3075,-1.0325
460,10277770,0.85156,0.02135,-0.055998,-28.49,17.395,-7.6475
461,10277867,0.8546101,0.038674,-0.04453,-33.32,23.7125,-11.5675
462,10277963,0.8398479999999999,0.050263999999999996,-0.041724000000000004,-36.1375,28.3325,-10.8325
463,10278060,0.8062981,0.040626,-0.022813999999999997,-34.335,32.165,-7.0175
464,10278157,0.8015399999999999,0.032574,-0.008784,-34.615,36.0325,-6.265
465,10278254,0.8479,-0.010004,-0.012688,-34.7025,40.0575,-6.405
466,10278350,0.93391,-0.018056,-0.034648000000000005,-32.9175,41.86,-8.0675
467,10278447,1.047736,-0.022082,-0.095282,-31.465,34.965,-14.245
468,10278544,1.206336,-0.0017079999999999999,-0.122244,-28.9975,14.21,-19.215
469,10278641,1.326994,0.005734,-0.130418,-30.0125,-13.3875,-22.89
470,10278737,1.4842520000000001,0.017934000000000002,-0.045506,-31.4475,-37.905,-19.32
471,10278834,1.520608,0.04697001,0.007686,-36.225,-35.455,-4.025
472,10278931,1.2913700000000001,0.07893401,-0.049288,-37.59,-11.9175,11.27
473,10279027,1.225978,0.136274,-0.014396,-27.5275,-2.765,13.65
474,10279124,1.223294,0.191296,0.02196,-19.845,1.4875,12.915
475,10279221,1.214632,0.205326,0.012322,-16.695,8.9425,11.305
476,10279318,1.254404,0.18556199999999998,-0.048312,-5.8275,11.515,8.8725
477,10279414,1.3674979999999999,0.125172,-0.129198,13.6325,-2.7825,7.3325
478,10279511,1.482666,0.08344800000000001,-0.125782,33.5125,-37.345,8.3825
479,10279608,1.516338,0.06490399999999999,-0.077958,40.3025,-72.8,13.6325
480,10279705,1.3611540000000002,0.028669999999999998,-0.149572,30.94,-86.45,19.4775
481,10279801,1.200236,-0.023790000000000002,-0.34831,20.37,-89.0575,23.625
482,10279898,1.103124,0.009028000999999999,-0.6039,23.135,-93.08249,31.745
483,10279995,0.9900300999999999,-0.011590000000000001,-0.85583,30.7125,-84.8225,33.7225
484,10280092,0.817766,-0.014518000000000001,-0.92232,25.9175,-58.0475,33.1975
485,10280188,0.741638,0.032818,-0.7204100999999999,16.87,-7.2625,38.78
486,10280285,0.6769781,-0.004636001,-0.48165600000000003,12.7575,48.265,43.54
487,10280382,0.563884,-0.063196,-0.42443800000000004,11.2525,65.94,44.1
488,10280478,0.5489999999999999,-0.047580000000000004,-0.47909399999999996,-2.66,35.4375,32.62
489,10280575,0.892308,-0.023058000000000002,-0.528016,-16.695,-4.305,1.2425
490,10280672,1.059082,0.060146000000000005,-0.616466,-32.0075,-16.3975,-7.4025
491,10280769,1.059082,0.05172801,-0.5694961,-25.34,-12.3375,1.68
492,10280865,1.100684,-0.016592,-0.393938,-1.295,-4.445,9.9925
493,10280962,1.178276,-0.05587601,-0.286578,1.7325,2.135,18.83
494,10281059,1.217316,-0.10797000000000001,-0.280966,-13.4225,0.2275,19.6875
495,10281155,1.1984059999999999,-0.12358599999999999,-0.24436599999999997,-10.9375,-7.91,-0.77
496,10281252,1.072502,-0.082838,-0.216916,-5.775,-22.365,-22.54
497,10281349,0.877424,-0.001342,-0.275964,-10.605,-38.8675,-18.83
498,10281446,0.757864,0.021716,-0.315004,-5.495,-44.2225,-18.725
499,10281542,0.7204100999999999,0.045627999999999995,-0.349164,-7.42,-38.395,-24.3075
500,10281639,0.702354,0.08052000000000001,-0.370758,-14.7,-24.1675,-28.3675
501,10281736,0.689056,0.11541199999999999,-0.32818,-12.11,-10.675,-29.995
502,10281833,0.67161,0.143716,-0.27718400000000004,-7.105,-3.22,-32.7075
503,10281929,0.641354,0.118218,-0.264008,-7.6825,-4.5675,-36.645
504,10282026,0.60024,0.132248,-0.280966,-9.4675,-9.94,-32.7425
505,10282123,0.6021920000000001,0.110776,-0.287188,-6.9825,-11.9,-32.8125
506,10282219,0.612196,0.114924,-0.274256,-2.9925,-10.57,-29.82
507,10282316,0.631228,0.107848,-0.26596,0.9275,-6.7725,-24.5875
508,10282413,0.694546,0.037454,-0.236436,5.215,-3.22,-21.315
509,10282510,0.745908,0.004636001,-0.20642399999999997,1.4875,-2.1,-15.9425
510,10282606,0.775188,0.047092,-0.20483800000000002,-5.3375,1.435,-11.9
511,10282703,0.829966,0.058803999999999995,-0.192272,-3.395,5.53,-14.07
512,10282800,0.8605879999999999,0.06819800000000001,-0.176046,3.3425,6.37,-9.0825
513,10282896,0.86864,0.10943399999999999,-0.116876,8.6625,4.795,-3.2725
514,10282993,0.8591241,0.12749000000000002,-0.08405800000000001,4.3925,4.9875,-3.3075
515,10283090,0.8518040000000001,0.126392,-0.067832,-1.5225,7.805,-3.78
516,10283187,0.83936,0.106628,-0.067222,1.12,15.575,-0.875
517,10283283,0.8245979999999999,0.080154,-0.06283,8.645,24.9375,1.855
518,10283380,0.8141060999999999,0.056974000000000004,-0.058316,17.395,31.9375,4.3575
519,10283477,0.830332,0.056608000000000006,-0.041236,27.895,35.8925,5.88
520,10283574,0.8848659999999999,0.08466801,-0.019886,36.4525,39.375,5.0225
521,10283670,0.990274,0.144326,-0.02501,36.89,39.48,1.645
522,10283767,1.15351,0.188856,-0.050996,33.7575,34.02,-3.9375
523,10283864,1.282708,0.226188,-0.07259,34.2825,22.6275,-7.4725
524,10283961,1.351394,0.206058,-0.027572000000000003,39.9175,6.125,-6.2475
525,10284057,1.307108,0.124196,0.004636001,40.8975,-6.4575,-6.2825
526,10284154,1.24379,0.043432,-0.013297999999999999,37.73,-17.5525,-8.8025
527,10284251,1.25965,-0.00671,-0.021838,38.36,-23.695,-11.515
528,10284347,1.2517200000000002,-0.04087,-0.048312,32.165,-19.74,-13.3525
529,10284444,1.208288,-0.027083999999999997,-0.05587601,20.1075,-14.28,-11.0425
530,10284541,1.1895,-0.03477,-0.012931999999999999,19.18,-3.675,-6.3
531,10284638,1.17547,-0.031110000000000002,0.047214,23.4675,10.7625,3.535
532,10284734,1.131916,-0.014396,0.057096,21.7,22.61,13.8425
533,10284831,1.076284,0.07137001,-0.00671,15.33,24.0975,17.22
534,10284928,1.1570479999999999,0.171166,-0.138836,8.5575,5.6175,7.6825
535,10285025,1.3055219999999998,0.09638,-0.24631799999999998,10.4825,-26.285,-4.5675
536,10285121,1.1346,0.05124001,-0.44725200000000004,26.1625,-47.7925,-2.66
537,10285218,0.885476,0.05929201,-0.6007279999999999,36.995,-70.3675,-2.0125
538,10285315,0.86864,0.016958,-0.7951961,31.1675,-84.175,-5.285
539,10285411,0.9900300999999999,-0.064294,-0.862296,22.8375,-65.1175,-13.755
540,10285508,1.003694,-0.322934,-0.781532,7.2275,-18.655,-25.97
541,10285605,0.9362280000000001,-0.487878,-0.6289100000000001,-10.1325,23.2575,-31.465
542,10285702,0.8726661,-0.458476,-0.563884,-24.8675,33.39,-37.9925
543,10285798,0.8458261,-0.266204,-0.50874,-20.965,18.4625,-41.1075
544,10285895,0.874252,-0.15945399999999998,-0.521184,-14.14,5.3025,-38.0975
545,10285992,1.06445,-0.066734,-0.5897479999999999,-9.415,6.7025,-28.56
546,10286089,1.209264,0.15006,-0.5383861,-5.11,20.23,-18.3225
547,10286185,1.2841719999999999,0.296704,-0.414434,-7.105,31.99,-16.765
548,10286282,1.32736,0.35221399999999997,-0.26169000000000003,-6.9825,37.17,-12.425
549,10286379,1.2877100000000001,0.349042,-0.15396400000000002,-7.9625,33.425,-1.82
550,10286476,1.100074,0.24058400000000002,-0.131394,-2.2225,18.4275,10.4825
551,10286572,0.9833200000000001,0.079544,-0.09735601,22.2075,-3.08,13.615
552,10286669,0.8885261000000001,-0.007686,-0.123098,45.0975,-14.8575,11.2
553,10286766,0.7986121,-0.040504000000000005,-0.196054,48.685,-18.1825,14.1575
554,10286863,0.715286,-0.034648000000000005,-0.222284,45.2025,-18.8125,18.2525
555,10286959,0.690886,-0.04392,-0.222162,37.0125,-14.07,17.0275
556,10287056,0.7095520000000001,-0.043798000000000004,-0.219966,27.58,-5.495,14.3675
557,10287153,0.700646,-0.07015,-0.210206,20.8775,-0.98,10.4825
558,10287249,0.6886899999999999,-0.102114,-0.196176,16.87,-3.57,4.41
559,10287346,0.7015,-0.163358,-0.19556600000000002,10.6575,-9.6075,-0.735
560,10287443,0.675758,-0.206668,-0.188612,2.59,-15.54,1.4525
561,10287540,0.6686821,-0.256444,-0.196176,-9.765,-21.14,2.8
562,10287636,0.655628,-0.321226,-0.18470799999999998,-17.92,-22.085,3.08
563,10287733,0.6231760999999999,-0.300608,-0.151402,-20.3875,-19.04,7.875
564,10287830,0.6141479999999999,-0.27023,-0.11712,-26.39,-14.35,9.9925
565,10287927,0.631838,-0.23826599999999998,-0.107726,-37.45,-8.785,11.1125
566,10288023,0.6646561,-0.162748,-0.10723800000000001,-45.3775,-2.415,15.785
567,10288120,0.705892,-0.07490801,-0.07686,-44.485,5.1625,17.15
568,10288217,0.7439560000000001,-0.014762,-0.05063,-43.9425,12.39,12.0575
569,10288313,0.7638421,0.046726,-0.022813999999999997,-45.5,18.97,5.9325
570,10288410,0.794586,0.08466801,0.006954000000000001,-48.1425,25.1825,-0.28
571,10288507,0.8337481,0.081252,0.008174001,-52.0625,30.31,-2.6775
572,10288604,0.8782780000000001,0.060267999999999995,-0.00793,-53.06,33.2325,-0.4725
573,10288700,0.9158540999999999,0.041358,-0.04331,-52.1675,30.695,3.85
574,10288797,0.9589200999999999,-0.004514,-0.06112201,-47.39,21.3675,4.585
575,10288894,1.0310219999999999,-0.04941,-0.08357,-45.6225,6.02,1.1025
576,10288991,1.162172,-0.02562,-0.101382,-49.595,-15.435,-1.4525
577,10289087,1.2622120000000001,0.029036000000000003,-0.134688,-47.6175,-30.3975,-6.9125
578,10289184,1.392142,0.101382,-0.115656,-34.4575,-34.93,-13.3875
579,10289281,1.441064,0.188124,-0.045262000000000004,-20.4575,-26.9675,-7.7175
580,10289378,1.262822,0.203496,-0.06380599999999999,-18.41,-9.3275,6.8425
581,10289474,1.2147540000000001,0.21374400000000002,0.0017079999999999999,-12.2675,-2.59,11.34
582,10289571,1.20658,0.231312,0.041724000000000004,-5.67,5.4425,9.94
583,10289668,1.18523,0.20190999999999998,0.032574,-1.0325,16.1,7.455
584,10289765,1.154852,0.146156,-0.0051240009999999996,11.34,17.6575,1.855
585,10289861,1.1916959999999999,0.062464,-0.0549,26.0225,0.315,-6.65
586,10289958,1.349564,-0.017446,-0.023424,33.1275,-38.115,-8.365
587,10290055,1.483398,-0.081984,0.01708,30.03,-74.97,0.7875
588,10290152,1.6084479999999999,-0.140178,-0.024156,22.295,-92.83751,9.9575
589,10290248,1.409832,-0.14383800000000002,-0.296704,13.3,-97.14251,11.3225
590,10290345,1.098122,-0.095648,-0.6141479999999999,0.56,-114.9575,14.245
591,10290442,0.928542,0.012078,-0.9831981,2.625,-130.935,26.04
592,10290538,0.78141,0.028669999999999998,-1.158634,19.53,-95.83,29.7675
593,10290635,0.735904,0.036722000000000005,-0.7922680000000001,28.035,-12.3025,40.3375
594,10290732,0.745908,0.057584,-0.45725600000000005,15.4875,66.955,48.8075
595,10290829,0.6422081000000001,-0.018422,-0.475922,-4.3225,88.34000999999999,46.0775
596,10290925,0.630984,-0.026351999999999997,-0.490684,-11.445,39.095,33.6875
597,10291022,0.9295180000000001,-0.064538,-0.543144,-25.9175,-21.7875,21.07
598,10291119,1.123742,-0.122,-0.661728,-37.345,-34.8425,4.55
599,10291216,1.134234,-0.19739600000000002,-0.6781981,-26.95,-16.7125,4.48
600,10291312,1.283196,-0.31402800000000003,-0.5063,-4.095,1.7325,11.62
601,10291409,1.324188,-0.359168,-0.36844,1.5225,18.165,21.77
602,10291506,1.282952,-0.380762,-0.245098,-8.5225,16.3975,11.8475
603,10291602,1.214632,-0.271328,-0.149084,-26.845,-4.725,-10.2375
604,10291699,1.021872,-0.045262000000000004,-0.26352,-57.9775,-30.765,-14.3675
605,10291796,0.8823040000000001,0.056852,-0.411384,-61.6175,-48.65,-16.0125
606,10291893,0.8119101,0.095282,-0.435662,-40.6525,-50.5575,-18.515
607,10291989,0.759328,0.11712,-0.414922,-28.5075,-31.1325,-14.105
608,10292086,0.724924,0.149206,-0.35782600000000003,-26.1625,-4.9175,-13.1425
609,10292183,0.680638,0.1769,-0.31171,-25.935,6.65,-15.3125
610,10292280,0.6481859999999999,0.186416,-0.279746,-22.5925,2.3625,-17.6225
611,10292376,0.605364,0.178852,-0.290848,-16.5025,-3.99,-17.675
612,10292473,0.53863,0.198006,-0.28914,-7.6475,-7.0875,-17.395
613,10292570,0.528016,0.20264200000000002,-0.290116,-2.6425,-6.965,-21.0175
614,10292667,0.548024,0.20727800000000002,-0.283528,-0.2975,-5.0575,-25.2
615,10292763,0.580842,0.18666,-0.268522,2.31,-3.6575,-22.19
616,10292860,0.618784,0.17397200000000002,-0.24082800000000001,9.3625,0.14,-17.535
617,10292957,0.69296,0.153842,-0.233996,14.2975,4.48,-21.105
618,10293054,0.7612800999999999,0.08845001,-0.21057199999999998,20.195,6.0725,-23.1
619,10293150,0.795928,0.066734,-0.18141400000000002,26.635,5.215,-19.0225
620,10293247,0.8314301,0.042212,-0.12029200000000001,33.0225,4.4975,-15.4
621,10293344,0.88633,0.00366,-0.087474,32.025,7.5775,-17.2025
622,10293440,0.9059721,-0.03538,-0.07588400000000001,27.895,11.3925,-17.3775
623,10293537,0.8580260000000001,0.005856,-0.05770599999999999,30.0125,11.97,-14.07
624,10293634,0.839116,0.015493999999999999,-0.044774,36.5225,11.41,-13.7025
625,10293731,0.821792,0.016592,-0.039528,41.9825,13.16,-10.605
626,10293827,0.837042,0.02928,-0.06075601,42.595,16.8175,-8.0675
627,10293924,0.9001161,0.050752,-0.097966,40.8275,20.4575,-10.2025
628,10294021,0.9651421,0.09650201,-0.136518,41.755,21.84,-11.0775
629,10294118,1.053104,0.132492,-0.160918,47.81,17.9725,-10.745
630,10294214,1.15473,0.132004,-0.142008,51.7475,10.185,-11.0075
631,10294311,1.2275639999999999,0.106262,-0.114192,50.2075,5.5125,-12.5825
632,10294408,1.242692,0.069784,-0.07381001,51.03,5.215,-14.2975
633,10294505,1.229272,0.01342,-0.041236,53.655,3.395,-15.9425
634,10294601,1.223416,-0.04867801,-0.017324000000000003,54.8625,-1.9775,-16.4325
635,10294698,1.20841,-0.10540799999999999,-0.00305,50.19,-5.7925,-17.7625
636,10294795,1.1977959999999999,-0.121878,0.009394,38.605,-5.1275,-18.97
637,10294892,1.197918,-0.09625801,-0.018788,28.28,1.6275,-15.89
638,10294988,1.20292,-0.050752,-0.037454,26.25,5.8625,-7.1575
639,10295085,1.2557459999999998,-0.041602,-0.109556,20.055,-1.4525,0.8225
640,10295182,1.387506,-0.02745,-0.258396,0.665,-27.2825,1.435
641,10295279,1.480348,-0.09552601,-0.435418,-6.8075,-52.6925,-8.6975
642,10295375,1.331264,-0.10004,-0.646478,4.3575,-62.5625,-15.05
643,10295472,1.193526,-0.130662,-0.74725,1.715,-75.81,-17.0275
644,10295569,1.082506,-0.17214200000000002,-0.711016,-7.0525,-60.8475,-28.385
645,10295665,0.936472,-0.268522,-0.664412,-21.385,-14.0525,-40.46
646,10295762,0.77836,-0.34892,-0.58682,-30.4675,25.7425,-41.1425
647,10295859,0.7062579999999999,-0.29219,-0.53863,-32.34,39.445,-36.1375
648,10295956,0.671244,-0.14993800000000002,-0.49849209999999994,-30.0125,32.83,-31.325
649,10296052,0.7482261,-0.035624,-0.5231359999999999,-29.33,18.83,-25.7075
650,10296149,1.000278,0.09223200000000001,-0.560834,-22.6275,9.2575,-12.915
651,10296246,1.187914,0.180194,-0.6010939999999999,-16.6075,13.6675,-4.655
652,10296343,1.2622120000000001,0.24656199999999998,-0.51362,-19.32,15.1725,-8.4175
653,10296439,1.344074,0.25046599999999997,-0.34782199999999996,-21.1575,14.49,-12.915
654,10296536,1.3529799999999998,0.199348,-0.24827,-16.975,15.9775,-7.6475
655,10296633,1.173762,0.155428,-0.20410599999999998,-5.53,3.815,2.5375
656,10296730,1.0309,0.027572000000000003,-0.211792,5.4775,-22.995,1.995
657,10296826,0.912926,0.0,-0.271084,16.0825,-40.04,1.9425
658,10296923,0.8239880999999999,-0.006344,-0.314394,24.325,-38.535,7.0525
659,10297020,0.757376,-0.011224,-0.309514,25.515,-26.7225,8.995
660,10297117,0.7116260999999999,-0.022082,-0.2806,19.145,-13.1775,10.815
661,10297213,0.677832,-0.035502,-0.246928,14.7,-3.0275,12.915
662,10297310,0.6586781,-0.057218,-0.230702,14.595,-1.1025,14.07
663,10297407,0.6373281,-0.05941401,-0.2318,16.0825,-6.685,16.1175
664,10297503,0.621468,-0.09540401,-0.22996999999999998,16.2925,-15.33,15.82
665,10297600,0.60512,-0.14005599999999999,-0.240218,10.885,-20.4225,14.8925
666,10297697,0.600484,-0.162992,-0.235094,4.165,-20.2825,14.9975
667,10297794,0.6097560000000001,-0.188246,-0.21032800000000001,-3.185,-14.9275,12.7575
668,10297890,0.620004,-0.217648,-0.207156,-15.7675,-9.0125,10.57
669,10297987,0.6396460999999999,-0.17921800000000002,-0.17873,-23.765,-5.495,10.7625
670,10298084,0.6649,-0.129686,-0.149572,-27.125,-1.68,11.3925
671,10298181,0.6972301,-0.102724,-0.13602999999999998,-31.395,2.905,8.925
672,10298277,0.7390760000000001,-0.082716,-0.122244,-34.6325,6.23,6.5625
673,10298374,0.786778,-0.053314,-0.09186601,-32.34,9.6425,5.04
674,10298471,0.8176439999999999,-0.028426,-0.06563601,-29.4525,13.9475,-0.28
675,10298568,0.8607100000000001,-0.024644,-0.043188,-29.6975,16.555,-9.555
676,10298664,0.8382620000000001,-0.005368,-0.029646,-28.35,20.1775,-9.625
677,10298761,0.779946,-0.00244,-0.01586,-24.9725,25.0425,-5.005
678,10298858,0.734928,0.006344,-0.002318,-23.1525,30.8875,-5.6
679,10298955,0.7451760000000001,-0.010126000000000001,0.001098,-24.045,38.15,-9.8875
680,10299051,0.781044,0.014884,-0.017812,-25.48,44.7475,-12.0225
681,10299148,0.8428979999999999,0.0051240009999999996,-0.038064,-23.2575,45.22,-16.0825
682,10299245,0.979294,-0.03416,-0.081862,-23.7475,34.23,-21.6825
683,10299342,1.1533879999999999,-0.07307801,-0.138958,-23.905,9.7825,-18.9525
684,10299438,1.319064,-0.0366,-0.15420799999999998,-23.94,-24.5525,-13.265
685,10299535,1.473394,-0.01891,-0.10528599999999999,-22.7675,-51.38,-10.71
686,10299632,1.475956,0.021594,-0.05795,-20.2825,-50.3825,-0.665
687,10299729,1.2579420000000001,0.052216,-0.06539201,-16.6075,-29.6625,11.34
688,10299825,1.202066,0.091134,-0.02684,-7.9275,-14.63,13.195
689,10299922,1.186328,0.139202,-0.022082,-1.645,0.5425,14.6475
690,10300019,1.1594879999999999,0.153598,-0.00793,1.225,12.1275,13.685
691,10300116,1.172298,0.130906,0.0032939999999999996,2.5025,15.505,10.8325
692,10300212,1.28405,0.064538,-0.07747001,3.185,10.5875,7.3325
693,10300309,1.44631,-0.009882,-0.203252,10.395,-7.28,5.88
694,10300406,1.581974,-0.04404201,-0.255102,27.615,-38.9725,7.595
695,10300503,1.640168,-0.051362,-0.183,41.6325,-65.52,9.7125
696,10300599,1.439966,-0.024522,-0.230946,38.3075,-63.7175,12.8975
697,10300696,1.233176,-0.025986000000000002,-0.407846,23.8,-61.3725,17.0275
698,10300793,1.122034,-0.000122,-0.64172,18.4975,-70.2275,23.7825
699,10300890,0.953308,0.036722000000000005,-0.8357,22.1025,-69.73751,27.9825
700,10300986,0.757498,0.024766,-0.850706,19.1275,-51.8,32.9175
701,10301083,0.6802720999999999,-0.074786,-0.725168,9.1525,-8.435,41.9125
702,10301180,0.669658,-0.134932,-0.518378,-1.225,38.29,49.0525
703,10301276,0.715896,-0.133956,-0.40992,-11.13,52.0975,39.9525
704,10301373,0.849852,-0.05929201,-0.49837,-28.4375,27.4225,25.0775
705,10301470,1.090558,-0.047824,-0.5702281,-43.19,-9.38,7.3675
706,10301567,1.115202,-0.034038,-0.5565640000000001,-42.42,-25.2175,0.6825
707,10301663,1.072258,-0.08003201,-0.51545,-30.3625,-18.4625,9.835
708,10301760,1.138382,-0.12395199999999999,-0.421022,-16.8175,-6.9125,19.2675
709,10301857,1.205726,-0.16348,-0.332694,-17.815,0.9975,17.3775
710,10301954,1.144116,-0.087962,-0.288164,-26.11,0.1925,3.9725
711,10302050,1.037854,-0.048922,-0.295606,-29.6625,-18.0075,-9.485
712,10302147,0.8903561,0.051118000000000004,-0.325862,-23.3975,-37.8,-8.47
713,10302244,0.8086161000000001,0.088328,-0.360632,-16.45,-44.3625,-12.1625
714,10302341,0.7543261,0.10723800000000001,-0.40016,-16.7475,-40.425,-16.8
715,10302437,0.692106,0.13151600000000002,-0.399916,-13.265,-30.9575,-18.3225
716,10302534,0.622688,0.140178,-0.371246,-8.505,-21.665,-20.44
717,10302631,0.586942,0.12334200000000001,-0.35672800000000005,-9.94,-16.5375,-24.7625
718,10302728,0.56303,0.12163399999999999,-0.35233600000000004,-11.935,-14.4375,-27.16
719,10302824,0.55693,0.138958,-0.34831,-10.64,-13.51,-27.8775
720,10302921,0.517768,0.177144,-0.340014,-5.95,-12.81,-25.5675
721,10303018,0.53863,0.170434,-0.316834,0.56,-13.7725,-24.9725
722,10303115,0.564982,0.12688,-0.29792399999999997,6.3525,-13.02,-23.0825
723,10303211,0.555954,0.144082,-0.285602,11.0425,-8.96,-17.2725
724,10303308,0.6125619999999999,0.10650599999999999,-0.288042,11.27,-6.7375,-18.1825
725,10303405,0.713334,0.077592,-0.263642,12.95,-5.705,-20.23
726,10303501,0.808372,0.05063,-0.252784,15.5925,-1.785,-19.355
727,10303598,0.8874280999999999,0.02684,-0.209718,20.335,3.815,-13.23
728,10303695,0.8995059999999999,0.01769,-0.14274,21.4375,9.9225,-5.32
729,10303792,0.8945040000000001,0.0061,-0.09674601,12.0925,12.6175,-0.595
730,10303888,0.889624,0.005978,-0.075762,1.645,13.5275,0.7175
731,10303985,0.8999940000000001,0.018056,-0.05563200000000001,1.7325,16.31,-1.89
732,10304082,0.8977980999999999,0.027572000000000003,-0.0427,7.9975,20.23,-4.3225
733,10304179,0.8869401,0.012688,-0.056852,11.7425,22.75,-1.4525
734,10304275,0.8877940000000001,0.02562,-0.05624199999999999,19.285,25.9175,1.715
735,10304372,0.9158540999999999,0.046726,-0.05648601,25.6725,28.735,1.26
736,10304469,0.9770981,0.09613601,-0.08857201,26.7225,26.9325,-0.14
737,10304566,1.0784799999999999,0.14457,-0.123708,30.625,19.915,-2.835
738,10304662,1.19804,0.167018,-0.136884,38.885,10.2375,-5.285
739,10304759,1.271606,0.135542,-0.13115,44.52,1.0325,-4.6375
740,10304856,1.264408,0.1037,-0.11504600000000001,45.2725,-6.4575,-4.27
741,10304950,1.2147540000000001,0.045994,-0.08564401,46.725,-11.8125,-7.8925
742,10305047,1.1598540000000002,-0.023180000000000003,-0.05368,52.01,-12.8275,-11.34
743,10305144,1.133868,-0.078202,-0.033916,53.41,-10.9725,-11.5325
744,10305241,1.1209360000000002,-0.095282,-0.053314,44.7825,-6.125,-10.5175
745,10305337,1.151802,-0.101504,-0.102724,35.9975,-0.8575,-7.7875
746,10305434,1.2189020000000002,-0.08357,-0.21606199999999998,30.7125,-3.3775,-0.525
747,10305531,1.38775,-0.100162,-0.298412,19.845,-23.1,3.0275
748,10305628,1.455338,-0.145424,-0.39113200000000004,11.655,-34.125,-3.3075
749,10305724,1.240374,-0.154574,-0.508984,11.7425,-29.4875,-16.415
750,10305821,1.1155680000000001,-0.10650599999999999,-0.619028,1.68,-44.17,-21.1225
751,10305918,1.150094,-0.158966,-0.7324881,-10.0625,-54.915,-32.5325
752,10306015,1.075064,-0.23082399999999997,-0.765062,-26.6,-40.7575,-39.4275
753,10306111,0.8777901,-0.264984,-0.66368,-39.8125,-5.74,-41.8425
754,10306208,0.754692,-0.30548800000000004,-0.551806,-45.605,27.02,-47.6875
755,10306305,0.6661201,-0.151646,-0.50142,-46.5325,37.5375,-44.1
756,10306401,0.709918,-0.042456,-0.5165481,-42.1225,29.61,-38.745
757,10306498,0.9242720999999999,0.080398,-0.547048,-28.5775,13.195,-22.645
758,10306595,1.107272,0.203252,-0.600362,-18.06,10.22,-2.1525
759,10306692,1.21024,0.260348,-0.538508,-17.395,17.5,-0.105
760,10306788,1.2505,0.28316199999999997,-0.43005,-25.5325,19.46,-2.2925
761,10306885,1.297348,0.258274,-0.341966,-23.905,16.8875,-0.385
762,10306982,1.19194,0.15189,-0.28914,-9.3625,5.215,6.23
763,10307078,1.03273,0.015128,-0.264008,4.3575,-18.13,4.445
764,10307175,0.9174399999999999,-0.066124,-0.323422,5.8975,-36.68,0.7525
765,10307272,0.8488761,-0.08954801,-0.37332,6.125,-35.63,3.0975
766,10307369,0.8076399999999999,-0.09613601,-0.360754,6.0375,-23.135,6.125
767,10307465,0.781166,-0.09125599999999999,-0.311832,-0.665,-11.655,10.0275
768,10307562,0.74603,-0.082716,-0.26608200000000004,-7.1925,-5.915,12.04
769,10307659,0.715164,-0.08357,-0.25363800000000003,-8.8025,-6.0725,13.6675
770,10307756,0.699792,-0.10418800000000002,-0.262178,-5.9675,-9.5725,15.995
771,10307852,0.664778,-0.129076,-0.287798,-2.905,-13.895,19.425
772,10307949,0.6350100000000001,-0.171532,-0.279014,-2.2575,-16.9575,22.19
773,10308046,0.614758,-0.181658,-0.25071,-8.47,-14.7175,22.505
774,10308142,0.6167100000000001,-0.19215,-0.24095,-21.0175,-6.825,19.2325
775,10308239,0.640744,-0.202032,-0.232776,-32.725,1.995,16.73
776,10308336,0.673196,-0.167872,-0.214964,-40.2675,7.91,18.0075
777,10308433,0.696132,-0.144326,-0.196176,-44.87,11.095,18.515
778,10308529,0.7168720000000001,-0.07869,-0.161406,-47.6,11.7775,17.045
779,10308626,0.74664,-0.057218,-0.146644,-49.2975,13.055,11.97
780,10308723,0.764208,-0.003172,-0.116388,-47.39,13.3525,7.3675
781,10308820,0.8049561,-0.00549,-0.08784,-44.66,12.7925,1.61
782,10308916,0.813862,0.022082,-0.05587601,-42.7525,13.895,-1.785
783,10309013,0.8163020999999999,0.025863999999999998,-0.027938,-42.1575,16.5375,-4.2
784,10309110,0.80276,0.044286,-0.020008,-44.205,21.98,-5.7925
785,10309206,0.7762859999999999,0.035258,-0.00549,-44.52,30.73,-5.9325
786,10309303,0.7626221,0.02135,-0.00305,-42.42,41.405,-2.59
787,10309400,0.756644,0.0064659999999999995,-0.011590000000000001,-41.265,50.89,-1.225
788,10309497,0.79361,-0.024888,-0.033184,-43.4,50.9425,-6.0725
789,10309593,0.8736421,-0.037942000000000004,-0.044164,-42.175,40.215,-9.17
790,10309690,0.9674601,-0.040504000000000005,-0.07393200000000001,-41.8075,21.6825,-10.115
791,10309787,1.156316,-0.030133999999999998,-0.10906800000000001,-39.4625,-4.1475,-11.8825
792,10309884,1.348222,0.017324000000000003,-0.091012,-31.325,-32.97,-14.1225
793,10309980,1.547448,0.07991000000000001,-0.04453,-25.4975,-51.6425,-12.1975
794,10310077,1.658102,0.08503401,-0.019642,-31.0275,-47.2325,-4.2525
795,10310174,1.4088559999999999,0.107116,-0.08417999999999999,-38.325,-26.5825,9.1875
796,10310270,1.224026,0.138348,-0.05563200000000001,-29.645,-17.7975,11.8475
797,10310367,1.13765,0.171166,-0.00671,-20.2125,-17.5175,8.435
798,10310464,1.1150799999999998,0.188246,0.020252000000000003,-16.695,-13.4925,5.5825
799,10310561,1.15046,0.168482,0.007320001,-11.76,-5.4775,1.9425
800,10310657,1.2439120000000001,0.11138599999999999,-0.07027201,-5.075,-1.855,-1.4875
801,10310754,1.382016,0.060512,-0.163724,7.4025,-11.795,-2.7825
802,10310851,1.5165819999999999,0.045262000000000004,-0.20264200000000002,20.9475,-33.6875,-1.9775
803,10310948,1.488156,0.052948,-0.24705,25.1475,-49.8925,-0.1575
804,10311044,1.293566,0.02928,-0.345016,18.935,-63.525,6.3175
805,10311141,1.151802,-0.013175999999999998,-0.5030060000000001,17.045,-80.0975,17.2375
806,10311238,1.057496,0.029158,-0.7539600000000001,24.85,-81.34000999999999,28.8575
807,10311335,0.9097540000000001,0.05368,-0.9818561,27.0025,-64.19,32.375
808,10311431,0.774578,0.066856,-0.9037761000000001,18.27,-30.4675,36.3125
809,10311528,0.684542,0.040382,-0.749568,5.7925,21.805,45.99
810,10311625,0.666242,-0.030256,-0.5927979999999999,3.78,50.1025,54.705
811,10311721,0.72285,-0.079666,-0.4594521,6.755,39.2525,52.745
812,10311818,0.8427761,-0.07332201,-0.532896,-19.3725,13.8425,34.2475
813,10311915,1.023336,-0.054412,-0.640134,-35.91,-10.045,10.8675
814,10312012,1.0346819999999999,-0.004392,-0.61183,-22.3825,-16.9225,8.0675
815,10312108,1.068598,-0.090158,-0.5246,-2.6075,-12.5825,14.4025
816,10312205,1.1293540000000002,-0.15274400000000002,-0.435906,6.5625,-5.1275,16.1175
817,10312302,1.206214,-0.179584,-0.34172199999999997,8.8025,1.33,-2.765
818,10312398,1.2256120000000001,-0.123098,-0.271816,0.3325,-3.4825,-18.27
819,10312495,1.053714,-0.034892,-0.28609,-7.1925,-17.0625,-16.625
820,10312592,0.8736421,0.02135,-0.292434,-2.6425,-35.315,-17.8675
821,10312689,0.791658,0.03721,-0.33184,-1.085,-44.205,-25.7075
822,10312785,0.7208981,0.09223200000000001,-0.37027,-2.1175,-37.205,-25.585
823,10312882,0.6985720999999999,0.10126,-0.350628,0.63,-23.4325,-28.6825
824,10312979,0.667706,0.104432,-0.318298,1.4175,-14.1575,-34.0375
825,10313076,0.624152,0.09638,-0.298412,2.975,-13.5625,-35.4375
826,10313172,0.5675439999999999,0.09869801,-0.294142,5.4775,-15.0675,-31.57
827,10313269,0.532042,0.127856,-0.29133600000000004,5.5125,-15.1725,-29.19
828,10313366,0.5602239999999999,0.124806,-0.28853,3.8675,-14.21,-29.1725
829,10313462,0.613538,0.09784401,-0.284748,4.13,-11.1125,-27.5275
830,10313559,0.6289100000000001,0.099186,-0.26291,8.82,-7.455,-21.875
831,10313656,0.611586,0.13054000000000002,-0.23521599999999998,14.6825,-3.7975,-15.4175
832,10313753,0.640744,0.158966,-0.214842,10.605,-1.1025,-14.735
833,10313849,0.7260220000000001,0.093696,-0.23887600000000003,7.4375,2.7475,-19.6175
834,10313946,0.7883640000000001,0.040748,-0.212036,22.645,5.635,-19.355
835,10314043,0.806908,0.026351999999999997,-0.164822,36.2075,4.655,-10.605
836,10314140,0.812154,0.02135,-0.111508,37.24,3.5175,-5.1975
837,10314236,0.8304541,0.010248,-0.070882,30.59,6.335,-7.175
838,10314333,0.8453381,-0.01037,-0.053436000000000004,20.7375,11.0775,-10.15
839,10314430,0.8488761,-0.024034,-0.06356201,14.5775,16.1,-11.13
840,10314527,0.8399700000000001,-0.005734,-0.069906,16.695,19.95,-10.01
841,10314623,0.85644,0.00793,-0.083936,22.645,22.7675,-9.765
842,10314720,0.8549761,0.038674,-0.101748,28.2275,23.87,-9.1
843,10314817,0.8801081000000001,0.07515201,-0.135298,28.98,22.295,-10.5875
844,10314913,0.9385460999999999,0.11614400000000001,-0.182756,27.65,21.735,-10.7975
845,10315010,1.013698,0.146522,-0.218502,27.545,23.1175,-9.695
846,10315107,1.0790899999999999,0.1281,-0.21276799999999998,29.68,25.6375,-8.715
847,10315204,1.115202,0.08064199,-0.168604,31.2725,25.585,-6.2125
848,10315300,1.148752,0.039162,-0.101138,32.3925,22.8025,-2.415
849,10315397,1.185474,-0.00305,-0.056852,32.725,20.0025,-1.9425
850,10315494,1.259772,-0.065514,-0.01769,33.635,17.255,-8.6625
851,10315591,1.335046,-0.083936,0.0034159999999999998,33.005,16.695,-17.9025
852,10315687,1.37494,-0.06832001,0.028669999999999998,29.3475,18.0075,-23.275
853,10315784,1.353712,-0.07234600000000001,0.08296,23.415,20.4575,-24.325
854,10315881,1.3474899999999999,-0.024278,0.09479401,13.93,24.255,-21.3675
855,10315978,1.380796,0.010614,0.03965,4.97,24.3075,-16.1175
856,10316074,1.493768,-0.000976,-0.08003201,-7.9275,5.845,-11.6375
857,10316171,1.5967360000000002,-0.061610000000000005,-0.19959200000000002,-14.5425,-31.57,-10.7275
858,10316268,1.490474,-0.07490801,-0.370148,-1.1375,-64.4,-11.06
859,10316365,1.233176,-0.04087,-0.5115460000000001,7.1225,-94.65751,-12.495
860,10316461,1.066402,-0.064294,-0.62464,5.5475,-101.99,-15.05
861,10316558,0.9392780000000001,-0.120048,-0.803736,-4.55,-59.92,-15.435
862,10316655,0.83021,-0.18751400000000001,-0.849242,-20.475,-5.74,-19.1625
863,10316751,0.80215,-0.20996199999999998,-0.5976779999999999,-20.1775,35.175,-25.2175
864,10316848,0.7579859999999999,-0.17202,-0.47153,-22.785,58.625,-30.975
865,10316945,0.6375721,-0.061610000000000005,-0.48092399999999996,-27.2475,55.895,-34.5275
866,10317042,0.6573359999999999,0.062586,-0.5115460000000001,-18.585,25.69,-30.87
867,10317138,0.9152440000000001,0.138226,-0.525088,-2.695,-0.4725,-14.6125
868,10317235,1.093608,0.149816,-0.53375,4.9875,1.365,-5.0225
869,10317332,1.1808379999999998,0.186172,-0.481778,-6.3525,9.03,-14.4725
870,10317429,1.223172,0.199226,-0.392962,-16.275,14.3675,-20.0375
871,10317525,1.253916,0.182024,-0.2806,-7.0875,17.57,-22.05
872,10317622,1.263554,0.129686,-0.20691199999999998,7.7525,12.8975,-21.7175
873,10317719,1.160952,0.08174001,-0.186538,17.7625,-6.2125,-15.82
874,10317815,1.01809,0.003172,-0.18788,23.6075,-33.145,-7.6825
875,10317912,0.9026780000000001,-0.051484,-0.20691199999999998,28.8225,-47.04,-3.7975
876,10318009,0.789706,-0.06746601,-0.257664,27.93,-42.735,2.1875
877,10318106,0.725534,-0.0854,-0.291092,25.0425,-31.115,9.765
878,10318202,0.720288,-0.08967,-0.291946,22.6275,-19.8275,16.625
879,10318299,0.7074779999999999,-0.08759601,-0.25498000000000004,20.685,-12.0225,21.8925
880,10318396,0.712236,-0.10187,-0.23680199999999998,16.4325,-9.0125,22.0325
881,10318493,0.6918621,-0.08296,-0.216916,9.835,-10.4125,18.97
882,10318589,0.674294,-0.11467999999999999,-0.24216999999999997,0.525,-12.9675,13.0375
883,10318686,0.662216,-0.109556,-0.255956,-4.7075,-15.4175,10.4475
884,10318783,0.6602640000000001,-0.08967,-0.233386,-3.08,-15.5575,9.45
885,10318879,0.6688041,-0.08235001,-0.19959200000000002,-5.1625,-12.25,6.44
886,10318976,0.689056,-0.077958,-0.184952,-12.04,-7.2625,3.7975
887,10319073,0.70699,-0.06832001,-0.166652,-15.6625,-3.1325,2.135
888,10319170,0.7374901,-0.06832001,-0.142496,-15.6275,-1.68,2.9575
889,10319266,0.7592061,-0.055998,-0.112972,-14.91,-0.42,4.7075
890,10319363,0.780922,-0.057218,-0.097966,-14.49,1.7675,0.945
891,10319460,0.7903161,-0.041846,-0.07393200000000001,-12.495,4.655,-5.845
892,10319557,0.785192,-0.041114,-0.041236,-11.0775,8.715,-9.555
893,10319653,0.752618,0.004514,-0.0305,-14.875,14.7875,-9.6775
894,10319750,0.7387100000000001,0.009028000999999999,-0.02562,-17.955,23.24,-13.685
895,10319847,0.723582,-0.015493999999999999,-0.026718000000000002,-18.2,33.95,-17.4825
896,10319943,0.7401741,-0.030987999999999998,-0.027694,-17.6925,42.4725,-15.715
897,10320040,0.793366,-0.05612,-0.06124401,-18.5675,44.6775,-13.9125
898,10320137,0.880352,-0.07625,-0.098576,-16.73,38.0975,-14.98
899,10320234,0.984906,-0.11102000000000001,-0.14335,-17.3075,22.0675,-15.3825
900,10320330,1.113494,-0.08869401,-0.163968,-19.95,0.9625,-13.9125
901,10320427,1.2383,-0.05648601,-0.170434,-22.645,-17.5875,-16.415
902,10320524,1.313696,0.028548,-0.117852,-23.8525,-27.02,-16.87
903,10320620,1.36884,0.077836,-0.05770599999999999,-24.185,-23.59,-13.825
904,10320717,1.26026,0.124806,-0.05063,-27.93,-10.2725,-1.3475
905,10320814,1.189134,0.10943399999999999,-0.013663999999999999,-27.58,-2.6075,6.1075
906,10320911,1.194502,0.127856,0.04148,-24.71,3.605,5.1275
907,10321007,1.1855959999999999,0.167506,0.013786000000000001,-28.385,12.0925,4.4975
908,10321104,1.16571,0.150426,0.002074,-24.1325,13.755,0.0175
909,10321201,1.1356979999999999,0.112728,0.010858,-9.065,6.0375,-6.0725
910,10321298,1.149362,0.067222,0.018422,8.1375,-9.8175,-13.3525
911,10321394,1.290394,-0.03172,0.037088,18.76,-32.7775,-12.2325
912,10321491,1.43533,-0.08869401,0.030866,17.2375,-52.535,1.6625
913,10321588,1.46949,-0.135298,-0.163602,1.96,-61.1275,14.1575
914,10321685,1.250622,-0.17543599999999998,-0.46311199999999997,-10.22,-71.3825,11.7425
915,10321781,1.083238,0.019764,-0.761158,-5.88,-105.2625,16.415
916,10321878,1.072746,0.11248399999999999,-1.096658,12.81,-114.275,28.735
917,10321975,0.9470860000000001,0.139812,-1.08031,38.7625,-67.48001,38.185
918,10322071,0.8006861,0.23155599999999998,-0.8084939999999999,35.5775,14.595,56.0525
919,10322168,0.7510321,0.176778,-0.6222,17.6225,71.12,59.745
920,10322265,0.6724640000000001,0.10797000000000001,-0.452376,26.5825,68.6,53.3925
921,10322362,0.570106,0.064294,-0.399794,26.04,28.1575,49.245
922,10322458,0.6222,-0.030133999999999998,-0.462624,2.5375,-15.19,31.2725
923,10322555,1.007842,-0.204716,-0.5404601,-1.365,-24.78,-4.0775
924,10322652,1.106784,-0.23460599999999998,-0.577914,9.1,-2.5025,-16.5375
925,10322749,1.076406,-0.254004,-0.46433199999999997,17.5525,13.0725,-13.58
926,10322845,1.09495,-0.24863600000000002,-0.342332,25.7075,27.37,-18.655
927,10322942,1.14985,-0.161406,-0.25864000000000004,20.265,29.9775,-27.4575
928,10323039,1.208532,-0.050263999999999996,-0.259494,-2.8875,14.5775,-31.3075
929,10323135,1.2611139999999998,0.06600201,-0.302438,-15.1375,-6.125,-26.46
930,10323232,1.152656,0.158722,-0.353434,-2.555,-18.7425,-15.19
931,10323329,0.9744141,0.15018199999999998,-0.364536,18.55,-25.9175,-12.355
932,10323426,0.8801081000000001,0.152256,-0.38808200000000004,28.175,-27.6325,-15.715
933,10323522,0.829356,0.169946,-0.418704,32.095,-18.9875,-18.2525
934,10323619,0.8025161,0.15738,-0.407114,37.66,-10.7275,-21.665
935,10323716,0.7515201,0.18995399999999998,-0.34892,43.575,-6.2475,-21.875
936,10323813,0.7291941,0.20727800000000002,-0.325984,44.205,-5.81,-26.1625
937,10323909,0.6958880000000001,0.23021399999999997,-0.316712,46.2875,-8.7325,-30.835
938,10324006,0.698328,0.22411399999999998,-0.312076,53.1475,-13.1075,-34.965
939,10324103,0.7076001000000001,0.194224,-0.30109600000000003,63.945,-15.2775,-35.945
940,10324199,0.70638,0.180194,-0.270108,74.3575,-13.58,-36.015
941,10324296,0.7260220000000001,0.102114,-0.244488,77.07,-11.9,-39.305
942,10324393,0.744688,0.045506,-0.220942,75.8975,-11.7075,-40.39
943,10324490,0.789462,-0.0305,-0.195322,77.595,-10.22,-39.34
944,10324586,0.825574,-0.09320801,-0.17128800000000002,81.375,-8.54,-35.8925
945,10324683,0.847046,-0.119804,-0.1403,81.025,-7.14,-27.44
946,10324780,0.83204,-0.07039400000000001,-0.11211800000000001,77.805,-5.635,-20.8775
947,10324876,0.8364321,-0.042578,-0.07832401,74.795,-4.62,-20.4225
948,10324973,0.8127641,-0.020008,-0.07515201,68.0925,-4.2525,-19.0575
949,10325070,0.784704,-0.017934000000000002,-0.082716,64.6625,-3.1675,-18.3225
950,10325167,0.77165,-0.03904,-0.082838,67.375,-0.7,-18.4975
951,10325263,0.7832399999999999,-0.063684,-0.086132,69.4575,3.115,-17.7275
952,10325360,0.8108121,-0.057339999999999995,-0.104798,69.87751,6.5975,-16.03
953,10325457,0.850584,-0.031354,-0.14579,69.8425,7.98,-16.1525
954,10325554,0.8906,0.008784,-0.185318,73.115,5.7925,-15.75
955,10325650,0.9561139999999999,0.04453,-0.21276799999999998,76.895,2.59,-14.49
956,10325747,1.030534,0.069052,-0.20776599999999998,78.995,3.2025,-12.4425
957,10325844,1.08275,0.08503401,-0.17324,81.18251,8.225,-10.1325
958,10325940,1.108614,0.047580000000000004,-0.129564,82.005,12.2325,-10.8675
959,10326037,1.127768,-0.054046000000000004,-0.083204,81.4275,8.155,-12.6875
960,10326134,1.124718,-0.09735601,-0.05977999999999999,79.2925,-2.345,-12.565
961,10326231,1.155828,-0.168848,-0.037576,80.325,-11.13,-17.2025
962,10326327,1.17608,-0.164822,-0.015616,82.6875,-9.87,-22.89
963,10326424,1.20231,-0.12749000000000002,-0.01464,74.725,-2.3975,-29.155
964,10326521,1.233176,-0.104066,-0.07808001,57.68,2.3625,-34.895
965,10326617,1.284904,-0.105896,-0.195078,48.09,-3.99,-33.67
966,10326714,1.402878,-0.182024,-0.313418,46.55,-23.695,-29.33
967,10326811,1.4879120000000001,-0.272548,-0.45286400000000004,45.7625,-42.7,-24.6925
968,10326908,1.439722,-0.351848,-0.613904,50.1025,-50.015,-26.6
969,10327004,1.224148,-0.367952,-0.6098779999999999,59.64,-54.6,-31.3775
970,10327101,1.059326,-0.335622,-0.5669341,61.6175,-43.05,-41.44
971,10327198,0.92781,-0.252296,-0.592554,48.1775,-13.02,-57.4175
972,10327294,0.76494,-0.18068199999999998,-0.6304960000000001,42.35,15.9775,-64.3825
973,10327391,0.702842,-0.059048,-0.5693739999999999,53.27,21.8925,-52.15
974,10327488,0.7549359999999999,0.065148,-0.5669341,53.9525,11.06,-40.74
975,10327585,0.9082899999999999,0.189588,-0.6944241,50.1375,-0.2975,-37.94
976,10327681,1.052006,0.246928,-0.707112,63.4025,1.715,-39.2
977,10327778,1.078236,0.244732,-0.5693739999999999,74.25251,11.375,-43.0325
978,10327875,1.049444,0.264862,-0.440542,69.59751,16.5725,-52.9375
979,10327971,1.0706719999999998,0.16775,-0.368318,69.93,12.1625,-63.63
980,10328068,1.1228879999999999,0.123464,-0.327326,83.79001,-0.8575,-58.0125
981,10328165,1.1715659999999999,0.05185,-0.309148,99.5925,-15.19,-48.685
982,10328261,1.100196,0.016958,-0.35221399999999997,107.4675,-25.795,-39.1475
983,10328358,1.0126,-0.000244,-0.382348,111.86,-31.0275,-32.165
984,10328455,0.95221,-0.024766,-0.37881,114.695,-27.23,-28.9275
985,10328552,0.9467200000000001,-0.06270801,-0.353068,118.2825,-18.3225,-27.125
986,10328648,0.8906,-0.055144000000000006,-0.304268,122.395,-10.3075,-24.815
987,10328745,0.8546101,-0.10638399999999999,-0.263154,121.065,-9.2575,-27.545
988,10328842,0.833382,-0.115534,-0.24705,117.4075,-9.6075,-30.205
989,10328938,0.798856,-0.089792,-0.24997800000000003,116.515,-8.365,-31.9725
990,10329035,0.7700640999999999,-0.07344400000000001,-0.244854,116.0775,-9.73,-36.645
991,10329132,0.738344,-0.074786,-0.2196,114.9925,-10.0275,-40.9675
992,10329229,0.715896,-0.10809200000000001,-0.207156,110.285,-6.7025,-43.3475
993,10329325,0.716384,-0.12529400000000002,-0.198128,107.45,-0.0175,-43.995
994,10329422,0.72102,-0.121024,-0.171044,106.33,5.5475,-43.7675
995,10329519,0.741394,-0.143228,-0.14078800000000002,103.565,9.415,-45.815
996,10329616,0.765184,-0.142374,-0.123098,99.05001,12.285,-47.0925
997,10329712,0.7766521,-0.16043,-0.10321199999999998,96.63501,13.4575,-46.0775
998,10329809,0.786656,-0.17397200000000002,-0.091134,94.6225,11.9525,-44.31
999,10329906,0.800564,-0.186782,-0.081984,93.345,9.9575,-43.4
1000,10330002,0.81618,-0.205204,-0.08576601,89.72251,7.805,-43.3125
1001,10330099,0.8582700999999999,-0.22557800000000003,-0.10858,82.74,6.16,-42.595
1002,10330196,0.8969440000000001,-0.21093800000000001,-0.124074,77.945,7.8925,-41.3525
1003,10330293,0.8987741,-0.205204,-0.131028,73.7275,12.4425,-40.915
1004,10330389,0.8643700999999999,-0.18849000000000002,-0.119316,68.0925,17.8675,-39.935
1005,10330486,0.830332,-0.16592,-0.10309000000000001,62.895,23.9225,-40.2675
1006,10330583,0.8080061,-0.14005599999999999,-0.089304,61.9675,30.205,-40.565
1007,10330679,0.8015399999999999,-0.114436,-0.085156,63.035,34.055,-41.2125
1008,10330776,0.8176439999999999,-0.08503401,-0.085156,64.9425,33.1275,-45.01
1009,10330873,0.87169,-0.05819401,-0.10919000000000001,65.345,25.9,-50.995
1010,10330970,0.9555040000000001,-0.0488,-0.144204,68.46,12.8975,-56.21
1011,10331066,1.067012,-0.020374,-0.15091400000000002,75.1625,-5.1625,-57.5575
1012,10331163,1.123376,0.01037,-0.131272,77.5075,-21.7175,-55.4575
1013,10331260,1.172908,0.034892,-0.10675,71.05,-30.1875,-53.6725
1014,10331357,1.1842540000000001,0.037454,-0.09942999999999999,62.79,-25.375,-49.77
1015,10331453,1.109102,0.022448,-0.149328,57.75,-14.0,-42.56
1016,10331550,1.1033680000000001,-0.020862000000000002,-0.174948,58.0125,-11.375,-39.4275
1017,10331647,1.154242,-0.061366,-0.205692,52.045,-14.49,-38.5875
1018,10331744,1.179008,-0.08113001,-0.266814,42.4025,-13.3875,-36.89
1019,10331840,1.17242,-0.091988,-0.315736,39.935,-11.27,-33.075
1020,10331937,1.1407,-0.11736400000000001,-0.335134,43.4525,-8.82,-24.8675
1021,10332034,1.1009280000000001,-0.190808,-0.34648,49.77,-2.24,-15.9425
1022,10332130,1.0147959999999998,-0.233996,-0.395158,55.685,3.08,-7.595
1023,10332227,0.9465981,-0.241438,-0.49605200000000005,57.2075,-4.935,-2.485
1024,10332324,0.8888921000000001,-0.150426,-0.600484,58.0125,-20.4925,1.8375
1025,10332421,0.8197180000000001,-0.016958,-0.6258600000000001,63.8925,-23.5725,5.005
1026,10332517,0.7816541,0.076616,-0.5690081,71.78501,-4.41,6.37
1027,10332614,0.8369200000000001,0.091378,-0.518256,72.5025,20.4575,3.465
1028,10332711,0.9297620999999999,0.10809200000000001,-0.47811800000000004,69.3525,27.8425,1.6975
1029,10332808,0.95465,0.14518,-0.47250600000000004,67.375,20.4925,2.66
1030,10332904,0.9961300999999999,0.13176,-0.521184,72.345,9.2225,-0.105
1031,10333001,1.061888,0.08625401,-0.54961,80.0625,-1.4175,-7.7175
1032,10333098,1.148874,0.066734,-0.525698,86.555,-0.595,-17.9725
1033,10333195,1.227198,0.05843801,-0.478362,91.175,8.9075,-28.245
1034,10333291,1.254526,0.08808401,-0.441518,97.93,14.2275,-35.9975
1035,10333388,1.283806,0.08698601,-0.40577199999999997,104.93,8.505,-48.1775
1036,10333485,1.2428139999999999,0.14152,-0.388692,111.37,-0.245,-53.9525
1037,10333581,1.1575360000000001,0.14713199999999999,-0.36953800000000003,118.3875,-6.7025,-58.555
1038,10333678,1.1070280000000001,0.129198,-0.355142,122.9375,-10.9025,-62.8425
1039,10333775,1.060302,0.115534,-0.358192,126.1225,-10.43,-64.995
1040,10333872,1.0187,0.09247601,-0.346602,130.1125,-8.015,-66.5
1041,10333968,1.000034,0.07686,-0.33013200000000004,131.495,-5.88,-68.5825
1042,10334065,0.9702661,0.074786,-0.330498,130.9,-3.885,-70.5775
1043,10334162,0.94306,0.075396,-0.30780599999999997,133.9625,-2.3975,-70.35
1044,10334259,0.903898,0.08869401,-0.279136,138.3025,0.735,-69.1425
1045,10334355,0.8552200000000001,0.126636,-0.269864,141.9075,4.025,-67.375
1046,10334452,0.8420440999999999,0.131882,-0.24802600000000002,148.2775,5.3725,-68.2325
1047,10334549,0.8216701,0.146278,-0.23680199999999998,153.7025,4.7425,-68.32
1048,10334646,0.80276,0.144082,-0.22448,158.7775,3.6925,-68.5125
1049,10334742,0.7787261,0.14335,-0.19983599999999999,161.665,2.4325,-70.6475
1050,10334839,0.762988,0.13908,-0.176778,161.28,1.68,-72.975
1051,10334936,0.779702,0.121268,-0.16409,160.4225,1.855,-76.44001
1052,10335032,0.7893399999999999,0.111996,-0.147742,161.2275,2.7125,-76.825
1053,10335129,0.8410681000000001,0.068076,-0.131394,163.275,4.13,-77.7875
1054,10335226,0.8708360999999999,0.045627999999999995,-0.116754,161.6125,4.935,-77.6475
1055,10335323,0.919392,-0.00183,-0.11541199999999999,157.85,5.18,-78.1725
1056,10335419,0.9557479999999999,-0.041968,-0.10089400000000001,155.7325,4.2525,-76.8775
1057,10335516,0.9769760000000001,-0.07393200000000001,-0.098088,153.9475,3.395,-72.625
1058,10335613,0.967216,-0.089792,-0.095282,150.885,2.8,-67.41001
1059,10335710,0.9551379999999999,-0.10126,-0.09442801,144.7075,3.43,-63.595
1060,10335806,0.9362280000000001,-0.11053199999999999,-0.107726,136.675,4.8825,-57.925
1061,10335903,0.9057280999999999,-0.102114,-0.103822,132.16,8.12,-50.8025
1062,10336000,0.889502,-0.11504600000000001,-0.10906800000000001,126.735,11.97,-45.5875
1063,10336097,0.8757159999999999,-0.12017,-0.10052799999999999,122.9375,14.21,-41.8075
1064,10336193,0.8985301,-0.12139000000000001,-0.102358,118.9125,13.055,-39.935
1065,10336290,0.94611,-0.12505,-0.11394800000000001,114.7475,12.95,-37.4675
1066,10336387,0.9827101,-0.10430999999999999,-0.1281,111.2125,14.8575,-34.4925
1067,10336483,0.9949100000000001,-0.070882,-0.135786,106.435,16.485,-32.48
1068,10336581,0.995764,-0.06661201,-0.135542,102.5675,18.48,-30.275
1069,10336677,1.001498,-0.08332601,-0.10004,102.235,20.8775,-27.685
1070,10336774,1.027362,-0.080154,-0.062464,100.065,23.905,-25.4275
1071,10336870,1.06628,-0.07259,-0.051362,93.9575,26.355,-24.4125
1072,10336967,1.080798,-0.060634,-0.050508,90.8775,27.3,-22.2075
1073,10337064,1.085312,-0.05429,-0.03965,92.925,25.9525,-18.9875
1074,10337161,1.075552,-0.024034,-0.020618,96.04,21.9625,-14.4375
1075,10337257,1.062254,0.011834,0.005002,97.8075,17.22,-10.6575
1076,10337354,1.0468819999999999,0.027083999999999997,0.021838,98.735,14.6475,-9.3625
1077,10337451,1.0290700000000002,0.038674,0.031476,98.14,12.4075,-8.6275
1078,10337548,1.007476,0.036356,0.007198,96.79251,9.6775,-7.9275
1079,10337644,0.984174,0.039284,-0.057218,98.0,2.7125,-6.545
1080,10337741,0.9944221,0.020618,-0.177876,102.76,-12.8275,-5.0225
1081,10337838,1.030778,-0.040626,-0.35160399999999997,109.795,-34.0725,-3.885
1082,10337935,1.0582280000000002,-0.15018199999999998,-0.47043199999999996,115.465,-51.2925,-5.355
1083,10338031,1.010282,-0.19861600000000001,-0.619516,115.535,-55.8775,-11.7425
1084,10338128,0.9394,-0.130906,-0.7482261,112.8925,-52.64,-19.4425
1085,10338225,0.935008,-0.138104,-0.7517640999999999,116.55,-42.175,-29.785
1086,10338322,0.912926,-0.28914,-0.71553,113.26,-23.1875,-43.96
1087,10338418,0.780678,-0.390278,-0.6952781,91.5775,-5.11,-55.125
1088,10338515,0.810934,-0.09333,-0.736514,61.74,7.665,-61.0575
1089,10338612,1.006622,-0.113704,-0.681492,71.015,22.295,-74.18251
1090,10338709,1.076894,-0.002928,-0.532896,88.69,31.5525,-66.2375
1091,10338805,1.1320379999999999,0.06124401,-0.4636,75.5825,36.505,-54.46
1092,10338902,1.171078,0.190198,-0.397964,64.155,40.3375,-51.7475
1093,10338999,1.2136559999999998,0.283406,-0.328546,62.3175,35.7875,-44.5725
1094,10339096,1.279414,0.23009200000000002,-0.316346,68.72251,25.515,-29.4175
1095,10339192,1.321992,0.137494,-0.30853800000000003,89.5125,15.5925,-14.98
1096,10339289,1.316746,0.060267999999999995,-0.28975,107.59,5.145,-6.965
1097,10339386,1.244766,-0.007320001,-0.256444,118.265,-5.74,-3.7625
1098,10339482,1.1209360000000002,-0.04514,-0.21862399999999999,125.335,-14.7175,-0.7175
1099,10339579,1.0151620000000001,-0.05770599999999999,-0.213256,132.545,-18.9,-1.0325
1100,10339676,0.9115840000000001,-0.053436000000000004,-0.22643200000000002,139.0725,-22.54,-3.325
1101,10339773,0.8350901,-0.048068,-0.24107199999999998,138.8975,-26.6,-8.1375
1102,10339869,0.814472,-0.050752,-0.26108000000000003,133.9275,-27.6325,-16.555
1103,10339966,0.7754321,-0.07234600000000001,-0.254004,132.9475,-24.955,-20.1075
1104,10340063,0.734196,-0.09284201,-0.182756,137.165,-20.0375,-24.115
1105,10340160,0.72285,-0.169824,-0.142618,130.4275,-12.775,-31.5525
1106,10340256,0.726388,-0.234362,-0.132248,116.7075,-6.0025,-30.2575
1107,10340353,0.724314,-0.24522,-0.131882,105.4025,-2.87,-23.7475
1108,10340450,0.708088,-0.242536,-0.118218,98.525,-3.15,-21.4025
1109,10340546,0.68747,-0.22948200000000002,-0.10528599999999999,89.6875,-5.775,-21.5775
1110,10340643,0.664778,-0.233508,-0.11102000000000001,80.1325,-8.6275,-22.4175
1111,10340740,0.673196,-0.209108,-0.103822,72.9925,-10.4825,-22.6625
1112,10340837,0.7062579999999999,-0.195444,-0.08869401,66.745,-7.8575,-24.395
1113,10340933,0.7598161,-0.21447600000000003,-0.079178,58.4675,-1.4525,-25.7075
1114,10341030,0.8058101,-0.205326,-0.117486,47.7575,6.6675,-23.3275
1115,10341127,0.869616,-0.211792,-0.132858,44.8175,10.5,-25.865
1116,10341224,0.9231739999999999,-0.2196,-0.12322000000000001,44.24,8.3475,-28.0525
1117,10341320,0.9362280000000001,-0.207156,-0.106018,40.46,4.8825,-25.305
1118,10341417,0.912438,-0.195322,-0.100162,35.7525,4.4625,-22.61
1119,10341514,0.870958,-0.17934,-0.10248,30.5375,7.98,-19.5825
1120,10341611,0.8532681000000001,-0.191662,-0.117486,24.22,14.77,-17.8325
1121,10341707,0.8300879999999999,-0.190442,-0.119804,18.9,25.2,-15.015
1122,10341804,0.794342,-0.182024,-0.113826,15.435,38.29,-11.3575
1123,10341901,0.7670140000000001,-0.17360599999999998,-0.098332,11.795,51.0475,-9.5025
1124,10341998,0.7478600000000001,-0.140178,-0.077714,7.875,60.62,-9.87
1125,10342094,0.756034,-0.0976,-0.06649,5.005,64.645,-15.6625
1126,10342191,0.784338,-0.064294,-0.07039400000000001,6.5975,61.005,-25.165
1127,10342288,0.904874,-0.047214,-0.046482,14.35,49.9275,-31.64
1128,10342385,1.0412700000000001,-0.033428,-0.023912,14.805,36.5575,-27.5625
1129,10342481,1.2724600000000001,0.00427,0.030378,4.515,23.5725,-13.5975
1130,10342578,1.506334,-0.009516001,0.101016,-13.2475,20.16,5.075
1131,10342675,1.679086,-0.066978,0.1525,-22.2425,29.19,24.85
1132,10342771,1.630896,-0.100772,0.15982000000000002,-13.9825,40.6875,34.5625
1133,10342868,1.492792,-0.149572,0.18971,3.15,26.8975,24.5
1134,10342965,1.389824,-0.11712,0.23021399999999997,15.8725,-14.455,12.88
1135,10343062,1.338584,-0.09223200000000001,0.19215,28.0525,-46.48,2.975
1136,10343158,1.398242,-0.09638,0.040260000000000004,34.51,-63.2275,-2.1875
1137,10343255,1.5730680000000001,-0.135786,-0.276574,26.6175,-91.8225,0.245
1138,10343352,1.7153200000000002,-0.094062,-0.589504,26.1275,-141.19,7.455
1139,10343449,1.552694,-0.03416,-0.73017,39.2175,-161.245,11.1475
1140,10343545,1.2444,-0.029524,-0.67466,50.1375,-117.7925,10.64
1141,10343642,1.1210579999999999,-0.021106,-0.447618,49.7525,-54.7225,8.5225
1142,10343739,1.078602,-0.007320001,-0.42456000000000005,39.935,2.59,4.6025
1143,10343836,0.9683141,0.005002,-0.406016,44.0475,16.975,5.3375
1144,10343932,0.8403360000000001,-0.03477,-0.342454,58.52,0.595,6.23
1145,10344029,0.763232,-0.107116,-0.405528,49.7,-15.505,7.56
1146,10344126,0.648308,-0.203984,-0.6157341,26.6525,-24.64,7.5775
1147,10344222,0.568276,-0.237168,-0.674538,21.4725,-27.86,2.5025
1148,10344319,0.644404,-0.228262,-0.630374,20.51,-17.535,-7.245
1149,10344416,0.828868,-0.201422,-0.5903579999999999,11.5675,2.345,-10.675
1150,10344513,0.981002,-0.190076,-0.558638,8.2425,12.11,-5.6525
1151,10344609,1.076284,-0.21045,-0.508984,5.0575,3.36,-0.455
1152,10344706,1.1059299999999999,-0.192882,-0.5119121,-3.29,-7.875,5.775
1153,10344803,1.109346,-0.16689600000000002,-0.49654,-8.365,-15.61,11.0425
1154,10344900,1.072868,-0.18873399999999999,-0.484828,-9.7825,-17.1675,17.2025
1155,10344996,1.015528,-0.188246,-0.462136,-5.5825,-12.46,17.5175
1156,10345093,0.97173,-0.156892,-0.422364,-3.2725,-10.7975,8.47
1157,10345190,0.906826,-0.13383399999999998,-0.414312,-8.05,-12.2325,-2.6425
1158,10345287,0.8510719999999999,-0.09125599999999999,-0.407846,-9.03,-14.7875,-9.7475
1159,10345383,0.824232,-0.041236,-0.3965,-7.5775,-14.5075,-11.8825
1160,10345480,0.778604,0.05453401,-0.359412,-6.9125,-12.25,-14.49
1161,10345577,0.7479819999999999,0.094062,-0.334768,-10.465,-11.655,-21.735
1162,10345674,0.7250460999999999,0.111142,-0.323544,-12.7575,-13.9475,-28.0
1163,10345770,0.693448,0.13078399999999998,-0.315492,-9.0825,-17.3775,-30.8525
1164,10345867,0.662704,0.111874,-0.313662,-4.62,-19.3725,-33.3025
1165,10345964,0.653432,0.07637200000000001,-0.305732,-3.815,-20.09,-33.4075
1166,10346061,0.646478,0.058926,-0.301706,-3.8325,-15.645,-29.365
1167,10346157,0.6293981,0.04697001,-0.287554,-0.07,-8.1725,-24.0275
1168,10346254,0.617564,0.020252000000000003,-0.258884,3.325,-0.8925,-19.11
1169,10346351,0.624152,-0.024278,-0.232898,2.415,6.405,-16.38
1170,10346447,0.625616,-0.021716,-0.212646,-0.315,12.5825,-12.11
1171,10346544,0.600484,-0.00671,-0.205326,-2.7825,17.9725,-11.13
1172,10346641,0.624762,-0.009637999999999999,-0.17238599999999998,-2.4675,18.935,-13.8425
1173,10346738,0.64904,0.010126000000000001,-0.156282,-2.87,18.4975,-12.46
1174,10346834,0.632448,0.061732,-0.148108,-3.6575,17.3775,-8.7325
1175,10346931,0.6877141,0.036722000000000005,-0.138836,-3.0975,13.8775,-11.865
1176,10347028,0.7418819999999999,0.004026,-0.140422,-2.5375,11.5675,-9.5725
1177,10347125,0.7628659999999999,0.06405001,-0.163968,-3.36,13.2475,-4.6725
1178,10347221,0.7801899999999999,0.07222401,-0.16835999999999998,6.0375,19.8625,-1.8375
1179,10347318,0.7755541,0.06466001,-0.12139000000000001,19.8975,29.9075,2.94
1180,10347415,0.772992,0.053436000000000004,-0.090036,25.9175,41.65,3.5875
1181,10347512,0.792512,0.077714,-0.090158,25.41,52.0275,-0.945
1182,10347608,0.8464360000000001,0.079544,-0.11236199999999999,28.7525,56.4025,-8.2075
1183,10347705,0.9363501000000001,0.11614400000000001,-0.09320801,39.6725,52.185,-11.655
1184,10347802,1.05408,0.172264,-0.106018,47.6875,42.77,-14.035
1185,10347899,1.181692,0.196908,-0.098332,54.215,29.645,-15.995
1186,10347996,1.321504,0.15396400000000002,-0.090646,57.19,16.695,-16.1525
1187,10348092,1.375184,0.079422,-0.050142,58.45,8.7325,-14.3325
1188,10348189,1.352004,0.019886,-0.032330000000000005,57.05,4.655,-16.835
1189,10348286,1.3638379999999999,-0.020618,-0.03843,56.525,0.4025,-22.015
1190,10348383,1.389702,-0.040016,0.010736,56.6475,1.61,-25.4625
1191,10348479,1.3583479999999999,-0.031842,0.011101999999999999,46.41,3.045,-25.5675
1192,10348576,1.321626,-0.07600599999999999,0.029401999999999998,42.4025,2.835,-25.445
1193,10348673,1.272216,-0.07588400000000001,0.011712,42.385,0.8400001,-16.975
1194,10348770,1.273436,-0.048068,-0.09418401,43.26,-3.7625,-7.805
1195,10348866,1.4245940000000001,-0.066978,-0.238998,36.855,-21.6125,-8.75
1196,10348963,1.552084,-0.15433,-0.338672,23.87,-42.14,-15.82
1197,10349060,1.3169899999999999,-0.15372,-0.5030060000000001,22.4875,-44.3275,-18.1125
1198,10349156,1.109224,-0.08625401,-0.5830380000000001,27.7375,-51.975,-20.8425
1199,10349253,1.063718,-0.114802,-0.69296,13.51,-55.7025,-25.9525
1200,10349350,1.031388,-0.24522,-0.799222,-5.18,-31.71,-34.895
1201,10349447,0.877668,-0.352702,-0.719312,-11.8475,1.68,-35.2625
1202,10349543,0.729804,-0.40138,-0.60573,-10.2375,27.2825,-27.755
1203,10349640,0.708942,-0.279258,-0.540948,-8.2425,35.1575,-27.545
1204,10349737,0.791536,-0.112972,-0.5604680000000001,-12.04,23.345,-31.64
1205,10349834,1.004792,-0.018788,-0.592066,-1.33,9.8,-24.605
1206,10349930,1.181326,0.07612801,-0.63562,5.8625,9.835,-10.535
1207,10350027,1.2505,0.191906,-0.57462,-1.225,14.28,-9.8
1208,10350124,1.283562,0.247416,-0.474214,-6.9825,19.32,-11.83
1209,10350221,1.333216,0.235582,-0.356118,0.0,18.62,-13.2125
1210,10350317,1.2627,0.20984,-0.255712,11.795,8.7325,-5.1275
1211,10350414,1.070184,0.122366,-0.227408,19.2325,-12.04,-4.62
1212,10350511,0.951844,0.012688,-0.271206,26.495,-31.99,-10.9375
1213,10350608,0.8263060999999999,-0.008784,-0.326594,38.9025,-39.165,-3.745
1214,10350705,0.753228,-0.018178,-0.31756599999999996,50.26,-34.7375,1.1725
1215,10350801,0.72224,-0.063196,-0.260226,49.6125,-23.5375,-1.225
1216,10350898,0.6694140000000001,-0.09906401,-0.239608,36.4525,-10.7275,0.875
1217,10350995,0.630008,-0.096014,-0.224602,27.5625,-3.4475,6.3525
1218,10351092,0.608902,-0.104432,-0.22021,27.2125,-3.6575,9.3625
1219,10351188,0.5826720000000001,-0.13078399999999998,-0.208742,30.59,-8.47,12.4775
1220,10351285,0.546682,-0.137006,-0.210694,25.97,-14.735,12.565
1221,10351382,0.534848,-0.170312,-0.224846,13.475,-18.445,8.225
1222,10351479,0.523746,-0.21386599999999997,-0.233752,2.835,-16.9925,5.3725
1223,10351575,0.523868,-0.22277199999999997,-0.203618,-2.555,-12.0225,6.93
1224,10351672,0.5594920999999999,-0.228262,-0.190564,-11.27,-4.1825,7.595
1225,10351769,0.5946279999999999,-0.212402,-0.15823399999999999,-18.0425,4.2,5.9325
1226,10351866,0.631228,-0.173484,-0.14993800000000002,-26.18,9.73,4.97
1227,10351962,0.67832,-0.143594,-0.137738,-30.73,11.1825,4.9525
1228,10352059,0.7283400999999999,-0.120902,-0.11943800000000002,-29.9775,12.075,6.8775
1229,10352156,0.77287,-0.08369201,-0.09577000000000001,-27.02,15.3475,7.6125
1230,10352253,0.79605,-0.069052,-0.05856,-25.55,19.2675,4.165
1231,10352349,0.8058101,-0.031354,-0.043798000000000004,-29.89,23.7825,-1.8025
1232,10352446,0.7972701,-0.002074,-0.020618,-30.625,30.6775,-8.05
1233,10352543,0.79178,-0.007076001,0.004636001,-26.145,40.67,-10.185
1234,10352640,0.756888,0.015616,0.01342,-23.7475,52.675,-6.1775
1235,10352736,0.7501781,-0.007076001,-0.003172,-21.105,62.7725,-3.43
1236,10352833,0.79178,-0.019032,-0.035502,-17.3425,64.925,-3.9725
1237,10352930,0.92232,-0.047458,-0.07173600000000001,-11.9875,52.8675,-7.875
1238,10353027,1.082262,-0.05185,-0.10187,-7.4725,23.0125,-10.99
1239,10353123,1.3207719999999998,-0.004392,-0.077958,-11.48,-26.145,-14.2625
1240,10353220,1.5968579999999999,0.093086,-0.000122,-16.94,-68.95,-16.9925
1241,10353317,1.84647,0.121024,0.03416,-20.5625,-79.8525,-18.2525
1242,10353414,1.8203619999999998,0.137006,0.0032939999999999996,-17.6225,-53.41,-4.3225
1243,10353510,1.414102,0.13969,-0.037942000000000004,-3.6575,-19.7225,16.0475
1244,10353607,1.229638,0.122244,0.036478,5.32,-9.8175,13.44
1245,10353704,1.19255,0.138714,0.046604,-0.9975,-3.8325,6.265
1246,10353801,1.2197559999999998,0.121512,-0.053070000000000006,-10.0625,1.0325,0.1575
1247,10353897,1.332362,0.05185,-0.19959200000000002,-4.375,-7.4725,-0.1225
1248,10353994,1.4690020000000001,-0.018788,-0.293532,10.115,-29.505,0.875
1249,10354091,1.467538,-0.038918,-0.390522,17.045,-48.965,3.2725
1250,10354188,1.326262,-0.079178,-0.485072,16.275,-60.7775,8.715
1251,10354284,1.188158,-0.118584,-0.5854779999999999,18.865,-68.705,20.545
1252,10354381,1.077382,-0.10004,-0.7834840000000001,18.7075,-63.245,35.9275
1253,10354478,0.954528,-0.021716,-0.812154,13.615,-34.79,43.715
1254,10354575,0.89792,0.028914,-0.65941,3.1325,15.9425,47.7575
1255,10354671,0.8081281,-0.08235001,-0.56913,-9.4325,59.4125,56.4025
1256,10354768,0.69418,-0.127856,-0.5203300000000001,-16.5375,61.215,63.2975
1257,10354865,0.7184581,-0.157746,-0.5084960000000001,-27.475,24.955,54.145
1258,10354962,1.069208,-0.173118,-0.5838920999999999,-41.615,-10.6925,22.715
1259,10355058,1.237568,-0.116998,-0.6470880999999999,-46.6375,-10.115,1.4175
1260,10355155,1.25233,-0.13383399999999998,-0.5644939999999999,-37.0825,-1.5575,11.06
1261,10355252,1.293566,-0.196908,-0.402966,-26.04,0.42,26.53
1262,10355349,1.312476,-0.171654,-0.33123,-28.49,1.2425,26.25
1263,10355445,1.217438,-0.130296,-0.283406,-31.325,-8.68,7.4725
1264,10355542,1.063108,-0.074542,-0.282796,-28.84,-28.3675,-8.26
1265,10355639,0.895236,0.01769,-0.313052,-22.085,-45.045,-8.6625
1266,10355736,0.8164239999999999,0.040138,-0.327936,-13.405,-48.055,-16.31
1267,10355832,0.749568,0.087108,-0.338062,-10.1675,-37.0125,-24.78
1268,10355929,0.671732,0.129686,-0.319396,-7.1575,-21.4375,-29.1375
1269,10356026,0.602436,0.193126,-0.299632,-4.9,-10.3075,-33.1625
1270,10356123,0.532774,0.22935999999999998,-0.28731,-2.765,-5.4775,-37.555
1271,10356219,0.46762600000000004,0.22326,-0.289506,-0.07,-6.79,-41.0375
1272,10356316,0.44517799999999996,0.200202,-0.29341,3.6925,-9.555,-41.055
1273,10356413,0.442982,0.199226,-0.28486999999999996,8.1375,-7.1575,-34.8425
1274,10356510,0.43810200000000005,0.186782,-0.271938,11.8825,-0.7,-29.435
1275,10356606,0.44713,0.19251600000000002,-0.23741199999999998,15.12,3.2725,-28.5425
1276,10356703,0.5091061,0.143716,-0.22948200000000002,18.375,2.9225,-28.665
1277,10356800,0.5321640000000001,0.132248,-0.210694,28.6475,1.1725,-24.535
1278,10356897,0.557296,0.12395199999999999,-0.171654,40.145,-0.91,-18.06
1279,10356993,0.6350100000000001,0.09320801,-0.174948,39.9175,-2.17,-14.6475
1280,10357090,0.7300479999999999,0.001342,-0.12980799999999998,41.265,0.4025,-10.8325
1281,10357187,0.7476161,0.023424,-0.116388,40.8975,7.175,-3.185
1282,10357284,0.789828,0.053191999999999996,-0.11529,39.7425,12.915,-2.94
1283,10357380,0.8888921000000001,-0.0032939999999999996,-0.049044,51.625,19.67,-10.6925
1284,10357477,0.897066,-0.019886,0.023424,58.5725,28.3675,-8.015
1285,10357574,0.8663219999999999,-0.019275999999999998,0.060634,51.905,35.9275,-6.895
1286,10357670,0.8616860000000001,-0.007686,0.039772,39.9525,41.1425,-12.635
1287,10357767,0.8740081000000001,0.035013999999999997,-0.014518000000000001,36.89,43.155,-16.94
1288,10357864,0.9191481,0.045506,-0.047702,45.2725,38.7975,-16.31
1289,10357961,0.977342,0.06575800000000001,-0.040992,56.805,29.8375,-12.46
1290,10358057,1.09617,0.06892999999999999,-0.040260000000000004,59.78,18.515,-10.9725
1291,10358154,1.27795,0.060877999999999995,-0.032695999999999996,56.6125,6.1075,-10.7275
1292,10358251,1.450702,0.06075601,0.018544,51.0475,-4.5325,-10.1675
1293,10358348,1.586366,0.011834,0.035868000000000004,42.14,-14.35,-6.65
1294,10358444,1.6143040000000002,-0.107116,0.00183,41.335,-20.3175,-4.6025
1295,10358541,1.407026,-0.18251199999999998,0.035136,49.98,-25.585,-8.575
1296,10358638,1.276242,-0.209718,0.09284201,43.925,-36.6275,-12.705
1297,10358735,1.239642,-0.19337000000000001,0.049532,28.8575,-31.1325,-12.0575
1298,10358831,1.21573,-0.156404,-0.081374,16.3275,-20.3875,-8.295
1299,10358928,1.320284,-0.127002,-0.268888,5.845,-27.51,-5.705
1300,10359025,1.526708,-0.182268,-0.333914,-3.92,-48.4225,-7.1575
1301,10359122,1.3773799999999998,-0.22057600000000002,-0.502274,-7.35,-51.625,-6.5975
1302,10359218,1.114226,-0.185196,-0.671366,-8.0675,-59.85,-11.7775
1303,10359315,1.041148,-0.14713199999999999,-0.774212,-11.3925,-78.365,-19.0225
1304,10359412,1.005158,-0.198982,-0.8605879999999999,-15.6625,-56.875,-25.2
1305,10359508,0.910486,-0.21716,-0.7390760000000001,-28.245,-6.16,-35.525
1306,10359605,0.8808401,-0.20483800000000002,-0.533628,-41.1775,42.7875,-39.7775
1307,10359702,0.742004,-0.13237000000000002,-0.49446599999999996,-40.53,68.985,-37.695
1308,10359799,0.753472,-0.019275999999999998,-0.457744,-30.485,52.4125,-32.5325
1309,10359896,0.820084,0.09638,-0.522892,-29.26,15.575,-19.4425
1310,10359992,1.133624,0.21472,-0.62647,-21.8225,-6.8425,-3.9725
1311,10360089,1.31455,0.259006,-0.626714,-11.235,4.5325,-3.7975
1312,10360186,1.3419999999999999,0.230458,-0.522892,-24.6925,19.495,-10.535
1313,10360282,1.3979979999999999,0.177998,-0.370026,-25.83,28.3675,-8.1725
1314,10360379,1.379576,0.12529400000000002,-0.23082399999999997,-13.4225,23.66,-2.8525
1315,10360476,1.19011,0.050386,-0.167384,-4.375,-0.9975,1.0675
1316,10360573,1.0176020000000001,-0.009150001,-0.21618400000000002,1.7675,-30.3275,-0.56
1317,10360669,0.895114,-0.019275999999999998,-0.283406,12.11,-44.695,1.155
1318,10360766,0.787388,-0.016592,-0.31293000000000004,16.6775,-43.085,5.8625
1319,10360863,0.7190681,-0.019154,-0.29072600000000004,13.755,-30.24,9.555
1320,10360960,0.668926,-0.032574,-0.254858,9.38,-11.7775,10.7975
1321,10361056,0.623542,-0.05355801,-0.21301199999999998,8.015,2.0125,12.6875
1322,10361153,0.572912,-0.079422,-0.19178399999999998,8.9075,6.02,15.4175
1323,10361250,0.540582,-0.087962,-0.188368,10.15,-0.875,19.285
1324,10361347,0.5221600000000001,-0.10504200000000001,-0.189588,9.625,-10.5175,20.055
1325,10361443,0.509228,-0.129442,-0.21081599999999998,4.13,-17.7975,19.0925
1326,10361540,0.5070319999999999,-0.138104,-0.221796,-2.0475,-20.3525,18.515
1327,10361637,0.503738,-0.123708,-0.191906,-7.4375,-17.955,16.0125
1328,10361734,0.517402,-0.125416,-0.157502,-21.035,-10.6225,9.695
1329,10361830,0.558638,-0.14896199999999998,-0.163358,-35.56,-2.1,4.7425
1330,10361927,0.6019479999999999,-0.13237000000000002,-0.143594,-35.98,1.4,4.48
1331,10362024,0.64172,-0.10430999999999999,-0.081618,-27.825,0.5775,4.6725
1332,10362121,0.688812,-0.091378,-0.047214,-29.2075,1.7325,2.1525
1333,10362217,0.7333420999999999,-0.080276,-0.043798000000000004,-35.9625,7.8575,-2.1525
1334,10362314,0.761402,-0.056974000000000004,-0.029889999999999996,-37.45,16.205,-4.5675
1335,10362411,0.779092,-0.028792,0.00488,-32.4625,25.5325,-5.95
1336,10362507,0.781532,-0.029036000000000003,0.028304000000000003,-29.1375,34.72,-7.385
1337,10362604,0.780312,-0.035502,0.02684,-27.6675,40.8625,-7.14
1338,10362701,0.784094,0.000976,0.010004,-27.2475,41.3875,-5.215
1339,10362798,0.845094,-0.006832001,-0.028426,-26.39,34.8075,-7.945
1340,10362894,0.9831981,-0.035136,-0.05172801,-25.0425,18.4625,-10.08
1341,10362991,1.14924,-0.036112,-0.109556,-26.7575,-3.08,-3.675
1342,10363088,1.336998,-0.02501,-0.141764,-27.2825,-29.3125,4.13
1343,10363185,1.478884,-0.000488,-0.122976,-28.035,-51.3275,5.215
1344,10363281,1.589294,0.035868000000000004,-0.10321199999999998,-28.735,-51.345,4.6375
1345,10363378,1.5262200000000001,0.0793,-0.06819800000000001,-24.885,-30.765,9.6075
1346,10363475,1.323944,0.077714,-0.05856,-19.915,-7.525,17.4125
1347,10363572,1.305644,0.097234,0.00427,-12.3375,3.6925,15.435
1348,10363668,1.301984,0.128466,0.010004,-9.2925,13.3175,11.8125
1349,10363765,1.313696,0.131272,-0.047214,-6.545,14.8925,4.6725
1350,10363862,1.386408,0.11541199999999999,-0.13847,3.5,-4.27,0.0875
1351,10363959,1.521218,0.094916,-0.21533000000000002,16.485,-39.55,3.395
1352,10364055,1.6471220000000002,0.09418401,-0.24131599999999997,24.0975,-61.3375,7.9975
1353,10364152,1.474736,0.08003201,-0.4209,19.1625,-52.255,11.305
1354,10364249,1.231468,0.01098,-0.5978,17.045,-59.3425,17.57
1355,10364346,1.067744,0.004392,-0.7019880000000001,31.71,-76.2825,31.955
1356,10364442,0.8601,0.052948,-0.775066,40.04,-62.93,41.3875
1357,10364539,0.715896,0.090036,-0.672342,25.305,-18.5325,43.0675
1358,10364636,0.704916,0.047580000000000004,-0.563884,5.8275,40.0225,44.2575
1359,10364733,0.698328,-0.101138,-0.525942,-0.6825,60.34,47.7575
1360,10364829,0.78141,-0.1403,-0.440542,-1.6275,28.6475,46.2
1361,10364926,1.022726,-0.153232,-0.49263599999999996,-21.455,-6.23,25.55
1362,10365023,1.141676,-0.11285,-0.604632,-35.8925,-13.72,8.225
1363,10365119,1.2052379999999998,-0.1708,-0.580842,-31.6225,-11.095,9.5725
1364,10365216,1.331752,-0.279502,-0.465796,-23.52,-4.025,24.255
1365,10365313,1.378112,-0.306708,-0.367464,-27.9475,6.3175,32.025
1366,10365410,1.256234,-0.24156,-0.276696,-29.3825,8.1725,17.2375
1367,10365506,1.096658,-0.118218,-0.24461,-29.7675,-9.065,-4.725
1368,10365603,0.936106,0.021228,-0.30182800000000004,-32.445,-32.095,-10.7975
1369,10365700,0.8327720999999999,0.104066,-0.332084,-21.98,-41.6325,-13.0725
1370,10365797,0.7645741,0.115656,-0.33123,-14.2975,-36.1375,-16.3975
1371,10365893,0.699548,0.12627,-0.308294,-14.0,-22.5575,-19.145
1372,10365990,0.638304,0.129442,-0.295606,-15.3475,-10.465,-23.555
1373,10366087,0.5827939999999999,0.137128,-0.275354,-13.2475,-6.055,-27.755
1374,10366184,0.541802,0.122732,-0.291092,-9.625,-7.525,-29.085
1375,10366280,0.502152,0.105896,-0.298412,-2.555,-9.3975,-28.4025
1376,10366377,0.386496,0.136884,-0.299388,1.6975,-9.7125,-27.195
1377,10366474,0.335866,0.118828,-0.28181999999999996,-4.165,-15.2775,-26.39
1378,10366571,0.401136,0.102968,-0.266936,-10.43,-18.41,-26.7575
1379,10366667,0.48068,0.10687200000000001,-0.261324,-4.0775,-12.0225,-21.5075
1380,10366764,0.533994,0.08625401,-0.22496799999999997,9.6425,-4.865,-13.2475
1381,10366861,0.558882,0.082106,-0.193126,19.7575,-1.9775,-6.4925
1382,10366958,0.604754,0.033306,-0.176778,22.365,-3.6225,-4.935
1383,10367054,0.667828,0.002562,-0.125538,19.355,-6.9475,-4.0775
1384,10367151,0.704306,0.05856,-0.125904,9.6425,-6.125,-2.6075
1385,10367248,0.772748,0.09040201,-0.144448,7.665,-0.8925,-8.435
1386,10367345,0.85949,0.013054,-0.122732,13.825,2.8175,-10.0275
1387,10367441,0.869128,0.006832001,-0.08893801,18.69,7.035,0.5075
1388,10367538,0.8881600000000001,0.051362,-0.05770599999999999,17.675,14.245,1.2425
1389,10367635,0.9079241,0.04404201,-0.091134,9.94,21.77,-5.495
1390,10367732,0.9137799999999999,0.07515201,-0.138348,10.0275,25.1125,-2.6075
1391,10367828,0.9813681000000001,0.10760399999999999,-0.160308,19.7925,26.9325,1.715
1392,10367925,1.071404,0.119804,-0.152256,28.385,30.1,4.2175
1393,10368022,1.185718,0.118828,-0.121268,30.38,32.305,5.985
1394,10368119,1.285392,0.12358599999999999,-0.08906,30.555,30.625,3.955
1395,10368215,1.412882,0.11626600000000001,-0.013663999999999999,34.755,20.5275,-0.0175
1396,10368312,1.489742,0.082472,0.0427,40.5475,10.08,-6.1425
1397,10368409,1.458754,0.028426,0.05172801,46.83,1.4,-15.225
1398,10368506,1.376526,-0.079056,0.03416,49.6125,-13.5275,-20.3175
1399,10368602,1.3466360000000002,-0.15189,0.017568,47.425,-23.555,-20.7725
1400,10368699,1.380308,-0.15128,-0.133224,30.7475,-28.5075,-23.24
1401,10368796,1.540616,-0.186904,-0.292068,11.8125,-43.8375,-24.22
1402,10368892,1.588196,-0.269986,-0.407236,10.395,-51.5725,-25.3575
1403,10368989,1.354932,-0.32147,-0.527772,8.8025,-51.87,-26.39
1404,10369086,1.195478,-0.28548,-0.6231760999999999,-6.1775,-57.5225,-29.9775
1405,10369183,1.098488,-0.21533000000000002,-0.7333420999999999,-18.7425,-39.655,-32.7425
1406,10369279,1.02358,-0.172264,-0.69052,-27.4225,-6.2825,-35.8575
1407,10369376,0.8910879999999999,-0.167262,-0.5936520000000001,-32.62,26.46,-40.8275
1408,10369473,0.791536,-0.12980799999999998,-0.5130100000000001,-31.7625,39.795,-40.88
1409,10369570,0.712724,-0.007808001,-0.49568599999999996,-25.9,31.5175,-36.295
1410,10369666,0.8344801,0.07076001,-0.543266,-17.15,13.2825,-26.0225
1411,10369763,1.051518,0.14762,-0.5723020999999999,-4.585,5.2675,-11.6725
1412,10369860,1.186328,0.18666,-0.59475,-1.4525,13.2125,-6.125
1413,10369957,1.226588,0.210694,-0.525698,-8.8025,21.63,-14.98
1414,10370053,1.286002,0.19861600000000001,-0.406748,-11.7775,23.135,-23.8875
1415,10370150,1.353956,0.15433,-0.287798,1.085,18.515,-25.4975
1416,10370247,1.264408,0.11102000000000001,-0.20679,14.5775,2.0475,-15.5575
1417,10370344,1.0979999999999999,-0.008906,-0.20923000000000003,14.665,-23.0475,-7.9625
1418,10370440,0.9753901,-0.060634,-0.25132,12.565,-40.53,-7.315
1419,10370537,0.865834,-0.09711201,-0.29597199999999996,10.675,-40.705,-3.7975
1420,10370634,0.777384,-0.116754,-0.288408,11.935,-28.9275,-0.6125
1421,10370730,0.699792,-0.113704,-0.2562,10.0975,-18.375,5.6525
1422,10370827,0.6252501,-0.123708,-0.248392,8.4875,-11.0775,10.9375
1423,10370924,0.574498,-0.149206,-0.22057600000000002,10.5525,-9.6075,13.8775
1424,10371021,0.523746,-0.14798599999999998,-0.22509,8.085,-12.11,15.855
1425,10371117,0.48251000000000005,-0.15982000000000002,-0.24558600000000003,3.9025,-16.065,14.98
1426,10371214,0.451034,-0.13785999999999998,-0.256688,0.9625,-19.7575,14.56
1427,10371311,0.440054,-0.143228,-0.261446,-3.01,-19.215,13.055
1428,10371408,0.444568,-0.130296,-0.247416,-12.1275,-15.1025,10.8675
1429,10371504,0.48385200000000006,-0.12139000000000001,-0.22509,-21.8575,-7.315,7.3675
1430,10371601,0.505934,-0.09991799999999999,-0.18324400000000002,-27.93,0.98,5.5125
1431,10371698,0.5504641,-0.107482,-0.14335,-34.09,5.775,5.1275
1432,10371794,0.592554,-0.104554,-0.110044,-40.1975,9.4325,4.48
1433,10371891,0.645746,-0.115656,-0.10736,-44.24,12.4425,1.6975
1434,10371988,0.694912,-0.101992,-0.080276,-41.6675,13.265,1.0325
1435,10372085,0.73627,-0.077592,-0.052216,-38.5525,15.4875,0.7
1436,10372181,0.7626221,-0.06661201,-0.024888,-38.78,20.1075,-2.695
1437,10372278,0.7975140000000001,-0.035868000000000004,0.000976,-41.16,24.6925,-4.48
1438,10372375,0.8103239999999999,0.007808001,0.012688,-43.995,30.695,-5.6
1439,10372472,0.815814,0.00427,0.020130000000000002,-43.7675,35.035,-6.58
1440,10372568,0.8479,-0.021716,0.021472,-43.295,32.97,-2.5725
1441,10372665,0.91622,0.000366,0.01586,-45.2725,24.85,1.9425
1442,10372762,0.995764,-0.005856,-0.002196,-44.625,14.7,2.1525
1443,10372859,1.1204479999999999,-0.024156,-0.045506,-42.77,0.14,4.97
1444,10372955,1.2500120000000001,-0.008296000999999999,-0.0854,-42.665,-22.365,8.2775
1445,10373052,1.443016,0.030622000000000003,-0.09125599999999999,-37.7125,-48.2125,6.09
1446,10373149,1.58295,0.12456199999999999,-0.103822,-33.4775,-59.85,0.1925
1447,10373246,1.714832,0.142618,-0.119804,-32.34,-53.9,-9.0475
1448,10373342,1.5982,0.140544,-0.12688,-24.0275,-33.11,-4.9
1449,10373439,1.305644,0.116754,-0.091012,-12.25,-13.93,11.4275
1450,10373536,1.2136559999999998,0.10797000000000001,0.022082,-3.5525,-9.73,9.7475
1451,10373633,1.20963,0.119072,0.008906,-11.9525,-9.695,2.8525
1452,10373729,1.29259,0.125904,-0.205326,-14.735,-17.3075,-0.315
1453,10373826,1.477908,0.176534,-0.405406,4.27,-39.8125,2.0825
1454,10373923,1.52073,0.218746,-0.5043479999999999,20.195,-51.8,8.9075
1455,10374020,1.299056,0.116998,-0.6311060000000001,15.435,-47.5825,19.3725
1456,10374116,1.08092,0.036478,-0.679784,20.1775,-50.47,36.9075
1457,10374213,0.9021899999999999,0.069052,-0.673806,38.045,-45.2025,53.06
1458,10374310,0.789462,0.07198,-0.658922,41.685,-20.1425,56.385
1459,10374406,0.7296819999999999,0.037698,-0.6307401,30.9225,17.6575,53.69
1460,10374503,0.69418,-0.050142,-0.6703899999999999,20.9125,38.185,48.475
1461,10374600,0.8786440999999999,-0.14188599999999998,-0.6080479999999999,17.465,15.7675,40.1975
1462,10374697,1.1622940000000002,-0.174582,-0.567178,-0.1925,-5.46,30.2225
1463,10374793,1.1920620000000002,-0.093696,-0.677222,-14.0175,4.0425,31.185
1464,10374890,1.265262,-0.124196,-0.6542859999999999,-8.995,0.7875,27.615
1465,10374987,1.41459,-0.239608,-0.508862,5.4075,-5.1975,25.34
1466,10375084,1.461316,-0.279868,-0.419192,9.6425,2.1175,20.125
1467,10375180,1.264042,-0.268522,-0.330864,7.0,1.2775,-0.6825
1468,10375277,1.05225,-0.181536,-0.29402,-0.875,-17.9375,-20.3175
1469,10375374,0.8995059999999999,-0.07356601,-0.38795999999999997,-11.7075,-33.7925,-25.3925
1470,10375471,0.8197180000000001,0.025498,-0.42590200000000006,-5.285,-32.9,-31.255
1471,10375567,0.764208,0.066246,-0.38051799999999997,4.83,-21.9975,-38.01
1472,10375664,0.699792,0.120048,-0.31158800000000003,7.8925,-11.1825,-40.4425
1473,10375761,0.6258600000000001,0.172996,-0.259982,6.6675,-4.8125,-44.9925
1474,10375857,0.561688,0.203862,-0.25742,4.3925,-4.1475,-50.4525
1475,10375954,0.49105,0.189344,-0.27876999999999996,7.4375,-7.665,-53.13
1476,10376051,0.430782,0.175924,-0.29402,14.2275,-12.355,-50.9775
1477,10376148,0.41992399999999996,0.156892,-0.31146599999999997,18.4625,-11.375,-49.105
1478,10376244,0.428464,0.14005599999999999,-0.307196,21.14,-6.2475,-41.6675
1479,10376341,0.416386,0.11248399999999999,-0.290116,25.0425,0.3675,-35.0875
1480,10376438,0.44103000000000003,0.07246799999999999,-0.241682,27.44,3.71,-29.61
1481,10376535,0.45737799999999995,0.07259,-0.20105599999999998,26.32,4.55,-22.33
1482,10376631,0.48433999999999994,0.060024,-0.177754,22.54,2.205,-18.8125
1483,10376728,0.61183,-0.018422,-0.175558,22.3475,-1.085,-18.5325
1484,10376825,0.686372,0.04941,-0.168238,30.0475,-1.1025,-10.5525
1485,10376922,0.7515201,0.07588400000000001,-0.14078800000000002,39.3925,1.4,-11.375
1486,10377018,0.846802,0.046360000000000005,-0.129076,39.4625,4.97,-15.4
1487,10377115,0.907192,-0.033916,-0.09052401,38.2375,7.7525,-10.08
1488,10377212,0.900726,-0.062586,-0.025376,36.0325,11.935,-0.7875
1489,10377309,0.879986,-0.062586,-0.011346,30.1175,21.5425,-3.3775
1490,10377405,0.8812059999999999,-0.062341999999999995,-0.02928,22.33,27.6675,-10.675
1491,10377502,0.8792540999999999,-0.02074,-0.082472,21.2975,30.2575,-12.0225
1492,10377599,0.894748,0.061488,-0.114436,29.9075,28.875,-9.065
1493,10377696,0.948306,0.11760799999999999,-0.14457,37.135,21.805,-4.69
1494,10377792,1.059936,0.116754,-0.196176,46.5675,11.55,0.56
1495,10377889,1.2099959999999998,0.12175599999999999,-0.136884,62.1425,8.4175,6.37
1496,10377986,1.344562,0.170922,-0.036112,56.945,9.135,9.415
1497,10378083,1.47681,0.10248,0.007076001,34.51,13.4225,4.97
1498,10378179,1.486326,0.017568,-0.019642,24.2375,21.2275,3.9725
1499,10378276,1.351272,-0.09345201,-0.018056,35.49,15.3475,1.05
1500,10378373,1.2902719999999999,-0.180194,0.06661201,48.9825,-4.55,-5.1275
1501,10378470,1.26148,-0.170434,0.0671,43.4525,-12.8625,-3.0625
1502,10378566,1.2608700000000002,-0.18873399999999999,0.034404000000000004,34.2825,-6.895,-3.99
1503,10378663,1.277828,-0.191296,-0.013175999999999998,27.5625,-2.6425,0.1225
1504,10378760,1.33895,-0.136518,-0.111142,9.695,-16.03,9.94
1505,10378857,1.45912,-0.1525,-0.22935999999999998,-11.4975,-44.975,5.355
1506,10378953,1.36457,-0.22753,-0.486048,-10.71,-59.465,-9.2925
1507,10379050,1.099952,-0.134688,-0.8141060999999999,-7.5775,-82.775,-18.97
1508,10379147,1.00345,-0.12065799999999999,-0.9779521000000001,-6.9475,-109.1825,-35.77
1509,10379244,0.892552,-0.176534,-0.853146,-13.16,-74.3225,-50.1725
1510,10379340,0.846924,-0.23119,-0.5757180000000001,-29.645,20.6325,-53.7075
1511,10379437,0.749324,-0.204594,-0.468236,-44.9225,93.45,-50.0325
1512,10379534,0.6450140000000001,-0.08723001,-0.48739,-44.765,92.225,-45.815
1513,10379631,0.679296,0.0051240009999999996,-0.505934,-21.4725,43.8375,-41.1775
1514,10379727,1.041392,0.12261,-0.531554,-3.5175,-2.5375,-15.1025
1515,10379824,1.262822,0.1647,-0.571448,-4.585,0.595,-0.2975
1516,10379921,1.347246,0.183122,-0.508984,-27.4225,25.725,-11.1825
1517,10380018,1.386774,0.23058,-0.43163599999999996,-37.31,38.36,-15.1375
1518,10380114,1.463634,0.178242,-0.229726,-19.0575,25.5675,-16.9925
1519,10380211,1.40117,0.08662001,-0.129564,-6.3175,3.7275,-10.7975
1520,10380308,1.173274,-0.01952,-0.13859200000000002,-5.04,-20.3175,-1.6275
1521,10380405,1.0310219999999999,-0.09650201,-0.22948200000000002,-4.725,-41.86,1.6625
1522,10380501,0.94489,-0.10394400000000001,-0.30402399999999996,0.875,-50.155,6.9475
1523,10380598,0.8342360000000001,-0.09284201,-0.329644,3.6575,-41.4225,14.63
1524,10380695,0.743102,-0.09442801,-0.291092,-1.015,-26.0575,21.035
1525,10380792,0.670878,-0.09516001,-0.248148,-7.525,-11.585,22.9775
1526,10380888,0.6350100000000001,-0.12761199999999998,-0.226554,-11.585,-3.3425,20.615
1527,10380985,0.56913,-0.130906,-0.22472399999999998,-12.8625,-3.745,21.2275
1528,10381082,0.52277,-0.120902,-0.23119,-12.1625,-11.6025,21.28
1529,10381179,0.5073979999999999,-0.154696,-0.248148,-13.615,-19.6,18.795
1530,10381275,0.505324,-0.154818,-0.25193000000000004,-16.555,-22.5575,20.0375
1531,10381372,0.517646,-0.12749000000000002,-0.24034,-23.1175,-18.97,20.4575
1532,10381469,0.5614439999999999,-0.12078,-0.230458,-35.35,-11.9175,16.2925
1533,10381566,0.57889,-0.10004,-0.20788800000000002,-46.48,-5.46,14.105
1534,10381662,0.5903579999999999,-0.061975999999999996,-0.147376,-51.2575,-0.4375,11.9525
1535,10381759,0.555832,-0.007320001,-0.10065,-56.07,2.6425,11.3225
1536,10381856,0.573156,-0.015982,-0.09638,-62.125,2.3275,11.6725
1537,10381953,0.596458,-0.019032,-0.08771799999999999,-56.98,3.2025,13.3
1538,10382049,0.6392800000000001,0.00122,-0.06344,-48.8775,7.105,12.32
1539,10382146,0.68381,0.030866,-0.048068,-43.6625,14.91,8.7675
1540,10382243,0.70333,0.05368,-0.040626,-44.345,21.525,2.695
1541,10382340,0.731146,0.036478,-0.048922,-45.815,23.31,-4.0075
1542,10382436,0.768234,0.04404201,-0.066978,-44.4325,19.81,-5.46
1543,10382533,0.834724,0.030256,-0.100406,-43.085,11.62,-6.055
1544,10382630,0.917684,0.002318,-0.11394800000000001,-44.905,0.0525,-5.39
1545,10382727,1.020408,-0.048068,-0.112606,-50.435,-9.625,-1.5925
1546,10382823,1.199382,-0.07234600000000001,-0.1403,-55.545,-11.9175,7.1925
1547,10382920,1.3588360000000002,-0.084912,-0.165798,-56.1225,-9.9575,13.7025
1548,10383017,1.49999,0.013297999999999999,-0.133712,-54.215,-10.01,11.0075
1549,10383114,1.666032,0.098942,-0.05929201,-49.875,-6.1425,0.6475
1550,10383210,1.667618,0.176656,0.010614,-39.6375,7.4375,-7.595
1551,10383307,1.48779,0.224846,0.049776,-27.44,18.515,-0.2275
1552,10383404,1.2761200000000001,0.21386599999999997,0.0793,-19.0925,14.8225,13.3525
1553,10383501,1.19133,0.179828,0.11943800000000002,-7.49,3.85,14.5075
1554,10383597,1.174372,0.130418,0.114924,4.445,-0.6825,5.6875
1555,10383694,1.235006,0.076494,0.040138,15.2775,-6.055,-1.05
1556,10383791,1.372012,0.053924,-0.084912,26.18,-27.9475,3.9025
1557,10383888,1.47864,0.0732,-0.202398,31.8675,-69.265,14.7525
1558,10383984,1.353224,0.023546,-0.41284799999999994,23.065,-100.205,22.2775
1559,10384081,1.048346,-0.055754,-0.741272,19.4775,-108.08,25.7425
1560,10384178,0.8428979999999999,0.00976,-1.051274,35.4725,-108.6575,34.9825
1561,10384275,0.8072741,0.039406000000000004,-1.149972,47.9325,-70.8225,44.8175
1562,10384372,0.8460700999999999,0.065148,-0.744566,42.42,10.3775,55.44
1563,10384468,0.869616,0.136762,-0.482998,11.4275,79.765,62.2475
1564,10384565,0.752496,0.067222,-0.562298,-13.9125,85.1375,55.09
1565,10384662,0.688446,-0.036356,-0.5060560000000001,-13.5625,26.635,43.8025
1566,10384759,0.8033701,-0.06575800000000001,-0.526308,-25.5325,-29.085,34.1775
1567,10384855,1.151802,-0.162138,-0.6911301,-37.6775,-27.7375,14.6475
1568,10384952,1.293444,-0.277062,-0.725168,-23.8175,4.2875,7.6475
1569,10385049,1.3735979999999999,-0.325008,-0.49861400000000006,-1.5925,19.8275,10.0625
1570,10385146,1.380796,-0.343552,-0.29572800000000005,7.9975,27.2125,9.275
1571,10385242,1.309426,-0.31524800000000003,-0.177876,-10.5175,20.125,7.245
1572,10385339,1.227442,-0.177998,-0.183488,-44.8875,-2.765,-0.98
1573,10385436,1.115934,0.0008540001,-0.279624,-62.0725,-27.8075,-15.995
1574,10385533,0.9751460999999999,0.16226,-0.335622,-44.38,-45.6575,-19.5825
1575,10385629,0.8466800999999999,0.18043800000000002,-0.33855,-17.4475,-44.135,-18.8825
1576,10385726,0.7451760000000001,0.15433,-0.332084,-13.51,-27.9475,-19.9675
1577,10385823,0.695766,0.151158,-0.31158800000000003,-17.2725,-9.2225,-23.7475
1578,10385920,0.6533100000000001,0.14396,-0.28621199999999997,-15.645,2.0825,-27.755
1579,10386016,0.5514399999999999,0.15067,-0.270962,-10.745,4.6025,-27.7025
1580,10386113,0.48958599999999997,0.116022,-0.259006,-5.635,-1.1025,-27.93
1581,10386210,0.444324,0.10504200000000001,-0.25803000000000004,-0.5775,-5.3725,-26.075
1582,10386307,0.487146,0.08857201,-0.255102,3.29,-4.8825,-25.3925
1583,10386403,0.48531599999999997,0.12078,-0.260592,7.91,-1.4875,-21.315
1584,10386500,0.534482,0.128588,-0.236558,19.705,1.1725,-19.3375
1585,10386597,0.530578,0.153476,-0.20252,31.885,3.6575,-19.88
1586,10386694,0.547658,0.172996,-0.164578,35.9625,2.765,-21.77
1587,10386790,0.549488,0.12505,-0.126392,35.525,0.4025,-22.61
1588,10386887,0.59048,0.037332,-0.090768,33.7225,1.4175,-21.035
1589,10386984,0.6344,-0.01037,-0.079666,24.36,4.6725,-11.865
1590,10387081,0.6634359999999999,-0.0008540001,-0.09211,13.51,10.29,-3.9375
1591,10387177,0.746518,-0.009882,-0.080764,12.495,18.5675,-2.0125
1592,10387274,0.7856801,-0.013786000000000001,-0.051484,17.535,30.345,1.575
1593,10387371,0.766892,0.009882,-0.03843,18.55,39.34,3.43
1594,10387468,0.9070700999999999,0.02806,-0.08308201,20.4925,39.305,3.675
1595,10387564,0.9774639999999999,0.091744,-0.10430999999999999,32.7425,33.775,13.0375
1596,10387661,1.059326,0.166042,-0.09125599999999999,39.795,26.1975,13.7375
1597,10387758,1.176202,0.181536,-0.07991000000000001,39.935,19.9675,2.73
1598,10387855,1.277462,0.157136,-0.081374,39.2,22.33,-2.135
1599,10387951,1.3418780000000001,0.116876,-0.038308,42.1575,26.39,-1.1725
1600,10388048,1.39446,0.07832401,0.027327999999999998,42.525,23.7125,-4.5675
1601,10388145,1.3613979999999999,0.021594,0.06283,45.08,14.315,-11.5325
1602,10388241,1.300764,-0.041846,0.090768,55.265,-4.41,-15.4
1603,10388338,1.280268,-0.08296,0.097234,59.78,-26.95,-13.545
1604,10388435,1.28405,-0.07307801,0.054778,53.445,-36.6625,-14.5425
1605,10388532,1.295518,-0.055388,-0.03782,43.0675,-35.8225,-15.0325
1606,10388628,1.342488,-0.03843,-0.193004,34.0025,-39.375,-11.48
1607,10388725,1.463756,-0.10687200000000001,-0.254736,23.345,-57.4525,-11.41
1608,10388822,1.505968,-0.24570799999999998,-0.38735,12.7575,-60.9875,-12.635
1609,10388919,1.336144,-0.26291,-0.604144,3.78,-48.2825,-17.2725
1610,10389015,1.1655879999999998,-0.188124,-0.686128,-5.5475,-52.185,-29.5225
1611,10389112,1.069086,-0.205936,-0.695034,-9.24,-46.41,-42.28
1612,10389209,0.9548940999999999,-0.23228800000000002,-0.670512,-15.82,-19.67,-41.09
1613,10389306,0.81252,-0.211792,-0.6265921,-23.835,13.51,-35.9975
1614,10389403,0.7361481,-0.168604,-0.580964,-21.7875,32.97,-37.9925
1615,10389499,0.763232,-0.040138,-0.551074,-15.7325,28.5425,-41.4575
1616,10389596,0.9137799999999999,0.009150001,-0.558272,-10.3775,8.4875,-33.6875
1617,10389693,1.145824,0.05929201,-0.571814,-1.085,-3.3775,-15.295
1618,10389790,1.2402520000000001,0.09052401,-0.5479021,-0.2625,3.8325,-9.975
1619,10389886,1.250256,0.09040201,-0.458354,-14.28,12.775,-20.65
1620,10389983,1.2991780000000002,0.08820599999999999,-0.36051,-24.0275,18.375,-29.0675
1621,10390080,1.348832,0.11467999999999999,-0.28731,-15.575,16.275,-25.2175
1622,10390177,1.287344,0.089914,-0.198982,-0.7875,0.9975,-15.365
1623,10390273,1.107638,0.009272001,-0.196054,3.29,-19.7575,-4.8125
1624,10390370,0.958432,-0.06588,-0.22509,6.335,-34.02,1.75
1625,10390467,0.8781559999999999,-0.11321600000000001,-0.244,7.2625,-36.89,6.6325
1626,10390564,0.792512,-0.091378,-0.251198,5.215,-33.845,15.47
1627,10390660,0.720166,-0.10638399999999999,-0.237168,5.495,-27.125,18.445
1628,10390757,0.656116,-0.137006,-0.229116,3.92,-20.1775,19.215
1629,10390854,0.61122,-0.1403,-0.208498,2.7475,-16.5025,22.365
1630,10390951,0.568276,-0.149816,-0.20483800000000002,1.1375,-14.5425,21.5775
1631,10391047,0.5383861,-0.145058,-0.196298,-2.065,-15.1725,19.565
1632,10391144,0.535946,-0.157746,-0.22277199999999997,-7.2975,-15.7675,16.5375
1633,10391241,0.5388741,-0.176778,-0.22935999999999998,-9.7125,-15.9425,14.2975
1634,10391338,0.533262,-0.16909200000000002,-0.171532,-15.085,-16.4325,12.46
1635,10391434,0.520574,-0.180072,-0.17848599999999998,-30.555,-18.935,9.7125
1636,10391531,0.543998,-0.184586,-0.167384,-37.835,-18.725,6.93
1637,10391628,0.583404,-0.155916,-0.12712400000000001,-36.8725,-14.1225,8.33
1638,10391725,0.612074,-0.122976,-0.12468399999999999,-41.6325,-6.475,10.255
1639,10391821,0.6480640000000001,-0.068564,-0.11333800000000001,-45.36,0.4375,8.47
1640,10391918,0.69479,-0.036722000000000005,-0.09821001,-48.335,5.6175,5.215
1641,10392015,0.719312,-0.034038,-0.07637200000000001,-52.7625,11.1125,2.695
1642,10392112,0.724314,-0.002684,-0.052216,-56.1575,16.9925,1.0325
1643,10392208,0.7489581,0.036966000000000006,-0.012322,-54.565,23.4675,-1.1025
1644,10392305,0.7399300999999999,0.04514,-0.009637999999999999,-50.3825,31.01,-3.7275
1645,10392402,0.74298,0.044652,0.000122,-41.9125,35.8925,-7.5775
1646,10392499,0.7468840999999999,0.062220000000000004,-0.023058000000000002,-34.125,39.2875,-7.4725
1647,10392595,0.789462,0.06746601,-0.035136,-33.6175,35.7875,-5.1625
1648,10392692,0.8797421000000001,0.042822000000000006,-0.06575800000000001,-36.68,26.285,-5.18
1649,10392789,0.998814,0.014884,-0.09698999999999999,-39.06,11.655,-6.1075
1650,10392886,1.151314,0.003172,-0.134688,-45.5525,-10.745,-2.7475
1651,10392982,1.398364,0.07551801,-0.142862,-42.3675,-27.055,-1.575
1652,10393079,1.6437060000000001,0.114802,-0.122366,-30.6425,-30.1175,-4.935
1653,10393176,1.7389880000000002,0.116876,-0.06380599999999999,-15.7675,-24.5875,-6.4575
1654,10393273,1.65737,0.047824,-0.009394,-8.575,-16.8175,0.6125
1655,10393369,1.3266280000000001,0.08784,0.010614,-7.42,-14.3325,9.765
1656,10393466,1.18645,0.087962,0.07490801,-8.5575,-24.325,2.2925
1657,10393563,1.151924,0.072956,0.050996,-15.12,-25.655,-3.57
1658,10393660,1.175592,0.046726,-0.08662001,-16.7475,-22.1025,-0.5775
1659,10393756,1.287954,-0.00671,-0.24851399999999998,-3.2725,-26.9325,-0.14
1660,10393853,1.4875459999999998,-0.068564,-0.38308000000000003,13.93,-40.3375,0.56
1661,10393950,1.514386,-0.045384,-0.570106,16.485,-51.2225,6.545
1662,10394047,1.355298,-0.060024,-0.73505,6.23,-60.6025,15.2075
1663,10394143,1.181082,-0.03538,-0.728096,13.5275,-61.5825,30.275
1664,10394240,1.081896,0.049532,-0.6566041,23.38,-37.275,43.7325
1665,10394337,0.957944,0.172264,-0.6422081000000001,9.4675,6.16,52.325
1666,10394434,0.7714061,0.156526,-0.6124400999999999,-3.885,46.27,50.0675
1667,10394530,0.7017439999999999,0.010614,-0.574254,-1.785,51.4325,49.665
1668,10394627,0.5978,-0.054778,-0.517158,4.8825,25.5675,56.8925
1669,10394724,0.8228901,-0.127368,-0.498004,-11.235,-9.38,44.7825
1670,10394821,1.0911680000000001,-0.152256,-0.614758,-30.485,-8.435,21.91
