,T,ax,ay,az,gx,gy,gz
0,540,0.31158800000000003,-0.06954,-0.7473721,19.7225,-18.97,-17.325
1,692,0.340868,-0.043432,-0.8322841000000001,61.285,-116.5675,-174.23
2,790,0.36478,-0.039772,-0.894748,-25.1475,-102.8125,-361.9875
3,888,0.37502800000000003,-0.032695999999999996,-0.9006040999999999,14.63,-113.015,-86.3625
4,986,0.34892,-0.0183,-0.8959681,-13.755,-19.145,-10.5875
5,1084,0.335256,-0.01098,-0.8949921000000001,-13.475,-17.43,-9.8
6,1182,0.3416,-0.008784,-0.899384,-11.795,-16.24,-9.625
7,1280,0.345016,-0.010492,-0.9028,-9.73,-15.33,-9.3625
8,1378,0.34892,-0.011712,-0.8940161,-8.54,-14.84,-9.205
9,1476,0.345748,-0.00244,-0.898652,-7.4725,-13.4575,-8.89
10,1574,0.33428,-0.00244,-0.902068,-5.2675,-12.32,-8.47
11,1672,0.341844,0.0,-0.9001161,-4.025,-11.9175,-8.47
12,1771,0.34892,-0.0051240009999999996,-0.90036,-2.415,-11.06,-7.9975
13,1869,0.3599,-0.011956,-0.906948,-0.5075,-9.7125,-7.595
14,1967,0.355996,-0.011224,-0.9098761000000001,0.4025,-9.2575,-7.315
15,2065,0.355508,-0.010248,-0.9089001,0.805,-8.9425,-7.0175
16,2163,0.3538,-0.016836,-0.9120720999999999,1.2075,-8.3125,-6.825
17,2261,0.351848,-0.014152000000000001,-0.9089001,1.33,-7.9275,-6.8075
18,2359,0.35502,-0.021228,-0.91012,1.4175,-7.35,-6.6675
19,2457,0.3538,-0.01708,-0.9115840000000001,1.2075,-7.105,-6.6325
20,2555,0.35843600000000003,-0.016104,-0.913048,1.05,-6.9475,-6.5975
21,2653,0.36112,-0.019275999999999998,-0.9145120999999999,1.05,-6.9475,-6.545
22,2751,0.361608,-0.0183,-0.9174399999999999,0.5075,-7.245,-6.755
23,2849,0.360388,-0.019764,-0.9108521,-0.3325,-7.56,-6.93
24,2947,0.35843600000000003,-0.016592,-0.9154880999999999,-0.8575,-7.8925,-7.0525
25,3045,0.35477600000000004,-0.016104,-0.91622,-0.5775,-8.1375,-7.0875
26,3143,0.351116,-0.01708,-0.9137799999999999,-0.56,-8.1025,-7.1225
27,3241,0.351116,-0.01708,-0.9076799999999999,-0.525,-7.8925,-7.2275
28,3339,0.35160399999999997,-0.013175999999999998,-0.9108521,-0.315,-7.14,-6.9475
29,3437,0.35282399999999997,-0.017324000000000003,-0.9147559999999999,0.14,-6.6675,-6.93
30,3535,0.3538,-0.0122,-0.9115840000000001,0.21,-6.545,-6.8075
31,3633,0.354044,-0.017568,-0.9167081,0.28,-6.5625,-6.7725
32,3731,0.355508,-0.015128,-0.9147559999999999,0.175,-6.5275,-6.8425
33,3829,0.35868,-0.017812,-0.9186601000000001,-0.0875,-6.6675,-6.8775
34,3928,0.35258,-0.015128,-0.9171961,-0.315,-6.9125,-6.93
35,4026,0.357704,-0.01586,-0.9167081,-0.6475,-7.1225,-7.1575
36,4124,0.3538,-0.020496,-0.9167081,-1.19,-7.9625,-7.385
37,4222,0.349896,-0.01342,-0.9108521,-2.135,-8.5225,-7.6125
38,4320,0.354532,-0.012688,-0.912316,-2.205,-7.9975,-7.455
39,4418,0.349408,-0.012931999999999999,-0.9154880999999999,-2.1,-7.7875,-7.385
40,4516,0.351116,-0.010736,-0.9171961,-2.03,-7.7,-7.2625
41,4614,0.34892,-0.010004,-0.912316,-1.7675,-7.5075,-7.175
42,4712,0.35136,-0.010248,-0.919392,-1.5925,-7.5075,-7.175
43,4810,0.353068,-0.011468,-0.915976,-1.47,-7.6475,-7.2275
44,4908,0.3416,-0.007564001,-0.9113399999999999,-1.5925,-7.7,-7.28
45,5006,0.34281999999999996,-0.007076001,-0.9091440000000001,-1.05,-7.2625,-7.0175
46,5104,0.34648,-0.009028000999999999,-0.9128040000000001,-0.2275,-6.5625,-6.8425
47,5202,0.346236,-0.0061,-0.9140241,0.3325,-6.055,-6.825
48,5300,0.34867600000000004,-0.012688,-0.9125601000000001,0.945,-5.705,-6.7025
49,5398,0.34794400000000003,-0.008296000999999999,-0.9147559999999999,1.26,-5.565,-6.685
50,5496,0.347456,-0.006587999999999999,-0.9152440000000001,1.5225,-5.3725,-6.615
51,5594,0.352092,-0.009272001,-0.9203680000000001,1.925,-5.25,-6.4925
52,5692,0.354044,-0.017568,-0.9174399999999999,1.8725,-5.32,-6.545
53,5790,0.3538,-0.009028000999999999,-0.91622,1.54,-5.4425,-6.475
54,5888,0.35160399999999997,-0.013908000000000002,-0.9145120999999999,1.575,-5.565,-6.5625
55,5986,0.35038400000000003,-0.014152000000000001,-0.9145120999999999,1.505,-5.775,-6.545
56,6084,0.35477600000000004,-0.013175999999999998,-0.9125601000000001,1.2425,-5.915,-6.51
57,6182,0.354288,-0.011224,-0.9140241,1.225,-5.985,-6.475
58,6280,0.35038400000000003,-0.013663999999999999,-0.9137799999999999,1.19,-6.1425,-6.58
59,6378,0.346724,-0.009028000999999999,-0.9152440000000001,1.1725,-6.125,-6.51
60,6477,0.34257600000000005,-0.009028000999999999,-0.9150001,1.645,-5.985,-6.475
61,6575,0.339404,-0.007320001,-0.9137799999999999,2.24,-5.88,-6.545
62,6673,0.339892,-0.0061,-0.913536,3.0275,-5.565,-6.4925
63,6771,0.337208,-0.004636001,-0.908168,4.13,-5.1975,-6.4575
64,6869,0.32256799999999997,0.004392,-0.9028,5.8275,-4.655,-6.51
65,6967,0.315004,0.012688,-0.89426,8.3125,-3.71,-6.4225
66,7065,0.296704,0.019032,-0.8827921000000001,11.48,-2.1525,-6.405
67,7163,0.262056,0.020496,-0.862296,14.5775,0.9975,-6.125
68,7261,0.25522399999999995,0.017324000000000003,-0.8866961,20.5625,9.2925,-5.005
69,7359,0.09613601,0.037576,-0.8596120999999999,28.875,18.305,-3.3775
70,7457,0.408456,-0.08881599,-0.9208561,26.985,15.155,-4.2875
71,7555,0.45383999999999997,-0.11102000000000001,-0.935984,23.1875,17.08,-3.85
72,7653,0.45335200000000003,-0.089304,-0.944768,17.3425,17.2375,-3.9025
73,7751,0.410408,-0.06466001,-0.916952,12.635,12.95,-4.97
74,7849,0.389912,-0.05856,-0.8913321,11.55,11.2525,-5.39
75,7947,0.34038,-0.037576,-0.8908440999999999,12.705,13.4225,-5.5475
76,8045,0.33623200000000003,-0.056852,-0.8823040000000001,13.825,15.47,-5.74
77,8143,0.3538,-0.029768,-0.9030440000000001,12.7225,17.9725,-5.6
78,8241,0.397964,-0.048068,-0.9076799999999999,12.18,17.4475,-5.6175
79,8339,0.387228,-0.030012,-0.919636,11.0425,15.5575,-5.215
80,8437,0.430904,-0.057584,-0.902068,9.4325,12.4775,-5.145
81,8535,0.40992,-0.038796,-0.9025559999999999,8.8725,10.9025,-4.3225
82,8633,0.44993599999999995,-0.05368,-0.9118280000000001,8.6275,9.555,-3.9025
83,8731,0.46433199999999997,-0.06636801,-0.9093880999999999,7.8225,7.2975,-3.7975
84,8829,0.44237200000000004,-0.069052,-0.9067040000000001,7.0875,4.0425,-4.0425
85,8927,0.423584,-0.064416,-0.9001161,5.6875,1.89,-4.34
86,9025,0.42895200000000006,-0.07198,-0.8874280999999999,5.1975,0.9275,-4.5325
87,9123,0.416996,-0.05856,-0.883036,5.4775,1.4525,-4.2525
88,9221,0.41382399999999997,-0.06466001,-0.8906,5.53,1.89,-4.13
89,9319,0.4148,-0.06466001,-0.8862081,4.97,1.4175,-4.5675
90,9417,0.414312,-0.06636801,-0.8791321,4.585,0.7525,-4.795
91,9515,0.40357600000000005,-0.062220000000000004,-0.88328,4.375,0.98,-4.725
92,9613,0.409188,-0.061488,-0.87718,4.3925,1.365,-4.7075
93,9712,0.4026,-0.060024,-0.8796200000000001,4.9,1.855,-4.6725
94,9810,0.405528,-0.06563601,-0.8759601,5.32,2.8175,-4.6025
95,9908,0.41406800000000005,-0.06954,-0.8805960999999999,5.6,4.2,-4.5675
96,10006,0.419436,-0.07027201,-0.879864,5.9675,4.4625,-4.6725
97,10104,0.413336,-0.07002799999999999,-0.871568,6.3875,4.1125,-4.7075
98,10202,0.40357600000000005,-0.067832,-0.8708360999999999,6.2825,5.075,-4.69
99,10300,0.417972,-0.06954,-0.870592,6.16,5.565,-4.6725
100,10398,0.41455600000000004,-0.066856,-0.8820601,6.37,5.95,-4.6375
101,10496,0.434564,-0.0732,-0.8840120000000001,6.44,5.6175,-4.9875
102,10594,0.43944399999999995,-0.09125599999999999,-0.8740081000000001,6.3875,4.655,-5.2675
103,10692,0.443592,-0.07588400000000001,-0.8788879999999999,5.6,4.3575,-5.705
104,10790,0.449204,-0.062952,-0.8852321,4.13,3.815,-6.2125
105,10888,0.447008,-0.06466001,-0.8827921000000001,4.025,2.0825,-5.985
106,10986,0.44212799999999997,-0.07076001,-0.880352,4.06,0.875,-5.6175
107,11084,0.443592,-0.076616,-0.8788879999999999,3.8325,0.0,-5.5825
108,11182,0.444568,-0.07515201,-0.879864,3.64,-0.7,-5.635
109,11280,0.444324,-0.07637200000000001,-0.877424,3.43,-1.61,-5.88
110,11378,0.439932,-0.082228,-0.871568,3.0975,-2.555,-6.02
111,11476,0.44115200000000004,-0.07832401,-0.8723001,2.7825,-3.185,-6.125
112,11574,0.44164,-0.077592,-0.8723001,2.5375,-3.675,-6.1775
113,11672,0.437492,-0.08052000000000001,-0.873276,2.275,-4.1125,-6.3175
114,11770,0.440176,-0.08052000000000001,-0.8723001,2.135,-4.2525,-6.4575
115,11868,0.439932,-0.077836,-0.869616,2.1175,-4.41,-6.51
116,11966,0.43554,-0.075396,-0.8701040000000001,2.0475,-4.655,-6.51
117,12064,0.43358800000000003,-0.07710399999999999,-0.8674200000000001,1.9775,-4.655,-6.475
118,12162,0.437004,-0.07881200000000001,-0.8671761,1.9425,-4.41,-6.4225
119,12260,0.438468,-0.080276,-0.86864,2.065,-4.1825,-6.3175
120,12358,0.437004,-0.07881200000000001,-0.868884,2.17,-4.1475,-6.2825
121,12456,0.438956,-0.079056,-0.8693719999999999,2.2225,-4.0075,-6.23
122,12554,0.434564,-0.079056,-0.865956,2.3975,-3.9025,-6.125
123,12652,0.43358800000000003,-0.07856801,-0.86498,2.5375,-3.5525,-5.9325
124,12750,0.43188000000000004,-0.081984,-0.8632719999999999,2.8525,-3.325,-5.7925
125,12848,0.43041599999999997,-0.08174001,-0.863028,3.185,-2.8525,-5.6
126,12946,0.431148,-0.081496,-0.8647360000000001,3.5175,-2.31,-5.39
127,13045,0.43627200000000005,-0.081496,-0.8669319999999999,3.8675,-1.8025,-5.3725
128,13143,0.428464,-0.082228,-0.863516,4.165,-1.3825,-5.355
129,13241,0.438224,-0.08442401,-0.8664440000000001,4.5325,-0.595,-5.285
130,13339,0.438956,-0.08808401,-0.868152,4.7075,0.105,-5.2675
131,13437,0.438224,-0.08857201,-0.8632719999999999,4.4975,0.07,-5.3375
132,13535,0.43163599999999996,-0.085156,-0.86498,4.13,0.1925,-5.4775
133,13633,0.456768,-0.092964,-0.863028,3.8675,-0.35,-5.8275
134,13731,0.46042799999999995,-0.091744,-0.865956,3.29,-0.4375,-5.9675
135,13829,0.457988,-0.090768,-0.8669319999999999,2.835,-0.7175,-6.335
136,13927,0.45335200000000003,-0.09028,-0.865956,2.59,-1.2425,-6.615
137,14025,0.454084,-0.08662001,-0.863516,2.2575,-1.75,-6.755
138,14123,0.4553041,-0.086864,-0.8652241,1.9425,-2.1525,-6.8775
139,14221,0.45579200000000003,-0.08344800000000001,-0.8664440000000001,1.7325,-2.7125,-6.8775
140,14319,0.45628,-0.08759601,-0.864492,1.6625,-2.8,-6.825
141,14417,0.453108,-0.084912,-0.8632719999999999,1.68,-3.0275,-6.7725
142,14515,0.454084,-0.08906,-0.8625401,1.715,-3.36,-6.7725
143,14613,0.452376,-0.08881599,-0.862296,1.715,-3.535,-6.825
144,14711,0.45261999999999997,-0.086864,-0.8637601,1.75,-3.465,-6.79
145,14809,0.452376,-0.089304,-0.863028,1.855,-3.5,-6.7725
146,14907,0.454084,-0.08759601,-0.8632719999999999,1.9075,-3.5,-6.7025
147,15005,0.449204,-0.08906,-0.8640040000000001,2.065,-3.465,-6.685
148,15103,0.44896,-0.09052401,-0.8620521000000001,2.4675,-3.2025,-6.8425
149,15201,0.453596,-0.08954801,-0.858392,2.695,-2.7825,-6.965
150,15299,0.4575,-0.090768,-0.862784,2.9925,-2.66,-7.0
151,15397,0.45896400000000004,-0.09125599999999999,-0.8608319999999999,3.0275,-2.905,-7.0525
152,15496,0.460672,-0.09223200000000001,-0.8576601,2.9225,-3.0975,-7.0
153,15594,0.45871999999999996,-0.091744,-0.862296,2.905,-3.36,-6.965
154,15692,0.459208,-0.09223200000000001,-0.8576601,2.4675,-3.4825,-7.07
155,15790,0.45383999999999997,-0.09320801,-0.8601,2.485,-3.5,-7.105
156,15888,0.45286400000000004,-0.096624,-0.859856,2.6425,-3.22,-7.245
157,15986,0.45628,-0.09394001,-0.8601,2.8,-2.9225,-7.315
158,16084,0.464088,-0.09125599999999999,-0.8586360000000001,2.8,-2.7475,-7.315
159,16182,0.465308,-0.090036,-0.8586360000000001,2.87,-2.8175,-7.1925
160,16280,0.46116,-0.09418401,-0.859856,2.7475,-3.08,-7.0875
161,16378,0.461892,-0.09125599999999999,-0.8576601,2.625,-3.325,-7.0525
162,16476,0.461404,-0.094672,-0.8571719999999999,2.485,-3.43,-7.0175
163,16574,0.461404,-0.09320801,-0.8547319999999999,2.31,-3.57,-7.0875
164,16672,0.462868,-0.094916,-0.8601,2.1875,-3.71,-7.035
165,16770,0.461892,-0.09589201,-0.85888,1.995,-3.9025,-7.105
166,16868,0.46481999999999996,-0.09442801,-0.8569280999999999,1.82,-4.06,-7.1575
167,16966,0.462624,-0.094916,-0.8571719999999999,1.75,-4.06,-7.35
168,17064,0.462868,-0.094916,-0.8569280999999999,1.5925,-4.3575,-7.4375
169,17162,0.463844,-0.092964,-0.8576601,1.5225,-4.55,-7.42
170,17260,0.460916,-0.09223200000000001,-0.8544879999999999,1.3475,-4.69,-7.3675
171,17358,0.461892,-0.09345201,-0.8591241,1.26,-4.8475,-7.2975
172,17456,0.46335600000000005,-0.094916,-0.8571719999999999,1.26,-5.075,-7.2975
173,17554,0.4636,-0.09345201,-0.856196,1.12,-5.2675,-7.21
174,17652,0.46506400000000003,-0.095648,-0.855708,1.015,-5.285,-7.1575
175,17750,0.46481999999999996,-0.09345201,-0.8525360000000001,0.8225,-5.39,-7.175
176,17848,0.46628400000000003,-0.093696,-0.8527800999999999,0.7,-5.5475,-7.2275
177,17947,0.46603999999999995,-0.09320801,-0.8540000000000001,0.595,-5.7575,-7.1225
178,18045,0.46481999999999996,-0.09247601,-0.856196,0.63,-6.055,-6.965
179,18143,0.465552,-0.09223200000000001,-0.8554641,0.5775,-6.0725,-6.8775
180,18241,0.46481999999999996,-0.09516001,-0.855708,0.49,-6.1075,-6.895
181,18339,0.45993999999999996,-0.09540401,-0.856684,0.4725,-6.2475,-6.9475
182,18437,0.46164799999999995,-0.09613601,-0.8576601,0.3675,-6.125,-6.9125
183,18535,0.46164799999999995,-0.092964,-0.8552200000000001,0.385,-6.0725,-6.9125
184,18633,0.462624,-0.09345201,-0.8547319999999999,0.4375,-6.0375,-6.8775
185,18731,0.46164799999999995,-0.09442801,-0.8574161,0.385,-6.1075,-6.9475
186,18829,0.461404,-0.09516001,-0.8579041,0.3675,-6.1775,-6.965
187,18927,0.46164799999999995,-0.09125599999999999,-0.856196,0.35,-6.1425,-6.965
188,19025,0.45896400000000004,-0.09540401,-0.8576601,0.3675,-6.23,-6.93
189,19123,0.460672,-0.093696,-0.8559521000000001,0.42,-5.985,-7.0175
190,19221,0.460672,-0.09223200000000001,-0.8527800999999999,0.5775,-5.7225,-7.035
191,19319,0.461404,-0.09028,-0.8569280999999999,0.735,-5.6175,-6.8075
192,19417,0.46042799999999995,-0.08954801,-0.8569280999999999,0.7875,-5.5475,-6.7375
193,19515,0.45993999999999996,-0.09345201,-0.853756,0.7875,-5.3725,-6.755
194,19613,0.460916,-0.094916,-0.8569280999999999,0.945,-5.3725,-6.7725
195,19711,0.461892,-0.09394001,-0.855708,1.1025,-5.3025,-6.825
196,19809,0.46042799999999995,-0.09345201,-0.8554641,1.0675,-5.2325,-6.8775
197,19907,0.460916,-0.09442801,-0.8569280999999999,1.015,-5.075,-6.86
198,20005,0.461404,-0.09394001,-0.858392,1.1025,-5.0575,-6.8425
199,20103,0.46116,-0.09223200000000001,-0.856196,1.2425,-4.97,-6.9125
200,20201,0.46238,-0.092964,-0.8569280999999999,1.2775,-4.8825,-7.035
201,20299,0.463844,-0.09418401,-0.856196,1.295,-4.7075,-6.895
202,20397,0.4636,-0.094916,-0.856196,1.4,-4.83,-6.8775
203,20495,0.46311199999999997,-0.09247601,-0.853024,1.3475,-4.865,-6.7725
204,20593,0.466528,-0.09150001,-0.8544879999999999,1.33,-4.8475,-6.755
205,20691,0.459696,-0.100284,-0.85156,1.2425,-5.005,-6.8075
206,20789,0.464088,-0.091744,-0.854244,1.015,-4.935,-6.7025
207,20887,0.46726,-0.09638,-0.8540000000000001,1.1025,-5.2325,-6.7375
208,20985,0.462624,-0.094916,-0.85888,0.9275,-5.2325,-6.685
209,21083,0.463844,-0.09442801,-0.8574161,0.98,-5.495,-6.79
210,21182,0.46506400000000003,-0.09589201,-0.8544879999999999,0.8575,-5.495,-6.7025
211,21280,0.46457600000000004,-0.09418401,-0.853024,0.77,-5.6875,-6.8425
212,21378,0.46311199999999997,-0.09394001,-0.8579041,0.7875,-5.81,-6.8075
213,21476,0.465552,-0.09320801,-0.856196,0.735,-5.915,-6.8775
214,21574,0.464088,-0.09516001,-0.855708,0.6825,-5.95,-6.79
215,21672,0.465552,-0.09320801,-0.856196,0.63,-5.985,-6.7725
216,21770,0.463844,-0.09516001,-0.8532681000000001,0.6825,-6.1075,-6.755
217,21868,0.46238,-0.09394001,-0.8559521000000001,0.56,-6.195,-6.72
218,21966,0.465552,-0.09394001,-0.854244,0.5775,-6.1425,-6.615
219,22064,0.462868,-0.09394001,-0.8569280999999999,0.5425,-6.2825,-6.685
220,22162,0.46433199999999997,-0.09247601,-0.8544879999999999,0.5075,-6.37,-6.7025
221,22260,0.462624,-0.09418401,-0.8554641,0.42,-6.335,-6.755
222,22358,0.46116,-0.09540401,-0.8581479999999999,0.4375,-6.16,-6.7375
223,22456,0.46164799999999995,-0.09589201,-0.858392,0.4725,-6.09,-6.7725
224,22554,0.46335600000000005,-0.095648,-0.855708,0.4725,-6.0025,-6.8075
225,22652,0.46457600000000004,-0.09638,-0.8532681000000001,0.455,-6.02,-6.825
226,22750,0.46311199999999997,-0.09272000000000001,-0.8554641,0.455,-6.055,-6.8775
227,22848,0.460672,-0.09442801,-0.8554641,0.5425,-6.02,-6.895
228,22946,0.4594521,-0.091988,-0.8544879999999999,0.56,-5.985,-6.8075
229,23044,0.462624,-0.09272000000000001,-0.856196,0.63,-5.7575,-6.8425
230,23142,0.460916,-0.09150001,-0.8547319999999999,0.735,-5.5825,-6.7725
231,23240,0.46335600000000005,-0.092964,-0.8552200000000001,0.805,-5.5825,-6.72
232,23339,0.460916,-0.092964,-0.854244,0.7875,-5.4425,-6.7375
233,23437,0.46238,-0.09394001,-0.8549761,0.8925,-5.39,-6.685
234,23535,0.46238,-0.09735601,-0.853756,0.8400001,-5.285,-6.755
235,23633,0.46457600000000004,-0.09540401,-0.8522921,0.8225,-5.215,-6.6325
236,23731,0.463844,-0.094916,-0.855708,0.8925,-5.285,-6.8425
237,23829,0.4636,-0.092964,-0.853756,0.945,-5.1975,-6.72
238,23927,0.46311199999999997,-0.093696,-0.8552200000000001,0.91,-5.1975,-6.86
239,24025,0.461404,-0.094672,-0.858392,0.8400001,-5.145,-6.8075
240,24123,0.463844,-0.09247601,-0.8549761,0.9275,-5.18,-6.8075
241,24221,0.465308,-0.09394001,-0.853512,1.05,-5.075,-6.7375
242,24319,0.46726,-0.093696,-0.854244,0.98,-5.1625,-6.86
243,24417,0.465552,-0.09516001,-0.8547319999999999,0.8925,-5.3375,-6.7025
244,24515,0.46603999999999995,-0.09442801,-0.8549761,0.98,-5.4775,-6.72
245,24613,0.463844,-0.093696,-0.8508280999999999,0.9275,-5.3725,-6.6325
246,24711,0.465552,-0.09516001,-0.8544879999999999,0.9625,-5.4425,-6.65
247,24809,0.46433199999999997,-0.093696,-0.8525360000000001,0.9625,-5.46,-6.6675
248,24907,0.466528,-0.094916,-0.854244,0.8400001,-5.4075,-6.685
249,25005,0.46506400000000003,-0.09418401,-0.8527800999999999,0.8225,-5.5125,-6.685
250,25104,0.4636,-0.094672,-0.8552200000000001,0.8225,-5.4775,-6.65
251,25202,0.465552,-0.09516001,-0.8540000000000001,0.7175,-5.3725,-6.7725
252,25300,0.465308,-0.09394001,-0.8549761,0.805,-5.495,-6.8425
253,25398,0.465308,-0.094672,-0.8549761,0.7875,-5.425,-6.825
254,25496,0.465552,-0.09540401,-0.8540000000000001,0.7875,-5.6175,-6.8425
255,25594,0.465796,-0.09516001,-0.8540000000000001,0.7525,-5.635,-6.72
256,25692,0.46433199999999997,-0.091744,-0.8549761,0.6825,-5.6875,-6.7025
257,25790,0.46457600000000004,-0.09711201,-0.8544879999999999,0.6475,-5.8275,-6.7025
258,25888,0.465308,-0.09442801,-0.8522921,0.7175,-5.845,-6.6675
259,25986,0.46603999999999995,-0.09394001,-0.853512,0.7,-5.845,-6.7025
260,26084,0.465552,-0.095648,-0.853024,0.6825,-5.845,-6.5975
261,26182,0.46433199999999997,-0.096868,-0.8540000000000001,0.6825,-5.7925,-6.65
262,26280,0.465552,-0.094672,-0.8540000000000001,0.6475,-5.845,-6.72
263,26378,0.462868,-0.09735601,-0.8547319999999999,0.6825,-5.9675,-6.7725
264,26476,0.465552,-0.09540401,-0.854244,0.6125,-5.915,-6.7375
265,26574,0.46603999999999995,-0.09540401,-0.8540000000000001,0.6125,-5.8975,-6.685
266,26672,0.46335600000000005,-0.09711201,-0.8540000000000001,0.56,-6.0025,-6.755
267,26770,0.467016,-0.09442801,-0.854244,0.5775,-6.0725,-6.79
268,26868,0.46603999999999995,-0.09394001,-0.853512,0.525,-6.1075,-6.7375
269,26966,0.46335600000000005,-0.094916,-0.856684,0.4725,-6.1775,-6.8075
270,27064,0.465308,-0.094672,-0.8527800999999999,0.42,-6.125,-6.79
271,27162,0.465552,-0.094672,-0.854244,0.3675,-6.23,-6.825
272,27260,0.462868,-0.09394001,-0.856196,0.3675,-6.2825,-6.755
273,27358,0.46238,-0.09613601,-0.8527800999999999,0.2625,-6.405,-6.755
274,27457,0.46335600000000005,-0.09613601,-0.8544879999999999,0.2275,-6.5625,-6.8075
275,27555,0.465308,-0.09613601,-0.854244,0.21,-6.58,-6.8075
276,27653,0.46164799999999995,-0.094672,-0.8579041,0.1225,-6.5975,-6.93
277,27751,0.462136,-0.09589201,-0.85644,0.175,-6.6325,-6.965
278,27849,0.459696,-0.09516001,-0.8569280999999999,0.0525,-6.5275,-6.9125
279,27947,0.457744,-0.098576,-0.855708,0.14,-6.44,-6.9125
280,28045,0.45871999999999996,-0.09125599999999999,-0.8574161,0.2625,-6.3175,-7.0175
281,28143,0.46164799999999995,-0.094916,-0.854244,0.525,-6.1775,-6.93
282,28241,0.460916,-0.091012,-0.853512,0.5075,-6.0025,-6.8425
283,28339,0.461892,-0.089792,-0.8554641,0.525,-5.845,-6.755
284,28437,0.462624,-0.093696,-0.8547319999999999,0.6125,-5.8625,-6.7375
285,28535,0.45871999999999996,-0.095648,-0.856684,0.5775,-5.7575,-6.65
286,28633,0.462868,-0.094672,-0.854244,0.6125,-5.7575,-6.79
287,28731,0.461892,-0.09247601,-0.855708,0.7,-5.7225,-6.79
288,28829,0.46311199999999997,-0.09223200000000001,-0.855708,0.7,-5.6175,-6.7375
289,28927,0.46018400000000004,-0.09272000000000001,-0.8532681000000001,0.7525,-5.6,-6.8425
290,29025,0.46238,-0.09320801,-0.8554641,0.805,-5.565,-6.8425
291,29123,0.46042799999999995,-0.09345201,-0.8576601,0.77,-5.46,-6.86
292,29221,0.46164799999999995,-0.09272000000000001,-0.856684,0.8400001,-5.4775,-6.8075
293,29319,0.462624,-0.09394001,-0.8554641,0.805,-5.46,-6.79
294,29417,0.463844,-0.092964,-0.8586360000000001,0.7875,-5.53,-6.7725
295,29516,0.461404,-0.09320801,-0.8554641,0.805,-5.705,-6.7375
296,29614,0.4636,-0.09320801,-0.856196,0.8400001,-5.67,-6.755
297,29712,0.46238,-0.09223200000000001,-0.8547319999999999,0.8400001,-5.67,-6.685
298,29810,0.460916,-0.092964,-0.854244,0.7875,-5.6525,-6.5625
299,29908,0.4636,-0.094672,-0.8549761,0.8225,-5.67,-6.685
300,30006,0.46238,-0.09540401,-0.8549761,0.8575,-5.5825,-6.6325
301,30104,0.462624,-0.091744,-0.8552200000000001,0.805,-5.565,-6.6675
302,30202,0.463844,-0.09345201,-0.856196,0.875,-5.495,-6.7375
303,30300,0.46238,-0.09272000000000001,-0.8552200000000001,0.875,-5.4425,-6.7725
304,30398,0.4636,-0.09442801,-0.8552200000000001,0.945,-5.5475,-6.755
305,30496,0.46311199999999997,-0.09320801,-0.8559521000000001,0.8225,-5.355,-6.7025
306,30594,0.46433199999999997,-0.09418401,-0.856196,0.8575,-5.425,-6.755
307,30692,0.46506400000000003,-0.094672,-0.8569280999999999,0.8225,-5.425,-6.825
308,30790,0.465552,-0.09442801,-0.8549761,0.805,-5.5125,-6.79
309,30888,0.462624,-0.092964,-0.8579041,0.8225,-5.565,-6.8425
310,30986,0.46238,-0.09442801,-0.85644,0.77,-5.565,-6.825
311,31084,0.46457600000000004,-0.093696,-0.8554641,0.7525,-5.495,-6.6675
312,31182,0.46238,-0.09711201,-0.8552200000000001,0.7525,-5.5825,-6.755
313,31280,0.463844,-0.09345201,-0.8559521000000001,0.7,-5.6175,-6.86
314,31378,0.464088,-0.09442801,-0.8549761,0.735,-5.5475,-6.8425
315,31476,0.46433199999999997,-0.09442801,-0.8547319999999999,0.6475,-5.635,-6.79
316,31574,0.46433199999999997,-0.09442801,-0.8552200000000001,0.63,-5.6875,-6.7725
317,31672,0.46481999999999996,-0.095648,-0.8554641,0.665,-5.81,-6.7725
318,31770,0.462624,-0.09638,-0.8547319999999999,0.6475,-5.8975,-6.79
319,31868,0.46311199999999997,-0.09345201,-0.8559521000000001,0.6125,-5.845,-6.7725
320,31966,0.463844,-0.094672,-0.8549761,0.6125,-5.845,-6.86
321,32064,0.463844,-0.09418401,-0.8554641,0.63,-5.845,-6.8425
322,32163,0.462868,-0.09394001,-0.8569280999999999,0.56,-5.8275,-6.79
323,32261,0.461404,-0.09345201,-0.8544879999999999,0.6125,-5.845,-6.79
324,32359,0.46164799999999995,-0.09247601,-0.8549761,0.63,-5.7925,-6.755
325,32457,0.46433199999999997,-0.09516001,-0.8554641,0.63,-5.845,-6.65
326,32555,0.463844,-0.09345201,-0.8544879999999999,0.6475,-5.8275,-6.615
327,32653,0.46238,-0.09345201,-0.856196,0.63,-5.9675,-6.65
328,32751,0.46238,-0.093696,-0.8579041,0.63,-6.0025,-6.685
329,32849,0.462624,-0.092964,-0.8547319999999999,0.5775,-5.8975,-6.7725
330,32947,0.462868,-0.092964,-0.8554641,0.5775,-5.985,-6.7725
331,33045,0.46042799999999995,-0.094672,-0.8576601,0.49,-6.02,-6.755
332,33143,0.462624,-0.09345201,-0.858392,0.525,-6.02,-6.7375
333,33241,0.46238,-0.094672,-0.8571719999999999,0.56,-6.09,-6.755
334,33339,0.46042799999999995,-0.09345201,-0.8540000000000001,0.4725,-6.1775,-6.7025
335,33437,0.461404,-0.09418401,-0.8540000000000001,0.56,-6.16,-6.8075
336,33535,0.460916,-0.093696,-0.8554641,0.4725,-6.0375,-6.79
337,33633,0.462868,-0.092964,-0.856684,0.525,-6.055,-6.755
338,33731,0.461892,-0.09320801,-0.8559521000000001,0.5425,-5.9325,-6.685
339,33829,0.462136,-0.09223200000000001,-0.8576601,0.5775,-6.0025,-6.685
340,33927,0.463844,-0.09320801,-0.8571719999999999,0.56,-5.9675,-6.6675
341,34025,0.462868,-0.092964,-0.8552200000000001,0.49,-6.0025,-6.755
342,34123,0.4636,-0.09418401,-0.8544879999999999,0.5075,-6.0025,-6.7025
343,34221,0.462136,-0.092964,-0.854244,0.56,-6.125,-6.685
344,34319,0.460672,-0.092964,-0.8540000000000001,0.4725,-6.0725,-6.7375
345,34418,0.461892,-0.091744,-0.856684,0.5075,-6.125,-6.65
346,34515,0.46042799999999995,-0.09272000000000001,-0.8547319999999999,0.49,-6.055,-6.685
347,34613,0.457012,-0.09442801,-0.8574161,0.5425,-5.9325,-6.7025
348,34712,0.46018400000000004,-0.092964,-0.8544879999999999,0.5775,-5.88,-6.7025
349,34810,0.462624,-0.09589201,-0.8554641,0.6475,-5.8275,-6.8075
350,34908,0.462136,-0.092964,-0.854244,0.7175,-5.705,-6.8075
351,35006,0.462136,-0.09247601,-0.855708,0.6825,-5.6,-6.79
352,35104,0.462868,-0.091988,-0.8554641,0.6825,-5.67,-6.7725
353,35202,0.46116,-0.09516001,-0.8576601,0.7175,-5.635,-6.7725
354,35300,0.462868,-0.09247601,-0.856196,0.63,-5.7225,-6.755
355,35398,0.462624,-0.09320801,-0.855708,0.665,-5.7225,-6.825
356,35496,0.46164799999999995,-0.092964,-0.8547319999999999,0.665,-5.67,-6.7725
357,35594,0.460916,-0.09247601,-0.8554641,0.6125,-5.8275,-6.825
358,35692,0.46238,-0.09150001,-0.856684,0.6125,-5.7925,-6.825
359,35790,0.45993999999999996,-0.091012,-0.8559521000000001,0.6125,-5.8625,-6.9125
360,35888,0.460672,-0.09125599999999999,-0.855708,0.7525,-5.74,-6.86
361,35986,0.46311199999999997,-0.09345201,-0.8554641,0.6475,-5.81,-6.79
362,36084,0.461892,-0.09345201,-0.8574161,0.6475,-5.8275,-6.825
363,36182,0.461892,-0.092964,-0.8549761,0.735,-5.81,-6.72
364,36280,0.461892,-0.091988,-0.8552200000000001,0.735,-5.67,-6.72
365,36378,0.46116,-0.09418401,-0.8554641,0.6825,-5.7225,-6.86
366,36476,0.462868,-0.092964,-0.855708,0.6125,-5.705,-6.9125
367,36574,0.462136,-0.09272000000000001,-0.8547319999999999,0.7,-5.6175,-6.8425
368,36672,0.460916,-0.092964,-0.8549761,0.7525,-5.7575,-6.9125
369,36770,0.46018400000000004,-0.09223200000000001,-0.853756,0.7175,-5.705,-6.8775
370,36868,0.46238,-0.09345201,-0.8552200000000001,0.7,-5.7225,-6.825
371,36966,0.46311199999999997,-0.09223200000000001,-0.8544879999999999,0.7875,-5.6875,-6.825
372,37064,0.46335600000000005,-0.09345201,-0.85644,0.6825,-5.635,-7.0175
373,37162,0.462624,-0.091012,-0.855708,0.6475,-5.6875,-6.825
374,37260,0.46018400000000004,-0.090768,-0.853512,0.77,-5.705,-6.86
375,37358,0.45993999999999996,-0.09150001,-0.8552200000000001,0.77,-5.6875,-6.9125
376,37456,0.46042799999999995,-0.09125599999999999,-0.854244,0.8400001,-5.5825,-6.8075
377,37555,0.46164799999999995,-0.091744,-0.8554641,0.8225,-5.46,-6.7375
378,37653,0.460672,-0.09320801,-0.854244,0.8925,-5.355,-6.7375
379,37751,0.462136,-0.094672,-0.8569280999999999,0.9275,-5.425,-6.755
380,37849,0.46164799999999995,-0.091744,-0.854244,0.8575,-5.5475,-6.825
381,37947,0.460916,-0.09247601,-0.8547319999999999,0.7525,-5.495,-6.755
382,38045,0.46164799999999995,-0.09418401,-0.8571719999999999,0.8400001,-5.6,-6.8075
383,38143,0.46238,-0.09223200000000001,-0.8571719999999999,0.77,-5.635,-6.79
384,38241,0.46481999999999996,-0.093696,-0.8554641,0.7175,-5.7225,-6.755
385,38339,0.46164799999999995,-0.09418401,-0.8559521000000001,0.735,-5.705,-6.7375
386,38437,0.461404,-0.09247601,-0.8569280999999999,0.6475,-5.705,-6.825
387,38535,0.46238,-0.09516001,-0.8571719999999999,0.7525,-5.6525,-6.8425
388,38633,0.463844,-0.09125599999999999,-0.8559521000000001,0.7525,-5.7225,-6.7725
389,38731,0.46116,-0.09272000000000001,-0.8552200000000001,0.91,-5.705,-6.86
390,38829,0.461404,-0.094916,-0.85644,0.8225,-5.5475,-6.825
391,38927,0.460672,-0.09150001,-0.8532681000000001,0.77,-5.53,-6.8425
392,39025,0.46116,-0.09345201,-0.8527800999999999,0.805,-5.4775,-6.7375
393,39123,0.4636,-0.091988,-0.855708,0.9275,-5.46,-6.7375
394,39221,0.46603999999999995,-0.09272000000000001,-0.855708,0.9975,-5.3725,-6.6325
395,39319,0.461892,-0.095648,-0.8552200000000001,1.1375,-5.4075,-6.65
396,39417,0.46335600000000005,-0.09418401,-0.856684,1.225,-5.3375,-6.5975
397,39515,0.46481999999999996,-0.09345201,-0.8574161,1.3475,-5.3375,-6.5625
398,39613,0.46481999999999996,-0.09516001,-0.854244,1.33,-5.46,-6.545
399,39711,0.4636,-0.09613601,-0.8547319999999999,1.3125,-5.5825,-6.5275
400,39809,0.465796,-0.09345201,-0.85644,1.4,-5.53,-6.685
401,39907,0.462624,-0.092964,-0.8581479999999999,1.4875,-5.5825,-6.5625
402,40005,0.466528,-0.095648,-0.8532681000000001,1.505,-5.635,-6.545
403,40103,0.46311199999999997,-0.09638,-0.855708,1.4525,-5.7575,-6.4925
404,40201,0.4594521,-0.09394001,-0.8540000000000001,1.295,-5.74,-6.6325
405,40299,0.461892,-0.091988,-0.853512,1.155,-5.5475,-6.685
406,40397,0.459208,-0.09711201,-0.8540000000000001,1.1725,-5.53,-6.685
407,40495,0.46506400000000003,-0.09516001,-0.853512,0.98,-5.6525,-6.7725
408,40593,0.46164799999999995,-0.09589201,-0.8544879999999999,0.8925,-5.5825,-6.7725
409,40691,0.462624,-0.09638,-0.8527800999999999,0.77,-5.67,-6.755
410,40789,0.4636,-0.093696,-0.8554641,0.7175,-5.8275,-6.86
411,40888,0.462624,-0.09394001,-0.8579041,0.6825,-5.8275,-6.9125
412,40986,0.466528,-0.094672,-0.8554641,0.595,-5.775,-6.93
413,41084,0.46457600000000004,-0.09638,-0.8544879999999999,0.5075,-5.8625,-6.9825
414,41182,0.464088,-0.09638,-0.8532681000000001,0.315,-5.9325,-7.07
415,41280,0.46506400000000003,-0.09711201,-0.8518040000000001,0.1925,-6.2825,-7.07
416,41378,0.461404,-0.096868,-0.856684,0.0175,-6.37,-7.0525
417,41476,0.46018400000000004,-0.094672,-0.856684,-0.0875,-6.51,-7.105
418,41574,0.460916,-0.091988,-0.8547319999999999,-0.1575,-6.4925,-7.0875
419,41672,0.46116,-0.09711201,-0.854244,-0.175,-6.51,-7.0175
420,41770,0.453596,-0.09589201,-0.8549761,-0.175,-6.3525,-7.2275
421,41868,0.456524,-0.09394001,-0.8540000000000001,-0.0875,-6.1425,-7.2625
422,41966,0.46116,-0.090768,-0.8547319999999999,0.07,-5.67,-7.2275
423,42064,0.46116,-0.09223200000000001,-0.854244,0.28,-5.5475,-7.07
424,42162,0.46433199999999997,-0.09272000000000001,-0.855708,0.3675,-5.53,-6.9125
425,42260,0.461892,-0.091988,-0.855708,0.5775,-5.5475,-6.965
426,42358,0.461892,-0.09272000000000001,-0.854244,0.56,-5.6,-6.9125
427,42456,0.463844,-0.092964,-0.8586360000000001,0.56,-5.495,-6.8075
428,42554,0.46311199999999997,-0.091744,-0.856684,0.4725,-5.425,-7.0525
429,42652,0.46238,-0.091988,-0.8547319999999999,0.7525,-5.5125,-6.86
430,42750,0.4636,-0.09345201,-0.8552200000000001,0.9625,-5.6,-6.8425
431,42848,0.461404,-0.091988,-0.8552200000000001,0.9975,-5.7575,-6.79
432,42946,0.46238,-0.09247601,-0.854244,1.0675,-5.775,-6.755
433,43044,0.46311199999999997,-0.094672,-0.8601,1.05,-5.81,-6.86
434,43142,0.46481999999999996,-0.091988,-0.8608319999999999,1.2775,-5.7575,-6.65
435,43240,0.466528,-0.091988,-0.8579041,1.4,-5.9325,-6.5275
436,43338,0.46311199999999997,-0.096624,-0.8554641,1.365,-5.985,-6.51
437,43436,0.46457600000000004,-0.094916,-0.8552200000000001,1.2775,-6.09,-6.6325
438,43534,0.465308,-0.093696,-0.8549761,1.085,-6.23,-6.7375
439,43632,0.46457600000000004,-0.094672,-0.8591241,0.98,-6.125,-6.685
440,43730,0.46726,-0.092964,-0.8581479999999999,1.26,-6.1775,-6.51
441,43828,0.461892,-0.094916,-0.8601,1.5925,-6.2125,-6.3875
442,43927,0.46311199999999997,-0.09784401,-0.8532681000000001,1.645,-6.0375,-6.3
443,44025,0.45896400000000004,-0.099552,-0.8488761,1.3825,-6.125,-6.5625
444,44123,0.458476,-0.094672,-0.846924,1.12,-6.09,-6.51
445,44221,0.45579200000000003,-0.08906,-0.8493641,0.9275,-6.16,-6.37
446,44319,0.45506,-0.09613601,-0.853512,0.9625,-6.3525,-6.0725
447,44417,0.4594521,-0.09052401,-0.855708,0.91,-6.405,-5.9675
448,44515,0.465552,-0.094672,-0.8620521000000001,1.4,-6.3175,-5.845
449,44613,0.467504,-0.096624,-0.8591241,1.9425,-6.265,-5.6
450,44711,0.4743361,-0.08564401,-0.8601,2.2575,-6.51,-5.3025
451,44809,0.467504,-0.091012,-0.861808,2.4675,-7.175,-4.62
452,44907,0.471896,-0.09028,-0.8574161,2.975,-7.875,-4.165
453,45005,0.467992,-0.09882,-0.850096,3.2025,-8.4525,-3.7625
454,45103,0.45725600000000005,-0.110776,-0.854244,2.835,-8.855,-3.5525
455,45201,0.460916,-0.10248,-0.8532681000000001,2.625,-8.7675,-3.675
456,45299,0.453596,-0.107116,-0.8481440999999998,2.59,-9.0475,-3.9025
457,45397,0.45261999999999997,-0.10248,-0.8525360000000001,2.0475,-9.2925,-4.3225
458,45495,0.453108,-0.09418401,-0.8574161,1.61,-9.3275,-4.7075
459,45593,0.45628,-0.08637601,-0.86864,1.5575,-9.2225,-4.6725
460,45691,0.46506400000000003,-0.081984,-0.871568,1.925,-8.4175,-4.095
461,45789,0.45506,-0.09516001,-0.8723001,1.995,-7.91,-3.185
462,45887,0.4553041,-0.102968,-0.8637601,2.1175,-7.5775,-2.9225
463,45985,0.45579200000000003,-0.11321600000000001,-0.853512,1.9775,-7.5775,-2.975
464,46083,0.44822799999999996,-0.10394400000000001,-0.8605879999999999,1.61,-7.8575,-3.2725
465,46181,0.447008,-0.10833599999999999,-0.8549761,1.8025,-7.84,-3.675
466,46279,0.434564,-0.11321600000000001,-0.8488761,1.6975,-7.6825,-4.1825
467,46378,0.433832,-0.10833599999999999,-0.847412,1.1725,-7.14,-4.935
468,46476,0.432856,-0.10809200000000001,-0.8520479999999999,0.7,-6.5275,-5.6875
469,46574,0.43627200000000005,-0.09882,-0.8447280999999999,-0.035,-5.565,-6.3175
470,46672,0.429928,-0.10004,-0.8430200999999999,-0.175,-5.0925,-6.4225
471,46770,0.43773599999999996,-0.10687200000000001,-0.8378960999999999,-0.8575,-4.06,-6.72
472,46868,0.44773999999999997,-0.101504,-0.8510719999999999,-1.96,-3.6225,-7.1925
473,46966,0.4575,-0.102968,-0.854244,-2.555,-3.4825,-7.3675
474,47064,0.45993999999999996,-0.091012,-0.863028,-2.8,-3.885,-7.5425
475,47162,0.429684,-0.08466801,-0.8479,-2.5025,-4.2175,-7.28
476,47260,0.42748800000000003,-0.08954801,-0.8522921,-1.925,-3.29,-6.86
477,47358,0.46921199999999996,-0.085888,-0.86498,-0.875,-1.3825,-6.545
478,47456,0.47555600000000003,-0.105896,-0.86864,1.05,-1.645,-5.985
479,47554,0.472628,-0.107848,-0.868152,1.8375,-1.89,-5.7575
480,47652,0.468724,-0.10906800000000001,-0.8610761,2.7125,-2.6775,-5.7925
481,47750,0.460916,-0.10906800000000001,-0.8596120999999999,2.5725,-3.2025,-6.16
482,47848,0.46506400000000003,-0.098332,-0.858392,2.1175,-3.9725,-6.335
483,47946,0.46481999999999996,-0.10223600000000001,-0.8559521000000001,1.5575,-4.1825,-6.2125
484,48044,0.46164799999999995,-0.10492,-0.8601,2.03,-4.7425,-6.16
485,48142,0.468236,-0.10492,-0.860344,1.7675,-4.6025,-6.405
486,48240,0.462868,-0.10540799999999999,-0.8540000000000001,1.82,-5.18,-6.4575
487,48338,0.458476,-0.101992,-0.8544879999999999,1.4875,-5.5125,-6.4925
488,48437,0.45164399999999993,-0.10418800000000002,-0.8527800999999999,1.4525,-5.6175,-6.5625
489,48535,0.450912,-0.102724,-0.8527800999999999,1.365,-5.3025,-6.615
490,48633,0.45335200000000003,-0.10736,-0.8486319999999999,1.47,-4.8125,-6.65
491,48731,0.44847200000000004,-0.10736,-0.8574161,1.68,-4.4975,-6.7375
492,48829,0.452132,-0.105652,-0.8461921,1.645,-3.815,-6.9825
493,48927,0.454816,-0.108824,-0.8357,0.63,-3.71,-7.4025
494,49025,0.454816,-0.10760399999999999,-0.8425321,-0.5425,-4.97,-7.9625
495,49123,0.45725600000000005,-0.10906800000000001,-0.8464360000000001,-2.2575,-5.2325,-8.7325
496,49221,0.45018,-0.112972,-0.8540000000000001,-2.275,-5.9675,-9.1525
497,49319,0.45164399999999993,-0.108824,-0.8544879999999999,-2.3275,-5.25,-9.8175
498,49417,0.44554399999999994,-0.11053199999999999,-0.85644,-1.7325,-4.4625,-10.3075
499,49515,0.448716,-0.110776,-0.861808,-1.4175,-3.43,-10.745
500,49613,0.449692,-0.114192,-0.8671761,-0.5425,-2.695,-11.48
501,49711,0.466772,-0.10760399999999999,-0.865468,0.4725,-1.4,-12.215
502,49809,0.466772,-0.10321199999999998,-0.8666879999999999,1.54,-0.385,-12.6175
503,49907,0.468236,-0.098088,-0.8676640999999999,3.115,-0.07,-12.7575
504,50005,0.46433199999999997,-0.10052799999999999,-0.870592,3.2375,1.26,-13.195
505,50103,0.45335200000000003,-0.09540401,-0.8759601,4.55,2.87,-14.035
506,50201,0.443592,-0.109556,-0.879864,5.95,6.3175,-15.575
507,50299,0.42944,-0.072712,-0.891576,6.475,10.955,-17.6225
508,50397,0.44554399999999994,-0.09540401,-0.8820601,5.9675,17.0275,-18.2875
509,50495,0.43066000000000004,-0.054655999999999996,-0.89426,6.755,22.5575,-19.46
510,50593,0.452132,-0.068564,-0.9230520000000001,5.8975,27.51,-19.425
511,50692,0.5355800999999999,-0.093696,-0.8927959999999999,0.4725,42.84,-19.0225
512,50790,0.45506,-0.07222401,-0.9089001,-2.6425,58.835,-18.48
513,50888,0.517524,-0.09930800000000001,-0.889624,-0.1575,69.9125,-18.27
514,50986,0.43724799999999997,-0.063196,-0.915976,2.1,81.515,-19.74
515,51084,0.366,-0.032695999999999996,-0.928176,1.54,89.3375,-23.31
516,51182,0.579012,-0.13054000000000002,-0.8735200000000001,-2.94,95.04251,-29.015
517,51280,0.461892,-0.06954,-0.9201241,-1.19,112.105,-32.3225
518,51378,0.6451359999999999,-0.16811600000000002,-0.8637601,3.08,130.2875,-35.9275
519,51476,0.406016,-0.05002,-0.949892,2.8525,157.395,-41.79
520,51574,0.44286000000000003,-0.09613601,-1.013332,3.6925,178.3425,-50.505
521,51672,0.57096,-0.12688,-0.934276,-5.67,202.44,-62.335
522,51770,0.766892,-0.229848,-0.9333,6.2125,236.9675,-69.3175
523,51868,0.574864,-0.205692,-1.0723799999999999,17.8325,287.0175,-71.78501
524,51966,0.7378560000000001,-0.22691999999999998,-1.096048,10.5,334.0225,-74.8825
525,52064,0.771772,-0.16592,-1.099708,-1.89,373.7825,-77.7875
526,52162,0.9054840000000001,-0.255712,-1.2017,6.125,406.84,-78.645
527,52260,0.9774639999999999,-0.07344400000000001,-1.2261,16.5725,419.1775,-80.115
528,52358,1.23098,-0.068564,-2.144028,20.9475,406.9275,-76.965
529,52456,0.562176,-0.023180000000000003,-1.34322,68.04,382.165,-64.505
530,52554,0.5753520000000001,-0.144448,-1.440332,53.0425,364.175,-52.605
531,52652,0.8866961,-0.179584,-1.6387040000000002,-3.325,359.66,-44.7475
532,52750,1.390068,-0.679296,-1.827072,27.0725,373.2575,-24.6575
533,52848,3.995744,-1.576484,-3.7907839999999995,50.1025,346.185,-1.1725
534,52946,1.050176,-1.323944,-3.7532080000000003,16.765,182.8925,-14.63
535,53044,0.5170359999999999,-0.945744,-3.096604,-33.39,72.205,10.8325
536,53142,0.030744,-0.586088,-2.201124,-69.72,-13.545,40.67
537,53240,-0.24107199999999998,-0.285724,-1.642608,-80.3425,-52.675,61.1625
538,53339,-0.269864,-0.062952,-1.4478959999999998,-74.235,-74.76,69.965
539,53437,-0.2196,0.09320801,-1.4010479999999998,-61.005,-93.6775,70.63
540,53535,-0.161528,0.18422,-1.398364,-44.3625,-114.765,66.955
541,53633,-0.135908,0.228872,-1.350296,-28.7525,-139.7725,60.0075
542,53731,-0.11834000000000001,0.25351599999999996,-1.257576,-17.71,-164.815,50.365
543,53829,-0.021716,0.267912,-1.260504,-11.6725,-185.395,39.235
544,53927,0.107116,0.24790399999999999,-1.305644,-9.8525,-205.275,26.9325
545,54025,0.217648,0.193736,-1.297592,-11.5675,-227.29,13.58
546,54123,0.316224,0.12248800000000001,-1.2695319999999999,-15.75,-249.445,1.645
547,54221,0.429684,0.059048,-1.243424,-19.88,-269.255,-7.0875
548,54319,0.5594920999999999,0.011712,-1.21512,-22.75,-286.4925,-11.445
549,54417,0.644404,-0.004148001,-1.10166,-23.695,-301.9975,-12.32
550,54515,0.7129681,-0.05856,-1.118008,-22.1725,-313.53,-12.11
551,54613,0.8054439999999999,-0.11028800000000001,-1.15046,-23.4325,-320.8275,-11.3575
552,54711,0.8718120999999999,-0.152256,-1.199992,-23.0475,-327.565,-7.1925
553,54809,0.9474520000000001,-0.18178,-1.256356,-22.4525,-333.83,-0.7525
554,54907,1.007476,-0.21618400000000002,-1.284904,-21.6825,-339.78,6.335
555,55005,1.045784,-0.195688,-1.288076,-21.7,-343.84,13.16
556,55103,1.071892,-0.09638,-1.247816,-20.9475,-343.1575,18.2525
557,55201,1.093608,0.004148001,-1.198528,-14.49,-337.26,19.18
558,55299,1.166808,0.047336,-1.191208,-2.2575,-325.57,15.89
559,55397,1.320284,-0.027572000000000003,-1.247328,13.4225,-309.68,10.465
560,55495,1.555988,-0.167872,-1.362984,27.7025,-292.6525,7.49
561,55593,1.875384,-0.254004,-1.500356,37.2925,-277.83,11.41
562,55691,2.277984,-0.228384,-1.642608,42.7875,-269.0275,23.3625
563,55789,2.716452,-0.125416,-1.7521639999999998,43.1025,-269.71,37.835
564,55887,3.082208,-0.001952,-1.684088,37.765,-279.1075,48.23
565,55985,3.3181559999999997,0.032208,-1.3764040000000002,29.19,-297.2725,53.7075
566,56083,3.23544,-0.05124001,-0.8210601000000001,13.475,-315.6125,56.6125
567,56181,2.936296,-0.384544,-0.053191999999999996,-11.9875,-319.5325,59.885
568,56279,2.6266599999999998,-0.727364,0.7141881,-57.4875,-296.9575,63.77
569,56378,2.3555759999999997,-0.549488,1.28588,-116.48,-247.2575,68.11
570,56476,2.602992,-0.03538,1.298812,-152.6175,-187.355,61.5825
571,56574,2.851872,0.294996,1.342976,-119.2625,-144.3575,44.415
572,56672,2.879932,0.29524,1.497672,-33.5125,-115.325,31.6925
573,56770,2.739632,0.174216,1.630896,39.41,-84.21,16.975
574,56868,2.59006,-0.021228,1.595516,79.9575,-41.86,1.4875
575,56966,2.503196,-0.268644,1.248304,87.1675,9.5025,-8.05
576,57064,1.3949479999999999,-0.49312399999999995,0.709796,58.6075,60.3225,-15.9425
577,57162,0.121024,0.003904,-1.727032,32.0075,118.9475,-25.4275
578,57260,-1.8229240000000002,0.601704,-1.977132,-5.3725,143.4825,-62.0725
579,57358,-0.656116,-1.185352,0.444812,81.39251,207.55,-49.6475
580,57456,1.286368,-1.374696,-0.395036,61.1625,306.81,-65.835
581,57554,1.9178400000000002,-0.833992,-2.742804,37.17,283.0625,-43.8025
582,57652,1.447652,0.068076,-1.7697319999999999,35.8225,241.01,5.67
583,57750,1.3534680000000001,0.8479,-1.7812,-8.4525,219.9925,-1.645
584,57848,0.927932,0.363804,-1.4208120000000002,27.3,171.325,-2.695
585,57946,0.5363121,-0.141032,-1.0523719999999999,39.41,151.1125,-4.3925
586,58044,0.5404601,-0.252296,-0.978928,50.2075,144.13,0.245
587,58142,0.701256,-0.11345999999999999,-1.041148,51.5375,138.95,4.6375
588,58240,1.0023520000000001,-1.190964,-1.759728,50.225,120.5575,10.0275
589,58338,1.51158,-0.352092,-1.511092,-63.0175,113.61,3.535
590,58436,0.839116,0.562664,-1.390312,-109.865,80.92,-18.5325
591,58534,0.621224,-0.24107199999999998,-1.0018639999999999,-15.9425,26.775,-2.52
592,58632,0.6958880000000001,0.05929201,-1.1163,-28.0,25.6025,-2.1
593,58730,0.5441199999999999,-0.113704,-0.98088,-7.595,7.1925,0.56
594,58828,0.50264,-0.122,-0.960384,4.445,-2.0825,2.5375
595,58926,0.447008,-0.08637601,-0.9198799999999999,4.7425,-4.4275,1.505
596,59025,0.394304,-0.164456,-0.8664440000000001,11.62,-7.1225,2.6425
597,59123,0.43066000000000004,-0.11736400000000001,-0.9032879999999999,9.4675,-4.6725,1.715
598,59221,0.463844,-0.134932,-0.913292,11.7075,-4.2525,1.5575
599,59319,0.49727200000000005,-0.130052,-0.9174399999999999,15.12,-5.495,1.9075
600,59417,0.47067600000000004,-0.139812,-0.89792,18.7075,-8.5225,2.765
601,59515,0.42700000000000005,-0.163236,-0.8666879999999999,21.28,-11.13,3.4125
602,59613,0.426756,-0.17202,-0.860344,20.9825,-11.5325,3.22
603,59711,0.423584,-0.161528,-0.87474,20.6675,-11.865,2.9225
604,59809,0.396256,-0.196176,-0.834968,20.5625,-12.9325,2.7825
605,59907,0.394548,-0.194956,-0.8376520000000001,18.76,-12.81,1.365
606,60005,0.393328,-0.193736,-0.8310639999999999,16.4675,-12.4425,-0.455
607,60103,0.377956,-0.179828,-0.840824,14.315,-12.355,-1.9075
608,60201,0.39894,-0.18056,-0.850096,12.18,-11.48,-3.3425
609,60299,0.39113200000000004,-0.194712,-0.8308200000000001,10.4475,-10.9725,-4.6025
610,60397,0.357704,-0.207156,-0.817156,8.7675,-10.9725,-5.985
611,60495,0.354532,-0.205448,-0.8047121,4.9175,-8.5225,-7.91
612,60593,0.35087199999999996,-0.187636,-0.8215481,0.42,-5.635,-9.6425
613,60691,0.36966,-0.184952,-0.805932,-3.57,-2.24,-10.5525
614,60789,0.331108,-0.21520799999999998,-0.756644,-8.2425,0.665,-11.2
615,60887,0.328424,-0.216428,-0.753228,-15.8375,4.165,-12.9675
616,60985,0.323056,-0.20984,-0.733464,-25.06,8.715,-15.3475
617,61083,0.336964,-0.21520799999999998,-0.784216,-33.5475,12.7225,-17.7975
618,61181,0.384544,-0.166164,-0.8091041,-40.2325,17.0625,-21.105
619,61279,0.35892399999999997,-0.189344,-0.805688,-44.625,19.6875,-23.5375
620,61377,0.359168,-0.177144,-0.802272,-48.335,24.4825,-26.215
621,61475,0.41236000000000006,-0.100772,-0.892064,-51.8175,31.115,-29.1025
622,61573,0.376004,-0.129076,-0.8520479999999999,-47.2325,35.28,-30.4325
623,61671,0.565104,-0.08759601,-0.955992,-40.075,37.3625,-31.9725
624,61769,0.46042799999999995,-0.22033200000000003,-0.9147559999999999,-32.06,34.405,-33.18
625,61867,0.48165600000000003,-0.17763199999999998,-0.9110959999999999,-19.1975,27.37,-35.0175
626,61965,0.486048,-0.102968,-0.9362280000000001,-13.51,27.2825,-37.1525
627,62063,0.5429,-0.063928,-1.01016,4.2,24.8325,-37.31
628,62161,0.535092,-0.024644,-0.9818561,11.725,26.9675,-38.6575
629,62259,0.557296,0.000732,-0.9437921,21.8925,25.375,-39.375
630,62357,0.598288,-0.046848,-0.858392,20.9125,29.2425,-39.41
631,62455,0.456768,0.105896,-0.9291520000000001,22.085,32.13,-39.165
632,62553,0.524356,-0.030987999999999998,-0.8662001,15.155,41.0375,-32.1475
633,62651,0.534848,-0.03294,-0.8808401,9.9925,45.6575,-27.7725
634,62750,0.50752,-0.00488,-0.8862081,9.4325,49.91,-23.1525
635,62848,0.45261999999999997,-0.012444,-0.9982040000000001,9.5725,53.6025,-19.5825
636,62946,0.64782,-0.1769,-0.887916,1.96,93.6775,-12.985
637,63044,0.40821199999999996,-0.0305,-0.9379360000000001,-0.5775,136.85,-10.955
638,63142,0.44725200000000004,-0.10492,-0.916952,16.4325,158.0075,-12.32
639,63240,0.5185,-0.11712,-0.909632,18.0425,193.34,-18.655
640,63338,0.532408,-0.049776,-1.073112,23.5725,231.455,-23.3975
641,63436,0.6463561,-0.100772,-1.0711600000000001,25.235,279.58,-25.13
642,63534,0.640012,-0.156404,-1.0687200000000001,37.6775,342.965,-21.4725
643,63632,0.521184,-0.004148001,-1.1916959999999999,47.285,418.355,-19.495
644,63730,0.49727200000000005,0.041236,-1.295884,47.53,489.02,-17.01
645,63828,0.5673,-0.020252000000000003,-1.318576,51.1525,534.415,-10.99
646,63926,1.3285799999999999,0.0854,-1.469856,61.145,535.7275,2.2925
647,64024,1.68848,-0.023424,-2.2018560000000003,67.3225,502.1625,16.7475
648,64122,0.29158,0.08369201,-1.4635120000000001,114.4675,452.375,19.7575
649,64220,0.599508,0.003172,-1.94346,162.9775,397.46,26.81
650,64318,0.39967199999999997,-0.09979600000000001,-1.80682,179.3925,334.845,33.6525
651,64416,1.176324,-0.6373281,-2.325564,113.6975,301.5425,40.4775
652,64514,5.874788,-2.151348,-4.604036,124.915,249.235,54.6175
653,64612,0.7134560999999999,-1.318332,-3.762236,114.205,96.6,-19.18
654,64710,0.146644,-0.8220360000000001,-2.934344,0.315,6.7025,-28.63
655,64808,-0.35868,-0.46238,-1.975912,-47.04,-53.5675,-13.16
656,64906,-0.405528,-0.285724,-1.730448,-61.495,-66.53501,2.4675
657,65004,-0.182756,-0.196908,-1.8900240000000001,-64.855,-84.91,11.8825
658,65102,-0.04148,-0.085888,-1.945412,-71.2075,-120.96,13.8775
659,65200,-0.01342,0.028304000000000003,-1.7821759999999998,-77.875,-167.3175,11.0425
660,65298,-0.010492,0.132248,-1.522804,-84.7175,-211.435,2.87
661,65396,0.0488,0.208864,-1.315404,-89.4425,-245.6475,-10.465
662,65494,0.148352,0.242048,-1.1831559999999999,-89.2675,-270.7075,-26.3025
663,65592,0.260592,0.24326799999999998,-1.089948,-81.935,-290.85,-41.79
664,65690,0.32818,0.22277199999999997,-0.9745360000000001,-69.335,-307.0025,-55.16
665,65788,0.35746,0.1708,-0.829356,-52.5525,-317.8525,-65.43251
666,65886,0.429196,0.09442801,-0.7788480999999999,-33.6525,-321.895,-71.2775
667,65984,0.547536,0.02806,-0.8559521000000001,-16.24,-322.21,-71.645
668,66082,0.694912,-0.050263999999999996,-0.9974719999999999,-2.7475,-323.61,-68.2675
669,66180,0.8235001000000001,-0.137372,-1.14924,4.935,-328.3175,-63.4025
670,66278,0.8998719999999999,-0.211792,-1.2322,6.58,-336.595,-57.33
671,66376,0.9423280999999999,-0.233996,-1.250988,4.7425,-344.505,-49.595
672,66475,0.9818561,-0.20008,-1.2397639999999999,2.4325,-348.915,-41.23
673,66573,1.051152,-0.15982000000000002,-1.250744,3.71,-349.09,-34.44
674,66671,1.1838879999999998,-0.162748,-1.3054,9.5375,-345.765,-29.9425
675,66769,1.338584,-0.223992,-1.3620079999999999,19.5825,-341.005,-25.7775
676,66867,1.519388,-0.35136,-1.40422,31.71,-335.0025,-19.1625
677,66965,1.77876,-0.527772,-1.4635120000000001,41.1425,-326.8125,-7.7525
678,67063,2.083028,-0.731268,-1.477176,41.6325,-317.7825,8.3475
679,67161,2.448296,-0.75762,-1.4574120000000002,27.8425,-306.8625,28.6125
680,67259,2.851384,-0.488976,-1.4335,11.4625,-295.3825,55.685
681,67357,3.221532,-0.150792,-1.334436,5.25,-290.255,80.675
682,67455,3.4979839999999998,0.0305,-1.03578,9.8525,-294.2975,95.34
683,67553,3.4972519999999996,-0.033428,-0.49702799999999997,15.5925,-302.435,103.075
684,67651,3.168828,-0.341844,0.298412,1.1725,-299.705,104.23
685,67749,2.959476,-0.7137001000000001,1.030168,-46.1825,-272.4225,101.2725
686,67847,2.623,-0.538996,1.59454,-115.1675,-217.5075,98.49
687,67945,2.900428,-0.019764,1.5018200000000002,-165.165,-154.8575,83.4575
688,68043,3.170048,0.271084,1.460584,-146.3175,-111.9475,56.9275
689,68141,3.151992,0.257176,1.5889280000000001,-71.85501,-81.235,34.265
690,68239,2.989244,0.15274400000000002,1.6616400000000002,1.925,-48.405,9.38
691,68337,2.769644,-0.08296,1.488156,58.8,-6.8075,-12.845
692,68435,0.7232161,-0.845216,1.7050720000000001,80.97251,84.4725,1.96
693,68533,0.624396,-0.5846241,-1.90808,-9.0825,161.4025,2.1175
694,68631,-1.009184,0.416996,-3.15614,-60.2175,135.4675,-11.0425
695,68729,-0.23546,-0.42895200000000006,0.1403,50.7325,205.4325,45.36
696,68827,0.936472,-0.8876719999999999,0.35624,121.17,252.455,79.3975
697,68925,1.2261,0.671976,-2.0374,50.435,239.5225,60.34
698,69023,1.0723799999999999,0.967216,-1.779248,40.88,220.43,31.1325
699,69121,1.0230920000000001,0.5009319999999999,-1.2373239999999999,25.515,219.275,-13.4225
700,69219,1.23098,-0.5267960999999999,-1.7936439999999998,40.635,208.8275,-36.2075
701,69317,0.854244,-1.0467600000000001,-0.979416,53.48,180.46,-11.7775
702,69415,0.612684,-0.47043199999999996,-1.0140639999999999,-7.0175,183.365,-6.1775
703,69513,1.72508,0.39967199999999997,-2.6049439999999997,-45.6225,154.0525,2.0125
704,69611,1.316868,0.111996,-0.8437520000000001,-105.7,158.0425,-18.97
705,69709,0.5206960999999999,-0.133712,-0.9247601000000001,18.69,42.735,-9.8
706,69807,0.701012,-0.28914,-0.8959681,-17.7975,59.115,-15.05
707,69905,0.752008,-0.042456,-1.065792,-8.54,29.1725,-19.8625
708,70003,0.7195560000000001,-0.047336,-1.001132,-7.385,15.3125,-17.535
709,70101,0.5489999999999999,-0.041968,-0.9189040999999999,4.095,-1.8375,-13.755
710,70199,0.499224,-0.05856,-0.891576,2.66,-4.27,-11.06
711,70297,0.48312,-0.09516001,-0.88328,3.7975,-5.39,-9.765
712,70396,0.5002,-0.071248,-0.8764481,3.1675,-5.46,-10.15
713,70493,0.48824399999999996,-0.081496,-0.8625401,1.995,-6.16,-9.94
714,70592,0.46774799999999994,-0.084912,-0.8613200000000001,1.8725,-8.19,-9.94
715,70689,0.48726800000000003,-0.07710399999999999,-0.8493641,-0.49,-7.4725,-10.1325
716,70787,0.464088,-0.10638399999999999,-0.8601,-0.1225,-9.275,-9.59
717,70885,0.462868,-0.085888,-0.8701040000000001,-0.9625,-9.0125,-10.43
718,70984,0.444812,-0.06539201,-0.8801081000000001,-0.875,-7.84,-10.3775
719,71082,0.46018400000000004,-0.07564,-0.8647360000000001,-0.4375,-4.4275,-9.2225
720,71180,0.4575,-0.086132,-0.865468,0.595,-2.0825,-8.5575
721,71278,0.45457200000000003,-0.08662001,-0.869128,2.2575,-1.715,-8.8725
722,71376,0.462136,-0.085156,-0.863028,2.66,-0.4725,-9.5025
723,71474,0.45896400000000004,-0.10858,-0.8642481,3.9025,-0.4025,-10.3075
724,71572,0.460672,-0.10418800000000002,-0.8666879999999999,4.0425,0.5775,-11.76
725,71670,0.467016,-0.08662001,-0.8586360000000001,4.0075,1.6625,-12.8625
726,71768,0.472872,-0.06880801,-0.8554641,4.27,2.4325,-12.5475
727,71866,0.466772,-0.081252,-0.8596120999999999,5.4075,2.3275,-11.375
728,71964,0.465796,-0.083204,-0.860344,6.0025,3.3075,-10.885
729,72062,0.444812,-0.07344400000000001,-0.8671761,6.685,4.7075,-11.3225
730,72160,0.457988,-0.09613601,-0.8574161,7.665,6.405,-11.865
731,72258,0.452132,-0.067588,-0.869128,6.4925,7.875,-12.985
732,72356,0.462868,-0.096624,-0.8596120999999999,8.89,8.8725,-13.6675
733,72454,0.462624,-0.101016,-0.853512,8.0325,11.1125,-15.26
734,72552,0.46506400000000003,-0.104676,-0.856196,8.8375,11.865,-17.0275
735,72650,0.466772,-0.08784,-0.853024,8.575,13.6675,-19.11
736,72748,0.510936,-0.080764,-0.8359440999999999,8.33,14.5425,-19.845
737,72846,0.48848800000000003,-0.07344400000000001,-0.8432639999999999,8.26,15.1025,-19.0925
738,72944,0.46603999999999995,-0.080764,-0.8596120999999999,7.98,15.4525,-17.2725
739,73042,0.4819,-0.123464,-0.8657120999999999,5.67,24.5,-16.345
740,73140,0.47775200000000007,-0.119804,-0.892064,0.28,40.53,-17.71
741,73238,0.487512,-0.12566,-0.901336,3.2375,51.7475,-21.2625
742,73336,0.422608,-0.08857201,-0.9037761000000001,2.3975,64.5575,-26.9325
743,73434,0.48726800000000003,-0.069052,-0.865468,-0.5775,73.92,-32.585
744,73532,0.59048,-0.075396,-0.8840120000000001,-3.5875,88.9,-34.2125
745,73630,0.48873199999999994,-0.02684,-0.8918200000000001,5.6875,105.665,-31.465
746,73728,0.467992,-0.033184,-0.8815719999999999,4.9175,123.865,-30.6775
747,73826,0.728096,-0.118828,-0.8579041,4.69,144.55,-30.3625
748,73925,0.22643200000000002,0.082472,-0.9823440999999999,5.0575,173.1625,-30.625
749,74023,0.6439159999999999,-0.129564,-0.9235399999999999,1.8025,191.17,-37.38
750,74121,0.6563601,-0.135664,-0.993568,-0.9275,229.075,-43.6625
751,74219,0.679784,-0.1891,-1.1387479999999999,12.845,287.1225,-45.7275
752,74317,0.4331,-0.15372,-1.122156,18.34,375.1125,-42.735
753,74415,0.6368401,-0.244732,-1.3583479999999999,7.875,453.915,-41.9825
754,74513,0.605364,-0.24766,-1.149728,15.1725,509.67,-43.365
755,74611,0.829356,-0.132492,-1.43716,38.6575,538.1775,-41.44
756,74709,1.438868,0.025131999999999998,-1.518412,59.325,524.8775,-32.06
757,74807,0.442616,0.14518,-1.911984,64.5225,485.695,-27.195
758,74905,0.775188,-0.047824,-1.780468,103.355,427.1225,-16.905
759,75003,0.439932,0.180072,-1.957856,105.8925,391.0375,-23.4325
760,75101,1.147044,-0.215452,-2.1413439999999997,68.075,384.055,-28.0
761,75199,5.666168,-1.240008,-4.77386,112.9975,333.55,7.735
762,75297,0.9967401,-1.4417959999999999,-4.566948,152.2675,137.9,-6.195
763,75395,0.475312,-1.005036,-3.6900120000000003,29.295,11.2175,-14.735
764,75493,-0.11394800000000001,-0.6131721,-2.3968119999999997,-33.7925,-73.02750999999999,4.6725
765,75591,-0.338672,-0.231312,-1.7794919999999999,-61.67,-103.635,29.2775
766,75689,-0.238144,-0.07002799999999999,-1.7040959999999998,-52.5525,-121.31,46.76
767,75787,-0.0671,0.020496,-1.7397200000000002,-38.57,-147.945,54.075
768,75885,0.037088,0.0793,-1.6914080000000002,-31.64,-185.01,54.32
769,75983,0.09223200000000001,0.1403,-1.5469600000000001,-33.53,-224.105,49.0175
770,76081,0.15176800000000001,0.203496,-1.38592,-39.9175,-258.65,39.795
771,76179,0.22814,0.25376,-1.2275639999999999,-46.725,-286.51,27.825
772,76277,0.34038,0.279868,-1.104344,-50.085,-307.3,13.3175
773,76375,0.444568,0.2745,-0.9916161,-47.2325,-323.0675,-1.295
774,76473,0.51972,0.233996,-0.8962120000000001,-38.4825,-334.355,-13.895
775,76571,0.574864,0.181292,-0.831308,-26.8625,-340.62,-23.0475
776,76669,0.6319600000000001,0.119072,-0.828624,-15.82,-342.02,-27.895
777,76767,0.7068681,0.075396,-0.907436,-7.56,-340.3225,-29.4875
778,76865,0.81374,0.019275999999999998,-1.032608,-2.3625,-337.715,-28.3325
779,76963,0.9274440999999999,-0.023424,-1.172908,-0.91,-337.6975,-24.885
780,77061,0.979416,-0.050263999999999996,-1.254648,-2.4325,-340.515,-19.4425
781,77159,0.998692,-0.008540001,-1.299056,-7.1225,-342.895,-13.545
782,77257,1.040904,0.087352,-1.336632,-10.43,-342.8075,-8.6625
783,77355,1.14802,0.179096,-1.391044,-8.12,-340.27,-7.035
784,77453,1.2822200000000001,0.21667199999999998,-1.432524,0.6125,-336.6825,-8.19
785,77551,1.450824,0.156404,-1.4844959999999998,13.4575,-331.4675,-10.5
786,77649,1.677988,0.023668,-1.572336,25.1125,-324.975,-10.57
787,77747,1.957856,-0.08344800000000001,-1.676768,31.6925,-319.2,-4.655
788,77845,2.322636,-0.115656,-1.760216,32.7425,-315.1225,7.9275
789,77943,2.756468,-0.062220000000000004,-1.801452,27.2825,-315.14,23.0475
790,78041,3.145404,0.02196,-1.73606,15.7325,-320.9325,34.3175
791,78140,3.420148,0.028548,-1.410564,1.61,-330.225,36.96
792,78238,3.33304,-0.098332,-0.8210601000000001,-15.33,-337.155,31.85
793,78336,3.108072,-0.393328,-0.05124001,-37.03,-331.835,23.9225
794,78434,2.83162,-0.719312,0.724436,-63.8925,-303.695,21.9275
795,78532,2.75842,-0.48678,1.2383,-96.77501,-249.9175,24.8675
796,78630,3.014376,-0.067588,1.3444399999999999,-103.6525,-192.745,19.4075
797,78728,3.3537800000000004,0.032451999999999995,1.448628,-51.205,-152.005,10.9375
798,78826,3.355488,-0.168848,1.698484,27.405,-120.4,11.9175
799,78924,3.15004,-0.377224,1.9010040000000001,71.2425,-80.955,12.0225
800,79022,2.963868,-0.6512359999999999,1.7863240000000002,84.8925,-26.0575,16.24
801,79120,1.777052,-0.772504,2.660088,68.3025,53.935,25.165
802,79218,1.458388,-1.1041,-0.335256,37.03,178.9725,35.035
803,79316,-1.408124,-0.401136,-2.9872919999999996,-8.6275,144.6375,2.5375
804,79414,-1.5140200000000001,-0.9642879999999999,-1.511824,-7.525,186.5325,7.56
805,79512,1.545984,-0.7869,0.870592,-4.235,305.865,21.21
806,79610,1.104588,0.31451599999999996,-1.502552,7.9275,272.755,40.7225
807,79708,1.322968,1.2900280000000002,-2.334836,-4.9525,248.99,23.9925
808,79806,1.269776,1.136796,-1.52744,-3.71,244.5275,6.895
809,79904,1.152656,0.12980799999999998,-1.607228,22.015,211.82,-18.83
810,80002,0.9706319999999999,-0.457744,-1.341024,32.9175,192.3425,-10.4825
811,80100,0.8615640999999999,-0.046848,-1.308816,15.9775,177.3275,-0.175
812,80198,0.702476,0.238632,-1.098244,3.4125,160.0025,-0.3675
813,80296,0.735416,-0.7178479999999999,-2.1642799999999998,21.2275,138.075,2.24
814,80394,1.119472,-0.532652,-1.01504,-12.7225,100.415,11.235
815,80492,1.048712,0.501908,-2.169892,-104.9475,103.67,-12.495
816,80590,0.54778,-0.023424,-0.8815719999999999,2.31,36.47,-8.9075
817,80688,0.5892601,-0.21301199999999998,-0.961116,-5.8975,34.3175,-3.71
818,80786,0.532896,0.0183,-0.9581881,-3.7625,16.38,-8.1725
819,80884,0.47677600000000003,-0.11955999999999999,-0.918416,-4.725,10.7625,-5.355
820,80982,0.44725200000000004,-0.11126400000000002,-0.8959681,0.63,4.165,-4.6725
821,81081,0.435296,-0.113704,-0.892308,-3.7625,5.2325,-6.44
822,81179,0.42724399999999996,-0.126148,-0.8815719999999999,-0.42,3.64,-8.0325
823,81277,0.46116,-0.080764,-0.879376,-2.4325,5.495,-10.1325
824,81375,0.47384799999999994,-0.08857201,-0.859368,-1.8725,4.13,-10.7975
825,81473,0.47336000000000006,-0.07442,-0.8574161,-3.955,1.4875,-11.1825
826,81571,0.465796,-0.08906,-0.8596120999999999,-6.265,-1.4875,-11.2875
827,81669,0.43505200000000005,-0.10223600000000001,-0.8647360000000001,-7.9975,-3.675,-11.7775
828,81767,0.439688,-0.104432,-0.8676640999999999,-9.345,-3.78,-13.1425
829,81865,0.438956,-0.07832401,-0.879376,-10.045,-2.7825,-14.49
830,81963,0.406748,-0.10052799999999999,-0.8866961,-7.0525,-3.22,-15.085
831,82061,0.49580799999999997,-0.08881599,-0.9098761000000001,-3.955,-0.49,-16.2925
832,82159,0.499468,-0.050263999999999996,-0.889136,-2.0825,-0.8925,-16.835
833,82257,0.44334799999999996,-0.07637200000000001,-0.883524,3.465,-5.9675,-15.5575
834,82355,0.45164399999999993,-0.067832,-0.869616,3.255,-4.5325,-15.7325
835,82453,0.451888,-0.07393200000000001,-0.8671761,3.85,-4.4625,-15.7675
836,82551,0.45725600000000005,-0.07393200000000001,-0.862784,4.2175,-4.2175,-15.575
837,82649,0.454816,-0.056852,-0.8642481,3.745,-4.165,-15.085
838,82747,0.457988,-0.05612,-0.860344,3.2375,-3.8325,-13.8775
839,82845,0.4553041,-0.063928,-0.8708360999999999,2.7825,-3.1675,-12.53
840,82943,0.450424,-0.067832,-0.8701040000000001,2.835,-2.5025,-11.4975
841,83041,0.44652,-0.07832401,-0.8735200000000001,2.6425,-1.2775,-11.55
842,83139,0.43602799999999997,-0.091744,-0.8764481,3.6925,0.455,-12.5125
843,83237,0.43554,-0.09394001,-0.88328,5.215,3.395,-14.735
844,83335,0.43773599999999996,-0.068076,-0.877424,6.9475,7.035,-17.535
845,83433,0.43627200000000005,-0.05587601,-0.8647360000000001,8.5225,9.8,-19.46
846,83531,0.447984,-0.049288,-0.86864,8.8725,12.215,-20.65
847,83629,0.41846000000000005,-0.044652,-0.8735200000000001,10.7625,13.5625,-20.125
848,83727,0.4514,-0.055144000000000006,-0.8759601,10.115,19.775,-17.745
849,83825,0.44164,-0.071004,-0.8930401,10.8675,23.2575,-16.905
850,83923,0.434808,-0.07442,-0.901336,8.82,29.26,-17.8675
851,84022,0.47994799999999993,-0.08369201,-0.8930401,6.5275,36.995,-19.565
852,84120,0.49263599999999996,-0.08857201,-0.8954801,5.5475,57.155,-20.8775
853,84218,0.42724399999999996,-0.006344,-0.960628,-5.25,87.8675,-20.475
854,84316,0.41236000000000006,-0.022203999999999998,-0.9628241,3.3425,96.0925,-19.4775
855,84414,0.49849209999999994,-0.038796,-0.898408,-3.325,108.1325,-20.4225
856,84512,0.563396,-0.085156,-0.8940161,0.6475,123.3925,-21.35
857,84610,0.514352,-0.096868,-0.9025559999999999,12.7925,150.29,-21.525
858,84708,0.5307,-0.081496,-0.9696561,13.72,184.1875,-25.025
859,84806,0.219844,0.026595999999999998,-1.1155680000000001,13.5275,216.545,-31.9725
860,84904,0.466528,-0.137372,-0.9979600000000001,9.555,247.31,-43.855
861,85002,0.6263479999999999,-0.22204000000000002,-1.131428,14.5425,302.505,-52.85
862,85100,0.626104,-0.244,-1.263676,31.9025,391.825,-52.3075
863,85198,0.6456241,-0.23253200000000002,-1.595272,19.32,484.8725,-53.3225
864,85296,0.506788,-0.139324,-1.534516,18.4275,540.4,-52.15
865,85394,1.045296,-0.16104000000000002,-1.624308,42.98,547.295,-42.98
866,85492,1.2261,0.06539201,-2.366556,59.2025,517.37,-33.775
867,85590,0.33818400000000004,0.08784,-1.544032,86.7475,479.6575,-27.965
868,85688,0.347456,0.141032,-1.8656240000000002,103.53,442.855,-23.275
869,85786,1.087996,-0.58194,-2.034716,73.4825,435.8025,-22.995
870,85885,2.37778,-0.217404,-4.691876000000001,55.125,421.3825,-0.315
871,85983,2.0691200000000003,-1.209752,-4.868776,123.9,215.6175,-27.51
872,86081,0.46433199999999997,-1.035536,-3.898876,58.4675,19.1625,-36.4875
873,86179,-0.249612,-0.792024,-2.581276,-11.585,-74.5325,-22.995
874,86277,-0.555832,-0.474092,-1.8048680000000001,-40.0225,-104.9125,2.66
875,86375,-0.442616,-0.26352,-1.747772,-39.2,-110.2675,27.4925
876,86473,-0.200812,-0.128832,-1.8758720000000002,-22.5575,-133.77,45.745
877,86571,-0.08344800000000001,-0.048312,-1.84952,-4.8825,-176.0325,56.7
878,86669,-0.045627999999999995,0.007076001,-1.6574919999999997,1.6975,-220.9375,59.535
879,86767,-0.0034159999999999998,0.09394001,-1.425692,-4.585,-258.195,54.5825
880,86865,0.11224,0.182024,-1.268068,-15.365,-285.6875,44.59
881,86963,0.23887600000000003,0.23911999999999997,-1.156316,-24.1325,-306.915,31.115
882,87061,0.325008,0.255468,-1.02968,-28.7875,-324.4325,14.77
883,87159,0.394304,0.23692399999999997,-0.9242720999999999,-29.5225,-337.1375,-2.3275
884,87257,0.486048,0.188124,-0.879864,-27.4225,-342.8775,-17.395
885,87355,0.592432,0.138836,-0.897432,-21.8575,-344.2425,-28.0
886,87453,0.708332,0.06954,-0.965996,-14.5425,-344.5575,-33.915
887,87551,0.8359440999999999,-0.031476,-1.082384,-6.23,-345.1175,-35.7175
888,87649,0.93086,-0.155184,-1.191208,1.4,-347.4625,-32.2875
889,87747,0.9706319999999999,-0.280844,-1.24318,7.2625,-350.98,-22.2075
890,87845,0.9713639999999999,-0.329644,-1.254892,8.33,-352.2925,-7.3325
891,87943,0.983564,-0.28426,-1.2841719999999999,6.4925,-348.7575,8.7675
892,88041,1.053104,-0.183732,-1.3407799999999999,6.965,-339.92,22.2425
893,88139,1.186816,-0.139324,-1.405928,15.05,-328.685,31.78
894,88237,1.411784,-0.19739600000000002,-1.518168,28.4725,-315.735,38.115
895,88335,1.764852,-0.32696,-1.724348,42.91,-303.1875,45.08
896,88433,2.1947799999999997,-0.430904,-1.981768,52.0275,-296.625,56.4725
897,88532,2.8599240000000004,-0.447008,-2.2728599999999997,51.975,-302.015,71.4875
898,88630,3.3613440000000003,-0.335988,-2.236992,39.025,-321.7025,84.4375
899,88728,3.5375120000000004,-0.229848,-1.6875040000000001,16.5725,-350.0,87.7975
900,88826,3.3859879999999998,-0.23911999999999997,-0.8164239999999999,-13.1075,-368.3925,77.1925
901,88924,3.061712,-0.4148,0.116876,-43.5575,-358.75,62.51
902,89022,2.762812,-0.590968,0.8637601,-68.3025,-317.59,59.36
903,89120,2.858216,-0.304268,1.204872,-90.125,-254.2575,60.7425
904,89218,3.139304,0.107848,1.3139399999999999,-87.6575,-200.375,43.75
905,89316,3.378912,0.22448,1.531344,-31.605,-162.54,24.9725
906,89414,3.366712,0.008784,1.8409799999999998,49.3325,-128.8525,16.59
907,89512,3.204452,-0.27328,2.0337400000000003,94.79751,-85.9425,8.2775
908,89610,2.990708,-0.630984,1.921988,102.8475,-28.0525,6.265
909,89708,2.8469919999999997,-0.9015799999999999,1.452288,74.41,39.515,14.0875
910,89806,1.964932,-1.016504,0.682956,17.99,101.0275,25.3225
911,89904,-0.036844,-1.1065399999999999,-2.7288959999999998,-37.835,129.8675,36.7325
912,90002,-1.209752,0.312808,-2.851872,-114.59,168.21,30.975
913,90100,-1.338584,-0.83204,0.07856801,-52.045,195.16,48.16
914,90198,0.661484,-0.515328,1.192184,-45.6575,315.0,43.995
915,90296,1.582096,1.0401719999999999,-2.121092,-68.5825,326.305,45.815
916,90394,1.35054,1.109224,-1.8465919999999998,18.515,282.1175,70.4725
917,90492,1.591856,2.4551279999999998,-1.77266,-49.07,293.8425,26.5475
918,90590,1.450336,0.791048,-1.8636720000000002,26.95,257.1975,-7.6475
919,90688,1.303204,-0.7259001,-1.350296,68.79251,216.0375,-9.52
920,90786,0.8164239999999999,-0.743468,-1.341512,39.6375,193.9875,2.835
921,90884,1.7836400000000001,-0.3233,-2.915068,-33.4775,166.2675,12.215
922,90982,1.437648,-0.133468,-1.067256,-114.2575,144.1825,-0.315
923,91080,0.44164,0.044407999999999996,-1.106784,-50.295,65.3275,-10.01
924,91178,0.686372,-0.504592,-1.030656,-18.585,42.42,-10.6225
925,91277,0.61854,-0.10687200000000001,-1.029192,-39.8125,38.5875,-24.43
926,91375,0.6414761,-0.013663999999999999,-0.9589200999999999,-25.2175,18.935,-27.58
927,91473,0.50752,-0.022936,-0.9386681,-8.9075,4.13,-22.8375
928,91571,0.480436,-0.0488,-0.9103641,0.455,-1.5575,-19.8975
929,91669,0.47677600000000003,-0.07173600000000001,-0.906216,1.3125,-0.98,-19.565
930,91767,0.5404601,-0.014884,-0.86864,2.065,-1.4525,-19.9675
931,91865,0.515084,-0.01098,-0.870592,-0.315,-3.815,-17.5875
932,91963,0.462136,-0.03416,-0.8840120000000001,3.1325,-8.82,-14.0175
933,92061,0.503128,-0.028548,-0.8491200000000001,-0.9975,-5.3025,-11.6725
934,92159,0.46481999999999996,-0.0732,-0.8610761,-0.42,-7.21,-8.8375
935,92257,0.479216,-0.037576,-0.8581479999999999,-1.1025,-7.6125,-7.8575
936,92355,0.434808,-0.046360000000000005,-0.8866961,-0.1575,-7.9975,-6.16
937,92453,0.44066400000000006,-0.1037,-0.868152,1.855,-5.985,-4.725
938,92551,0.426756,-0.12468399999999999,-0.8718120999999999,1.6625,-3.85,-6.0375
939,92649,0.43676000000000004,-0.09125599999999999,-0.8676640999999999,1.47,-2.8,-8.6625
940,92747,0.44554399999999994,-0.079056,-0.870592,2.0475,-0.9275,-10.185
941,92845,0.453108,-0.0854,-0.862296,5.0925,-0.455,-11.0425
942,92943,0.46506400000000003,-0.079544,-0.853756,7.0175,-0.245,-12.2325
943,93041,0.47043199999999996,-0.055144000000000006,-0.8552200000000001,6.825,-0.6125,-12.6
944,93139,0.461404,-0.06832001,-0.8601,6.79,-1.19,-11.76
945,93237,0.456768,-0.091988,-0.8642481,6.93,-1.3475,-11.4275
946,93335,0.467992,-0.07076001,-0.8605879999999999,6.0725,0.1575,-12.5475
947,93433,0.466528,-0.06929600000000001,-0.8569280999999999,5.88,0.7875,-12.985
948,93531,0.459696,-0.07588400000000001,-0.863028,6.3875,1.085,-13.2475
949,93630,0.451888,-0.077348,-0.871568,6.4925,2.0825,-13.8775
950,93728,0.44652,-0.096868,-0.8662001,7.525,3.71,-14.9625
951,93826,0.443592,-0.044652,-0.87474,7.4725,7.945,-16.9225
952,93924,0.42700000000000005,-0.061975999999999996,-0.868396,12.845,11.165,-17.9025
953,94022,0.46726,-0.066124,-0.853024,10.815,13.965,-18.8825
954,94120,0.472628,-0.06490399999999999,-0.8559521000000001,10.4125,15.085,-18.0425
955,94218,0.45871999999999996,-0.08369201,-0.8601,9.415,16.485,-16.5025
956,94316,0.45164399999999993,-0.10223600000000001,-0.8784,8.6975,19.6525,-16.94
957,94414,0.435296,-0.105652,-0.9113399999999999,8.3825,25.375,-20.02
958,94512,0.460916,-0.12248800000000001,-0.889868,7.0,40.4075,-24.185
959,94610,0.49702799999999997,-0.07564,-0.9015799999999999,-1.4525,61.425,-28.14
960,94708,0.48922,-0.059048,-0.9120720999999999,3.6575,73.115,-29.4
961,94806,0.382836,-0.006344,-0.9418401,2.3625,85.99501,-29.855
962,94904,0.639524,-0.081984,-0.9142680000000001,-0.6125,96.53,-29.54
963,95002,0.528016,-0.039528,-0.9179280000000001,4.375,116.4975,-27.055
964,95100,0.48433999999999994,-0.05172801,-0.882548,12.355,141.9425,-24.9375
965,95198,0.5221600000000001,-0.0793,-0.952332,12.8975,171.6225,-26.32
966,95296,0.277672,0.031476,-1.149484,13.23,204.7675,-30.555
967,95394,0.467016,-0.11394800000000001,-1.048224,12.2325,241.7975,-37.9575
968,95492,0.661972,-0.21618400000000002,-1.1407,18.0075,299.2325,-43.3825
969,95590,0.5489999999999999,-0.179828,-1.346148,37.9225,378.525,-42.28
970,95688,0.6405,-0.16811600000000002,-1.492792,37.7825,460.8975,-40.285
971,95786,0.787388,-0.19251600000000002,-1.522804,40.7925,524.23,-35.63
972,95884,1.0584719999999999,-0.158356,-1.529392,53.9175,550.0075,-30.3275
973,95982,1.470588,0.11028800000000001,-2.589328,47.81,519.4875,-24.7975
974,96080,0.141032,0.11053199999999999,-1.5730680000000001,78.015,460.2675,-12.2675
975,96178,0.349164,-0.16226,-1.8361,72.7825,419.2125,-9.485
976,96276,0.9484280999999999,-0.285968,-2.137196,-1.9425,419.8425,-11.55
977,96374,3.3955040000000003,0.13859200000000002,-4.5549919999999995,-6.23,402.43,4.235
978,96472,1.332484,-0.11955999999999999,-4.944416,65.695,199.99,-48.86
979,96570,0.226188,-0.24082800000000001,-3.7990800000000005,66.6925,22.5225,-64.645
980,96668,-0.422608,-0.446276,-2.38632,58.7475,-65.73,-53.62
981,96766,-0.56852,-0.42578,-1.7970599999999999,40.705,-92.295,-33.2675
982,96864,-0.340624,-0.305976,-1.8419560000000001,11.0075,-103.215,-19.04
983,96962,-0.09882,-0.13664,-1.9724959999999998,-13.72,-128.9575,-10.2725
984,97060,0.005612,-0.044407999999999996,-1.9000279999999998,-20.7025,-172.1825,-4.69
985,97158,0.023912,0.021228,-1.65188,-19.95,-217.5425,-0.91
986,97256,0.055388,0.047336,-1.371524,-15.7675,-255.43,1.085
987,97354,0.134444,0.068076,-1.155584,-12.145,-280.77,1.82
988,97452,0.235704,0.08369201,-1.030656,-8.05,-296.345,2.1525
989,97550,0.335012,0.081984,-0.9774639999999999,-3.5875,-306.565,2.45
990,97648,0.45432799999999995,0.083936,-0.983564,-0.245,-313.915,2.9575
991,97747,0.571448,0.090768,-1.034804,1.2775,-320.6175,3.9725
992,97845,0.676856,0.11102000000000001,-1.068476,0.6125,-327.075,4.7075
993,97943,0.762744,0.14078800000000002,-1.103612,-1.61,-333.2525,4.69
994,98041,0.8420440999999999,0.1586,-1.12972,-3.3775,-338.4675,3.8325
995,98139,0.899384,0.186172,-1.155828,-4.4625,-342.5975,2.975
996,98237,0.918416,0.24351199999999998,-1.179008,-3.9725,-343.9975,2.3275
997,98335,0.953308,0.30622,-1.236104,0.2275,-342.4225,0.98
998,98433,1.0140639999999999,0.346724,-1.327604,9.275,-340.1475,-0.7175
999,98531,1.1004399999999999,0.357948,-1.4112959999999999,21.3325,-337.61,-2.275
1000,98629,1.203408,0.316956,-1.436916,35.63,-333.515,-3.0625
1001,98727,1.35786,0.186416,-1.43838,52.36,-326.6375,-1.5225
1002,98825,1.628212,-0.00366,-1.494988,66.1675,-317.7475,4.025
1003,98923,1.9544400000000002,-0.19983599999999999,-1.56892,70.1225,-309.6975,14.0175
1004,99021,2.3602119999999998,-0.32818,-1.647244,58.9225,-302.435,26.3025
1005,99119,2.761836,-0.371856,-1.6653,33.5125,-297.885,36.9775
1006,99217,3.081476,-0.394548,-1.52988,0.525,-298.6025,41.65
1007,99315,3.223484,-0.423584,-1.1873040000000001,-35.2275,-301.385,37.17
1008,99413,3.108072,-0.5267960999999999,-0.639524,-66.745,-303.9225,25.9175
1009,99511,2.954596,-0.597068,0.057828,-86.415,-297.6925,18.13
1010,99609,2.8125880000000003,-0.43236800000000003,0.7195560000000001,-88.37501,-272.545,20.125
1011,99707,2.967772,-0.14347200000000002,1.121668,-76.02,-235.1125,13.7025
1012,99805,3.113684,0.025376,1.493524,-30.695,-201.18,-2.905
1013,99903,3.214456,-0.14518,1.821704,44.87,-164.8675,-8.47
1014,100001,3.157604,-0.42114399999999996,2.058384,99.5575,-120.3125,-10.7975
1015,100100,3.011692,-0.7239479999999999,2.0886400000000003,115.745,-62.6675,-10.92
1016,100197,2.861144,-1.035292,1.779736,101.3425,4.5675,0.8400001
1017,100295,2.496852,-1.450092,1.3290680000000001,57.785,72.3975,21.8225
1018,100393,0.7625,-1.3827479999999999,-1.291492,-21.84,156.9925,51.73
1019,100491,-0.367464,-0.084912,-3.006324,-99.225,185.185,43.1025
1020,100589,-1.294176,-0.8400921,-1.35176,-59.395,194.145,73.4825
1021,100688,0.8735200000000001,-0.663192,1.013088,-1.1375,303.87,97.12501
1022,100786,1.532808,1.061156,-1.2019440000000001,-22.225,312.2875,114.415
1023,100884,1.49938,1.986404,-2.340936,14.2975,272.3875,106.995
1024,100982,1.355176,2.628368,-1.6567599999999998,-8.8725,264.4075,50.7325
1025,101080,1.515484,1.139968,-1.9720080000000002,47.425,238.665,-15.4525
1026,101178,1.1895,-1.256844,-1.28344,113.2775,193.305,-20.3525
1027,101276,0.9140241,-2.235528,-1.7611919999999999,73.02750999999999,175.84,22.435
1028,101374,1.952732,0.829356,-2.1179200000000002,-134.1725,195.93,4.2175
1029,101472,1.208532,-0.137372,-1.270508,-71.0325,116.1825,-10.115
1030,101570,0.42602399999999996,-0.48433999999999994,-0.8420440999999999,7.4025,36.295,0.5425
1031,101668,0.7141881,0.195444,-1.158268,-64.54,56.175,-19.355
1032,101766,0.576816,-0.23009200000000002,-0.9384239999999999,-18.2875,21.21,-14.0175
1033,101864,0.5516840000000001,-0.03172,-0.9889319999999999,-17.5525,14.1225,-15.295
1034,101962,0.550952,-0.011956,-0.9469641,-13.335,9.17,-15.225
1035,102060,0.44993599999999995,-0.079544,-0.91622,-0.9975,1.295,-11.235
1036,102158,0.489708,-0.07710399999999999,-0.892552,0.385,2.6775,-11.2875
1037,102256,0.46506400000000003,-0.0854,-0.8788879999999999,2.66,1.645,-11.2175
1038,102354,0.443104,-0.05977999999999999,-0.8796200000000001,4.69,-0.2275,-11.305
1039,102452,0.500444,-0.041724000000000004,-0.8640040000000001,3.885,2.0475,-11.0075
1040,102550,0.47482399999999997,-0.100284,-0.853756,5.2675,-0.105,-8.9425
1041,102648,0.450912,-0.089304,-0.8718120999999999,5.3375,-3.3775,-8.785
1042,102746,0.49263599999999996,-0.021716,-0.873764,1.435,-0.8400001,-8.96
1043,102844,0.45554799999999995,-0.08857201,-0.8652241,4.375,-2.4675,-6.2125
1044,102942,0.44554399999999994,-0.122732,-0.8459479999999999,4.1125,-1.8375,-5.5825
1045,103040,0.44554399999999994,-0.11834000000000001,-0.8586360000000001,1.26,-1.505,-7.56
1046,103139,0.44115200000000004,-0.130052,-0.87108,0.5775,-2.03,-9.5375
1047,103236,0.450424,-0.129076,-0.8759601,0.7,-1.785,-11.7425
1048,103334,0.456524,-0.130296,-0.8757159999999999,1.26,-1.82,-14.1225
1049,103432,0.465796,-0.122244,-0.8725440999999999,4.025,-2.065,-16.625
1050,103530,0.47165200000000007,-0.098576,-0.863028,7.14,-2.4325,-18.9
1051,103628,0.45383999999999997,-0.07808001,-0.873764,6.86,-2.5025,-19.985
1052,103726,0.46335600000000005,-0.10052799999999999,-0.8615640999999999,8.19,-2.4325,-20.44
1053,103824,0.468724,-0.07198,-0.863028,6.2475,-0.8575,-21.0525
1054,103922,0.465552,-0.081496,-0.8574161,5.88,-0.8225,-20.5975
1055,104020,0.46774799999999994,-0.065148,-0.8554641,4.9175,-0.2975,-20.335
1056,104119,0.450668,-0.06466001,-0.8701040000000001,4.69,-0.035,-19.5475
1057,104217,0.45383999999999997,-0.094672,-0.8662001,5.215,2.24,-18.6725
1058,104315,0.459696,-0.07832401,-0.86864,6.0725,5.3025,-19.7575
1059,104413,0.42602399999999996,-0.049532,-0.8762040000000001,7.49,8.785,-20.3525
1060,104511,0.45993999999999996,-0.056608000000000006,-0.865956,5.985,11.83,-19.6525
1061,104609,0.465796,-0.068076,-0.85888,5.74,14.105,-18.48
1062,104707,0.471164,-0.080764,-0.8769360999999999,5.11,15.3825,-17.115
1063,104805,0.493856,-0.098088,-0.8720559999999999,1.6625,24.85,-15.9425
1064,104903,0.48995200000000005,-0.11248399999999999,-0.8735200000000001,-2.205,34.9475,-15.2775
1065,105001,0.48165600000000003,-0.112728,-0.894748,-1.295,42.175,-16.485
1066,105099,0.431392,-0.10833599999999999,-0.8913321,-1.9425,52.01,-19.5475
1067,105197,0.40748,-0.090768,-0.9181720999999999,-2.38,60.8825,-25.1125
1068,105295,0.457988,-0.080764,-0.889624,-5.6,69.87751,-31.815
1069,105393,0.5958479999999999,-0.104432,-0.9140241,-9.5725,85.33,-36.3125
1070,105491,0.508252,-0.057096,-0.930616,-1.1025,103.2325,-37.8525
1071,105589,0.43432,-0.005368,-0.916952,-1.715,127.225,-39.27
1072,105687,0.6182960999999999,-0.07856801,-0.9015799999999999,0.91,153.02,-40.8275
1073,105785,0.26718000000000003,0.06490399999999999,-1.074088,2.1175,188.4225,-42.35
1074,105883,0.524112,-0.07637200000000001,-1.057984,4.795,221.725,-46.55
1075,105981,0.6375721,-0.173728,-1.1209360000000002,9.9575,275.94,-47.0575
1076,106079,0.58316,-0.162748,-1.217072,26.2325,350.5075,-45.8325
1077,106177,0.392352,-0.090768,-1.494256,31.71,434.8575,-44.765
1078,106275,0.768112,-0.171532,-1.460828,21.805,501.375,-39.13
1079,106373,0.9882001,-0.017324000000000003,-1.585024,30.625,552.125,-30.1175
1080,106471,1.22854,0.22277199999999997,-1.874652,50.1375,554.68,-19.5825
1081,106569,0.7661600000000001,0.027083999999999997,-1.801696,51.135,503.685,-12.4775
1082,106667,0.790072,0.023180000000000003,-2.0098279999999997,78.1025,448.595,-4.8125
1083,106765,0.306708,-0.1708,-1.405928,93.8525,403.4625,-1.1375
1084,106863,1.069208,-0.34892,-2.079856,11.83,393.645,6.6325
1085,106961,6.102684,-1.22854,-5.2155,76.055,307.4575,18.2175
1086,107059,0.556808,-0.9713639999999999,-4.278784,95.515,103.3725,-16.2575
1087,107157,0.064416,-0.618052,-2.983632,4.235,-13.615,-21.2975
1088,107255,-0.555588,-0.40211199999999997,-1.7863240000000002,-22.4,-75.88,-4.935
1089,107353,-0.5978,-0.243756,-1.436916,-36.015,-78.645,12.005
1090,107451,-0.373076,-0.133468,-1.564284,-39.7775,-77.805,22.1375
1091,107550,-0.14078800000000002,-0.065148,-1.72996,-38.01,-101.43,25.6375
1092,107648,-0.047092,-0.053924,-1.6987279999999998,-35.0,-142.4675,24.675
1093,107746,-0.000976,-0.031232,-1.550864,-38.6225,-184.9925,20.7725
1094,107844,0.06124401,-0.008540001,-1.38836,-45.1325,-221.095,15.2075
1095,107942,0.151036,0.013175999999999998,-1.244888,-51.03,-249.8125,8.785
1096,108040,0.244,0.022936,-1.1333799999999998,-53.935,-272.0025,2.1525
1097,108138,0.327692,0.015128,-1.045784,-52.6925,-289.485,-4.2875
1098,108236,0.42431599999999997,-0.005856,-0.9918600000000001,-47.9675,-302.715,-9.94
1099,108334,0.528992,-0.030256,-0.9784401,-41.4575,-312.9875,-13.7375
1100,108432,0.6273241,-0.0366,-0.9840521000000001,-34.4575,-321.65,-15.645
1101,108530,0.699548,-0.050263999999999996,-0.992592,-27.685,-328.79,-16.695
1102,108628,0.7759199999999999,-0.09223200000000001,-1.024068,-21.735,-333.9175,-17.465
1103,108726,0.8544879999999999,-0.171044,-1.0943399999999999,-17.8675,-337.05,-17.6225
1104,108824,0.9459880999999999,-0.254492,-1.1653440000000002,-16.6075,-339.0625,-15.1725
1105,108922,0.9547720999999999,-0.293532,-1.1890120000000002,-16.8525,-340.095,-9.38
1106,109020,0.9850280999999999,-0.315736,-1.242204,-18.2,-338.5375,-1.6625
1107,109118,1.073112,-0.276208,-1.35542,-17.92,-334.5825,6.79
1108,109216,1.193892,-0.24278000000000002,-1.453264,-11.8125,-330.295,15.0675
1109,109314,1.344684,-0.25376,-1.524756,-0.91,-325.9025,21.9625
1110,109412,1.563552,-0.335988,-1.571848,12.2675,-320.7925,28.525
1111,109510,1.827804,-0.41723999999999994,-1.621868,24.43,-315.2275,37.835
1112,109608,2.3485,-0.426756,-1.766804,32.1475,-311.675,51.835
1113,109706,2.804048,-0.319884,-1.8165799999999999,32.8475,-311.3075,67.3225
1114,109804,3.272284,-0.20008,-1.72996,26.53,-317.2225,76.6325
1115,109902,3.5309239999999997,-0.148352,-1.373964,14.5075,-327.7225,74.4625
1116,110000,3.50262,-0.223992,-0.764696,-5.8625,-336.9275,63.14
1117,110098,3.16834,-0.484584,0.06636801,-32.3925,-333.2875,51.59
1118,110196,2.891644,-0.509228,0.8810841,-68.7575,-302.4175,47.3725
1119,110294,3.0219400000000003,-0.203252,1.281488,-105.7175,-250.2675,37.4675
1120,110392,3.1417439999999996,0.207644,1.598444,-104.6325,-204.505,13.195
1121,110490,3.1998159999999998,0.29036,1.915644,-35.805,-160.8075,0.7875
1122,110588,3.190544,0.11955999999999999,2.0754639999999998,46.585,-114.975,-6.9125
1123,110686,3.096848,-0.07027201,2.019832,93.03,-62.9475,-19.8975
1124,110784,2.9951,-0.335744,1.665788,110.0225,-5.3725,-28.665
1125,110882,2.8618759999999996,-0.715408,1.086776,101.57,50.5575,-28.1575
1126,110980,-0.357216,-1.570384,-0.6912520000000001,59.1325,87.2375,-11.5675
1127,111078,-0.484828,0.25522399999999995,-3.102216,-77.1925,124.5125,-9.66
1128,111176,-1.866844,-0.11126400000000002,-1.0140639999999999,-66.92,144.095,-7.84
1129,111275,-0.343796,-1.4278879999999998,1.861476,63.8225,253.68,33.8975
1130,111373,1.453264,0.082716,-0.984784,16.3975,307.8775,36.05
1131,111471,1.3146719999999998,0.45457200000000003,-2.137684,34.335,270.9175,53.445
1132,111569,1.087264,1.35054,-1.2251239999999999,25.55,260.7675,53.7425
1133,111667,1.43472,1.0384639999999998,-1.827316,39.095,253.505,22.0675
1134,111765,1.2749,-0.023424,-1.780468,72.5025,217.2625,-6.3525
1135,111863,0.998448,-0.826672,-1.111664,85.61,179.7425,0.07
1136,111961,1.0528600000000001,-1.594052,-1.99836,34.1425,164.3075,22.435
1137,112059,1.77998,0.457988,-1.470588,-162.505,162.89,0.35
1138,112157,0.528016,0.060024,-1.281244,-88.44501,69.86,-7.0525
1139,112255,0.657824,-0.171532,-1.0443200000000001,-44.135,35.6825,-4.6025
1140,112353,0.683932,-0.022448,-1.143872,-56.385,33.1625,-12.9325
1141,112451,0.54168,-0.09320801,-0.9884440000000001,-33.6175,14.805,-12.635
1142,112549,0.5192319999999999,-0.04514,-1.000888,-24.0625,6.8425,-12.25
1143,112647,0.49654,-0.034892,-0.9779521000000001,-18.4275,2.6075,-10.885
1144,112745,0.428464,-0.10052799999999999,-0.90646,-7.875,-1.3125,-8.2425
1145,112843,0.43236800000000003,-0.089304,-0.9054840000000001,-5.67,-1.365,-8.365
1146,112941,0.44164,-0.10418800000000002,-0.888648,-2.73,-1.12,-8.7325
1147,113039,0.43334399999999995,-0.090768,-0.8869401,-0.875,-1.2425,-9.2225
1148,113137,0.45871999999999996,-0.040504000000000005,-0.90646,0.525,-1.0675,-9.45
1149,113235,0.48531599999999997,-0.046116000000000004,-0.904752,3.4475,-1.4175,-7.5075
1150,113333,0.43676000000000004,-0.12248800000000001,-0.86864,7.0875,-3.255,-5.1625
1151,113431,0.43188000000000004,-0.100772,-0.862784,6.86,-3.9025,-5.5825
1152,113529,0.43041599999999997,-0.09442801,-0.85888,5.7925,-3.6225,-6.0375
1153,113627,0.407724,-0.09882,-0.855708,5.04,-3.6225,-5.845
1154,113725,0.401624,-0.12078,-0.84546,3.78,-2.4675,-6.265
1155,113823,0.396744,-0.143228,-0.8396040000000001,2.45,-1.33,-7.91
1156,113921,0.384788,-0.11955999999999999,-0.847412,0.595,0.1575,-10.5
1157,114019,0.393816,-0.09930800000000001,-0.8483879999999999,-1.3125,3.08,-12.4075
1158,114117,0.38674000000000003,-0.10540799999999999,-0.8400921,-2.2225,4.9175,-13.405
1159,114215,0.3965,-0.12566,-0.8371639999999999,-3.64,6.615,-14.7
1160,114313,0.4026,-0.127368,-0.850096,-4.655,7.35,-16.7475
1161,114411,0.420412,-0.134932,-0.84546,-5.39,8.4175,-18.9
1162,114509,0.481412,-0.063196,-0.8769360999999999,-5.1625,10.7625,-20.1075
1163,114607,0.490196,-0.047580000000000004,-0.8679081,-2.5025,10.2375,-18.655
1164,114705,0.46628400000000003,-0.066124,-0.8591241,-0.7175,6.9475,-16.065
1165,114803,0.46042799999999995,-0.081984,-0.8522921,-1.085,5.915,-14.6825
1166,114901,0.44652,-0.093696,-0.8547319999999999,-2.0825,5.7575,-14.315
1167,114999,0.423584,-0.11614400000000001,-0.845216,-1.82,6.0375,-15.0325
1168,115098,0.40748,-0.11394800000000001,-0.8481440999999998,-1.855,7.945,-16.625
1169,115196,0.384544,-0.133224,-0.840824,-0.455,10.395,-18.8825
1170,115294,0.377224,-0.1403,-0.8510719999999999,1.8725,14.0,-22.19
1171,115392,0.485804,-0.072712,-0.913292,8.785,16.625,-25.55
1172,115490,0.7129681,-0.13639600000000002,-0.9274440999999999,17.9375,14.35,-26.67
1173,115588,0.540948,-0.08906,-0.8969440000000001,15.96,6.23,-29.4
1174,115686,0.46774799999999994,-0.09394001,-0.9054840000000001,18.0075,3.8675,-31.1325
1175,115784,0.44652,-0.023912,-0.8862081,14.1225,14.2275,-35.77
1176,115882,0.444324,-0.029768,-0.898408,14.77,24.5,-41.335
1177,115980,0.473116,0.022203999999999998,-0.8876719999999999,7.455,37.8525,-37.205
1178,116078,0.50752,-0.010248,-0.9042641,6.5275,45.43,-30.66
1179,116176,0.4594521,0.054167999999999994,-1.053836,5.1625,54.74,-24.675
1180,116274,0.5975560000000001,-0.016347999999999998,-0.9796600000000001,-9.2925,93.03,-15.96
1181,116372,0.457744,0.000976,-0.9591639999999999,-8.3475,120.5225,-10.22
1182,116470,0.459208,-0.036356,-1.0126,-1.225,138.53,-8.505
1183,116568,0.57218,-0.15128,-0.935984,6.335,165.935,-11.8825
1184,116666,0.489708,-0.12712400000000001,-0.9708760000000001,23.485,208.495,-17.115
1185,116764,0.64294,-0.20496,-1.143628,23.8525,259.3325,-25.9525
1186,116862,0.608536,-0.231068,-1.2280520000000001,28.3325,325.6925,-37.45
1187,116960,0.632204,-0.20984,-1.424472,41.195,417.48,-43.3125
1188,117058,0.60268,-0.096868,-1.7021439999999999,49.0,519.8725,-47.53
1189,117156,0.748836,-0.13176,-1.820972,61.0225,570.9375,-44.7475
1190,117254,1.103612,-0.12712400000000001,-1.438868,75.565,570.6925,-32.8475
1191,117352,1.549888,0.018788,-2.169404,74.585,530.74,-18.41
1192,117450,0.42602399999999996,0.374784,-1.7275200000000002,89.3725,473.3225,-15.33
1193,117548,0.334036,-0.02928,-1.8858759999999999,143.2025,414.4175,-5.075
1194,117646,0.6734399999999999,-0.14566800000000002,-1.6291879999999999,145.215,373.17,5.0575
1195,117744,2.6217799999999998,-0.393084,-3.831776,95.4625,358.785,22.0675
1196,117842,2.18502,-1.6775,-4.486184,195.125,187.53,8.89
1197,117941,0.275476,-1.0858,-3.5421480000000005,75.35501,13.475,-40.005
1198,118039,-0.45871999999999996,-0.820816,-2.265784,3.535,-79.135,-33.1275
1199,118137,-0.772992,-0.528504,-1.389092,-24.5,-101.6575,-6.37
1200,118235,-0.5919439999999999,-0.3477,-1.38104,-33.8975,-87.4125,16.625
1201,118333,-0.281088,-0.149816,-1.6433400000000002,-37.275,-91.3675,30.8525
1202,118431,-0.07710399999999999,0.022692,-1.803404,-32.935,-124.635,36.785
1203,118529,0.0122,0.15201199999999998,-1.738256,-28.945,-172.4625,36.295
1204,118627,0.06075601,0.261324,-1.550376,-27.72,-218.6275,30.2225
1205,118725,0.125416,0.349164,-1.358592,-29.3125,-255.6575,19.25
1206,118823,0.24717199999999998,0.410408,-1.238056,-30.45,-282.4325,4.375
1207,118921,0.360144,0.417728,-1.146068,-27.825,-303.0125,-12.39
1208,119019,0.457012,0.381372,-1.060424,-21.9275,-319.41,-28.525
1209,119117,0.560956,0.327936,-1.015772,-15.435,-331.1175,-42.2275
1210,119215,0.6673399999999999,0.28694400000000003,-1.010404,-9.2575,-339.0975,-52.4475
1211,119313,0.762744,0.24351199999999998,-1.030412,-2.975,-344.715,-59.22
1212,119411,0.8571719999999999,0.168848,-1.088484,3.815,-348.46,-63.595
1213,119509,0.9630681000000001,0.08564401,-1.1746159999999999,8.8025,-351.0675,-65.7125
1214,119607,1.0711600000000001,0.014396,-1.281244,13.02,-353.29,-64.9775
1215,119705,1.1385040000000002,-0.02806,-1.3085719999999998,17.0625,-357.6475,-61.46
1216,119803,1.194868,-0.05977999999999999,-1.313208,23.87,-360.0975,-55.405
1217,119901,1.292956,-0.071492,-1.382992,33.67,-358.6275,-48.79
1218,119999,1.5135319999999999,-0.149572,-1.531344,48.86,-354.725,-41.405
1219,120097,1.8361,-0.30378,-1.725324,65.24,-354.2525,-32.305
1220,120195,2.1533,-0.502152,-1.754116,78.6625,-359.2225,-17.7975
1221,120293,2.39608,-0.669048,-1.622844,83.44001,-363.9825,4.1125
1222,120391,2.644228,-0.650016,-1.3703040000000002,75.4075,-361.97,31.4125
1223,120489,2.849432,-0.32086,-1.0972680000000001,62.475,-350.56,61.6
1224,120588,3.121248,0.13908,-0.849608,57.995,-334.2325,87.5525
1225,120686,3.3894040000000003,0.303048,-0.587796,61.635,-320.8625,100.6425
1226,120784,3.429908,0.152256,-0.127368,56.0,-307.16,100.0825
1227,120882,3.110024,-0.20861999999999997,0.61122,25.5325,-284.2875,93.1875
1228,120980,2.727432,-0.5382640000000001,1.311012,-30.6775,-242.515,89.635
1229,121078,2.7969720000000002,-0.13761600000000002,1.4713200000000002,-102.41,-176.015,84.14001
1230,121176,3.088796,0.39771999999999996,1.38714,-131.145,-120.8025,59.7625
1231,121274,3.245688,0.562664,1.45058,-83.30001,-86.0825,34.3525
1232,121372,3.09758,0.47165200000000007,1.605276,-6.895,-58.345,12.3725
1233,121470,2.921412,0.309148,1.575508,44.135,-20.4575,-12.18
1234,121568,2.77916,0.03294,1.247084,70.525,26.985,-27.6675
1235,121666,2.649352,-0.273768,0.7549359999999999,67.34000999999999,74.9175,-33.9325
1236,121764,0.8759601,-1.270996,-0.281088,39.3575,111.5975,-34.8425
1237,121862,-1.365668,-1.010648,-4.88854,-9.975,71.505,-5.7225
1238,121960,-2.733532,0.367952,-3.109292,-125.9475,130.7425,-3.7275
1239,122058,-1.616256,-1.307352,1.7631439999999998,16.17,185.7625,32.7425
1240,122156,1.054812,-0.396988,1.505968,-19.39,337.1025,26.2675
1241,122254,1.6501720000000002,0.9564799999999999,-3.22568,-35.5425,316.3825,6.3
1242,122352,1.3054,0.830576,-1.143872,66.36,277.305,39.1825
1243,122450,1.8458599999999998,1.309304,-1.883436,12.705,297.7625,19.5125
1244,122548,1.323456,-0.42114399999999996,-1.624552,66.885,238.9625,-8.4175
1245,122646,1.211216,-2.000068,-1.557452,11.69,206.675,16.765
1246,122744,2.136952,1.203408,-2.988756,-218.4,224.5425,-20.615
1247,122842,1.040416,0.563884,-1.239032,-130.375,125.58,-39.3225
1248,122940,0.907436,-0.418704,-1.169736,0.315,37.66,-0.5775
1249,123038,0.6919841,0.044652,-1.01748,-54.2325,45.85,-14.385
1250,123136,0.6283,-0.25742,-1.019676,-12.74,15.1025,-12.11
1251,123234,0.5653481,0.004148001,-0.99918,-13.4225,12.215,-15.8375
1252,123333,0.511668,-0.09345201,-0.9274440999999999,-4.7425,8.4175,-15.4525
1253,123431,0.5043479999999999,-0.05636401,-0.9030440000000001,2.7475,5.0225,-14.9275
1254,123529,0.5165481,-0.04392,-0.8862081,3.395,5.3375,-14.595
1255,123627,0.499468,-0.0244,-0.8847440999999999,7.3325,1.68,-12.9325
1256,123725,0.542168,-0.044407999999999996,-0.855708,7.3675,1.68,-10.7275
1257,123823,0.48068,-0.067588,-0.8744960999999999,8.1725,-1.26,-8.1375
1258,123921,0.49605200000000005,-0.049776,-0.865956,7.175,-1.5575,-7.4375
1259,124019,0.486292,-0.043676,-0.871568,5.7925,-0.1575,-5.88
1260,124117,0.463844,-0.07686,-0.863028,6.8075,-0.5425,-3.71
1261,124215,0.47482399999999997,-0.08369201,-0.8544879999999999,4.5675,0.7175,-3.185
1262,124313,0.47458,-0.082472,-0.853512,4.1825,0.8575,-2.8875
1263,124411,0.470188,-0.098088,-0.849608,3.885,0.9975,-2.625
1264,124509,0.462868,-0.10687200000000001,-0.8510719999999999,3.6575,1.5225,-3.22
1265,124607,0.463844,-0.116388,-0.8508280999999999,3.745,1.9075,-4.6375
1266,124705,0.47043199999999996,-0.110044,-0.8483879999999999,3.6575,2.5025,-6.37
1267,124803,0.474092,-0.104432,-0.8439959999999999,3.7275,2.6775,-7.6475
1268,124901,0.4758,-0.098088,-0.845216,3.4125,2.66,-8.6975
1269,124999,0.47823999999999994,-0.098332,-0.840824,3.2375,2.24,-9.275
1270,125097,0.478484,-0.092964,-0.8422879999999999,2.905,1.89,-9.66
1271,125195,0.48385200000000006,-0.09247601,-0.8378960999999999,2.52,1.435,-9.905
1272,125293,0.483608,-0.09247601,-0.8371639999999999,2.345,0.7875,-9.8175
1273,125391,0.488,-0.081496,-0.8383841000000001,2.1,0.105,-9.695
1274,125489,0.490196,-0.07027201,-0.83814,1.9425,-0.9625,-9.2225
1275,125587,0.48848800000000003,-0.07637200000000001,-0.8422879999999999,2.1525,-2.2925,-8.2775
1276,125685,0.48531599999999997,-0.083936,-0.843508,2.1175,-2.905,-7.5775
1277,125783,0.47653199999999996,-0.08857201,-0.8491200000000001,2.3625,-2.905,-7.5075
1278,125881,0.4758,-0.09272000000000001,-0.844972,2.5725,-2.17,-7.9275
1279,125979,0.48214399999999996,-0.094672,-0.8410681000000001,2.7825,-1.4875,-8.435
1280,126077,0.47482399999999997,-0.077348,-0.8413120000000001,2.625,-0.875,-8.47
1281,126176,0.483608,-0.09028,-0.837408,1.9775,-0.525,-8.645
1282,126274,0.487756,-0.083204,-0.8549761,0.6825,-0.28,-8.8375
1283,126372,0.472384,-0.09638,-0.8549761,0.8575,0.0175,-8.82
1284,126470,0.457744,-0.100772,-0.8679081,0.2975,3.08,-9.555
1285,126568,0.452376,-0.10809200000000001,-0.8805960999999999,1.575,7.9625,-11.41
1286,126666,0.47092,-0.09418401,-0.879864,-1.155,20.0025,-13.3875
1287,126764,0.489464,-0.101992,-0.8781559999999999,-1.3825,29.5925,-15.1025
1288,126862,0.48092399999999996,-0.064416,-0.88328,-1.7325,40.3025,-15.5575
1289,126960,0.477996,-0.043676,-0.8918200000000001,-0.8925,50.575,-14.8925
1290,127058,0.509472,-0.037088,-0.9079241,-3.43,62.02,-13.6325
1291,127156,0.5219159999999999,-0.051972000000000004,-0.90402,-3.675,74.83,-10.9375
1292,127254,0.6280560000000001,-0.12688,-0.892308,1.435,90.79,-7.8925
1293,127352,0.48678,-0.036112,-0.9564799999999999,9.66,112.595,-6.09
1294,127450,0.514352,-0.079544,-0.9864921,10.675,138.7225,-6.09
1295,127548,0.5233800000000001,-0.09223200000000001,-1.042856,16.3275,173.075,-7.14
1296,127646,0.596092,-0.111508,-1.079212,18.095,217.8575,-10.57
1297,127744,0.549488,-0.07588400000000001,-1.2153639999999999,27.9825,277.3225,-9.8875
1298,127842,0.5321640000000001,-0.004636001,-1.407148,41.1775,346.745,-8.05
1299,127940,0.549244,0.032208,-1.565748,62.4925,414.785,-5.2325
1300,128038,0.698328,0.189832,-1.666032,92.75001,465.64,3.71
1301,128136,1.1041,0.447008,-1.9768880000000002,158.305,468.79,24.64
1302,128234,1.5469600000000001,0.359168,-2.280912,242.83,423.535,48.8425
1303,128332,-0.05002,0.525576,-1.674084,346.22,369.2325,58.0125
1304,128430,0.37576,0.41577600000000003,-1.477908,426.9825,319.06,46.2875
1305,128528,0.1647,0.24936799999999998,-1.476932,448.3675,279.4925,25.69
1306,128626,0.774212,0.068564,-2.5683439999999997,392.805,233.975,3.7275
1307,128724,3.616568,-0.91012,-3.8839919999999997,428.995,133.1225,-50.5575
1308,128822,0.38503200000000004,-0.642452,-3.242028,325.3775,-1.5925,-164.4125
1309,128920,-0.25522399999999995,-0.667096,-2.282132,262.0625,-86.625,-190.225
1310,129018,-0.595604,-0.724924,-1.379576,202.2125,-130.9875,-175.5775
1311,129116,-0.548268,-0.74298,-1.09312,165.3575,-127.9075,-139.4575
1312,129214,-0.35892399999999997,-0.567056,-1.2688,128.485,-121.135,-103.95
1313,129312,-0.1342,-0.252052,-1.4034879999999998,104.1775,-133.2275,-73.955
1314,129410,0.033672,0.06636801,-1.464732,104.6325,-160.02,-41.405
1315,129508,0.09272000000000001,0.340136,-1.37006,118.125,-191.1525,-16.065
1316,129606,0.194956,0.569984,-1.295152,134.9075,-219.1175,-1.435
1317,129704,0.340868,0.7176041,-1.272948,148.8025,-241.535,4.1475
1318,129802,0.5119121,0.779092,-1.3022280000000002,154.6125,-263.4275,2.3975
1319,129901,0.686372,0.818132,-1.310768,148.8375,-285.915,-2.8175
1320,129999,0.792024,0.9086559999999999,-1.246108,134.085,-307.51,-8.68
1321,130097,0.873764,1.077016,-1.1392360000000001,117.95,-325.0975,-13.5275
1322,130195,0.9572120999999999,1.3176,-1.0589600000000001,106.855,-338.4325,-19.145
1323,130293,1.042612,1.586488,-1.054812,102.795,-348.4425,-29.9075
1324,130391,1.1538760000000001,1.83732,-1.1033680000000001,105.4375,-356.895,-51.2225
1325,130489,1.297592,1.98738,-1.131184,116.445,-366.345,-85.155
1326,130587,1.396656,1.9890880000000002,-1.051152,139.16,-377.685,-126.28
1327,130685,1.434476,1.8583040000000002,-0.8298440999999999,169.8375,-385.56,-165.5675
1328,130783,1.420324,1.666764,-0.485804,198.7125,-380.0125,-197.6625
1329,130881,1.5225600000000001,1.365912,-0.48922,220.7625,-360.6225,-219.6775
1330,130979,1.550132,1.08336,-0.490684,224.1225,-333.4275,-231.5075
1331,131077,1.5603799999999999,0.928176,-0.59048,211.4,-303.59,-238.8575
1332,131175,1.7909599999999999,0.853024,-0.877912,194.39,-275.4675,-243.8975
1333,131273,2.164524,0.793488,-1.10776,187.5125,-257.1975,-244.0375
1334,131371,2.341424,0.743224,-0.8105680000000001,190.855,-252.875,-239.8025
1335,131469,2.309216,0.711504,-0.266692,200.0775,-246.33,-230.65
1336,131567,2.329224,0.673928,0.12761199999999998,210.35,-224.2625,-217.5075
1337,131665,2.394372,0.559248,0.364536,217.4025,-190.9775,-203.105
1338,131763,2.434632,0.353068,0.562664,217.595,-152.705,-185.29
1339,131861,2.440244,0.0051240009999999996,0.791048,213.5,-112.525,-156.31
1340,131959,2.358748,-0.432856,1.0187,202.3875,-72.17,-111.965
1341,132057,2.34484,-0.752984,0.9516,175.21,-30.0475,-58.2225
1342,132155,2.631052,-1.098488,0.8166680000000001,96.145,9.065,-9.3625
1343,132253,2.9441040000000003,0.8559521000000001,0.9274440999999999,-220.1325,97.5625,-59.115
1344,132351,2.6901,1.282708,1.0797,-292.1625,126.175,-98.455
1345,132449,2.81088,0.0305,-1.9132040000000001,-359.3975,108.5,-121.03
1346,132547,0.288896,0.36575599999999997,-1.323456,-277.8125,3.71,-109.865
1347,132646,-0.163724,1.105564,-1.4959639999999998,-237.37,15.4875,-98.96251
1348,132744,0.399428,0.10906800000000001,-0.9784401,-153.37,42.5775,-108.4825
1349,132842,1.1777879999999998,0.744688,-1.845616,-74.865,41.475,-105.7
1350,132940,0.8586360000000001,0.125416,-1.20658,15.1725,18.6025,-78.7325
1351,133038,0.863028,0.15616,-0.86498,34.5275,1.61,-54.9675
1352,133136,0.5914560000000001,0.122,-0.9623360999999999,20.3,-12.81,-36.8025
1353,133234,0.533628,0.009028000999999999,-0.8906,21.8925,-22.015,-23.66
1354,133332,0.55632,-0.031232,-0.862784,4.0075,-17.7275,-17.7275
1355,133430,0.466528,-0.083204,-0.8752280000000001,5.2675,-24.36,-14.1925
1356,133528,0.43554,-0.096868,-0.8559521000000001,-0.455,-20.055,-12.8975
1357,133626,0.427976,-0.083204,-0.8620521000000001,-2.9225,-15.6625,-12.355
1358,133724,0.45871999999999996,-0.102968,-0.8664440000000001,-2.52,-11.655,-11.2175
1359,133822,0.45554799999999995,-0.094916,-0.868152,-0.735,-9.345,-10.6225
1360,133920,0.47384799999999994,-0.09320801,-0.8601,-0.525,-6.685,-9.8
1361,134018,0.4697,-0.11541199999999999,-0.8527800999999999,-0.175,-5.2675,-8.1725
1362,134116,0.47506800000000005,-0.10394400000000001,-0.8476561,-0.3675,-4.865,-7.8925
1363,134214,0.47653199999999996,-0.10052799999999999,-0.854244,-1.68,-4.6025,-7.455
1364,134312,0.47360399999999997,-0.105896,-0.855708,-1.645,-4.9175,-6.8425
1365,134410,0.469944,-0.102724,-0.8552200000000001,-1.995,-4.9,-6.2475
1366,134508,0.46726,-0.109556,-0.85888,-1.9075,-4.6725,-5.81
1367,134606,0.46238,-0.10906800000000001,-0.8571719999999999,-1.8725,-4.305,-5.6875
1368,134704,0.460916,-0.105652,-0.8549761,-1.225,-3.99,-5.425
1369,134802,0.458232,-0.10321199999999998,-0.8547319999999999,-0.525,-3.535,-5.2325
1370,134900,0.45993999999999996,-0.105896,-0.855708,-0.3325,-3.0625,-5.0925
1371,134998,0.46018400000000004,-0.110044,-0.8586360000000001,0.035,-2.6075,-5.0575
1372,135096,0.46481999999999996,-0.11224,-0.8520479999999999,0.3325,-2.205,-5.145
1373,135194,0.463844,-0.11467999999999999,-0.8479,0.6475,-2.0125,-5.215
1374,135293,0.46481999999999996,-0.114924,-0.8522921,1.05,-2.345,-5.355
1375,135391,0.478972,-0.128832,-0.889624,1.3475,-2.4675,-5.39
1376,135489,0.471164,-0.067832,-0.8713241,1.96,-2.625,-5.6
1377,135587,0.449204,-0.1159,-0.853756,2.345,-2.8875,-5.4425
1378,135685,0.46726,-0.122732,-0.8459479999999999,1.1375,-2.415,-6.3875
1379,135783,0.47555600000000003,-0.11467999999999999,-0.85034,1.96,-3.745,-6.9475
1380,135881,0.468236,-0.119316,-0.847412,1.5575,-4.3925,-7.2975
1381,135979,0.4697,-0.105652,-0.8405800999999999,1.1375,-4.9875,-7.525
1382,136077,0.46774799999999994,-0.09028,-0.8476561,1.6975,-5.8625,-7.2625
1383,136175,0.4636,-0.096868,-0.8464360000000001,1.9425,-5.4425,-6.5625
1384,136273,0.46774799999999994,-0.10004,-0.8447280999999999,2.17,-5.0575,-5.6875
1385,136371,0.46164799999999995,-0.10736,-0.8457040000000001,2.4325,-4.8475,-4.9
1386,136469,0.462136,-0.10858,-0.8518040000000001,2.4325,-4.5325,-4.7775
1387,136567,0.46335600000000005,-0.1098,-0.8549761,2.4325,-3.5525,-5.075
1388,136665,0.46164799999999995,-0.111752,-0.8549761,2.415,-2.205,-5.705
1389,136763,0.46311199999999997,-0.114436,-0.856196,2.415,-0.7875,-6.3525
1390,136861,0.460672,-0.122244,-0.8547319999999999,2.7475,0.1575,-7.0175
1391,136959,0.459696,-0.125904,-0.8574161,2.9575,1.4525,-7.98
1392,137057,0.462136,-0.114192,-0.8569280999999999,3.535,2.905,-9.2575
1393,137155,0.4636,-0.11955999999999999,-0.8544879999999999,4.0075,4.795,-10.3425
1394,137253,0.46311199999999997,-0.10687200000000001,-0.856684,4.4625,6.65,-11.3575
1395,137351,0.46164799999999995,-0.154696,-0.869128,5.53,8.9075,-13.09
1396,137449,0.44944799999999996,-0.0183,-0.8813280000000001,6.8425,12.1975,-14.63
1397,137547,0.4575,-0.124928,-0.8471681000000001,6.3175,17.255,-12.915
1398,137646,0.459696,-0.102968,-0.885964,6.195,20.615,-14.14
1399,137744,0.467992,-0.116876,-0.8723001,4.0425,33.635,-14.4375
1400,137842,0.496784,-0.115656,-0.8647360000000001,-0.9275,45.7975,-14.63
1401,137940,0.488,-0.101748,-0.8769360999999999,-1.61,53.4625,-14.2625
1402,138038,0.48312,-0.09320801,-0.877668,-3.5525,62.58,-13.8775
1403,138136,0.480436,-0.07588400000000001,-0.8818159999999999,-3.9025,71.2425,-13.755
1404,138234,0.487512,-0.065148,-0.8967,-3.3075,81.39251,-12.95
1405,138332,0.5011760000000001,-0.077836,-0.860344,-2.73,91.455,-11.6025
1406,138430,0.6834439999999999,-0.158844,-0.8596120999999999,-3.92,106.9425,-9.59
1407,138528,0.555832,-0.079056,-0.935008,9.6075,130.7075,-4.41
1408,138626,0.5038600000000001,-0.033428,-0.9237841,14.4725,157.3775,-1.3125
1409,138724,0.575596,-0.066124,-1.0169920000000001,15.225,187.67,3.2725
1410,138822,0.580476,-0.018544,-1.063108,19.46,229.845,10.57
1411,138920,0.692472,-0.018544,-1.18706,30.9575,283.605,23.87
1412,139018,0.743224,0.10516400000000001,-1.510116,58.17,341.565,43.365
1413,139116,0.696864,0.45018,-2.264564,117.9675,389.795,63.5425
1414,139214,0.886452,0.7712840999999999,-2.175748,241.535,408.485,83.65001
1415,139312,1.2939319999999999,0.54168,-1.9659080000000002,359.5725,377.5625,114.94
1416,139410,0.5206960999999999,0.621224,-1.854644,443.135,333.095,139.58
1417,139508,0.363072,0.693692,-1.514996,537.8975,292.6875,119.875
1418,139606,0.08564401,0.721264,-1.13582,573.265,260.5925,91.665
1419,139704,0.209596,0.540216,-1.264896,563.535,219.2225,59.7275
1420,139802,4.221687999999999,-0.68198,-3.754916,544.7575,156.0125,39.8475
1421,139900,1.408612,-0.260104,-4.320264,495.5825,17.85,-60.7075
1422,139998,0.307684,-0.141276,-2.8552880000000003,300.3875,-119.875,-172.2
1423,140096,-0.252784,0.12248800000000001,-1.7572880000000002,224.91,-196.07,-201.3375
1424,140194,-0.303292,0.208132,-1.139968,205.7125,-206.6925,-200.48
1425,140293,-0.20178800000000002,0.14566800000000002,-1.083848,211.82,-193.2525,-180.8975
1426,140391,0.056608000000000006,-0.07076001,-1.19316,213.955,-197.19,-150.465
1427,140489,0.22814,-0.11955999999999999,-1.2822200000000001,204.96,-216.4925,-114.905
1428,140587,0.341356,-0.03294,-1.2524520000000001,179.515,-239.4,-78.26
1429,140685,0.42456000000000005,0.183488,-1.179252,143.4125,-257.1625,-44.905
1430,140783,0.512644,0.4758,-1.13704,109.55,-268.5725,-18.725
1431,140881,0.63562,0.7473721,-1.148752,84.7175,-277.2875,-0.91
1432,140979,0.775188,0.9684360999999999,-1.17486,69.1425,-286.6675,8.7675
1433,141077,0.91622,1.1455799999999998,-1.2019440000000001,58.8525,-297.7625,11.6025
1434,141175,1.046028,1.294664,-1.204872,51.5375,-309.8725,8.365
1435,141273,1.1326479999999999,1.381772,-1.159732,45.15,-321.3875,-1.5925
1436,141371,1.219268,1.46278,-1.1453360000000001,36.2425,-328.9125,-18.69
1437,141469,1.3085719999999998,1.4842520000000001,-1.136796,28.6125,-333.4275,-39.375
1438,141567,1.369816,1.452288,-1.125572,22.3475,-335.825,-62.195
1439,141665,1.404464,1.355908,-1.117032,17.0275,-336.5425,-85.05
1440,141763,1.423252,1.204628,-1.117764,11.795,-335.5625,-105.6825
1441,141861,1.453264,1.003572,-1.1350879999999999,6.44,-333.55,-122.29
1442,141959,1.478884,0.794952,-1.1163,1.4525,-331.975,-131.985
1443,142057,1.442528,0.6178081,-1.0972680000000001,-4.725,-328.16,-135.275
1444,142155,1.428132,0.457012,-1.100196,-11.1125,-321.965,-133.07
1445,142253,1.469856,0.259128,-1.156072,-16.45,-313.8625,-125.3875
1446,142351,1.6152799999999998,0.08442401,-1.184132,-22.89,-306.355,-112.6825
1447,142449,1.701168,0.064416,-1.130452,-32.55,-298.97,-95.5675
1448,142547,1.81414,0.174948,-1.050664,-41.335,-288.7675,-80.885
1449,142645,2.030812,0.30182800000000004,-1.0499319999999999,-45.5875,-275.2225,-76.30001
1450,142743,2.328492,0.365268,-1.098976,-44.2575,-262.2375,-83.825
1451,142841,2.469768,0.35697199999999996,-1.011624,-37.555,-256.0075,-101.0625
1452,142939,2.608604,0.155428,-0.7856801,-28.1925,-257.5125,-123.3925
1453,143037,2.511248,-0.129564,-0.386496,-24.5525,-260.365,-147.7875
1454,143135,2.501488,-0.30792800000000004,0.054412,-26.7225,-254.625,-169.2425
1455,143233,2.4441479999999998,-0.36648800000000004,0.505324,-24.99,-237.2825,-182.49
1456,143331,2.42414,-0.477508,0.9120720999999999,-6.6325,-209.7025,-182.5775
1457,143429,2.4156,-0.5980439999999999,1.216828,16.835,-173.0575,-173.1975
1458,143528,2.371436,-0.7329760000000001,1.386896,31.185,-130.0775,-158.0425
1459,143626,2.309948,-0.8476561,1.39934,26.9675,-81.91751,-139.02
1460,143724,2.293356,-0.8908440999999999,1.26026,5.3725,-29.575,-117.8275
1461,143822,2.293356,-0.874984,1.048468,-22.05,21.0,-93.59
1462,143920,0.6790520999999999,-0.163968,0.9916161,-45.2725,95.4625,-71.155
1463,144018,1.146556,-1.045784,-1.3847,26.81,138.845,-41.265
1464,144116,-1.624064,-1.2719719999999999,-2.4382919999999997,-20.755,106.5225,-41.2825
1465,144214,-0.813008,-1.179984,-0.208864,-40.0225,204.2075,-25.8825
1466,144312,1.20048,-0.721264,0.07173600000000001,-11.3225,296.38,6.685
1467,144410,1.7348400000000002,0.727608,-2.509052,-8.575,265.1775,26.0575
1468,144508,1.541592,1.391044,-2.059848,-20.0025,223.195,8.8025
1469,144606,1.158756,0.865468,-1.499624,-8.61,194.32,-19.04
1470,144704,0.9323239999999999,-0.6822239999999999,-1.3856760000000001,37.835,151.2,-28.84
1471,144802,0.5968241,-0.762988,-0.9503799999999999,12.6175,141.435,-10.4125
1472,144900,0.417972,-0.086132,-0.9764879999999999,-10.7975,152.6,0.77
1473,144998,0.853512,-0.26303200000000004,-2.042036,-38.185,153.195,3.92
1474,145096,1.4844959999999998,0.211548,-0.9142680000000001,-56.3325,149.3975,-10.0625
1475,145194,0.7856801,-0.138348,-1.0589600000000001,-29.4525,88.5675,-21.77
1476,145292,0.48702399999999996,-0.105896,-1.012356,8.575,35.1575,-20.5975
1477,145390,0.76982,0.044652,-0.9886881,-28.21,47.88,-26.74
1478,145488,0.779824,0.08174001,-1.091656,2.0125,17.3075,-22.1725
1479,145586,0.646844,0.06661201,-0.8959681,1.19,7.77,-17.465
1480,145684,0.560956,-0.003172,-0.8874280999999999,5.3025,-4.8125,-10.6925
1481,145782,0.552416,-0.028792,-0.873276,1.3125,-7.0525,-7.455
1482,145880,0.49141599999999996,-0.053191999999999996,-0.86864,-2.1,-9.835,-6.5275
1483,145978,0.484584,-0.064416,-0.8720559999999999,-2.8875,-10.605,-6.055
1484,146076,0.473116,-0.079544,-0.8727879999999999,-3.395,-10.36,-6.1075
1485,146174,0.48531599999999997,-0.072712,-0.8605879999999999,-3.57,-9.8175,-6.6675
1486,146272,0.493612,-0.06124401,-0.8532681000000001,-4.3575,-9.7475,-7.35
1487,146371,0.48214399999999996,-0.06270801,-0.8574161,-3.745,-11.515,-7.2975
1488,146469,0.468724,-0.07173600000000001,-0.863516,-3.4475,-12.5825,-6.965
1489,146567,0.46018400000000004,-0.072956,-0.865468,-3.4475,-12.8625,-7.315
1490,146665,0.45554799999999995,-0.073688,-0.865468,-3.1325,-12.53,-7.8925
1491,146763,0.458232,-0.06636801,-0.863516,-2.3975,-12.1625,-8.4525
1492,146861,0.456768,-0.05977999999999999,-0.8586360000000001,-1.9425,-11.865,-8.995
1493,146959,0.444324,-0.057828,-0.863028,-1.1375,-11.7775,-9.1
1494,147057,0.438956,-0.05612,-0.868152,-0.28,-10.8675,-9.24
1495,147155,0.44725200000000004,-0.051484,-0.8601,0.77,-9.625,-9.205
1496,147253,0.45383999999999997,-0.0549,-0.8591241,1.4875,-8.7325,-8.7325
1497,147351,0.4453,-0.059536,-0.8540000000000001,2.9225,-8.4875,-8.4
1498,147449,0.426756,-0.061732,-0.85888,4.2,-8.505,-8.4
1499,147547,0.43212399999999995,-0.05563200000000001,-0.863028,5.355,-7.0875,-8.4
1500,147645,0.45018,-0.044164,-0.8579041,5.775,-5.11,-8.4175
1501,147743,0.45506,-0.054412,-0.8591241,6.86,-4.795,-7.8925
1502,147841,0.45896400000000004,-0.04392,-0.8576601,7.0175,-4.165,-7.455
1503,147939,0.46481999999999996,-0.032451999999999995,-0.8579041,7.56,-3.675,-6.6325
1504,148037,0.47165200000000007,-0.035136,-0.8591241,8.2775,-3.535,-5.7575
1505,148135,0.465308,-0.05977999999999999,-0.8610761,9.5375,-3.6925,-4.9175
1506,148233,0.468236,-0.07564,-0.8591241,9.5025,-3.185,-5.005
1507,148331,0.462136,-0.06588,-0.8642481,8.4875,-2.38,-6.0025
1508,148429,0.46506400000000003,-0.06563601,-0.859368,8.12,-1.6275,-6.615
1509,148527,0.460916,-0.08564401,-0.8615640999999999,7.9975,-1.47,-7.2975
1510,148625,0.45603599999999994,-0.10614000000000001,-0.8669319999999999,7.385,-1.3125,-8.68
1511,148723,0.458232,-0.09882,-0.856196,6.0375,0.2625,-11.13
1512,148822,0.41723999999999994,-0.11028800000000001,-0.9006040999999999,6.0375,2.7125,-14.28
1513,148920,0.40894400000000003,-0.10345599999999999,-0.8969440000000001,6.265,8.855,-18.6375
1514,149018,0.377956,-0.043676,-0.92232,6.055,19.4425,-23.4675
1515,149116,0.440176,-0.049776,-0.9015799999999999,10.675,32.0775,-27.475
1516,149214,0.467992,-0.024888,-0.8949921000000001,11.7775,41.3875,-29.9425
1517,149312,0.479216,0.005368,-0.9023121,8.5925,49.7875,-27.2475
1518,149410,0.469944,0.01708,-1.063352,3.5525,59.185,-22.05
1519,149508,0.46481999999999996,0.030012,-0.9757561,-10.29,98.735,-15.4525
1520,149606,0.273768,0.039772,-1.016748,-9.38,121.4675,-12.95
1521,149704,0.664412,-0.14078800000000002,-1.000644,-12.5825,134.155,-19.145
1522,149802,0.6502600000000001,-0.172752,-0.9791719999999999,-8.295,166.145,-22.6275
1523,149900,0.44652,-0.061975999999999996,-1.051152,0.0175,209.8425,-28.1575
1524,149998,0.17568,0.037088,-1.231468,-5.565,249.3225,-42.2975
1525,150096,0.509228,-0.24034,-1.14192,0.385,294.105,-57.155
1526,150194,0.5892601,-0.282796,-1.342732,13.8075,384.3875,-63.3325
1527,150292,0.34257600000000005,-0.1159,-1.670668,27.895,501.1825,-62.545
1528,150390,0.9093880999999999,0.012688,-1.658468,26.1625,566.79,-57.33
1529,150488,1.121912,-0.24912399999999998,-1.682868,50.365,573.405,-37.0475
1530,150586,1.665056,-0.029768,-2.8870080000000002,55.65,565.425,-25.2525
1531,150684,-0.34111199999999997,0.11955999999999999,-1.554036,83.2825,511.56,-19.5825
1532,150782,0.2135,-0.121024,-2.157448,95.445,463.82,-17.5175
1533,150881,0.993568,-0.388204,-2.395104,58.835,461.125,-14.175
1534,150979,4.813144,-1.030656,-5.570032,56.4725,435.0675,7.6475
1535,151077,1.217316,-1.5262200000000001,-5.18012,127.8025,175.63,7.4375
1536,151175,0.069784,-1.025288,-3.6692720000000003,16.975,-3.5,-3.9725
1537,151273,-0.704916,-0.715164,-2.155008,-19.7575,-90.16001,19.9325
1538,151371,-0.79056,-0.387472,-1.50426,-20.335,-100.9225,55.93
1539,151469,-0.47604399999999997,-0.17202,-1.64212,-7.945,-93.45,81.69001
1540,151567,-0.142984,0.034648000000000005,-1.955904,-2.415,-113.1025,92.645
1541,151665,0.046848,0.169824,-2.0313,2.1525,-159.075,94.2025
1542,151763,0.15128,0.2623,-1.8705040000000002,0.0875,-212.5725,89.0925
1543,151861,0.198372,0.34477199999999997,-1.58844,-12.215,-260.5225,77.7525
1544,151959,0.26303200000000004,0.438468,-1.32126,-30.1525,-294.175,60.6025
1545,152057,0.35038400000000003,0.536068,-1.1507040000000002,-45.3775,-314.3175,39.5675
1546,152155,0.467016,0.609268,-1.068476,-50.5225,-327.145,17.29
1547,152253,0.5738880000000001,0.618052,-1.000644,-44.87,-337.8375,-4.305
1548,152351,0.6463561,0.573156,-0.9230520000000001,-34.1425,-346.605,-24.1675
1549,152449,0.712236,0.485804,-0.879376,-23.345,-350.735,-41.3175
1550,152547,0.782752,0.3843,-0.9110959999999999,-15.7325,-349.8775,-54.7225
1551,152645,0.844972,0.25961599999999996,-1.010892,-10.2375,-346.7975,-63.3325
1552,152743,0.9376921,0.124196,-1.165832,-7.4375,-344.225,-66.9375
1553,152841,0.992592,0.027083999999999997,-1.23708,-7.91,-344.9425,-65.31
1554,152939,0.98088,-0.041968,-1.2465959999999998,-8.995,-346.0625,-58.66
1555,153037,1.010404,-0.10004,-1.320284,-9.555,-343.105,-49.875
1556,153135,1.09922,-0.16226,-1.426424,-6.9825,-337.715,-39.9
1557,153233,1.231956,-0.28011199999999997,-1.480348,-0.63,-331.73,-28.35
1558,153331,1.4398440000000001,-0.424804,-1.51524,6.3525,-324.0475,-14.4725
1559,153429,1.7341080000000002,-0.543632,-1.5462280000000002,11.97,-314.3875,3.745
1560,153527,2.156472,-0.494832,-1.669936,15.3475,-304.64,27.265
1561,153625,2.690832,-0.31890799999999997,-1.7626560000000002,21.595,-297.4475,53.8475
1562,153724,3.255692,-0.185196,-1.843664,29.2425,-300.1775,72.8875
1563,153822,3.709532,-0.135176,-1.658468,28.91,-313.1275,75.53
1564,153920,3.8600800000000004,-0.15982000000000002,-1.128744,14.9275,-329.63,61.18
1565,154018,3.568744,-0.3416,-0.282064,-7.7,-340.2875,40.81
1566,154116,3.2881440000000004,-0.49751599999999996,0.7019880000000001,-32.865,-328.65,28.3325
1567,154214,3.283264,-0.419192,1.404952,-61.9325,-287.0,22.1725
1568,154312,3.208112,-0.14152,2.078636,-70.7525,-233.345,5.4425
1569,154410,3.251544,-0.07344400000000001,2.460252,-24.605,-170.415,-4.025
1570,154508,3.388672,-0.21667199999999998,2.473672,48.1775,-104.93,-1.96
1571,154606,3.3950160000000005,-0.43163599999999996,2.236504,95.04251,-40.5475,-1.82
1572,154704,3.329868,-0.75884,1.7570439999999998,109.34,20.0375,1.9775
1573,154802,1.948584,-1.723128,2.556876,90.4575,82.8625,22.7675
1574,154900,1.443016,-0.908168,-1.007476,-50.7675,191.94,54.5125
1575,154998,-1.504992,0.243756,-3.04268,-108.465,177.8,27.895
1576,155096,-1.187792,-0.6802720999999999,-0.621712,-31.01,227.185,58.0825
1577,155194,1.661152,0.16811600000000002,0.8342360000000001,-34.3175,346.7625,56.1925
1578,155292,1.2907600000000001,1.9829880000000002,-2.199172,-50.085,320.2325,40.915
1579,155390,2.135,2.08498,-2.568588,-15.82,301.315,-1.4525
1580,155488,1.591124,0.188368,-1.641632,22.575,273.7,-28.035
1581,155586,1.059204,-1.0736,-1.24196,66.4475,218.1725,-14.6825
1582,155684,0.8215481,-1.414224,-1.818776,1.7675,206.465,6.405
1583,155782,1.3703040000000002,0.42602399999999996,-1.5079200000000001,-130.8125,199.0275,-0.1925
1584,155880,1.542568,0.7895840999999999,-2.271152,-151.5325,162.4175,-27.72
1585,155978,0.7227279999999999,-0.198128,-1.048224,7.3675,67.3225,-14.49
1586,156076,0.853512,-0.09442801,-1.06384,-29.0325,68.0225,-18.69
1587,156174,0.797148,-0.001464,-1.028704,-12.565,33.6175,-21.07
1588,156273,0.6541640000000001,0.016592,-0.966728,-8.645,14.63,-16.555
1589,156371,0.600484,-0.000244,-0.9435479999999999,-0.805,1.1375,-11.0775
1590,156469,0.5011760000000001,-0.042944,-0.8969440000000001,1.61,-3.7275,-7.28
1591,156567,0.481412,-0.05246,-0.8852321,4.6375,-5.425,-6.1775
1592,156665,0.48922,-0.057584,-0.8754719999999999,4.445,-3.815,-6.44
1593,156763,0.48678,-0.060267999999999995,-0.8708360999999999,5.635,-3.3775,-6.6325
1594,156861,0.482388,-0.047580000000000004,-0.8703481,6.3,-2.8175,-6.9125
1595,156959,0.49556400000000006,-0.010248,-0.877424,7.1925,-1.47,-6.44
1596,157057,0.5219159999999999,-0.045384,-0.8522921,8.0675,0.14,-4.585
1597,157155,0.477264,-0.061975999999999996,-0.862296,9.6075,-1.5225,-2.905
1598,157253,0.480192,-0.043188,-0.8525360000000001,8.82,-0.8575,-2.695
1599,157351,0.46164799999999995,-0.0427,-0.8554641,8.085,0.525,-1.9775
1600,157449,0.44847200000000004,-0.10931199999999999,-0.8398479999999999,8.225,0.9975,-1.5925
1601,157547,0.45286400000000004,-0.126392,-0.828868,6.6325,2.73,-3.5875
1602,157645,0.461404,-0.101016,-0.8271601000000001,5.775,3.255,-6.6675
1603,157743,0.465552,-0.093696,-0.822524,5.18,3.29,-8.505
1604,157841,0.472628,-0.08344800000000001,-0.824232,4.69,3.0625,-9.8175
1605,157939,0.486292,-0.081252,-0.8188641,3.8675,2.835,-10.885
1606,158037,0.480436,-0.10126,-0.818132,2.3975,1.5925,-12.1625
1607,158135,0.49166000000000004,-0.101748,-0.820572,0.805,0.2275,-14.035
1608,158233,0.49776000000000004,-0.080276,-0.8317960999999999,-0.9275,-0.735,-15.89
1609,158331,0.49873599999999996,-0.059536,-0.8491200000000001,-0.175,-2.8875,-16.8
1610,158429,0.5043479999999999,-0.047092,-0.8491200000000001,0.595,-3.64,-16.905
1611,158527,0.492392,-0.056852,-0.8430200999999999,1.855,-5.425,-16.1875
1612,158625,0.489464,-0.068564,-0.8559521000000001,2.0475,-6.23,-16.2925
1613,158723,0.477264,-0.066124,-0.8669319999999999,3.0975,-6.2125,-17.2025
1614,158821,0.47360399999999997,-0.07198,-0.868884,5.2325,-4.1825,-18.7775
1615,158919,0.475312,-0.05612,-0.8720559999999999,6.8425,-0.6475,-21.3675
1616,159017,0.47653199999999996,-0.033672,-0.8652241,6.9125,4.4975,-20.8425
1617,159115,0.46726,-0.050263999999999996,-0.8769360999999999,7.665,9.1875,-19.7575
1618,159213,0.47360399999999997,-0.060024,-0.8801081000000001,7.0,14.42,-20.1775
1619,159311,0.47653199999999996,-0.052216,-0.8884040000000001,8.6275,21.1225,-20.4575
1620,159409,0.42944,-0.029524,-0.9103641,10.815,29.47,-20.72
1621,159507,0.465796,-0.076616,-0.8815719999999999,8.33,46.8475,-21.525
1622,159605,0.595116,-0.0244,-0.9284200999999999,-9.8175,81.41001,-20.615
1623,159703,0.530212,-0.025131999999999998,-0.9037761000000001,10.85,95.2875,-16.9925
1624,159801,0.519476,-0.005856,-0.9142680000000001,5.5825,117.4425,-14.945
1625,159899,0.43066000000000004,-0.005856,-0.9076799999999999,13.5975,139.65,-13.405
1626,159998,0.547048,-0.086132,-0.915732,16.87,172.48,-14.245
1627,160096,0.5919439999999999,-0.07832401,-1.112152,19.705,208.5125,-17.43
1628,160194,0.540216,-0.038796,-1.16632,19.1625,259.21,-20.7725
1629,160292,0.5594920999999999,-0.142984,-1.216584,29.82,334.215,-17.4125
1630,160390,0.37746799999999997,-0.042212,-1.42984,43.295,436.695,-15.6625
1631,160488,0.39161999999999997,-0.030987999999999998,-1.63358,51.73,533.435,-17.8325
1632,160586,0.29792399999999997,0.038551999999999996,-1.506456,50.3125,572.3725,-13.6325
1633,160684,1.35786,-0.0244,-1.573556,65.22251,573.3875,2.7475
1634,160782,1.943704,0.412116,-2.882128,69.9825,563.3775,16.8875
1635,160880,0.053436000000000004,0.17397200000000002,-1.5847799999999999,123.0425,501.235,28.5425
1636,160978,0.271572,0.085156,-2.578348,184.3975,437.08,40.0575
1637,161076,0.490684,0.003172,-1.7934,188.44,385.5775,32.795
1638,161174,4.547184,-0.6319600000000001,-4.6055,106.12,355.215,43.96
1639,161272,1.6438279999999998,-1.255868,-5.149132,211.855,179.62,3.57
1640,161370,0.388936,-0.806176,-4.101396,90.9825,13.1425,-55.1075
1641,161468,-0.518988,-0.556808,-2.656184,17.85,-90.7375,-60.69
1642,161566,-0.809836,-0.359168,-1.723128,-8.295,-118.4925,-46.9175
1643,161664,-0.5875520000000001,-0.313052,-1.705316,-15.89,-110.145,-30.5725
1644,161762,-0.20252,-0.233508,-1.9734720000000001,-17.4125,-121.135,-15.12
1645,161860,0.020496,-0.149572,-2.01788,-15.6275,-161.77,-2.0125
1646,161958,0.08637601,-0.07198,-1.828048,-15.6975,-213.6225,7.91
1647,162056,0.108824,0.029036000000000003,-1.530856,-22.9775,-258.51,13.0375
1648,162154,0.185928,0.128832,-1.31882,-33.4775,-290.535,13.405
1649,162252,0.33013200000000004,0.23301999999999998,-1.2134120000000002,-44.135,-311.0625,8.7675
1650,162350,0.461404,0.312564,-1.142652,-49.9625,-326.9,0.525
1651,162448,0.549488,0.356484,-1.066524,-49.3325,-341.18,-9.8
1652,162546,0.619028,0.351116,-0.9994241,-43.6275,-352.5025,-20.86
1653,162644,0.6939361,0.309636,-0.9720960999999999,-35.35,-359.03,-30.835
1654,162742,0.796172,0.23838800000000002,-0.996008,-27.0025,-361.0425,-38.71
1655,162840,0.8874280999999999,0.12688,-1.0765280000000002,-20.6325,-361.41,-44.0825
1656,162938,0.9882001,-0.003904,-1.217072,-19.25,-360.815,-46.9175
1657,163036,1.057496,-0.099552,-1.292468,-22.4875,-360.85,-46.62
1658,163134,1.075308,-0.201544,-1.3268719999999998,-25.27,-361.3925,-42.2275
1659,163232,1.142408,-0.28621199999999997,-1.413736,-27.3525,-358.7675,-35.105
1660,163330,1.239032,-0.364048,-1.519144,-26.7925,-354.27,-25.095
1661,163428,1.4959639999999998,-0.47458,-1.5967360000000002,-22.12,-349.3,-13.1075
1662,163526,1.77998,-0.585356,-1.6391919999999998,-15.155,-344.225,2.0825
1663,163624,2.1508599999999998,-0.697108,-1.69092,-5.5475,-339.1675,22.2075
1664,163722,2.611776,-0.623908,-1.7402080000000002,0.875,-334.04,46.8475
1665,163820,3.131496,-0.44066400000000006,-1.7929119999999998,11.2,-332.4825,73.92
1666,163918,3.6670760000000002,-0.30744,-1.7275200000000002,22.365,-339.2375,94.2725
1667,164016,4.00526,-0.250832,-1.28344,26.5125,-354.62,101.01
1668,164114,4.014288,-0.24912399999999998,-0.5309441,16.5725,-367.395,94.325
1669,164213,3.6956239999999996,-0.505324,0.395524,-1.1025,-365.8375,81.77750999999999
1670,164311,3.2717959999999997,-0.756644,1.4039760000000001,-32.515,-335.0375,73.605
1671,164409,3.286192,-0.5043479999999999,1.83854,-79.3975,-270.3925,65.7825
1672,164507,3.394772,-0.131272,2.086688,-98.315,-205.3275,38.9025
1673,164605,3.510672,-0.0183,2.29848,-55.545,-144.3575,14.1575
1674,164703,3.610956,-0.1159,2.263588,23.5375,-85.19,-1.8025
1675,164801,3.5989999999999998,-0.40528400000000003,2.028616,87.5875,-29.33,-15.1375
1676,164899,3.1827360000000002,-1.0919,1.5640399999999999,116.62,24.605,-17.815
1677,164997,0.186172,-2.0295919999999996,0.20984,69.0725,101.0975,31.7625
1678,165095,-0.122244,0.098332,-2.9506919999999996,-139.265,178.9025,35.5425
1679,165193,-2.317756,0.10906800000000001,-1.074576,-84.21,188.6325,66.2375
1680,165291,0.498004,-0.757864,1.700436,78.155,327.11,131.53
1681,165389,2.4395119999999997,1.1204479999999999,-2.118896,47.075,354.2175,123.585
1682,165487,1.9707880000000002,2.507832,-2.798436,4.795,299.9675,71.6275
1683,165585,1.611376,1.671156,-1.7802240000000003,37.3275,273.7,32.6375
1684,165683,1.464488,-0.320128,-1.859768,54.1975,240.0825,-38.0975
1685,165781,0.6039,-1.18828,-0.83204,80.43,202.825,-16.17
1686,165879,0.8400921,-1.029436,-1.402024,18.62,210.315,1.89
1687,165977,2.012268,0.462868,-2.640568,-38.535,179.025,18.0775
1688,166075,1.4112959999999999,0.046604,-1.072136,-98.315,167.8075,-6.02
