,T,ax,ay,az,gx,gy,gz
0,9498745,0.8338700000000001,0.01769,-0.31781,15.8025,-14.98,-13.4225
1,9498887,0.84851,0.025254,-0.385642,13.895,-73.92,-134.3125
2,9498983,0.9087780000000001,0.033794,-0.417484,-57.8025,-78.365,-128.2225
3,9499080,0.8927959999999999,0.032330000000000005,-0.42199799999999993,21.525,-105.28,-49.175
4,9499177,0.865468,0.037942000000000004,-0.423584,-1.8375,-10.85,0.0525
5,9499274,0.887184,0.05172801,-0.431514,-2.2225,-7.8225,3.4825
6,9499370,0.9225639999999999,0.04514,-0.434076,-0.595,-8.68,4.8125
7,9499467,0.9345201,0.036112,-0.426512,1.3825,-8.575,3.7625
8,9499564,0.9352520000000001,0.036966000000000006,-0.43200200000000005,2.0125,-6.6675,0.42
9,9499661,0.9235399999999999,0.045262000000000004,-0.43639399999999995,3.745,-4.165,-2.5025
10,9499757,0.919758,0.049044,-0.435662,6.44,-2.135,-3.9375
11,9499854,0.9067040000000001,0.04404201,-0.43005,9.8525,-0.0875,-5.1975
12,9499951,0.919392,0.039284,-0.42639,11.9525,2.73,-6.895
13,9500047,0.90036,0.0305,-0.42700000000000005,12.8275,4.76,-7.84
14,9500144,0.8751059999999999,0.03294,-0.42700000000000005,12.6175,7.2625,-7.6825
15,9500241,0.885476,0.034404000000000004,-0.43493000000000004,15.365,10.64,-6.51
16,9500338,0.8949921000000001,0.031598,-0.43761400000000006,19.775,15.155,-4.935
17,9500435,0.9131700999999999,0.034526,-0.436882,23.3625,19.705,-3.6225
18,9500531,0.926834,0.035013999999999997,-0.426512,25.2175,21.1225,-2.8175
19,9500628,0.9292739999999999,0.0305,-0.400648,24.8325,17.8325,-1.75
20,9500725,0.9173181,0.025863999999999998,-0.390034,19.4425,9.59,-0.7
21,9500822,0.8937719999999999,0.026595999999999998,-0.394548,14.0,1.6275,-0.14
22,9500918,0.8746181000000001,0.02623,-0.389912,13.475,1.68,0.07
23,9501015,0.8724219999999999,0.025131999999999998,-0.398574,15.26,9.1,-0.105
24,9501112,0.8930401,0.017812,-0.394548,17.465,17.0625,-0.4375
25,9501208,0.904752,0.010858,-0.390156,18.83,22.75,-0.6825
26,9501305,0.946232,0.003904,-0.391498,17.6225,23.9575,-1.8375
27,9501402,0.9609940999999999,0.004758,-0.38356799999999996,14.4375,20.72,-3.85
28,9501499,0.9553821,-0.000366,-0.373564,12.7925,18.2875,-5.7225
29,9501595,0.924882,0.011834,-0.344528,10.36,15.7675,-7.6475
30,9501692,0.926834,0.016958,-0.33318200000000003,9.6075,10.8325,-7.84
31,9501789,0.9534301,0.01952,-0.41382399999999997,7.07,-8.68,-5.25
32,9501886,0.7672581,0.021106,-0.441518,4.9525,-22.4525,-4.2525
33,9501982,0.9799041,0.014884,-0.336598,6.9475,4.2875,-4.4275
34,9502079,0.9029221,0.013908000000000002,-0.38735,4.48,-7.0875,-3.5525
35,9502176,0.9152440000000001,0.011468,-0.380396,2.625,-9.135,-3.0975
36,9502273,0.9467200000000001,0.006954000000000001,-0.37698000000000004,3.43,-4.7425,-3.115
37,9502369,0.9211,0.007442,-0.38735,5.53,-7.5775,-3.85
38,9502466,0.9262239999999999,0.013297999999999999,-0.382226,5.7575,-7.665,-3.885
39,9502563,0.9232961,0.008784,-0.377712,6.475,-8.7675,-3.745
40,9502660,0.909632,0.008174001,-0.381616,8.855,-9.5375,-3.7275
41,9502756,0.92171,0.011834,-0.38064000000000003,10.4125,-8.4525,-3.36
42,9502853,0.92537,0.009637999999999999,-0.36417,10.815,-8.365,-3.3075
43,9502950,0.907802,0.00549,-0.346358,9.8175,-8.5925,-3.745
44,9503046,0.9032879999999999,0.005002,-0.36136399999999996,6.3,-8.155,-3.5875
45,9503143,0.922686,0.000976,-0.375638,5.5825,-5.985,-3.5875
46,9503240,0.9198799999999999,0.0034159999999999998,-0.37088000000000004,4.795,-6.055,-3.71
47,9503337,0.920734,-0.000488,-0.370636,4.235,-6.1775,-3.71
48,9503433,0.921588,0.00122,-0.370392,3.57,-6.0025,-3.7975
49,9503530,0.9242720999999999,-0.000122,-0.374418,2.6425,-6.5975,-3.675
50,9503627,0.9242720999999999,-0.002196,-0.372344,2.1,-6.5975,-3.57
51,9503724,0.9229299999999999,-0.000244,-0.377956,2.1,-6.5625,-3.395
52,9503820,0.90646,-0.001586,-0.371368,1.7675,-7.0,-3.3425
53,9503917,0.9171961,-0.002684,-0.373686,1.5225,-5.3025,-3.2375
54,9504014,0.918294,-0.002074,-0.373442,1.225,-5.495,-3.185
55,9504111,0.9174399999999999,-0.007198,-0.37271,1.1375,-5.11,-3.1325
56,9504207,0.922686,-0.007076001,-0.3721,0.77,-5.5125,-3.1675
57,9504304,0.919026,-0.004758,-0.37197800000000003,0.2275,-5.18,-3.115
58,9504401,0.9154880999999999,-0.001464,-0.37454,0.1925,-5.11,-2.9225
59,9504498,0.915732,-0.002806,-0.376614,0.1575,-4.9875,-2.8525
60,9504594,0.91927,-0.004636001,-0.375882,0.1575,-4.7075,-2.7125
61,9504691,0.9208561,-0.005368,-0.373198,0.0875,-4.48,-2.6075
62,9504788,0.9201241,-0.0061,-0.37258800000000003,0.2625,-4.3925,-2.555
63,9504885,0.9221981,-0.00671,-0.371002,0.1225,-4.235,-2.3625
64,9504981,0.9232961,-0.009150001,-0.369294,-0.035,-3.9725,-2.2925
65,9505078,0.9235399999999999,-0.008174001,-0.371002,-0.385,-3.8325,-2.38
66,9505175,0.9235399999999999,-0.010004,-0.37088000000000004,-0.5425,-3.745,-2.3625
67,9505271,0.9225639999999999,-0.007442,-0.369294,-0.7175,-3.465,-2.345
68,9505368,0.924638,-0.007442,-0.370148,-0.8400001,-3.3425,-2.2225
69,9505465,0.925126,-0.005734,-0.36636599999999997,-0.9975,-3.185,-2.17
70,9505562,0.9235399999999999,-0.003172,-0.36356,-1.3125,-3.15,-1.9775
71,9505658,0.922076,-0.000244,-0.364048,-1.75,-3.0975,-1.9075
72,9505755,0.9208561,0.0008540001,-0.363072,-2.0125,-3.045,-1.68
73,9505852,0.9235399999999999,-0.00061,-0.36295,-2.205,-2.9925,-1.575
74,9505949,0.9247601000000001,-0.000244,-0.36136399999999996,-2.31,-2.9575,-1.5925
75,9506045,0.925126,-0.0035380000000000003,-0.357582,-2.3975,-2.8875,-1.5575
76,9506142,0.9242720999999999,-0.011224,-0.352946,-2.2925,-2.59,-1.785
77,9506239,0.922686,-0.01342,-0.349774,-2.3975,-2.17,-2.17
78,9506335,0.927932,-0.01342,-0.348066,-2.695,-1.2775,-2.66
79,9506432,0.925126,-0.016836,-0.33855,-2.5025,0.4025,-3.2025
80,9506529,0.930372,-0.019642,-0.327936,-2.59,2.5025,-3.71
81,9506626,0.93086,-0.023912,-0.316712,-1.96,5.7925,-4.235
82,9506722,0.935984,-0.020130000000000002,-0.310612,-1.2075,10.115,-4.4975
83,9506819,0.9423280999999999,-0.016958,-0.29829,-0.2625,14.9975,-4.6375
84,9506916,0.9414741,-0.009272001,-0.290848,0.2625,18.4975,-4.48
85,9507013,0.930006,-0.015372,-0.283528,0.1225,20.79,-3.4825
86,9507109,0.9602620999999999,-0.011101999999999999,-0.289506,-0.91,20.16,-2.205
87,9507206,0.9827101,0.012931999999999999,-0.29365399999999997,-0.2275,19.8975,-2.66
88,9507303,0.9918600000000001,-0.01342,-0.293044,3.64,21.56,-3.36
89,9507400,0.984418,-0.027083999999999997,-0.269254,5.46,23.8175,-5.0225
90,9507496,0.9796600000000001,-0.012078,-0.27571999999999997,4.6725,19.1275,-4.2875
91,9507593,0.9696561,-0.008174001,-0.261812,6.9825,18.4975,-3.815
92,9507690,0.980758,-0.014762,-0.253272,7.07,18.06,-5.6875
93,9507786,0.93147,0.007564001,-0.266814,6.265,15.5575,-7.8925
94,9507883,0.8887700000000001,0.026595999999999998,-0.24863600000000002,7.035,14.4725,-5.9675
95,9507980,0.9057280999999999,0.007564001,-0.259738,11.3575,12.2325,-4.795
96,9508077,0.931958,0.02257,-0.262178,11.83,15.505,-8.295
97,9508173,0.968192,-0.029158,-0.23009200000000002,12.3025,18.585,-9.415
98,9508270,0.955016,0.002928,-0.24936799999999998,11.9875,14.175,-10.43
99,9508367,0.90951,0.030012,-0.24863600000000002,11.6025,12.2675,-9.695
100,9508464,0.9296399999999999,0.039162,-0.267424,12.5125,11.935,-10.3775
101,9508560,0.890966,0.019154,-0.266936,13.475,12.0575,-11.55
102,9508657,0.8813280000000001,0.018544,-0.28365,14.4375,10.22,-10.78
103,9508754,0.9037761000000001,0.00427,-0.31097800000000003,14.6825,9.31,-10.5525
104,9508851,0.9084121,0.015982,-0.30744,13.23,8.645,-11.6375
105,9508947,0.9441579999999999,0.029646,-0.312564,12.635,8.12,-12.7575
106,9509044,0.96441,0.054655999999999996,-0.298046,11.3575,8.7325,-14.07
107,9509141,0.985516,0.0671,-0.285724,10.815,10.0275,-14.315
108,9509238,1.004304,0.07173600000000001,-0.29524,10.1325,10.9375,-14.5075
109,9509334,1.0206520000000001,0.068076,-0.293044,11.2175,11.13,-14.175
110,9509431,1.019676,0.06880801,-0.29426399999999997,11.725,10.185,-14.035
111,9509528,1.0248,0.06466001,-0.301218,12.4425,9.8875,-13.58
112,9509625,1.027606,0.05563200000000001,-0.288286,13.335,8.995,-13.195
113,9509721,1.015894,0.057462,-0.29219,13.5975,6.5275,-13.265
114,9509818,0.996008,0.064416,-0.287066,13.895,5.88,-12.8625
115,9509915,0.993202,0.062098,-0.28304,17.675,6.0725,-11.76
116,9510012,0.9951540000000001,0.054167999999999994,-0.284138,19.95,4.2875,-10.92
117,9510108,0.9956421,0.046116000000000004,-0.285358,21.5775,2.3275,-10.7275
118,9510205,0.9964959999999999,0.044286,-0.28621199999999997,22.015,1.4175,-10.6575
119,9510302,0.989664,0.040016,-0.296582,23.2575,0.105,-10.325
120,9510399,0.987712,0.038796,-0.29402,24.6225,-1.0675,-10.045
121,9510495,0.979416,0.027816000000000004,-0.29877800000000004,26.7225,-3.29,-9.3625
122,9510592,0.966484,0.024766,-0.299998,27.755,-4.865,-8.89
123,9510689,0.9608721,0.021106,-0.303902,28.945,-6.195,-8.225
124,9510786,0.954284,0.015982,-0.30744,30.135,-7.5075,-7.6475
125,9510882,0.9511120000000001,0.018788,-0.313296,30.765,-8.61,-7.0875
126,9510979,0.9472079999999999,0.021228,-0.31781,31.185,-9.275,-6.6675
127,9511076,0.9494040000000001,0.025376,-0.322812,31.1325,-9.8525,-6.4925
128,9511173,0.94306,0.022813999999999997,-0.32574000000000003,31.29,-10.36,-6.2825
129,9511269,0.9429379999999999,0.024888,-0.32696,31.465,-11.27,-6.3175
130,9511366,0.9379360000000001,0.022326,-0.328424,31.7275,-12.5475,-6.1775
131,9511463,0.9389120000000001,0.027938,-0.329034,31.675,-13.65,-6.3525
132,9511560,0.937326,0.027206,-0.330376,31.43,-14.6475,-6.6675
133,9511656,0.9385460999999999,0.025863999999999998,-0.329156,31.4475,-14.9275,-7.1225
134,9511753,0.940254,0.030012,-0.32269000000000003,31.3775,-15.085,-7.315
135,9511850,0.9444020000000001,0.040504000000000005,-0.321592,31.7625,-15.54,-7.1575
136,9511946,0.9441579999999999,0.037698,-0.31463800000000003,32.0425,-15.715,-7.14
137,9512043,0.9352520000000001,0.03538,-0.306952,32.06,-15.5925,-8.2775
138,9512140,0.942816,0.03538,-0.30792800000000004,32.2175,-15.75,-9.1875
139,9512237,0.948306,0.03477,-0.303292,32.48,-15.82,-9.66
140,9512333,0.9440360999999999,0.036112,-0.296094,32.7075,-15.645,-10.1675
141,9512430,0.9419620999999999,0.039406000000000004,-0.293532,33.4075,-15.1725,-10.6575
142,9512527,0.9423280999999999,0.039894,-0.294142,33.8625,-14.9625,-10.8325
143,9512624,0.9348860999999999,0.0427,-0.285724,34.615,-13.685,-11.3575
144,9512720,0.94306,0.039284,-0.278526,35.385,-12.8275,-11.8825
145,9512817,0.9439139999999999,0.024644,-0.273646,35.4725,-13.9825,-12.18
146,9512914,0.9465981,0.018056,-0.271694,34.6325,-13.7725,-12.4425
147,9513011,0.951722,0.008662000999999999,-0.266692,33.4775,-12.915,-12.705
148,9513107,0.9492821,0.012444,-0.266326,32.5325,-13.2825,-13.0025
149,9513204,0.9502581,0.009637999999999999,-0.26913200000000004,33.075,-14.105,-12.9325
150,9513301,0.9437921,0.007198,-0.267424,33.1275,-14.35,-12.7575
151,9513397,0.9441579999999999,0.00549,-0.272914,32.9175,-14.0,-12.5825
152,9513494,0.954406,-0.007198,-0.27145,32.7425,-12.81,-12.1975
153,9513591,0.9625799999999999,-0.010492,-0.268522,31.7975,-12.0575,-11.9
154,9513688,0.9673379999999999,-0.02257,-0.269864,31.325,-12.355,-11.48
155,9513784,0.972828,-0.02562,-0.269254,30.5375,-12.985,-11.4975
156,9513881,0.9729501,-0.037088,-0.268278,29.2425,-13.7025,-11.375
157,9513978,0.9709979999999999,-0.03721,-0.271206,27.8425,-14.3675,-11.27
158,9514075,0.962458,-0.038064,-0.27084,26.7225,-14.8225,-11.41
159,9514171,0.9506241,-0.036233999999999995,-0.26900999999999997,25.8475,-15.0675,-11.2175
160,9514268,0.9490379999999999,-0.032451999999999995,-0.274134,25.2,-15.295,-11.025
161,9514365,0.9476959999999999,-0.032574,-0.276818,24.6925,-15.0325,-10.675
162,9514462,0.9492821,-0.027938,-0.277794,24.255,-14.1925,-10.4825
163,9514558,0.9497701,-0.023424,-0.282796,24.115,-13.545,-10.255
164,9514655,0.9512341000000001,-0.020374,-0.28011199999999997,24.0975,-12.9325,-9.9925
165,9514752,0.951356,-0.020618,-0.285724,24.1325,-12.775,-9.8
166,9514849,0.949892,-0.019275999999999998,-0.28938400000000003,24.15,-12.8625,-9.485
167,9514945,0.9439139999999999,-0.024522,-0.29158,24.535,-12.845,-9.24
168,9515042,0.940742,-0.028182,-0.291824,24.57,-12.2675,-9.135
169,9515139,0.937326,-0.019032,-0.290238,24.01,-11.235,-8.8725
170,9515236,0.9446460999999999,-0.023180000000000003,-0.292678,24.2725,-10.08,-8.4875
171,9515332,0.940132,-0.018422,-0.296338,23.275,-9.275,-8.5225
172,9515429,0.9440360999999999,-0.027694,-0.29487399999999997,22.715,-8.82,-8.3825
173,9515526,0.942572,-0.033184,-0.297802,21.3675,-8.75,-8.2075
174,9515623,0.94916,-0.035502,-0.299388,20.125,-8.3475,-8.26
175,9515719,0.9472079999999999,-0.0305,-0.29987600000000003,18.6375,-8.4,-8.015
176,9515816,0.9470860000000001,-0.032208,-0.29792399999999997,18.41,-8.4,-7.49
177,9515913,0.951722,-0.030866,-0.301584,17.325,-8.5575,-7.2625
178,9516010,0.9494040000000001,-0.036478,-0.304634,15.785,-8.3475,-6.965
179,9516106,0.9469641,-0.034282,-0.30182800000000004,14.2275,-7.0875,-6.685
180,9516203,0.949892,-0.032818,-0.30353600000000003,13.0725,-6.965,-6.51
181,9516300,0.9436701,-0.031842,-0.303048,11.515,-6.895,-6.23
182,9516397,0.9486720999999999,-0.0305,-0.304512,10.9025,-6.545,-5.95
183,9516493,0.942572,-0.03416,-0.30317,10.3775,-6.6325,-5.6525
184,9516590,0.9453780999999999,-0.029158,-0.303658,9.7475,-6.615,-5.5125
185,9516687,0.94489,-0.02135,-0.302316,8.785,-6.0725,-5.67
186,9516784,0.941718,-0.021106,-0.30317,8.3825,-5.7575,-5.67
187,9516880,0.945256,-0.018056,-0.302438,7.7525,-5.11,-5.67
188,9516977,0.9459880999999999,-0.020984,-0.30292600000000003,7.2975,-4.9875,-5.5825
189,9517074,0.942084,-0.01769,-0.300852,6.8775,-4.8475,-5.39
190,9517171,0.9489161,-0.022448,-0.301584,7.035,-4.6025,-5.285
191,9517267,0.945256,-0.021838,-0.30097399999999996,6.8775,-4.585,-5.25
192,9517364,0.948306,-0.028548,-0.301706,6.825,-4.0775,-5.1275
193,9517461,0.9441579999999999,-0.027938,-0.299754,6.3875,-3.9025,-5.075
194,9517558,0.9465981,-0.030378,-0.30097399999999996,6.055,-3.7625,-4.795
195,9517654,0.94306,-0.027206,-0.305122,5.3025,-3.605,-4.725
196,9517751,0.9476959999999999,-0.028304000000000003,-0.30439,4.4625,-3.29,-4.69
197,9517848,0.9463540000000001,-0.026108,-0.30439,4.0425,-3.64,-4.27
198,9517945,0.9464761,-0.029768,-0.308172,3.5525,-3.815,-3.955
199,9518041,0.9479401,-0.026351999999999997,-0.305854,2.45,-3.1325,-3.9375
200,9518138,0.9528200000000001,-0.029524,-0.30792800000000004,1.9775,-3.045,-3.885
201,9518235,0.9487940999999999,-0.021228,-0.306952,1.225,-3.22,-3.745
202,9518332,0.9537959999999999,-0.023912,-0.306952,1.715,-3.045,-3.255
203,9518428,0.9516,-0.02501,-0.307562,1.365,-3.325,-3.0275
204,9518525,0.9492821,-0.024522,-0.308904,0.7,-3.22,-3.22
205,9518622,0.9494040000000001,-0.021472,-0.309148,0.28,-3.465,-3.22
206,9518719,0.9473301,-0.019764,-0.308294,0.0875,-3.71,-3.0975
207,9518815,0.9456220999999999,-0.015372,-0.309392,0.0,-3.675,-3.0275
208,9518912,0.9441579999999999,-0.015372,-0.309026,0.1925,-3.605,-2.8175
209,9519009,0.9451341000000001,-0.016836,-0.30988000000000004,0.3325,-3.745,-2.7125
210,9519106,0.9463540000000001,-0.018544,-0.30841599999999997,0.2625,-3.955,-2.8525
211,9519202,0.948306,-0.021472,-0.309392,-0.14,-4.025,-3.1325
212,9519299,0.9501360999999999,-0.018544,-0.30805,-0.63,-4.0425,-3.2375
213,9519396,0.9516,-0.015006,-0.306342,-1.1725,-4.0775,-3.3425
214,9519493,0.9490379999999999,-0.015616,-0.30439,-1.0675,-4.6725,-3.22
215,9519589,0.9502581,-0.010126000000000001,-0.30475599999999997,-0.8575,-5.075,-2.9225
216,9519686,0.9459880999999999,-0.004514,-0.30402399999999996,-0.49,-5.4075,-2.765
217,9519783,0.9473301,-0.007564001,-0.305244,-0.0175,-5.4775,-2.625
218,9519880,0.9505020000000001,-0.012688,-0.301462,-0.0875,-5.53,-2.625
219,9519976,0.9507460999999999,-0.014762,-0.306708,-0.42,-5.4775,-2.8525
220,9520073,0.9500139999999999,-0.017446,-0.305244,-0.875,-5.425,-2.9925
221,9520170,0.9480620000000001,-0.015006,-0.306464,-1.3125,-5.4425,-2.9225
222,9520267,0.9496479999999999,-0.016104,-0.307562,-1.4525,-5.74,-2.905
223,9520363,0.9442801,-0.014396,-0.305854,-1.8375,-5.81,-2.975
224,9520460,0.9467200000000001,-0.014884,-0.30683,-2.1525,-5.565,-2.94
225,9520557,0.9469641,-0.010614,-0.307318,-2.2925,-5.74,-3.045
226,9520653,0.9473301,-0.011712,-0.307684,-2.3275,-5.8975,-2.9575
227,9520750,0.9446460999999999,-0.010614,-0.30805,-2.485,-5.81,-2.975
228,9520847,0.945866,-0.00976,-0.30805,-2.52,-5.705,-2.625
229,9520944,0.945744,-0.008174001,-0.308294,-2.555,-5.7225,-2.3975
230,9521040,0.9437921,-0.012688,-0.307562,-2.485,-5.6875,-2.3275
231,9521137,0.947818,-0.012444,-0.309514,-2.6775,-5.355,-2.3625
232,9521234,0.9497701,-0.013297999999999999,-0.306952,-2.835,-5.1275,-2.2225
233,9521331,0.947818,-0.016958,-0.30744,-3.01,-5.5125,-2.1175
234,9521427,0.9469641,-0.017812,-0.310002,-3.465,-5.4425,-2.0825
235,9521524,0.9415959999999999,-0.015006,-0.311222,-3.78,-5.4075,-2.0825
236,9521621,0.9378139999999999,-0.01464,-0.313296,-3.85,-5.565,-1.96
237,9521718,0.9419620999999999,-0.01525,-0.31171,-3.815,-5.18,-1.925
238,9521814,0.940254,-0.012565999999999999,-0.312686,-4.27,-5.1275,-1.715
239,9521911,0.9439139999999999,-0.011712,-0.31049,-4.4625,-4.9,-1.505
240,9522008,0.9437921,-0.01525,-0.31146599999999997,-4.4975,-4.9175,-1.47
241,9522105,0.9469641,-0.01281,-0.310856,-4.9175,-4.9525,-1.435
242,9522201,0.949892,-0.012565999999999999,-0.30927,-5.0225,-4.9,-1.33
243,9522298,0.9502581,-0.013054,-0.306708,-4.935,-5.4775,-1.295
244,9522395,0.94916,-0.013054,-0.30792800000000004,-5.1975,-5.6525,-1.295
245,9522492,0.94916,-0.008418,-0.308172,-5.355,-5.565,-1.26
246,9522588,0.9486720999999999,-0.00976,-0.307318,-5.285,-5.74,-1.26
247,9522685,0.9484280999999999,-0.008174001,-0.306586,-5.355,-5.6875,-1.2425
248,9522782,0.9496479999999999,-0.010614,-0.30792800000000004,-5.4425,-5.495,-1.3475
249,9522879,0.9456220999999999,-0.007442,-0.308294,-5.635,-5.565,-1.3825
250,9522975,0.946232,-0.0051240009999999996,-0.311344,-5.425,-5.6175,-1.47
251,9523072,0.948184,-0.005734,-0.312198,-5.1275,-5.53,-1.47
252,9523169,0.9494040000000001,-0.003782,-0.31012399999999996,-4.76,-5.6525,-1.5575
253,9523266,0.9474520000000001,-0.006344,-0.31171,-4.34,-5.81,-1.68
254,9523362,0.9476959999999999,-0.004758,-0.30707399999999996,-4.095,-5.775,-1.8025
255,9523459,0.945256,-0.004758,-0.306464,-3.71,-5.81,-1.925
256,9523556,0.9465981,-0.003904,-0.306952,-3.3075,-5.6525,-2.03
257,9523653,0.94611,-0.004392,-0.307196,-3.0625,-5.6875,-2.2225
258,9523749,0.9474520000000001,-0.005246,-0.306464,-2.765,-5.53,-2.3275
259,9523846,0.9474520000000001,-0.006344,-0.306708,-2.5725,-5.635,-2.345
260,9523943,0.9480620000000001,-0.007320001,-0.30792800000000004,-2.3275,-5.7575,-2.3625
261,9524040,0.9473301,-0.008296000999999999,-0.306464,-2.275,-5.6875,-2.485
262,9524136,0.9464761,-0.008906,-0.307318,-2.0825,-5.7925,-2.5025
263,9524233,0.9470860000000001,-0.011468,-0.307684,-2.03,-5.6875,-2.6075
264,9524330,0.9474520000000001,-0.011101999999999999,-0.307562,-2.2225,-5.53,-2.7825
265,9524427,0.9453780999999999,-0.010248,-0.307684,-2.1525,-5.3725,-2.9225
266,9524523,0.9470860000000001,-0.007320001,-0.309148,-1.9775,-5.3725,-2.9575
267,9524620,0.94916,-0.00488,-0.310368,-1.8375,-5.53,-2.7825
268,9524717,0.9501360999999999,-0.004392,-0.307562,-1.4875,-5.635,-2.5375
269,9524814,0.9490379999999999,-0.003172,-0.307318,-1.1725,-5.705,-2.38
270,9524910,0.9487940999999999,-0.0034159999999999998,-0.30548800000000004,-0.7175,-5.425,-2.2925
271,9525007,0.9470860000000001,-0.0032939999999999996,-0.303048,-0.4025,-5.11,-2.24
272,9525104,0.950868,-0.005368,-0.30109600000000003,0.0525,-4.795,-2.1525
273,9525201,0.95099,-0.009516001,-0.298656,0.1575,-4.41,-2.2925
274,9525297,0.9547720999999999,-0.01769,-0.295484,0.2975,-3.64,-2.345
275,9525394,0.9564799999999999,-0.026351999999999997,-0.295118,0.3325,-2.9925,-2.45
276,9525491,0.9541620000000001,-0.027572000000000003,-0.290848,-0.315,-2.2925,-2.7125
277,9525588,0.9490379999999999,-0.024522,-0.28621199999999997,-0.56,-1.4525,-2.625
278,9525684,0.94855,-0.018422,-0.280966,-0.6125,-0.875,-2.66
279,9525781,0.94001,-0.012931999999999999,-0.27889200000000003,-0.6475,-1.12,-2.5725
280,9525878,0.941108,-0.011590000000000001,-0.276086,-0.4375,-1.365,-2.3975
281,9525975,0.9431821,-0.013663999999999999,-0.27328,-0.4375,-1.435,-2.3975
282,9526071,0.9435479999999999,-0.014396,-0.269254,-0.8400001,-1.575,-2.415
283,9526168,0.9408639999999999,-0.015616,-0.270962,-1.3125,-1.505,-2.52
284,9526265,0.946232,-0.017324000000000003,-0.26913200000000004,-1.75,-0.5425,-2.2925
285,9526361,0.9541620000000001,-0.01464,-0.268278,-2.205,0.035,-2.0825
286,9526458,0.9596520000000001,-0.01403,-0.268888,-2.0825,0.0525,-1.75
287,9526555,0.9590420000000001,-0.010614,-0.27023,-2.1525,0.0525,-1.68
288,9526652,0.9566020000000001,-0.00793,-0.269742,-2.3975,0.105,-1.5225
289,9526748,0.955992,-0.00671,-0.27523200000000003,-2.625,0.63,-1.61
290,9526845,0.954406,-0.011346,-0.275476,-2.065,0.8925,-1.89
291,9526942,0.9577,-0.006954000000000001,-0.279014,-2.275,0.8925,-2.4675
292,9527039,0.9669721,-0.00976,-0.277672,-1.8725,0.4025,-2.66
293,9527135,0.9767321,-0.015006,-0.272426,-1.75,-0.4025,-2.66
294,9527232,0.9628241,-0.016104,-0.277672,-1.715,-1.645,-2.765
295,9527329,0.969534,-0.035013999999999997,-0.28243,-1.82,-2.415,-2.765
296,9527426,0.9619700000000001,-0.033062,-0.273768,-2.905,-3.1675,-2.275
297,9527522,0.9591639999999999,-0.022692,-0.276574,-2.275,-3.465,-1.8725
298,9527619,0.961116,-0.028182,-0.271328,-2.205,-3.43,-1.96
299,9527716,0.9696561,-0.027083999999999997,-0.270962,-3.045,-2.695,-2.6075
300,9527812,0.974658,-0.020618,-0.275476,-4.2175,-1.365,-3.43
301,9527909,0.980514,-0.055998,-0.263886,-3.325,-2.135,-2.975
302,9528006,0.977342,-0.039528,-0.265472,-4.305,-4.795,-1.6275
303,9528103,0.9465981,-0.030256,-0.24705,-5.18,-4.34,0.28
304,9528199,0.9531860000000001,-0.0183,-0.296216,-5.3375,-3.01,0.595
305,9528296,0.9563581,-0.015616,-0.267302,-0.945,-3.185,4.515
306,9528393,0.9562360999999999,0.002562,-0.2928,-1.4875,-9.66,4.8825
307,9528490,0.892918,0.011101999999999999,-0.341478,-6.86,-12.0575,1.7675
308,9528586,0.898652,0.010248,-0.33184,-8.9075,-0.245,0.595
309,9528683,0.9540401,0.015006,-0.309148,-4.9525,6.23,-0.0175
310,9528780,0.8935280999999999,0.06746601,-0.339038,0.91,-1.19,2.975
311,9528877,0.962458,0.0122,-0.330986,7.9275,-4.3925,10.325
312,9528973,0.8670540999999999,-0.053801999999999996,-0.321836,6.475,-6.825,14.245
313,9529070,0.91805,0.042944,-0.495076,-7.3675,0.35,3.4125
314,9529167,1.0345600000000001,-0.069906,-0.268888,1.715,28.2625,-0.7
315,9529264,0.8464360000000001,0.07076001,-0.345748,-4.4975,29.575,-3.0975
316,9529360,0.8903561,0.009028000999999999,-0.398086,-1.96,17.57,-1.1725
317,9529457,0.8155701,-0.032451999999999995,-0.1952,-6.265,-0.3325,-5.0575
318,9529554,1.351272,0.026351999999999997,-0.32696,-13.3525,-13.6675,-18.7775
319,9529651,0.865468,0.050752,-0.30988000000000004,-19.425,-73.255,-25.55
320,9529747,0.621102,0.040016,-0.5249659999999999,3.045,-72.905,-11.9175
321,9529844,0.7828741,0.306586,-0.260348,-3.71,17.2025,-6.58
322,9529941,1.025654,0.12139000000000001,-0.3233,2.2225,35.42,-2.2925
323,9530037,1.034438,-0.09186601,-0.21886799999999998,11.2875,4.97,1.3125
324,9530134,1.17547,-0.100284,-0.218502,10.01,3.5,-3.7625
325,9530231,1.03639,-0.167994,-0.178242,16.8875,2.695,-2.5025
326,9530328,0.8727879999999999,0.041724000000000004,-0.224602,2.5375,-16.6775,-8.05
327,9530424,0.780556,-0.09272000000000001,-0.267424,0.49,-16.66,-14.9275
328,9530521,0.841922,-0.14457,-0.235704,9.9575,9.4325,-12.565
329,9530618,1.066524,0.188246,-0.181292,10.7275,23.31,-10.7275
330,9530715,0.9270780999999999,0.23240999999999998,-0.191174,10.22,14.0525,-6.5975
331,9530811,1.016016,0.130174,-0.239608,17.885,15.785,-7.2625
332,9530908,1.0293139999999998,0.060512,-0.200934,12.04,12.6875,-8.4
333,9531005,1.001498,-0.017446,-0.205936,16.45,9.3975,-9.555
334,9531102,0.9962521000000001,-0.055265999999999996,-0.214354,14.665,8.4525,-9.5025
335,9531198,1.003206,-0.069052,-0.20483800000000002,16.065,9.065,-9.835
336,9531295,0.9895421,-0.099186,-0.203008,15.96,9.765,-10.0275
337,9531392,0.983808,-0.087474,-0.196298,14.56,9.38,-10.325
338,9531489,0.978196,-0.058926,-0.19947,14.8225,8.4525,-10.3425
339,9531585,0.9739261,-0.040260000000000004,-0.190442,16.52,8.05,-9.9925
340,9531682,0.9701440999999998,-0.013175999999999998,-0.190686,17.7625,7.245,-8.855
341,9531779,0.9596520000000001,-0.018544,-0.19337000000000001,20.5625,7.7175,-7.84
342,9531876,0.9520881,-0.035868000000000004,-0.202154,22.295,9.0825,-6.545
343,9531972,0.9552601000000001,-0.028914,-0.19983599999999999,21.84,8.715,-6.3175
344,9532069,0.955016,-0.033916,-0.19885999999999998,22.015,8.785,-6.6675
345,9532166,0.9507460999999999,-0.05563200000000001,-0.190076,22.9075,9.0825,-7.1575
346,9532263,0.9390341,-0.06771001,-0.18178,22.9775,9.415,-7.455
347,9532359,0.9298841,-0.082594,-0.170312,23.17,9.8,-7.9975
348,9532456,0.9202459999999999,-0.08698601,-0.157746,21.9275,10.1325,-8.5225
349,9532553,0.9152440000000001,-0.08906,-0.129442,19.355,11.375,-9.2225
350,9532650,0.9274440999999999,-0.097234,-0.11504600000000001,17.2375,13.09,-10.15
351,9532746,0.942572,-0.10004,-0.11626600000000001,14.4025,14.5075,-11.0775
352,9532843,0.961726,-0.09638,-0.121512,12.0225,15.8725,-11.6725
353,9532940,0.984418,-0.09942999999999999,-0.11760799999999999,11.48,17.3775,-11.55
354,9533036,1.0023520000000001,-0.079544,-0.12627,8.1375,19.075,-12.3725
355,9533133,1.012356,-0.052703999999999994,-0.13639600000000002,5.67,19.285,-11.9175
356,9533230,1.02236,-0.033428,-0.146522,8.785,20.4225,-10.57
357,9533327,1.0345600000000001,-0.017568,-0.161406,10.4475,21.875,-9.065
358,9533423,1.032852,0.0035380000000000003,-0.169702,6.23,20.58,-8.1375
359,9533520,1.046516,0.020252000000000003,-0.17543599999999998,4.4975,17.92,-6.79
360,9533617,1.059814,0.030012,-0.18775799999999998,5.3725,15.47,-5.215
361,9533714,1.054934,0.025254,-0.183122,5.7575,12.4425,-4.585
362,9533811,1.042246,0.017934000000000002,-0.187392,6.23,9.345,-5.46
363,9533907,1.032486,0.007198,-0.186416,7.84,6.9825,-6.615
364,9534004,1.024678,0.001342,-0.19459,8.505,4.0425,-7.665
365,9534101,1.0107700000000002,0.005856,-0.198006,8.9775,1.5225,-8.4525
366,9534197,0.999668,0.007076001,-0.201544,9.87,-0.1575,-8.715
367,9534294,0.995398,-0.000976,-0.19459,10.57,-2.1,-8.715
368,9534391,0.99125,-0.010004,-0.186538,11.305,-4.795,-8.6975
369,9534488,0.9928360999999999,-0.013541999999999998,-0.1891,11.06,-7.6125,-9.0825
370,9534584,0.99308,-0.017202000000000002,-0.1891,10.57,-8.8375,-9.205
371,9534681,0.9900300999999999,-0.022448,-0.186782,9.1175,-9.2925,-9.1525
372,9534778,0.9867360999999999,-0.023546,-0.181658,7.385,-9.9575,-8.7675
373,9534875,0.9708760000000001,-0.019275999999999998,-0.182756,4.1125,-11.2175,-8.33
374,9534971,0.9563581,-0.032208,-0.180926,0.9975,-12.5125,-7.175
375,9535068,0.94489,-0.05246,-0.176534,-1.82,-13.7725,-5.25
376,9535165,0.9358620999999999,-0.05563200000000001,-0.16897,-6.23,-14.175,-3.2725
377,9535262,0.9297620999999999,-0.05209400000000001,-0.169458,-10.115,-14.7175,-1.085
378,9535358,0.9234180000000001,-0.049532,-0.170312,-13.755,-15.505,1.7325
379,9535455,0.9242720999999999,-0.02806,-0.170678,-17.64,-16.1,4.27
380,9535552,0.9290299999999999,-0.010736,-0.176778,-22.5925,-16.66,6.09
381,9535649,0.921832,-0.03721,-0.147376,-25.9175,-16.59,8.085
382,9535745,0.9414741,-0.041724000000000004,-0.141276,-30.1175,-14.7,8.4525
383,9535842,0.9519661,-0.042456,-0.09942999999999999,-32.2,-11.4975,8.925
384,9535939,0.9630681000000001,-0.048434,-0.063074,-33.4075,-6.3875,8.5225
385,9536036,0.9846620999999999,-0.03355,-0.049166,-33.0225,-3.78,8.7325
386,9536132,0.9980821,-0.01952,-0.035258,-32.06,-2.87,8.19
387,9536229,1.018822,-0.000732,-0.022692,-31.745,-1.47,7.735
388,9536326,1.049078,0.004026,-0.027572000000000003,-30.8175,-0.9275,7.7875
389,9536423,1.07726,0.019886,-0.048068,-30.625,-2.9575,7.35
390,9536519,1.090314,0.035868000000000004,-0.06575800000000001,-29.3825,-6.0375,6.5275
391,9536616,1.090558,0.06112201,-0.083814,-28.84,-8.2775,5.04
392,9536713,1.0859219999999998,0.07625,-0.09540401,-27.5975,-8.5925,2.66
393,9536810,1.066158,0.087352,-0.100162,-26.425,-7.735,-0.21
394,9536906,1.057008,0.07978801,-0.114802,-25.095,-7.945,-2.905
395,9537003,1.042734,0.07259,-0.119682,-23.8175,-8.5925,-4.83
396,9537100,1.033462,0.07076001,-0.121268,-21.945,-8.7325,-6.2475
397,9537197,1.0201639999999998,0.07381001,-0.12261,-21.42,-8.995,-7.245
398,9537293,1.009306,0.067344,-0.11760799999999999,-19.95,-9.6075,-8.155
399,9537390,1.004426,0.064294,-0.116632,-18.3575,-10.3075,-9.835
400,9537487,0.999302,0.05063,-0.108946,-15.26,-10.7975,-10.815
401,9537583,0.995886,0.049288,-0.108214,-11.8125,-11.095,-11.7425
402,9537680,0.9817341,0.04404201,-0.10345599999999999,-8.9425,-11.725,-12.215
403,9537777,0.9651421,0.044774,-0.102846,-6.44,-11.9,-12.985
404,9537874,0.9413520000000001,0.054046000000000004,-0.09516001,-4.1475,-12.0225,-13.2475
405,9537970,0.9301280000000001,0.055022,-0.093696,-2.5375,-12.2675,-14.0875
406,9538067,0.9234180000000001,0.060024,-0.089426,-0.8575,-12.355,-14.4025
407,9538164,0.9219540999999999,0.064416,-0.082106,0.6125,-12.3375,-14.4725
408,9538261,0.9259799999999999,0.07222401,-0.07893401,1.7675,-12.7225,-14.49
409,9538357,0.9337880999999999,0.071614,-0.07551801,2.2225,-14.0175,-14.49
410,9538454,0.9396440999999999,0.07137001,-0.081618,2.45,-15.3825,-14.14
411,9538551,0.939522,0.06380599999999999,-0.080764,2.6775,-16.3275,-13.615
412,9538648,0.9381801,0.060024,-0.079666,2.3275,-16.905,-12.425
413,9538744,0.9358620999999999,0.053801999999999996,-0.079056,2.2925,-16.87,-10.7275
414,9538841,0.928176,0.036112,-0.07283401,1.715,-15.8375,-9.2575
415,9538938,0.9167081,0.021228,-0.0671,0.6125,-14.7,-8.295
416,9539035,0.912438,0.011224,-0.05209400000000001,-1.155,-13.51,-7.5775
417,9539131,0.9221981,0.005978,-0.043798000000000004,-3.045,-13.09,-6.825
418,9539228,0.9263459999999999,0.0061,-0.033916,-5.4425,-12.495,-6.16
419,9539325,0.933666,0.01037,-0.022448,-8.1025,-11.9525,-5.845
420,9539421,0.9378139999999999,0.025498,-0.021472,-10.8325,-12.25,-5.1625
421,9539518,0.939522,0.042456,-0.018056,-12.705,-12.39,-4.795
422,9539615,0.942694,0.06283,-0.02257,-13.86,-12.7225,-3.7975
423,9539712,0.950868,0.072712,-0.022692,-14.6125,-12.9675,-2.9225
424,9539808,0.9630681000000001,0.097478,-0.022082,-15.1725,-12.8975,-1.89
425,9539905,0.974658,0.11834000000000001,-0.019764,-15.2075,-13.65,-0.9275
426,9540002,0.995398,0.13298,-0.030378,-14.98,-15.9425,-0.8925
427,9540099,1.023946,0.14713199999999999,-0.026474,-14.385,-17.8325,-0.4375
428,9540195,1.019432,0.17641199999999999,-0.033184,-13.195,-16.8175,0.07
429,9540292,1.048834,0.186172,-0.026351999999999997,-11.1475,-18.375,-0.2275
430,9540389,1.101538,0.18178,-0.016104,-6.65,-19.5125,0.175
431,9540486,1.130818,0.169946,-0.012322,-6.0375,-18.8475,-0.245
432,9540582,1.136796,0.15555,0.017324000000000003,-4.2525,-17.7625,0.0
433,9540679,1.158146,0.153232,0.029158,-1.8725,-16.6075,-0.49
434,9540776,1.167418,0.11614400000000001,0.057584,-2.6775,-15.4175,-2.66
435,9540873,1.159122,0.059048,0.07564,-2.6075,-13.5975,-3.85
436,9540969,1.153144,0.031476,0.10723800000000001,-5.6875,-9.59,-4.97
437,9541066,1.1575360000000001,0.010248,0.158722,-7.035,-4.8125,-5.8625
438,9541163,1.162416,0.012688,0.173118,-9.1,-1.3125,-6.545
439,9541260,1.148508,0.011468,0.18666,-11.41,2.555,-6.7375
440,9541356,1.183522,0.022813999999999997,0.098088,-14.7525,6.9125,-6.93
441,9541453,1.256722,0.019398,-0.031110000000000002,-19.2325,7.385,-7.5075
442,9541550,1.29564,-0.011468,-0.05563200000000001,-26.04,5.075,-6.23
443,9541647,1.24806,-0.010126000000000001,0.024522,-38.3075,7.735,-5.32
444,9541743,1.16815,0.016347999999999998,-0.048434,-42.4375,8.5925,-6.3175
445,9541840,1.148142,0.022692,-0.190564,-40.145,1.4875,-10.325
446,9541937,1.122766,0.03172,-0.23692399999999997,-36.75,1.2075,-13.65
447,9542034,1.063474,0.046238,-0.265228,-31.43,4.1825,-15.4875
448,9542130,1.004182,0.048922,-0.331352,-27.23,1.82,-16.205
449,9542227,0.9528200000000001,0.050386,-0.35977800000000004,-23.0125,-0.5075,-16.835
450,9542324,0.895236,0.047945999999999996,-0.38503200000000004,-17.3775,-0.175,-19.46
451,9542421,0.8881600000000001,0.062098,-0.460794,-9.1175,-1.89,-21.49
452,9542517,0.9086559999999999,0.057462,-0.450546,-2.3275,-5.67,-23.3975
453,9542614,0.941108,0.093086,-0.41663,1.4175,-7.63,-25.3925
454,9542711,0.990762,0.10943399999999999,-0.413214,6.5275,-11.165,-26.04
455,9542808,0.9955200000000001,0.126636,-0.401746,9.065,-15.26,-24.6575
456,9542904,1.02968,0.135298,-0.391376,9.59,-15.61,-22.26
457,9543001,1.073844,0.129564,-0.38856999999999997,11.27,-13.02,-19.495
458,9543098,1.1034899999999999,0.102968,-0.390522,12.425,-10.78,-16.03
459,9543195,1.107882,0.060512,-0.367586,13.3525,-8.715,-11.2
460,9543291,1.0920219999999998,0.053801999999999996,-0.337818,12.6525,-5.6525,-5.7225
461,9543388,1.090192,0.04697001,-0.308294,13.7375,-3.71,0.1575
462,9543485,1.093852,0.023912,-0.274866,13.3875,-1.925,5.88
463,9543582,1.087386,0.036112,-0.253394,12.5825,-1.2775,10.115
464,9543678,1.069696,0.020984,-0.23387399999999997,13.755,-2.7125,14.0
465,9543775,1.032852,-0.017934000000000002,-0.21142600000000003,16.6075,-4.55,15.855
466,9543872,0.9979600000000001,0.023668,-0.20313,16.5025,-7.6825,16.0125
467,9543968,0.9684360999999999,0.025131999999999998,-0.194224,20.2825,-9.975,16.275
468,9544065,0.9340321,0.061975999999999996,-0.180804,20.44,-10.5,15.96
469,9544162,0.9021899999999999,0.066124,-0.157502,21.5775,-10.885,16.2575
470,9544259,0.8604661,0.08918200000000001,-0.144814,22.26,-11.375,15.47
471,9544355,0.808982,0.08454600000000001,-0.12285399999999999,24.57,-11.3925,14.315
472,9544452,0.76372,0.05124001,-0.114558,27.4575,-10.64,14.8225
473,9544549,0.737734,0.048922,-0.105652,27.475,-6.51,14.9975
474,9544646,0.71248,0.06539201,-0.11016600000000001,26.215,-3.535,15.61
475,9544742,0.68625,0.027694,-0.095282,29.6975,-5.6175,16.38
476,9544839,0.6258600000000001,0.010492,-0.11163,30.3975,-9.345,17.2375
477,9544936,0.625128,-0.014152000000000001,-0.133224,32.62,-14.3325,15.0675
478,9545033,0.694058,-0.078202,-0.104554,36.33,-14.2275,11.0425
479,9545129,0.7007680000000001,-0.020252000000000003,-0.130418,24.78,-12.355,10.465
480,9545226,0.692716,-0.059902,-0.096624,24.4475,-8.68,5.6875
481,9545323,0.7086979999999999,-0.087962,-0.082228,27.545,-4.2525,4.1825
482,9545420,0.754448,-0.11504600000000001,-0.07722601,27.4225,-2.6425,3.6575
483,9545516,0.766892,-0.14469200000000002,-0.07015,26.7225,0.2625,2.45
484,9545613,0.7625,-0.13785999999999998,-0.07747001,23.7125,4.8475,-0.4725
485,9545710,0.764452,-0.110654,-0.08052000000000001,20.93,8.575,-3.71
486,9545807,0.780922,-0.06746601,-0.07612801,17.64,12.1975,-7.595
487,9545903,0.818132,-0.016958,-0.011468,10.2025,17.115,-12.425
488,9546000,0.8853540000000001,0.081252,0.036233999999999995,7.0,23.6425,-15.1725
489,9546097,1.0084520000000001,0.108458,0.078446,11.165,24.745,-15.8725
490,9546194,1.135576,0.072712,0.042456,21.42,16.765,-13.2475
491,9546290,1.226954,0.025986000000000002,-0.000366,30.8,11.3925,-11.62
492,9546387,1.300886,0.00976,-0.029889999999999996,36.68,7.5775,-8.155
493,9546484,1.3481,-0.079422,-0.021106,37.4325,2.94,-5.355
494,9546581,1.3923860000000001,-0.15555,0.025863999999999998,32.6375,-1.47,-4.76
495,9546677,1.425814,-0.10248,0.102846,23.7825,-0.105,-4.375
496,9546774,1.429352,-0.063074,0.14310599999999998,15.19,5.285,-3.0625
497,9546871,1.359934,-0.045872,0.195078,11.8125,5.215,-2.73
498,9546968,1.308938,-0.060267999999999995,0.197884,8.7675,7.455,-5.4425
499,9547064,1.359202,-0.13542,-0.12444000000000001,12.215,9.52,-5.6175
500,9547161,1.565382,-0.18605,-0.39771999999999996,22.575,2.2925,-1.5225
501,9547258,1.4045860000000001,-0.091012,-0.18727,3.0275,2.8,-1.61
502,9547355,1.1631479999999998,-0.021106,-0.20642399999999997,-3.92,0.175,0.8925
503,9547451,0.942572,-0.011956,-0.419558,-2.3275,-7.7,3.22
504,9547548,0.857294,-0.04697001,-0.786656,-2.45,-5.705,4.0075
505,9547645,0.8907221,0.012444,-0.873276,1.54,-5.7925,9.94
506,9547742,0.952332,0.21752600000000002,-0.733708,-2.6075,-0.9625,10.5525
507,9547838,0.9572120999999999,0.370514,-0.5267960999999999,7.1925,2.555,12.2325
508,9547935,0.9001161,0.291092,-0.330376,20.9125,2.3975,22.2075
509,9548032,0.870226,0.08918200000000001,-0.213256,25.06,2.03,31.9025
510,9548129,1.051396,-0.108824,-0.273036,24.85,-6.44,37.9575
511,9548225,1.224148,-0.31354,-0.327204,21.3325,-8.33,37.0125
512,9548322,1.25843,-0.429806,-0.284992,13.93,-1.7675,26.95
513,9548419,1.248304,-0.475434,-0.238144,17.5525,2.1175,10.9375
514,9548516,1.193526,-0.41406800000000005,-0.25351599999999996,11.6375,-6.93,2.5025
515,9548612,1.11752,-0.28621199999999997,-0.22496799999999997,0.3675,-14.56,-2.8875
516,9548709,1.0438319999999999,-0.151646,-0.193614,-2.59,-9.625,-6.5275
517,9548806,0.95465,-0.018422,-0.167872,-7.7,-9.94,-8.61
518,9548903,0.873276,0.05368,-0.155306,-11.6375,-14.1575,-8.9075
519,9548999,0.7865340000000001,0.118584,-0.16226,-14.2275,-16.59,-8.295
520,9549096,0.7108941,0.13456600000000002,-0.146034,-17.3425,-16.1175,-8.2425
521,9549193,0.684176,0.0976,-0.13761600000000002,-26.9675,-14.525,-6.51
522,9549290,0.684908,0.108702,-0.128832,-36.54,-10.885,-3.4825
523,9549386,0.730292,0.029524,-0.12871,-36.6975,-7.7175,-5.2325
524,9549483,0.6724640000000001,0.013297999999999999,-0.13785999999999998,-29.225,-4.83,-0.7175
525,9549580,0.670146,0.015982,-0.09345201,-8.75,-3.6575,-4.13
526,9549677,0.668072,0.075396,-0.082472,16.87,-6.195,-11.27
527,9549773,0.646722,0.154574,-0.133224,17.3775,-16.8875,-9.1875
528,9549870,0.5948720000000001,0.180804,-0.12932000000000002,10.57,-18.9525,-8.4
529,9549967,0.558638,0.068564,-0.11248399999999999,6.1075,-11.27,-8.33
530,9550064,0.5546121,0.00183,-0.07002799999999999,13.65,-1.3475,-8.3475
531,9550160,0.6109760000000001,0.032451999999999995,-0.080764,15.3125,2.59,-12.565
532,9550257,0.58865,-0.007076001,-0.031110000000000002,24.815,6.3875,-11.7075
533,9550354,0.6084141,0.034038,-0.031110000000000002,31.395,10.745,-15.12
534,9550451,0.6466,-0.032208,-0.027816000000000004,35.35,13.3175,-21.7
535,9550547,0.669048,0.081496,0.0183,53.8825,15.1025,-17.395
536,9550644,0.742614,0.021472,-0.007198,45.08,13.8775,-17.99
537,9550741,0.779824,-0.059048,0.006587999999999999,23.8175,17.255,-12.2325
538,9550838,0.8375299999999999,-0.059536,0.07625,25.41,23.73,-10.3075
539,9550934,0.9302501,-0.057462,0.14090999999999998,32.795,25.13,-7.1575
540,9551031,1.006866,-0.08820599999999999,0.198738,36.7675,23.1175,-5.39
541,9551128,1.152778,-0.014274,0.177022,24.8675,18.27,-6.6675
542,9551225,1.318698,-0.074664,0.182268,10.01,14.8925,-8.5225
543,9551322,1.4221540000000001,-0.197152,0.13639600000000002,-0.56,12.495,-11.025
544,9551418,1.484618,-0.255468,0.132004,-1.4875,11.865,-15.33
545,9551515,1.5434219999999998,-0.208864,0.22106399999999998,5.775,10.08,-16.8175
546,9551612,1.5135319999999999,-0.14383800000000002,0.24631799999999998,6.265,9.17,-19.915
547,9551709,1.444114,-0.090158,0.271816,1.785,10.045,-18.9525
548,9551805,1.3668879999999999,-0.060634,0.244854,0.7875,6.195,-17.185
549,9551902,1.3321180000000001,0.1525,0.0305,13.5975,1.0325,-11.83
550,9551999,1.510604,0.285602,-0.48153409999999996,29.5925,-11.69,-12.5475
551,9552096,1.426424,-0.019154,-0.15921,29.26,-18.7775,-16.9925
552,9552192,1.31577,-0.071248,-0.259494,9.4325,-15.435,-18.375
553,9552289,1.174982,-0.08454600000000001,-0.581696,7.175,-20.3,-28.875
554,9552386,0.948306,-0.18056,-0.55266,-12.8625,1.365,-42.07
555,9552483,0.796782,-0.174582,-0.6001181,-19.67,18.9175,-53.6375
556,9552579,0.743102,-0.151402,-0.528016,-21.0875,13.0375,-61.425
557,9552676,0.74237,0.038186000000000005,-0.44859399999999994,-19.635,14.6825,-62.3
558,9552773,0.9561139999999999,0.21106,-0.421266,-12.95,10.57,-57.5575
559,9552870,1.143628,0.260104,-0.51545,-8.9425,5.7225,-49.9975
560,9552966,1.3418780000000001,0.219478,-0.49715,1.9075,0.945,-44.9225
561,9553063,1.54879,0.216428,-0.516792,6.615,-4.55,-44.45
562,9553160,1.591002,0.19556600000000002,-0.39345,5.7575,-5.81,-46.1125
563,9553257,1.601128,0.219966,-0.35831399999999997,0.8225,-1.82,-44.2225
564,9553353,1.519144,0.24131599999999997,-0.318298,-4.9875,0.56,-35.28
565,9553450,1.324432,0.19983599999999999,-0.292434,-8.19,0.2625,-24.6925
566,9553547,1.194258,0.102114,-0.241804,-10.43,2.2925,-15.8025
567,9553644,1.087142,0.032574,-0.159576,-12.4775,3.9025,-7.245
568,9553740,0.9772200999999999,-0.019398,-0.122244,-13.3175,2.1525,0.9975
569,9553837,0.886574,-0.013297999999999999,-0.104798,-14.595,4.69,8.155
570,9553934,0.8252079999999999,-0.07283401,-0.075762,-8.1725,2.7475,14.665
571,9554031,0.7315119999999999,-0.07869,-0.036112,-1.75,-3.465,21.9625
572,9554127,0.678686,-0.10504200000000001,-0.08113001,-3.745,-7.455,24.36
573,9554224,0.604144,-0.10540799999999999,-0.032695999999999996,-1.6275,-6.16,28.245
574,9554321,0.5443640000000001,-0.07503,-0.045872,6.0025,-2.8,29.75
575,9554418,0.494832,-0.023912,-0.05856,8.6275,-8.26,29.54
576,9554514,0.35319,-0.008296000999999999,-0.03782,9.1875,-19.0225,35.0
577,9554611,0.280356,-0.001952,0.06636801,8.2775,-18.7075,31.4125
578,9554708,0.35563,-0.231922,-0.17507,-16.5025,-27.4575,23.1
579,9554805,0.33976999999999996,-0.216306,-0.024034,0.49,-23.66,17.7975
580,9554901,0.428708,-0.18446400000000002,-0.087108,-3.99,-10.99,10.08
581,9554998,0.5355800999999999,-0.09577000000000001,-0.07198,-7.0525,-0.9275,18.4275
582,9555095,0.638426,-0.176656,-0.031476,-18.445,-6.405,15.5225
583,9555192,0.665022,-0.13054000000000002,-0.024888,-24.675,-5.4425,12.74
584,9555289,0.702598,-0.107726,0.023302,-31.5175,2.975,8.7675
585,9555385,0.7421260000000001,-0.09942999999999999,0.01037,-39.655,12.5825,6.965
586,9555482,0.799222,-0.024888,0.06039,-33.6175,16.9225,3.2375
587,9555579,0.8697379999999999,-0.038918,0.004148001,-51.4325,19.635,-2.4675
588,9555676,0.9259799999999999,0.05172801,0.025742,-48.5975,13.7025,-1.54
589,9555772,1.0004,0.135908,0.05453401,-34.8075,8.6975,-3.745
590,9555869,1.139846,0.135542,0.0793,-26.3375,5.88,-2.0125
591,9555966,1.328702,0.118584,0.058316,-18.83,-0.3325,-1.1725
592,9556062,1.479494,0.175558,0.045872,-14.945,-4.06,0.5425
593,9556159,1.5889280000000001,0.10906800000000001,0.163724,-7.595,-0.63,-1.05
594,9556256,1.651636,0.131638,0.256688,-7.945,7.455,3.99
595,9556353,1.658712,0.14884,0.293166,-11.375,8.855,12.355
596,9556449,1.561966,0.082838,0.296094,-15.9775,0.5775,16.275
597,9556546,1.451922,0.10723800000000001,0.293898,-10.3075,-0.9975,19.18
598,9556643,1.485594,0.02745,0.031598,-7.7525,-0.9275,18.27
599,9556740,1.60735,0.005612,-0.30487800000000004,-7.35,-10.36,19.0925
600,9556836,1.449482,0.127856,-0.14884,-11.0075,-16.2225,21.5425
601,9556933,1.307474,0.08784,-0.29951,-7.665,-6.1425,20.8775
602,9557030,1.066524,0.10504200000000001,-0.593042,-6.86,0.7525,24.815
603,9557127,0.9591639999999999,0.08052000000000001,-0.84241,-0.735,2.275,29.995
604,9557223,0.903898,0.23216599999999998,-0.9097540000000001,2.625,-0.5425,37.17
605,9557320,0.8053220999999999,0.321226,-0.645868,15.33,5.7925,42.4375
606,9557417,0.7320001,0.258762,-0.296338,32.445,21.525,44.135
607,9557514,0.764696,-0.007198,-0.130052,40.215,27.6325,44.73
608,9557610,0.9455,-0.227652,-0.280478,34.02,9.03,45.9725
609,9557707,1.159122,-0.290604,-0.400038,18.76,-11.935,41.825
610,9557804,1.425692,-0.32269000000000003,-0.367342,4.1475,-14.8925,35.2275
611,9557901,1.620282,-0.394304,-0.31890799999999997,-7.9275,-4.55,28.105
612,9557997,1.5616,-0.299754,-0.27816,-11.9875,0.2275,17.7975
613,9558094,1.481324,-0.21972199999999997,-0.20496,-6.0025,0.0175,13.7025
614,9558191,1.347124,-0.11236199999999999,-0.17921800000000002,-3.6575,-6.16,10.57
615,9558288,1.13887,0.013054,-0.169702,-4.0775,-15.82,4.4275
616,9558384,0.975024,0.108702,-0.152988,-4.3225,-15.435,-3.605
617,9558481,0.8697379999999999,0.14078800000000002,-0.125416,-3.57,-9.9225,-8.715
618,9558578,0.772626,0.160796,-0.104432,-3.5175,-6.335,-12.7225
619,9558675,0.6954,0.153842,-0.073688,-1.6625,-3.465,-16.0825
620,9558771,0.643184,0.149572,-0.058926,0.3325,-0.5425,-19.46
621,9558868,0.608658,0.163114,-0.055144000000000006,3.2375,-0.42,-21.735
622,9558965,0.570106,0.147376,-0.050508,7.7,-3.9025,-22.785
623,9559062,0.56242,0.10760399999999999,-0.05587601,10.85,-5.8275,-24.4825
624,9559158,0.555466,0.08759601,-0.048922,11.6725,-3.5525,-23.7475
625,9559255,0.525576,0.06466001,-0.032574,11.9,-2.4675,-22.085
626,9559352,0.500688,0.020496,-0.047092,8.925,-4.375,-17.255
627,9559449,0.484706,0.047945999999999996,-0.022326,12.3025,-4.69,-12.7925
628,9559545,0.46176999999999996,0.142374,-0.018788,13.7375,-3.1675,-12.4075
629,9559642,0.42822,0.11724200000000001,-0.000976,12.1975,-0.9625,-14.245
630,9559739,0.459818,0.162138,0.011712,18.8475,6.7025,-11.235
631,9559835,0.5172800999999999,0.09516001,0.049776,42.6125,18.4275,-13.3525
632,9559932,0.540094,0.150792,0.074542,68.4775,18.83,-12.1625
633,9560029,0.640256,0.152866,0.062586,64.7325,13.7025,-19.11
634,9560126,0.6695361,0.120048,0.10223600000000001,53.9,15.9775,-11.0775
635,9560222,0.8080061,0.06832001,0.12212200000000001,58.5375,21.56,-2.94
636,9560319,0.8453381,0.045506,0.08784,55.0375,12.4425,-4.2875
637,9560416,0.8712021000000001,0.048434,0.058316,62.8075,-6.0025,0.175
638,9560513,0.9353741,0.04867801,0.071858,71.47,-13.405,2.17
639,9560609,1.0529819999999999,-0.08332601,0.0793,54.355,-12.5125,1.6625
640,9560706,1.1636360000000001,-0.176656,0.06600201,36.47,-8.5225,-0.21
641,9560803,1.304302,-0.29987600000000003,0.18117,41.9125,-5.67,-1.26
642,9560900,1.396534,-0.296216,0.21142600000000003,32.375,1.33,-4.55
643,9560996,1.484008,-0.281942,0.309514,17.2025,7.35,-16.73
644,9561093,1.5135319999999999,-0.194102,0.35538600000000004,14.4025,5.145,-26.1275
645,9561190,1.4509459999999998,-0.10052799999999999,0.381006,21.5425,6.02,-27.79
646,9561287,1.402268,-0.026595999999999998,0.428464,17.255,2.905,-27.9825
647,9561383,1.263554,0.013175999999999998,0.43200200000000005,12.1975,-7.735,-20.9825
648,9561480,1.1995040000000001,0.07015,0.374296,9.59,-23.59,-17.6925
649,9561577,1.41215,0.19825,-0.097478,43.8725,-47.4425,-23.695
650,9561674,1.8257299999999999,0.03782,-0.159698,59.115,-81.0075,-22.225
651,9561770,1.513044,-0.19764,-0.156648,8.7675,-53.5325,-22.61
652,9561867,1.102514,-0.257054,-0.349164,-25.2875,-28.63,-30.45
653,9561964,0.95221,-0.257054,-0.515694,-28.7875,-25.2525,-38.5525
654,9562061,0.766526,-0.237046,-0.759572,-33.04,-9.7125,-48.09
655,9562157,0.7394421,-0.282918,-0.7612800999999999,-46.8825,-6.37,-55.5275
656,9562254,0.7208981,-0.279014,-0.5414359999999999,-55.685,4.655,-64.2075
657,9562351,0.753838,-0.1586,-0.403332,-59.0275,19.845,-67.34000999999999
658,9562448,0.978806,0.026595999999999998,-0.42724399999999996,-55.405,7.9275,-64.365
659,9562544,1.152534,0.219234,-0.565836,-50.0675,-17.7625,-57.9075
660,9562641,1.286368,0.29426399999999997,-0.598532,-36.295,-36.5575,-51.4325
661,9562738,1.385066,0.386252,-0.478728,-26.355,-38.5875,-43.82
662,9562835,1.501698,0.500688,-0.390156,-22.435,-28.4725,-33.04
663,9562931,1.555134,0.5070319999999999,-0.318786,-20.7025,-12.4425,-17.0975
664,9563028,1.47254,0.378322,-0.269742,-17.745,5.0225,-4.8825
665,9563125,1.285758,0.11736400000000001,-0.21655,-13.2475,14.42,5.1975
666,9563222,1.1575360000000001,-0.07015,-0.17128800000000002,-13.125,18.7775,11.2
667,9563318,1.0589600000000001,-0.165798,-0.11529,-12.8625,20.7375,12.9325
668,9563415,0.9636780999999999,-0.171654,-0.061732,-11.97,17.57,14.0875
669,9563512,0.9118280000000001,-0.17214200000000002,-0.02928,-10.815,11.0775,14.0
670,9563609,0.8587581,-0.19251600000000002,-0.022326,-15.05,3.7625,13.0375
671,9563705,0.8023939999999999,-0.143228,-0.019154,-20.51,-1.3825,13.79
672,9563802,0.7565221,-0.125172,-0.024644,-24.745,-5.0225,16.1
673,9563899,0.7016220000000001,-0.10760399999999999,-0.028426,-24.7975,-8.0325,21.0875
674,9563996,0.634522,-0.11321600000000001,-0.002318,-19.5825,-11.095,25.76
675,9564092,0.589992,-0.120902,-0.002318,-23.2575,-15.1725,27.3
676,9564189,0.5766939999999999,-0.09284201,-0.016714,-31.0275,-18.7075,28.7875
677,9564286,0.5441199999999999,-0.024156,0.000122,-28.84,-23.3975,32.6375
678,9564383,0.543876,-0.0122,0.007198,-26.74,-24.36,29.82
679,9564479,0.56181,-0.05856,-0.016592,-39.4275,-18.9,21.6825
680,9564576,0.508984,0.000244,-0.005856,-44.8875,-15.54,19.565
681,9564673,0.5132541,-0.07637200000000001,0.009272001,-46.9525,-16.7825,19.9325
682,9564770,0.611586,-0.15201199999999998,0.016836,-49.735,-17.71,18.1125
683,9564866,0.6067060000000001,-0.06075601,0.04392,-50.295,-12.2675,12.9325
684,9564963,0.6067060000000001,-0.138226,-0.00671,-62.86,-6.3875,7.7525
685,9565060,0.650016,-0.099186,-0.051972000000000004,-71.1375,-2.73,6.3175
686,9565157,0.7046720999999999,-0.035746,-0.046238,-55.23,-1.7675,-3.045
687,9565253,0.750422,0.07503,-0.004514,-44.94,-1.3825,-5.285
688,9565350,0.8338700000000001,0.126392,-0.06356201,-52.8675,-2.9225,-7.49
689,9565447,0.961726,0.140178,0.026474,-47.5475,-4.4975,-9.0825
690,9565544,1.074942,-0.01525,-0.0034159999999999998,-53.4975,-3.2025,-7.84
691,9565640,1.2347620000000001,-0.024278,0.013297999999999999,-53.2525,-4.9875,-4.13
692,9565737,1.393972,0.038796,0.089792,-34.37,-7.805,2.5725
693,9565834,1.4722959999999998,0.034648000000000005,0.132126,-32.6025,-6.02,4.06
694,9565931,1.4970620000000001,0.111752,0.22691999999999998,-29.19,-0.8575,8.3125
695,9566027,1.4574120000000002,0.180316,0.261812,-25.27,-0.385,9.555
696,9566124,1.396656,0.154452,0.287432,-19.7225,-1.5225,9.8875
697,9566221,1.366766,0.151402,0.33171799999999996,-15.0325,0.7175,6.7375
698,9566318,1.340292,0.125904,0.35563,-10.5525,3.22,4.0075
699,9566414,1.37067,-0.09235399999999999,0.12749000000000002,-10.395,4.9525,1.575
700,9566511,1.569408,-0.087108,-0.349896,-5.6875,-6.58,4.865
701,9566608,1.407148,0.049166,-0.141764,-10.465,-19.565,9.38
702,9566705,1.22061,0.041602,-0.16165,-3.745,-9.9575,8.8025
703,9566802,1.053226,0.055265999999999996,-0.47994799999999993,-1.47,-3.7275,15.4175
704,9566898,0.8836459999999999,0.15738,-0.757498,5.32,-0.14,22.6275
705,9566995,0.7659161,0.245464,-0.658434,12.1975,3.64,26.9325
706,9567092,0.730902,0.29987600000000003,-0.6791739999999999,28.175,13.615,34.79
707,9567189,0.796294,0.21825799999999998,-0.495076,43.19,16.8525,42.2275
708,9567285,0.854244,0.142862,-0.29426399999999997,53.165,23.5375,42.6825
709,9567382,0.990518,-0.050386,-0.23777800000000002,61.46,20.3875,47.0575
710,9567479,1.239154,-0.141398,-0.335012,53.8475,4.4275,46.725
711,9567575,1.473028,-0.20374,-0.40894400000000003,35.77,-14.735,44.94
712,9567672,1.607472,-0.308782,-0.33123,23.7125,-15.3125,40.0575
713,9567769,1.55611,-0.381494,-0.28157600000000005,24.2025,-9.9925,33.495
714,9567866,1.54574,-0.359412,-0.26169000000000003,25.4975,-7.0,23.1175
715,9567962,1.486326,-0.26461799999999996,-0.176656,24.4825,-10.955,15.54
716,9568059,1.263798,-0.093574,-0.17763199999999998,21.8925,-23.17,6.1075
717,9568156,1.1326479999999999,0.033428,-0.16433399999999998,19.425,-26.6175,-2.975
718,9568253,1.03578,0.133956,-0.12175599999999999,16.0125,-23.6075,-11.655
719,9568349,0.951356,0.165554,-0.09028,15.855,-21.7525,-17.885
720,9568446,0.8860860999999999,0.190686,-0.07612801,16.5725,-19.775,-23.485
721,9568543,0.779946,0.18422,-0.044774,20.0375,-17.3425,-27.4225
722,9568639,0.689178,0.169946,-0.032208,23.4675,-15.1025,-29.7675
723,9568736,0.6320819999999999,0.14713199999999999,-0.024644,26.4075,-13.5625,-32.585
724,9568833,0.589138,0.119316,-0.023302,28.28,-14.49,-34.9475
725,9568930,0.56608,0.114802,-0.023058000000000002,27.9475,-17.22,-35.7525
726,9569026,0.529358,0.10345599999999999,-0.024522,28.21,-19.04,-34.3525
727,9569123,0.499224,0.102846,-0.04404201,28.665,-20.0725,-31.5875
728,9569220,0.496296,0.05977999999999999,-0.019275999999999998,32.83,-19.1975,-29.4875
729,9569317,0.46543,0.10065,-0.041236,31.3425,-16.065,-23.59
730,9569413,0.422364,0.098576,-0.001098,32.4625,-14.7,-19.39
731,9569510,0.42748800000000003,0.07686,-0.010248,29.61,-13.965,-18.1475
732,9569607,0.477142,0.07564,-0.006954000000000001,25.62,-7.2625,-15.75
733,9569704,0.483242,0.08674201,-0.015372,27.545,3.5,-12.285
734,9569800,0.5607121,0.004026,0.033794,39.62,11.025,-11.2875
735,9569897,0.643306,-0.038308,0.039162,49.455,15.2425,-12.81
736,9569994,0.69479,-0.008052001,0.05587601,52.465,20.965,-6.1775
737,9570090,0.7605481,0.019642,0.118218,62.545,22.61,-4.5325
738,9570187,0.812276,0.050874,0.11529,61.7225,14.0525,-0.5775
739,9570284,0.87718,-0.004636001,0.071614,50.3825,5.2675,2.03
740,9570381,0.939522,0.045384,0.07551801,43.82,1.12,5.775
741,9570475,1.043588,0.00793,0.070516,47.74,-2.5375,4.935
742,9570572,1.159,-0.11285,0.10492,48.825,-5.6525,2.065
743,9570669,1.286978,-0.22033200000000003,0.19032000000000002,43.8025,-5.6,-0.14
744,9570765,1.408978,-0.249002,0.265472,45.605,-3.185,-7.35
745,9570862,1.470222,-0.25925,0.324276,44.065,-5.7225,-17.325
746,9570959,1.4271559999999999,-0.20776599999999998,0.321592,26.39,-9.415,-22.995
747,9571056,1.3856760000000001,-0.212524,0.343918,18.4975,-7.245,-30.5375
748,9571152,1.37555,-0.087352,0.381128,25.4975,-11.375,-35.6125
749,9571249,1.401292,0.00122,0.401868,41.6325,-20.2475,-34.51
750,9571346,1.410808,0.081618,0.22118600000000002,41.9825,-31.815,-23.66
751,9571443,1.664568,0.130174,-0.326838,27.0025,-43.6975,-19.5825
752,9571539,1.72386,-0.234362,-0.019642,28.315,-47.285,-15.505
753,9571636,1.5373219999999999,-0.3294,-0.199958,0.7875,-27.7725,-17.85
754,9571733,1.336754,-0.30622,-0.406992,-14.77,-40.9675,-25.795
755,9571830,1.045296,-0.28426,-0.527162,-22.6975,-38.85,-39.06
756,9571926,0.7494460000000001,-0.193858,-0.6007279999999999,-37.8,-18.48,-44.7825
757,9572023,0.6189060000000001,-0.08430201,-0.638304,-38.6225,-8.05,-46.13
758,9572120,0.68381,0.042212,-0.7248020000000001,-41.6325,-3.6225,-55.055
759,9572216,0.8476561,0.035746,-0.524112,-35.91,1.3475,-55.265
760,9572313,1.025166,0.016592,-0.401014,-36.4,9.66,-48.545
761,9572410,1.1486299999999998,0.009637999999999999,-0.410652,-33.845,1.4875,-40.7925
762,9572507,1.22671,0.066734,-0.465552,-33.67,-13.6325,-38.2025
763,9572603,1.275144,0.11895,-0.45896400000000004,-28.98,-23.9925,-34.895
764,9572700,1.359568,0.183366,-0.37685799999999997,-22.82,-26.39,-28.6475
765,9572797,1.426424,0.254614,-0.337574,-23.87,-22.89,-20.2125
766,9572894,1.3588360000000002,0.255956,-0.294752,-25.2175,-17.3425,-9.2225
767,9572990,1.22366,0.20630199999999999,-0.268156,-26.285,-9.0125,-0.0175
768,9573087,1.093608,0.138836,-0.2318,-26.005,-1.0675,6.5625
769,9573184,0.995398,0.0732,-0.182146,-26.9675,1.4525,10.92
770,9573281,0.9287861,0.008906,-0.155184,-23.345,1.8025,15.295
771,9573377,0.8809620000000001,-0.062952,-0.10614000000000001,-17.22,0.4375,18.9525
772,9573474,0.81679,-0.042578,-0.108702,-20.9125,-2.9225,20.2125
773,9573571,0.7333420999999999,-0.08174001,-0.06356201,-16.4325,-4.9875,22.4525
774,9573668,0.696376,-0.087474,-0.06649,-17.9025,-7.6475,22.995
775,9573764,0.662704,-0.077348,-0.04087,-23.765,-12.6525,18.97
776,9573861,0.6007279999999999,-0.06649,-0.049532,-20.51,-15.9075,20.3
777,9573958,0.5751081,-0.055022,-0.049776,-13.16,-10.9375,24.955
778,9574055,0.546194,-0.05172801,-0.04819,-11.235,-2.45,21.8575
779,9574151,0.51179,-0.08662001,-0.019642,-9.8525,-3.2725,21.07
780,9574248,0.5353359999999999,-0.036844,-0.020130000000000002,-11.62,-5.005,16.9925
781,9574345,0.5410699999999999,-0.10248,-0.01708,-19.6875,-3.6575,12.4075
782,9574442,0.564006,-0.100772,-0.002684,-23.975,-4.48,7.56
783,9574538,0.619028,-0.060146000000000005,0.011224,-23.6075,-4.375,5.2325
784,9574635,0.6944241,-0.03416,0.05246,-25.5675,-5.075,3.1325
785,9574732,0.7401741,-0.051484,0.05368,-34.02,-1.75,0.315
786,9574829,0.7300479999999999,-0.005856,0.10650599999999999,-39.4275,5.3025,0.875
787,9574925,0.7232161,0.029401999999999998,0.104432,-39.1825,4.795,1.19
788,9575022,0.7482261,0.055510000000000004,0.102724,-37.6425,7.8925,-0.595
789,9575119,0.799222,0.040260000000000004,0.05209400000000001,-40.6,12.005,-0.98
790,9575216,0.8968221,0.076616,0.04453,-39.62,11.865,-2.0825
791,9575312,0.9985700999999999,0.06929600000000001,0.036966000000000006,-36.2775,3.815,-0.0525
792,9575409,1.086044,0.050508,0.059048,-39.795,-1.54,4.34
793,9575506,1.19011,-0.023302,0.061732,-48.265,-2.1525,4.48
794,9575603,1.268068,-0.07002799999999999,0.07564,-42.6125,-4.9875,6.0025
795,9575699,1.378234,-0.026718000000000002,0.140178,-32.83,-5.705,8.8725
796,9575796,1.479494,0.00122,0.141032,-43.96,-7.98,10.71
797,9575893,1.517802,0.144326,0.22191799999999998,-28.21,-9.0125,12.74
798,9575990,1.5103600000000001,0.26596,0.288896,-25.0775,-5.635,15.4
799,9576086,1.4326459999999999,0.283406,0.345992,-24.01,-0.28,15.085
800,9576183,1.35847,0.214842,0.27266999999999997,-27.1425,0.0175,12.565
801,9576280,1.521462,-0.071614,-0.40565,-18.445,-5.075,11.41
802,9576377,1.55672,0.15054800000000002,-0.233508,-5.25,-22.3475,16.8
803,9576473,1.480592,0.24436599999999997,-0.105896,-9.38,-14.7175,14.3675
804,9576570,1.360178,0.15799000000000002,-0.459086,-3.5525,-10.5175,16.7125
805,9576667,1.0681100000000001,0.091378,-0.6289100000000001,-0.56,-4.3575,22.9425
806,9576764,0.9506241,0.03416,-0.8100801,6.2125,7.175,26.285
807,9576860,0.8810841,0.126636,-0.8399700000000001,7.2975,2.45,34.615
808,9576957,0.871568,0.16226,-0.737246,13.58,4.585,41.195
809,9577054,0.8263060999999999,0.18605,-0.454816,23.3975,14.945,40.6175
810,9577150,0.774456,0.067588,-0.142252,35.1575,26.8975,42.035
811,9577247,0.883768,-0.12041400000000001,-0.157746,36.7325,21.7,48.5275
812,9577344,1.055666,-0.25046599999999997,-0.3294,28.945,-5.145,48.09
813,9577441,1.286002,-0.316834,-0.387472,15.3475,-21.735,42.7875
814,9577537,1.414834,-0.392352,-0.33818400000000004,1.295,-16.8525,34.93
815,9577634,1.5051139999999998,-0.36282800000000004,-0.323422,-5.4075,-6.1425,23.1875
816,9577731,1.488888,-0.260836,-0.261202,-3.8675,-2.7825,12.4075
817,9577828,1.3621299999999998,-0.132614,-0.18971,-1.9075,-6.0725,5.9675
818,9577924,1.200968,-0.010858,-0.199714,-3.22,-12.915,1.6625
819,9578021,1.032486,0.081374,-0.193614,-4.8125,-16.7475,-4.4975
820,9578118,0.9073141,0.164456,-0.170068,-5.355,-14.2975,-12.25
821,9578215,0.8114220999999999,0.212646,-0.137982,-3.57,-11.445,-18.5325
822,9578311,0.738954,0.21777,-0.1159,0.8225,-9.0475,-23.065
823,9578408,0.696986,0.201178,-0.107726,4.9875,-8.0675,-24.535
824,9578505,0.651602,0.178242,-0.098942,8.6625,-9.66,-23.835
825,9578602,0.606584,0.171654,-0.0793,12.705,-11.935,-23.03
826,9578698,0.6008501,0.053436000000000004,-0.07600599999999999,16.1525,-12.7225,-22.7675
827,9578795,0.5857220000000001,0.058316,-0.058682000000000005,23.24,-14.14,-20.02
828,9578892,0.5410699999999999,0.08430201,-0.08503401,20.3,-15.855,-20.3
829,9578989,0.5063,0.145912,-0.06356201,20.0725,-14.945,-19.2325
830,9579085,0.49105,0.12053599999999999,-0.04514,24.29,-15.155,-20.5275
831,9579182,0.56425,0.061488,-0.08918200000000001,37.4325,-18.34,-23.94
832,9579279,0.542168,0.158478,0.009272001,57.3125,-16.0125,-22.2075
833,9579376,0.577304,0.130418,0.000244,52.2725,-10.3075,-23.87
834,9579472,0.5893821,0.07112601,0.041114,41.615,-3.08,-21.4725
835,9579569,0.604144,0.043188,0.060512,42.4025,10.1675,-17.78
836,9579666,0.642452,0.028548,0.092964,51.7125,24.0625,-14.07
837,9579763,0.6794180000000001,-0.000732,0.12212200000000001,58.2225,29.8725,-11.305
838,9579859,0.709186,-0.031110000000000002,0.11467999999999999,54.425,27.93,-6.23
839,9579956,0.736758,-0.052703999999999994,0.145058,47.495,30.4325,1.33
840,9580053,0.7687221,-0.069784,0.139934,43.96,30.31,4.5675
841,9580150,0.8352120000000001,-0.07307801,0.079178,39.8825,22.3125,7.455
842,9580246,0.912316,-0.040626,0.013663999999999999,41.755,11.8475,9.065
843,9580343,1.022848,0.033672,0.052582000000000004,48.51,1.9425,10.8675
844,9580440,1.172542,-0.14871800000000002,0.021106,37.03,-0.2625,11.13
845,9580537,1.217804,-0.294996,0.05587601,16.835,-1.6625,11.655
846,9580633,1.303936,-0.327936,0.1586,24.745,-2.03,5.0575
847,9580730,1.447286,-0.21106,0.245098,28.1225,-2.2925,-10.3075
848,9580827,1.473882,-0.138714,0.290604,17.7975,-3.5,-20.4925
849,9580924,1.423374,-0.09333,0.34477199999999997,12.0225,-5.425,-23.905
850,9581020,1.3668879999999999,-0.071492,0.353068,15.4875,-5.075,-28.28
851,9581117,1.288442,-0.02806,0.37149,13.3875,-6.5975,-30.555
852,9581214,1.2587959999999998,0.049532,0.30341399999999996,18.7075,-9.3275,-25.025
853,9581311,1.455338,0.162626,-0.12431800000000001,35.315,-18.9,-20.825
854,9581407,1.868308,0.037088,-0.024644,47.53,-46.2,-16.6075
855,9581504,1.673718,-0.289018,-0.02135,6.79,-36.7325,-18.025
856,9581601,1.2658719999999999,-0.30792800000000004,-0.188368,-24.4475,-36.8375,-30.765
857,9581698,1.0201639999999998,-0.18470799999999998,-0.42321800000000004,-24.325,-47.425,-40.53
858,9581794,0.752618,-0.14396,-0.50142,-30.5375,-22.015,-49.35
859,9581891,0.722362,-0.123098,-0.6720981,-43.2075,-5.0575,-57.4
860,9581988,0.777262,-0.07551801,-0.739808,-43.6625,-4.3225,-67.4625
861,9582085,0.8693719999999999,-0.069052,-0.5313100000000001,-44.1875,2.6425,-69.4225
862,9582181,0.9862479999999999,-0.0793,-0.39161999999999997,-45.92,9.695,-64.61
863,9582278,1.114592,0.001952,-0.395646,-41.475,-0.945,-57.96
864,9582375,1.187182,0.126148,-0.48080200000000006,-43.1025,-26.915,-52.465
865,9582472,1.2225620000000001,0.185684,-0.48922,-35.7175,-41.895,-45.71
866,9582568,1.3255299999999999,0.25559,-0.44956999999999997,-26.915,-39.795,-37.6425
867,9582665,1.412272,0.345016,-0.37881,-23.87,-28.1575,-27.1075
868,9582762,1.409832,0.369904,-0.32574000000000003,-24.0625,-14.665,-13.5275
869,9582859,1.307962,0.27828200000000003,-0.283894,-23.4325,-4.0775,-2.835
870,9582955,1.1720540000000002,0.127734,-0.245098,-22.085,2.31,4.725
871,9583052,1.08885,0.008052001,-0.197152,-21.945,6.5975,10.92
872,9583149,1.024434,-0.057462,-0.15420799999999998,-21.4725,8.295,16.1175
873,9583246,0.950868,-0.11504600000000001,-0.118828,-20.23,5.845,20.7025
874,9583342,0.863516,-0.142496,-0.085156,-20.125,0.2625,24.3075
875,9583439,0.7953180000000001,-0.149206,-0.0671,-20.615,-5.5125,24.4125
876,9583536,0.754448,-0.125904,-0.06270801,-22.295,-11.795,24.01
877,9583633,0.727364,-0.111752,-0.066246,-21.6475,-16.6425,24.955
878,9583729,0.693204,-0.125782,-0.06563601,-19.9675,-17.1325,27.1775
879,9583826,0.630008,-0.099552,-0.048312,-18.2875,-11.4275,31.43
880,9583923,0.5897479999999999,-0.079056,-0.039406000000000004,-19.0925,-7.1225,29.155
881,9584020,0.5723020999999999,-0.06112201,-0.023912,-25.7775,-10.465,24.9725
882,9584116,0.5655920999999999,-0.022326,-0.044407999999999996,-27.72,-17.71,23.5375
883,9584213,0.607316,-0.07259,-0.025376,-23.7475,-21.0525,20.4225
884,9584310,0.620736,-0.07490801,-0.011346,-30.7475,-16.2575,18.1125
885,9584407,0.6533100000000001,-0.082106,-0.011101999999999999,-35.28,-12.39,17.43
886,9584503,0.6514800000000001,0.031964,0.002684,-39.3225,-14.6825,15.96
887,9584600,0.6511140000000001,-0.00183,0.019398,-42.2975,-11.6025,8.295
888,9584697,0.662338,-0.014274,0.070516,-36.8725,-3.08,5.25
889,9584794,0.6851520999999999,-0.046238,0.071858,-44.555,7.385,1.365
890,9584890,0.7034521,0.0032939999999999996,0.10858,-47.7225,11.935,-2.7475
891,9584987,0.689666,-0.013054,0.101626,-47.5125,9.59,-7.42
892,9585084,0.726266,0.031354,0.08820599999999999,-40.3725,5.4425,-12.1625
893,9585181,0.78385,0.061,0.06466001,-37.2575,3.465,-10.185
894,9585277,0.9331780000000001,0.130418,0.036844,-35.9625,0.8225,-8.5225
895,9585374,1.072502,0.094306,0.083936,-29.1025,-2.345,-5.6
896,9585471,1.215852,0.05929201,0.07637200000000001,-27.7025,-7.245,-1.365
897,9585568,1.321992,-0.001586,0.09247601,-24.2025,-10.885,0.7525
898,9585664,1.4248379999999998,0.007564001,0.09320801,-23.975,-10.0975,2.45
899,9585761,1.481324,0.022813999999999997,0.162626,-24.8325,-10.185,0.8575
900,9585858,1.465708,0.08369201,0.225334,-25.2175,-6.7375,4.2175
901,9585955,1.39324,0.122244,0.275476,-20.265,-1.8025,8.0675
902,9586051,1.328336,0.07869,0.327814,-23.38,0.945,8.3475
903,9586148,1.319674,0.008052001,0.17812,-25.4625,1.2425,8.47
904,9586245,1.554158,-0.151158,-0.398818,-20.195,-8.3475,8.7325
905,9586342,1.528538,0.12322000000000001,-0.12017,-12.775,-20.825,13.265
906,9586438,1.521462,0.187026,-0.17055599999999999,-9.9925,-11.095,10.2025
907,9586535,1.4213,0.146156,-0.444812,-0.7875,-7.9975,15.0325
908,9586632,1.1575360000000001,0.09418401,-0.6541640000000001,1.26,-3.745,22.5925
909,9586729,1.044442,0.107726,-0.676612,5.9325,2.3275,27.0375
910,9586825,0.995398,0.185196,-0.790682,12.3725,2.9575,31.7975
911,9586922,0.906216,0.26108000000000003,-0.631594,19.74,7.4025,36.3475
912,9587019,0.791536,0.205692,-0.339038,29.47,21.14,35.42
913,9587115,0.74298,0.016714,-0.128344,37.66,26.635,34.93
914,9587212,0.7998321,-0.215086,-0.194346,38.4125,16.3625,35.5775
915,9587309,0.9642879999999999,-0.299388,-0.301218,32.865,-3.5525,36.4175
916,9587406,1.19499,-0.346846,-0.33305999999999997,23.9575,-11.7775,31.4825
917,9587502,1.417152,-0.35868,-0.31890799999999997,13.4225,-11.2525,24.7625
918,9587599,1.44326,-0.299754,-0.309758,6.8075,-10.78,19.6175
919,9587696,1.408734,-0.198372,-0.28377199999999997,2.73,-12.3025,14.7875
920,9587793,1.326506,-0.123098,-0.23058,0.14,-11.1825,8.8025
921,9587889,1.185474,-0.016104,-0.203252,1.6625,-11.795,3.8675
922,9587986,1.039562,0.060634,-0.195688,4.025,-16.765,-2.73
923,9588083,0.9385460999999999,0.125904,-0.177022,5.005,-16.5025,-11.0775
924,9588180,0.8480221,0.177144,-0.137128,7.0525,-13.8425,-18.4625
925,9588276,0.774578,0.18605,-0.11736400000000001,10.7975,-11.795,-23.87
926,9588373,0.73383,0.166408,-0.09418401,14.9625,-9.7825,-28.105
927,9588470,0.7107720000000001,0.158478,-0.071614,18.06,-8.2425,-29.995
928,9588567,0.6883239999999999,0.12431800000000001,-0.063684,19.3725,-9.975,-30.065
929,9588663,0.6633141,0.12139000000000001,-0.060877999999999995,22.435,-14.2275,-29.0325
930,9588760,0.639158,0.108702,-0.044407999999999996,24.745,-16.065,-27.2125
931,9588857,0.591212,0.098088,-0.062220000000000004,23.6425,-15.96,-25.48
932,9588954,0.579378,0.12358599999999999,-0.06771001,24.605,-14.455,-26.67
933,9589050,0.542656,0.119682,-0.036478,34.1775,-13.72,-25.6725
934,9589147,0.568398,0.09882,-0.036112,34.3525,-16.2225,-26.6525
935,9589244,0.569862,0.127002,-0.025254,36.645,-16.485,-25.375
936,9589341,0.6062181,0.090768,-0.01403,42.385,-16.6425,-22.8025
937,9589437,0.65209,0.07722601,0.025863999999999998,40.95,-12.46,-22.4525
938,9589534,0.681736,0.05977999999999999,0.05355801,41.8075,-4.2525,-20.5625
939,9589631,0.687348,0.022203999999999998,0.06892999999999999,45.185,6.23,-15.575
940,9589728,0.708088,0.019642,0.101504,46.6375,14.42,-10.465
941,9589824,0.7539600000000001,-0.005734,0.098332,48.16,15.225,-6.1425
942,9589921,0.779458,-0.014396,0.09028,49.035,12.5475,0.875
943,9590018,0.8075180000000001,-0.046848,0.107848,47.005,9.2225,2.3625
944,9590115,0.81984,-0.056608000000000006,0.110898,39.235,6.685,5.0925
945,9590212,0.8809620000000001,-0.078202,0.097478,34.685,5.5825,5.495
946,9590308,0.9566020000000001,-0.060146000000000005,0.083936,31.0275,2.9925,2.7475
947,9590405,1.0760399999999999,-0.08698601,0.03477,27.0725,-1.435,-0.8925
948,9590502,1.192672,-0.160552,0.045506,20.0025,-7.1925,-2.8525
949,9590599,1.266116,-0.225334,0.11736400000000001,13.3175,-6.7375,-8.8725
950,9590695,1.336754,-0.22996999999999998,0.179584,10.675,-3.255,-14.6475
951,9590792,1.32736,-0.226554,0.22448,3.08,-3.3075,-18.655
952,9590889,1.27795,-0.160552,0.25790799999999997,0.245,-5.3025,-19.53
953,9590986,1.301496,-0.022692,0.311222,20.195,-8.12,-21.07
954,9591082,1.3590799999999998,0.09381801,0.112606,27.58,-15.4875,-22.8725
955,9591179,1.539518,0.10528599999999999,-0.228506,26.915,-28.63,-17.815
956,9591276,1.6552959999999999,-0.107726,0.03294,14.805,-32.6025,-10.99
957,9591373,1.541592,-0.209596,-0.071492,-18.55,-20.6325,-12.04
958,9591469,1.406782,-0.137982,-0.22448,-21.98,-28.805,-24.185
959,9591566,1.169492,-0.12285399999999999,-0.5165481,-26.635,-33.705,-36.435
960,9591663,0.965752,-0.095282,-0.607438,-35.2975,-23.905,-38.5875
961,9591760,0.9677040000000001,-0.134932,-0.774944,-34.7725,-10.1325,-43.085
962,9591856,0.9711200999999999,-0.17446,-0.590236,-39.7425,-3.8675,-49.77
963,9591953,0.8870620000000001,-0.177998,-0.440176,-45.99,1.995,-57.015
964,9592050,0.8248421,0.031842,-0.291824,-43.435,2.0125,-57.05
965,9592147,0.9769760000000001,0.199226,-0.329034,-38.4125,-2.87,-53.655
966,9592243,1.16083,0.260592,-0.406382,-26.5825,-15.0325,-47.1625
967,9592340,1.260748,0.320372,-0.39405999999999997,-14.5075,-23.625,-39.48
968,9592437,1.309304,0.35258,-0.42016800000000004,-6.2825,-22.5225,-31.8675
969,9592533,1.335046,0.296948,-0.362462,-7.4375,-17.7625,-23.0475
970,9592630,1.338096,0.19861600000000001,-0.317688,-11.62,-9.6075,-16.5725
971,9592727,1.307596,0.06588,-0.28694400000000003,-13.055,-0.5425,-11.8825
972,9592824,1.22305,-0.014396,-0.24949000000000002,-14.7175,6.0725,-6.72
973,9592920,1.113982,-0.045384,-0.21032800000000001,-17.045,7.6475,-0.455
974,9593017,1.012478,-0.05977999999999999,-0.17263,-19.32,6.5975,6.125
975,9593114,0.9328120000000001,-0.075762,-0.131882,-20.65,5.32,12.075
976,9593211,0.8586360000000001,-0.08625401,-0.103822,-19.3375,0.315,16.1
977,9593307,0.8044680999999999,-0.076738,-0.101748,-19.2675,-4.1475,18.62
978,9593404,0.759572,-0.054412,-0.09211,-20.72,-4.935,20.72
979,9593501,0.7399300999999999,-0.05941401,-0.08296,-21.8575,-7.2975,21.2975
980,9593598,0.687958,-0.05002,-0.073688,-22.6625,-11.7425,23.345
981,9593694,0.6566041,-0.068442,-0.07002799999999999,-22.6275,-14.07,26.6525
982,9593791,0.654896,-0.046482,-0.077836,-24.5175,-13.405,28.7
983,9593888,0.6381821,-0.025254,-0.079422,-21.8575,-10.4825,26.0225
984,9593985,0.60451,-0.023302,-0.08869401,-19.8625,-10.0275,23.8875
985,9594081,0.612928,-0.031964,-0.06356201,-11.9175,-12.6,22.645
986,9594178,0.658312,-0.025131999999999998,-0.06344,-9.1525,-12.355,17.3075
987,9594275,0.69052,0.011101999999999999,-0.056608000000000006,-19.25,-9.7125,10.955
988,9594372,0.689422,0.050508,-0.006587999999999999,-19.2325,-9.31,8.96
989,9594468,0.714066,0.025254,0.002196,-14.5425,-4.375,2.0825
990,9594565,0.692472,-0.06588,0.028914,-18.6025,1.435,-2.73
991,9594662,0.67161,-0.030744,0.060146000000000005,-21.8925,3.0975,-3.57
992,9594759,0.68686,-0.037454,0.079544,-18.2,7.56,-4.8475
993,9594855,0.707966,0.004758,0.08296,-19.0575,13.4575,-7.28
994,9594952,0.742614,0.044652,0.071248,-20.335,16.2575,-11.0075
995,9595049,0.794708,0.097966,0.06466001,-21.245,14.91,-11.445
996,9595146,0.9009700999999999,0.091988,0.086864,-17.4475,13.51,-10.465
997,9595242,1.019554,0.071614,0.082472,-14.0,9.5725,-8.19
998,9595339,1.107272,0.037088,0.07710399999999999,-10.745,5.74,-5.2325
999,9595436,1.197064,0.036478,0.07112601,-7.4025,3.57,-3.3775
1000,9595533,1.280512,0.002806,0.09674601,-4.2875,1.7325,-3.15
1001,9595629,1.3285799999999999,0.09516001,0.16201600000000002,-2.1175,1.96,-2.5725
1002,9595726,1.343952,0.155184,0.19959200000000002,-7.805,3.5875,-1.7325
1003,9595823,1.3207719999999998,0.177876,0.231922,-7.3675,7.21,0.665
1004,9595920,1.257698,0.157746,0.287066,0.385,11.655,1.05
1005,9596016,1.222806,0.09650201,0.2318,1.3825,13.3,3.4825
1006,9596113,1.3571280000000001,-0.16811600000000002,-0.249612,-2.38,9.1175,5.5125
1007,9596210,1.401414,0.040016,-0.194224,-1.96,-4.97,11.1475
1008,9596307,1.3644479999999999,0.08064199,-0.16689600000000002,-5.1625,-3.1675,10.9375
1009,9596403,1.3290680000000001,-0.033794,-0.380396,-0.175,4.5325,15.2775
1010,9596500,1.135942,-0.060267999999999995,-0.552172,3.99,7.945,24.9375
1011,9596597,1.073356,-0.016592,-0.68503,10.0275,3.71,31.185
1012,9596694,1.023458,0.11016600000000001,-0.711016,10.9725,-5.7225,38.605
1013,9596790,1.045418,0.163846,-0.692228,27.37,-6.2475,45.1325
1014,9596887,1.023458,0.156404,-0.47689799999999993,38.0275,3.255,48.4925
1015,9596984,1.003816,0.044164,-0.21313400000000002,45.9375,20.8425,51.45
1016,9597081,1.01626,-0.183488,-0.17921800000000002,42.385,20.9475,49.07
1017,9597178,1.123864,-0.309026,-0.293044,28.8575,-0.7175,43.19
1018,9597274,1.270386,-0.399306,-0.354532,14.245,-18.1825,35.035
1019,9597371,1.334192,-0.41406800000000005,-0.31415,2.555,-19.5475,25.5325
1020,9597468,1.384334,-0.381738,-0.289628,1.1025,-12.39,18.62
1021,9597565,1.340902,-0.259128,-0.252784,3.815,-11.41,14.0875
1022,9597661,1.2463520000000001,-0.082716,-0.224846,1.9775,-13.3,8.3475
1023,9597758,1.1148360000000002,0.043798000000000004,-0.20837600000000003,-1.3475,-14.7525,3.955
1024,9597855,1.01443,0.139934,-0.185928,-2.2575,-13.8775,-0.91
1025,9597952,0.9467200000000001,0.176046,-0.165188,-1.085,-10.9725,-6.475
1026,9598048,0.8884040000000001,0.175558,-0.138348,1.435,-8.82,-10.15
1027,9598145,0.853146,0.16714,-0.12163399999999999,5.6525,-6.265,-14.0525
1028,9598242,0.79361,0.145912,-0.10418800000000002,12.0575,-5.5825,-17.535
1029,9598339,0.747128,0.125538,-0.08759601,16.6775,-5.46,-19.985
1030,9598435,0.7224841,0.11529,-0.07112601,21.735,-3.9375,-21.9625
1031,9598532,0.681736,0.09784401,-0.059902,26.74,-4.0425,-22.8725
1032,9598629,0.653554,0.097234,-0.048556,29.9775,-4.3225,-24.675
1033,9598726,0.638426,0.093696,-0.037942000000000004,33.0225,-4.34,-26.11
1034,9598822,0.6441600000000001,0.089426,-0.030378,34.65,-5.6875,-25.9875
1035,9598919,0.63745,0.087108,-0.024644,36.6975,-8.6625,-24.0275
1036,9599016,0.66368,0.08308201,-0.017202000000000002,38.36,-11.6725,-22.3475
1037,9599113,0.69845,0.10540799999999999,0.003904,39.515,-13.9125,-19.4425
1038,9599209,0.738954,0.119926,0.040016,40.8625,-14.5425,-16.45
1039,9599306,0.750544,0.126636,0.077958,42.2275,-12.8625,-12.5825
1040,9599403,0.756034,0.12627,0.098332,41.6675,-9.66,-8.9075
1041,9599500,0.781776,0.081252,0.08308201,43.8725,-6.125,-4.1475
1042,9599596,0.7823859999999999,0.045384,0.107116,48.685,-1.19,0.7175
1043,9599693,0.773602,0.022082,0.109678,47.915,2.73,4.5675
1044,9599790,0.75762,-0.008296000999999999,0.1098,49.6825,2.8525,6.6325
1045,9599886,0.753594,-0.013541999999999998,0.093574,46.795,3.745,6.16
1046,9599983,0.7714061,-0.022448,0.08820599999999999,45.4125,4.7775,4.2525
1047,9600080,0.8235001000000001,-0.013908000000000002,0.081374,44.73,4.1825,1.47
1048,9600177,0.9113399999999999,-0.020496,0.032695999999999996,43.1375,1.855,-2.345
1049,9600273,1.0171139999999999,-0.069784,-0.005612,42.525,-3.15,-6.7025
1050,9600370,1.065182,-0.09698999999999999,0.019275999999999998,40.1275,-7.035,-10.3425
1051,9600467,1.078358,-0.104554,0.075762,36.9425,-6.545,-16.24
1052,9600564,1.092876,-0.038551999999999996,0.067222,31.99,-5.67,-22.155
1053,9600660,1.114104,0.013541999999999998,0.107848,24.43,-6.51,-25.69
1054,9600757,1.153022,0.105774,0.12980799999999998,19.3375,-3.22,-28.455
1055,9600854,1.184376,0.13859200000000002,0.203252,22.2075,-1.715,-33.39
1056,9600951,1.1777879999999998,0.166286,0.162748,22.7675,-3.43,-35.9625
1057,9601047,1.37311,0.15189,-0.197762,32.83,-9.7825,-36.0675
1058,9601144,1.573556,-0.171654,-0.011101999999999999,53.41,-21.7175,-35.49
1059,9601241,1.538664,-0.222284,-0.0061,44.3275,-18.165,-34.2125
1060,9601338,1.34871,-0.167628,-0.287066,29.1725,-13.055,-41.5975
1061,9601435,1.187548,-0.27023,-0.35233600000000004,27.3525,-3.395,-55.5625
1062,9601531,1.058716,-0.179584,-0.407846,20.195,17.255,-61.355
1063,9601628,0.9126820999999999,-0.138836,-0.429684,24.3775,23.45,-61.705
1064,9601725,0.9091440000000001,-0.07417601,-0.460794,37.03,17.4475,-62.3
1065,9601822,0.964532,0.025863999999999998,-0.5887720000000001,45.29,16.8,-62.8075
1066,9601918,1.101294,-0.020374,-0.5648601,56.5075,15.6275,-63.56
1067,9602015,1.1916959999999999,-0.10723800000000001,-0.520208,63.3675,8.225,-61.8275
1068,9602112,1.2191459999999998,-0.156038,-0.5410699999999999,68.3025,-6.755,-59.9025
1069,9602209,1.19255,-0.137982,-0.49873599999999996,75.0225,-13.65,-62.4575
1070,9602305,1.126792,-0.046360000000000005,-0.39784200000000003,76.615,-12.4775,-65.17
1071,9602402,1.113372,0.08893801,-0.404186,74.7075,-15.4,-64.7325
1072,9602499,1.159244,0.172996,-0.364536,78.96,-21.49,-58.8
1073,9602596,1.2372020000000001,0.20508200000000001,-0.29341,85.99501,-18.0775,-47.74
1074,9602692,1.300032,0.179096,-0.224602,86.765,-8.5925,-36.5225
1075,9602789,1.322358,0.0793,-0.22777399999999998,88.6725,-10.08,-24.955
1076,9602886,1.2933219999999999,-0.03599,-0.17751,95.3925,-5.88,-17.15
1077,9602983,1.235494,-0.077836,-0.142008,93.1525,0.0525,-13.6325
1078,9603079,1.138992,-0.16226,-0.15176800000000001,92.90751,-12.88,-11.0425
1079,9603176,1.03395,-0.119316,-0.15725799999999998,94.92,-23.3975,-13.2475
1080,9603273,0.988078,-0.145424,-0.127246,102.1825,-29.6975,-14.98
1081,9603370,0.9995460999999999,-0.161528,-0.160796,99.6975,-34.265,-19.2675
1082,9603466,0.9514780999999999,-0.14896199999999998,-0.163602,94.4825,-36.4525,-20.1425
1083,9603563,0.90646,-0.10052799999999999,-0.138104,97.12501,-35.9975,-17.2025
1084,9603660,0.8967,0.040260000000000004,-0.161528,88.48001,-37.8875,-19.0225
1085,9603757,0.8699821,-0.06466001,-0.13359000000000001,82.6525,-40.1275,-19.775
1086,9603853,0.865468,-0.012688,-0.118096,77.805,-37.38,-19.6175
1087,9603950,0.8648581,0.07381001,-0.070638,79.17,-30.765,-19.2325
1088,9604047,0.8550979999999999,0.052948,-0.09089001,64.5575,-24.2025,-22.47
1089,9604144,0.82045,-0.012322,-0.07612801,60.5675,-22.1725,-19.0225
1090,9604240,0.8084939999999999,0.00366,-0.062098,58.45,-21.385,-17.325
1091,9604337,0.8058101,-0.024888,-0.047702,61.4075,-21.0875,-16.1
1092,9604434,0.7954399999999999,-0.053801999999999996,-0.04819,56.7875,-19.18,-17.255
1093,9604531,0.79666,-0.06405001,-0.013663999999999999,53.2175,-15.2075,-19.215
1094,9604627,0.778482,-0.098332,0.010736,53.4275,-10.0275,-19.1625
1095,9604724,0.746762,-0.103578,0.03782,49.525,-4.4625,-19.74
1096,9604821,0.7227279999999999,-0.11614400000000001,0.035136,45.9725,0.7,-21.105
1097,9604918,0.695766,-0.108702,0.07332201,44.1175,6.195,-23.3275
1098,9605014,0.6451359999999999,-0.104554,0.067222,35.84,11.9,-27.0375
1099,9605111,0.617564,-0.053314,0.103578,35.8575,16.065,-31.2725
1100,9605208,0.6653880999999999,0.00793,0.09979600000000001,40.11,20.6325,-37.7475
1101,9605305,0.7366361,0.037942000000000004,0.06075601,43.015,20.2125,-40.8975
1102,9605401,0.820084,0.063074,0.046360000000000005,45.1325,15.54,-42.0525
1103,9605498,0.915732,0.09552601,0.046726,46.1475,11.2175,-43.61
1104,9605595,0.9994241,0.130296,0.04697001,46.4275,7.9975,-45.64
1105,9605692,1.0729899999999999,0.157746,0.044164,44.135,5.775,-48.0725
1106,9605788,1.112152,0.124806,0.07344400000000001,42.805,7.4375,-48.7725
1107,9605885,1.067256,0.037332,0.096014,41.3,14.49,-48.02
1108,9605982,1.057008,-0.130662,-0.119072,39.795,21.3675,-46.8125
1109,9606079,1.134844,-0.276086,-0.4026,40.8275,21.84,-43.68
1110,9606175,1.1544860000000001,-0.28377199999999997,-0.35233600000000004,46.34,15.3125,-35.105
1111,9606272,1.059204,-0.11028800000000001,-0.44408000000000003,48.8425,9.8,-24.3775
1112,9606369,1.17547,-0.09259801,-1.027606,57.9425,0.14,-15.1025
1113,9606466,1.2872219999999999,0.070516,-1.042368,75.6,-24.2375,0.9275
1114,9606562,1.3438299999999999,0.504592,-0.749568,81.11251,-36.715,10.2025
1115,9606659,1.176324,0.689422,-0.447008,83.66751,-13.825,11.34
1116,9606756,0.8411900999999999,0.321226,-0.15176800000000001,100.8,20.8775,10.3425
1117,9606853,0.910486,-0.045384,-0.295606,110.8625,13.895,3.7625
1118,9606949,1.062986,-0.19483399999999998,-0.431514,110.4775,-2.3975,-2.415
1119,9607046,1.242082,-0.11211800000000001,-0.381494,101.4825,6.16,-11.41
1120,9607143,1.3618860000000002,-0.036722000000000005,-0.292068,101.4125,12.18,-17.92
1121,9607240,1.351394,0.050386,-0.28926199999999996,105.1575,5.9675,-18.585
1122,9607336,1.27734,0.20996199999999998,-0.31585799999999997,111.895,-5.495,-15.225
1123,9607433,1.201822,0.293044,-0.309148,117.7225,-8.1025,-12.1275
1124,9607530,1.106906,0.32757,-0.323178,125.335,-5.9675,-13.44
1125,9607627,1.0229700000000002,0.331474,-0.31451599999999996,133.5425,-5.425,-17.8675
1126,9607723,1.000034,0.318664,-0.292556,142.0475,-4.1475,-23.73
1127,9607820,1.001986,0.3172,-0.25851799999999997,151.095,-2.31,-29.2425
1128,9607917,0.99918,0.320738,-0.234118,158.55,-0.945,-34.9125
1129,9608014,0.968558,0.303902,-0.21008400000000002,166.215,-2.87,-41.125
1130,9608110,0.945256,0.271572,-0.18727,173.1625,-5.4425,-47.145
1131,9608207,0.9385460999999999,0.233264,-0.15945399999999998,180.7225,-5.985,-51.765
1132,9608304,0.9479401,0.22326,-0.12175599999999999,187.495,-4.7775,-55.265
1133,9608401,0.9688021000000001,0.184952,-0.11955999999999999,193.795,-0.9975,-59.115
1134,9608497,0.9944221,0.15189,-0.068686,194.145,-1.82,-61.005
1135,9608594,0.995398,0.133712,-0.050874,194.4075,-6.58,-63.98
1136,9608691,0.9874681000000001,0.113704,-0.05002,196.525,-7.98,-68.25
1137,9608788,0.97173,0.09869801,-0.038918,197.085,-5.46,-71.4875
1138,9608884,0.9762440999999998,0.09040201,-0.039528,195.58,-3.255,-75.04
1139,9608981,0.9697780999999999,0.08003201,-0.018422,194.46,-4.13,-75.635
1140,9609078,0.9730721,0.054046000000000004,-0.023668,193.55,-5.3725,-75.39
1141,9609175,0.9595300999999999,0.040260000000000004,-0.004392,188.125,-3.185,-75.28501
1142,9609271,0.9494040000000001,0.007198,0.00488,186.0075,-4.3225,-72.6075
1143,9609368,0.937448,-0.031598,0.014396,182.2625,-4.1125,-70.735
1144,9609465,0.9293961,-0.063684,0.032695999999999996,178.01,-0.9975,-68.95
1145,9609562,0.9070700999999999,-0.10919000000000001,0.025986000000000002,172.4625,-0.35,-66.8325
1146,9609658,0.8753501,-0.13359000000000001,0.010614,166.425,0.0,-64.0675
1147,9609755,0.853878,-0.17641199999999999,0.013908000000000002,164.57,1.5925,-62.8775
1148,9609852,0.8552200000000001,-0.200202,0.004636001,158.1825,3.4125,-61.8275
1149,9609949,0.8752280000000001,-0.198494,-0.022203999999999998,150.2025,5.215,-60.13
1150,9610045,0.9092661,-0.189222,-0.038918,144.27,7.0875,-58.065
1151,9610142,0.9259799999999999,-0.183,-0.069052,136.64,9.135,-55.685
1152,9610239,0.9605060999999999,-0.197274,-0.064172,131.7575,13.1075,-52.9375
1153,9610336,1.002718,-0.194346,-0.081862,125.3,16.52,-49.175
1154,9610432,1.013332,-0.189466,-0.08759601,120.3475,17.0625,-44.6775
1155,9610529,1.0208959999999998,-0.19580999999999998,-0.0976,116.13,18.4625,-39.8825
1156,9610626,1.003328,-0.17568,-0.08723001,108.3425,20.02,-36.4875
1157,9610722,0.9586761,-0.13542,-0.060146000000000005,104.9825,21.035,-33.425
1158,9610819,0.934276,-0.102724,-0.033672,104.265,21.945,-31.4125
1159,9610916,0.9524540000000001,-0.04453,-0.068564,104.3,22.5925,-30.9575
1160,9611013,0.9951540000000001,-0.00122,-0.119804,106.015,21.9975,-31.5175
1161,9611109,1.03334,0.017568,-0.18556199999999998,108.7975,20.44,-31.4825
1162,9611206,1.03944,-0.000488,-0.137006,110.88,21.0175,-33.3375
1163,9611303,0.9738041,0.040260000000000004,-0.137128,111.055,24.5875,-36.8725
1164,9611400,0.9441579999999999,0.150426,-0.331596,115.535,26.285,-42.0525
1165,9611496,0.9558701,0.244854,-0.374418,119.4025,29.295,-49.9975
1166,9611593,0.93086,0.227042,-0.42431599999999997,123.0075,32.2875,-56.2625
1167,9611690,0.9629459999999999,0.210206,-0.644648,129.08,31.6925,-62.545
1168,9611787,1.081896,0.08296,-0.609634,134.575,30.7475,-70.945
1169,9611883,1.218536,-0.080276,-0.536068,128.8175,30.5025,-77.245
1170,9611980,1.160708,-0.11834000000000001,-0.453718,120.645,28.1925,-79.7475
1171,9612077,1.09007,0.095282,-0.48531599999999997,114.6075,32.62,-79.275
1172,9612174,1.0906799999999999,0.25376,-0.427976,117.7225,27.9825,-69.405
1173,9612270,1.1346,0.312198,-0.39955,120.3475,24.85,-55.2475
1174,9612367,1.1716879999999998,0.24631799999999998,-0.365268,128.0825,28.91,-43.6275
1175,9612464,1.193526,0.149084,-0.344406,135.905,28.56,-34.9475
1176,9612561,1.19682,0.055510000000000004,-0.316346,143.745,22.3475,-30.5025
1177,9612657,1.204628,-0.009516001,-0.2745,149.38,15.68,-28.7525
1178,9612754,1.201822,-0.010248,-0.22716399999999998,155.4525,10.745,-28.9625
1179,9612851,1.15595,0.00366,-0.192882,160.3525,7.5075,-30.2575
1180,9612948,1.083848,0.029646,-0.15420799999999998,165.9525,7.0875,-32.4625
1181,9613044,1.002718,0.06405001,-0.108702,170.1,8.2775,-34.2475
1182,9613141,0.9052401,0.097234,-0.08857201,173.11,7.385,-34.475
1183,9613238,0.830576,0.06892999999999999,-0.039772,179.1825,5.495,-34.755
1184,9613335,0.806542,0.077836,-0.022203999999999998,174.44,5.705,-38.7625
1185,9613431,0.779946,0.028669999999999998,0.010492,172.7075,7.8925,-42.8575
1186,9613528,0.77775,0.035746,0.017934000000000002,174.58,6.8075,-41.6325
1187,9613625,0.8280139999999999,0.002562,0.038551999999999996,171.885,6.65,-41.51
1188,9613722,0.8629061,0.032695999999999996,0.064172,166.9675,10.7625,-39.27
1189,9613818,0.8873059999999999,0.007198,0.05429,162.225,13.4575,-39.1475
1190,9613915,0.8549761,0.01586,0.05636401,154.84,9.8,-39.3925
1191,9614012,0.781532,-0.048434,0.025376,150.3425,5.215,-40.25
1192,9614109,0.7470060000000001,-0.046482,0.021716,150.7625,3.8675,-40.9675
1193,9614205,0.811056,-0.062464,0.01281,145.46,7.8225,-40.5825
1194,9614302,0.82045,-0.15420799999999998,0.005856,139.9125,13.8075,-41.58
1195,9614399,0.864492,-0.149694,-0.00488,126.735,9.38,-41.93
1196,9614496,0.9390341,-0.2074,0.005002,124.32,8.435,-39.865
1197,9614592,0.9766101,-0.270596,-0.048556,114.3275,12.9675,-39.41
1198,9614689,0.989664,-0.260592,-0.010126000000000001,103.5475,9.7125,-36.8375
1199,9614786,1.040294,-0.27571999999999997,-0.027938,99.155,7.8225,-32.9875
1200,9614882,1.031266,-0.260592,-0.003172,90.35251,8.54,-28.98
1201,9614979,1.049566,-0.21301199999999998,-0.016714,80.43,8.2075,-22.0325
1202,9615076,1.0754299999999999,-0.11724200000000001,0.003904,72.45,10.465,-15.47
1203,9615173,1.098976,-0.040260000000000004,0.027206,65.8175,12.11,-8.8375
1204,9615269,1.159122,-0.02684,0.07283401,62.1425,11.655,-3.535
1205,9615366,1.23769,-0.080276,0.08417999999999999,60.445,8.2425,2.17
1206,9615463,1.324066,-0.138348,0.07686,59.36,4.8475,7.7525
1207,9615560,1.40483,-0.196054,0.080154,56.35,3.2025,14.315
1208,9615656,1.4457,-0.277306,0.029401999999999998,52.605,-0.6475,20.9825
1209,9615753,1.431792,-0.296216,0.053070000000000006,45.08,-6.545,26.3725
1210,9615850,1.449238,-0.281332,0.076738,41.475,-5.46,28.56
1211,9615947,1.47193,-0.25302800000000003,0.061,40.4775,-1.295,29.155
1212,9616043,1.458022,-0.21386599999999997,0.07173600000000001,39.8825,-0.5075,29.8025
1213,9616140,1.443016,-0.193858,-0.16348,40.775,-1.47,30.065
1214,9616237,1.4088559999999999,-0.12895399999999999,-0.363316,44.7475,-10.535,31.2725
1215,9616334,1.297348,0.00122,-0.3721,38.6575,-12.9675,28.1925
1216,9616430,1.206092,0.089304,-0.422608,39.41,-10.185,22.2425
1217,9616527,1.08641,0.151036,-0.401868,43.6975,-11.935,13.475
1218,9616624,0.9802700000000001,0.203252,-0.306586,52.08,10.045,7.315
1219,9616721,0.8086161000000001,0.130174,-0.42907399999999996,57.505,15.7325,2.87
1220,9616817,0.687958,0.078202,-0.548756,58.0475,4.6025,-2.275
1221,9616914,0.7019880000000001,0.041968,-0.5574180999999999,61.32,9.065,-5.2325
1222,9617011,0.805078,-0.010248,-0.539972,61.0925,11.235,-6.2825
1223,9617108,0.936106,-0.024766,-0.512034,55.965,1.7675,-5.565
1224,9617204,1.146434,-0.046116000000000004,-0.4819,57.015,0.525,-3.6575
1225,9617301,1.297714,-0.072956,-0.457744,51.1525,-6.44,0.245
1226,9617398,1.2761200000000001,-0.09613601,-0.44237200000000004,43.19,-21.42,4.865
1227,9617495,1.199626,-0.12395199999999999,-0.430782,39.55,-29.5575,4.7425
1228,9617591,1.139846,-0.162382,-0.425292,36.33,-23.275,-0.14
1229,9617688,1.086654,-0.166408,-0.392596,34.9125,-21.5775,-3.64
1230,9617785,0.9785620999999999,-0.111142,-0.354288,30.52,-25.0425,-6.6325
1231,9617882,0.9060940000000001,-0.05453401,-0.3294,27.6675,-22.7675,-8.54
1232,9617978,0.8569280999999999,-0.029524,-0.29902199999999995,24.9725,-21.455,-5.7925
1233,9618075,0.80886,0.017812,-0.281698,24.36,-19.7575,-2.8875
1234,9618172,0.7409060000000001,0.050752,-0.263398,27.6325,-18.48,-2.0125
1235,9618269,0.7041841,0.041724000000000004,-0.23363,27.5625,-21.1225,1.05
1236,9618365,0.6834439999999999,0.04404201,-0.2074,26.39,-16.1525,-1.1025
1237,9618462,0.69235,0.027206,-0.189466,27.335,-12.495,-2.8
1238,9618559,0.655628,0.060634,-0.173484,29.225,-12.915,-6.5975
1239,9618656,0.6001181,0.060877999999999995,-0.14884,35.8225,-17.115,-8.995
1240,9618752,0.560834,0.001952,-0.174704,31.8325,-14.315,-6.79
1241,9618849,0.5978,0.027572000000000003,-0.135908,33.46,-8.8725,-6.7725
1242,9618946,0.6451359999999999,0.047702,-0.129198,35.21,-2.0125,-11.2175
1243,9619043,0.693814,0.01708,-0.128222,30.1525,-0.0525,-14.3325
1244,9619139,0.685396,-0.007320001,-0.10052799999999999,34.79,1.225,-13.895
1245,9619236,0.7060141,0.007198,-0.07686,41.125,-0.3325,-16.975
1246,9619333,0.6925941,0.015493999999999999,-0.05648601,42.8225,-0.63,-19.845
1247,9619430,0.6785640000000001,0.030744,-0.05124001,44.94,2.94,-22.0675
1248,9619526,0.69662,0.055754,-0.067222,42.4025,3.2025,-22.9075
1249,9619623,0.69784,0.094062,-0.068564,40.8275,6.37,-23.3275
1250,9619720,0.7017439999999999,0.12358599999999999,-0.024888,45.325,10.115,-22.8025
1251,9619817,0.715896,0.091988,-0.043432,50.33,11.48,-20.65
1252,9619913,0.72895,0.07234600000000001,-0.0034159999999999998,51.835,15.68,-19.3725
1253,9620010,0.7759199999999999,0.09784401,0.002684,49.035,21.7875,-19.0225
1254,9620107,0.81801,0.06039,0.040138,46.795,26.46,-19.565
1255,9620204,0.8547319999999999,-0.019032,0.07722601,39.725,27.79,-19.495
1256,9620300,0.9651421,-0.104432,0.09784401,25.7425,29.61,-18.7775
1257,9620397,1.134356,-0.205692,0.133346,16.8525,35.07,-17.9025
1258,9620494,1.287344,-0.296338,0.154696,16.8175,37.485,-17.045
1259,9620591,1.403366,-0.393206,0.201544,11.515,39.445,-21.595
1260,9620687,1.4360620000000002,-0.32866799999999996,0.21081599999999998,-6.5625,42.3325,-27.86
1261,9620784,1.40239,-0.23119,0.178974,-13.545,44.03,-31.9725
1262,9620881,1.376282,-0.09540401,-0.021594,-20.405,41.825,-32.445
1263,9620978,1.539396,0.072956,-0.595726,-21.9275,31.2725,-28.2625
1264,9621074,1.7071459999999998,-0.044774,-0.409432,-19.4075,16.555,-21.4375
1265,9621171,1.6942139999999999,-0.271206,-0.295362,-28.2275,15.26,-16.9575
1266,9621268,1.72996,-0.33976999999999996,-0.592554,-29.7325,-1.3825,-16.8875
1267,9621365,1.4570459999999998,-0.377346,-0.642696,-36.1025,-9.1,-21.5775
1268,9621461,1.089216,-0.282552,-0.681126,-47.25,-3.2025,-26.705
1269,9621558,0.922076,-0.257298,-0.5875520000000001,-57.96,0.14,-31.6225
1270,9621655,0.803248,-0.228506,-0.53863,-59.36,4.0075,-34.3175
1271,9621752,0.751276,-0.112728,-0.392108,-57.96,6.7725,-34.335
1272,9621848,0.7332201,0.07246799999999999,-0.40528400000000003,-52.9725,8.33,-32.1475
1273,9621945,0.8014180000000001,0.235094,-0.490562,-47.425,3.885,-29.9425
1274,9622042,0.89975,0.287432,-0.50508,-41.16,-0.8225,-26.7925
1275,9622138,1.067988,0.334768,-0.5294800000000001,-33.145,-3.4825,-23.8
1276,9622235,1.246474,0.36234,-0.568886,-27.93,-7.9275,-20.9125
1277,9622332,1.3725,0.328424,-0.49593000000000004,-24.7625,-9.905,-16.03
1278,9622429,1.40056,0.241438,-0.450668,-24.5175,-7.0,-11.6375
1279,9622525,1.32126,0.161528,-0.387594,-25.8825,-5.04,-8.33
1280,9622622,1.206824,0.07490801,-0.330864,-25.83,-2.6075,-4.2175
1281,9622719,1.062742,0.023912,-0.28486999999999996,-28.4725,-2.6775,0.8925
1282,9622816,0.9263459999999999,-0.025254,-0.242902,-31.29,-3.4125,5.005
1283,9622912,0.8359440999999999,-0.07588400000000001,-0.19337000000000001,-32.5325,-4.34,7.5425
1284,9623009,0.761646,-0.081374,-0.159576,-32.375,-5.6875,10.325
1285,9623106,0.696864,-0.07637200000000001,-0.14798599999999998,-30.625,-6.825,12.53
1286,9623203,0.6502600000000001,-0.0008540001,-0.14993800000000002,-30.6775,-7.7,15.1725
1287,9623299,0.60817,0.042944,-0.11895,-22.575,-9.0125,19.495
1288,9623396,0.599264,0.04392,-0.132614,-17.7625,-6.2825,20.755
1289,9623493,0.590236,0.042456,-0.10809200000000001,-18.0775,-3.99,18.3575
1290,9623590,0.579378,0.046360000000000005,-0.09418401,-13.9125,-4.025,16.4325
1291,9623686,0.516426,0.055144000000000006,-0.094916,-6.4575,-4.55,16.6775
1292,9623783,0.5039819999999999,0.02196,-0.094306,2.5375,-4.4625,18.0775
1293,9623880,0.544608,-0.032574,-0.08369201,6.0375,-5.39,18.97
1294,9623977,0.5653481,-0.052948,-0.07198,8.8025,-9.415,18.6375
1295,9624073,0.6917399999999999,-0.113704,-0.118828,8.6975,-17.0275,17.465
1296,9624170,0.765428,-0.12212200000000001,-0.089426,6.16,-5.7925,9.9925
1297,9624267,0.8115439999999999,-0.09028,-0.057218,-10.7975,7.525,6.7025
1298,9624364,0.802272,-0.101992,-0.030012,-9.59,8.9075,7.9275
1299,9624460,0.78141,-0.07381001,-0.046360000000000005,-15.9075,3.57,7.2975
1300,9624557,0.8113001,-0.037698,-0.010492,-21.98,3.92,4.97
1301,9624654,0.8818159999999999,-0.021716,0.0427,-27.6675,9.8525,4.445
1302,9624751,0.9501360999999999,0.025742,0.052703999999999994,-33.5825,12.215,4.2175
1303,9624847,0.996008,0.072712,0.04331,-34.8075,11.13,4.76
1304,9624944,1.0492,0.05612,0.027083999999999997,-28.98,10.955,7.105
1305,9625041,1.123132,0.06563601,0.02135,-27.4225,10.395,8.8725
1306,9625138,1.225368,0.07027201,0.045994,-24.8325,10.64,12.25
1307,9625234,1.3542,0.117852,0.048312,-23.135,12.18,14.665
1308,9625331,1.451922,0.117486,0.124806,-23.0125,13.195,17.4825
1309,9625428,1.494256,0.130174,0.137128,-25.1475,12.4075,19.6875
1310,9625525,1.438014,0.18251199999999998,0.189832,-24.0975,13.0725,19.145
1311,9625621,1.328214,0.173118,0.146278,-21.245,15.925,17.2025
1312,9625718,1.336144,0.06880801,-0.18470799999999998,-13.8425,13.685,14.945
1313,9625815,1.464,0.08308201,-0.595726,-5.4075,2.03,14.245
1314,9625912,1.355542,0.240218,-0.258884,-7.3325,-5.74,12.1975
1315,9626008,1.316746,0.165554,-0.554978,2.8525,5.1275,10.9375
1316,9626105,1.117642,0.11285,-0.669048,9.345,6.5625,15.715
1317,9626202,1.0262639999999998,0.089426,-0.8764481,15.4,9.8175,22.1025
1318,9626299,0.9311040999999999,0.16433399999999998,-0.96441,23.5025,10.1325,29.19
1319,9626395,0.777262,0.24326799999999998,-0.6326921,30.4325,16.2225,31.4475
1320,9626492,0.6380600000000001,0.19397999999999999,-0.270474,40.635,27.51,32.375
1321,9626589,0.78141,-0.051484,-0.161162,44.975,31.15,32.445
1322,9626686,0.9939341,-0.26169000000000003,-0.326228,42.35,25.5675,32.27
1323,9626782,1.283074,-0.356362,-0.398696,36.4,21.035,27.58
1324,9626879,1.642364,-0.41687399999999997,-0.342454,22.855,22.225,20.7725
1325,9626976,1.7139779999999998,-0.410042,-0.29438600000000004,4.1825,6.65,17.465
1326,9627073,1.527196,-0.310368,-0.311832,-3.15,-16.1,12.145
1327,9627169,1.31882,-0.142496,-0.253394,-6.895,-17.045,9.555
1328,9627266,1.2197559999999998,-0.024766,-0.24363400000000002,-7.1925,-8.0325,5.9325
1329,9627363,1.0919,0.05172801,-0.22338200000000002,-10.78,-7.4725,4.97
1330,9627460,0.9889319999999999,0.108702,-0.199226,-14.63,-11.1475,4.83
1331,9627556,0.888648,0.178974,-0.172508,-12.67,-8.3825,1.4175
1332,9627653,0.7812880999999999,0.20313,-0.162626,-10.745,-9.555,-3.4825
1333,9627750,0.73078,0.208254,-0.152866,-5.5125,-11.9875,-7.5425
1334,9627847,0.6755140000000001,0.18056,-0.13639600000000002,-1.0675,-12.285,-9.1
1335,9627943,0.605364,0.12383,-0.09698999999999999,3.185,-15.54,-9.59
1336,9628040,0.58499,0.147498,-0.153232,3.045,-20.23,-10.3075
1337,9628137,0.55815,0.165432,-0.121878,9.8875,-14.9975,-12.3725
1338,9628234,0.540338,0.156648,-0.11712,16.1,-12.2675,-16.485
1339,9628330,0.47787399999999997,0.140544,-0.10833599999999999,18.27,-15.015,-19.495
1340,9628427,0.480314,0.126636,-0.11919400000000001,20.965,-17.4825,-23.7125
1341,9628524,0.47677600000000003,0.12041400000000001,-0.101016,28.42,-15.4875,-21.945
1342,9628621,0.475434,0.12139000000000001,-0.067832,32.585,-10.2025,-17.92
1343,9628718,0.5504641,0.111874,-0.059536,29.5575,-7.2975,-18.935
1344,9628814,0.556808,0.110654,-0.043432,35.5775,-4.3925,-17.745
1345,9628911,0.5949939999999999,0.12761199999999998,-0.024766,40.0225,4.83,-16.1875
1346,9629008,0.665876,0.115534,0.0051240009999999996,47.845,16.135,-15.33
1347,9629105,0.699914,0.14786400000000002,0.008906,56.665,22.5575,-10.9025
1348,9629201,0.69479,0.140178,0.037576,64.4,23.9925,-5.285
1349,9629298,0.708454,0.10052799999999999,0.038186000000000005,67.8475,21.9975,-1.435
1350,9629395,0.7381001,0.077348,0.05246,69.755,22.68,1.015
1351,9629492,0.795562,0.039772,0.07027201,66.1675,21.525,3.29
1352,9629588,0.89426,0.01464,0.08759601,61.635,16.7475,1.2775
1353,9629685,0.975878,-0.099186,0.116022,57.05,9.5375,1.9075
1354,9629782,1.128256,-0.195932,0.09942999999999999,45.325,2.3275,2.3275
1355,9629879,1.33346,-0.309026,0.147498,37.485,-2.38,2.2575
1356,9629975,1.5462280000000002,-0.410896,0.21801399999999999,25.795,-0.7875,-3.9375
1357,9630072,1.616134,-0.36356,0.325374,15.505,7.455,-15.5925
1358,9630169,1.559404,-0.33061999999999997,0.382348,2.3975,12.53,-23.03
1359,9630266,1.4753459999999998,-0.214354,0.384422,-15.47,10.325,-24.15
1360,9630362,1.393484,-0.09845401,0.37271,-21.2625,3.395,-19.6
1361,9630459,1.3083280000000002,-0.0032939999999999996,0.40016,-14.8925,-2.5025,-11.2525
1362,9630556,1.330166,0.24888000000000002,-0.053070000000000006,-2.555,-9.03,-4.7075
1363,9630653,1.614182,0.130296,-0.40443,12.775,-37.59,-4.515
1364,9630750,1.4568020000000002,-0.062952,0.008540001,9.765,-41.3,-9.31
1365,9630846,1.25843,-0.10723800000000001,-0.363316,-10.605,-33.9675,-14.6825
1366,9630943,1.0736,-0.169702,-0.636596,-9.415,-24.9375,-27.055
1367,9631040,0.815448,-0.152622,-0.6729520999999999,-17.1325,-6.4225,-37.0825
1368,9631137,0.7287060000000001,-0.21667199999999998,-0.84546,-24.4475,-10.5,-46.4625
1369,9631233,0.7269979999999999,-0.275354,-0.8103239999999999,-30.45,-7.98,-57.225
1370,9631330,0.8300879999999999,-0.20008,-0.5594920999999999,-38.745,2.695,-64.27750999999999
1371,9631427,0.9806360000000001,-0.121268,-0.420412,-46.83,3.395,-68.3025
1372,9631524,1.128622,0.000244,-0.40992,-41.685,-10.7975,-62.475
1373,9631620,1.21573,0.142252,-0.473116,-33.2675,-27.79,-57.2425
1374,9631717,1.317356,0.228872,-0.484706,-23.4325,-35.2625,-49.665
1375,9631814,1.3790879999999999,0.318664,-0.420778,-14.945,-31.5175,-42.0875
1376,9631910,1.476444,0.358802,-0.383934,-15.295,-23.66,-31.2375
1377,9632007,1.429352,0.35502,-0.306464,-22.365,-13.02,-19.3375
1378,9632104,1.252208,0.22753,-0.282918,-28.14,-7.2625,-9.345
1379,9632201,1.111542,0.06075601,-0.24851399999999998,-28.56,-4.0425,-2.87
1380,9632297,1.014918,-0.053314,-0.188612,-29.7675,-2.5375,1.4875
1381,9632394,0.9370821,-0.125172,-0.14871800000000002,-31.1325,-2.24,5.74
1382,9632491,0.886574,-0.151036,-0.11760799999999999,-32.1125,-3.045,10.8675
1383,9632588,0.8086161000000001,-0.137372,-0.08918200000000001,-33.11,-5.8625,15.1725
1384,9632684,0.8016621,-0.10736,-0.09906401,-32.8475,-7.3325,18.1125
1385,9632781,0.7278521,-0.07307801,-0.086132,-33.6875,-12.25,22.365
1386,9632878,0.669902,-0.05209400000000001,-0.075762,-34.615,-15.855,25.3225
1387,9632975,0.6189060000000001,-0.027816000000000004,-0.079666,-34.4225,-19.565,28.455
1388,9633072,0.595238,-0.04392,-0.063684,-31.78,-21.21,28.315
1389,9633168,0.56547,-0.032451999999999995,-0.08759601,-34.1775,-22.4875,26.7225
1390,9633265,0.559004,-0.055144000000000006,-0.08003201,-30.87,-22.855,26.88
1391,9633362,0.535092,-0.056974000000000004,-0.097478,-33.53,-22.785,25.27
1392,9633458,0.570472,-0.08479,-0.040260000000000004,-34.3175,-24.7275,21.7875
1393,9633555,0.519476,-0.16689600000000002,-0.15237799999999999,-37.415,-21.07,20.93
1394,9633652,0.59902,-0.129198,-0.027938,-28.28,-19.145,20.0375
1395,9633749,0.714676,-0.12895399999999999,-0.028548,-37.0475,-2.5375,11.5325
1396,9633846,0.700646,-0.102968,0.027083999999999997,-46.2875,12.5125,7.4375
1397,9633942,0.6491621,-0.02501,0.06270801,-50.855,13.5275,6.3875
1398,9634039,0.656482,0.000488,0.063318,-53.025,18.375,3.745
1399,9634136,0.653676,0.04575,0.104432,-55.1075,22.4,3.0275
1400,9634233,0.72895,0.012565999999999999,0.06270801,-57.6625,16.415,5.0575
1401,9634329,0.8526581,0.05624199999999999,0.030378,-54.6875,8.715,4.5325
1402,9634426,0.9762440999999998,0.074542,0.01281,-50.4,-0.0875,6.6325
1403,9634523,1.127646,0.050142,0.01647,-45.7625,-2.415,8.1375
1404,9634619,1.258186,0.0008540001,0.03904,-46.165,-2.59,9.8525
1405,9634716,1.392508,0.018666,0.040138,-45.7275,-5.53,10.36
1406,9634813,1.489376,0.058316,0.09247601,-36.5925,-6.335,11.2525
1407,9634910,1.5414700000000001,0.174826,0.110044,-36.4,-4.06,15.1375
1408,9635006,1.5134100000000001,0.23802199999999998,0.186538,-31.7975,-3.36,17.1675
1409,9635103,1.44082,0.32208000000000003,0.2623,-29.295,0.0875,18.5325
1410,9635200,1.374452,0.237656,0.261202,-31.7275,-0.07,19.1275
1411,9635297,1.407148,-0.054167999999999994,-0.07112601,-30.0475,-0.2625,15.3825
1412,9635393,1.618696,0.048556,-0.42114399999999996,-9.8525,-8.9775,16.1175
1413,9635490,1.5433,0.169214,-0.117974,-6.4575,-17.045,11.27
1414,9635587,1.4370379999999998,0.152622,-0.407236,-2.695,-16.38,5.2325
1415,9635684,1.1923059999999999,0.13969,-0.5627861,3.2025,-14.805,7.945
1416,9635780,1.065548,0.12358599999999999,-0.83814,12.495,0.28,13.0025
1417,9635877,0.9541620000000001,0.27071799999999996,-0.842166,15.435,4.27,23.2225
1418,9635974,0.8235001000000001,0.378932,-0.707966,21.315,5.7225,26.2675
1419,9636070,0.703574,0.32757,-0.345016,29.2075,17.5175,25.6025
1420,9636167,0.644892,0.04087,-0.173362,39.2525,30.975,27.44
1421,9636264,0.8418,-0.184342,-0.278526,46.235,27.685,36.785
1422,9636361,1.10166,-0.266204,-0.394548,41.8425,15.505,39.7075
1423,9636457,1.347734,-0.277672,-0.385398,30.24,10.535,36.645
1424,9636554,1.590026,-0.343918,-0.3355,24.325,17.08,34.72
1425,9636651,1.616622,-0.298534,-0.322812,22.4,17.1325,27.5275
1426,9636748,1.437526,-0.23973000000000003,-0.298656,25.3575,1.54,22.8025
1427,9636844,1.3529799999999998,-0.167262,-0.26303200000000004,17.255,-15.435,14.735
1428,9636941,1.178886,-0.06575800000000001,-0.22277199999999997,17.8325,-19.285,3.92
1429,9637038,1.028338,0.034648000000000005,-0.20801,17.9375,-24.57,-6.125
1430,9637135,0.8999940000000001,0.11163,-0.177876,16.415,-26.81,-13.545
1431,9637231,0.7972701,0.160552,-0.16835999999999998,15.3825,-23.8,-18.62
1432,9637328,0.727364,0.17385,-0.123464,17.4475,-23.6075,-25.48
1433,9637425,0.711138,0.197518,-0.10858,19.845,-26.18,-28.595
1434,9637522,0.662704,0.194956,-0.108458,22.505,-20.58,-28.805
1435,9637618,0.604632,0.188246,-0.09345201,29.015,-21.7875,-27.09
1436,9637715,0.5355800999999999,0.116876,-0.11285,30.2225,-27.1775,-27.7375
1437,9637812,0.5158159999999999,0.122,-0.095038,23.6425,-30.9925,-23.2575
1438,9637909,0.571448,0.130906,-0.095648,29.7325,-24.3425,-29.26
1439,9638005,0.497882,0.08576601,-0.072956,35.7,-17.325,-29.9075
1440,9638102,0.50142,0.044407999999999996,-0.077592,40.67,-16.3625,-29.365
1441,9638199,0.5058121,0.048068,-0.07991000000000001,42.2975,-17.08,-26.88
1442,9638295,0.552538,0.038551999999999996,-0.047580000000000004,44.87,-13.23,-22.8025
1443,9638392,0.633668,0.041968,-0.02196,47.1975,-9.1175,-21.0175
1444,9638489,0.5753520000000001,-0.008662000999999999,0.012931999999999999,50.1375,-6.0725,-17.08
1445,9638586,0.62708,0.005978,0.029524,43.0325,0.8225,-18.235
1446,9638682,0.670146,-0.001098,0.03721,45.6575,9.1525,-17.675
1447,9638779,0.721874,-0.003172,0.044286,49.1925,21.07,-15.5225
1448,9638876,0.72163,0.001464,0.0793,53.83,26.11,-11.515
1449,9638973,0.7250460999999999,0.018544,0.07417601,57.61,21.5775,-8.925
1450,9639069,0.736514,0.032695999999999996,0.065148,56.1575,17.71,-7.735
1451,9639166,0.7793359999999999,0.016958,0.058072000000000006,51.135,15.4875,-5.6175
1452,9639263,0.8740081000000001,0.021472,0.07173600000000001,45.92,20.0725,-4.2525
1453,9639360,1.016016,0.0017079999999999999,0.08784,39.8475,19.39,-6.405
1454,9639456,1.176568,-0.09516001,0.104432,36.9775,14.77,-8.435
1455,9639553,1.3733540000000002,-0.19861600000000001,0.14993800000000002,36.0675,12.88,-10.9025
1456,9639650,1.4964520000000001,-0.230336,0.21374400000000002,28.84,6.8425,-15.33
1457,9639747,1.496208,-0.23253200000000002,0.270108,22.1375,4.655,-21.28
1458,9639843,1.49694,-0.22082,0.33318200000000003,13.5625,4.62,-24.675
1459,9639940,1.4629020000000001,-0.10065,0.37112399999999995,3.115,3.99,-25.4625
1460,9640037,1.398974,-0.053314,0.368318,-2.7475,0.42,-22.96
1461,9640134,1.33346,0.119072,0.340624,-0.77,-4.27,-16.87
1462,9640230,1.4332559999999999,0.137372,-0.057462,7.0525,-12.5825,-15.2775
1463,9640327,1.593076,0.061975999999999996,-0.108702,17.78,-28.5775,-12.635
1464,9640424,1.4995020000000001,-0.152256,-0.03965,4.27,-26.4775,-16.87
1465,9640521,1.378844,-0.222894,-0.335256,-9.8525,-34.615,-17.9375
1466,9640617,1.176568,-0.172874,-0.59109,-16.1875,-29.715,-26.3025
1467,9640714,0.9823440999999999,-0.169946,-0.696986,-21.28,-9.485,-33.0925
1468,9640811,0.878034,-0.273646,-0.657092,-31.3075,0.0,-39.0075
1469,9640908,0.782752,-0.284992,-0.665632,-40.5825,2.8875,-47.9675
1470,9641004,0.7257781,-0.158112,-0.48165600000000003,-41.615,4.0775,-56.5775
1471,9641101,0.7701859999999999,0.013175999999999998,-0.400648,-45.57,3.8325,-55.86
1472,9641198,0.954528,0.132492,-0.43505200000000005,-36.6975,-3.3775,-51.6075
1473,9641295,1.096292,0.196542,-0.43798000000000004,-24.57,-12.4775,-45.745
1474,9641391,1.2486700000000002,0.24424400000000002,-0.447008,-16.1,-19.4075,-41.2825
1475,9641488,1.389214,0.261324,-0.445666,-7.42,-22.4175,-37.17
1476,9641585,1.470344,0.22728600000000002,-0.366976,-5.8975,-22.2075,-31.92
1477,9641682,1.462536,0.198006,-0.332206,-12.88,-17.71,-25.7775
1478,9641778,1.369572,0.14274,-0.29829,-16.24,-13.37,-19.3025
1479,9641875,1.2159739999999999,0.06746601,-0.26169000000000003,-21.455,-12.075,-11.515
1480,9641972,1.078846,-0.013786000000000001,-0.22167399999999998,-24.9025,-10.325,-3.255
1481,9642069,1.01565,-0.051484,-0.16897,-28.6125,-7.8225,3.8675
1482,9642165,0.9680700000000001,-0.081862,-0.11846199999999998,-31.5525,-7.105,9.4675
1483,9642262,0.8746181000000001,-0.115656,-0.08296,-32.655,-8.2425,15.9075
1484,9642359,0.809348,-0.146156,-0.067344,-31.9725,-9.0825,22.0325
1485,9642456,0.7816541,-0.129442,-0.08064199,-32.62,-11.13,26.95
1486,9642552,0.71492,-0.12505,-0.07112601,-37.6075,-16.975,28.8575
1487,9642649,0.65941,-0.09845401,-0.071858,-41.65,-15.435,30.3975
1488,9642746,0.617686,-0.09272000000000001,-0.05246,-38.71,-11.83,33.5125
1489,9642843,0.5975560000000001,-0.07600599999999999,-0.050386,-36.9775,-12.8275,34.125
1490,9642939,0.5830380000000001,-0.069906,-0.05856,-38.2375,-14.8925,33.0225
1491,9643036,0.5697399999999999,-0.072956,-0.053191999999999996,-35.9975,-14.9975,31.4825
1492,9643133,0.5875520000000001,-0.07551801,-0.05429,-38.115,-15.2425,27.9475
1493,9643229,0.63318,-0.081862,-0.042822000000000006,-37.835,-18.8125,27.51
1494,9643326,0.656116,-0.081252,-0.040748,-34.86,-20.37,22.4175
1495,9643423,0.62098,-0.06563601,-0.019398,-40.7925,-20.93,19.7575
1496,9643520,0.6442821,-0.033794,-0.00305,-42.42,-13.5975,15.75
1497,9643616,0.64965,-0.05587601,0.032330000000000005,-47.635,-7.42,11.6375
1498,9643713,0.62037,-0.025498,0.03416,-51.03,-3.255,7.4025
1499,9643810,0.643794,0.007198,0.106262,-49.805,7.0175,5.635
1500,9643907,0.6777101,0.008296000999999999,0.08820599999999999,-49.035,5.1975,7.14
1501,9644003,0.727364,0.049044,0.07881200000000001,-47.0225,3.6925,5.0225
1502,9644100,0.7956840999999999,0.091134,0.038551999999999996,-45.3075,2.345,4.6025
1503,9644197,0.903166,0.101016,-0.016592,-39.655,-2.835,5.7225
1504,9644294,1.01321,0.12395199999999999,0.005978,-33.7575,-3.78,6.8425
1505,9644390,1.149362,0.096624,0.06039,-31.01,-5.1975,8.995
1506,9644487,1.277828,0.049898000000000005,0.034892,-25.2175,-10.99,12.3725
1507,9644584,1.389214,0.017324000000000003,0.031232,-19.95,-9.8175,12.95
1508,9644681,1.455582,0.060877999999999995,0.094672,-18.83,-6.055,11.5325
1509,9644777,1.501088,0.07173600000000001,0.173484,-17.395,-2.66,10.115
1510,9644874,1.468636,0.119072,0.24058400000000002,-17.3075,-3.0625,10.4825
1511,9644971,1.40849,0.09516001,0.290482,-15.3475,-4.6025,9.135
1512,9645068,1.372866,0.048922,0.329888,-15.1725,-2.0475,6.02
1513,9645164,1.381284,-0.067222,0.177266,-13.6675,0.2275,2.975
1514,9645261,1.608692,-0.14518,-0.40967600000000004,-4.0775,-6.1075,2.24
1515,9645358,1.587708,0.07198,-0.17385,-8.1725,-21.28,1.2775
1516,9645455,1.432402,0.12980799999999998,-0.19178399999999998,-11.2,-22.2425,-2.205
1517,9645551,1.212924,0.11358199999999999,-0.5012979999999999,-3.7625,-19.7225,2.0125
1518,9645648,1.006378,0.152622,-0.687104,2.1,-7.455,7.2975
1519,9645745,0.9302501,0.121024,-0.844484,12.0575,4.3925,11.4275
1520,9645842,0.839482,0.274378,-0.8192299999999999,23.31,10.045,18.1475
1521,9645938,0.765184,0.340624,-0.580964,33.1975,20.2825,21.4375
1522,9646035,0.746152,0.198982,-0.325252,46.2,28.245,24.815
1523,9646132,0.7754321,-0.043188,-0.225334,55.405,25.3575,27.72
1524,9646229,0.951356,-0.18068199999999998,-0.32757,52.7275,13.2475,31.2375
1525,9646325,1.203286,-0.2684,-0.39100999999999997,43.785,4.9,28.4025
1526,9646422,1.387628,-0.29829,-0.342698,30.345,5.4425,23.45
1527,9646519,1.456558,-0.331962,-0.291458,22.26,8.2075,16.3275
1528,9646616,1.395192,-0.29768,-0.29158,17.5875,-6.335,10.99
1529,9646712,1.307352,-0.220698,-0.247416,17.57,-14.6825,6.1425
1530,9646809,1.2611139999999998,-0.124196,-0.22191799999999998,18.1825,-7.8225,-0.4025
1531,9646906,1.11874,-0.018544,-0.20508200000000001,14.9275,-12.145,-7.0875
1532,9647003,0.976,0.10858,-0.201544,13.685,-20.7025,-13.8425
1533,9647099,0.850706,0.20178800000000002,-0.176534,13.5975,-21.1925,-20.1425
1534,9647196,0.8054439999999999,0.221552,-0.149816,16.6775,-18.3575,-24.7625
1535,9647293,0.76555,0.22862800000000003,-0.12932000000000002,19.6,-17.3075,-27.6325
1536,9647390,0.7510321,0.203984,-0.10919000000000001,23.52,-17.815,-28.4025
1537,9647486,0.727364,0.174826,-0.087352,30.1525,-18.9175,-25.6375
1538,9647583,0.648796,0.136274,-0.11712,31.2025,-23.9575,-26.88
1539,9647680,0.640012,0.128222,-0.11394800000000001,32.305,-21.0875,-26.3375
1540,9647777,0.6451359999999999,0.08906,-0.0793,38.64,-12.74,-23.205
1541,9647873,0.635742,0.09930800000000001,-0.06954,35.42,-11.6375,-23.87
1542,9647970,0.613904,0.078446,-0.020130000000000002,38.4825,-16.345,-23.31
1543,9648067,0.642818,0.08100801,-0.07173600000000001,37.835,-16.9225,-27.4575
1544,9648164,0.623542,0.07283401,-0.030622000000000003,40.3725,-10.2375,-28.56
1545,9648260,0.647576,0.07234600000000001,-0.015493999999999999,42.2975,-4.6375,-27.16
1546,9648357,0.654408,0.075762,0.010248,44.0475,1.1375,-25.06
1547,9648454,0.6537980999999999,0.05843801,0.026962,45.675,3.2025,-24.3075
1548,9648551,0.632204,-0.00366,0.06380599999999999,49.805,5.0225,-23.6425
1549,9648647,0.628666,-0.007076001,0.04404201,53.655,9.9575,-23.8
1550,9648744,0.66185,0.002928,0.049532,57.61,20.4575,-21.945
1551,9648841,0.679296,0.011224,0.07393200000000001,59.1325,28.5075,-16.17
1552,9648938,0.714676,0.040260000000000004,0.08100801,57.2425,27.895,-13.2475
1553,9649034,0.784094,0.06039,0.08430201,56.63,24.08,-12.215
1554,9649131,0.8690061,0.057096,0.06075601,57.4875,18.7425,-11.2175
1555,9649228,0.966484,0.06880801,0.008052001,53.0775,12.565,-11.69
1556,9649325,1.066158,-0.030012,0.034038,51.625,7.4375,-11.795
1557,9649421,1.194624,-0.15799000000000002,0.07637200000000001,53.5325,10.1325,-11.1475
1558,9649518,1.327238,-0.246074,0.1586,49.4725,11.1475,-14.035
1559,9649615,1.410686,-0.284748,0.222284,40.88,8.0675,-21.0
1560,9649712,1.419714,-0.264008,0.268522,29.4,1.75,-26.67
1561,9649808,1.408368,-0.24034,0.314394,18.8825,-0.0175,-32.2875
1562,9649905,1.386164,-0.13944600000000001,0.332572,12.3375,-2.3975,-34.0025
1563,9650002,1.37616,-0.005368,0.35026199999999996,14.63,-3.955,-29.6975
1564,9650099,1.359324,0.018788,0.231068,13.755,-7.0,-25.305
1565,9650195,1.504626,0.10638399999999999,-0.08893801,22.505,-19.215,-16.2225
1566,9650292,1.614792,-0.101626,0.014274,28.0,-30.065,-11.865
1567,9650389,1.5048700000000002,-0.257664,0.008540001,12.4075,-28.5075,-13.9125
1568,9650486,1.3804299999999998,-0.26095799999999997,-0.342454,3.71,-37.7475,-18.2
1569,9650582,1.170712,-0.196176,-0.470066,-1.155,-31.2725,-27.3875
1570,9650679,0.9633120999999999,-0.10528599999999999,-0.5073979999999999,-14.42,-10.675,-32.2
1571,9650776,0.8904780000000001,-0.087352,-0.67832,-21.735,-6.335,-39.4625
1572,9650873,0.9175620000000001,-0.090158,-0.745786,-19.3025,-12.18,-47.5475
1573,9650969,0.936106,-0.07588400000000001,-0.629764,-15.3475,-7.5425,-51.135
1574,9651066,0.987712,-0.09845401,-0.482876,-18.2175,-3.185,-54.565
1575,9651163,1.036878,0.022326,-0.37454,-18.6725,-7.6475,-56.315
1576,9651260,1.105198,0.16530999999999998,-0.40894400000000003,-10.08,-21.4025,-54.8275
1577,9651356,1.172908,0.253394,-0.42944,-0.0525,-34.0025,-50.575
1578,9651453,1.254892,0.302194,-0.44810600000000006,10.1675,-36.6975,-43.89
1579,9651550,1.301618,0.342454,-0.37112399999999995,13.65,-31.255,-33.6175
1580,9651647,1.289052,0.30341399999999996,-0.3111,12.4075,-24.7625,-22.4525
1581,9651743,1.21207,0.22716399999999998,-0.259372,10.9025,-19.915,-11.41
1582,9651840,1.1009280000000001,0.122732,-0.206546,10.92,-12.985,-4.025
1583,9651937,1.022848,0.031110000000000002,-0.18422,10.7625,-9.5725,0.56
1584,9652034,0.9446460999999999,-0.023668,-0.15176800000000001,10.395,-8.8375,4.6375
1585,9652130,0.85339,-0.076494,-0.12248800000000001,11.0425,-9.1875,8.995
1586,9652227,0.7856801,-0.098088,-0.10675,11.9175,-9.38,12.39
1587,9652324,0.7068681,-0.09577000000000001,-0.09394001,11.1475,-11.2175,14.21
1588,9652420,0.641842,-0.08308201,-0.09150001,10.4825,-12.6875,15.995
1589,9652517,0.586454,-0.066734,-0.094672,8.61,-12.6525,17.255
1590,9652614,0.55205,-0.059902,-0.081862,10.395,-12.3375,20.6675
1591,9652711,0.5342380999999999,-0.021228,-0.085522,8.9075,-12.5825,21.9625
1592,9652807,0.548268,-0.00427,-0.1037,9.5375,-13.3875,23.7125
1593,9652904,0.537044,-0.06832001,-0.11529,7.7525,-11.6375,23.1
1594,9653001,0.59536,-0.046482,-0.08808401,4.8125,-3.255,22.505
1595,9653098,0.6373281,-0.039772,-0.09930800000000001,3.64,-2.835,20.545
1596,9653194,0.715774,-0.031232,-0.05795,8.1375,-6.65,16.9925
1597,9653291,0.800076,-0.08637601,-0.046726,9.065,-13.1425,11.48
1598,9653388,0.8071520000000001,-0.066856,-0.027572000000000003,7.7875,-11.06,8.575
1599,9653485,0.7928781,-0.031232,-0.008784,1.4,-4.76,5.3025
1600,9653581,0.7664041,-0.022203999999999998,0.029401999999999998,-3.465,-0.7525,0.1225
1601,9653678,0.781532,-0.035013999999999997,0.020374,-9.7825,2.6425,-2.9225
1602,9653775,0.794342,0.00549,0.058072000000000006,-9.5025,7.6125,-4.7775
1603,9653872,0.80276,0.034038,0.087352,-10.465,19.67,-8.5225
1604,9653968,0.9059721,0.05124001,0.07747001,-8.68,22.68,-6.37
1605,9654065,1.0151620000000001,0.06405001,0.036356,-5.81,13.2125,-4.9875
1606,9654162,1.1150799999999998,0.039894,0.041724000000000004,-3.605,5.1975,-2.2575
1607,9654259,1.218658,-0.007686,0.045018,-2.2575,1.575,0.4375
1608,9654355,1.316502,-0.07991000000000001,0.060267999999999995,-1.4,-0.49,1.8025
1609,9654452,1.40239,-0.13761600000000002,0.113094,-4.585,-0.525,2.5025
1610,9654549,1.450214,-0.13602999999999998,0.132248,-5.6525,-0.0175,5.2325
1611,9654646,1.482666,-0.09272000000000001,0.190076,-3.3075,2.7825,5.8975
1612,9654742,1.44692,-0.010736,0.251808,-3.22,6.93,9.59
1613,9654839,1.3668879999999999,0.025376,0.281454,-3.6225,4.3225,12.5825
1614,9654936,1.2780719999999999,0.05355801,0.316224,-4.27,3.8675,10.8325
1615,9655033,1.263676,-0.033184,0.125416,-6.3175,2.94,8.295
1616,9655129,1.41459,-0.103822,-0.39161999999999997,-1.9425,-6.195,8.8025
1617,9655226,1.328824,0.09821001,-0.1891,-6.5625,-12.915,8.7675
1618,9655323,1.17059,0.139202,-0.15201199999999998,-6.44,-1.9075,4.69
1619,9655419,0.97783,0.11345999999999999,-0.335988,-4.2,-0.4725,7.8575
1620,9655516,0.9340321,0.040138,-0.743224,1.4,2.9925,14.2625
1621,9655613,0.9287861,0.2318,-0.8400921,8.6975,2.2225,23.2575
1622,9655710,0.9592860000000001,0.41297,-0.823744,20.1775,7.21,28.77
1623,9655806,0.89487,0.52277,-0.562908,36.7325,17.325,36.19
1624,9655903,0.7914140000000001,0.389912,-0.286456,50.1725,27.93,42.84
1625,9656000,0.82045,0.12932000000000002,-0.24326799999999998,55.895,26.1625,46.69
1626,9656097,0.9641661,-0.06661201,-0.282674,47.425,9.2225,45.08
1627,9656193,1.143506,-0.2806,-0.32561799999999996,39.025,0.8225,39.62
1628,9656290,1.336632,-0.41016400000000003,-0.324886,31.885,7.5075,30.66
1629,9656387,1.4453340000000001,-0.42151000000000005,-0.259128,19.74,6.51,18.795
1630,9656484,1.349564,-0.348554,-0.212036,6.1775,-5.215,10.0625
1631,9656580,1.232078,-0.229848,-0.19251600000000002,-1.365,-9.6425,2.45
1632,9656677,1.128134,-0.116632,-0.17019,-2.66,-7.6475,-2.52
1633,9656774,1.045906,0.000488,-0.158112,-6.58,-8.925,-6.755
1634,9656870,0.957334,0.111752,-0.156526,-7.945,-10.465,-9.5025
1635,9656967,0.904752,0.17202,-0.13359000000000001,-6.6675,-9.065,-12.5125
1636,9657064,0.859978,0.21289,-0.11724200000000001,-3.7275,-12.5825,-14.7175
1637,9657161,0.8142281,0.19959200000000002,-0.104676,0.6825,-14.21,-14.2275
1638,9657257,0.7733581,0.17324,-0.07442,6.615,-8.61,-14.6125
1639,9657354,0.731146,0.131394,-0.07002799999999999,12.005,-10.815,-15.7675
1640,9657451,0.71248,0.11345999999999999,-0.063684,16.1525,-13.965,-17.115
1641,9657548,0.739564,0.094062,-0.059536,20.1075,-12.145,-19.0225
1642,9657644,0.698816,0.084912,-0.036722000000000005,23.835,-9.8875,-19.6525
1643,9657741,0.6502600000000001,0.08430201,-0.03721,27.2125,-9.8,-19.6
1644,9657838,0.635742,0.07722601,-0.0305,27.3175,-9.975,-20.44
1645,9657934,0.633058,0.07344400000000001,-0.031598,27.16,-8.1725,-19.95
1646,9658031,0.633302,0.054778,-0.016592,28.98,-7.595,-19.8975
1647,9658128,0.6511140000000001,0.039894,-0.00427,30.4325,-8.6625,-19.04
1648,9658225,0.660874,0.02623,0.018178,28.14,-7.21,-18.935
1649,9658321,0.675148,0.031232,0.038796,29.1025,-6.5275,-17.92
1650,9658418,0.669048,0.03355,0.062220000000000004,30.1175,-7.1575,-15.225
1651,9658515,0.690642,0.020618,0.042456,34.6325,-6.79,-12.6875
1652,9658612,0.7232161,0.034526,0.020984,37.0825,-0.595,-9.17
1653,9658708,0.77104,0.060877999999999995,0.029158,38.01,5.32,-5.39
1654,9658805,0.80215,0.053801999999999996,0.042944,40.8625,5.8275,-1.855
1655,9658902,0.8224021,0.048312,0.04404201,42.35,2.695,0.525
1656,9658998,0.8471681000000001,0.046360000000000005,0.04575,41.23,-0.0875,1.0675
1657,9659095,0.9046301,0.053801999999999996,-0.002318,34.72,-1.61,-0.8400001
1658,9659192,0.9978379999999999,0.016104,-0.008540001,32.9175,-3.675,-3.605
1659,9659289,1.083482,-0.048068,0.035746,31.955,-5.7575,-5.81
1660,9659385,1.17913,-0.081984,0.077348,28.4375,-6.02,-9.415
1661,9659482,1.286246,-0.11028800000000001,0.161772,25.5325,-3.605,-14.4375
1662,9659579,1.349808,-0.102358,0.24363400000000002,18.4975,-1.26,-20.9125
1663,9659676,1.381284,-0.07686,0.296216,10.675,-1.12,-24.045
1664,9659772,1.375794,-0.041846,0.35160399999999997,5.075,0.1575,-24.185
1665,9659869,1.3510280000000001,-0.002806,0.318298,-0.7175,-0.77,-20.755
1666,9659966,1.318576,0.108458,0.31097800000000003,8.225,-4.4625,-16.2925
1667,9660062,1.508774,0.188978,-0.208254,27.65,-15.54,-14.4725
1668,9660159,1.694336,0.09882,-0.001586,47.4075,-31.185,-7.2975
1669,9660256,1.6832340000000001,-0.16689600000000002,0.12529400000000002,16.45,-16.9575,-10.5175
1670,9660353,1.615768,-0.152134,-0.154818,5.8975,-25.9,-20.9125
1671,9660449,1.335046,-0.14396,-0.421022,0.4375,-46.83,-33.4075
1672,9660546,1.128378,-0.07698201,-0.525576,-17.255,-38.08,-36.4525
1673,9660643,1.012966,-0.108946,-0.659288,-27.58,-22.925,-39.0775
1674,9660740,0.9211,-0.234118,-0.6566041,-28.56,-13.4225,-42.5775
1675,9660836,0.8625401,-0.20618000000000003,-0.567056,-27.37,-4.7075,-45.1325
1676,9660933,0.7977581,-0.07588400000000001,-0.4636,-27.405,-4.9525,-46.8825
1677,9661030,0.832406,0.066124,-0.365268,-22.1375,-7.945,-43.645
1678,9661127,0.974658,0.202032,-0.376492,-15.61,-11.27,-39.8125
1679,9661223,1.0717700000000001,0.262178,-0.40979799999999994,-4.2875,-21.5075,-34.1775
1680,9661320,1.134356,0.292556,-0.44225,4.9525,-27.5975,-29.3475
1681,9661417,1.20353,0.342698,-0.43358800000000003,9.835,-25.2875,-24.885
1682,9661513,1.285758,0.315614,-0.367708,9.52,-19.1975,-18.5675
1683,9661610,1.263066,0.227042,-0.320982,5.6525,-14.8575,-13.09
1684,9661707,1.24013,0.152256,-0.291092,3.8675,-10.5175,-8.0325
1685,9661804,1.1059299999999999,0.05843801,-0.257298,1.7675,-8.505,-1.89
1686,9661900,0.9913719999999999,0.015372,-0.245098,-0.63,-6.9475,4.795
1687,9661997,0.918294,-0.00427,-0.199226,-1.925,-4.69,10.7275
1688,9662094,0.8697379999999999,-0.065026,-0.158112,-2.485,-3.64,14.595
1689,9662191,0.813984,-0.077836,-0.14396,-3.6225,-3.675,17.395
1690,9662287,0.737124,-0.101748,-0.11834000000000001,-2.59,-6.405,20.3525
1691,9662384,0.6944241,-0.12078,-0.11333800000000001,-3.57,-5.7575,22.435
1692,9662481,0.6724640000000001,-0.09259801,-0.096624,-3.3425,-4.2175,24.01
1693,9662578,0.648552,-0.09211,-0.094306,-5.1625,-5.2675,25.3925
1694,9662674,0.6095119999999999,-0.080886,-0.126392,-8.5925,-8.0675,26.3725
1695,9662771,0.5875520000000001,-0.056608000000000006,-0.08430201,-9.065,-10.535,24.4475
