,T,ax,ay,az,gx,gy,gz
0,208747,0.713212,0.246928,-0.481412,19.5125,-19.8625,-17.9025
1,208900,0.7415161,0.259372,-0.5614439999999999,28.35,-67.76,7.315
2,208998,0.7812880999999999,0.24936799999999998,-0.5856,64.05,-129.9725,53.0775
3,209096,0.777384,0.23887600000000003,-0.5941401,48.3,-113.8375,-1.225
4,209194,0.7771399999999999,0.241804,-0.59048,3.395,-9.03,9.4675
5,209293,0.773968,0.236436,-0.5946279999999999,2.7125,-7.5075,8.6625
6,209391,0.772992,0.233752,-0.598288,3.01,-8.295,7.665
7,209489,0.7686,0.236192,-0.5980439999999999,3.2375,-9.24,6.65
8,209587,0.765672,0.23692399999999997,-0.600484,3.185,-10.185,5.6875
9,209685,0.7605481,0.234972,-0.605364,2.8875,-10.7625,4.7075
10,209783,0.7598161,0.233752,-0.60878,2.7125,-11.0775,3.78
11,209881,0.7600600000000001,0.227408,-0.601704,2.03,-10.99,2.625
12,209979,0.7598161,0.22204000000000002,-0.607316,1.54,-10.7625,1.2425
13,210077,0.7600600000000001,0.216428,-0.6109760000000001,1.1025,-10.5175,-0.5775
14,210175,0.758352,0.217404,-0.6161,0.7175,-10.0975,-2.765
15,210274,0.757864,0.216428,-0.613904,0.3325,-9.4675,-4.7425
16,210372,0.754692,0.215452,-0.613904,0.1225,-8.8025,-6.79
17,210470,0.7549359999999999,0.22814,-0.6124400999999999,0.0525,-8.085,-8.225
18,210568,0.754204,0.2379,-0.613904,0.0,-7.2275,-8.785
19,210666,0.7549359999999999,0.243024,-0.611952,0.105,-6.3525,-8.435
20,210764,0.7549359999999999,0.24034,-0.607804,0.2975,-5.7225,-7.9275
21,210862,0.757376,0.24497600000000003,-0.6075600999999999,0.5425,-5.3025,-7.455
22,210960,0.7600600000000001,0.24497600000000003,-0.60878,0.735,-5.075,-6.7025
23,211058,0.759328,0.24424400000000002,-0.607804,1.05,-5.005,-5.9325
24,211156,0.759084,0.242536,-0.60878,1.2425,-5.215,-5.5475
25,211255,0.7600600000000001,0.243024,-0.60878,1.3125,-5.53,-5.3375
26,211353,0.760304,0.24351199999999998,-0.607804,1.3125,-5.6875,-5.215
27,211451,0.758108,0.24131599999999997,-0.6070720000000001,1.2075,-6.055,-5.25
28,211549,0.758596,0.242536,-0.608536,1.0675,-6.4575,-5.32
29,211647,0.7598161,0.243756,-0.607316,1.05,-6.9125,-5.3375
30,211745,0.758352,0.24351199999999998,-0.6070720000000001,1.0675,-7.2975,-5.2675
31,211843,0.756644,0.245952,-0.61,0.91,-7.6475,-5.3025
32,211941,0.754692,0.245952,-0.6117081,0.7875,-7.805,-5.0925
33,212039,0.754692,0.245464,-0.612684,0.7,-8.12,-4.9
34,212137,0.754204,0.24497600000000003,-0.612928,0.4725,-8.4175,-4.8825
35,212236,0.7537159999999999,0.245464,-0.6158561,0.21,-8.365,-4.8475
36,212334,0.753228,0.246196,-0.615124,0.1225,-8.1375,-4.9
37,212432,0.7551800000000001,0.24570799999999998,-0.6178081,-0.105,-7.945,-5.1275
38,212530,0.7515201,0.246196,-0.6158561,-0.28,-7.8225,-5.1975
39,212628,0.7539600000000001,0.243024,-0.616344,-0.63,-7.56,-5.4775
40,212726,0.7539600000000001,0.243756,-0.6161,-0.665,-7.385,-5.6
41,212824,0.752984,0.244488,-0.616344,-0.7,-7.2975,-5.845
42,212922,0.753228,0.24668400000000001,-0.6161,-0.8225,-7.07,-6.2475
43,213020,0.749568,0.246928,-0.616344,-0.875,-7.105,-6.37
44,213118,0.7500560000000001,0.246196,-0.6182960999999999,-0.8400001,-7.0525,-6.265
45,213217,0.7515201,0.248392,-0.6131721,-0.7875,-7.245,-6.055
46,213315,0.750544,0.254004,-0.6156119999999999,-0.7525,-7.1925,-5.915
47,213413,0.7483479999999999,0.251808,-0.6170760000000001,-0.8575,-7.175,-5.775
48,213511,0.7473721,0.252052,-0.6156119999999999,-0.9625,-7.0525,-5.355
49,213609,0.745664,0.249612,-0.6178081,-1.155,-6.6325,-5.145
50,213707,0.747128,0.246928,-0.6170760000000001,-1.33,-6.125,-5.2325
51,213805,0.746396,0.245952,-0.618784,-1.4875,-5.775,-5.4775
52,213903,0.7442,0.244732,-0.6182960999999999,-1.435,-5.2325,-5.8275
53,214002,0.746396,0.24424400000000002,-0.619516,-1.4175,-4.9,-6.195
54,214100,0.743712,0.24790399999999999,-0.6197600000000001,-1.365,-4.6725,-6.5625
55,214198,0.747128,0.25351599999999996,-0.6182960999999999,-1.2775,-4.165,-6.7025
56,214296,0.7451760000000001,0.256688,-0.616588,-1.2775,-3.8325,-6.79
57,214394,0.74542,0.257664,-0.6158561,-1.1725,-3.675,-6.615
58,214492,0.744688,0.258396,-0.6170760000000001,-0.6825,-3.675,-6.1425
59,214590,0.744688,0.255956,-0.6168319999999999,-0.2275,-3.6925,-5.845
60,214688,0.7451760000000001,0.255712,-0.6170760000000001,0.14,-3.6575,-5.6525
61,214786,0.74542,0.255712,-0.61366,0.4025,-3.71,-5.425
62,214885,0.745908,0.256444,-0.614392,0.56,-3.85,-5.3025
63,214983,0.7451760000000001,0.256932,-0.61488,0.735,-3.9375,-5.0925
64,215081,0.746396,0.25864000000000004,-0.61488,0.8575,-3.9375,-4.8475
65,215179,0.7439560000000001,0.25986,-0.61366,0.9275,-3.9025,-4.655
66,215277,0.746152,0.258884,-0.614392,1.12,-3.745,-4.41
67,215375,0.7468840999999999,0.259372,-0.61488,1.2075,-3.745,-4.1125
68,215473,0.748592,0.260348,-0.612684,1.2775,-3.64,-3.99
69,215571,0.7500560000000001,0.257664,-0.612928,1.365,-3.5875,-3.8325
70,215669,0.74664,0.25961599999999996,-0.613904,1.4525,-3.5875,-3.7275
71,215767,0.748836,0.259372,-0.6141479999999999,1.47,-3.6575,-3.605
72,215866,0.748592,0.260348,-0.612928,1.435,-3.8325,-3.5875
73,215964,0.7483479999999999,0.25864000000000004,-0.6131721,1.5925,-3.9025,-3.4475
74,216062,0.748104,0.25986,-0.612928,1.505,-3.885,-3.36
75,216160,0.7478600000000001,0.261812,-0.612684,1.5575,-3.885,-3.29
76,216258,0.7468840999999999,0.262544,-0.612196,1.645,-4.0425,-3.115
77,216356,0.7478600000000001,0.262056,-0.612928,1.6275,-4.0775,-2.975
78,216454,0.7483479999999999,0.258396,-0.609024,1.5575,-4.13,-2.835
79,216552,0.7478600000000001,0.255712,-0.614636,1.4175,-4.1825,-2.66
80,216650,0.7478600000000001,0.255956,-0.6141479999999999,1.3475,-4.2,-2.6775
81,216748,0.7483479999999999,0.256444,-0.614392,1.3825,-4.1825,-2.8175
82,216847,0.7476161,0.255468,-0.615368,1.4,-4.2875,-2.87
83,216945,0.7476161,0.256932,-0.613416,1.4175,-4.27,-2.9925
84,217043,0.752496,0.25498000000000004,-0.6117081,1.435,-4.27,-3.15
85,217141,0.747128,0.256688,-0.608536,1.3125,-4.305,-3.2725
86,217239,0.7500560000000001,0.255956,-0.616588,1.0325,-4.235,-3.4825
87,217337,0.749568,0.256932,-0.614392,1.4,-4.3575,-3.3075
88,217435,0.749568,0.258396,-0.612928,1.5575,-4.5325,-3.185
89,217533,0.749812,0.258152,-0.613904,1.61,-4.76,-3.185
90,217631,0.749568,0.255712,-0.6141479999999999,1.7325,-4.97,-3.325
91,217729,0.7476161,0.25498000000000004,-0.615124,1.6625,-4.9875,-3.22
92,217827,0.748592,0.256688,-0.613904,1.575,-4.9875,-3.29
93,217926,0.749812,0.256688,-0.613416,1.68,-5.04,-3.29
94,218024,0.7483479999999999,0.25376,-0.6161,1.68,-4.9875,-3.3075
95,218122,0.748592,0.256444,-0.6124400999999999,1.68,-5.11,-3.3775
96,218220,0.748592,0.257176,-0.6141479999999999,1.715,-5.0575,-3.36
97,218318,0.7483479999999999,0.25424800000000003,-0.616344,1.6625,-5.075,-3.43
98,218416,0.7476161,0.258152,-0.6124400999999999,1.6975,-5.0925,-3.5525
99,218514,0.748104,0.25742,-0.612928,1.6975,-5.145,-3.6225
100,218612,0.7476161,0.258396,-0.611952,1.575,-5.11,-3.5875
101,218710,0.749812,0.257664,-0.61366,1.5925,-4.9875,-3.5525
102,218808,0.748836,0.255956,-0.612928,1.5925,-4.83,-3.57
103,218906,0.749324,0.254736,-0.6156119999999999,1.645,-4.7775,-3.64
104,219005,0.748836,0.25424800000000003,-0.616344,1.6275,-4.6725,-3.6225
105,219103,0.7476161,0.254736,-0.614392,1.6275,-4.55,-3.6575
106,219201,0.748104,0.25790799999999997,-0.6141479999999999,1.5575,-4.55,-3.815
107,219299,0.74542,0.25424800000000003,-0.61366,1.5225,-4.5675,-3.7975
108,219397,0.7473721,0.2562,-0.613904,1.505,-4.6025,-3.78
109,219495,0.748592,0.256444,-0.613416,1.4525,-4.5675,-3.8325
110,219593,0.745908,0.255468,-0.6131721,1.4875,-4.48,-3.8675
111,219691,0.74542,0.25351599999999996,-0.612928,1.505,-4.4625,-3.815
112,219789,0.747128,0.25522399999999995,-0.61366,1.4875,-4.34,-3.92
113,219888,0.745908,0.254736,-0.6141479999999999,1.54,-4.2175,-4.025
114,219986,0.7476161,0.258396,-0.612684,1.5575,-4.2175,-3.92
115,220084,0.7478600000000001,0.256444,-0.6141479999999999,1.6275,-4.1825,-3.92
116,220182,0.749812,0.256932,-0.61366,1.5575,-4.0775,-3.92
117,220280,0.7476161,0.255956,-0.61366,1.4525,-4.13,-3.9725
118,220378,0.747128,0.257176,-0.61366,1.575,-4.0425,-3.9725
119,220476,0.747128,0.25498000000000004,-0.614392,1.645,-4.06,-3.9725
120,220574,0.7500560000000001,0.255956,-0.61366,1.575,-4.0775,-3.9375
121,220672,0.749324,0.2562,-0.61366,1.575,-4.1475,-3.9025
122,220770,0.748592,0.25790799999999997,-0.6131721,1.5575,-4.1475,-3.9025
123,220868,0.74908,0.256444,-0.611464,1.54,-4.1825,-3.9725
124,220967,0.74908,0.256444,-0.6131721,1.4875,-4.2,-3.955
125,221065,0.748836,0.256688,-0.6131721,1.575,-4.235,-3.9725
126,221163,0.749568,0.25742,-0.614392,1.575,-4.2525,-3.885
127,221261,0.7473721,0.255468,-0.614392,1.5225,-4.2,-4.0075
128,221359,0.747128,0.255468,-0.6141479999999999,1.505,-4.0775,-3.99
129,221457,0.7500560000000001,0.2562,-0.613904,1.4525,-4.0775,-4.025
130,221555,0.749324,0.2562,-0.613416,1.47,-4.1475,-4.13
131,221653,0.746396,0.254736,-0.613904,1.4875,-4.2,-4.165
132,221751,0.74908,0.257176,-0.61488,1.3825,-4.13,-4.2
133,221849,0.748836,0.258396,-0.6124400999999999,1.4525,-4.2875,-4.2525
134,221948,0.7500560000000001,0.25522399999999995,-0.611464,1.365,-4.3575,-4.2175
135,222046,0.7476161,0.257664,-0.61122,1.3475,-4.34,-4.2175
136,222144,0.749812,0.257664,-0.6131721,1.365,-4.3925,-4.1825
137,222242,0.7483479999999999,0.257664,-0.6131721,1.26,-4.445,-4.2
138,222340,0.7500560000000001,0.256688,-0.612684,1.3125,-4.4975,-4.305
139,222438,0.748836,0.258396,-0.613904,1.33,-4.4625,-4.375
140,222536,0.748836,0.25790799999999997,-0.6131721,1.26,-4.4975,-4.41
141,222634,0.74664,0.260592,-0.612196,1.33,-4.4975,-4.3225
142,222732,0.745908,0.25864000000000004,-0.612684,1.4,-4.5675,-4.2175
143,222831,0.748104,0.25790799999999997,-0.611464,1.4,-4.585,-4.165
144,222929,0.7468840999999999,0.260348,-0.6117081,1.47,-4.55,-4.13
145,223027,0.7500560000000001,0.257176,-0.6131721,1.4875,-4.55,-4.025
146,223125,0.7468840999999999,0.258396,-0.6124400999999999,1.54,-4.55,-4.025
147,223223,0.748592,0.256688,-0.6141479999999999,1.5575,-4.3925,-4.095
148,223321,0.74664,0.259372,-0.6124400999999999,1.6275,-4.3225,-4.0075
149,223419,0.74664,0.25522399999999995,-0.61366,1.5225,-4.34,-3.99
150,223517,0.747128,0.258152,-0.611952,1.54,-4.3925,-3.99
151,223615,0.748104,0.258884,-0.61488,1.4875,-4.165,-3.955
152,223714,0.7468840999999999,0.25790799999999997,-0.614392,1.4525,-3.745,-3.92
153,223812,0.7476161,0.26156799999999997,-0.619028,1.0675,-3.22,-3.7975
154,223910,0.749324,0.26766799999999996,-0.628544,-0.1925,-2.2225,-3.92
155,224008,0.757864,0.24912399999999998,-0.62464,-2.73,1.085,-4.0075
156,224106,0.761524,0.237656,-0.6178081,-5.845,3.43,-5.4775
157,224204,0.756644,0.24936799999999998,-0.6097560000000001,-8.12,2.835,-7.5775
158,224302,0.7625,0.256444,-0.6117081,-9.17,2.45,-8.9775
159,224400,0.7600600000000001,0.251564,-0.60512,-10.0975,1.4875,-10.045
160,224498,0.758596,0.255956,-0.60024,-10.045,0.805,-10.64
161,224596,0.75274,0.266936,-0.596092,-9.66,0.0,-10.7975
162,224695,0.7473721,0.278404,-0.5941401,-8.7675,-0.8575,-10.4825
163,224793,0.7422481,0.281332,-0.5919439999999999,-7.1925,-1.8025,-9.5725
164,224891,0.73932,0.28426,-0.5941401,-5.355,-2.415,-8.3825
165,224989,0.7376119999999999,0.28548,-0.591212,-3.325,-2.9575,-7.1225
166,225087,0.741272,0.285236,-0.5934081,-1.2775,-3.465,-5.74
167,225185,0.7422481,0.284504,-0.5917,0.4025,-3.6925,-4.48
168,225283,0.743224,0.28011199999999997,-0.595604,1.9075,-3.99,-3.36
169,225381,0.745908,0.27889200000000003,-0.59658,2.9575,-3.955,-2.555
170,225479,0.7449321,0.277428,-0.597312,3.7275,-3.9725,-2.0125
171,225577,0.749324,0.273036,-0.597068,4.55,-3.92,-1.645
172,225676,0.748104,0.274256,-0.59658,5.215,-4.1125,-1.4175
173,225774,0.7503,0.271084,-0.59658,5.88,-4.2175,-1.05
174,225872,0.749812,0.27279200000000003,-0.5987760999999999,6.4575,-4.445,-0.9275
175,225970,0.750544,0.27279200000000003,-0.599264,6.93,-4.6725,-0.8400001
176,226068,0.7503,0.268644,-0.5997520000000001,7.4025,-4.795,-0.665
177,226166,0.7549359999999999,0.26352,-0.5997520000000001,7.525,-4.69,-0.6475
178,226264,0.755424,0.264984,-0.6034121,7.3675,-4.725,-1.12
179,226362,0.7537159999999999,0.26474000000000003,-0.60512,6.93,-4.865,-1.5575
180,226461,0.7537159999999999,0.2623,-0.606584,6.2825,-4.6725,-1.96
181,226559,0.7549359999999999,0.266448,-0.6070720000000001,5.7925,-4.445,-2.345
182,226657,0.752984,0.26718000000000003,-0.605364,5.145,-4.34,-2.5375
183,226755,0.7551800000000001,0.269376,-0.6068279999999999,4.7075,-4.3575,-2.625
184,226853,0.754448,0.266692,-0.60512,4.235,-4.235,-2.6775
185,226951,0.7522521,0.26766799999999996,-0.604632,3.8325,-4.2875,-2.59
186,227049,0.756156,0.262788,-0.6036560999999999,3.5175,-4.2875,-2.45
187,227147,0.756156,0.262056,-0.6068279999999999,3.185,-4.2875,-2.625
188,227246,0.7556681,0.2623,-0.604388,2.87,-4.2175,-2.765
189,227344,0.7564001,0.262056,-0.6068279999999999,2.5725,-4.235,-2.8525
190,227442,0.755424,0.264496,-0.6034121,2.45,-4.4275,-2.94
191,227540,0.755424,0.265716,-0.60512,2.3975,-4.48,-2.8175
192,227638,0.753472,0.26596,-0.604876,2.3975,-4.55,-2.5375
193,227736,0.756156,0.258884,-0.60268,2.3625,-4.2525,-2.3625
194,227834,0.753228,0.255468,-0.599264,2.275,-4.27,-2.38
195,227932,0.7549359999999999,0.25790799999999997,-0.60268,2.0825,-4.2525,-2.6425
196,228030,0.7551800000000001,0.255956,-0.604144,1.925,-3.955,-3.01
197,228128,0.7549359999999999,0.258884,-0.604388,1.8375,-3.8675,-3.4125
198,228227,0.7517640999999999,0.264008,-0.6034121,1.5925,-4.0075,-3.7275
199,228325,0.752984,0.265228,-0.6029241,1.6625,-4.2,-3.6225
200,228423,0.752008,0.267424,-0.6019479999999999,1.82,-4.3925,-3.3775
201,228521,0.752496,0.26596,-0.6019479999999999,2.0475,-4.3575,-2.9925
202,228619,0.75762,0.257176,-0.605608,2.0825,-3.9025,-2.6425
203,228717,0.757864,0.252296,-0.605608,1.855,-3.3775,-2.9575
204,228815,0.755424,0.250832,-0.60512,1.47,-2.7475,-3.64
205,228913,0.75762,0.25302800000000003,-0.603168,1.015,-2.3275,-4.41
206,229011,0.754692,0.258152,-0.601704,0.7,-2.1875,-5.0575
207,229109,0.753228,0.259372,-0.6034121,0.35,-1.9425,-5.53
208,229208,0.7539600000000001,0.26108000000000003,-0.6036560999999999,0.1925,-1.715,-5.74
209,229306,0.756156,0.260104,-0.60024,0.21,-1.715,-6.02
210,229404,0.756644,0.26303200000000004,-0.6019479999999999,0.21,-1.925,-6.02
211,229502,0.757864,0.262544,-0.6021920000000001,0.1925,-2.1875,-5.9675
212,229600,0.759328,0.260836,-0.5997520000000001,0.1575,-2.2225,-6.0725
213,229698,0.75762,0.26352,-0.599508,0.14,-2.2925,-6.2125
214,229796,0.75884,0.266936,-0.599264,0.0875,-2.345,-6.335
215,229894,0.756644,0.268156,-0.597312,0.3325,-2.5375,-6.125
216,229992,0.755424,0.264008,-0.598288,0.5425,-2.555,-5.775
217,230091,0.7571321,0.258152,-0.60024,0.63,-2.205,-5.74
218,230189,0.757864,0.251808,-0.598288,0.56,-1.7325,-6.125
219,230287,0.761524,0.255956,-0.599264,0.2625,-1.0325,-7.105
220,230385,0.75884,0.267424,-0.6036560999999999,-0.315,-0.5075,-7.98
221,230483,0.758108,0.266692,-0.6070720000000001,-1.05,0.805,-8.33
222,230581,0.768356,0.25351599999999996,-0.6036560999999999,-2.1,2.135,-9.0125
223,230679,0.768356,0.266936,-0.61366,-4.27,1.855,-10.92
224,230777,0.779092,0.259128,-0.620004,-7.7525,2.8525,-13.1425
225,230875,0.7929999999999999,0.25302800000000003,-0.5978,-12.1275,3.745,-16.1175
226,230974,0.7978801,0.274012,-0.6131721,-17.4475,1.2425,-19.915
227,231072,0.780312,0.2379,-0.64172,-22.085,-3.0975,-23.1175
228,231170,0.7766521,0.284016,-0.589016,-22.7325,-8.7325,-24.78
229,231268,0.760792,0.28792,-0.579012,-23.1875,-11.2175,-24.99
230,231366,0.7515201,0.30109600000000003,-0.573156,-20.825,-13.16,-24.0625
231,231464,0.7390760000000001,0.312076,-0.568032,-17.7275,-13.615,-22.575
232,231562,0.721264,0.331108,-0.5612,-14.56,-13.44,-20.09
233,231660,0.7041841,0.33794,-0.5690081,-11.1125,-12.1625,-16.9925
234,231758,0.6885680999999999,0.34648,-0.568276,-7.5425,-10.2375,-13.7725
235,231856,0.702232,0.33623200000000003,-0.570472,-4.025,-7.245,-10.78
236,231955,0.7032079999999999,0.315004,-0.5543680000000001,0.4375,-4.1825,-7.4375
237,232053,0.5919439999999999,0.347456,-0.49849209999999994,10.29,-1.1725,-0.35
238,232151,0.662216,0.371612,-0.524112,28.28,3.3775,11.655
239,232249,0.7849480999999999,0.35233600000000004,-0.606584,41.02,4.1475,21.385
240,232347,0.799588,0.30378,-0.6095119999999999,41.65,0.2275,24.1325
241,232445,0.80886,0.278648,-0.61122,36.295,-1.8375,23.17
242,232543,0.79422,0.263764,-0.6273241,29.7325,-2.345,20.475
243,232641,0.792756,0.246196,-0.6292760000000001,21.84,-0.98,16.1175
244,232739,0.785924,0.242536,-0.6095119999999999,13.545,1.6275,10.9725
245,232838,0.784216,0.254004,-0.604876,7.1925,2.4325,6.51
246,232936,0.7820199999999999,0.23668000000000003,-0.592188,2.5725,2.59,2.7825
247,233034,0.779824,0.249612,-0.59292,-2.1,1.5925,-0.805
248,233132,0.76372,0.28181999999999996,-0.593896,-4.095,-1.54,-0.8575
249,233230,0.764208,0.284748,-0.590236,-3.255,-3.2725,0.035
250,233328,0.7625,0.27938,-0.5875520000000001,-2.485,-3.92,1.225
251,233426,0.762012,0.270596,-0.58316,-2.6075,-4.34,1.89
252,233524,0.7759199999999999,0.266936,-0.584136,-2.975,-5.53,2.52
253,233622,0.763232,0.273768,-0.5743761,-3.99,-7.3675,2.555
254,233720,0.758596,0.275964,-0.580964,-3.7975,-8.4875,3.2025
255,233819,0.7449321,0.274988,-0.584136,-2.485,-8.82,4.6025
256,233917,0.745664,0.27328,-0.593164,-1.0675,-8.05,5.9325
257,234015,0.7227279999999999,0.268888,-0.586088,0.875,-6.3525,7.945
258,234113,0.7327321,0.261812,-0.5987760999999999,2.205,-4.375,10.1675
259,234211,0.7183361,0.233264,-0.646112,1.995,-0.42,10.885
260,234309,0.702232,0.192272,-0.7183361,-7.5425,4.8825,15.47
261,234407,0.7417600000000001,0.34892,-0.776408,-18.235,16.5725,18.7075
262,234505,0.7105279999999999,0.259372,-0.7571321,-16.415,36.1375,25.2525
263,234603,0.771772,0.270352,-0.763232,-31.71,53.375,24.3425
264,234701,0.7993439999999999,0.248392,-0.774456,-42.7525,71.5225,25.9175
265,234800,0.8291120999999999,0.34477199999999997,-0.7793359999999999,-54.7575,87.4125,26.46
266,234898,0.9311040999999999,0.359168,-0.865468,-63.8925,99.0675,28.4025
267,234996,1.047004,0.41260399999999997,-1.031388,-60.725,98.3675,31.8675
268,235094,0.8357,0.43627200000000005,-0.9506241,-42.84,84.1225,41.9825
269,235192,0.5846241,0.510204,-1.474492,-31.22,60.76,55.755
270,235290,0.5185,0.566812,-1.3527360000000002,-7.945,28.6825,69.0725
271,235388,0.126148,0.680028,-1.452532,8.295,28.7525,71.3475
272,235486,-0.110044,0.737124,-1.432768,11.2,19.9675,59.2725
273,235584,-0.223504,0.738344,-1.432036,10.15,8.61,40.0925
274,235682,-0.244,0.685396,-1.46766,8.4175,-2.0825,18.585
275,235781,-0.211792,0.6068279999999999,-1.490108,8.1375,-15.5575,-0.63
276,235879,-0.181536,0.5016641,-1.464732,9.135,-31.0275,-15.0675
277,235977,-0.127856,0.3782,-1.410076,10.9025,-45.8675,-24.535
278,236075,-0.029524,0.269376,-1.352004,11.97,-58.17,-29.015
279,236173,0.08857201,0.18666,-1.301984,11.97,-68.3725,-29.0325
280,236271,0.240096,0.130296,-1.2585520000000001,10.185,-77.5775,-25.445
281,236369,0.392352,0.098088,-1.235616,8.0675,-86.15250999999999,-19.3375
282,236467,0.5219159999999999,0.083204,-1.2073120000000002,6.3175,-94.15,-11.4625
283,236565,0.6588,0.0793,-1.190964,4.235,-101.8675,-2.4675
284,236663,0.775188,0.071004,-1.142408,-0.4025,-110.6,5.845
285,236762,0.8586360000000001,0.079056,-1.061156,-8.575,-119.3325,11.2
286,236860,0.915732,0.128588,-0.9962521000000001,-19.2325,-125.8775,12.845
287,236958,1.032852,0.19861600000000001,-0.972828,-33.4425,-129.57,10.29
288,237056,1.128256,0.2989,-0.9464761,-46.655,-135.31,3.57
289,237154,1.23098,0.49702799999999997,-0.7381001,-53.69,-142.66,-7.56
290,237252,1.142896,0.48165600000000003,-0.8437520000000001,-60.2175,-140.875,-21.77
291,237350,1.080188,0.49776000000000004,-0.769576,-53.27,-146.16,-32.69
292,237448,1.041148,0.5185,-0.668316,-41.125,-146.9825,-45.99
293,237546,0.9864921,0.485072,-0.617564,-27.3175,-140.98,-59.115
294,237645,0.974292,0.462136,-0.583404,-11.865,-131.495,-71.9775
295,237743,1.003816,0.43602799999999997,-0.5826720000000001,4.7425,-119.98,-83.73751
296,237841,1.024556,0.395524,-0.582428,22.96,-109.76,-93.135
297,237939,1.0079639999999999,0.330376,-0.549488,42.105,-101.8325,-100.17
298,238037,0.9740479999999999,0.24131599999999997,-0.49580799999999997,59.675,-94.5525,-104.09
299,238135,0.9354959999999999,0.15396400000000002,-0.431148,73.09751,-86.8,-104.79
300,238233,0.8998719999999999,0.079056,-0.37551599999999996,80.5525,-78.61,-102.3925
301,238331,0.8852321,0.023424,-0.345016,82.3025,-69.9475,-96.88
302,238429,0.8786440999999999,-0.020008,-0.329644,79.5375,-62.475,-89.355
303,238527,0.8437520000000001,-0.05124001,-0.318176,73.185,-56.5775,-80.2725
304,238626,0.819108,-0.07198,-0.315004,64.225,-51.2225,-69.9475
305,238724,0.812032,-0.070516,-0.329156,53.4625,-46.305,-58.835
306,238822,0.787388,-0.066124,-0.33671999999999996,42.42,-42.875,-47.4775
307,238920,0.772748,-0.05002,-0.345748,31.605,-39.9,-36.2075
308,239018,0.765672,-0.022936,-0.35843600000000003,20.72,-37.135,-25.34
309,239116,0.783972,0.020496,-0.387228,9.3625,-34.755,-15.2775
310,239214,0.8010520000000001,0.052703999999999994,-0.390156,-2.0825,-34.2825,-6.7375
311,239312,0.7625,0.084912,-0.34257600000000005,-12.32,-35.595,0.6125
312,239411,0.7317560000000001,0.118584,-0.283528,-21.2625,-34.8775,8.9775
313,239509,0.7329760000000001,0.159576,-0.22106399999999998,-29.435,-30.695,18.9525
314,239607,0.759328,0.21667199999999998,-0.174216,-37.5725,-24.1325,29.435
315,239705,0.7993439999999999,0.30378,-0.13859200000000002,-44.9225,-16.765,38.325
316,239803,0.8357,0.398452,-0.084912,-50.015,-9.135,43.855
317,239901,0.8669319999999999,0.48214399999999996,-0.014884,-51.1875,-0.21,44.695
318,239999,0.935008,0.5577840000000001,0.035136,-48.9825,10.36,41.0725
319,240097,1.01504,0.612928,0.05856,-44.9575,20.405,34.79
320,240195,1.0206520000000001,0.642452,0.10223600000000001,-39.0425,27.685,25.2875
321,240294,0.560956,0.528016,0.29524,-37.765,62.615,15.4
322,240392,0.49727200000000005,0.537776,-0.650992,-38.8675,117.145,-13.79
323,240490,-0.36356,0.42456000000000005,-1.122156,-52.29,144.095,-44.975
324,240588,0.48068,0.26596,-0.599508,-84.7,192.3425,-85.155
325,240686,1.4964520000000001,0.444812,-0.580964,-79.4675,194.705,-107.59
326,240784,1.463268,0.018544,-1.064084,-52.57,177.905,-92.3125
327,240882,1.2336639999999999,-0.298168,-1.2038959999999999,-43.05,152.67,-30.24
328,240980,1.173152,0.4553041,-0.8427761,-53.9525,120.015,43.3475
329,241078,0.8998719999999999,1.21512,-0.376492,-55.0025,101.2725,62.3175
330,241176,1.159244,0.677588,-0.644892,-25.9175,103.8275,38.5875
331,241275,1.299544,-0.24107199999999998,-1.011868,-6.965,96.8975,22.1375
332,241373,0.891576,0.631228,-1.114104,-15.0675,68.4425,23.31
333,241471,1.38836,1.069452,-0.45628,-3.99,34.2825,-1.61
334,241569,0.813496,0.50142,-0.6605081,28.2625,25.2875,17.7275
335,241667,0.8132520999999999,0.309392,-0.721996,36.05,24.7975,36.925
336,241765,0.898652,0.4697,-0.6378159999999999,39.9,18.8475,48.3875
337,241863,0.757864,0.30744,-0.665876,49.805,14.4025,50.645
338,241961,0.7991,0.26352,-0.6709999999999999,52.2025,11.305,51.7825
339,242059,0.74542,0.343552,-0.643428,53.8125,8.12,55.9475
340,242158,0.729804,0.32866799999999996,-0.664412,58.1875,6.825,58.66
341,242256,0.767868,0.30548800000000004,-0.6512359999999999,60.62,6.5625,58.6075
342,242354,0.744444,0.302804,-0.638304,59.36,6.16,56.49
343,242452,0.80886,0.304268,-0.633912,56.735,6.8775,49.2625
344,242550,0.7285841,0.260104,-0.632204,53.095,9.1525,41.0725
345,242648,0.776408,0.270108,-0.6612401,47.5475,11.095,35.805
346,242746,0.7812880999999999,0.24863600000000002,-0.6663640000000001,42.3325,9.31,31.745
347,242844,0.782752,0.25254,-0.670512,37.7125,5.3725,28.665
348,242943,0.777872,0.245464,-0.661484,32.3225,0.7175,26.285
349,243041,0.766892,0.23472800000000002,-0.6661201,27.2475,-3.4825,24.29
350,243139,0.74542,0.20642399999999997,-0.660996,22.7675,-6.8075,22.6975
351,243237,0.721264,0.21057199999999998,-0.654408,20.3175,-8.575,20.79
352,243335,0.7027201,0.198372,-0.661728,19.6,-9.38,19.0575
353,243433,0.71736,0.205692,-0.653188,18.41,-9.2225,17.0975
354,243531,0.720532,0.200324,-0.6573359999999999,16.6425,-8.435,14.7525
355,243629,0.721996,0.170068,-0.6541640000000001,14.0875,-7.5775,11.3925
356,243727,0.715164,0.185196,-0.6517241,11.13,-6.72,7.63
357,243825,0.726388,0.17568,-0.6563601,8.6625,-6.0375,5.53
358,243924,0.721264,0.176656,-0.665632,6.755,-5.46,4.865
359,244022,0.7300479999999999,0.185928,-0.664168,6.2825,-4.585,5.3375
360,244120,0.733952,0.219844,-0.660752,6.0725,-4.0425,7.28
361,244218,0.73078,0.21667199999999998,-0.661484,5.635,-3.675,10.0625
362,244316,0.726144,0.252296,-0.665876,4.515,-2.0125,14.2275
363,244414,0.7327321,0.21301199999999998,-0.66368,5.46,2.6075,20.2825
364,244512,0.7327321,0.192028,-0.6539201,5.1275,7.1925,24.7975
365,244610,0.7256560000000001,0.17055599999999999,-0.661484,3.99,13.23,26.705
366,244709,0.708576,0.161772,-0.681736,2.0825,22.5225,28.4725
367,244807,0.730292,0.057828,-0.734684,-0.2275,34.93,27.7375
368,244905,0.728096,0.094916,-0.6749041,-2.9925,49.945,23.8875
369,245003,0.715896,0.105652,-0.680028,-7.9625,65.135,20.3
370,245101,0.7439560000000001,0.11736400000000001,-0.6663640000000001,-11.095,76.1075,18.0425
371,245199,0.734684,0.12932000000000002,-0.6673399999999999,-11.9875,84.8225,15.68
372,245297,0.739564,0.131272,-0.676612,-11.48,90.58001,13.2825
373,245396,0.7707961,0.11394800000000001,-0.7015,-11.1825,94.81501,10.955
374,245493,0.835456,0.136884,-0.6810039999999999,-8.155,105.14,10.0275
375,245591,0.840824,0.175924,-0.700036,-5.915,119.175,13.16
376,245690,0.742492,0.17738800000000002,-0.7849480999999999,-4.34,140.1225,21.875
377,245788,0.874984,0.171044,-0.7227279999999999,-4.375,163.205,31.78
378,245886,1.099708,0.15201199999999998,-0.6036560999999999,-8.225,198.8525,41.9825
379,245984,0.34404,0.105896,-1.045052,-18.8825,262.99,48.58
380,246082,1.483276,0.24326799999999998,-0.788608,-24.3425,292.5825,53.095
381,246180,0.9298841,0.225944,-0.9352520000000001,-7.14,406.945,59.2025
382,246278,0.8091041,0.394548,-0.9821,5.6525,513.6425,68.11
383,246376,0.800076,0.671976,-1.105076,2.45,569.9225,87.0275
384,246475,0.7734800000000001,0.483364,-1.081652,-3.045,573.405,135.59
385,246573,1.410808,0.203984,-0.51484,9.8525,573.3875,170.52
386,246671,2.6703360000000003,0.242536,0.082472,14.7525,573.335,173.6525
387,246769,2.428532,0.44993599999999995,0.13176,8.8025,545.405,143.325
388,246867,2.48026,0.35697199999999996,-0.258396,-1.1375,445.7425,106.7325
389,246965,1.455704,0.47482399999999997,-0.9650200999999999,-18.6375,318.955,43.5575
390,247063,2.512468,1.350296,-1.122156,-37.1875,189.665,-10.85
391,247161,4.879023999999999,1.012356,-2.7054720000000003,-97.545,110.775,-33.2325
392,247259,3.607296,1.18706,-2.667164,-56.0525,206.7625,74.0075
393,247358,2.287988,1.6674959999999999,-3.4530879999999997,-94.99,-19.355,120.6625
394,247456,1.378844,1.73728,-3.108072,-53.6725,-158.76,61.3375
395,247554,0.5897479999999999,1.532564,-2.353868,-14.42,-231.5775,25.06
396,247652,0.303292,1.37982,-1.993724,24.6925,-254.415,-3.885
397,247750,0.44822799999999996,1.1773,-1.8224360000000002,54.46,-264.6875,-29.19
398,247848,0.60512,0.952332,-1.663836,73.22,-287.5775,-58.1875
399,247946,0.67588,0.681248,-1.4454559999999999,77.21,-323.6975,-86.4675
400,248044,0.742492,0.460672,-1.252208,68.5475,-360.8675,-108.71
401,248142,0.808372,0.29792399999999997,-1.074088,53.1125,-393.505,-121.4675
402,248241,0.769576,0.187148,-0.8769360999999999,37.3275,-419.0375,-125.265
403,248339,0.7141881,0.114924,-0.690032,24.325,-430.8675,-120.6275
404,248437,0.752496,0.079544,-0.5958479999999999,13.16,-428.085,-110.1975
405,248535,0.869128,0.10223600000000001,-0.560956,4.69,-415.7825,-98.9275
406,248633,1.011136,0.152988,-0.5892601,-1.96,-400.4,-87.6225
407,248731,1.155828,0.22643200000000002,-0.6456241,-8.5575,-386.96,-79.2225
408,248829,1.3205280000000001,0.335988,-0.733952,-16.135,-376.705,-74.7775
409,248927,1.4701,0.44286000000000003,-0.77836,-25.27,-371.0,-74.5675
410,249025,1.519144,0.522648,-0.7598161,-36.7325,-367.955,-79.7825
411,249124,1.592832,0.61,-0.774456,-51.87,-361.13,-90.00251
412,249222,1.7516759999999998,0.71248,-0.8596120999999999,-69.3525,-347.935,-103.81
413,249320,2.0864439999999997,0.887184,-1.000644,-86.18751,-333.795,-119.5075
414,249418,2.34728,0.973316,-1.00284,-97.79,-326.27,-137.9875
415,249516,2.542724,0.998448,-0.8142281,-105.595,-324.17,-162.5575
416,249614,2.600308,1.006988,-0.44334799999999996,-104.51,-318.15,-189.1225
417,249712,2.70352,1.028704,-0.07564,-91.2275,-298.4625,-211.75
418,249810,2.8904240000000003,1.0262639999999998,0.12932000000000002,-61.7925,-267.47,-226.135
419,249908,3.0380439999999997,0.8169121,0.25986,-19.39,-236.2675,-237.0025
420,250006,3.0741560000000003,0.41260399999999997,0.449692,20.9475,-213.71,-248.8325
421,250105,3.094164,0.005856,0.67832,48.93,-199.15,-255.6225
422,250203,3.0097400000000003,-0.631228,0.80886,67.06,-183.225,-252.245
423,250301,3.138572,-0.7376119999999999,0.930616,74.9,-169.295,-238.7
424,250399,3.3125440000000004,-1.0309,1.391532,94.44751,-159.075,-195.02
425,250497,2.8906680000000002,-1.5852680000000001,2.3333720000000002,100.7825,-147.3675,-128.3275
426,250595,2.446588,-1.899052,3.055124,55.93,-111.86,-64.2075
427,250693,2.546872,-1.5464719999999998,2.67424,-35.875,-56.3675,-19.5475
428,250791,2.7816,-0.829356,1.86294,-99.6275,-11.165,7.28
429,250889,2.6449599999999998,-0.489464,1.3527360000000002,-86.1,21.91,35.98
430,250988,-0.21081599999999998,-0.528016,1.374696,-31.045,95.8125,99.33001
431,251086,-1.7697319999999999,-1.2073120000000002,-2.703032,-17.675,245.35,123.3225
432,251184,2.528572,0.8052,-0.025863999999999998,-154.0875,373.87,96.81
433,251282,2.757688,0.274012,0.199104,-81.305,323.855,146.4575
434,251380,2.127192,1.267092,-1.3268719999999998,-19.67,308.63,159.74
435,251478,1.354932,1.180472,-0.06832001,-10.9725,270.83,140.665
436,251576,1.7104400000000002,0.147376,-0.966728,13.0025,261.205,125.7725
437,251674,1.876116,-0.7537159999999999,-1.053592,6.475,238.2975,84.77
438,251772,2.090104,2.5344279999999997,-2.060092,-7.56,187.285,27.8075
439,251871,3.2361720000000003,0.518988,-0.425048,84.14001,91.525,-31.395
440,251969,1.61284,0.472872,-0.9437921,104.7375,56.0175,56.49
441,252067,1.075308,0.041968,-0.48848800000000003,77.0875,22.645,57.645
442,252165,0.8666879999999999,0.193736,-0.615124,52.2725,4.445,56.7525
443,252263,0.8249639999999999,0.266448,-0.620004,40.88,4.1825,40.1975
444,252361,0.8010520000000001,0.260592,-0.604388,29.75,5.355,27.8775
445,252459,0.791536,0.273036,-0.6161,24.6575,7.56,19.5475
446,252557,0.790804,0.26913200000000004,-0.625128,18.8125,8.96,13.7725
447,252655,0.7954399999999999,0.246928,-0.623664,14.035,10.5875,11.2525
448,252754,0.7937320999999999,0.257664,-0.607804,9.4325,10.8325,9.345
449,252852,0.7954399999999999,0.294752,-0.615124,8.4,9.6775,10.15
450,252950,0.783728,0.28157600000000005,-0.6182960999999999,9.625,6.58,12.11
451,253048,0.768844,0.28767600000000004,-0.6258600000000001,11.4625,2.45,12.88
452,253146,0.7610359999999999,0.29133600000000004,-0.633668,13.195,-2.2925,12.1625
453,253244,0.731268,0.323056,-0.632448,16.31,-7.175,12.11
454,253342,0.6724640000000001,0.3782,-0.62464,19.1625,-12.425,13.6675
455,253440,0.652212,0.393328,-0.6170760000000001,19.6175,-15.3825,14.9975
456,253539,0.66368,0.373808,-0.60024,19.53,-14.8225,17.675
457,253637,0.649284,0.367952,-0.600484,18.1825,-14.2275,22.6975
458,253735,0.6456241,0.373564,-0.6158561,16.8875,-14.8575,27.23
459,253833,0.661728,0.3538,-0.623664,17.0625,-15.4525,31.6225
460,253931,0.744688,0.25254,-0.611464,18.4625,-15.75,35.9975
461,254029,0.72712,0.20618000000000003,-0.625128,16.0125,-17.7975,37.5725
462,254127,0.7381001,0.13639600000000002,-0.6290319999999999,17.43,-17.395,34.685
463,254225,0.7232161,0.126636,-0.6439159999999999,18.0775,-15.3825,28.2975
464,254323,0.7468840999999999,0.1525,-0.636352,15.505,-10.99,21.735
465,254422,0.738344,0.177876,-0.6368401,13.7025,-4.4275,18.55
466,254520,0.7407841,0.195688,-0.6470880999999999,11.27,2.9575,16.695
467,254618,0.7266321,0.29792399999999997,-0.664412,8.2425,11.7425,17.01
468,254716,0.7612800999999999,0.228872,-0.629764,5.6875,24.2725,24.7625
469,254814,0.8076399999999999,0.35624,-0.8613200000000001,-3.4825,33.95,31.4475
470,254912,0.68808,0.11224,-0.627812,0.3675,46.725,36.9775
471,255010,0.727364,0.1464,-0.71614,-8.54,60.34,35.35
472,255108,0.7027201,0.15274400000000002,-0.811056,-8.7675,76.1775,34.65
473,255206,0.778604,0.138836,-0.7712840999999999,-2.8875,93.7125,31.2725
474,255305,0.9140241,0.2135,-0.753472,-6.0725,119.5075,30.6775
475,255403,0.8049561,0.195444,-0.795928,-11.795,162.785,33.74
476,255501,0.8003201,0.198372,-0.83936,-17.8325,209.2825,37.31
477,255599,0.750788,0.21301199999999998,-0.8759601,-23.905,252.77,46.3225
478,255697,1.039928,0.23082399999999997,-0.8991401,-31.15,296.31,60.83
479,255795,0.8427761,0.142252,-0.8740081000000001,-21.525,372.8375,74.795
480,255893,0.7415161,0.387228,-0.936472,-28.98,475.5275,79.17
481,255991,0.8820601,0.582428,-1.1087360000000002,-17.9375,561.3474,95.09501
482,256090,0.99308,0.877668,-1.518412,-28.91,573.405,128.1525
483,256188,1.008208,0.7178479999999999,-1.4757120000000001,-21.35,573.405,192.6225
484,256286,2.057652,-0.030012,0.03172,27.5625,573.405,247.9925
485,256384,2.701324,0.21374400000000002,0.136884,13.8075,573.37,204.3475
486,256482,2.8965240000000003,0.5546121,0.19764,-44.065,553.2975,117.6875
487,256580,1.599664,0.454084,-0.9042641,-91.875,431.445,40.7925
488,256678,2.865536,1.53598,-1.277096,-130.4625,238.0525,-39.69
489,256776,6.57702,0.820816,-3.088064,-210.9275,69.265,-50.61
490,256875,3.493836,1.6028360000000001,-3.132472,-173.67,133.875,113.9775
491,256973,2.4705,2.0181240000000003,-3.6514599999999997,-196.9625,-70.455,127.75
492,257071,1.2756319999999999,2.091568,-3.080012,-132.8075,-213.675,66.99
493,257169,0.44993599999999995,1.86294,-2.278228,-74.3925,-274.89,26.67
494,257267,0.16811600000000002,1.665788,-1.9266240000000001,-26.88,-283.36,-11.3575
495,257365,0.34648,1.422032,-1.8112119999999998,8.75,-279.72,-51.625
496,257463,0.636108,1.136308,-1.760704,33.81,-290.6575,-96.7575
497,257561,0.897432,0.819108,-1.646268,46.3575,-322.0525,-138.005
498,257659,1.0182120000000001,0.478484,-1.45302,47.7575,-363.8775,-168.84
499,257758,1.063596,0.195444,-1.222684,39.83,-404.6525,-186.3225
500,257856,1.0528600000000001,-0.024888,-0.9867360999999999,25.8125,-435.68,-188.8075
501,257954,1.013332,-0.174216,-0.811056,9.555,-452.9,-180.285
502,258052,1.010404,-0.254492,-0.693448,-7.0525,-454.7725,-166.9325
503,258150,1.08092,-0.24570799999999998,-0.6663640000000001,-22.435,-446.6,-150.08
504,258248,1.1951120000000002,-0.19397999999999999,-0.705404,-34.615,-433.02,-131.845
505,258346,1.342488,-0.126148,-0.777384,-43.33,-419.055,-114.24
506,258444,1.5037719999999999,-0.061488,-0.8784,-52.185,-407.6625,-100.03
507,258542,1.695312,0.026595999999999998,-0.989176,-65.31,-401.5375,-91.6825
508,258641,1.914668,0.08881599,-1.104588,-83.9125,-401.0825,-88.795
509,258739,2.09718,0.13054000000000002,-1.1960879999999998,-108.0975,-403.4975,-92.85501
510,258837,2.2774959999999997,0.251564,-1.2312239999999999,-137.83,-405.8775,-101.29
511,258935,2.364604,0.305244,-1.137284,-164.85,-403.8825,-111.23
512,259033,2.59128,0.465552,-0.955992,-185.43,-391.965,-124.4775
513,259131,2.785992,0.6439159999999999,-0.6512359999999999,-193.4975,-374.8675,-139.1775
514,259229,2.922876,0.812276,-0.320128,-181.58,-348.635,-160.2475
515,259327,3.003152,0.8820601,0.004392,-143.1675,-311.4475,-188.7025
516,259426,2.966064,0.7134560999999999,0.35672800000000005,-87.60501,-268.7475,-225.1025
517,259524,3.06098,0.431148,0.642452,-26.145,-223.09,-263.76
518,259622,3.121492,-0.25864000000000004,0.8735200000000001,34.615,-180.81,-294.9275
519,259720,3.2788720000000002,-0.555832,1.1394799999999998,81.55001,-144.6025,-315.9975
520,259818,3.2034759999999998,-0.636108,1.625284,133.8575,-119.8925,-299.355
521,259916,3.255692,-1.073356,1.956636,196.105,-88.935,-242.55
522,260014,3.149796,-1.648464,2.462936,208.285,-60.83,-183.575
523,260112,2.639348,-1.9129599999999998,2.9199479999999998,151.515,-32.6375,-138.0925
524,260211,2.6522799999999997,-1.6023479999999999,2.506856,64.12,19.18,-98.14
525,260309,2.988268,-1.036024,1.64578,6.44,70.5075,-54.95
526,260407,2.974848,-0.77104,1.039684,3.78,97.16001,-6.1425
527,260505,2.766716,-0.803492,0.7571321,19.39,109.4625,45.395
528,260603,2.68522,-0.820572,0.45164399999999993,7.8225,113.68,87.115
529,260701,1.009672,0.92232,-6.223708,-6.3,89.3725,120.6975
530,260799,-4.155808,-1.362252,-0.49776000000000004,-31.9025,133.7875,145.9325
531,260897,1.874408,1.170224,1.39568,-229.985,344.7675,176.995
532,260995,3.066104,1.874652,-0.7378560000000001,-109.48,319.8125,209.4925
533,261094,1.235616,2.0234919999999996,-0.55388,17.08,280.0175,175.5775
534,261192,1.6814040000000001,0.5743761,-0.49117200000000005,63.14,276.43,142.1175
535,261290,2.922388,-1.8919759999999999,-1.112152,69.055,252.1575,155.3825
536,261388,2.74988,-0.617564,-1.240008,13.7375,200.7425,102.4625
537,261486,1.186328,1.378112,-0.562664,-26.32,169.2775,58.9575
538,261584,1.59332,2.033252,-1.244888,33.6875,150.78,39.6025
539,261682,2.761104,-0.48165600000000003,-0.8893800999999999,151.48,68.6875,40.4075
540,261780,1.5852680000000001,-0.31890799999999997,-0.8744960999999999,118.2475,1.505,86.975
541,261879,0.504836,0.5038600000000001,-0.444324,61.635,-22.435,89.67
542,261977,0.782752,0.202276,-0.6573359999999999,64.0675,-5.4075,71.3825
543,262075,0.767624,0.171532,-0.621712,60.3225,-10.3075,60.62
544,262173,0.763476,0.246928,-0.685884,49.0175,-6.44,45.9725
545,262271,0.786656,0.131028,-0.672708,41.72,1.2775,38.885
546,262369,0.7829961,0.153232,-0.67832,30.8875,2.835,28.7525
547,262467,0.770308,0.121268,-0.676612,23.0825,3.2375,19.215
548,262565,0.772504,0.127368,-0.660752,16.6075,4.0075,10.9375
549,262664,0.7610359999999999,0.130296,-0.659044,11.48,4.165,3.2725
550,262762,0.743468,0.14469200000000002,-0.6517241,7.91,3.64,-2.8175
551,262860,0.727608,0.166652,-0.6573359999999999,4.69,2.625,-7.5075
552,262958,0.718824,0.174216,-0.6563601,1.96,1.9775,-10.7975
553,263056,0.710284,0.19764,-0.656116,0.105,1.8025,-12.7225
554,263154,0.72346,0.221308,-0.6414761,-0.21,2.2575,-12.2675
555,263252,0.7241920000000001,0.21447600000000003,-0.6265921,0.63,2.73,-9.4675
556,263350,0.7217521,0.20861999999999997,-0.620004,1.5575,2.59,-6.7725
557,263448,0.73932,0.23668000000000003,-0.63318,1.54,2.1175,-4.095
558,263547,0.75274,0.24644000000000002,-0.630008,3.22,1.82,-0.42
559,263645,0.760792,0.223016,-0.6182960999999999,6.4225,0.7,4.69
560,263743,0.7551800000000001,0.2013,-0.614636,8.785,0.1575,8.3125
561,263841,0.74542,0.156404,-0.6409881,9.415,0.7,10.0625
562,263939,0.733464,0.118828,-0.6348881,9.87,2.9225,9.8525
563,264037,0.7332201,0.122976,-0.6319600000000001,8.925,6.4575,7.2625
564,264135,0.74054,0.154696,-0.619516,7.28,11.0425,5.18
565,264233,0.752496,0.217892,-0.6344,5.46,14.9625,6.2475
566,264331,0.7556681,0.233264,-0.627812,5.3725,17.01,12.1625
567,264429,0.7068681,0.194468,-0.6231760999999999,4.3225,17.57,19.95
568,264528,0.7812880999999999,0.245464,-0.62952,0.6825,18.3225,28.21
569,264626,0.74298,0.237168,-0.7190681,6.265,17.3075,37.5725
570,264724,0.703696,0.077592,-0.662704,9.3975,21.805,43.0325
571,264822,0.759572,0.123708,-0.72102,0.14,31.255,41.0725
572,264920,0.739564,0.118828,-0.7539600000000001,0.875,46.41,43.54
573,265018,0.758596,0.10736,-0.765428,-2.0475,63.875,44.8875
574,265116,0.850584,0.11102000000000001,-0.74908,-3.395,87.36,46.9525
575,265214,0.674416,0.12761199999999998,-0.915976,-4.0075,120.435,49.945
576,265312,0.992592,0.107848,-0.7903161,2.345,154.2625,55.615
577,265410,0.6039,0.090768,-0.937448,2.3275,215.74,58.4325
578,265509,0.98088,0.028304000000000003,-0.9093880999999999,4.025,275.1875,60.97
579,265607,0.8903561,0.043676,-0.9098761000000001,10.0275,372.6625,56.035
580,265705,0.8437520000000001,0.217892,-0.8784,5.2675,460.6175,50.7325
581,265803,0.711992,0.35843600000000003,-1.0626200000000001,-1.19,544.11,55.9125
582,265901,1.0911680000000001,0.7600600000000001,-1.514752,-11.8125,573.2825,82.9675
583,265999,0.9655081,0.6709999999999999,-1.397632,-2.52,573.405,147.245
584,266097,1.800232,0.09589201,-0.394304,23.2225,573.405,194.985
585,266195,2.418528,-0.11321600000000001,0.502152,4.7075,573.335,162.365
586,266293,2.535404,0.595116,-0.09735601,-37.205,556.0275,105.5775
587,266391,2.2311360000000002,0.538752,-0.48068,-88.69,480.375,55.1425
588,266490,1.32736,0.398696,-0.924516,-109.9875,382.795,44.94
589,266588,2.479284,1.079456,-1.134844,-147.525,239.645,-15.6275
590,266686,6.055836,0.634644,-3.082696,-235.9,83.37001,-64.05
591,266784,3.525068,1.518168,-3.169804,-192.8325,128.3275,48.86
592,266882,2.574688,1.7611919999999999,-3.4799279999999997,-194.425,-99.40001,99.96
593,266980,1.4278879999999998,1.8051119999999998,-2.7908720000000002,-121.66,-240.205,67.6725
594,267078,0.693448,1.623332,-1.9778639999999998,-59.4125,-299.04,52.465
595,267176,0.400648,1.4579,-1.581852,-13.265,-313.11,27.6675
596,267274,0.463844,1.27978,-1.4173959999999999,13.9825,-314.335,-6.9475
597,267373,0.6314721,1.086288,-1.311988,29.61,-322.805,-49.07
598,267471,0.8596120999999999,0.899384,-1.248792,35.2625,-344.1025,-88.9525
599,267569,0.9769760000000001,0.7076001000000001,-1.118496,35.875,-376.0575,-121.4675
600,267667,0.9391560999999999,0.525576,-0.921832,33.67,-408.205,-144.165
601,267765,0.8901120000000001,0.345992,-0.734684,28.4725,-427.8925,-153.5275
602,267863,0.877912,0.22423600000000002,-0.597068,20.09,-434.6475,-154.945
603,267961,0.8945040000000001,0.1769,-0.522648,8.61,-431.795,-153.3
604,268059,0.9796600000000001,0.19739600000000002,-0.509716,-1.9775,-421.26,-148.47
605,268157,1.111908,0.246196,-0.545096,-8.6275,-406.9975,-140.875
606,268256,1.2383,0.298656,-0.583404,-12.6,-392.455,-132.72
607,268354,1.3607879999999999,0.361608,-0.624396,-20.3175,-381.255,-126.91
608,268452,1.48596,0.46238,-0.6944241,-31.955,-372.8375,-125.6325
609,268550,1.604056,0.5575399999999999,-0.71492,-46.2875,-364.945,-130.2175
610,268648,1.7019,0.615368,-0.738588,-63.35,-355.6875,-141.225
611,268746,1.89588,0.6958880000000001,-0.834968,-81.95251,-340.9175,-155.995
612,268844,2.241384,0.833016,-0.975024,-99.8025,-326.6375,-170.975
613,268942,2.459764,0.8988959999999999,-0.9323239999999999,-111.3,-319.13,-186.6025
614,269040,2.634712,0.9181720999999999,-0.6985720999999999,-118.79,-312.62,-205.7125
615,269138,2.666676,0.8769360999999999,-0.319152,-117.845,-298.9175,-226.31
616,269236,2.78282,0.822524,-0.033916,-104.965,-271.6525,-245.2625
617,269335,2.8835919999999997,0.6329359999999999,0.129076,-79.065,-238.875,-256.9175
618,269433,2.8787119999999997,0.327448,0.24326799999999998,-48.615,-210.4025,-265.4225
619,269531,2.94386,0.07002799999999999,0.332084,-20.4225,-189.35,-272.3
620,269629,2.952888,-0.42431599999999997,0.49556400000000006,11.165,-174.7375,-272.965
621,269727,2.9675279999999997,-0.748592,0.60634,38.15,-156.975,-269.0275
622,269825,3.06708,-0.712236,0.927688,70.7,-147.63,-243.5825
623,269923,3.152724,-0.998448,1.429108,113.295,-138.635,-183.8025
624,270021,2.7725720000000003,-1.526952,2.144028,119.595,-127.5225,-121.8175
625,270119,2.29848,-1.75558,2.71084,67.9175,-95.6375,-82.8275
626,270218,2.351428,-1.4295959999999999,2.351672,-13.72,-37.3625,-54.39
627,270316,2.720356,-0.8601,1.536468,-55.3175,19.495,-22.1375
628,270414,2.7398759999999998,-0.638548,0.9386681,-35.7525,53.9525,15.8025
629,270512,2.54736,-0.785192,0.733464,4.6375,72.6075,51.555
630,270610,0.487756,-0.249856,-1.155828,41.3875,110.915,102.76
631,270708,-2.61446,-1.668716,-2.2482159999999998,38.2025,203.945,130.2175
632,270806,1.9351639999999999,0.060512,0.23424,-133.8225,372.4175,98.9975
633,270904,3.097092,0.425048,-0.15982000000000002,-104.895,355.0575,115.3775
634,271002,1.8636720000000002,1.1346,-1.3205280000000001,-30.94,320.6875,112.7
635,271101,1.6567599999999998,1.327848,-0.36966,-17.7975,278.565,111.86
636,271199,1.376892,0.79422,-0.44773999999999997,24.36,253.26,125.1425
637,271297,1.7211759999999998,-0.475312,-2.115968,30.5725,235.5325,97.3525
638,271395,3.36476,1.2505,-1.29198,49.07,134.855,25.0075
639,271493,2.503196,0.567056,-0.432856,95.375,74.795,12.285
640,271591,1.0643280000000002,0.521184,-1.217072,77.9625,66.045,61.0925
641,271689,1.202432,0.077348,-0.482388,94.0625,29.855,62.5975
642,271787,0.9911281,0.043676,-0.733464,66.7275,2.3275,70.175
643,271885,0.8549761,0.148596,-0.626104,48.965,-7.6475,62.2475
644,271984,0.7556681,0.28011199999999997,-0.6502600000000001,34.825,-9.345,49.98
645,272082,0.7659161,0.17519200000000001,-0.650992,35.28,-6.1075,40.845
646,272180,0.7598161,0.21716,-0.650748,31.5,-3.395,31.3425
647,272278,0.759084,0.175924,-0.643428,27.23,0.875,21.98
648,272376,0.757864,0.19642,-0.638792,21.805,5.635,13.475
649,272474,0.75762,0.219356,-0.635376,15.5925,8.9775,6.405
650,272572,0.7522521,0.22496799999999997,-0.6380600000000001,11.515,10.5175,1.96
651,272670,0.7378560000000001,0.25864000000000004,-0.642696,8.9425,10.535,-1.3475
652,272768,0.72712,0.269864,-0.6463561,7.4025,8.8375,-3.675
653,272867,0.714432,0.29792399999999997,-0.652212,6.3525,6.125,-5.32
654,272965,0.7105279999999999,0.305,-0.6405,5.74,3.255,-5.775
655,273063,0.720288,0.300608,-0.6329359999999999,6.0025,0.945,-4.445
656,273161,0.704916,0.30182800000000004,-0.627568,6.8775,-1.4875,-1.9775
657,273259,0.708576,0.315492,-0.6219561,7.98,-4.4625,0.8400001
658,273357,0.705892,0.333304,-0.625372,9.8525,-7.4025,4.69
659,273455,0.7324881,0.31232,-0.615124,13.58,-10.045,10.5175
660,273553,0.7320001,0.254736,-0.630008,16.0475,-12.8975,16.1875
661,273651,0.74542,0.2074,-0.647576,15.8375,-13.0725,19.215
662,273750,0.7324881,0.174216,-0.6497721,14.455,-12.4775,18.69
663,273848,0.7288279999999999,0.146644,-0.6439159999999999,12.8975,-10.7625,14.9625
664,273946,0.726876,0.179584,-0.640256,10.675,-7.14,10.0975
665,274044,0.73932,0.20837600000000003,-0.6273241,8.715,-2.3275,7.8925
666,274142,0.733708,0.217892,-0.6319600000000001,7.91,2.52,8.19
667,274240,0.684908,0.25522399999999995,-0.64782,6.125,7.5425,10.78
668,274338,0.71248,0.260348,-0.627812,4.655,16.52,17.3075
669,274436,0.7361481,0.233508,-0.626836,3.955,24.2375,25.8825
670,274534,0.6844201,0.13078399999999998,-0.6736840000000001,0.9275,30.24,29.925
671,274632,0.749568,0.172264,-0.6771,-1.015,40.635,30.415
672,274731,0.7324881,0.135664,-0.7027201,-6.2825,50.4,28.3675
673,274829,0.72956,0.168604,-0.788608,-9.905,65.31,27.0025
674,274927,0.8252079999999999,0.20496,-0.73932,-7.14,76.8425,28.42
675,275025,0.7978801,0.199348,-0.772016,-8.995,97.9125,31.6575
676,275123,0.8371639999999999,0.221308,-0.7754321,-13.405,127.1025,33.3375
677,275221,0.796904,0.219112,-0.8220360000000001,-18.4275,162.19,35.49
678,275319,0.845216,0.22033200000000003,-0.776408,-21.3675,199.045,43.3825
679,275417,0.821304,0.171776,-0.7854361,-29.7675,242.445,53.1825
680,275515,0.85034,0.121512,-0.882548,-43.96,292.8275,61.4075
681,275614,1.016016,0.16348,-0.9943001,-52.01,367.0625,67.06
682,275712,0.826672,0.238632,-0.858392,-21.6825,473.9175,68.5475
683,275810,0.8640040000000001,0.649528,-1.028948,-18.27,557.55,74.725
684,275908,0.811056,0.656848,-1.323456,-43.085,573.3875,115.4825
685,276006,1.096048,0.58072,-1.289784,-36.295,573.3875,172.6725
686,276104,1.96908,0.014884,-0.140544,7.245,573.405,215.1275
687,276202,2.851384,0.37746799999999997,0.118828,9.2225,573.3875,181.58
688,276300,2.594452,0.42578,0.06929600000000001,-23.4675,551.985,111.265
689,276398,1.980548,0.14884,-0.697596,-50.2075,435.8725,50.2775
690,276497,1.9373599999999997,1.253184,-1.20414,-72.59,279.195,-43.75
691,276595,4.208024,0.9977159999999999,-1.786568,-150.395,115.71,-47.6
692,276693,6.586292,0.6695361,-2.392664,-204.33,114.9225,71.365
693,276791,2.239188,1.74826,-4.141168,-205.8,34.3875,161.4725
694,276889,1.851472,1.9124720000000002,-3.10612,-182.8925,-149.9925,102.025
695,276987,0.8371639999999999,1.82634,-2.44488,-124.4425,-248.4825,72.2225
696,277085,0.382348,1.6631040000000001,-1.9356520000000002,-63.6825,-277.1125,38.0625
697,277183,0.341844,1.48596,-1.738256,-18.9525,-279.8075,3.1675
698,277282,0.484096,1.244156,-1.617232,14.1925,-287.49,-39.06
699,277380,0.706624,1.0004,-1.5067,34.23,-308.8225,-80.4125
700,277478,0.859368,0.729316,-1.353712,43.4,-342.9125,-115.8675
701,277576,0.8481440999999998,0.4594521,-1.128256,42.2275,-381.0625,-143.0625
702,277674,0.79666,0.24790399999999999,-0.8954801,34.125,-410.2525,-158.2525
703,277772,0.730536,0.077348,-0.698816,21.1575,-424.83,-161.0175
704,277870,0.72712,0.006832001,-0.584868,7.07,-425.3375,-156.52
705,277968,0.782752,-0.008296000999999999,-0.556076,-5.1975,-415.275,-147.245
706,278066,0.9362280000000001,0.04148,-0.619028,-13.1775,-400.12,-135.415
707,278165,1.1155680000000001,0.096624,-0.7015,-16.7825,-385.1925,-123.935
708,278263,1.299056,0.14005599999999999,-0.79056,-20.3875,-375.5325,-114.1875
709,278361,1.4400879999999998,0.183976,-0.883768,-27.02,-371.945,-108.3425
710,278459,1.5725799999999999,0.232776,-0.937448,-37.9925,-371.385,-107.6775
711,278557,1.6845759999999999,0.257664,-0.9679481,-55.4575,-371.0525,-112.735
712,278655,1.9537080000000002,0.296704,-1.116056,-79.8875,-368.1125,-122.4125
713,278753,2.383636,0.429684,-1.319796,-107.3975,-367.36,-133.455
714,278851,2.609336,0.51362,-1.337852,-127.785,-375.4625,-143.115
715,278949,2.769888,0.537532,-1.131916,-142.6425,-383.67,-152.2325
716,279048,2.760128,0.5023960999999999,-0.6802720999999999,-152.845,-382.725,-163.2225
717,279146,2.818444,0.562664,-0.25302800000000003,-156.52,-360.9025,-177.5725
718,279244,2.99266,0.660996,0.016104,-144.1475,-322.2625,-191.3625
719,279342,3.065128,0.589016,0.265472,-111.2475,-279.545,-208.88
720,279440,3.094164,0.350628,0.516304,-66.395,-239.995,-232.1375
721,279538,2.984364,-0.38356799999999996,0.7034521,-17.4125,-202.4925,-256.935
722,279636,3.18664,-0.590724,0.883524,21.0525,-168.4725,-279.7025
723,279734,3.2959519999999998,-0.6736840000000001,1.357372,79.24,-149.345,-262.3075
724,279832,3.325232,-1.149972,1.923452,151.795,-129.045,-199.9025
725,279930,3.106852,-1.742404,2.554436,171.605,-108.36,-134.925
726,280029,2.577128,-1.8712360000000001,2.9746040000000002,127.575,-78.8725,-94.65751
727,280127,2.3467919999999998,-1.586244,2.6932720000000003,66.045,-21.875,-60.7775
728,280225,2.610312,-1.086288,1.8241439999999998,37.6425,49.5775,-19.5825
729,280323,2.897744,-0.8296,1.010892,52.0275,100.6425,24.99
730,280421,2.7833080000000003,-0.843508,0.62098,72.1525,117.5825,65.065
731,280519,2.4622040000000003,-0.8508280999999999,0.5016641,65.5375,117.18,97.965
732,280617,0.18788,-0.544852,-4.420792,44.415,82.46,139.265
733,280715,-4.368576,-0.919392,-0.34648,-96.145,176.96,148.61
734,280814,3.5902160000000003,1.400316,0.7361481,-243.0225,366.6775,165.095
735,280912,2.097424,1.2017,-0.48922,-103.355,312.655,177.17
736,281010,1.355176,1.633824,-0.7881199999999999,-41.5975,280.8925,114.555
737,281108,1.480836,1.253184,-0.47775200000000007,-6.2475,274.225,104.755
738,281206,1.679452,-0.015128,-0.288164,27.2125,258.3175,109.7075
739,281304,2.7703759999999997,0.051972000000000004,-3.269844,27.615,224.35,58.2575
740,281402,3.21104,0.9818561,-0.26596,58.2575,92.365,-24.3775
741,281500,0.8547319999999999,0.8625401,-0.9906401,75.95,77.98,26.0925
742,281598,1.5847799999999999,-0.24644000000000002,-0.670024,90.09000999999999,40.5475,54.9675
743,281697,0.9394,0.374052,-0.6375721,71.47,-6.7375,67.6725
744,281795,0.8669319999999999,0.1342,-0.644892,50.8725,-14.2975,61.565
745,281893,0.7600600000000001,0.2867,-0.613904,41.685,-13.16,51.1875
746,281991,0.763476,0.195932,-0.6653880999999999,38.115,-10.8675,42.2975
747,282089,0.7473721,0.196176,-0.657824,35.3675,-8.89,35.77
748,282187,0.75274,0.195444,-0.6566041,31.1325,-5.6,28.3325
749,282285,0.7417600000000001,0.19642,-0.655384,27.265,-0.91,23.1
750,282383,0.748104,0.19959200000000002,-0.6453800000000001,22.89,3.6575,17.9375
751,282481,0.74908,0.18544000000000002,-0.658068,18.6025,7.105,13.1075
752,282579,0.7515201,0.19764,-0.659776,14.805,8.33,8.015
753,282678,0.748592,0.205448,-0.6539201,12.4775,8.225,4.1125
754,282776,0.7407841,0.211792,-0.648552,11.6025,6.8425,1.435
755,282874,0.73444,0.24082800000000001,-0.6563601,10.955,3.92,-0.4025
756,282972,0.7332201,0.25376,-0.652944,10.5175,0.6825,-1.295
757,283070,0.725168,0.262056,-0.658556,10.0625,-2.8175,-1.26
758,283168,0.7227279999999999,0.24936799999999998,-0.6563601,9.7125,-5.95,-0.4725
759,283266,0.7176041,0.2623,-0.649284,9.1525,-7.8925,0.9975
760,283364,0.7237041,0.266448,-0.6497721,9.0475,-9.8175,3.29
761,283463,0.72224,0.24888000000000002,-0.631228,9.6425,-11.725,6.3175
762,283561,0.7105279999999999,0.232044,-0.6539201,9.205,-13.755,9.2225
763,283659,0.71614,0.19764,-0.66368,9.24,-14.8575,11.1125
764,283757,0.7190681,0.164944,-0.648552,8.3475,-14.035,11.0425
765,283855,0.71492,0.182268,-0.653188,6.09,-11.3925,8.9075
766,283953,0.7229720000000001,0.18470799999999998,-0.649284,4.76,-8.3125,7.735
767,284051,0.706624,0.179828,-0.653188,3.605,-4.655,7.665
768,284149,0.705892,0.203984,-0.656848,2.5375,2.31,8.8375
769,284248,0.711504,0.190564,-0.6502600000000001,2.275,10.605,11.4625
770,284346,0.71492,0.211548,-0.6409881,1.8375,17.1675,13.8425
771,284444,0.720532,0.23668000000000003,-0.6505041,1.085,21.805,17.78
772,284542,0.7449321,0.189344,-0.673928,0.4025,25.8125,24.22
773,284640,0.685396,0.10321199999999998,-0.6802720999999999,-0.0175,31.395,26.7925
774,284738,0.7105279999999999,0.151036,-0.6958880000000001,-3.8675,41.2825,23.87
775,284836,0.687348,0.14688800000000002,-0.738588,-6.72,52.0625,22.4
776,284934,0.7700640999999999,0.159332,-0.729316,-5.25,64.05,21.2625
777,285032,0.79178,0.182268,-0.761524,-5.4425,79.73001,23.975
778,285131,0.8149601,0.16689600000000002,-0.783972,-2.9225,97.3175,28.5425
779,285229,0.8342360000000001,0.18788,-0.7510321,-0.07,122.4475,32.55
780,285327,0.7300479999999999,0.200812,-0.8788879999999999,-4.4275,155.89,35.9975
781,285425,0.9725841000000001,0.188124,-0.7095520000000001,-6.055,187.355,44.3975
782,285523,0.574864,0.100284,-0.93086,-13.0375,238.035,50.9075
783,285621,1.230492,0.153232,-0.5795,-19.3725,266.7,60.4275
784,285719,0.9616040000000001,0.088328,-1.084824,-31.4125,350.875,64.505
785,285817,1.059692,0.36356,-0.8874280999999999,-17.01,482.055,61.11
786,285916,0.81252,0.5489999999999999,-1.006988,-7.175,563.4475,73.675
787,286014,1.134356,0.830576,-1.506944,-25.865,573.3875,110.3375
788,286112,1.178032,0.682956,-1.233908,-15.0325,573.405,175.0
789,286210,1.7809560000000002,-0.063196,-0.18788,27.755,573.405,227.1675
790,286308,3.053416,0.56608,0.132736,22.89,573.405,201.1275
791,286406,2.4461,0.2806,0.025863999999999998,-10.99,550.55,143.815
792,286504,1.9883560000000002,0.32818,-0.659532,-36.89,432.8975,89.4075
793,286602,1.5852680000000001,1.0589600000000001,-1.0687200000000001,-65.22251,295.82,4.3925
794,286700,3.5406839999999997,1.33346,-1.256356,-137.2525,148.3125,-31.7275
795,286799,6.750748,0.6439159999999999,-2.37534,-192.71,158.0775,9.485
796,286897,2.030812,1.753384,-4.091880000000001,-181.615,77.455,138.635
797,286995,1.966884,1.83244,-3.095384,-171.8675,-118.3525,82.8275
798,287093,0.916464,1.723128,-2.5110040000000002,-113.645,-231.49,59.2025
799,287191,0.398452,1.519144,-1.886364,-55.7375,-273.4375,31.2375
800,287289,0.317932,1.351272,-1.617232,-13.2475,-281.505,3.9725
801,287387,0.488,1.1636360000000001,-1.513776,10.7625,-288.225,-32.3925
802,287485,0.655384,0.974292,-1.408368,22.505,-308.9975,-75.6875
803,287584,0.8188641,0.763476,-1.278316,26.39,-341.18,-115.4475
804,287682,0.8708360999999999,0.542412,-1.095804,26.355,-375.655,-145.495
805,287780,0.8820601,0.334524,-0.9118280000000001,24.185,-404.005,-162.1375
806,287878,0.8581479999999999,0.17934,-0.7515201,18.7425,-421.68,-166.075
807,287976,0.8291120999999999,0.043432,-0.6080479999999999,11.9175,-428.6975,-161.35
808,288074,0.8483879999999999,-0.018056,-0.5392399999999999,2.03,-424.9875,-151.9525
809,288172,0.9267120000000001,-0.027327999999999998,-0.547292,-9.3975,-413.385,-140.4725
810,288270,1.067256,0.000488,-0.60634,-19.845,-398.23,-129.08
811,288368,1.225368,0.04514,-0.6919841,-29.68,-384.615,-118.755
812,288467,1.386164,0.11712,-0.7895840999999999,-40.8275,-375.7075,-110.95
813,288565,1.5262200000000001,0.20788800000000002,-0.8632719999999999,-53.9175,-370.7375,-107.5025
814,288663,1.6357760000000001,0.2928,-0.892064,-69.66751,-367.78,-110.215
815,288761,1.899052,0.382836,-1.030168,-91.2275,-362.6175,-119.98
816,288859,2.256512,0.570472,-1.2153639999999999,-111.44,-357.84,-133.42
817,288957,2.4207240000000003,0.657824,-1.188036,-121.8175,-359.1175,-145.7925
818,289055,2.583472,0.741272,-0.9943001,-126.21,-357.3325,-157.64
819,289153,2.7181599999999997,0.7944641,-0.6453800000000001,-127.3125,-347.97,-169.9075
820,289251,3.012912,0.975024,0.100772,-122.6575,-326.9175,-187.9675
821,289350,3.5558120000000004,1.185352,0.8400921,-100.695,-266.4725,-200.1825
822,289448,3.4269800000000004,0.7237041,0.329888,-62.0025,-226.2925,-231.77
823,289546,3.171024,0.4697,0.537288,-33.32,-230.1775,-271.4425
824,289644,2.751832,0.048556,1.092144,-5.6175,-209.4925,-294.105
825,289742,2.875296,-0.44505600000000006,1.1995040000000001,23.345,-160.1075,-292.4075
826,289840,3.083916,-0.640744,1.1953559999999999,54.11,-123.2875,-281.715
827,289938,3.4042879999999998,-0.9857600000000001,1.5738,84.42,-105.77,-250.635
828,290036,3.139548,-1.551596,2.336056,92.82001,-101.4125,-195.685
829,290134,2.4817240000000003,-1.95688,3.036336,59.57,-80.29,-132.755
830,290233,2.3663119999999997,-1.6906759999999998,2.7877,-13.02,-20.4225,-74.8125
831,290331,2.74744,-0.8579041,1.86782,-73.115,43.5925,-27.125
832,290429,2.961184,0.21716,1.231956,-75.6175,78.7325,12.3375
833,290527,-0.017324000000000003,0.22057600000000002,0.349164,59.675,168.98,73.535
834,290625,-2.309948,-1.310036,-1.312232,135.03,319.6725,92.365
835,290723,3.172976,0.5697399999999999,0.172996,-20.65,444.535,44.8175
836,290821,2.760128,-0.11760799999999999,-0.48214399999999996,24.78,395.36,66.1675
837,290919,2.166476,-0.7795801,-1.217316,67.8125,349.09,62.23
838,291018,2.428776,-1.589904,-1.2688,35.42,310.03,87.3075
839,291116,0.9589200999999999,1.796572,-2.48148,-8.6625,242.13,127.9075
840,291214,3.936696,1.7870560000000002,-1.330532,63.0175,136.7275,-18.3925
841,291312,2.566392,-0.18251199999999998,-0.19959200000000002,161.455,87.4125,44.6075
842,291410,0.865468,0.6158561,-1.140212,55.6325,65.59,58.8
843,291508,0.9860040999999999,0.415288,-0.557052,97.7025,38.465,76.09000999999999
844,291606,1.169736,0.13761600000000002,-0.719312,83.87751,0.2975,77.40250999999999
845,291704,0.8976761000000001,0.184952,-0.5873079999999999,65.0825,-15.89,80.2375
846,291802,0.75762,0.280844,-0.6263479999999999,37.9225,-23.135,72.135
847,291901,0.791292,0.104432,-0.658312,39.2175,-19.4425,60.9
848,291999,0.743712,0.167384,-0.6600201,33.04,-16.2925,45.5
849,292097,0.749568,0.17934,-0.6563601,27.475,-11.4275,32.865
850,292195,0.75762,0.17128800000000002,-0.6649,24.3425,-5.95,25.4625
851,292293,0.7605481,0.171044,-0.6663640000000001,20.475,0.6475,19.3025
852,292391,0.7539600000000001,0.151036,-0.676856,16.9225,5.6525,13.86
853,292489,0.7522521,0.180072,-0.674172,14.0875,8.4525,8.0675
854,292587,0.7417600000000001,0.209108,-0.666608,12.18,8.575,3.85
855,292685,0.729804,0.23472800000000002,-0.656848,11.4275,6.8075,1.7675
856,292784,0.728096,0.247416,-0.659288,10.5,3.6925,0.8925
857,292882,0.738588,0.2623,-0.6573359999999999,9.8525,0.2625,0.7
858,292980,0.7356600000000001,0.290116,-0.6514800000000001,8.785,-3.045,1.8375
859,293078,0.726876,0.296704,-0.6502600000000001,8.8725,-7.0875,5.775
860,293176,0.7259001,0.301584,-0.647332,9.695,-10.7275,11.3925
861,293274,0.737124,0.279868,-0.6405,10.465,-13.93,18.025
862,293372,0.7229720000000001,0.24351199999999998,-0.664412,10.2025,-16.485,23.7825
863,293470,0.71858,0.188124,-0.676612,9.6425,-19.0575,25.795
864,293568,0.707356,0.139568,-0.6673399999999999,7.6125,-19.8975,23.7825
865,293666,0.6785640000000001,0.130296,-0.667828,5.355,-17.045,19.25
866,293765,0.7032079999999999,0.1952,-0.673196,4.3575,-11.34,15.575
867,293863,0.70394,0.19251600000000002,-0.667828,4.375,-5.355,16.3975
868,293961,0.7168720000000001,0.202276,-0.659532,3.29,-0.49,18.1475
869,294059,0.7139439999999999,0.20861999999999997,-0.6602640000000001,2.5375,3.71,20.3525
870,294157,0.7015,0.1769,-0.663192,2.38,8.6625,23.7475
871,294255,0.7019880000000001,0.1769,-0.6649,2.1,14.945,26.005
872,294353,0.7283400999999999,0.180316,-0.671488,1.4,20.7025,27.86
873,294451,0.6724640000000001,0.11394800000000001,-0.679784,0.665,29.12,29.3825
874,294549,0.7134560999999999,0.1464,-0.669048,-2.3975,41.0025,27.7725
875,294648,0.6836880999999999,0.10394400000000001,-0.692472,-5.11,49.42,26.8275
876,294746,0.6851520999999999,0.09589201,-0.7134560999999999,-6.335,58.205,22.4175
877,294844,0.725412,0.12468399999999999,-0.726388,-6.195,68.5125,17.2725
878,294942,0.7483479999999999,0.149084,-0.7515201,-6.335,82.1275,17.185
879,295040,0.7895840999999999,0.1647,-0.763476,-5.3375,97.4225,21.105
880,295138,0.823256,0.15201199999999998,-0.759328,-2.2575,112.77,27.51
881,295236,0.8479,0.12980799999999998,-0.712236,0.6125,134.61,33.635
882,295334,0.792756,0.11955999999999999,-0.773724,-4.4275,167.5275,35.875
883,295432,0.9298841,0.157868,-0.7044279999999999,-10.9025,206.7625,37.7125
884,295530,0.66856,0.08759601,-0.797636,-21.5075,259.1575,42.77
885,295629,1.034804,0.122976,-0.744688,-35.9975,300.2825,52.29
886,295727,0.8620521000000001,0.083204,-1.0467600000000001,-39.515,387.065,56.98
887,295825,0.7241920000000001,0.291824,-0.863028,-24.5,517.72,56.28
888,295923,0.7612800999999999,0.819108,-1.190232,-26.215,571.2874,67.2875
889,296021,0.686128,0.772992,-1.352492,-53.0075,573.405,115.6575
890,296119,1.1831559999999999,-0.025863999999999998,-0.7808001,-23.66,573.3875,182.14
891,296217,2.479772,-0.154452,-0.008296000999999999,1.19,573.405,179.62
892,296315,3.168096,0.8759601,0.30622,-6.685,571.9175,116.515
893,296414,2.317512,0.079544,-0.266692,-58.66,511.0525,41.3875
894,296512,1.508408,0.48873199999999994,-1.109956,-82.5825,367.9725,-39.305
895,296610,2.83528,1.5469600000000001,-1.3886040000000002,-115.15,216.1775,-80.71
896,296708,6.289832,0.8845,-2.799656,-181.72,50.9775,-30.1525
897,296806,2.410964,1.1028799999999999,-3.4362519999999996,-114.03,103.8975,116.165
898,296904,2.38266,1.275388,-3.487248,-120.3825,-88.30501,105.0
899,297002,1.151192,1.242692,-2.7181599999999997,-84.5425,-232.575,68.3725
900,297100,0.425048,1.086044,-1.908812,-60.865,-307.3175,39.55
901,297198,0.14884,0.978928,-1.511092,-35.21,-326.55,16.87
902,297296,0.194468,0.859368,-1.364692,-14.49,-324.975,-5.425
903,297395,0.374296,0.718092,-1.28344,4.025,-325.15,-33.5125
904,297493,0.5795,0.5604680000000001,-1.1977959999999999,19.46,-335.405,-61.705
905,297591,0.754692,0.386008,-1.111176,30.0825,-354.655,-84.28
906,297689,0.845216,0.22252800000000003,-1.000888,34.545,-378.1925,-98.385
907,297787,0.8447280999999999,0.082716,-0.877668,34.3875,-401.03,-102.97
908,297885,0.828624,-0.023180000000000003,-0.729072,29.785,-416.0275,-99.45251
909,297983,0.844972,-0.095648,-0.6351319999999999,20.615,-421.0325,-90.89499
910,298081,0.9391560999999999,-0.089304,-0.62952,6.8075,-417.4975,-81.76001
911,298179,1.098488,-0.033428,-0.684664,-7.4025,-409.5525,-72.415
912,298277,1.2939319999999999,0.044896,-0.778604,-21.28,-402.815,-64.47
913,298375,1.510116,0.1403,-0.8937719999999999,-35.105,-401.52,-59.57
914,298474,1.7338639999999998,0.233508,-0.9947881,-50.6275,-406.2975,-58.2925
915,298572,1.880996,0.331596,-1.029924,-68.79251,-416.29,-61.4775
916,298670,2.021784,0.454816,-1.078968,-89.6,-423.64,-69.7725
917,298768,2.293356,0.5897479999999999,-1.117764,-112.21,-424.095,-81.7075
918,298866,2.470012,0.692228,-1.017236,-134.7325,-421.2775,-100.3975
919,298964,2.690588,0.8788879999999999,-0.8042239999999999,-154.5775,-412.8775,-125.1075
920,299062,2.7713520000000003,1.199748,-0.461892,-155.715,-398.0025,-151.13
921,299160,2.906772,1.5311,-0.190564,-125.5975,-366.065,-177.8875
922,299258,3.053172,1.5889280000000001,0.090036,-63.77,-322.49,-206.71
923,299357,3.008276,1.2439120000000001,0.427976,2.3625,-282.52,-245.98
924,299455,2.899696,0.812276,0.716384,45.1675,-245.63,-294.56
925,299553,2.8909119999999997,0.487756,0.966484,65.765,-206.08,-338.3975
926,299651,2.80356,0.07222401,1.233176,83.37001,-161.63,-365.4875
927,299749,2.8538240000000004,-0.10906800000000001,1.49328,102.06,-114.135,-373.9575
928,299847,3.243248,-0.518256,1.7748560000000002,122.325,-73.36,-350.385
929,299945,3.2183599999999997,-1.079944,2.328736,120.4,-54.4775,-304.2375
930,300043,2.6071400000000002,-1.3729879999999999,2.730848,79.1175,-38.0975,-248.7625
931,300141,2.2069799999999997,-1.033828,2.4978279999999997,25.6725,6.6325,-196.2625
932,300240,2.233088,-0.376004,1.7624119999999999,2.94,71.6975,-149.3275
933,300338,2.356552,0.138104,0.9720960999999999,26.04,124.3375,-109.3575
934,300436,2.5122240000000002,0.772992,0.6422081000000001,67.1125,149.415,-85.48751
935,300534,-0.8796200000000001,-0.5077640999999999,-0.759084,110.075,206.2725,-40.18
936,300632,-3.4982279999999997,-2.333616,-0.30012,45.1325,360.85,-61.7925
937,300730,4.630632,1.140212,-0.132736,-131.88,471.7125,-130.1475
938,300828,2.78038,-0.616588,-0.485804,-35.5775,414.0675,-81.76001
939,300926,2.473184,-1.200968,-1.824632,-13.0025,365.3825,-61.285
940,301024,2.162084,-0.850584,-1.587952,-45.1675,293.16,62.02
941,301123,1.264652,1.024556,-0.32866799999999996,-83.5625,225.4175,131.7925
942,301221,1.19072,1.188036,-0.178608,-68.7575,217.805,114.87
943,301319,1.624064,1.492792,-2.620072,-28.035,194.5825,45.885
944,301417,2.8626080000000003,1.11264,-0.005856,65.7825,107.205,-34.1425
945,301515,1.873676,0.636352,-1.229516,59.2725,130.2525,-11.6025
946,301613,1.311256,0.219356,-0.633668,75.635,86.3975,47.565
947,301711,1.050908,0.525088,-0.8754719999999999,84.5775,17.2025,62.5975
948,301809,0.8720559999999999,0.10394400000000001,-0.57218,71.2075,-16.8525,65.5725
949,301907,0.726388,0.30988000000000004,-0.50142,47.6175,-23.4675,63.035
950,302005,0.682712,0.39161999999999997,-0.648308,33.8975,-17.78,58.4325
951,302104,0.6956439999999999,0.298412,-0.6505041,30.2575,-18.5675,56.9275
952,302202,0.8432639999999999,0.1891,-0.5838920999999999,32.2875,-18.48,51.625
953,302300,0.784216,0.1342,-0.6039,31.1675,-15.365,49.1225
954,302398,0.813008,0.138836,-0.6390359999999999,23.3625,-12.7575,44.7825
955,302496,0.790072,0.137372,-0.6810039999999999,20.5275,-7.665,41.9825
956,302594,0.7788480999999999,0.148596,-0.6736840000000001,16.94,-3.5875,36.75
957,302692,0.76494,0.162504,-0.6663640000000001,12.53,-2.5375,30.9925
958,302790,0.759084,0.161772,-0.669048,10.2025,-1.995,28.4725
959,302888,0.769576,0.158112,-0.670024,8.855,-0.9625,26.145
960,302987,0.758352,0.144204,-0.654408,8.0325,-0.7525,23.4325
961,303085,0.740296,0.167872,-0.662704,5.9675,0.315,21.1925
962,303183,0.734928,0.2196,-0.6661201,4.025,5.0925,21.2975
963,303281,0.744688,0.168848,-0.6688041,5.985,11.97,26.0575
964,303379,0.759572,0.1769,-0.671488,5.95,14.7875,26.845
965,303477,0.7366361,0.17055599999999999,-0.6688041,8.1725,16.8875,27.8425
966,303575,0.735416,0.044896,-0.6422081000000001,9.8175,21.385,27.6675
967,303673,0.751276,0.121512,-0.651968,5.005,26.11,22.155
968,303771,0.7324881,0.09516001,-0.638304,3.8675,30.66,18.48
969,303870,0.740052,0.09930800000000001,-0.628544,1.8025,34.545,15.505
970,303968,0.740296,0.10833599999999999,-0.6414761,0.63,38.1675,12.0925
971,304066,0.7556681,0.11028800000000001,-0.612684,0.5075,42.28,9.065
972,304164,0.7549359999999999,0.10638399999999999,-0.60268,-0.4025,44.31,7.105
973,304262,0.781776,0.112972,-0.59292,-1.47,45.1675,5.8975
974,304360,0.7944641,0.12053599999999999,-0.5958479999999999,-1.855,45.92,5.8275
975,304458,0.7869,0.13785999999999998,-0.60268,-1.8375,47.2675,7.28
976,304556,0.794708,0.133224,-0.6029241,-1.4525,48.895,9.4675
977,304654,0.79056,0.109556,-0.619272,-1.05,51.7825,11.9
978,304752,0.8103239999999999,0.068076,-0.612196,-0.63,56.455,13.4925
979,304850,0.759328,0.067588,-0.672708,-0.6475,63.35,13.9475
980,304949,0.7893399999999999,0.0732,-0.686616,-0.175,72.7475,14.1575
981,305047,0.83814,0.09784401,-0.694912,-0.245,86.7125,15.855
982,305145,0.772992,0.11834000000000001,-0.72712,-0.315,106.5225,19.7925
983,305243,1.1265479999999999,0.12712400000000001,-0.582916,-2.0125,133.3325,24.99
984,305341,0.49702799999999997,0.08052000000000001,-0.951844,-11.0075,201.0925,26.7925
985,305439,1.488888,0.221308,-0.61854,-16.415,236.7575,34.6675
986,305537,0.9337880999999999,0.08466801,-1.0384639999999998,-20.23,339.255,36.855
987,305635,0.8388721,0.26766799999999996,-0.9882001,-7.63,467.4075,36.855
988,305733,0.9806360000000001,0.543388,-1.2117040000000001,-14.8225,556.185,52.64
989,305831,0.8849879999999999,0.576328,-1.2700200000000001,-20.2125,573.3,93.485
990,305930,1.395924,0.413092,-0.968924,-6.2475,573.405,139.7025
991,306028,2.562,0.401136,-0.363804,65.555,573.405,200.8125
992,306126,2.3211720000000002,0.336964,-0.119072,130.3925,558.495,202.72
993,306224,2.255536,0.21008400000000002,-0.398452,167.4575,500.2725,197.4525
994,306322,1.43838,0.24034,-0.346968,183.8375,391.405,161.105
995,306420,1.4269120000000002,0.7442,-0.7564001,200.0075,258.055,84.98
996,306518,3.2922919999999998,1.537932,-1.158024,201.355,134.05,15.2075
997,306616,6.594588000000001,-0.45261999999999997,-1.908812,217.7,182.7175,12.7575
998,306714,2.525156,0.37698000000000004,-3.3445080000000003,154.21,35.2625,194.6875
999,306813,2.071072,0.6856399999999999,-2.108404,102.34,-157.745,178.6925
1000,306911,1.155584,0.964044,-1.46522,85.085,-261.205,204.8025
1001,307009,0.8508280999999999,1.235616,-0.981612,90.405,-295.645,218.33
1002,307107,0.760304,1.512556,-0.759084,99.47001,-306.1275,217.7
1003,307205,0.790072,1.7753439999999998,-0.7041841,114.835,-313.32,204.5225
1004,307303,0.885964,2.008852,-0.673196,141.575,-322.49,181.72
1005,307401,0.9264680000000001,2.149152,-0.612196,175.7875,-336.8575,155.61
1006,307499,0.9540401,2.221376,-0.493612,211.8025,-351.7325,126.6825
1007,307597,1.007232,2.247484,-0.35697199999999996,241.0625,-366.45,96.63501
1008,307695,1.0972680000000001,2.248704,-0.209352,259.875,-377.335,67.7075
1009,307794,1.17974,2.227964,-0.07417601,266.2275,-388.2725,42.07
1010,307892,1.199016,2.211616,0.069784,264.0925,-397.88,19.9675
1011,307990,1.192428,2.215032,0.207156,254.17,-402.6575,0.77
1012,308088,1.1472879999999999,2.2545599999999997,0.35087199999999996,237.125,-401.38,-17.4475
1013,308186,1.074576,2.2953080000000003,0.48726800000000003,213.78,-392.175,-37.66
1014,308285,1.092876,2.3650919999999998,0.525088,181.9475,-373.3625,-65.8175
1015,308382,1.2702639999999998,2.50588,0.424804,148.925,-349.1775,-100.555
1016,308480,1.500356,2.66814,0.27816,124.6,-331.5375,-136.1675
1017,308578,1.736304,2.785748,0.16226,113.1025,-324.1525,-171.6225
1018,308677,1.9807919999999999,2.833328,0.09711201,111.6675,-322.7,-208.3025
1019,308775,2.149152,2.749636,0.133956,112.77,-324.9225,-248.045
1020,308873,2.302384,2.608116,0.232044,108.535,-325.4475,-288.4525
1021,308971,2.4339,2.4870919999999996,0.330864,97.405,-318.71,-325.465
1022,309069,2.6461799999999998,2.39974,0.339404,81.4975,-305.2175,-356.4225
1023,309167,2.889448,2.374852,0.3416,73.43,-287.8925,-381.5175
1024,309265,3.0807439999999997,2.320928,0.358192,74.305,-273.35,-398.65
1025,309363,3.203232,2.2067360000000003,0.44944799999999996,85.155,-258.37,-410.6375
1026,309461,3.30254,2.017636,0.5948720000000001,96.93251,-242.0075,-420.0175
1027,309560,3.3123,1.782664,0.775676,102.97,-223.685,-430.675
1028,309658,3.1390599999999997,1.2907600000000001,1.029924,101.57,-201.4075,-447.9475
1029,309756,3.065128,1.2195120000000002,1.2256120000000001,87.81501,-165.8125,-480.515
1030,309854,3.158824,1.218292,1.470588,96.0225,-117.565,-496.685
1031,309952,3.198352,0.9652639999999999,1.828048,145.985,-61.005,-487.4625
1032,310050,3.20982,0.52582,2.120604,196.84,-5.3375,-469.56
1033,310148,3.271064,-0.06344,2.317024,217.8575,34.6325,-441.9975
1034,310246,3.191764,-0.5887720000000001,2.4095,194.11,63.14,-416.3075
1035,310345,3.053904,-0.7861680999999999,2.389004,142.5375,87.2725,-388.535
1036,310443,2.973872,-0.350628,1.861964,100.9925,122.815,-344.6625
1037,310541,2.368264,-0.376248,3.27082,157.3775,218.2775,-265.51
1038,310639,2.3772919999999997,-0.85034,0.534116,216.58,346.115,-234.9375
1039,310737,1.8919759999999999,-2.020808,-2.007632,166.8975,355.9675,-236.215
1040,310835,2.167696,-2.0417919999999996,-0.39479200000000003,78.05,330.05,-255.92
1041,310933,3.236416,-2.434388,-1.057008,-2.065,309.82,-210.6825
1042,311031,2.073024,-4.412252,-2.7142560000000002,-14.945,264.915,9.275
1043,311129,1.569408,-0.151036,-0.8759601,-132.2475,171.955,92.925
1044,311228,1.038952,0.3599,-2.133536,-170.9925,130.2175,81.18251
1045,311326,2.879932,4.0911480000000005,0.8647360000000001,-92.90751,54.985,-56.105
1046,311424,1.60186,1.012844,-1.0377319999999999,55.125,70.28,-90.055
1047,311522,0.918416,-0.059048,-0.620736,67.3575,43.3475,-20.3525
1048,311620,0.482876,1.491816,-0.462624,86.1,33.845,62.16
1049,311718,0.8788879999999999,0.579256,-0.696132,77.0525,24.675,51.31
1050,311816,0.74664,0.5063,-0.630252,80.325,13.58,60.515
1051,311914,0.8671761,0.27694,-0.691496,79.87,8.1375,72.135
1052,312012,0.777384,0.21716,-0.689056,67.13,0.7175,73.4125
1053,312111,0.805932,0.303048,-0.58804,53.305,-4.6375,72.3625
1054,312209,0.8071520000000001,0.231068,-0.686372,36.0675,-3.325,74.4625
1055,312307,0.7832399999999999,0.20496,-0.676856,19.88,-4.795,75.9675
1056,312405,0.774212,0.169336,-0.691008,10.885,-5.3725,73.885
1057,312503,0.781776,0.171776,-0.693204,6.475,-8.2075,69.51
1058,312601,0.76982,0.142984,-0.686372,5.9325,-11.165,63.455
1059,312699,0.761524,0.118584,-0.687592,6.3175,-13.2125,56.805
1060,312797,0.746152,0.114924,-0.6729520999999999,8.7325,-14.4725,49.5425
1061,312896,0.729804,0.131272,-0.674416,10.7275,-15.0675,42.5425
1062,312994,0.727364,0.141764,-0.677832,12.3025,-15.3475,37.7125
1063,313092,0.721996,0.127856,-0.671732,17.57,-13.72,34.8425
1064,313190,0.6958880000000001,0.130052,-0.663924,22.8025,-11.9175,31.955
1065,313288,0.6373281,0.149572,-0.6512359999999999,20.9125,-10.85,29.0325
1066,313386,0.624396,0.143716,-0.653676,16.5725,-9.6775,25.76
1067,313484,0.6480640000000001,0.125416,-0.639524,11.4275,-6.0725,23.2925
1068,313582,0.631228,0.130296,-0.637084,9.0825,-0.6475,20.2825
1069,313681,0.6893,0.11321600000000001,-0.645868,10.22,4.48,14.7875
1070,313779,0.708332,0.116388,-0.6763680000000001,10.955,6.02,11.2875
1071,313877,0.742004,0.09735601,-0.6566041,11.865,2.765,9.905
1072,313975,0.7478600000000001,0.105652,-0.68198,11.9525,-1.3475,9.52
1073,314073,0.7564001,0.138104,-0.674416,11.445,-5.95,10.1325
1074,314171,0.773724,0.111996,-0.6822239999999999,11.8825,-9.415,12.5475
1075,314269,0.81862,0.07222401,-0.65514,11.795,-12.1275,14.49
1076,314367,0.7766521,0.081984,-0.679296,13.37,-11.41,16.905
1077,314465,0.750788,0.104676,-0.6885680999999999,12.74,-10.745,14.6475
1078,314564,0.730292,0.082716,-0.7095520000000001,12.3375,-8.645,11.2
1079,314662,0.743468,0.19885999999999998,-0.742492,14.2275,-3.605,8.085
1080,314760,0.7078439999999999,0.142252,-0.771528,10.6925,6.3875,10.1675
1081,314858,0.753228,0.108824,-0.7549359999999999,16.0825,23.275,14.8925
1082,314956,0.734684,0.017324000000000003,-0.740052,22.155,39.935,16.275
1083,315054,0.6946681,0.000732,-0.73688,25.025,53.5325,15.505
1084,315152,0.702232,0.022448,-0.774944,18.8475,72.0825,12.145
1085,315251,0.72712,0.092964,-0.798124,20.9475,98.98001,10.29
1086,315349,0.690764,0.066856,-0.772016,21.4375,128.415,11.3575
1087,315447,0.615368,0.18178,-0.8493641,21.8575,157.5875,14.3675
1088,315545,0.755912,0.10516400000000001,-0.8230120999999999,23.695,181.7025,17.885
1089,315643,0.70516,0.1525,-0.8425321,25.7425,204.2425,26.565
1090,315741,0.70638,0.083936,-0.8420440999999999,26.9675,221.83,35.1575
1091,315839,0.6885680999999999,0.056608000000000006,-0.8935280999999999,26.005,243.25,44.3975
1092,315937,1.16266,0.091988,-0.667828,18.3925,274.8725,63.385
1093,316036,1.0467600000000001,0.09125599999999999,-1.0979999999999999,12.8625,375.9525,95.445
1094,316134,1.070916,0.319396,-1.192184,37.835,512.785,108.605
1095,316232,1.19926,1.073844,-0.9386681,55.9475,571.83,119.595
1096,316330,2.059116,0.966484,-1.039684,88.7775,573.405,204.89
1097,316428,2.583228,1.331508,-1.1746159999999999,152.3375,560.455,314.615
1098,316526,2.318,0.541924,-0.6068279999999999,206.6575,479.5525,379.4
1099,316624,1.694092,0.7134560999999999,-0.17738800000000002,178.5,382.2525,346.36
1100,316722,1.548424,1.000644,-0.975024,95.2,252.455,245.455
1101,316820,2.941908,0.9323239999999999,-1.6448040000000002,25.445,209.825,86.24
1102,316919,3.5319,2.128168,-2.2530959999999998,70.4375,264.88,-5.5475
1103,317017,1.9659080000000002,2.8552880000000003,-3.360124,196.735,175.91,110.39
1104,317115,1.8541560000000001,2.473184,-2.966064,232.295,8.12,34.2825
1105,317213,0.9325680000000001,1.83122,-2.549068,267.82,-102.2,-41.7025
1106,317311,0.467504,1.14924,-2.079368,268.2575,-150.185,-82.4075
1107,317409,0.424804,0.7449321,-1.898564,237.195,-163.6425,-97.3875
1108,317507,0.687348,0.57218,-1.911984,184.2925,-188.09,-107.9225
1109,317605,0.8364321,0.5429,-1.866844,130.1825,-235.41,-114.905
1110,317703,0.8569280999999999,0.532652,-1.702632,91.3325,-290.36,-116.06
1111,317802,0.8044680999999999,0.5219159999999999,-1.461804,69.86,-338.1175,-110.9325
1112,317900,0.7659161,0.503128,-1.232932,58.1,-370.8075,-101.6225
1113,317998,0.8256960999999999,0.47775200000000007,-1.018944,49.525,-389.165,-93.1
1114,318096,0.8674200000000001,0.440176,-0.8239880999999999,40.705,-397.81,-87.90250999999999
1115,318194,0.9528200000000001,0.40504,-0.7068681,26.1975,-399.4375,-85.83751
1116,318292,1.0943399999999999,0.419192,-0.66368,6.79,-396.8825,-87.4825
1117,318390,1.1916959999999999,0.456524,-0.6392800000000001,-13.965,-392.9275,-92.34751
1118,318488,1.279292,0.5219159999999999,-0.62098,-31.0625,-387.1,-97.79
1119,318586,1.36152,0.586576,-0.6019479999999999,-44.73,-380.0825,-102.0425
1120,318684,1.423252,0.6612401,-0.588284,-56.9975,-370.6325,-106.75
1121,318782,1.46156,0.7407841,-0.58804,-68.81,-358.26,-114.0475
1122,318881,1.5967360000000002,0.869616,-0.6753920999999999,-82.635,-342.4575,-124.9675
1123,318979,1.897832,1.028948,-0.8693719999999999,-94.22,-326.13,-139.755
1124,319077,2.223816,1.098732,-0.995764,-101.4475,-316.5225,-162.7675
1125,319175,2.440976,1.009916,-0.8796200000000001,-110.04,-318.29,-195.2125
1126,319273,2.501732,0.9379360000000001,-0.59536,-116.5675,-318.29,-233.9225
1127,319371,2.670092,0.9389120000000001,-0.33061999999999997,-111.93,-301.5425,-266.875
1128,319469,2.989,0.8949921000000001,-0.134932,-84.91,-269.465,-287.4025
1129,319567,3.291072,0.61732,0.100772,-37.5725,-235.585,-297.3075
1130,319665,3.4321040000000003,-0.06929600000000001,0.38356799999999996,7.805,-208.39,-299.39
1131,319763,3.555568,-0.7612800999999999,0.559248,25.3575,-187.95,-295.1025
1132,319862,3.5506879999999996,-1.036512,0.863516,23.73,-185.0275,-269.4825
1133,319960,3.421124,-0.9945440000000001,1.29808,41.615,-180.5475,-217.875
1134,320058,3.124908,-1.0643280000000002,1.795596,71.505,-168.56,-149.94
1135,320156,2.839916,-1.3205280000000001,2.352404,75.0925,-143.85,-92.155
1136,320254,2.437072,-1.549644,2.8914,29.4,-103.3025,-55.8425
1137,320352,2.514908,-1.21024,2.650572,-46.9175,-48.5975,-33.81
1138,320450,2.748904,-0.674172,1.9244279999999998,-96.42501,-2.9575,-14.42
1139,320548,3.29034,0.7598161,1.7345959999999998,-79.2575,45.0975,24.22
1140,320646,-0.779092,-0.8781559999999999,1.853668,41.2825,226.275,93.8875
1141,320744,-0.389424,-0.225456,-2.894084,0.245,386.96,111.125
1142,320843,4.588908,0.22448,-0.321592,-50.505,375.8475,141.925
1143,320941,1.691652,-0.585112,-0.9867360999999999,47.4425,281.435,208.4425
1144,321039,2.737924,0.410896,-1.2902719999999999,5.145,277.0425,159.6
1145,321137,1.802184,0.643184,-0.464088,4.0775,217.77,149.52
1146,321235,2.786724,-0.08881599,-1.5845360000000002,-4.1825,177.345,91.6475
1147,321333,1.78608,1.016016,-1.341756,23.7475,93.345,39.1475
1148,321431,1.0553,0.919636,-0.376004,60.7075,52.22,25.725
1149,321529,0.814472,0.533628,-0.9108521,79.38,72.1175,78.68
1150,321627,1.646268,0.278404,-0.9198799999999999,109.1125,39.69,87.7275
1151,321725,0.861808,0.20788800000000002,-0.5936520000000001,106.82,-1.7675,90.35251
1152,321824,0.9137799999999999,0.253272,-0.6290319999999999,80.5875,-12.7925,79.7475
1153,321922,0.8300879999999999,0.090768,-0.623908,65.695,-14.2275,70.8225
1154,322020,0.800564,0.08417999999999999,-0.6729520999999999,50.995,-9.03,56.385
1155,322118,0.787632,0.17446,-0.669292,39.69,-1.1375,40.18
1156,322216,0.79178,0.1342,-0.683932,34.1075,4.165,29.995
1157,322314,0.7822640000000001,0.134444,-0.6883239999999999,28.9975,5.5825,22.82
1158,322412,0.758108,0.104676,-0.678808,24.57,6.685,15.96
1159,322510,0.742492,0.121512,-0.6771,19.8275,8.26,9.485
1160,322608,0.732244,0.168604,-0.661484,15.6975,9.275,3.5175
1161,322706,0.7139439999999999,0.22643200000000002,-0.668316,12.1975,7.4375,-0.525
1162,322805,0.7195560000000001,0.256444,-0.6566041,9.765,4.305,-2.8175
1163,322903,0.7195560000000001,0.27694,-0.642452,7.805,1.5925,-3.3425
1164,323001,0.7129681,0.277916,-0.6470880999999999,6.2825,-1.785,-2.695
1165,323099,0.7168720000000001,0.271816,-0.640012,5.285,-5.25,-1.225
1166,323197,0.7032079999999999,0.29133600000000004,-0.644648,5.215,-8.3125,1.2775
1167,323295,0.709796,0.293532,-0.6348881,7.385,-12.355,5.6525
1168,323393,0.718092,0.251076,-0.6502600000000001,10.2375,-16.73,11.025
1169,323491,0.7373681,0.164456,-0.6512359999999999,12.0225,-20.8075,15.68
1170,323589,0.7134560999999999,0.116388,-0.676612,10.71,-21.245,18.375
1171,323687,0.6885680999999999,0.050263999999999996,-0.686616,7.9275,-19.67,15.3825
1172,323786,0.694912,0.059048,-0.6790520999999999,4.2525,-14.1925,8.2075
1173,323884,0.713212,0.151524,-0.667828,0.805,-5.145,2.2575
1174,323982,0.705892,0.194224,-0.678808,-0.525,3.4125,1.4
1175,324080,0.718092,0.258884,-0.6802720999999999,-1.9775,11.5675,5.915
1176,324178,0.71614,0.319884,-0.8400921,-5.915,22.365,13.615
1177,324276,0.692228,0.159576,-0.6480640000000001,-5.6875,38.57,22.05
1178,324374,0.732244,0.20691199999999998,-0.708576,-10.01,55.1075,27.3875
1179,324472,0.711992,0.134932,-0.707112,-10.815,69.2825,33.9675
1180,324570,0.726144,0.121024,-0.66978,-14.0875,82.67,36.61
1181,324668,0.7190681,0.1037,-0.6895439999999999,-17.3775,94.15,35.875
1182,324767,0.7141881,0.09052401,-0.742492,-16.4325,105.49,32.235
1183,324865,0.7883640000000001,0.12468399999999999,-0.776408,-10.78,117.0925,27.79
1184,324963,0.775188,0.162748,-0.8066641,-8.4875,129.9725,29.435
1185,325061,0.792512,0.166652,-0.7759199999999999,-5.3025,148.295,36.4525
1186,325159,0.7954399999999999,0.169336,-0.813984,-6.37,172.585,45.5
1187,325257,1.073356,0.189344,-0.6307401,-9.9225,205.59,55.7725
1188,325355,0.5158159999999999,0.048556,-0.9437921,-21.2275,262.325,65.31
1189,325453,1.149728,0.235948,-0.8801081000000001,-34.335,309.8025,75.9325
1190,325551,0.9086559999999999,0.26596,-1.123376,-24.745,440.9825,78.435
1191,325650,0.730536,0.46042799999999995,-1.040416,4.7775,551.6525,89.88
1192,325748,0.9230520000000001,0.773724,-1.443016,-16.2225,573.3875,121.275
1193,325846,0.773724,0.297192,-1.460584,-19.7925,573.405,173.67
1194,325944,1.770464,-0.23911999999999997,-0.30402399999999996,17.7275,573.3875,189.42
1195,326042,3.9598760000000004,0.844484,0.08100801,29.82,573.405,157.8325
1196,326140,2.4026680000000002,0.238144,0.275476,-13.93,567.385,86.7825
1197,326238,2.182092,0.158356,-0.921344,-38.115,449.4875,24.29
1198,326336,2.001044,1.43716,-1.2780719999999999,-48.3,272.405,-67.3225
1199,326434,4.959788,0.759084,-1.883436,-107.52,137.2875,-72.205
1200,326532,5.425828,0.656848,-2.1718439999999997,-158.585,227.815,81.4975
1201,326631,2.597624,1.7021439999999999,-3.99916,-218.435,52.325,160.825
1202,326729,1.9712759999999998,2.068876,-3.310104,-189.9275,-131.8625,100.6425
1203,326827,0.934276,1.921988,-2.565904,-129.535,-242.795,72.3275
1204,326925,0.400648,1.635044,-2.0339840000000002,-55.1425,-270.865,41.51
1205,327023,0.40992,1.378112,-1.773636,-8.8025,-276.745,14.8925
1206,327121,0.5607121,1.11996,-1.619672,13.8075,-291.9525,-21.35
1207,327219,0.664412,0.876692,-1.434476,17.0975,-324.0125,-64.645
1208,327317,0.7468840999999999,0.6612401,-1.230004,11.2875,-361.97,-104.2475
1209,327415,0.791048,0.47946000000000005,-1.034316,1.225,-394.3975,-133.1575
1210,327514,0.791536,0.335988,-0.8481440999999998,-8.26,-417.7075,-151.1825
1211,327612,0.795928,0.225944,-0.6822239999999999,-15.4175,-429.8525,-158.095
1212,327710,0.791536,0.150792,-0.580476,-22.3825,-432.1625,-157.6925
1213,327808,0.8522921,0.126148,-0.548512,-28.5425,-425.985,-153.8775
1214,327906,0.9525761,0.130052,-0.601216,-33.145,-414.1375,-148.1025
1215,328004,1.1204479999999999,0.1647,-0.674416,-34.825,-400.785,-143.115
1216,328102,1.303448,0.20984,-0.7759199999999999,-34.7725,-391.3175,-138.215
1217,328200,1.494988,0.2257,-0.8827921000000001,-37.5725,-387.3625,-134.7675
1218,328299,1.701412,0.233752,-0.984296,-47.0575,-390.2675,-136.395
1219,328397,1.923452,0.25132,-1.105808,-64.27750999999999,-398.16,-142.2225
1220,328495,2.185264,0.318176,-1.247816,-88.02501,-407.785,-149.1
1221,328593,2.275056,0.22814,-1.145092,-111.09,-416.29,-158.6725
1222,328691,2.356064,0.159332,-0.960384,-137.3575,-413.1925,-172.8125
1223,328789,2.5817639999999997,0.152256,-0.781044,-166.495,-395.5,-184.1875
1224,328887,2.952156,0.345016,-0.632204,-184.975,-370.755,-189.3325
1225,328985,3.157848,0.524356,-0.34794400000000003,-178.43,-344.6275,-189.14
1226,329083,3.195912,0.5282600000000001,0.09125599999999999,-143.3425,-308.42,-192.465
1227,329181,3.30254,0.36502399999999996,0.529968,-96.4775,-262.045,-205.8875
1228,329280,3.3323080000000003,-0.144204,0.900848,-53.2175,-215.775,-229.25
1229,329378,3.409412,-0.5543680000000001,1.146068,-22.8375,-174.0725,-259.77
1230,329476,3.38794,-0.62098,1.4762,13.86,-145.6,-268.2575
1231,329574,3.3279160000000005,-0.743468,1.825852,86.6075,-115.0975,-231.6825
1232,329672,3.594364,-1.353956,2.07278,148.9075,-84.2625,-172.6375
1233,329770,3.161996,-1.724104,2.661552,142.7825,-70.2275,-124.775
1234,329868,2.634224,-1.621868,2.836744,91.4725,-42.4025,-87.1675
1235,329966,2.623488,-1.241716,2.1899,36.6975,13.6325,-51.9925
1236,330064,2.855532,-0.786412,1.297836,12.39,62.93,-21.7
1237,330163,2.750612,-0.7315119999999999,0.7129681,27.055,88.5675,13.475
1238,330261,1.009184,0.09711201,-2.134512,42.2975,97.8775,51.31
1239,330359,-3.01462,-0.6993041,-2.55346,84.7875,103.4075,89.46
1240,330457,-2.5693200000000003,-1.0887280000000001,0.376736,-124.2675,320.1275,142.1175
1241,330555,4.832664,1.135576,0.302072,-149.73,354.6025,187.2325
1242,330653,1.286124,0.8430200999999999,-0.9764879999999999,22.855,287.2275,222.915
1243,330751,1.5159719999999999,0.6405,-0.389424,25.8125,283.7275,151.865
1244,330849,1.428376,0.051484,-0.275476,37.0475,278.1975,165.97
1245,330947,2.612508,0.9833200000000001,-3.283264,33.7225,248.43,110.8625
1246,331046,3.887164,0.9564799999999999,-0.6453800000000001,103.8275,104.685,10.4125
1247,331144,1.530368,-0.06563601,-1.128744,144.935,55.51,75.7225
1248,331242,1.47864,0.000732,-0.627812,100.205,37.0125,73.6575
1249,331340,1.059204,0.122,-0.7166279999999999,95.725,0.7175,76.9825
1250,331438,0.755912,0.12980799999999998,-0.68198,64.8725,-3.5875,62.44
1251,331536,0.787144,0.22716399999999998,-0.6695361,48.58,-6.51,49.21
1252,331634,0.751276,0.15762400000000001,-0.6836880999999999,39.865,-4.725,36.995
1253,331732,0.7451760000000001,0.16104000000000002,-0.699792,31.045,-3.535,26.285
1254,331830,0.7373681,0.164456,-0.69052,23.94,-1.1375,16.2575
1255,331929,0.735416,0.1525,-0.681492,17.1325,1.8375,8.1375
1256,332027,0.73688,0.156648,-0.676856,10.0625,5.6,0.105
1257,332125,0.7327321,0.166164,-0.6736840000000001,3.15,8.8025,-7.6475
1258,332223,0.731024,0.181292,-0.674416,-2.695,11.095,-14.3675
1259,332321,0.725412,0.2074,-0.669048,-6.685,11.375,-19.39
1260,332419,0.72712,0.229848,-0.6675840000000001,-8.785,10.3775,-22.4525
1261,332517,0.7156520000000001,0.24351199999999998,-0.6646561,-9.2925,8.96,-23.3625
1262,332615,0.71126,0.26352,-0.668316,-8.0675,7.8925,-22.2075
1263,332713,0.7056479999999999,0.279868,-0.666608,-4.9,7.105,-18.305
1264,332812,0.7156520000000001,0.30256,-0.643428,-0.8575,6.72,-12.5825
1265,332910,0.711992,0.29987600000000003,-0.634156,2.695,5.5825,-6.1425
1266,333008,0.715408,0.29402,-0.645868,5.495,4.5325,0.2625
1267,333106,0.714432,0.259372,-0.6541640000000001,8.05,3.0625,5.705
1268,333204,0.720532,0.22204000000000002,-0.6512359999999999,9.0125,2.1175,8.33
1269,333302,0.725412,0.199348,-0.648796,8.505,1.855,8.435
1270,333400,0.72468,0.204716,-0.6502600000000001,8.6975,2.17,8.2775
1271,333498,0.735904,0.22082,-0.6390359999999999,9.8175,2.415,9.5025
1272,333596,0.734928,0.228384,-0.637084,10.3425,2.2225,11.3925
1273,333694,0.73932,0.33305999999999997,-0.6756361,6.58,1.75,12.635
1274,333793,0.715164,0.267912,-0.702232,2.695,5.1275,16.8
1275,333891,0.6832,0.178608,-0.615124,6.02,15.9425,25.27
1276,333989,0.7378560000000001,0.232044,-0.675148,6.0375,26.775,31.3075
1277,334087,0.71736,0.13151600000000002,-0.66856,5.53,31.9025,35.3325
1278,334185,0.71858,0.08442401,-0.659532,2.2225,36.925,34.055
1279,334283,0.756888,0.137128,-0.7032079999999999,-2.0475,44.135,28.63
1280,334381,0.734196,0.15762400000000001,-0.7417600000000001,-2.5725,50.6975,28.14
1281,334479,0.8361879999999999,0.22496799999999997,-0.7283400999999999,-0.7,60.9,31.1325
1282,334577,0.7771399999999999,0.203496,-0.7356600000000001,-5.565,83.405,33.6875
1283,334675,0.8459479999999999,0.223016,-0.7195560000000001,-12.845,109.1825,36.33
1284,334774,0.814472,0.191296,-0.7671359999999999,-22.19,140.5075,36.4875
1285,334872,0.785924,0.173484,-0.8371639999999999,-30.24,174.0375,38.885
1286,334970,0.754204,0.195444,-0.81862,-34.0025,215.46,45.9375
1287,335068,0.7993439999999999,0.121512,-0.813496,-44.4325,263.445,58.1175
1288,335166,0.8169121,0.142496,-0.956968,-49.5775,329.84,60.445
1289,335264,0.846924,0.22277199999999997,-1.003084,-20.6675,431.0075,56.455
1290,335362,0.8723001,0.583648,-1.067988,-14.0,539.735,55.6325
1291,335460,1.095316,0.701012,-1.557208,-48.0025,572.88,94.64
1292,335558,0.7320001,0.550952,-1.484008,-51.555,573.405,159.145
1293,335656,1.422032,-0.1281,-0.33305999999999997,3.01,573.405,209.79
1294,335755,2.967772,0.296948,-0.09516001,7.6475,573.405,177.17
1295,335853,3.044876,0.49166000000000004,0.172752,3.9375,568.575,116.83
1296,335951,2.3541119999999998,0.241804,-0.516792,-22.225,482.65,71.68
1297,336049,1.431792,1.017968,-1.1951120000000002,-33.74,341.4775,-12.6175
1298,336147,2.916288,1.592344,-1.476688,-70.5775,188.86,-29.96
1299,336245,7.536672,0.8271601000000001,-2.683024,-169.295,122.745,-5.11
1300,336343,1.9532200000000002,1.41764,-4.108472,-136.3425,141.96,146.0025
1301,336441,2.2069799999999997,1.610156,-3.25252,-158.235,-85.89,93.1875
1302,336539,1.108248,1.582096,-2.793556,-112.7875,-211.9775,64.6625
1303,336638,0.543388,1.436184,-2.0947400000000003,-69.09,-265.8775,41.3875
1304,336736,0.442616,1.294908,-1.8195080000000001,-32.6375,-282.2575,20.4225
1305,336834,0.570716,1.11996,-1.6567599999999998,-7.3325,-296.7475,-11.305
1306,336932,0.730536,0.91622,-1.508652,8.295,-322.035,-50.4525
1307,337030,0.9298841,0.71492,-1.3766479999999999,13.195,-356.6675,-86.32751
1308,337128,1.013088,0.5160600000000001,-1.170468,12.53,-396.48,-114.0475
1309,337226,1.0023520000000001,0.34892,-0.9262239999999999,9.1,-431.6025,-130.62
1310,337324,0.9567241,0.21374400000000002,-0.714676,2.975,-453.7575,-134.295
1311,337422,0.9125601000000001,0.114192,-0.550708,-4.97,-462.98,-130.1475
1312,337520,0.9250040999999999,0.074664,-0.471896,-14.91,-458.78,-123.375
1313,337619,0.9889319999999999,0.086132,-0.464088,-24.6225,-444.99,-116.0075
1314,337717,1.1150799999999998,0.14786400000000002,-0.5160600000000001,-31.78,-426.37,-108.6925
1315,337815,1.267092,0.237656,-0.592432,-35.5775,-408.905,-101.9025
1316,337913,1.400316,0.32403200000000004,-0.6558721,-39.1125,-395.9375,-97.405
1317,338011,1.539884,0.40211199999999997,-0.712724,-46.41,-386.8725,-97.965
1318,338109,1.661152,0.47384799999999994,-0.749324,-61.88,-380.0125,-105.91
1319,338207,1.8053560000000002,0.551928,-0.820084,-85.155,-371.4025,-121.835
1320,338305,2.0886400000000003,0.7166279999999999,-0.9540401,-109.1825,-358.435,-141.435
1321,338403,2.299212,0.822524,-0.9801479999999999,-123.725,-345.905,-160.685
1322,338502,2.628368,0.916464,-0.865468,-129.3075,-332.745,-179.4275
1323,338600,2.7664720000000003,0.9110959999999999,-0.484096,-125.475,-320.075,-200.2
1324,338698,2.7764759999999997,0.858392,-0.008296000999999999,-111.055,-296.9225,-226.31
1325,338796,2.93044,0.7439560000000001,0.302072,-84.98,-256.06,-250.2325
1326,338894,3.126616,0.49824799999999997,0.49898000000000003,-48.7725,-211.5225,-270.095
1327,338992,3.243736,0.166164,0.6734399999999999,-10.0275,-176.925,-283.395
1328,339090,3.305224,-0.449204,0.9015799999999999,28.0525,-152.6,-286.79
1329,339188,3.3013199999999996,-1.011624,1.0704280000000002,55.4225,-131.88,-282.3625
1330,339286,3.251788,-1.039196,1.305888,79.73001,-125.3525,-251.2125
1331,339385,3.336212,-1.24196,1.626016,122.8325,-117.0225,-180.3025
1332,339483,3.096604,-1.645048,2.1886799999999997,141.5925,-109.97,-105.0875
1333,339581,2.501244,-1.76778,2.690832,105.175,-95.55,-53.48
1334,339679,2.29848,-1.52134,2.553948,34.895,-47.95,-17.9025
1335,339777,2.610312,-0.9494040000000001,1.7094639999999999,-21.98,9.1175,9.695
1336,339875,2.723284,-0.634644,1.056032,-28.0875,43.645,38.22
1337,339973,3.036092,-0.105652,0.35624,-5.9325,65.43251,74.4625
1338,340071,0.027572000000000003,-0.646112,-1.4156879999999998,55.86,116.13,132.1075
1339,340169,-2.130852,-0.128588,-1.7707080000000002,-47.5125,240.625,141.295
1340,340268,2.9646,0.5690081,0.39528,-126.735,311.9025,197.855
1341,340366,1.89588,0.373564,-0.7473721,6.09,271.9325,260.5225
1342,340464,0.885476,0.9796600000000001,-0.850096,13.7025,250.8625,199.4825
1343,340562,2.140368,0.337208,-0.47994799999999993,13.7025,260.855,140.5075
1344,340660,2.737192,-0.560956,-1.653344,22.3475,237.9125,94.01
1345,340758,2.90238,1.3200399999999999,-1.462292,28.14,141.4525,40.88
1346,340856,1.5037719999999999,0.787632,-0.49117200000000005,95.48,61.3375,9.1875
1347,340954,0.9581881,-0.343552,-1.000156,98.9975,63.5775,51.905
1348,341053,1.902468,0.27205999999999997,-0.380152,95.9525,27.0725,65.9575
1349,341151,0.691008,0.20984,-0.846924,63.4725,-8.7325,64.12
1350,341249,0.7812880999999999,0.160064,-0.62464,49.035,0.7,46.0775
1351,341347,0.772016,0.186172,-0.695156,38.535,-2.03,33.5125
1352,341445,0.758352,0.16128399999999998,-0.676124,31.36,0.4725,22.05
1353,341543,0.7510321,0.189832,-0.6756361,23.975,1.8375,12.8275
1354,341641,0.754204,0.18324400000000002,-0.670024,16.9575,3.6575,6.0375
1355,341739,0.743468,0.17543599999999998,-0.677344,10.1675,5.705,0.245
1356,341837,0.749324,0.180316,-0.6695361,2.3625,8.19,-6.3175
1357,341935,0.762012,0.19983599999999999,-0.6946681,-4.7425,9.6425,-12.5125
1358,342033,0.740296,0.198372,-0.660996,-5.81,10.4825,-16.2925
1359,342132,0.7549359999999999,0.211548,-0.658312,-7.6125,9.38,-19.1625
1360,342230,0.7361481,0.216428,-0.6502600000000001,-7.4725,8.015,-20.44
1361,342328,0.732244,0.22033200000000003,-0.6558721,-7.0525,6.3875,-21.1225
1362,342426,0.72102,0.24278000000000002,-0.6497721,-4.83,4.9,-19.53
1363,342524,0.7232161,0.264984,-0.6517241,-1.4525,3.5,-16.415
1364,342622,0.7129681,0.264252,-0.6375721,2.31,2.2575,-12.1625
1365,342720,0.710284,0.27328,-0.6405,5.9325,0.945,-7.6825
1366,342818,0.711992,0.279868,-0.6378159999999999,9.6425,-0.07,-2.2225
1367,342916,0.7107720000000001,0.285968,-0.63562,12.915,-1.82,3.6225
1368,343015,0.7217521,0.24888000000000002,-0.643184,14.9975,-3.64,8.0325
1369,343113,0.721508,0.239364,-0.6566041,16.17,-6.195,10.57
1370,343211,0.734684,0.280844,-0.655628,18.76,-9.9925,14.595
1371,343309,0.745908,0.23911999999999997,-0.6326921,19.215,-13.9125,19.5825
1372,343407,0.738344,0.219356,-0.628544,16.2925,-15.9425,23.1175
1373,343506,0.731268,0.204228,-0.644404,14.0175,-15.82,24.3075
1374,343603,0.7259001,0.179828,-0.656116,12.8275,-14.1225,24.92
1375,343701,0.726388,0.16835999999999998,-0.642452,10.885,-10.115,24.885
1376,343800,0.7239479999999999,0.183976,-0.6497721,9.7475,-4.76,24.43
1377,343898,0.705404,0.15494000000000002,-0.649528,7.7525,-0.63,24.1325
1378,343996,0.6763680000000001,0.124196,-0.636596,4.935,4.13,22.505
1379,344094,0.679296,0.144204,-0.677344,-1.715,11.585,21.28
1380,344192,0.7237041,0.13151600000000002,-0.783972,-5.6525,23.6075,23.03
1381,344290,0.739564,0.209108,-0.749812,-3.885,39.06,27.9825
1382,344388,0.710284,0.139324,-0.7622561,-8.8725,52.29,29.1375
1383,344486,0.8030041,0.166408,-0.7664041,-7.105,66.675,32.025
1384,344584,0.8422879999999999,0.1586,-0.782508,-8.365,90.405,33.53
1385,344683,0.760304,0.135908,-0.8178880999999999,-12.355,121.66,32.4275
1386,344781,0.768356,0.164456,-0.798856,-13.79,156.2225,31.6225
1387,344879,0.8642481,0.149084,-0.797636,-20.5625,192.9375,35.56
1388,344977,0.765184,0.102968,-0.8532681000000001,-31.57,237.8775,39.655
1389,345075,0.7019880000000001,0.021472,-1.025288,-40.5125,291.6375,42.35
1390,345173,0.9982040000000001,0.23058,-1.036756,-34.37,355.7575,40.4075
1391,345271,0.704916,0.338428,-1.0589600000000001,-30.5725,472.675,37.3625
1392,345369,0.793488,0.679784,-1.140212,-38.7625,557.6025,52.605
1393,345467,0.5814520000000001,0.8169121,-1.378844,-57.015,573.405,100.135
1394,345566,0.539484,0.36112,-1.2578200000000002,-35.35,573.405,176.295
1395,345664,1.746552,0.10833599999999999,-0.284504,10.0625,573.405,217.49
1396,345762,2.833084,0.40748,-0.073688,30.38,573.405,190.785
1397,345860,2.686684,0.384788,-0.018544,37.135,560.28,153.16
1398,345958,2.112796,0.249856,-0.6170760000000001,12.4775,466.865,103.1275
1399,346056,1.438868,0.9825879999999999,-1.131184,1.33,334.145,22.715
1400,346154,2.928244,1.38714,-1.565992,-50.0675,195.2825,-13.02
1401,346252,7.389052,0.936716,-2.7059599999999997,-137.6725,121.0475,4.025
1402,346350,1.8751400000000003,1.3468799999999999,-4.2155879999999994,-98.7875,141.4525,132.8775
1403,346448,2.214544,1.485716,-3.32206,-116.0075,-74.2,81.41001
1404,346547,1.0492,1.40544,-2.709132,-82.5475,-205.695,60.025
1405,346645,0.470188,1.257576,-1.981524,-46.7075,-258.65,40.915
1406,346743,0.39113200000000004,1.138016,-1.6757919999999997,-20.7025,-275.555,24.045
1407,346841,0.518256,1.016504,-1.514752,-5.74,-288.68,-2.975
1408,346939,0.7139439999999999,0.900848,-1.4149559999999999,1.8725,-310.9925,-36.68
1409,347037,0.8954801,0.7564001,-1.314184,4.41,-344.715,-69.02
1410,347135,0.9328120000000001,0.61122,-1.117276,6.23,-385.175,-95.6375
1411,347233,0.9398880999999999,0.477264,-0.8959681,8.015,-418.9675,-111.2825
1412,347331,0.9054840000000001,0.372344,-0.69662,9.45,-438.4275,-116.0075
1413,347430,0.880352,0.305732,-0.56608,9.275,-444.605,-113.295
1414,347528,0.9291520000000001,0.2867,-0.49849209999999994,6.9125,-439.215,-106.9075
1415,347626,1.027728,0.31354,-0.50142,1.9775,-427.21,-100.0475
1416,347724,1.197308,0.366244,-0.5753520000000001,-5.5475,-414.54,-95.1825
1417,347822,1.369572,0.447008,-0.6763680000000001,-14.665,-405.195,-93.8875
1418,347920,1.565016,0.5267960999999999,-0.766892,-24.22,-400.3825,-96.74
1419,348018,1.7502119999999999,0.601216,-0.79422,-35.49,-401.73,-103.2675
1420,348116,1.9300400000000002,0.628788,-0.789828,-52.9025,-405.58,-112.665
1421,348214,2.060336,0.66246,-0.7747001,-76.8075,-405.615,-125.265
1422,348312,2.22894,0.7068681,-0.7139439999999999,-107.275,-397.46,-139.1075
1423,348410,2.33142,0.8352120000000001,-0.60024,-135.45,-381.2725,-156.7125
1424,348509,2.605432,0.9964959999999999,-0.44164,-155.9425,-357.0175,-175.0
1425,348607,2.843332,1.203164,-0.221796,-157.885,-328.405,-196.6125
1426,348705,2.976556,1.31028,0.07856801,-134.68,-294.315,-225.505
1427,348803,3.069032,1.1263040000000002,0.388692,-89.74,-253.5225,-259.105
1428,348901,3.156628,0.6985720999999999,0.58316,-41.7725,-211.5575,-294.3675
1429,348999,3.21592,0.28621199999999997,0.6883239999999999,-1.0675,-177.9925,-323.6975
1430,349097,3.275456,-0.29524,0.830332,39.8825,-154.805,-335.5975
1431,349195,3.196156,-0.821792,1.006988,79.87,-132.1775,-328.5625
1432,349293,3.1644360000000002,-0.8256960999999999,1.36396,120.225,-119.2275,-292.1275
1433,349391,3.304004,-1.1897440000000001,1.7855919999999998,165.0075,-106.6975,-217.28
1434,349490,2.952644,-1.673352,2.360456,163.135,-100.03,-146.755
1435,349588,2.4156,-1.6933599999999998,2.686928,101.5525,-81.4975,-104.965
1436,349686,2.202588,-1.324676,2.452444,22.6975,-29.645,-74.7425
1437,349784,2.4270680000000002,-0.7449321,1.7460639999999998,-25.375,35.3675,-46.76
1438,349882,2.609824,-0.39405999999999997,1.0704280000000002,-23.52,81.865,-16.5725
1439,349980,2.882128,0.299632,1.042612,-0.7525,102.6025,10.36
1440,350078,0.41260399999999997,-0.296704,-1.310036,64.34751,150.1675,56.0175
1441,350176,-2.418284,-1.2056040000000001,-1.085556,38.885,251.65,51.0475
1442,350274,2.511736,0.275964,-0.09613601,-111.755,381.1675,16.065
1443,350373,2.587132,-0.024156,-0.6080479999999999,-50.0325,344.19,71.85501
1444,350471,1.9422400000000002,-0.22033200000000003,-1.387384,-1.085,303.6775,93.17
1445,350569,1.741672,0.52094,-0.750788,-19.3375,262.2375,120.4
1446,350667,0.8422879999999999,0.647576,-0.599996,-10.0275,227.6925,136.3775
1447,350765,3.93206,1.008208,-2.0769279999999997,42.7875,177.975,29.61
1448,350863,2.77062,0.443592,0.260836,118.86,66.115,29.085
1449,350961,1.502796,0.5948720000000001,-1.291248,61.005,45.395,41.72
1450,351059,0.808372,0.087352,-0.70028,77.9625,37.0825,61.5475
1451,351157,1.220244,0.122732,-0.61,64.9075,5.8275,67.025
1452,351255,0.7068681,0.386252,-0.6141479999999999,48.02,-15.8375,66.0975
1453,351354,0.7612800999999999,0.21374400000000002,-0.619272,36.645,-12.565,53.935
1454,351452,0.767868,0.16714,-0.640744,32.095,-9.555,42.98
1455,351550,0.755424,0.225944,-0.666852,29.8025,-5.3725,31.36
1456,351648,0.7700640999999999,0.17202,-0.606584,27.895,-1.6975,23.345
1457,351746,0.754448,0.2257,-0.624884,25.235,1.82,17.745
1458,351844,0.7564001,0.220088,-0.655384,23.03,5.4075,15.1725
1459,351942,0.760792,0.219112,-0.669048,20.44,7.105,13.5275
1460,352040,0.7483479999999999,0.23155599999999998,-0.6709999999999999,18.97,6.405,12.81
1461,352138,0.7390760000000001,0.231312,-0.660996,19.18,3.885,12.32
1462,352237,0.7237041,0.257176,-0.664412,18.97,-0.245,11.9875
1463,352335,0.7046720999999999,0.266936,-0.666852,19.1275,-5.04,12.6875
1464,352433,0.701256,0.254736,-0.670268,18.3925,-8.61,13.79
1465,352531,0.691008,0.280844,-0.670512,16.6075,-11.7775,15.1025
1466,352629,0.694912,0.27328,-0.6709999999999999,15.8025,-14.8575,18.1475
1467,352727,0.696132,0.24034,-0.66246,15.6275,-17.5,21.56
1468,352825,0.709064,0.209108,-0.650016,16.4325,-19.7225,23.7125
1469,352923,0.6912520000000001,0.198128,-0.6944241,16.9225,-20.1775,24.815
1470,353021,0.7068681,0.144204,-0.6729520999999999,19.7225,-18.55,25.3225
1471,353120,0.697108,0.121268,-0.670024,17.4125,-17.9375,23.6075
1472,353218,0.6895439999999999,0.10614000000000001,-0.6763680000000001,13.8775,-15.75,20.0725
1473,353316,0.708088,0.134688,-0.670024,11.235,-12.67,15.645
1474,353414,0.7166279999999999,0.16689600000000002,-0.6722199999999999,9.135,-8.995,13.895
1475,353512,0.6944241,0.19397999999999999,-0.68686,7.455,-5.39,14.7875
1476,353610,0.7288279999999999,0.252784,-0.68198,7.3675,0.385,19.705
1477,353708,0.726388,0.22814,-0.6954,8.4,7.3675,28.91
1478,353806,0.754204,0.244732,-0.686128,7.9625,11.97,36.1025
1479,353904,0.733952,0.2379,-0.674416,7.805,11.7075,42.5775
1480,354002,0.6771,0.086132,-0.746396,5.845,13.405,50.47
1481,354101,0.658068,-0.001464,-0.728096,4.0425,24.4125,50.0675
1482,354199,0.671488,0.049044,-0.7659161,4.27,44.3975,43.2775
1483,354297,0.67588,0.061,-0.794708,1.0325,63.0175,36.8375
1484,354395,0.712236,0.06636801,-0.806908,0.21,83.755,33.39
1485,354493,0.743712,0.09589201,-0.8427761,1.4525,105.8225,31.15
1486,354591,0.7983680000000001,0.11834000000000001,-0.8674200000000001,6.23,129.3075,34.055
1487,354689,0.70028,0.164212,-0.8757159999999999,14.56,153.5975,39.6725
1488,354787,0.741272,0.17616800000000002,-0.9079241,22.89,179.7075,46.8125
1489,354885,0.7954399999999999,0.11614400000000001,-0.8586360000000001,29.435,208.2675,53.585
1490,354983,0.8957241,0.123464,-0.772016,30.905,246.68,60.165
1491,355082,0.945744,0.118096,-0.8476561,32.025,315.6125,72.1
1492,355180,0.9052401,0.158112,-1.138016,42.56,413.7525,80.2375
1493,355278,0.8937719999999999,0.382836,-0.9120720999999999,53.9875,524.055,91.7875
1494,355376,1.20902,0.793244,-0.973316,40.81,572.53,114.5025
1495,355474,0.9706319999999999,1.008208,-1.602592,14.7175,573.405,176.9775
1496,355572,1.5913680000000001,0.321592,-0.495076,23.9575,573.405,235.8475
1497,355670,2.633736,-0.071492,0.005368,1.225,573.37,242.8475
1498,355768,2.615924,0.590968,-0.19178399999999998,-61.8975,549.08,170.205
1499,355866,2.036668,0.388692,-0.715164,-100.205,434.2625,127.1025
1500,355965,1.341512,0.871568,-1.188524,-154.665,291.5325,58.24
1501,356063,3.385012,1.1575360000000001,-1.99958,-182.105,207.8825,-4.41
1502,356161,5.519036,1.5128,-1.937848,-152.215,196.49,11.2525
1503,356259,1.87758,2.2692,-3.804204,-112.175,102.8825,137.2175
1504,356357,1.981768,2.368996,-2.948496,-78.3825,-69.93,62.44
1505,356455,1.01138,2.0571639999999998,-2.535404,-2.5025,-185.5875,20.685
1506,356553,0.43724799999999997,1.617476,-1.891488,64.47,-229.005,-17.3075
1507,356651,0.245464,1.2141440000000001,-1.555256,102.27,-239.925,-45.9725
1508,356749,0.374052,0.906216,-1.388116,106.3825,-249.3225,-79.1
1509,356848,0.5941401,0.674416,-1.333704,87.115,-270.5675,-115.9025
1510,356946,0.791536,0.491904,-1.266848,57.295,-305.6025,-151.97
1511,357044,0.8725440999999999,0.315492,-1.1331360000000001,29.4,-346.885,-178.8325
1512,357142,0.8818159999999999,0.172752,-0.9696561,6.79,-382.0425,-191.2925
1513,357240,0.86498,0.05929201,-0.806908,-9.03,-405.475,-190.505
1514,357338,0.868884,0.000976,-0.684664,-18.935,-415.7475,-182.455
1515,357436,0.8996280999999999,-0.050752,-0.6319600000000001,-26.7225,-414.1375,-168.1575
1516,357534,0.981124,-0.071492,-0.638548,-32.4275,-405.125,-151.3575
1517,357632,1.105076,-0.06954,-0.669048,-37.1875,-392.7875,-135.17
1518,357731,1.215852,-0.07002799999999999,-0.715408,-45.2725,-381.885,-121.6425
1519,357829,1.3407799999999999,0.022448,-0.7734800000000001,-59.01,-374.64,-114.9225
1520,357927,1.476688,0.183732,-0.863516,-74.025,-370.3175,-113.155
1521,358025,1.592588,0.3233,-0.9057280999999999,-86.1,-366.3275,-115.9375
1522,358123,1.5908799999999998,0.401136,-0.8605879999999999,-95.2525,-358.085,-125.2475
1523,358221,1.7080000000000002,0.477996,-0.9269561,-104.5275,-339.4475,-139.685
1524,358319,2.095228,0.6197600000000001,-1.1751040000000001,-113.575,-314.8775,-155.435
1525,358417,2.4917279999999997,0.696132,-1.329556,-119.77,-300.8775,-172.2
1526,358515,2.650816,0.7376119999999999,-1.17242,-121.3975,-300.825,-193.0075
1527,358613,2.621048,0.6756361,-0.79666,-120.6975,-298.69,-215.7925
1528,358712,2.727432,0.6756361,-0.412116,-113.0675,-279.7025,-240.555
1529,358810,2.9441040000000003,0.70638,-0.16201600000000002,-90.21251,-251.7725,-259.28
1530,358908,3.094896,0.636596,0.027572000000000003,-48.3875,-228.0775,-268.485
1531,359006,3.0036400000000003,0.21813600000000002,0.393084,7.0525,-212.2925,-271.495
1532,359104,2.833084,-0.297192,0.71858,52.7275,-192.7625,-274.68
1533,359202,3.04756,-0.5016641,1.06384,82.32,-169.5225,-271.6175
1534,359300,3.230316,-0.9018241,1.605764,109.655,-152.8625,-241.7975
1535,359398,3.031456,-1.398364,2.3607,112.875,-138.9675,-197.5925
1536,359496,2.61568,-1.609668,2.8491880000000003,79.6075,-108.115,-155.4875
1537,359595,2.41316,-1.34932,2.63642,33.5475,-52.1675,-118.615
1538,359693,2.412672,-0.880352,2.03008,10.185,14.4025,-83.52750999999999
1539,359791,2.43268,-0.546804,1.406172,22.2425,71.9075,-47.1275
1540,359889,2.4988040000000002,-0.42285200000000006,0.940132,52.3775,114.17,-15.0675
1541,359987,1.230736,0.7076001000000001,-2.5988439999999997,61.845,136.1325,12.53
1542,360085,-1.8400040000000002,-0.310856,-1.7687560000000002,100.0825,163.6425,36.1375
1543,360183,-2.633492,-1.0060120000000001,0.323788,-49.28,356.265,88.41001
1544,360281,5.185976,0.897432,0.1647,-104.5275,403.4275,103.565
1545,360380,1.7165400000000002,-0.23692399999999997,-1.3710360000000001,27.895,337.6275,127.995
1546,360478,2.178676,-0.7954399999999999,-0.9638,22.8025,292.1975,68.425
1547,360576,2.103768,0.42187600000000003,-1.2014559999999999,-0.77,251.1075,128.8525
1548,360674,1.938824,1.036512,-0.5158159999999999,-23.3625,199.08,128.3625
1549,360772,1.75558,0.8459479999999999,-2.33386,10.57,168.4375,67.48001
1550,360870,2.424384,0.8754719999999999,-0.6058520000000001,59.465,68.9325,21.5075
1551,360968,0.9142680000000001,0.320616,-0.820816,84.455,61.005,52.815
1552,361066,0.7734800000000001,0.18446400000000002,-0.7510321,71.1375,61.915,64.89
1553,361164,1.542324,0.346968,-0.9315921,77.8225,44.345,67.9875
1554,361263,0.9147559999999999,0.11102000000000001,-0.55632,79.345,13.16,66.53501
1555,361361,0.81374,0.164212,-0.71858,61.285,1.925,57.6625
1556,361459,0.8976761000000001,0.07442,-0.6753920999999999,53.7075,-1.2425,47.8625
1557,361557,0.755424,0.120048,-0.6954,38.2025,-1.365,35.49
1558,361655,0.781776,0.109556,-0.705892,29.47,-0.8925,23.415
1559,361753,0.7610359999999999,0.1891,-0.678808,21.77,-1.6275,14.56
1560,361851,0.742492,0.17446,-0.682956,17.6925,1.7325,6.86
1561,361949,0.729316,0.179584,-0.726144,12.1275,3.6925,-0.42
1562,362047,0.727364,0.20496,-0.6600201,8.19,6.475,-7.1925
1563,362145,0.7190681,0.230336,-0.662948,5.9675,8.33,-11.2525
1564,362244,0.7137001000000001,0.24156,-0.670512,3.6225,7.7875,-13.5275
1565,362342,0.7117479999999999,0.252296,-0.65758,2.625,6.5975,-14.4375
1566,362440,0.711016,0.262544,-0.659288,1.9075,4.7775,-14.4025
1567,362538,0.699792,0.2806,-0.654896,3.115,3.4475,-12.4425
1568,362636,0.699792,0.293044,-0.652456,5.39,1.925,-8.785
1569,362734,0.703696,0.30134,-0.6497721,9.8525,0.315,-3.3775
1570,362832,0.7117479999999999,0.285968,-0.646844,14.8225,-1.5225,2.625
1571,362930,0.7232161,0.262056,-0.6497721,17.3075,-3.1325,7.1575
1572,363028,0.7239479999999999,0.24863600000000002,-0.6600201,17.0275,-4.9175,9.6075
1573,363127,0.7288279999999999,0.232044,-0.659532,16.4325,-7.14,10.7625
1574,363225,0.72346,0.211304,-0.6541640000000001,15.5925,-8.5575,11.41
1575,363323,0.7171161,0.22204000000000002,-0.654896,14.5775,-8.1375,13.0725
1576,363421,0.7190681,0.231068,-0.64782,15.19,-7.3325,16.66
1577,363519,0.7320001,0.21472,-0.6470880999999999,16.24,-6.44,21.6825
1578,363617,0.730292,0.214232,-0.650992,18.4275,-5.075,27.335
1579,363715,0.726876,0.208132,-0.651968,19.425,-3.01,32.13
1580,363813,0.70638,0.190076,-0.6588,17.6925,-0.42,34.8425
1581,363911,0.6985720999999999,0.239364,-0.6954,13.825,3.325,36.435
1582,364010,0.711504,0.221796,-0.6661201,14.5425,8.5575,43.085
1583,364108,0.7139439999999999,0.156648,-0.64294,14.28,11.83,50.4525
1584,364206,0.7766521,0.23058,-0.7766521,7.665,14.245,52.9375
1585,364304,0.658068,0.07027201,-0.6502600000000001,11.27,19.67,56.9625
1586,364402,0.7078439999999999,0.096868,-0.7266321,5.1275,29.5225,52.7975
1587,364500,0.706136,0.10345599999999999,-0.748592,1.2075,43.8025,49.3675
1588,364598,0.724436,0.1098,-0.783972,-0.5775,58.8,45.5875
1589,364696,0.735904,0.124196,-0.8235001000000001,1.085,74.655,44.555
1590,364795,0.784704,0.09735601,-0.768112,3.4475,95.375,47.5125
1591,364893,0.8308200000000001,0.10516400000000001,-0.7766521,1.9775,121.205,50.1025
1592,364991,0.8698601,0.11712,-0.8193521,2.6425,155.47,53.5325
1593,365089,0.8620521000000001,0.088328,-0.7893399999999999,1.2425,195.65,59.2375
1594,365187,0.5443640000000001,0.08003201,-1.0004,-5.6175,236.9325,64.2075
1595,365285,1.167784,0.081252,-0.784704,-7.3675,271.215,72.31
1596,365383,0.9869800999999999,0.047092,-0.998692,-12.355,366.3275,72.0475
1597,365481,0.782752,0.299388,-0.9525761,-2.38,481.2675,68.46
1598,365579,0.8781559999999999,0.49556400000000006,-1.036268,-0.42,563.745,77.735
1599,365677,1.0121120000000001,0.9415959999999999,-1.543544,-18.585,573.405,115.185
1600,365776,1.065548,0.43066000000000004,-1.1599760000000001,-3.92,573.405,190.0325
1601,365874,1.8758720000000002,-0.270108,-0.016592,19.7225,573.405,217.2275
1602,365972,2.801364,0.515328,0.05587601,-23.45,572.88,151.7775
1603,366070,2.445612,0.382104,-0.263764,-55.16,528.045,87.95501
1604,366168,1.560624,0.10004,-0.768356,-83.6325,403.3575,19.145
1605,366266,2.026664,1.059936,-0.9084121,-106.61,266.875,-27.055
1606,366364,5.018104,0.919636,-2.1886799999999997,-184.5025,110.6525,-45.2025
1607,366462,5.155964,1.522316,-2.015196,-160.4225,159.1625,37.135
1608,366560,2.279692,2.1374400000000002,-3.4855400000000003,-170.1,-2.975,101.6575
1609,366658,1.701412,2.267248,-2.710352,-81.795,-149.24,40.67
1610,366757,0.676124,2.002508,-1.832684,9.415,-229.1625,9.03
1611,366855,0.15982000000000002,1.579656,-1.297592,81.6375,-236.18,-29.1375
1612,366953,0.24497600000000003,1.2141440000000001,-1.18828,119.6125,-214.9875,-71.225
1613,367051,0.48702399999999996,0.8784,-1.20902,130.3925,-214.97,-118.0375
1614,367149,0.6539201,0.604144,-1.220976,123.97,-242.69,-158.3925
1615,367247,0.745908,0.364292,-1.174372,111.755,-283.0625,-182.8575
1616,367345,0.747128,0.15762400000000001,-1.0784799999999999,96.2325,-324.87,-192.4125
1617,367443,0.6688041,0.0017079999999999999,-0.913292,81.90001,-360.1325,-191.9225
1618,367541,0.596336,-0.101016,-0.7168720000000001,67.8125,-384.37,-184.9925
1619,367640,0.556076,-0.159576,-0.577304,53.4975,-395.0625,-171.9025
1620,367738,0.590236,-0.180072,-0.515084,40.4775,-395.36,-157.99
1621,367836,0.714432,-0.158844,-0.5458281,30.065,-389.41,-143.43
1622,367934,0.849608,-0.07173600000000001,-0.6514800000000001,24.5525,-382.935,-130.095
1623,368032,0.9613601,0.014152000000000001,-0.7266321,24.4475,-378.0525,-118.8075
1624,368130,1.0565200000000001,0.06661201,-0.826672,23.8175,-379.645,-110.7225
1625,368228,1.151192,0.08906,-0.8744960999999999,21.665,-383.7575,-105.875
1626,368326,1.280512,0.07393200000000001,-0.90036,14.3325,-388.255,-103.495
1627,368424,1.413492,0.03416,-0.9354959999999999,-0.7,-391.2475,-101.5
1628,368522,1.60796,0.032208,-1.005768,-23.765,-392.07,-98.89251
1629,368621,1.753872,0.05002,-1.070184,-49.8925,-390.495,-96.28501
1630,368719,1.996652,0.156648,-1.103124,-75.6525,-384.1775,-91.4725
1631,368817,2.2762759999999997,0.29524,-1.086044,-93.7125,-373.9925,-81.74251
1632,368915,2.740364,0.46896800000000005,-1.086044,-107.8175,-362.32,-69.055
1633,369013,3.004616,0.543144,-0.809836,-117.6175,-354.41,-65.1875
1634,369111,3.077084,0.5856,-0.316712,-117.6,-342.9475,-73.1325
1635,369209,3.147844,0.472384,0.17836400000000002,-105.245,-313.6875,-87.3775
1636,369307,3.224216,0.21447600000000003,0.6161,-82.11,-271.7225,-105.1225
1637,369405,3.222752,-0.086132,0.9969841,-54.7225,-233.31,-120.015
1638,369503,3.121736,-0.392108,1.336144,-18.55,-198.485,-123.1125
1639,369602,2.928732,-0.61854,1.58722,21.9625,-162.995,-111.3
1640,369700,2.98656,-0.9977159999999999,1.704584,55.0375,-124.7575,-90.685
1641,369798,2.9750919999999996,-1.27734,2.036912,68.0575,-90.86,-67.585
1642,369896,2.5983560000000003,-1.2993,2.293356,63.245,-55.965,-32.9
1643,369994,2.4295080000000002,-1.1690040000000002,1.956636,56.665,-3.8325,8.4
1644,370092,2.4551279999999998,-0.91622,1.325652,54.1275,47.32,38.8675
1645,370190,2.86334,-0.83814,1.092876,53.375,83.52750999999999,61.67
1646,370288,-0.29426399999999997,-0.560956,-1.5262200000000001,45.185,127.12,99.6275
1647,370386,-2.549312,0.687104,-1.674084,-75.9325,259.9975,121.6775
1648,370485,3.932548,0.9989360999999999,0.5131319999999999,-132.44,358.9775,174.9125
1649,370583,1.06018,0.465308,-0.292556,5.6,304.5525,164.0625
1650,370681,1.903932,0.5131319999999999,-0.8637601,1.715,304.4125,37.1175
1651,370779,2.05326,-0.033428,-0.9140241,23.6075,285.495,100.5025
1652,370877,1.7763200000000001,0.7895840999999999,-0.656116,9.8875,235.165,136.8675
1653,370975,3.3781800000000004,0.936716,-2.531988,49.9625,190.9775,50.6625
1654,371073,2.34728,-0.5455840000000001,0.050752,136.85,92.90751,20.965
1655,371171,1.581852,0.0793,-1.7028759999999998,78.19,84.6475,45.465
1656,371269,1.172176,0.172264,-0.5104479999999999,80.29,39.9175,57.68
1657,371368,1.069452,0.183732,-0.6785640000000001,69.9475,12.2675,59.675
1658,371466,0.7659161,0.118096,-0.7046720999999999,56.1575,0.4025,51.73
1659,371564,0.774212,0.221308,-0.675148,40.5125,-2.5725,41.755
1660,371662,0.7478600000000001,0.166164,-0.687104,35.455,-3.045,34.23
1661,371760,0.754692,0.179096,-0.697596,31.22,-5.425,28.84
1662,371858,0.7483479999999999,0.18470799999999998,-0.6822239999999999,28.07,-6.3,25.165
1663,371956,0.73688,0.149328,-0.69052,25.0775,-5.1275,22.05
1664,372054,0.7373681,0.164456,-0.68808,22.0675,-3.0275,17.255
1665,372152,0.741028,0.158356,-0.681736,19.0925,-0.49,12.005
1666,372250,0.7315119999999999,0.155428,-0.679296,16.3625,2.065,7.2975
1667,372348,0.727364,0.16714,-0.670268,15.0325,4.1475,3.8675
1668,372447,0.7285841,0.179584,-0.672708,13.7025,4.4625,1.155
1669,372545,0.728096,0.195688,-0.671976,12.8275,3.535,-0.63
1670,372643,0.729804,0.212036,-0.6653880999999999,12.7225,1.715,-1.12
1671,372741,0.729316,0.21520799999999998,-0.6634359999999999,12.495,-0.945,-0.5075
1672,372839,0.724436,0.21228000000000002,-0.668072,11.2875,-3.71,0.6125
1673,372937,0.7195560000000001,0.20252,-0.6646561,10.22,-6.0375,2.065
1674,373035,0.7237041,0.205936,-0.66978,9.485,-8.505,3.08
1675,373133,0.7195560000000001,0.208864,-0.671244,8.7675,-11.305,4.025
1676,373231,0.715896,0.19764,-0.6785640000000001,7.945,-13.72,5.495
1677,373330,0.7107720000000001,0.17543599999999998,-0.6790520999999999,7.7175,-15.1725,7.3675
1678,373428,0.7095520000000001,0.14566800000000002,-0.659288,7.4725,-14.9625,8.435
1679,373526,0.7107720000000001,0.14469200000000002,-0.666608,6.3525,-13.79,7.455
1680,373624,0.707356,0.15201199999999998,-0.681248,4.7425,-12.5825,6.23
1681,373722,0.702476,0.132492,-0.6785640000000001,4.06,-10.3425,5.81
1682,373820,0.69784,0.13078399999999998,-0.676612,3.78,-7.2275,5.2325
1683,373918,0.7019880000000001,0.144204,-0.678808,4.2,-4.1475,4.9875
1684,374016,0.7017439999999999,0.15128,-0.671732,4.725,-1.4175,5.355
1685,374114,0.6993041,0.183,-0.680028,4.13,0.2975,6.195
1686,374213,0.700036,0.187636,-0.675148,3.675,1.47,9.1525
1687,374311,0.6893,0.183488,-0.676124,3.43,3.2725,14.0
1688,374409,0.690032,0.19983599999999999,-0.694912,1.575,6.4925,19.3025
1689,374507,0.69906,0.177876,-0.696376,-1.155,11.41,26.915
1690,374605,0.751276,0.306708,-0.8410681000000001,-6.265,17.3775,33.81
1691,374703,0.654408,0.10638399999999999,-0.7141881,-0.035,28.6125,41.2825
1692,374801,0.69418,0.108824,-0.774456,-4.1125,41.545,42.245
1693,374899,0.7046720999999999,0.09906401,-0.785192,-3.115,56.4375,43.9775
1694,374997,0.7266321,0.073688,-0.801784,-3.1325,74.13,43.7325
1695,375095,0.782752,0.08954801,-0.8010520000000001,-1.9425,95.83,44.1525
1696,375194,0.809348,0.086864,-0.8174001000000001,1.4875,125.16,45.395
1697,375292,0.76372,0.09638,-0.8042239999999999,5.9675,159.9325,48.0725
1698,375390,0.8591241,0.094672,-0.823256,2.7125,193.76,52.71
1699,375488,0.76982,0.12248800000000001,-0.8725440999999999,-3.22,242.8475,56.8225
1700,375586,1.056764,0.10833599999999999,-0.8337481,-7.5425,298.1475,65.24
1701,375684,0.860344,0.109556,-1.048468,-10.0275,384.51,70.8575
1702,375782,0.987956,0.594384,-1.118252,-2.7125,484.155,79.8875
1703,375880,1.0243120000000001,0.793244,-1.0279719999999999,12.6,560.8925,119.7175
1704,375978,1.046028,0.755912,-1.089948,0.98,573.3525,185.3775
1705,376077,1.250988,0.26718000000000003,-0.679296,-10.7625,573.405,243.635
1706,376175,2.275544,0.644404,-0.4575,-41.1075,573.405,221.8475
1707,376273,2.802584,0.180316,-0.49044,-79.4325,563.0275,197.61
1708,376371,2.2265,0.42822,-0.502152,-144.515,483.595,145.1975
1709,376469,2.039352,0.59658,-1.323944,-221.6725,343.8575,67.0775
1710,376567,2.38632,0.942572,-1.777296,-269.2725,158.69,15.925
1711,376665,6.4801519999999995,1.8883159999999999,-3.513356,-275.0825,-20.965,15.75
1712,376763,1.609912,2.0996200000000003,-3.574356,-179.795,-11.0075,106.75
1713,376861,0.98088,1.884412,-2.3860759999999996,-135.975,-174.685,76.0375
1714,376960,-0.223504,1.473028,-1.3620079999999999,-92.68001,-234.0275,20.44
