,T,ax,ay,az,gx,gy,gz
0,10238123,0.8704700000000001,0.102114,-0.164456,20.475,-19.5475,-17.2375
1,10238263,0.961116,0.080154,-0.21008400000000002,-48.02,28.8925,-71.1725
2,10238359,1.032242,0.09247601,-0.219844,-58.52,-72.94,-123.7425
3,10238456,0.9977159999999999,0.10736,-0.21899000000000002,24.36,-104.86,-50.575
4,10238553,0.975634,0.135786,-0.22411399999999998,2.415,-7.8225,-3.01
5,10238649,0.9677040000000001,0.13859200000000002,-0.23533800000000002,7.2625,-5.3025,-0.7525
6,10238746,0.9764879999999999,0.12065799999999999,-0.239608,12.18,-6.3175,0.2975
7,10238843,0.9697780999999999,0.119682,-0.24717199999999998,14.3325,-6.195,0.4375
8,10238939,0.971242,0.13237000000000002,-0.260836,17.325,-4.9175,0.4025
9,10239036,0.976366,0.117974,-0.255834,21.4375,-4.4625,0.5425
10,10239133,0.9928360999999999,0.021472,-0.227408,22.1725,-4.2525,-0.0175
11,10239230,1.026874,0.013908000000000002,-0.24936799999999998,14.175,-5.0925,-2.2925
12,10239326,1.031754,0.034526,-0.25681,5.25,-6.685,-4.8125
13,10239423,1.048468,0.001464,-0.280478,-5.4775,-7.91,-7.84
14,10239520,1.0060120000000001,0.040016,-0.275354,-18.2525,-11.1825,-9.4325
15,10239616,0.97783,0.032451999999999995,-0.284992,-26.5125,-16.9225,-9.8875
16,10239713,0.9595300999999999,0.036356,-0.293288,-36.54,-19.39,-9.9225
17,10239810,0.9555040000000001,0.05856,-0.30805,-45.885,-21.7875,-9.625
18,10239907,0.955992,0.122,-0.278404,-50.2075,-28.805,-8.4
19,10240003,0.9089001,0.20264200000000002,-0.135298,-37.59,-37.205,-6.1775
20,10240100,0.890966,0.17055599999999999,0.050752,-7.07,-31.045,-3.99
21,10240197,0.8954801,0.10931199999999999,-0.253394,4.8125,-11.0425,-2.0475
22,10240293,0.9390341,0.14090999999999998,-0.308904,-5.11,-0.8575,-1.3125
23,10240390,0.967094,0.133956,-0.285602,-4.06,-2.485,-1.295
24,10240487,0.9738041,0.12505,-0.268034,-2.765,-7.7,-1.5225
25,10240583,0.965874,0.12139000000000001,-0.262178,-1.3825,-9.31,-1.995
26,10240680,0.9616040000000001,0.118218,-0.259982,-1.155,-8.5225,-2.45
27,10240777,0.955626,0.11211800000000001,-0.26413000000000003,-1.3825,-7.245,-2.94
28,10240874,0.951356,0.108458,-0.269376,-1.54,-7.0,-3.29
29,10240970,0.9507460999999999,0.10540799999999999,-0.267912,-1.365,-7.5075,-3.605
30,10241067,0.955626,0.10528599999999999,-0.266814,-1.155,-7.8225,-3.7275
31,10241164,0.9612379999999999,0.106994,-0.265594,-0.91,-8.0675,-3.745
32,10241260,0.966728,0.10943399999999999,-0.26461799999999996,-0.7,-8.3825,-3.7275
33,10241357,0.9678261,0.11126400000000002,-0.26413000000000003,-0.5775,-8.75,-3.605
34,10241454,0.9650200999999999,0.111874,-0.263642,-0.2975,-8.995,-3.6225
35,10241550,0.9623360999999999,0.111874,-0.259372,-0.07,-9.205,-3.465
36,10241647,0.9600181000000001,0.11321600000000001,-0.25681,0.0525,-9.1875,-3.395
37,10241744,0.9591639999999999,0.112728,-0.252662,0.105,-9.1175,-3.3075
38,10241840,0.9585541,0.11345999999999999,-0.25363800000000003,0.2625,-9.1,-3.325
39,10241937,0.9572120999999999,0.109556,-0.25046599999999997,0.315,-9.205,-3.325
40,10242034,0.9568459999999999,0.110654,-0.25132,0.28,-9.0825,-3.4475
41,10242131,0.954528,0.10906800000000001,-0.251442,0.28,-8.7325,-3.605
42,10242227,0.952332,0.109678,-0.24997800000000003,0.21,-8.2775,-3.64
43,10242324,0.950868,0.109922,-0.251076,0.1925,-7.8925,-3.7975
44,10242421,0.953674,0.10906800000000001,-0.250832,0.3325,-7.7,-3.92
45,10242517,0.9539181000000001,0.1098,-0.249612,0.1925,-7.6475,-3.99
46,10242614,0.955016,0.11041,-0.249612,0.1575,-7.28,-4.0775
47,10242711,0.954284,0.11028800000000001,-0.25046599999999997,0.0525,-6.8425,-4.1475
48,10242808,0.9526979999999999,0.110776,-0.251808,-0.1225,-6.4925,-4.0425
49,10242904,0.95221,0.110776,-0.254858,-0.1925,-6.1775,-3.9025
50,10243001,0.9519661,0.111996,-0.257054,0.0,-5.95,-3.7625
51,10243098,0.9525761,0.11431400000000001,-0.25961599999999996,0.1225,-5.6175,-3.605
52,10243194,0.9553821,0.113826,-0.259982,0.2975,-5.4075,-3.36
53,10243291,0.9590420000000001,0.116998,-0.258884,0.42,-5.1275,-3.22
54,10243388,0.9598959999999999,0.118828,-0.25986,0.595,-4.69,-3.0625
55,10243484,0.9567241,0.11846199999999998,-0.261446,0.735,-4.3925,-3.0275
56,10243581,0.950868,0.118218,-0.26108000000000003,0.7525,-4.0075,-2.9575
57,10243678,0.9437921,0.11467999999999999,-0.26303200000000004,0.875,-3.43,-3.0275
58,10243775,0.9398880999999999,0.112972,-0.260348,1.085,-2.6775,-3.2025
59,10243871,0.9392780000000001,0.11358199999999999,-0.260592,1.4175,-2.065,-3.15
60,10243968,0.9429379999999999,0.114558,-0.259738,1.9425,-2.1175,-3.29
61,10244065,0.9489161,0.11712,-0.258396,2.45,-2.4325,-3.3775
62,10244161,0.9552601000000001,0.11846199999999998,-0.25803000000000004,2.695,-2.3975,-3.4125
63,10244258,0.959774,0.119072,-0.25656599999999996,2.94,-1.8025,-3.535
64,10244355,0.9627020000000001,0.119316,-0.257786,3.0625,-1.295,-3.57
65,10244452,0.9620920000000001,0.12017,-0.25925,2.94,-1.2075,-3.43
66,10244548,0.960384,0.11760799999999999,-0.254492,2.7825,-1.12,-3.255
67,10244645,0.9602620999999999,0.11529,-0.257054,2.87,-0.9975,-3.0275
68,10244742,0.957822,0.11016600000000001,-0.259372,3.1325,-0.6475,-2.7475
69,10244838,0.954528,0.10833599999999999,-0.25790799999999997,3.4475,-0.385,-2.765
70,10244935,0.95465,0.107116,-0.25925,3.92,-0.2625,-2.7475
71,10245032,0.9564799999999999,0.105652,-0.259128,4.2875,-0.35,-2.765
72,10245129,0.9568459999999999,0.105896,-0.258152,4.41,-0.35,-2.94
73,10245225,0.9572120999999999,0.101626,-0.25790799999999997,4.41,-0.385,-3.08
74,10245322,0.9551379999999999,0.096624,-0.255956,4.1825,-0.455,-3.29
75,10245419,0.9531860000000001,0.090036,-0.254126,3.9025,-0.4025,-3.5175
76,10245516,0.9524540000000001,0.086132,-0.253272,3.57,-0.7175,-3.6575
77,10245612,0.9551379999999999,0.081862,-0.252784,3.08,-1.085,-3.7275
78,10245709,0.9585541,0.0793,-0.247538,2.73,-1.575,-3.8325
79,10245806,0.9663620999999999,0.08064199,-0.24656199999999998,2.94,-2.1,-3.78
80,10245902,0.9772200999999999,0.08174001,-0.24363400000000002,2.9575,-2.9225,-3.885
81,10245999,0.9860040999999999,0.085156,-0.239608,2.555,-4.1125,-3.6925
82,10246096,0.993202,0.09028,-0.238754,1.8725,-4.6725,-3.465
83,10246193,0.9961300999999999,0.092964,-0.242414,0.98,-4.8125,-3.2375
84,10246289,0.992592,0.09625801,-0.243878,0.14,-4.9525,-2.9575
85,10246386,0.986858,0.09650201,-0.24424400000000002,-0.56,-4.865,-2.6075
86,10246483,0.9800261,0.09869801,-0.24644000000000002,-0.9975,-4.515,-2.3275
87,10246579,0.9718521000000001,0.09930800000000001,-0.24827,-1.19,-4.1825,-2.03
88,10246676,0.964776,0.10187,-0.249734,-1.015,-4.0425,-1.6975
89,10246773,0.95831,0.10516400000000001,-0.249612,-0.455,-4.0775,-1.5575
90,10246870,0.9564799999999999,0.105774,-0.24717199999999998,0.4025,-4.305,-1.5575
91,10246966,0.954284,0.104676,-0.244488,1.4,-4.76,-1.8025
92,10247063,0.9548940999999999,0.10309000000000001,-0.242536,2.2575,-5.215,-2.1525
93,10247160,0.9524540000000001,0.105896,-0.239242,2.66,-5.74,-2.6425
94,10247256,0.951844,0.104798,-0.23546,2.8875,-5.985,-3.0625
95,10247353,0.9497701,0.098576,-0.23485,2.8175,-6.4225,-3.6225
96,10247450,0.9494040000000001,0.091378,-0.234118,2.6775,-6.51,-3.9375
97,10247547,0.9492821,0.086132,-0.233996,2.45,-6.405,-4.13
98,10247643,0.9524540000000001,0.082838,-0.23387399999999997,2.0475,-6.265,-4.1475
99,10247740,0.9592860000000001,0.079056,-0.23363,1.645,-6.265,-4.0075
100,10247837,0.966484,0.0793,-0.232654,1.1025,-6.1775,-3.5875
101,10247933,0.9697780999999999,0.079666,-0.231434,0.4375,-6.02,-2.9925
102,10248030,0.972828,0.082106,-0.23155599999999998,-0.28,-5.8625,-2.4325
103,10248127,0.9724620999999999,0.08564401,-0.23155599999999998,-1.05,-5.495,-1.9075
104,10248224,0.9745360000000001,0.089304,-0.23485,-1.505,-4.935,-1.47
105,10248320,0.974292,0.09320801,-0.235582,-1.6975,-4.2875,-1.085
106,10248417,0.9718521000000001,0.098088,-0.238144,-1.8375,-3.8325,-0.7875
107,10248514,0.9724620999999999,0.101992,-0.23692399999999997,-1.89,-3.4475,-0.6475
108,10248610,0.9697780999999999,0.1037,-0.23606999999999997,-1.7325,-3.5525,-0.7
109,10248707,0.965752,0.10345599999999999,-0.239242,-1.4,-4.0075,-0.9625
110,10248804,0.96319,0.106262,-0.241194,-0.945,-4.62,-1.4175
111,10248901,0.9590420000000001,0.10675,-0.241194,-0.6475,-5.11,-2.0825
112,10248997,0.9557479999999999,0.108214,-0.242536,-0.5425,-5.0925,-2.73
113,10249094,0.9524540000000001,0.10723800000000001,-0.242414,-0.175,-4.795,-3.4475
114,10249191,0.9503799999999999,0.10675,-0.24461,-0.07,-4.55,-4.0775
115,10249287,0.9505020000000001,0.10345599999999999,-0.249002,0.35,-4.515,-4.585
116,10249384,0.9524540000000001,0.10394400000000001,-0.24949000000000002,0.7525,-4.48,-5.075
117,10249481,0.955016,0.10528599999999999,-0.25315,1.295,-4.445,-5.32
118,10249578,0.957944,0.106262,-0.253272,1.68,-4.48,-5.39
119,10249674,0.9625799999999999,0.107482,-0.25376,1.89,-4.2525,-5.495
120,10249771,0.9652639999999999,0.10797000000000001,-0.257054,2.2225,-4.0425,-5.46
121,10249868,0.967094,0.10614000000000001,-0.255468,2.4675,-4.13,-5.425
122,10249964,0.971242,0.102602,-0.253272,2.6775,-4.1125,-5.2675
123,10250061,0.9709979999999999,0.09979600000000001,-0.25315,2.6775,-4.5325,-5.075
124,10250158,0.9699,0.09650201,-0.25302800000000003,2.7125,-5.11,-5.0225
125,10250255,0.969412,0.09577000000000001,-0.251076,2.5375,-5.53,-4.9
126,10250351,0.9638,0.09625801,-0.251564,2.2575,-5.775,-4.585
127,10250448,0.9619700000000001,0.09442801,-0.25132,1.785,-5.74,-4.305
128,10250545,0.960628,0.094916,-0.24863600000000002,1.68,-5.5125,-4.2175
129,10250641,0.9586761,0.09674601,-0.249856,1.6975,-5.3025,-3.885
130,10250738,0.9586761,0.098332,-0.24705,1.82,-4.935,-3.675
131,10250835,0.9595300999999999,0.102358,-0.24558600000000003,2.0125,-4.69,-3.4475
132,10250932,0.9629459999999999,0.10248,-0.241194,2.415,-4.585,-3.29
133,10251028,0.9635560999999999,0.10052799999999999,-0.239364,2.6425,-4.585,-3.2375
134,10251125,0.964776,0.099186,-0.241438,2.625,-4.8825,-3.255
135,10251222,0.96441,0.097234,-0.24095,2.6425,-4.9525,-3.3775
136,10251318,0.9625799999999999,0.097966,-0.24351199999999998,2.5725,-4.8825,-3.5
137,10251415,0.9608721,0.09674601,-0.242048,2.555,-4.83,-3.7275
138,10251512,0.9577,0.09552601,-0.24156,2.24,-4.725,-3.92
139,10251608,0.9525761,0.09320801,-0.238144,1.8375,-4.5325,-4.13
140,10251705,0.953308,0.09162200000000001,-0.23729,1.6975,-4.235,-4.27
141,10251802,0.95221,0.08893801,-0.233386,1.4875,-4.0425,-4.0775
142,10251899,0.9547720999999999,0.08881599,-0.23387399999999997,1.1375,-4.0075,-3.92
143,10251995,0.95709,0.091134,-0.23155599999999998,0.8400001,-4.2175,-3.7275
144,10252092,0.96014,0.091744,-0.232776,0.6475,-4.2525,-3.4475
145,10252189,0.9623360999999999,0.09540401,-0.232898,0.3325,-4.515,-3.2725
146,10252285,0.9633120999999999,0.09821001,-0.23533800000000002,0.0175,-4.725,-2.975
147,10252382,0.9651421,0.101016,-0.235582,-0.2275,-4.62,-2.8175
148,10252479,0.966484,0.10126,-0.235948,-0.28,-4.4275,-2.6075
149,10252576,0.9653860000000001,0.103578,-0.234362,-0.525,-4.1825,-2.45
150,10252672,0.966606,0.10345599999999999,-0.23741199999999998,-0.525,-3.71,-2.4675
151,10252769,0.966118,0.10418800000000002,-0.237656,-0.5775,-3.3075,-2.415
152,10252866,0.967094,0.101382,-0.236558,-0.8400001,-3.2725,-2.4325
153,10252962,0.9633120999999999,0.099674,-0.23887600000000003,-1.015,-3.325,-2.4325
154,10253059,0.9619700000000001,0.096868,-0.23997399999999997,-1.26,-3.2375,-2.5025
155,10253156,0.9628241,0.09711201,-0.2379,-1.4525,-3.2725,-2.4325
156,10253252,0.963922,0.097478,-0.2379,-1.4875,-3.1675,-2.485
157,10253349,0.966606,0.09869801,-0.2379,-1.8025,-3.3075,-2.345
158,10253446,0.9673379999999999,0.09845401,-0.239852,-1.785,-3.325,-2.205
159,10253543,0.9678261,0.09979600000000001,-0.239486,-1.9425,-3.325,-2.065
160,10253639,0.9677040000000001,0.097234,-0.23680199999999998,-1.9775,-3.395,-1.8725
161,10253736,0.9641661,0.09650201,-0.238144,-1.9775,-3.6225,-1.89
162,10253833,0.9629459999999999,0.100406,-0.234972,-1.8725,-3.6925,-1.9425
163,10253929,0.9629459999999999,0.101992,-0.236314,-1.8025,-3.6225,-1.89
164,10254026,0.9608721,0.10516400000000001,-0.235582,-1.7675,-3.71,-1.855
165,10254123,0.9627020000000001,0.10418800000000002,-0.23546,-1.68,-3.7275,-1.8725
166,10254220,0.96319,0.105774,-0.236314,-1.68,-3.815,-1.8375
167,10254316,0.9629459999999999,0.10540799999999999,-0.23729,-1.6625,-4.095,-1.995
168,10254413,0.9638,0.10516400000000001,-0.23582600000000004,-1.6625,-4.06,-2.065
169,10254510,0.9638,0.10309000000000001,-0.23460599999999998,-1.5225,-3.885,-2.065
170,10254607,0.96624,0.10065,-0.23460599999999998,-1.3475,-4.0075,-2.065
171,10254703,0.9678261,0.098576,-0.23387399999999997,-1.33,-4.06,-2.1525
172,10254800,0.9683141,0.09882,-0.23314200000000002,-1.1725,-4.0425,-2.17
173,10254897,0.9705101,0.101504,-0.23424,-1.085,-4.1475,-2.1525
174,10254993,0.9697780999999999,0.102846,-0.23253200000000002,-1.19,-4.305,-2.17
175,10255090,0.9688021000000001,0.10248,-0.23155599999999998,-1.1375,-4.165,-2.1875
176,10255187,0.967094,0.104066,-0.232044,-1.05,-4.06,-2.3275
177,10255283,0.965996,0.102358,-0.229116,-0.98,-4.235,-2.4325
178,10255380,0.96441,0.09991799999999999,-0.230702,-0.7525,-4.4625,-2.5725
179,10255477,0.9638,0.10052799999999999,-0.22935999999999998,-0.4725,-4.6375,-2.73
180,10255574,0.9650200999999999,0.09869801,-0.229604,-0.3325,-4.865,-2.7125
181,10255670,0.966484,0.097478,-0.229238,-0.28,-4.83,-2.625
182,10255767,0.9688021000000001,0.09979600000000001,-0.22948200000000002,-0.3325,-4.9,-2.5725
183,10255864,0.97234,0.099186,-0.22948200000000002,-0.42,-4.8825,-2.415
184,10255960,0.97173,0.10223600000000001,-0.23240999999999998,-0.735,-4.865,-2.17
185,10256057,0.9703879999999999,0.099186,-0.23301999999999998,-0.8925,-4.725,-2.1
186,10256154,0.9691681000000001,0.100772,-0.23253200000000002,-0.98,-4.725,-2.03
187,10256251,0.9652639999999999,0.101748,-0.233264,-0.9975,-4.9875,-2.1175
188,10256347,0.964044,0.102724,-0.23253200000000002,-0.945,-5.39,-2.17
189,10256444,0.9646541,0.102968,-0.230458,-0.805,-5.495,-2.205
190,10256541,0.9642879999999999,0.10418800000000002,-0.22789600000000002,-0.4375,-5.6875,-2.3625
191,10256637,0.9669721,0.102358,-0.22509,-0.21,-5.5475,-2.52
192,10256734,0.968558,0.102602,-0.225944,-0.035,-5.4075,-2.7475
193,10256831,0.9700219999999999,0.101138,-0.22509,-0.14,-5.1625,-2.87
194,10256928,0.9705101,0.09882,-0.22728600000000002,-0.21,-5.04,-2.94
195,10257024,0.9709979999999999,0.09674601,-0.229604,-0.5425,-5.11,-3.0275
196,10257121,0.9705101,0.09674601,-0.232654,-0.8575,-4.9875,-3.045
197,10257218,0.9680700000000001,0.097234,-0.23228800000000002,-1.015,-5.005,-2.9925
198,10257314,0.964776,0.097966,-0.23448400000000003,-1.19,-5.25,-2.7475
199,10257411,0.963434,0.102358,-0.23546,-0.9625,-5.425,-2.555
200,10257508,0.9636780999999999,0.102724,-0.236192,-0.7,-5.5825,-2.415
201,10257605,0.9638,0.10345599999999999,-0.235704,-0.525,-5.7225,-2.31
202,10257701,0.9651421,0.10223600000000001,-0.233264,-0.28,-5.6525,-2.24
203,10257798,0.9638,0.101992,-0.231434,-0.0525,-5.6875,-2.345
204,10257895,0.9625799999999999,0.101504,-0.231068,0.0175,-5.81,-2.45
205,10257991,0.9616040000000001,0.09845401,-0.230946,0.035,-5.845,-2.59
206,10258088,0.9623360999999999,0.09869801,-0.232044,0.035,-5.7925,-2.73
207,10258185,0.9629459999999999,0.09784401,-0.231434,0.1575,-5.8625,-2.835
208,10258282,0.964776,0.09845401,-0.229848,0.0525,-5.985,-2.9575
209,10258378,0.9668501,0.09942999999999999,-0.228872,0.0175,-5.985,-3.01
210,10258475,0.9678261,0.10187,-0.231922,-0.0525,-5.95,-2.975
211,10258572,0.969534,0.101016,-0.231922,0.035,-5.8275,-2.9225
212,10258668,0.9706319999999999,0.101626,-0.23155599999999998,0.0875,-5.7225,-2.94
213,10258765,0.9705101,0.102358,-0.230458,0.2625,-5.6,-2.9225
214,10258862,0.9688021000000001,0.100162,-0.231434,0.245,-5.635,-2.8875
215,10258958,0.9646541,0.09845401,-0.231922,0.4025,-5.67,-2.9575
216,10259055,0.961726,0.09882,-0.23314200000000002,0.455,-5.7225,-2.9225
217,10259152,0.9589200999999999,0.09479401,-0.232044,0.42,-5.95,-2.975
218,10259249,0.9572120999999999,0.09442801,-0.231312,0.455,-6.02,-3.045
219,10259345,0.960384,0.09284201,-0.230458,0.525,-6.02,-3.0975
220,10259442,0.9618481,0.09320801,-0.23058,0.5775,-6.0025,-3.08
221,10259539,0.964776,0.09320801,-0.228994,0.595,-5.985,-2.9925
222,10259635,0.9679481,0.09381801,-0.228994,0.4375,-5.88,-2.905
223,10259732,0.9688021000000001,0.09455001,-0.228994,0.2625,-5.775,-2.835
224,10259829,0.9688021000000001,0.097234,-0.229116,-0.035,-5.6525,-2.835
225,10259926,0.965752,0.0976,-0.230946,-0.245,-5.4775,-2.7825
226,10260022,0.9646541,0.09942999999999999,-0.23387399999999997,-0.4025,-5.425,-2.625
227,10260119,0.9616040000000001,0.100284,-0.23533800000000002,-0.3675,-5.2325,-2.555
228,10260216,0.9591639999999999,0.101504,-0.23448400000000003,-0.1925,-5.0225,-2.485
229,10260312,0.957456,0.100772,-0.23387399999999997,0.07,-4.9,-2.5025
230,10260409,0.9563581,0.09942999999999999,-0.233752,0.4025,-4.83,-2.5725
231,10260506,0.957944,0.099186,-0.228506,0.8225,-4.7425,-2.73
232,10260603,0.9598959999999999,0.09674601,-0.229726,1.1375,-4.8125,-2.835
233,10260699,0.9641661,0.09455001,-0.228506,1.4525,-4.97,-2.9225
234,10260796,0.968558,0.09284201,-0.229726,1.6275,-5.0225,-3.0275
235,10260893,0.9714860000000001,0.094916,-0.228506,1.33,-5.11,-2.9575
236,10260989,0.97234,0.096014,-0.22801799999999997,1.12,-5.0575,-2.9575
237,10261086,0.9711200999999999,0.09552601,-0.229238,0.98,-4.7775,-2.835
238,10261183,0.9696561,0.09589201,-0.232654,0.8925,-4.5325,-2.7825
239,10261280,0.9669721,0.097478,-0.23485,0.77,-4.515,-2.6775
240,10261376,0.9629459999999999,0.09698999999999999,-0.233264,0.8575,-4.2875,-2.6775
241,10261473,0.9577,0.096624,-0.234972,1.015,-4.165,-2.6775
242,10261570,0.9548940999999999,0.097478,-0.234362,1.2425,-4.2525,-2.73
243,10261666,0.954284,0.09577000000000001,-0.23448400000000003,1.435,-4.1825,-2.8175
244,10261763,0.9568459999999999,0.094916,-0.22996999999999998,1.7325,-4.1475,-2.9575
245,10261860,0.9591639999999999,0.094672,-0.226554,1.8725,-4.375,-2.94
246,10261957,0.967216,0.09235399999999999,-0.226798,2.0825,-4.445,-3.0275
247,10262053,0.9729501,0.09150001,-0.224602,2.1175,-4.69,-3.08
248,10262150,0.9762440999999998,0.090646,-0.226188,1.89,-5.1625,-2.975
249,10262247,0.981124,0.091988,-0.227652,1.6275,-5.1275,-2.765
250,10262343,0.9813681000000001,0.09223200000000001,-0.228506,1.4,-4.935,-2.7125
251,10262440,0.9796600000000001,0.09394001,-0.22862800000000003,1.1375,-5.04,-2.6425
252,10262537,0.9753901,0.094306,-0.23216599999999998,0.875,-4.97,-2.625
253,10262633,0.9701440999999998,0.09394001,-0.23082399999999997,0.77,-4.795,-2.5375
254,10262730,0.9641661,0.091134,-0.232898,0.63,-4.62,-2.45
255,10262827,0.959408,0.089304,-0.23387399999999997,0.5425,-4.55,-2.52
256,10262924,0.9581881,0.08625401,-0.233752,0.7,-4.5675,-2.6075
257,10263020,0.957822,0.08662001,-0.232898,0.735,-4.76,-2.6425
258,10263117,0.958432,0.08784,-0.233386,0.7875,-4.9875,-2.6075
259,10263214,0.9616040000000001,0.08869401,-0.234118,0.8225,-4.9525,-2.4675
260,10263311,0.9638,0.09150001,-0.231922,0.8225,-5.075,-2.2925
261,10263407,0.964532,0.09272000000000001,-0.23228800000000002,0.8400001,-5.0225,-2.1175
262,10263504,0.9641661,0.09272000000000001,-0.231312,0.6475,-4.935,-2.0125
263,10263601,0.9633120999999999,0.09162200000000001,-0.230702,0.665,-4.655,-1.9425
264,10263697,0.961116,0.087474,-0.23021399999999997,0.805,-4.5325,-1.9775
265,10263794,0.958432,0.086132,-0.230458,0.98,-4.62,-2.1
266,10263891,0.9587979999999999,0.08637601,-0.22935999999999998,1.1375,-4.8475,-2.4325
267,10263987,0.9577,0.08698601,-0.229238,1.1375,-5.25,-2.73
268,10264084,0.9600181000000001,0.088328,-0.22935999999999998,1.015,-5.5125,-3.0975
269,10264181,0.9635560999999999,0.089304,-0.231068,0.945,-5.81,-3.3425
270,10264278,0.9686799999999999,0.08918200000000001,-0.229604,0.8225,-6.09,-3.535
271,10264374,0.9730721,0.09162200000000001,-0.230458,0.56,-6.2475,-3.64
272,10264471,0.9753901,0.09150001,-0.232044,0.3325,-6.1075,-3.4475
273,10264568,0.9785620999999999,0.09259801,-0.228994,0.105,-5.4425,-3.185
274,10264664,0.976366,0.09516001,-0.22862800000000003,-0.0525,-4.725,-2.87
275,10264761,0.973316,0.09272000000000001,-0.23021399999999997,-0.2275,-4.27,-2.695
276,10264858,0.971242,0.09089001,-0.22935999999999998,-0.07,-4.0075,-2.6075
277,10264955,0.9697780999999999,0.089304,-0.22996999999999998,0.245,-3.99,-2.52
278,10265051,0.9691681000000001,0.08893801,-0.229238,0.525,-4.4275,-2.5375
279,10265148,0.969046,0.087962,-0.228384,0.6125,-4.9,-2.695
280,10265245,0.97173,0.08881599,-0.230336,0.7525,-5.32,-2.87
281,10265341,0.972706,0.08857201,-0.23167800000000002,0.8925,-5.635,-2.94
282,10265438,0.9768540000000001,0.08771799999999999,-0.23021399999999997,0.7175,-5.705,-3.08
283,10265535,0.975634,0.089426,-0.230946,0.4375,-5.5125,-3.185
284,10265632,0.9720960999999999,0.08954801,-0.23082399999999997,-0.0175,-5.32,-3.2375
285,10265728,0.9705101,0.08881599,-0.23228800000000002,-0.28,-5.18,-3.3075
286,10265825,0.9663620999999999,0.089426,-0.23472800000000002,-0.3675,-5.2325,-3.3775
287,10265922,0.96319,0.087352,-0.234362,-0.3325,-5.4775,-3.43
288,10266018,0.9636780999999999,0.08637601,-0.234118,-0.0875,-5.67,-3.3775
289,10266115,0.9655081,0.08698601,-0.233386,0.0525,-5.9675,-3.3425
290,10266212,0.9652639999999999,0.087962,-0.231068,0.1575,-6.2125,-3.2375
291,10266309,0.9642879999999999,0.09052401,-0.22801799999999997,0.245,-6.2125,-3.22
292,10266405,0.9622141,0.090768,-0.22667600000000002,0.1575,-6.09,-3.2025
293,10266502,0.9580661,0.091134,-0.22777399999999998,0.0875,-5.775,-3.185
294,10266599,0.956968,0.089914,-0.22643200000000002,0.0175,-5.425,-3.08
295,10266695,0.9564799999999999,0.08893801,-0.224846,0.0,-5.285,-3.08
296,10266792,0.9581881,0.08698601,-0.226188,0.0175,-5.18,-3.2375
297,10266889,0.9605060999999999,0.08784,-0.22789600000000002,-0.1575,-5.1975,-3.2025
298,10266986,0.962458,0.089304,-0.227408,-0.4025,-5.005,-3.2375
299,10267082,0.9618481,0.091744,-0.226554,-0.63,-4.83,-3.325
300,10267179,0.9609940999999999,0.09345201,-0.228262,-0.8225,-4.445,-3.36
301,10267276,0.9625799999999999,0.09272000000000001,-0.22667600000000002,-0.6125,-4.305,-3.465
302,10267373,0.9613601,0.096868,-0.22411399999999998,-0.525,-4.6725,-3.535
303,10267469,0.9586761,0.09930800000000001,-0.22118600000000002,-0.7525,-4.97,-3.43
304,10267566,0.9563581,0.101748,-0.220088,-1.1025,-4.7425,-3.43
305,10267663,0.9547720999999999,0.104066,-0.212646,-1.6275,-4.515,-3.395
306,10267759,0.9530641,0.10187,-0.214232,-2.2575,-4.3225,-3.4825
307,10267856,0.948306,0.101138,-0.21777,-2.6425,-4.3925,-3.22
308,10267953,0.948184,0.104798,-0.21581799999999998,-3.08,-4.2525,-3.115
309,10268049,0.9519661,0.10723800000000001,-0.222162,-3.2725,-4.69,-2.94
310,10268146,0.9587979999999999,0.108946,-0.232776,-3.1675,-6.02,-2.6075
311,10268243,0.9678261,0.112606,-0.231312,-3.1675,-7.2975,-2.3975
312,10268340,0.9777081,0.11614400000000001,-0.23119,-2.59,-8.68,-2.275
313,10268436,0.98759,0.12248800000000001,-0.231068,-1.47,-10.3775,-2.24
314,10268533,0.9940559999999999,0.12749000000000002,-0.226066,-0.455,-12.7225,-2.3625
315,10268630,0.9980821,0.13298,-0.22496799999999997,-0.1225,-14.84,-2.2225
316,10268726,1.000278,0.132614,-0.22643200000000002,-0.3325,-15.925,-2.17
317,10268823,0.9975940999999999,0.13176,-0.22509,-0.77,-16.5025,-1.9425
318,10268920,0.9913719999999999,0.128588,-0.220698,-1.9775,-17.36,-1.75
319,10269017,0.982466,0.12468399999999999,-0.223748,-2.7125,-18.095,-1.33
320,10269113,0.9757561,0.121024,-0.221552,-3.43,-18.655,-0.56
321,10269210,0.966728,0.124074,-0.22143000000000002,-4.4625,-18.9,0.2625
322,10269307,0.9683141,0.12505,-0.22033200000000003,-4.655,-17.7975,0.77
323,10269404,0.97783,0.110044,-0.21594000000000002,-3.01,-15.715,0.7525
324,10269500,0.9874681000000001,0.09381801,-0.20435,-0.875,-14.91,0.49
325,10269597,0.995398,0.081862,-0.198006,0.9275,-15.5225,0.1575
326,10269694,1.008208,0.077714,-0.193858,1.4,-16.38,-0.07
327,10269790,1.012844,0.081496,-0.188978,0.7875,-16.7475,-0.4375
328,10269887,1.00345,0.08784,-0.185684,0.0525,-16.975,-0.7175
329,10269984,0.9884440000000001,0.08649801,-0.18422,-0.455,-16.5375,-0.98
330,10270081,0.9716081,0.086132,-0.188978,-1.155,-15.61,-1.1725
331,10270177,0.9585541,0.087474,-0.191662,-2.03,-14.805,-1.3825
332,10270274,0.9492821,0.08820599999999999,-0.191174,-2.8,-14.245,-1.47
333,10270371,0.9343981,0.08332601,-0.19032000000000002,-3.85,-14.28,-1.61
334,10270467,0.921222,0.079666,-0.195444,-4.83,-13.86,-1.925
335,10270564,0.91012,0.070516,-0.19276,-5.2675,-12.565,-2.45
336,10270661,0.903166,0.062341999999999995,-0.19032000000000002,-5.0225,-11.165,-3.1675
337,10270758,0.8962120000000001,0.053191999999999996,-0.190076,-4.5325,-10.1675,-3.99
338,10270854,0.898164,0.047214,-0.194468,-3.465,-9.2225,-5.1625
339,10270951,0.906948,0.041602,-0.22118600000000002,-1.89,-9.5725,-6.37
340,10271048,0.91622,0.039162,-0.253882,-0.175,-11.5325,-7.5775
341,10271145,0.93147,0.052338,-0.269986,1.6625,-13.6675,-8.96
342,10271241,0.944768,0.077592,-0.27816,3.3075,-15.7675,-10.5525
343,10271338,0.9525761,0.10638399999999999,-0.281942,4.48,-17.5175,-12.4075
344,10271435,0.966606,0.129076,-0.284138,6.5625,-17.535,-14.315
345,10271531,0.982466,0.14701,-0.29585,8.785,-17.7275,-15.8375
346,10271628,0.999668,0.159088,-0.29792399999999997,10.6575,-18.69,-16.695
347,10271725,1.013332,0.171532,-0.28462600000000005,12.74,-19.6175,-16.905
348,10271822,1.029802,0.180316,-0.261934,14.77,-20.3175,-16.8525
349,10271918,1.042734,0.17543599999999998,-0.254614,16.9575,-21.0525,-16.59
350,10272015,1.0473700000000001,0.160918,-0.242902,18.7775,-21.14,-15.75
351,10272112,1.042856,0.131272,-0.238998,19.3725,-21.0,-14.5775
352,10272209,1.040538,0.100162,-0.239242,19.2675,-20.4925,-13.2825
353,10272305,1.039074,0.07588400000000001,-0.243024,19.18,-19.53,-12.18
354,10272402,1.030046,0.049288,-0.24156,19.0925,-18.1125,-11.0075
355,10272499,1.018456,0.027206,-0.238632,19.075,-17.15,-10.1325
356,10272596,0.9994241,0.012322,-0.228384,19.1625,-16.3975,-9.17
357,10272692,0.9829540000000001,0.007076001,-0.22472399999999998,18.935,-16.5725,-8.3475
358,10272789,0.9648979999999999,0.008418,-0.223992,18.935,-16.66,-7.1225
359,10272886,0.9530641,0.005856,-0.22557800000000003,18.2875,-15.6625,-6.09
360,10272982,0.945744,0.015616,-0.232898,16.975,-14.9975,-5.425
361,10273079,0.936594,0.019275999999999998,-0.24046199999999998,16.03,-15.3825,-4.865
362,10273176,0.9302501,0.011346,-0.24156,15.225,-16.0125,-4.62
363,10273272,0.9295180000000001,0.008784,-0.239242,14.0,-15.925,-4.9175
364,10273369,0.9320801,0.000366,-0.238998,13.0725,-15.9425,-5.1275
365,10273466,0.937448,-0.00122,-0.23448400000000003,11.97,-15.925,-5.6
366,10273563,0.940742,0.000244,-0.226554,10.8325,-15.68,-6.23
367,10273659,0.9436701,0.009272001,-0.22143000000000002,9.45,-15.6625,-6.7375
368,10273756,0.9436701,0.021106,-0.216916,8.26,-15.295,-6.825
369,10273853,0.947574,0.0244,-0.21606199999999998,7.3325,-14.525,-7.0175
370,10273950,0.9511120000000001,0.022203999999999998,-0.21752600000000002,6.6325,-14.07,-7.0525
371,10274046,0.9530641,0.016714,-0.21533000000000002,5.915,-13.8425,-6.965
372,10274143,0.954284,0.006832001,-0.21801399999999999,5.39,-13.9125,-7.035
373,10274240,0.955626,-0.001586,-0.22167399999999998,4.4275,-13.9825,-7.2275
374,10274336,0.9547720999999999,-0.00305,-0.21825799999999998,3.29,-13.895,-7.4025
375,10274433,0.952942,-0.011468,-0.214232,1.9775,-14.14,-7.5775
376,10274530,0.949526,-0.01464,-0.219478,-0.245,-14.56,-7.4725
377,10274627,0.9444020000000001,-0.013541999999999998,-0.219966,-2.52,-14.8575,-7.2275
378,10274723,0.9429379999999999,-0.008662000999999999,-0.21533000000000002,-4.7075,-14.875,-7.07
379,10274820,0.940742,-0.004148001,-0.214232,-6.5275,-14.805,-6.9125
380,10274917,0.9348860999999999,0.001098,-0.217282,-8.12,-14.4725,-6.65
381,10275013,0.926834,-0.001952,-0.21520799999999998,-9.3625,-13.7375,-6.1775
382,10275110,0.9131700999999999,0.001342,-0.219234,-10.745,-13.02,-5.53
383,10275207,0.9001161,0.007198,-0.22106399999999998,-11.6725,-12.18,-4.97
384,10275304,0.8907221,0.008906,-0.225212,-12.285,-11.0775,-4.6375
385,10275400,0.8869401,0.015006,-0.225456,-12.5125,-10.36,-4.6375
386,10275497,0.8862081,0.012078,-0.229238,-12.3375,-10.6225,-5.2675
387,10275594,0.8907221,0.020862000000000002,-0.235094,-12.495,-11.4975,-6.545
388,10275691,0.8975540000000001,0.024278,-0.244854,-12.3375,-12.0225,-8.12
389,10275787,0.909998,0.019154,-0.254858,-11.55,-12.8625,-9.7125
390,10275884,0.921344,0.017812,-0.266326,-10.92,-14.4375,-10.885
391,10275981,0.9391560999999999,0.036233999999999995,-0.263886,-10.4825,-15.645,-12.0225
392,10276078,0.966728,0.055022,-0.24912399999999998,-9.6075,-15.785,-13.0025
393,10276174,0.990274,0.077836,-0.24278000000000002,-8.855,-15.295,-13.72
394,10276271,1.021994,0.092964,-0.263886,-8.2425,-14.245,-14.805
395,10276368,1.057496,0.08576601,-0.311954,-7.42,-14.35,-15.68
396,10276464,1.085312,0.084912,-0.377712,-6.8075,-15.05,-16.1525
397,10276561,1.104832,0.08454600000000001,-0.477142,-3.885,-16.555,-16.5375
398,10276658,1.130574,0.097478,-0.46030600000000005,-1.0325,-19.4775,-16.4325
399,10276755,1.185474,0.149084,-0.381738,2.8,-20.545,-15.7325
400,10276851,1.226832,0.17946199999999998,-0.34099,5.705,-20.1425,-14.1925
401,10276948,1.266238,0.232654,-0.343186,11.6725,-13.7375,-8.75
402,10277045,1.170224,0.286456,-0.378932,15.6975,-7.49,-1.925
403,10277141,0.995886,0.199714,-0.446154,1.82,-6.4925,-3.325
404,10277238,0.971242,0.130296,-0.449082,-5.67,-3.815,-7.105
405,10277335,0.938058,0.08808401,-0.394914,-3.2025,-5.6,-11.4975
406,10277432,0.9152440000000001,0.07991000000000001,-0.46421,-2.4325,-18.4975,-17.4125
407,10277528,0.9967401,0.023546,-0.634644,0.0525,-27.615,-17.22
408,10277625,0.975024,-0.028669999999999998,-0.516914,-2.3275,-23.38,-10.955
409,10277722,0.9292739999999999,-0.044774,-0.483242,-7.7,-16.1525,-8.75
410,10277819,0.88999,0.009272001,-0.533262,-12.9675,-19.635,-7.6475
411,10277915,0.8721780000000001,0.102724,-0.552294,-19.04,-22.6625,-3.36
412,10278012,0.813984,0.18117,-0.552294,-21.7,-22.9775,1.8025
413,10278109,0.7625,0.254736,-0.546926,-22.365,-23.7475,5.3725
414,10278205,0.756034,0.30487800000000004,-0.540704,-20.09,-23.1525,8.7325
415,10278302,0.7795801,0.329644,-0.545706,-15.9775,-20.895,11.48
416,10278399,0.8084939999999999,0.334158,-0.545462,-11.2,-18.5675,13.0025
417,10278496,0.834968,0.334768,-0.5479021,-6.755,-17.115,12.9325
418,10278592,0.8410681000000001,0.33171799999999996,-0.559858,-3.3425,-16.3975,11.69
419,10278689,0.8414341000000001,0.319884,-0.585356,-0.35,-16.59,8.6275
420,10278786,0.8514379999999999,0.312686,-0.5627861,1.5225,-16.555,4.1825
421,10278882,0.846558,0.30866,-0.556076,1.9425,-16.03,-1.4875
422,10278979,0.833382,0.290116,-0.539484,2.66,-14.7,-7.385
423,10279076,0.8203280000000001,0.248148,-0.5282600000000001,3.815,-13.51,-13.02
424,10279173,0.812032,0.209718,-0.511302,5.215,-12.2675,-17.605
425,10279269,0.800442,0.198738,-0.49556400000000006,5.7225,-11.06,-20.79
426,10279366,0.7856801,0.215452,-0.474946,5.4075,-10.01,-22.4175
427,10279463,0.7712840999999999,0.239608,-0.46042799999999995,4.095,-8.47,-22.2775
428,10279560,0.762378,0.252052,-0.439566,2.8875,-6.5625,-21.0175
429,10279656,0.74847,0.262056,-0.43346599999999996,2.5025,-3.605,-18.3575
430,10279753,0.7376119999999999,0.252662,-0.43188000000000004,2.73,-0.665,-16.52
431,10279850,0.728096,0.245342,-0.43639399999999995,2.7825,1.6275,-14.3325
432,10279946,0.72102,0.23387399999999997,-0.43468599999999996,2.7825,4.2,-12.2675
433,10280043,0.7217521,0.226188,-0.4453,3.85,6.8075,-10.8325
434,10280140,0.7259001,0.228506,-0.458232,4.69,7.455,-9.205
435,10280237,0.739564,0.234362,-0.46238,5.9325,6.685,-7.525
436,10280333,0.757254,0.242292,-0.468602,7.21,4.83,-5.95
437,10280430,0.7836061,0.249734,-0.47043199999999996,8.365,2.94,-4.375
438,10280527,0.812154,0.255956,-0.46201400000000004,9.9575,2.38,-2.87
439,10280623,0.835456,0.26095799999999997,-0.445666,11.0075,3.99,-1.9425
440,10280720,0.841678,0.250954,-0.437126,12.215,6.44,-1.575
441,10280817,0.838628,0.24192600000000003,-0.42895200000000006,12.8625,7.9975,-1.925
442,10280914,0.835822,0.23301999999999998,-0.428464,13.0375,8.5925,-2.8
443,10281010,0.834724,0.219478,-0.423828,12.5825,8.8725,-3.7975
444,10281107,0.8357,0.20508200000000001,-0.411384,11.515,9.835,-4.8125
445,10281204,0.8413120000000001,0.18446400000000002,-0.427976,10.4475,10.64,-5.845
446,10281300,0.8414341000000001,0.166042,-0.43334399999999995,9.73,10.36,-6.3875
447,10281397,0.8400921,0.16128399999999998,-0.418216,8.8725,9.555,-6.7725
448,10281494,0.8432639999999999,0.166408,-0.41846000000000005,7.6825,8.085,-6.7025
449,10281591,0.84424,0.169214,-0.42065600000000003,6.5275,6.23,-5.5475
450,10281687,0.8433860999999999,0.169824,-0.420412,5.3025,4.795,-4.13
451,10281784,0.8497299999999999,0.169336,-0.421266,4.0075,3.5175,-2.5375
452,10281881,0.8613200000000001,0.167384,-0.415166,3.0275,2.87,-0.875
453,10281977,0.877912,0.169214,-0.41382399999999997,1.9775,2.7475,0.63
454,10282074,0.892552,0.167872,-0.409188,0.9275,1.8375,1.82
455,10282171,0.9042641,0.163846,-0.402844,0.0525,0.9975,2.765
456,10282268,0.907436,0.166286,-0.393816,-0.98,0.665,3.3775
457,10282364,0.9091440000000001,0.176778,-0.385398,-2.555,0.7175,3.5175
458,10282461,0.9067040000000001,0.183732,-0.382592,-3.5175,0.8925,3.325
459,10282558,0.899384,0.1952,-0.383202,-3.7625,1.0325,2.87
460,10282654,0.8893800999999999,0.21106,-0.379664,-3.9375,0.3325,2.0825
461,10282751,0.8808401,0.21886799999999998,-0.37393000000000004,-3.605,-0.2625,1.225
462,10282848,0.8753501,0.22509,-0.371856,-2.9575,-0.455,0.385
463,10282945,0.8708360999999999,0.22386999999999999,-0.37417399999999995,-2.835,-1.5225,-0.0525
464,10283041,0.8740081000000001,0.215452,-0.37332,-2.8175,-2.8175,-0.385
465,10283138,0.8877940000000001,0.20679,-0.377346,-3.08,-4.1825,-0.5425
466,10283235,0.910974,0.199104,-0.382592,-3.2725,-5.39,-0.315
467,10283331,0.9347639999999999,0.19178399999999998,-0.387716,-3.0625,-6.23,0.07
468,10283428,0.953308,0.1891,-0.388326,-2.765,-6.9825,0.3325
469,10283525,0.9630681000000001,0.188246,-0.389912,-2.6075,-7.49,0.6125
470,10283622,0.9609940999999999,0.190808,-0.384788,-2.38,-7.4375,0.9275
471,10283718,0.9505020000000001,0.194346,-0.378932,-1.89,-7.1925,0.77
472,10283815,0.9354959999999999,0.198128,-0.373564,-1.3125,-7.0175,0.455
473,10283912,0.9256141,0.208864,-0.36539,-1.575,-7.9975,0.0875
474,10284008,0.919026,0.21618400000000002,-0.35977800000000004,-2.7475,-9.8175,-0.385
475,10284105,0.9150001,0.217038,-0.346724,-4.0775,-10.6575,-0.5425
476,10284202,0.9063379999999999,0.21752600000000002,-0.335744,-5.04,-10.115,-0.1575
477,10284298,0.9026780000000001,0.19251600000000002,-0.324154,-5.5475,-9.275,-0.8225
478,10284395,0.8987741,0.17397200000000002,-0.314394,-5.005,-8.9775,-1.68
479,10284492,0.8969440000000001,0.164944,-0.310246,-4.6725,-9.45,-2.3275
480,10284589,0.899384,0.158722,-0.310856,-4.515,-10.3425,-3.0625
481,10284685,0.9051181,0.16104000000000002,-0.305,-4.8825,-11.8825,-3.2375
482,10284782,0.9134141,0.170678,-0.294142,-5.495,-13.2825,-2.8
483,10284879,0.9209780000000001,0.180072,-0.29292199999999996,-6.3875,-14.21,-2.065
484,10284975,0.9262239999999999,0.176046,-0.293288,-7.035,-14.5425,-1.5225
485,10285072,0.9290299999999999,0.1769,-0.302316,-7.6475,-15.33,-0.4375
486,10285169,0.9331780000000001,0.177144,-0.29682600000000003,-8.435,-16.31,0.4375
487,10285266,0.937326,0.17507,-0.294996,-9.135,-16.415,0.8925
488,10285362,0.940254,0.171044,-0.293898,-10.325,-15.47,1.7675
489,10285459,0.93696,0.164822,-0.29743600000000003,-11.4275,-14.7875,2.52
490,10285556,0.9262239999999999,0.163114,-0.298046,-11.9875,-14.42,3.0975
491,10285652,0.9112181,0.167628,-0.295118,-11.97,-14.9625,3.6225
492,10285749,0.9030440000000001,0.171776,-0.28609,-12.005,-15.33,3.8325
493,10285846,0.898042,0.182268,-0.276574,-11.7425,-14.945,4.0075
494,10285943,0.909998,0.184586,-0.257664,-10.4825,-13.79,3.92
495,10286039,0.9231739999999999,0.190076,-0.251686,-9.24,-12.46,3.92
496,10286136,0.9357401,0.198982,-0.250832,-7.7175,-12.32,4.235
497,10286233,0.9384239999999999,0.205936,-0.259494,-6.2475,-12.46,5.11
498,10286329,0.9317141,0.21862399999999999,-0.266692,-6.02,-12.355,6.615
499,10286426,0.9174399999999999,0.226066,-0.274622,-6.4575,-11.97,8.2075
500,10286523,0.904508,0.22204000000000002,-0.275598,-5.32,-10.2375,9.6075
501,10286619,0.8903561,0.219112,-0.271328,-2.9925,-7.84,10.745
502,10286716,0.8727879999999999,0.226554,-0.268522,-0.42,-4.8125,11.2175
503,10286813,0.859002,0.22814,-0.263154,2.555,-1.5575,11.165
504,10286910,0.8552200000000001,0.227408,-0.24949000000000002,5.8275,1.2075,10.85
505,10287006,0.856196,0.228384,-0.236558,9.555,2.4325,10.4475
506,10287103,0.8636379999999999,0.229604,-0.21752600000000002,13.7375,2.765,10.3425
507,10287200,0.8841341,0.223138,-0.197884,16.6075,2.4325,10.6575
508,10287297,0.9021899999999999,0.233264,-0.2013,18.0425,1.33,11.6725
509,10287393,0.9241501,0.252784,-0.22448,16.9225,0.8225,13.195
510,10287490,0.9528200000000001,0.271206,-0.29133600000000004,14.21,2.52,14.3325
511,10287587,0.975024,0.269254,-0.436638,10.85,6.02,14.14
512,10287683,1.031388,0.211304,-0.46616199999999997,4.1125,8.925,11.935
513,10287780,1.081896,0.121268,-0.45127799999999996,-3.185,6.5975,8.785
514,10287877,1.162416,0.013908000000000002,-0.374296,-6.16,4.8475,3.85
515,10287974,1.266238,-0.097722,-0.335866,-8.3825,8.1725,-2.135
516,10288070,1.270142,-0.100162,-0.360388,-12.7925,13.475,-6.685
517,10288167,1.209508,-0.029524,-0.34648,-16.8175,19.215,-7.6125
518,10288264,1.12667,0.041114,-0.35831399999999997,-19.95,20.1775,-4.9875
519,10288361,1.04188,0.09991799999999999,-0.40504,-21.07,15.925,0.07
520,10288457,0.9934460999999999,0.13237000000000002,-0.458476,-20.2475,7.8925,5.39
521,10288554,0.9764879999999999,0.147742,-0.49849209999999994,-18.3925,-0.6825,8.995
522,10288651,0.993812,0.142374,-0.508374,-16.1875,-7.3325,10.395
523,10288747,1.011624,0.134078,-0.49776000000000004,-12.67,-9.3975,10.045
524,10288844,1.018456,0.141032,-0.46481999999999996,-8.5925,-9.31,8.6625
525,10288941,1.003328,0.14884,-0.451888,-5.7575,-9.1875,7.0875
526,10289038,0.9590420000000001,0.137006,-0.43358800000000003,-3.325,-8.3475,6.2475
527,10289134,0.904752,0.115534,-0.405406,-1.9425,-6.2475,5.355
528,10289231,0.856806,0.080764,-0.4026,-0.56,-4.13,5.1275
529,10289328,0.813496,0.05453401,-0.404552,0.77,-3.4825,5.1625
530,10289424,0.785558,0.041114,-0.39271799999999996,1.82,-4.83,5.1625
531,10289521,0.771772,0.034526,-0.385276,2.8525,-7.21,4.935
532,10289618,0.763476,0.029889999999999996,-0.393938,3.815,-10.255,4.305
533,10289715,0.765672,0.021106,-0.380274,4.375,-13.02,3.675
534,10289811,0.7861680999999999,0.021106,-0.364048,4.655,-14.175,3.115
535,10289908,0.8194739999999999,0.013786000000000001,-0.363072,4.1475,-14.56,2.3975
536,10290005,0.8552200000000001,0.0051240009999999996,-0.369172,3.15,-15.61,1.6625
537,10290101,0.8977980999999999,0.000122,-0.37515,2.4675,-15.575,0.91
538,10290198,0.917074,0.004148001,-0.376492,2.2925,-15.295,-0.4375
539,10290295,0.9237841,0.008296000999999999,-0.36807399999999996,3.36,-15.19,-2.0475
540,10290392,0.9117061,0.013175999999999998,-0.355996,4.06,-15.75,-3.045
541,10290488,0.8757159999999999,0.029524,-0.337818,4.8475,-15.75,-3.0625
542,10290585,0.8436299999999999,0.049166,-0.326106,5.705,-14.525,-2.45
543,10290682,0.8174001000000001,0.065026,-0.312442,6.51,-11.865,-1.3475
544,10290778,0.7999539999999999,0.060877999999999995,-0.30317,8.75,-8.8025,-0.77
545,10290875,0.790682,0.051484,-0.298046,11.5675,-6.6325,-0.7875
546,10290972,0.7865340000000001,0.032208,-0.29731399999999997,14.0175,-5.8275,-2.135
547,10291068,0.795806,0.01525,-0.290482,15.9075,-5.8275,-4.305
548,10291165,0.8094701,0.004636001,-0.280478,16.8,-6.3875,-6.93
549,10291262,0.8248421,0.004392,-0.273768,16.45,-8.0325,-9.94
550,10291359,0.8377741,0.01037,-0.274378,14.56,-9.9925,-12.985
551,10291455,0.84851,0.008296000999999999,-0.272548,13.3875,-10.6225,-15.1025
552,10291552,0.856806,0.00549,-0.268522,12.0225,-9.94,-16.6775
553,10291649,0.869128,0.009516001,-0.265228,10.08,-8.4,-17.605
554,10291745,0.8819381,-0.006954000000000001,-0.27071799999999996,9.24,-6.615,-18.27
555,10291842,0.8834021000000001,-0.020618,-0.25302800000000003,8.1025,-5.0225,-18.9525
556,10291939,0.8965780000000001,-0.030378,-0.24778200000000003,7.525,-2.1175,-19.775
557,10292036,0.9113399999999999,-0.03294,-0.23424,6.405,-0.9275,-19.88
558,10292132,0.9262239999999999,-0.009028000999999999,-0.22277199999999997,2.8,-1.3475,-19.0925
559,10292229,0.9465981,0.004758,-0.230702,-1.96,-0.805,-18.3925
560,10292326,0.971242,0.007686,-0.242536,-6.475,1.505,-17.71
561,10292422,0.97356,0.00488,-0.264008,-10.8675,3.22,-17.2025
562,10292519,0.967094,0.010004,-0.272304,-14.5425,5.0575,-16.6425
563,10292616,0.959774,0.028304000000000003,-0.271694,-16.03,7.595,-16.31
564,10292712,0.9566020000000001,0.03843,-0.26961999999999997,-14.5775,10.0275,-15.4875
565,10292809,0.9557479999999999,0.026962,-0.263642,-10.78,12.2325,-14.455
566,10292906,0.976366,0.016347999999999998,-0.22728600000000002,-6.055,13.09,-13.86
567,10293003,1.0121120000000001,0.042578,-0.212036,-3.3425,11.725,-13.9825
568,10293099,1.05164,0.064294,-0.22423600000000002,-2.66,8.1725,-15.0675
569,10293196,1.097634,0.10065,-0.262788,-5.32,5.11,-16.0825
570,10293293,1.158512,0.147498,-0.45762200000000003,-7.2275,2.8875,-15.68
571,10293389,1.166442,0.162748,-0.5413140000000001,-9.6075,-1.855,-12.5125
572,10293486,1.112396,0.14993800000000002,-0.48519399999999996,-15.6625,-3.0975,-9.8175
573,10293583,1.081896,0.098942,-0.620004,-15.0675,-0.21,-10.885
574,10293680,1.0706719999999998,0.078446,-0.767502,-7.9625,-1.855,-9.59
575,10293776,1.046028,0.175314,-0.6362300000000001,-6.09,-6.125,-5.9675
576,10293873,1.107272,0.354898,-0.45896400000000004,-3.64,-2.8175,-4.6725
577,10293970,1.13155,0.463966,-0.36783000000000005,0.7175,5.88,-2.6425
578,10294067,0.9939341,0.342942,-0.323422,6.9125,9.17,1.4175
579,10294163,0.8620521000000001,0.214598,-0.45762200000000003,11.0425,4.515,3.8325
580,10294260,0.7700640999999999,0.125416,-0.520208,13.895,-2.2925,5.425
581,10294357,0.756034,0.129198,-0.490684,14.42,-6.335,5.5125
582,10294453,0.815692,0.14823,-0.49605200000000005,17.255,-8.575,4.41
583,10294550,0.9009700999999999,0.145424,-0.501054,18.9,-11.305,5.4425
584,10294647,0.965996,0.129076,-0.48983000000000004,18.165,-12.88,7.9975
585,10294743,1.023946,0.12712400000000001,-0.497638,17.0975,-13.5625,10.6925
586,10294840,1.078236,0.12529400000000002,-0.5058121,16.24,-12.46,12.285
587,10294937,1.093608,0.0976,-0.48519399999999996,14.945,-8.82,10.255
588,10295034,1.065792,0.05246,-0.442616,13.7375,-3.675,3.4125
589,10295130,1.031754,0.026474,-0.41272600000000004,12.7575,-0.14,-5.6
590,10295227,0.978684,0.047092,-0.39223,11.9,0.7,-13.1075
591,10295324,0.9171961,0.08527801,-0.364536,10.6575,0.42,-18.1125
592,10295420,0.8591241,0.130296,-0.33916,9.1,-0.49,-20.755
593,10295517,0.80703,0.170922,-0.319884,7.525,-1.75,-21.0
594,10295614,0.765062,0.200812,-0.309758,6.79,-3.2025,-19.775
595,10295711,0.7388319999999999,0.220698,-0.298656,7.7525,-4.9875,-17.7275
596,10295807,0.7283400999999999,0.23741199999999998,-0.288774,9.065,-6.2825,-15.05
597,10295904,0.72468,0.245342,-0.27999,10.8325,-6.3875,-11.515
598,10296001,0.726144,0.249246,-0.27694,12.81,-6.055,-8.19
599,10296097,0.73383,0.234362,-0.26900999999999997,15.61,-5.6525,-4.935
600,10296194,0.74603,0.21362199999999998,-0.261324,18.3575,-5.11,-1.89
601,10296291,0.769942,0.189832,-0.25254,20.86,-3.92,-0.4025
602,10296388,0.79422,0.15677,-0.241682,23.24,-2.6775,0.7525
603,10296484,0.82045,0.131394,-0.23058,24.5875,-1.8725,0.875
604,10296581,0.8371639999999999,0.116998,-0.22167399999999998,25.06,-0.2975,1.0675
605,10296678,0.8491200000000001,0.101138,-0.211304,25.06,1.96,0.2975
606,10296774,0.8486319999999999,0.089304,-0.21679400000000001,24.465,4.795,-0.455
607,10296871,0.8377741,0.081862,-0.207644,23.625,7.245,-0.98
608,10296968,0.826916,0.09052401,-0.19739600000000002,22.7675,9.415,-1.3825
609,10297065,0.8178880999999999,0.107482,-0.204228,22.785,10.745,-2.1175
610,10297161,0.8211821,0.119926,-0.19580999999999998,23.59,11.1825,-3.045
611,10297258,0.829966,0.13664,-0.203618,24.5875,11.8475,-3.395
612,10297355,0.8426540000000001,0.140666,-0.20752199999999998,25.97,13.0375,-3.045
613,10297451,0.8524139999999999,0.13115,-0.203008,27.9825,14.3675,-2.24
614,10297548,0.8625401,0.12053599999999999,-0.20679,29.54,15.085,-1.085
615,10297645,0.8847440999999999,0.103822,-0.21838000000000002,31.01,14.945,-0.07
616,10297742,0.9173181,0.08052000000000001,-0.21386599999999997,31.955,14.3325,0.7
617,10297838,0.9500139999999999,0.05929201,-0.195078,33.0925,14.5775,1.4
618,10297935,0.989176,0.046604,-0.186416,33.4775,15.4175,1.225
619,10298032,1.036024,0.043554,-0.160552,31.8675,14.77,0.0875
620,10298128,1.058716,0.049288,-0.12932000000000002,27.475,12.7225,-0.9625
621,10298225,1.074942,0.033794,-0.128832,22.6625,10.325,-1.855
622,10298322,1.093852,0.030987999999999998,-0.1403,19.1975,7.98,-2.7125
623,10298419,1.108858,0.050142,-0.182268,15.6275,5.32,-2.8175
624,10298515,1.120204,0.08967,-0.335744,11.7425,1.89,-3.045
625,10298612,1.151802,0.127246,-0.49654,5.985,-1.54,-3.6575
626,10298709,1.209142,0.11407,-0.523502,-2.66,-6.6675,-5.1275
627,10298805,1.267336,0.079422,-0.55266,-7.455,-10.0625,-8.4
628,10298902,1.319308,0.0366,-0.53314,-6.5275,-5.5125,-12.8975
629,10298999,1.321504,0.048556,-0.5252100000000001,-10.1325,-2.1175,-16.73
630,10299096,1.263188,0.053436000000000004,-0.483242,-14.1225,-2.45,-16.8
631,10299192,1.1740059999999999,-0.008784,-0.482022,-15.2775,-2.3625,-12.8975
632,10299289,1.08946,-0.069174,-0.43053800000000003,-18.41,-0.7,-7.875
633,10299386,0.995886,-0.032086,-0.45274200000000003,-19.285,-2.3275,-3.3075
634,10299483,0.9343981,0.029768,-0.443226,-19.88,-7.28,0.0
635,10299579,0.904752,0.035868000000000004,-0.392352,-21.7875,-13.265,2.6075
636,10299676,0.8935280999999999,0.045994,-0.386984,-23.555,-12.6525,3.955
637,10299773,0.9121940999999999,0.077836,-0.400282,-26.5125,-10.4825,2.03
638,10299869,0.9317141,0.140666,-0.407968,-30.0475,-11.5675,-2.1525
639,10299966,0.9357401,0.182146,-0.42395,-30.73,-14.735,-5.6
640,10300063,0.94245,0.190564,-0.432246,-29.3125,-18.655,-7.1925
641,10300159,0.9464761,0.186538,-0.437126,-26.74,-22.3475,-6.405
642,10300256,0.9596520000000001,0.18544000000000002,-0.42944,-23.1525,-25.48,-4.1825
643,10300353,0.9730721,0.174582,-0.396622,-18.445,-27.5975,-0.49
644,10300450,0.975512,0.152988,-0.36441399999999996,-14.3675,-27.9125,3.3775
645,10300546,0.9581881,0.12358599999999999,-0.338672,-11.5325,-26.3025,6.51
646,10300643,0.9386681,0.077348,-0.318664,-10.1325,-23.7475,8.26
647,10300740,0.924516,0.021472,-0.307562,-9.6075,-19.74,8.2775
648,10300836,0.898042,-0.02745,-0.285236,-10.01,-15.015,6.7375
649,10300933,0.8547319999999999,-0.051118000000000004,-0.263398,-11.795,-11.34,4.83
650,10301030,0.806054,-0.053314,-0.25058800000000003,-14.4025,-9.59,3.0975
651,10301127,0.764452,-0.045262000000000004,-0.24278000000000002,-17.115,-8.995,2.1175
652,10301223,0.731634,-0.026962,-0.24778200000000003,-19.0925,-8.8025,1.715
653,10301320,0.7135779999999999,-0.02562,-0.25046599999999997,-20.615,-8.4,1.82
654,10301417,0.7095520000000001,-0.015982,-0.24766,-21.63,-7.595,2.485
655,10301513,0.7108941,0.001342,-0.241682,-22.19,-7.6825,3.3425
656,10301610,0.724924,0.01464,-0.23119,-22.9775,-7.735,3.64
657,10301707,0.7435901,0.033306,-0.230336,-23.8175,-6.79,3.22
658,10301803,0.759572,0.042334,-0.23887600000000003,-24.15,-5.5825,2.52
659,10301900,0.777262,0.053436000000000004,-0.234362,-24.4475,-3.605,0.8400001
660,10301997,0.7953180000000001,0.07112601,-0.22448,-23.975,-0.455,-0.9275
661,10302094,0.805932,0.103578,-0.22082,-24.2375,0.7525,-2.38
662,10302190,0.806542,0.131394,-0.214598,-25.725,-0.2625,-3.57
663,10302287,0.815936,0.13859200000000002,-0.22191799999999998,-27.5625,-0.595,-4.4975
664,10302384,0.8256960999999999,0.11102000000000001,-0.236314,-29.5575,1.8725,-5.145
665,10302480,0.8252079999999999,0.07612801,-0.23777800000000002,-30.5375,7.49,-5.6875
666,10302577,0.831918,0.046604,-0.265106,-29.645,12.1275,-6.7375
667,10302674,0.8448501,0.046238,-0.296338,-29.68,13.1075,-7.84
668,10302771,0.8448501,0.07515201,-0.28987199999999996,-31.045,11.4625,-8.2075
669,10302867,0.8642481,0.114558,-0.29731399999999997,-31.255,10.955,-8.82
670,10302964,0.9154880999999999,0.13944600000000001,-0.286578,-27.405,10.92,-8.7675
671,10303061,0.9979600000000001,0.170922,-0.266814,-21.49,8.9075,-8.8025
672,10303157,1.082384,0.203496,-0.23826599999999998,-16.6425,3.3075,-7.98
673,10303254,1.133868,0.234118,-0.195078,-15.575,-1.5925,-8.1375
674,10303351,1.15839,0.236314,-0.15555,-15.365,-3.2725,-8.925
675,10303448,1.154364,0.215574,-0.17238599999999998,-16.5025,-3.8675,-11.3225
676,10303544,1.1270360000000001,0.15738,-0.335256,-17.7275,-5.8975,-12.32
677,10303641,1.119716,0.075396,-0.655262,-18.4975,-10.395,-9.065
678,10303738,1.0612780000000002,0.11041,-0.6586781,-20.79,-16.52,-3.885
679,10303834,1.062742,0.14335,-0.558638,-17.71,-12.3375,-1.82
680,10303931,1.125206,0.251198,-0.558638,-7.175,-3.5875,0.6475
681,10304028,1.14131,0.378322,-0.574864,-0.9625,-1.6975,4.375
682,10304125,1.0943399999999999,0.45432799999999995,-0.5489999999999999,0.7875,-0.4025,6.44
683,10304221,1.0178459999999998,0.458232,-0.47213999999999995,6.23,0.2625,7.28
684,10304318,0.9534301,0.438346,-0.406992,13.1075,-2.8875,8.085
685,10304415,0.915976,0.373198,-0.375638,20.16,-7.2625,10.2375
686,10304511,0.870714,0.250954,-0.4026,25.6025,-10.2025,12.3725
687,10304608,0.8504620999999999,0.08454600000000001,-0.56913,27.195,-11.5325,13.335
688,10304705,0.8552200000000001,-0.02745,-0.5502199999999999,26.0925,-11.935,14.56
689,10304802,0.924516,0.00671,-0.4668941,22.5925,-7.6475,13.7025
690,10304898,1.002474,0.02257,-0.492758,21.91,-7.14,11.935
691,10304995,1.036024,0.022326,-0.485072,19.8275,-9.5375,12.6175
692,10305092,1.0582280000000002,0.01464,-0.465552,15.855,-9.905,11.5325
693,10305188,1.066524,0.018422,-0.431758,13.6325,-10.0625,7.2975
694,10305285,1.0643280000000002,0.03965,-0.396866,11.69,-10.0625,1.4
695,10305382,1.0493219999999999,0.066978,-0.36502399999999996,9.6075,-8.89,-4.585
696,10305478,1.018822,0.11345999999999999,-0.335988,8.155,-7.7,-9.0825
697,10305575,0.973316,0.16714,-0.315492,7.105,-7.3325,-11.76
698,10305672,0.9224421,0.20776599999999998,-0.296338,6.5975,-6.3525,-12.8975
699,10305769,0.866078,0.24802600000000002,-0.285846,6.2825,-5.565,-12.9675
700,10305865,0.8188641,0.277794,-0.27523200000000003,6.825,-5.565,-11.9175
701,10305962,0.787876,0.274744,-0.267058,9.065,-6.195,-10.08
702,10306059,0.7589621,0.276574,-0.264862,12.4075,-6.79,-7.4375
703,10306156,0.7391979999999999,0.260348,-0.245952,15.7675,-6.685,-4.69
704,10306252,0.738588,0.23973000000000003,-0.233386,19.3025,-5.6175,-2.7825
705,10306349,0.746518,0.221552,-0.226554,23.0475,-4.585,-1.33
706,10306446,0.75579,0.195444,-0.219234,26.74,-4.27,-1.295
707,10306542,0.780922,0.165554,-0.215696,30.345,-4.725,-2.5025
708,10306639,0.8066641,0.131882,-0.20508200000000001,34.055,-5.145,-3.85
709,10306736,0.82594,0.10223600000000001,-0.194224,35.84,-3.4475,-6.4575
710,10306833,0.833016,0.08454600000000001,-0.194224,37.5375,0.595,-8.1375
711,10306929,0.8244761,0.07015,-0.193248,37.345,3.71,-9.345
712,10307026,0.8010520000000001,0.057339999999999995,-0.185318,36.26,6.3,-9.3975
713,10307123,0.779824,0.061732,-0.179828,34.615,9.6425,-8.3825
714,10307219,0.7628659999999999,0.072712,-0.174948,32.97,13.0025,-6.58
715,10307316,0.762134,0.07381001,-0.176046,32.4275,15.89,-4.095
716,10307413,0.7812880999999999,0.07722601,-0.18178,32.795,17.3775,-1.5925
717,10307510,0.8145941,0.087108,-0.19397999999999999,33.005,17.3775,1.2425
718,10307606,0.845582,0.08662001,-0.20556999999999997,33.4425,15.995,4.2
719,10307703,0.8797421000000001,0.07356601,-0.191418,34.7375,14.49,6.5975
720,10307800,0.9098761000000001,0.05563200000000001,-0.18751400000000001,35.49,12.81,7.805
721,10307896,0.943426,0.033184,-0.15738,33.845,11.5675,7.7175
722,10307993,0.988566,0.033916,-0.12248800000000001,29.505,12.635,6.2475
723,10308090,1.056032,0.019642,-0.13054000000000002,23.3275,13.0375,2.8525
724,10308187,1.105564,-0.043188,-0.157868,16.835,10.045,-0.805
725,10308283,1.146678,-0.111142,-0.174582,9.3275,5.39,-4.445
726,10308380,1.161318,-0.14005599999999999,-0.170922,2.975,2.3275,-7.5425
727,10308477,1.147532,-0.12017,-0.188978,-1.9775,1.5575,-10.64
728,10308573,1.109346,-0.039772,-0.309392,-4.6375,1.75,-13.0025
729,10308670,1.090192,0.047580000000000004,-0.5103260000000001,-11.305,-0.4375,-14.245
730,10308767,1.105808,0.082472,-0.5103260000000001,-21.49,-6.2825,-13.79
731,10308863,1.121302,0.121268,-0.49739399999999995,-26.635,-13.7725,-12.6
732,10308960,1.159366,0.107116,-0.489098,-22.96,-14.1925,-13.02
733,10309057,1.1794959999999999,0.09625801,-0.536922,-22.68,-14.735,-13.825
734,10309154,1.1794959999999999,0.07490801,-0.486414,-26.635,-16.5725,-13.79
735,10309250,1.160464,0.069174,-0.459574,-27.93,-13.4925,-11.8825
736,10309347,1.1028799999999999,0.061975999999999996,-0.43053800000000003,-28.1925,-10.0975,-9.0125
737,10309444,1.049688,0.043554,-0.388936,-25.2525,-8.7325,-5.5475
738,10309540,0.9964959999999999,0.08845001,-0.435784,-23.4675,-8.3825,-3.185
739,10309637,0.975634,0.15799000000000002,-0.441762,-24.92,-7.245,-2.835
740,10309734,0.955626,0.149694,-0.41760600000000003,-27.09,-7.2625,-3.22
741,10309831,0.9548940999999999,0.15921,-0.42028999999999994,-26.4075,-5.67,-4.7075
742,10309927,0.9888101,0.19459,-0.43468599999999996,-25.4275,-8.19,-8.2425
743,10310024,1.0046700000000002,0.2196,-0.452132,-24.8675,-14.07,-11.165
744,10310121,1.024556,0.20496,-0.46116,-21.245,-19.95,-10.9375
745,10310217,1.0340719999999999,0.193736,-0.45115600000000006,-17.0625,-24.5525,-8.4875
746,10310314,1.051884,0.18788,-0.41016400000000003,-12.425,-26.635,-5.0225
747,10310411,1.0626200000000001,0.190808,-0.375394,-8.3125,-25.375,-0.4725
748,10310508,1.0346819999999999,0.16775,-0.345992,-4.1125,-21.77,4.4975
749,10310604,0.98149,0.11626600000000001,-0.32879,-2.17,-16.0125,8.8375
750,10310701,0.9250040999999999,0.051484,-0.313296,-1.5575,-9.7475,12.075
751,10310798,0.8636379999999999,0.000122,-0.294996,-2.24,-5.215,13.615
752,10310894,0.806908,-0.032818,-0.27279200000000003,-4.025,-3.6575,13.6325
753,10310991,0.7589621,-0.053070000000000006,-0.25363800000000003,-6.055,-4.6375,12.4425
754,10311088,0.720532,-0.063318,-0.236314,-8.33,-6.3525,10.7625
755,10311184,0.703086,-0.05624199999999999,-0.22948200000000002,-10.6925,-7.4375,8.295
756,10311281,0.7019880000000001,-0.07015,-0.219234,-11.1475,-8.225,5.8975
757,10311378,0.7088201,-0.06124401,-0.22448,-12.4425,-9.24,3.885
758,10311475,0.726388,-0.050874,-0.21276799999999998,-13.9475,-10.0275,2.0825
759,10311571,0.744566,-0.038064,-0.194468,-15.015,-10.0275,-0.315
760,10311668,0.761402,-0.009394,-0.179828,-15.96,-9.03,-2.03
761,10311765,0.772382,0.012078,-0.18361,-15.75,-7.805,-4.095
762,10311861,0.784582,0.022082,-0.179828,-14.525,-5.705,-6.3525
763,10311958,0.798246,0.030987999999999998,-0.17568,-13.2475,-2.695,-7.9625
764,10312055,0.795562,0.049288,-0.175314,-14.21,-1.015,-9.66
765,10312151,0.805932,0.07112601,-0.176046,-16.9575,-0.595,-11.3225
766,10312248,0.8215481,0.106018,-0.169824,-19.7925,-1.5575,-12.6175
767,10312345,0.8322841000000001,0.141032,-0.190808,-22.0325,-6.0025,-12.81
768,10312442,0.8432639999999999,0.162748,-0.21362199999999998,-25.3925,-10.7275,-12.1275
769,10312538,0.8483879999999999,0.162748,-0.233996,-29.0325,-11.305,-10.395
770,10312635,0.84851,0.135054,-0.258274,-28.9275,-5.635,-8.2425
771,10312732,0.8521700999999999,0.108458,-0.274866,-26.4775,0.6125,-6.2475
772,10312829,0.8522921,0.11285,-0.273768,-25.27,2.0475,-5.1625
773,10312925,0.861808,0.128832,-0.274256,-23.0825,1.8725,-4.8475
774,10313022,0.892918,0.160796,-0.25254,-17.815,2.31,-5.215
775,10313119,0.94855,0.19154000000000002,-0.22252800000000003,-11.655,0.6125,-5.8275
776,10313215,1.0168700000000002,0.207644,-0.18361,-6.895,-1.2775,-6.8775
777,10313312,1.081652,0.222894,-0.129076,-5.075,-2.0475,-8.2775
778,10313409,1.144482,0.194102,-0.10687200000000001,-4.5325,-3.2375,-10.64
779,10313506,1.1855959999999999,0.150426,-0.19032000000000002,-7.21,-4.9875,-13.5975
780,10313602,1.211948,0.093086,-0.45432799999999995,-11.4625,-10.1325,-14.98
781,10313699,1.218658,0.017812,-0.75457,-16.2925,-21.1225,-13.86
782,10313796,1.16815,0.028182,-0.6688041,-20.1425,-29.5575,-10.3075
783,10313892,1.197552,0.09625801,-0.579866,-17.5525,-24.675,-6.4925
784,10313989,1.2702639999999998,0.238754,-0.531554,-9.5725,-17.92,-0.4725
785,10314086,1.250988,0.353312,-0.463966,-6.5275,-12.0925,6.86
786,10314183,1.10105,0.37417399999999995,-0.411628,-5.1975,-5.6175,11.1475
787,10314279,0.942816,0.31354,-0.40504,-1.3125,-4.0425,13.5275
788,10314376,0.8291120999999999,0.252052,-0.400404,3.675,-7.9975,15.085
789,10314473,0.768844,0.209352,-0.367342,10.92,-12.18,17.2725
790,10314570,0.7582300000000001,0.193736,-0.32696,16.0125,-15.225,18.6375
791,10314666,0.793366,0.15616,-0.43200200000000005,18.2525,-15.4,19.0575
792,10314763,0.8127641,0.05209400000000001,-0.5830380000000001,20.2125,-18.0425,20.65
793,10314860,0.8714459999999999,0.07417601,-0.47275,20.825,-17.535,21.4725
794,10314956,0.972828,0.110898,-0.45579200000000003,21.455,-14.8225,18.795
795,10315053,1.065914,0.15433,-0.480558,22.925,-17.0275,16.205
796,10315150,1.126914,0.160918,-0.45335200000000003,23.1875,-18.095,13.3875
797,10315246,1.167296,0.130662,-0.401258,20.8075,-17.045,7.5425
798,10315343,1.167418,0.091744,-0.367464,18.025,-12.915,-1.12
799,10315440,1.121668,0.070882,-0.35160399999999997,15.7325,-7.9625,-10.0625
800,10315537,1.058106,0.091744,-0.33684200000000003,13.8425,-5.1275,-16.24
801,10315633,0.9764879999999999,0.131638,-0.32818,12.32,-3.8675,-19.0225
802,10315730,0.903532,0.16775,-0.31402800000000003,11.48,-4.795,-18.935
803,10315827,0.846924,0.19276,-0.295606,10.955,-6.8775,-16.835
804,10315923,0.8015399999999999,0.216306,-0.279868,10.9725,-9.1875,-13.1775
805,10316020,0.777262,0.223992,-0.26608200000000004,11.3575,-10.8675,-8.645
806,10316117,0.76555,0.21166999999999997,-0.257542,13.755,-10.92,-4.5325
807,10316214,0.76677,0.19154000000000002,-0.24863600000000002,16.45,-9.66,-1.1725
808,10316310,0.774578,0.16775,-0.243024,18.6375,-7.665,0.945
809,10316407,0.775798,0.134688,-0.228384,21.0875,-5.0225,1.3475
810,10316504,0.776408,0.11211800000000001,-0.21289,22.9775,-2.45,0.315
811,10316600,0.772626,0.08625401,-0.207644,24.5,-0.6825,-1.5925
812,10316697,0.7592061,0.07234600000000001,-0.20947399999999997,25.0775,0.77,-3.605
813,10316794,0.747494,0.068442,-0.20788800000000002,24.3075,2.03,-4.865
814,10316891,0.7399300999999999,0.06746601,-0.195322,23.205,3.3425,-5.005
815,10316987,0.730414,0.072956,-0.17202,22.1375,4.865,-4.55
816,10317084,0.7237041,0.08357,-0.191662,21.735,7.14,-3.5
817,10317181,0.726388,0.09650201,-0.20776599999999998,21.21,9.9925,-1.82
818,10317277,0.7324881,0.11736400000000001,-0.201666,19.6,11.305,0.2625
819,10317374,0.7452979999999999,0.13054000000000002,-0.211182,19.32,11.375,2.03
820,10317471,0.771894,0.133468,-0.21813600000000002,20.965,11.8825,3.675
821,10317568,0.8039801,0.119682,-0.21276799999999998,23.2225,11.8475,5.0225
822,10317664,0.835334,0.08405800000000001,-0.20923000000000003,26.18,11.5675,5.95
823,10317761,0.8805960999999999,0.030866,-0.183488,30.5375,12.075,6.2475
824,10317858,0.9265901,0.004514,-0.14945,33.6,12.5825,6.2825
825,10317954,0.9762440999999998,0.015128,-0.1708,32.0075,11.48,5.495
826,10318051,1.026508,0.025863999999999998,-0.188124,27.3525,7.7525,4.2875
827,10318148,1.05713,0.025131999999999998,-0.194468,20.4925,3.1325,2.6075
828,10318245,1.09007,0.017812,-0.24644000000000002,11.2525,0.4025,0.49
829,10318341,1.1350879999999999,0.004514,-0.395646,2.8,-1.085,-1.96
830,10318438,1.200602,-0.008906,-0.5342380999999999,-7.2625,-6.0025,-4.48
831,10318535,1.302106,-0.08527801,-0.476166,-19.1275,-17.5875,-6.545
832,10318631,1.41459,-0.20435,-0.42748800000000003,-25.0775,-23.52,-11.2175
833,10318728,1.473394,-0.261324,-0.456646,-23.8875,-11.0775,-22.2775
834,10318825,1.3794540000000002,-0.072102,-0.45030200000000004,-27.72,3.7625,-30.7825
835,10318921,1.221098,0.142374,-0.42639,-27.475,9.765,-29.3825
836,10319018,1.117398,0.277306,-0.462136,-25.55,7.595,-20.615
837,10319115,1.0559100000000001,0.236436,-0.49593000000000004,-23.0125,-1.925,-9.765
838,10319212,1.033462,0.200568,-0.524234,-17.8325,-9.905,-1.3125
839,10319308,1.056764,0.163358,-0.463722,-17.1675,-17.3775,0.805
840,10319405,1.035902,0.10223600000000001,-0.428708,-14.0875,-18.305,-0.4025
841,10319502,1.0316319999999999,0.061,-0.43200200000000005,-11.0775,-14.63,-3.7625
842,10319598,1.038098,0.065148,-0.444934,-14.07,-13.58,-9.4675
843,10319695,1.02053,0.12322000000000001,-0.454694,-19.3725,-12.8625,-14.91
844,10319792,1.0025959999999998,0.16592,-0.463478,-21.8925,-13.3,-17.2375
845,10319889,0.981002,0.197884,-0.460672,-22.015,-16.7475,-16.1175
846,10319985,0.9585541,0.20313,-0.453108,-19.915,-21.77,-13.37
847,10320082,0.953308,0.18239,-0.44505600000000006,-16.4675,-26.355,-10.08
848,10320179,0.954406,0.15579400000000002,-0.426756,-12.845,-28.665,-6.0375
849,10320275,0.9505020000000001,0.128344,-0.395036,-10.185,-26.4775,-1.2775
850,10320372,0.9301280000000001,0.08235001,-0.360144,-9.0475,-21.91,2.8525
851,10320469,0.8796200000000001,0.036844,-0.340258,-9.24,-17.9375,5.5125
852,10320566,0.829234,0.004636001,-0.325496,-9.975,-15.19,7.5075
853,10320662,0.7700640999999999,-0.02196,-0.313418,-11.13,-13.1425,8.715
854,10320759,0.71675,-0.035258,-0.29438600000000004,-12.495,-12.0575,8.9425
855,10320856,0.676612,-0.041602,-0.28328400000000004,-13.4925,-11.2525,9.1
856,10320952,0.652212,-0.047945999999999996,-0.279014,-13.9825,-11.2,8.505
857,10321049,0.6411100000000001,-0.04941,-0.27876999999999996,-13.4925,-12.3375,7.875
858,10321146,0.644648,-0.044286,-0.266936,-13.6675,-13.6675,6.9125
859,10321242,0.6603859999999999,-0.032086,-0.25851799999999997,-13.475,-14.1925,5.635
860,10321339,0.685884,-0.017324000000000003,-0.249612,-13.6325,-13.615,3.1325
861,10321436,0.708332,0.006587999999999999,-0.24131599999999997,-14.035,-12.775,0.9625
862,10321532,0.7330979999999999,0.024644,-0.23448400000000003,-14.5075,-11.4975,-1.9775
863,10321629,0.750544,0.043188,-0.23741199999999998,-14.525,-10.3775,-4.095
864,10321726,0.7679901,0.05856,-0.228262,-14.3675,-9.2575,-6.1425
865,10321823,0.777384,0.070516,-0.217892,-14.1925,-7.805,-7.56
866,10321919,0.79178,0.07393200000000001,-0.20252,-14.035,-4.9525,-8.3125
867,10322016,0.81252,0.08479,-0.180072,-13.8775,-2.1175,-9.4675
868,10322113,0.8289901,0.096624,-0.176534,-15.085,-1.1725,-10.3775
869,10322209,0.847778,0.101382,-0.204716,-17.01,-1.155,-11.1475
870,10322306,0.8605879999999999,0.101382,-0.256688,-18.3925,-2.66,-11.2875
871,10322403,0.8694940999999999,0.10858,-0.27389,-19.5825,-2.45,-10.4825
872,10322499,0.885964,0.12749000000000002,-0.284016,-19.7575,1.1375,-9.275
873,10322596,0.8907221,0.15274400000000002,-0.283406,-18.5675,3.5875,-7.455
874,10322693,0.8885261000000001,0.16409,-0.292434,-15.6625,3.0275,-6.1425
875,10322790,0.89426,0.17812,-0.279258,-12.145,1.96,-5.7575
876,10322886,0.934276,0.188124,-0.237656,-8.1375,3.0625,-6.8425
877,10322983,0.993202,0.20984,-0.205936,-5.04,4.4625,-7.84
878,10323080,1.039562,0.206546,-0.144326,-1.9425,5.95,-8.68
879,10323176,1.078602,0.192882,-0.095038,-0.7,5.9675,-10.8325
880,10323273,1.090436,0.159698,-0.14884,-3.15,2.2225,-13.755
881,10323370,1.0943399999999999,0.107116,-0.31317399999999995,-7.7875,-3.4125,-15.855
882,10323467,1.136796,0.004026,-0.6944241,-11.1125,-11.34,-15.4875
883,10323563,1.1100780000000001,0.0244,-0.6771,-12.985,-22.3825,-12.7575
884,10323660,1.137894,0.05770599999999999,-0.5579061,-14.315,-23.6075,-10.92
885,10323757,1.2252459999999998,0.131394,-0.5887720000000001,-8.925,-18.0075,-6.16
886,10323853,1.254648,0.25363800000000003,-0.6280560000000001,-5.46,-14.035,1.5925
887,10323950,1.1747379999999998,0.348798,-0.512034,-6.965,-7.9275,7.6475
888,10324047,1.08336,0.390522,-0.40894400000000003,-5.495,0.9625,9.2575
889,10324143,0.9897860999999999,0.385154,-0.354898,-2.7825,2.6425,9.6075
890,10324240,0.9154880999999999,0.293288,-0.40076999999999996,3.9375,-1.89,11.9875
891,10324337,0.8346021,0.13542,-0.585356,11.4975,-7.8575,15.3475
892,10324434,0.795928,0.05063,-0.51545,16.2925,-11.9175,17.9375
893,10324530,0.8809620000000001,0.07747001,-0.488,17.885,-8.2425,17.0975
894,10324627,0.9940559999999999,0.12627,-0.513376,19.8975,-9.975,16.59
895,10324724,1.062254,0.142618,-0.5132541,19.53,-16.205,18.4625
896,10324820,1.08946,0.129198,-0.497638,17.4475,-19.0575,19.4775
897,10324917,1.102026,0.088328,-0.49105,17.36,-16.52,17.2025
898,10325014,1.09861,0.045262000000000004,-0.471286,16.5725,-12.11,11.9875
899,10325111,1.0828719999999998,0.020862000000000002,-0.43188000000000004,15.225,-8.2775,3.8675
900,10325207,1.050542,0.023180000000000003,-0.40199,13.02,-5.46,-4.8125
901,10325304,0.9974719999999999,0.062220000000000004,-0.384422,11.0425,-3.745,-11.445
902,10325401,0.9343981,0.116022,-0.36844,9.24,-2.6075,-15.3125
903,10325497,0.876814,0.157502,-0.35233600000000004,7.8575,-2.5025,-16.485
904,10325594,0.8221581,0.18422,-0.337696,7.07,-3.5,-15.5575
905,10325691,0.780434,0.192028,-0.32757,6.755,-5.075,-13.475
906,10325787,0.7448100999999999,0.18556199999999998,-0.318664,7.7175,-7.035,-10.535
907,10325884,0.7266321,0.174582,-0.312564,8.9425,-8.61,-7.2275
908,10325981,0.723094,0.159698,-0.31317399999999995,10.0975,-9.45,-4.235
909,10326078,0.724924,0.15201199999999998,-0.31012399999999996,10.5875,-10.4475,-1.82
910,10326174,0.7327321,0.1403,-0.279258,10.465,-10.745,-0.3675
911,10326271,0.741028,0.129442,-0.27023,11.13,-8.4525,-0.21
912,10326368,0.744322,0.119316,-0.271938,12.7925,-4.7775,-0.8575
913,10326464,0.7500560000000001,0.110776,-0.26961999999999997,13.965,-1.9075,-1.9775
914,10326561,0.751276,0.10833599999999999,-0.265594,15.54,0.0,-2.45
915,10326658,0.762012,0.094672,-0.261324,17.4475,2.45,-3.255
916,10326755,0.765062,0.093574,-0.24766,18.795,5.1625,-2.8175
917,10326851,0.763354,0.10004,-0.23460599999999998,19.425,7.175,-2.1875
918,10326948,0.7600600000000001,0.107848,-0.22935999999999998,20.72,8.4175,-1.435
919,10327045,0.757254,0.11333800000000001,-0.243878,21.91,8.4525,-0.7175
920,10327142,0.764696,0.11236199999999999,-0.239486,23.415,8.1375,0.385
921,10327238,0.78141,0.119682,-0.23973000000000003,25.0425,8.4875,1.5575
922,10327335,0.8115439999999999,0.128588,-0.25046599999999997,26.74,9.38,2.3275
923,10327432,0.849608,0.12395199999999999,-0.255346,28.4025,10.71,2.94
924,10327528,0.8796200000000001,0.11138599999999999,-0.23680199999999998,30.065,11.935,3.4125
925,10327625,0.904752,0.101016,-0.219966,31.0975,13.0375,3.3075
926,10327722,0.9261021,0.099552,-0.205936,30.66,14.1575,2.1
927,10327819,0.9497701,0.096624,-0.193126,29.2075,14.63,0.42
928,10327915,0.988566,0.08662001,-0.17140999999999998,27.6325,14.28,-1.4175
929,10328012,1.0237020000000001,0.05770599999999999,-0.164578,26.145,13.5275,-3.78
930,10328109,1.054934,0.008662000999999999,-0.146034,23.9925,12.7925,-6.3875
931,10328205,1.0584719999999999,-0.015006,-0.127002,19.8275,11.13,-8.33
932,10328302,1.0498100000000001,0.000366,-0.14786400000000002,16.5725,9.135,-9.9925
933,10328399,1.037366,0.049898000000000005,-0.332816,13.6675,6.23,-11.3925
934,10328496,1.10837,0.060024,-0.46543,8.785,2.5375,-13.685
935,10328592,1.165222,0.012565999999999999,-0.46762600000000004,-1.2425,-8.5575,-15.26
936,10328689,1.2317120000000001,-0.0244,-0.480436,-12.0575,-18.3925,-16.765
937,10328786,1.313086,-0.08296,-0.5282600000000001,-15.89,-16.45,-20.86
938,10328882,1.357494,-0.11577799999999999,-0.596458,-21.56,-10.08,-26.285
939,10328979,1.3352899999999999,-0.10723800000000001,-0.5734,-23.345,-4.7775,-28.1225
940,10329076,1.265384,-0.08564401,-0.53192,-22.68,-1.89,-25.55
941,10329172,1.1422860000000001,-0.07564,-0.483608,-22.855,-1.0675,-19.5825
942,10329269,1.041148,-0.023790000000000002,-0.505934,-21.455,-0.6825,-13.1775
943,10329366,0.9961300999999999,0.02196,-0.463966,-23.1525,-3.85,-9.415
944,10329463,0.9272,0.030012,-0.41358,-22.575,-4.935,-7.77
945,10329559,0.9090219999999999,0.116388,-0.417484,-22.6275,-4.0425,-8.26
946,10329656,0.9231739999999999,0.205448,-0.438468,-23.835,-7.28,-11.305
947,10329753,0.9292739999999999,0.263642,-0.449082,-23.7825,-12.32,-14.4725
948,10329849,0.9408639999999999,0.29036,-0.44847200000000004,-21.91,-17.3775,-16.1875
949,10329946,0.954528,0.293532,-0.43859,-18.585,-20.7025,-15.9075
950,10330043,0.955626,0.288896,-0.42578,-14.6825,-21.49,-14.105
951,10330140,0.951844,0.280478,-0.419558,-11.13,-21.21,-10.325
952,10330236,0.9353741,0.23021399999999997,-0.41284799999999994,-6.44,-20.1075,-6.1075
953,10330333,0.9345201,0.16287000000000001,-0.396012,-1.6975,-18.2525,-2.205
954,10330430,0.9302501,0.08174001,-0.381372,1.68,-14.3675,0.5075
955,10330526,0.917684,0.008784,-0.370026,3.3775,-10.6225,1.26
956,10330623,0.8960899999999999,-0.038674,-0.35892399999999997,3.43,-7.91,0.63
957,10330720,0.859002,-0.06649,-0.34257600000000005,2.6775,-7.21,-0.35
958,10330817,0.8084939999999999,-0.063928,-0.324764,1.4875,-8.2425,-1.2775
959,10330913,0.771162,-0.05819401,-0.30927,0.0875,-9.7825,-2.38
960,10331010,0.752008,-0.041358,-0.2928,-0.665,-10.85,-3.5525
961,10331107,0.74115,-0.014762,-0.283406,-1.4875,-11.76,-4.3925
962,10331203,0.7320001,0.002074,-0.26961999999999997,-2.4675,-12.0575,-4.4975
963,10331300,0.727608,0.038674,-0.25437,-3.8325,-10.6925,-4.445
964,10331397,0.726388,0.05929201,-0.24631799999999998,-3.57,-8.4875,-4.515
965,10331494,0.72895,0.079544,-0.255102,-2.94,-6.685,-4.6375
966,10331590,0.729316,0.080886,-0.255834,-1.68,-4.795,-4.655
967,10331687,0.74054,0.06795401,-0.24644000000000002,-1.1025,-2.3975,-5.355
968,10331784,0.756034,0.05612,-0.23058,0.4025,-0.49,-6.44
969,10331880,0.7782380999999999,0.052216,-0.213988,2.345,-1.8025,-8.3125
970,10331977,0.8047121,0.055022,-0.19825,1.085,-5.46,-10.605
971,10332074,0.83265,0.059658,-0.193858,-2.87,-6.2475,-12.3025
972,10332171,0.859368,0.043554,-0.223748,-6.4225,-2.625,-13.545
973,10332267,0.8820601,0.013541999999999998,-0.27205999999999997,-8.715,0.8575,-13.79
974,10332364,0.8875501,-0.006222,-0.305976,-10.64,1.75,-13.4225
975,10332461,0.886452,-0.000976,-0.31659,-11.69,2.8175,-12.1625
976,10332557,0.87718,0.023790000000000002,-0.31524800000000003,-11.9,3.0625,-10.5875
977,10332654,0.868396,0.047458,-0.30707399999999996,-11.27,2.52,-9.065
978,10332751,0.8663219999999999,0.07234600000000001,-0.29365399999999997,-11.48,2.065,-7.595
979,10332848,0.8852321,0.111874,-0.246928,-12.6525,3.045,-6.02
980,10332944,0.9354959999999999,0.158844,-0.194102,-13.93,2.835,-4.935
981,10333041,0.978928,0.19032000000000002,-0.16226,-13.3525,-0.5075,-4.6025
982,10333138,1.00955,0.184098,-0.144448,-12.3375,-3.29,-5.145
983,10333234,1.042002,0.148474,-0.146522,-12.565,-3.3775,-6.055
984,10333331,1.068598,0.09625801,-0.22691999999999998,-13.5625,-2.59,-6.545
985,10333428,1.109224,-0.001098,-0.416386,-12.8275,-2.9575,-5.3025
986,10333525,1.1271579999999999,-0.020252000000000003,-0.520208,-11.2,-5.845,-1.715
987,10333621,1.121668,0.011101999999999999,-0.478484,-7.0,-6.9475,2.38
988,10333718,1.181692,0.061975999999999996,-0.475678,-0.7,-5.6525,6.8075
989,10333815,1.271606,0.234362,-0.387106,6.1075,-1.47,13.4925
990,10333911,1.30235,0.456768,-0.311832,7.0175,5.1625,17.675
991,10334008,1.242448,0.516792,-0.385154,4.935,8.61,14.2625
992,10334105,1.147166,0.43200200000000005,-0.47909399999999996,4.2525,7.56,9.3625
993,10334202,1.079944,0.33916,-0.5009319999999999,7.525,2.9225,2.3975
994,10334298,1.073844,0.283406,-0.482876,10.5875,-2.5725,-5.8625
995,10334395,1.077382,0.222162,-0.42578,11.1125,-6.755,-10.605
996,10334492,1.028826,0.11846199999999998,-0.487146,7.0175,-12.6175,-10.885
997,10334588,0.9354959999999999,0.004758,-0.5607121,0.9275,-22.2075,-7.8225
998,10334685,0.8860860999999999,0.004758,-0.46335600000000005,-5.145,-24.92,-2.8525
999,10334782,0.8913321,0.035868000000000004,-0.432856,-8.2075,-22.3125,1.05
1000,10334879,0.9019459999999999,0.02928,-0.409188,-7.28,-19.3725,7.0
1001,10334975,0.895602,0.011468,-0.386374,-5.075,-13.5625,12.95
1002,10335072,0.879376,0.004392,-0.381128,-2.625,-9.8525,14.98
1003,10335169,0.870592,0.023546,-0.380396,-1.4175,-9.9575,14.4375
1004,10335265,0.8524139999999999,0.048312,-0.38295799999999997,-0.805,-12.845,12.6875
1005,10335362,0.8410681000000001,0.08064199,-0.377712,-0.945,-15.225,9.5025
1006,10335459,0.8544879999999999,0.112972,-0.36892800000000003,-0.5425,-16.3275,5.7225
1007,10335556,0.8669319999999999,0.156038,-0.345748,-0.3675,-15.995,2.3625
1008,10335652,0.882548,0.208254,-0.323178,-0.42,-13.7725,-0.4375
1009,10335749,0.883524,0.256688,-0.310246,-0.3325,-11.13,-2.52
1010,10335846,0.8609540999999999,0.281698,-0.302194,0.1225,-8.8025,-3.745
1011,10335942,0.8178880999999999,0.285602,-0.28914,1.5925,-7.63,-4.1475
1012,10336039,0.774578,0.27510999999999997,-0.27816,3.64,-7.1575,-3.7975
1013,10336136,0.7406621,0.259006,-0.265106,6.3,-6.825,-2.59
1014,10336233,0.7232161,0.242292,-0.25961599999999996,9.03,-6.58,-0.7175
1015,10336329,0.720166,0.22691999999999998,-0.25681,11.6025,-6.3175,0.91
1016,10336426,0.738344,0.20727800000000002,-0.25071,13.7025,-6.055,1.6975
1017,10336523,0.770308,0.17995,-0.240706,16.3975,-6.09,1.89
1018,10336619,0.800808,0.163846,-0.241682,18.5325,-6.4925,1.2075
1019,10336716,0.8322841000000001,0.14579,-0.237656,20.09,-6.58,-0.105
1020,10336813,0.8544879999999999,0.12749000000000002,-0.23448400000000003,21.49,-5.8625,-1.82
1021,10336910,0.8579041,0.108824,-0.228872,22.8725,-3.6925,-3.255
1022,10337007,0.841556,0.08344800000000001,-0.22033200000000003,23.415,-0.28,-3.78
1023,10337103,0.8155701,0.06954,-0.212036,22.645,2.66,-3.6575
1024,10337200,0.790072,0.07039400000000001,-0.20410599999999998,21.4725,6.0725,-3.0275
1025,10337296,0.780312,0.08417999999999999,-0.19178399999999998,20.9825,9.4325,-2.275
1026,10337393,0.792146,0.09735601,-0.187148,21.945,11.1475,-1.4525
1027,10337490,0.813862,0.113704,-0.181902,23.555,11.27,-0.735
1028,10337587,0.8437520000000001,0.11626600000000001,-0.19276,24.3775,10.885,-0.0875
1029,10337683,0.870226,0.118584,-0.198372,25.0425,10.9725,1.0675
1030,10337780,0.9002379999999999,0.12065799999999999,-0.202032,25.8825,11.34,2.66
1031,10337877,0.9343981,0.09698999999999999,-0.205814,28.0,10.955,4.1125
1032,10337973,0.9697780999999999,0.07356601,-0.181536,30.0825,10.85,5.495
1033,10338070,1.0065,0.05941401,-0.161528,29.995,10.9025,6.4925
1034,10338167,1.039928,0.066978,-0.16592,28.3325,9.7825,6.9475
1035,10338264,1.066524,0.05917000000000001,-0.179828,26.705,7.7175,6.72
1036,10338360,1.081774,0.042578,-0.199104,24.29,5.985,6.2125
1037,10338457,1.0790899999999999,0.052582000000000004,-0.22106399999999998,21.3325,5.7225,5.5475
1038,10338554,1.076162,0.06588,-0.32708200000000004,17.5175,6.23,3.745
1039,10338650,1.116666,0.123098,-0.5294800000000001,10.71,4.5325,1.365
1040,10338747,1.1951120000000002,0.08357,-0.5248441,0.9625,-4.1475,-1.5925
1041,10338844,1.268068,-0.00244,-0.46421,-5.7925,-12.7575,-5.495
1042,10338941,1.3510280000000001,-0.117486,-0.48848800000000003,-6.3175,-10.6925,-12.81
1043,10339037,1.38531,-0.176656,-0.48373,-10.4825,-7.5075,-20.4925
1044,10339134,1.31028,-0.133224,-0.49141599999999996,-16.1175,-6.65,-24.185
1045,10339231,1.2103620000000002,-0.04087,-0.43029399999999995,-19.5825,-6.055,-20.195
1046,10339327,1.114104,-0.045994,-0.395402,-21.9625,-6.7025,-12.46
1047,10339424,1.029802,-0.013663999999999999,-0.45164399999999993,-21.9275,-4.7775,-6.5975
1048,10339521,0.992226,0.09589201,-0.490196,-23.905,-4.4625,-2.8875
1049,10339618,0.9497701,0.11236199999999999,-0.44993599999999995,-24.22,-8.0675,-0.8925
1050,10339714,0.9261021,0.129564,-0.42468199999999995,-21.77,-7.735,0.1225
1051,10339811,0.9679481,0.171898,-0.424072,-21.5425,-8.505,-1.1725
1052,10339908,1.001376,0.22033200000000003,-0.438712,-23.8,-12.705,-4.795
1053,10340004,1.0237020000000001,0.242536,-0.451766,-23.9925,-17.1675,-7.4725
1054,10340101,1.033706,0.22935999999999998,-0.44371400000000005,-21.1925,-21.1225,-7.805
1055,10340198,1.0293139999999998,0.22996999999999998,-0.42931800000000003,-18.725,-23.625,-6.5275
1056,10340295,1.001132,0.235582,-0.40443,-15.5225,-24.36,-3.92
1057,10340391,0.9736819999999999,0.222284,-0.373198,-12.4775,-23.1,-0.035
1058,10340488,0.941108,0.184952,-0.348554,-10.36,-19.775,4.0775
1059,10340585,0.904874,0.119316,-0.332572,-8.6975,-15.8725,7.385
1060,10340681,0.8620521000000001,0.061610000000000005,-0.32391,-8.295,-13.8075,8.89
1061,10340778,0.8215481,0.001952,-0.312564,-8.365,-13.8775,8.7325
1062,10340875,0.787998,-0.035136,-0.28975,-9.6075,-15.0675,7.56
1063,10340972,0.760426,-0.05977999999999999,-0.27145,-11.375,-16.765,5.705
1064,10341068,0.744444,-0.071248,-0.25376,-13.2825,-18.2175,3.5525
1065,10341165,0.731268,-0.07710399999999999,-0.24766,-14.98,-19.495,1.4
1066,10341262,0.72712,-0.079178,-0.24717199999999998,-16.205,-20.09,0.035
1067,10341358,0.736392,-0.06588,-0.23216599999999998,-17.6225,-19.7925,-0.6825
1068,10341455,0.7468840999999999,-0.043066,-0.21777,-18.725,-18.97,-1.54
1069,10341552,0.756278,-0.016714,-0.20252,-19.4775,-17.22,-2.555
1070,10341648,0.7626221,0.016836,-0.195322,-20.09,-14.9625,-2.8175
1071,10341745,0.758718,0.031110000000000002,-0.20252,-19.6525,-12.215,-3.6575
1072,10341842,0.759938,0.03904,-0.205326,-19.5475,-8.925,-4.8825
1073,10341939,0.769576,0.064172,-0.192394,-20.37,-5.5825,-5.5125
1074,10342035,0.774578,0.10321199999999998,-0.179096,-20.8425,-2.17,-5.5125
1075,10342132,0.786656,0.139812,-0.153842,-21.2975,0.14,-6.1075
1076,10342229,0.794342,0.173362,-0.159698,-22.5225,0.8400001,-6.335
1077,10342325,0.8071520000000001,0.183488,-0.20447200000000001,-23.6075,1.26,-6.51
1078,10342422,0.815082,0.17055599999999999,-0.23460599999999998,-24.7275,1.8025,-6.37
1079,10342519,0.8142281,0.14383800000000002,-0.27023,-25.6375,4.06,-5.74
1080,10342616,0.8166680000000001,0.119072,-0.29341,-25.4275,6.755,-5.5125
1081,10342712,0.8224021,0.10248,-0.332084,-24.22,5.04,-5.985
1082,10342809,0.832894,0.09247601,-0.324886,-20.615,0.8400001,-7.175
1083,10342906,0.870958,0.11504600000000001,-0.285236,-16.555,-1.225,-8.5575
1084,10343002,0.924516,0.161406,-0.249002,-12.9675,-3.2025,-9.1
1085,10343099,0.982466,0.215086,-0.216428,-10.605,-4.865,-8.8025
1086,10343196,1.041026,0.24278000000000002,-0.158844,-6.7375,-5.5825,-8.225
1087,10343293,1.08946,0.221552,-0.118096,-3.43,-7.945,-9.4675
1088,10343389,1.1364299999999998,0.177022,-0.126636,-2.0475,-10.2375,-12.5475
1089,10343486,1.195478,0.142374,-0.195078,-2.38,-9.9225,-13.86
1090,10343583,1.267946,0.138226,-0.45323,-4.8825,-9.8875,-11.0425
1091,10343679,1.264286,0.12065799999999999,-0.649406,-9.0825,-14.2625,-4.41
1092,10343776,1.197918,0.12078,-0.558882,-14.735,-13.58,2.2225
1093,10343873,1.163392,0.135908,-0.5380199999999999,-16.275,-6.475,3.885
1094,10343970,1.146556,0.16043,-0.573766,-12.0575,-4.515,5.495
1095,10344066,1.075552,0.18544000000000002,-0.623908,-9.2225,-6.1075,9.17
1096,10344163,0.9971059999999999,0.281454,-0.548146,-8.5575,-6.685,12.4425
1097,10344260,0.9684360999999999,0.31317399999999995,-0.41260399999999997,-6.7025,-4.2525,14.735
1098,10344357,0.9174399999999999,0.3111,-0.29524,-3.115,-0.8225,17.745
1099,10344453,0.8926741,0.241438,-0.41150600000000004,2.4325,-1.0675,19.775
1100,10344550,0.8321620000000001,0.10760399999999999,-0.527772,7.8225,-7.2625,22.6975
1101,10344647,0.821792,0.063684,-0.444568,10.185,-8.6275,24.325
1102,10344743,0.873398,0.07698201,-0.47823999999999994,10.675,-8.8025,21.805
1103,10344840,0.951356,0.10528599999999999,-0.49702799999999997,11.235,-14.84,20.9475
1104,10344937,0.9911281,0.09516001,-0.49532,9.3975,-16.7125,21.7875
1105,10345034,1.016016,0.06466001,-0.49605200000000005,7.77,-14.245,20.3175
1106,10345130,1.066768,0.040260000000000004,-0.493246,5.74,-10.9375,16.415
1107,10345227,1.128744,0.031232,-0.456524,2.7125,-7.35,10.1675
1108,10345324,1.156194,0.03416,-0.4148,0.14,-6.58,2.38
1109,10345420,1.131428,0.05795,-0.397598,-2.17,-8.12,-4.69
1110,10345517,1.0673780000000002,0.102358,-0.381372,-3.2375,-8.9775,-9.2225
1111,10345614,0.988078,0.151646,-0.362706,-4.795,-8.4525,-11.0775
1112,10345711,0.912438,0.18544000000000002,-0.339892,-6.16,-7.6125,-11.0425
1113,10345807,0.8425321,0.193004,-0.31463800000000003,-7.3325,-7.105,-9.24
1114,10345904,0.7911701,0.175558,-0.300852,-7.3675,-6.965,-6.7025
1115,10346001,0.754448,0.160918,-0.28011199999999997,-6.58,-7.0,-3.2725
1116,10346097,0.726876,0.141764,-0.262056,-5.1975,-6.7725,-0.35
1117,10346194,0.71126,0.12651400000000002,-0.25656599999999996,-2.7475,-5.1975,1.89
1118,10346291,0.704916,0.119072,-0.26047,-0.2625,-3.6925,3.5525
1119,10346388,0.709674,0.116022,-0.255102,1.33,-3.7625,3.7975
1120,10346484,0.7178479999999999,0.116022,-0.25376,2.5025,-5.18,3.605
1121,10346581,0.729804,0.125904,-0.253882,2.9925,-6.1425,2.975
1122,10346678,0.7452979999999999,0.134078,-0.263764,3.745,-5.4075,1.96
1123,10346775,0.757864,0.12688,-0.260226,5.1625,-3.0625,1.2075
1124,10346871,0.7600600000000001,0.113826,-0.23301999999999998,6.1075,0.035,1.015
1125,10346968,0.749934,0.09979600000000001,-0.21533000000000002,7.4375,3.885,1.33
1126,10347065,0.737124,0.099552,-0.21716,9.065,7.9275,1.785
1127,10347161,0.7333420999999999,0.107726,-0.217404,10.745,10.9725,2.6775
1128,10347258,0.7374901,0.116754,-0.224602,12.5125,12.25,3.6925
1129,10347355,0.752984,0.134932,-0.21679400000000001,14.2275,12.3375,4.83
1130,10347452,0.7823859999999999,0.153598,-0.226554,15.1375,11.655,5.9325
1131,10347548,0.820572,0.17214200000000002,-0.238998,16.6425,10.6225,6.9125
1132,10347645,0.8597341000000001,0.180072,-0.250832,18.8475,9.2575,7.455
1133,10347742,0.8884040000000001,0.176534,-0.24644000000000002,20.2475,7.8575,7.5775
1134,10347838,0.9186601000000001,0.170068,-0.211914,20.58,8.8025,7.07
1135,10347935,0.96014,0.14396,-0.165188,19.7925,10.535,5.53
1136,10348032,1.000888,0.14786400000000002,-0.152134,16.7125,9.8,3.2725
1137,10348129,1.037244,0.12895399999999999,-0.14762,11.095,8.5925,0.21
1138,10348225,1.09007,0.049532,-0.132614,5.6175,8.015,-3.745
1139,10348322,1.138382,-0.04404201,-0.122732,0.2275,7.1225,-7.4725
1140,10348419,1.1712,-0.09979600000000001,-0.176656,-3.955,6.37,-10.675
1141,10348515,1.179374,-0.108458,-0.339404,-4.8825,6.755,-13.51
1142,10348612,1.23159,-0.10760399999999999,-0.400282,-6.2125,6.51,-16.38
1143,10348709,1.284538,-0.11724200000000001,-0.426756,-11.4625,0.8400001,-19.6175
1144,10348805,1.260748,-0.053436000000000004,-0.44725200000000004,-18.3925,-6.65,-23.5025
1145,10348902,1.225368,0.055510000000000004,-0.452254,-21.0525,-9.6775,-27.09
1146,10348999,1.161562,0.176778,-0.5002,-21.84,-10.64,-28.1575
1147,10349096,1.120082,0.230702,-0.533506,-18.3925,-9.59,-25.3225
1148,10349192,1.1232540000000002,0.21886799999999998,-0.505934,-13.2125,-8.5225,-20.5975
1149,10349289,1.10776,0.20496,-0.47958199999999995,-10.185,-9.4325,-16.3625
1150,10349386,1.0729899999999999,0.141032,-0.397964,-5.425,-10.745,-13.5625
1151,10349483,0.9978379999999999,0.08625401,-0.429928,1.89,-9.555,-12.18
1152,10349579,0.969412,0.08369201,-0.41553199999999996,2.0125,-9.0125,-13.3
1153,10349676,0.918416,0.04404201,-0.388692,-0.28,-6.1425,-15.61
1154,10349773,0.8976761000000001,0.071858,-0.394914,-2.8,0.105,-18.445
1155,10349869,0.9052401,0.11919400000000001,-0.409554,-4.5675,-1.2425,-22.6625
1156,10349966,0.906216,0.16530999999999998,-0.4209,-5.1975,-10.15,-25.4275
1157,10350063,0.9202459999999999,0.200324,-0.416996,-4.445,-19.3025,-25.6725
1158,10350160,0.9552601000000001,0.197518,-0.42931800000000003,-3.3075,-25.2875,-24.43
1159,10350256,0.988078,0.172996,-0.444934,-1.68,-27.755,-22.12
1160,10350353,1.010526,0.13456600000000002,-0.441396,2.31,-27.125,-18.62
1161,10350450,1.018334,0.10516400000000001,-0.40833400000000003,5.8275,-25.445,-15.155
1162,10350546,1.0232139999999998,0.083204,-0.371612,8.2425,-22.015,-11.2525
1163,10350643,1.004548,0.042456,-0.344406,9.835,-16.8875,-7.1225
1164,10350740,0.9596520000000001,0.001342,-0.333304,9.1,-11.6375,-3.9725
1165,10350837,0.898042,-0.026108,-0.329156,7.455,-7.8575,-1.9425
1166,10350933,0.833016,-0.040016,-0.318786,6.125,-5.6525,-0.63
1167,10351030,0.780556,-0.05185,-0.309392,5.25,-5.1975,0.0875
1168,10351127,0.74237,-0.047824,-0.303902,4.2525,-6.4925,-0.1225
1169,10351224,0.72163,-0.047580000000000004,-0.2867,4.0075,-8.05,-0.8925
1170,10351320,0.711992,-0.027938,-0.283528,3.045,-8.2425,-1.435
1171,10351417,0.709186,-0.02074,-0.27523200000000003,2.3275,-8.61,-2.66
1172,10351514,0.716384,-0.01281,-0.255712,1.3825,-8.47,-3.57
1173,10351610,0.730536,0.000366,-0.247416,-0.1225,-7.9975,-4.8125
1174,10351707,0.745054,0.020130000000000002,-0.238754,-1.435,-7.2275,-5.915
1175,10351804,0.759084,0.045384,-0.22509,-1.995,-5.0225,-6.2125
1176,10351901,0.76494,0.054655999999999996,-0.20788800000000002,-3.185,-2.065,-6.9125
1177,10351997,0.770308,0.057828,-0.191662,-4.6375,1.015,-8.085
1178,10352094,0.7788480999999999,0.055265999999999996,-0.18287799999999999,-3.815,2.415,-9.0125
1179,10352191,0.791536,0.06283,-0.18849000000000002,-3.6225,1.7675,-9.835
1180,10352287,0.807884,0.060512,-0.17836400000000002,-5.7575,0.3325,-11.06
1181,10352384,0.8280139999999999,0.05624199999999999,-0.188978,-11.235,0.1925,-11.795
1182,10352481,0.850706,0.03721,-0.232654,-16.6425,1.47,-12.18
1183,10352578,0.846802,0.031598,-0.287432,-20.02,2.4675,-12.04
1184,10352674,0.8491200000000001,0.0427,-0.309758,-20.4925,3.7975,-11.83
1185,10352771,0.86193,0.072102,-0.29158,-20.0025,4.2525,-11.76
1186,10352868,0.8862081,0.111874,-0.27571999999999997,-19.4425,3.43,-11.3575
1187,10352965,0.9234180000000001,0.14896199999999998,-0.269742,-17.5175,1.8375,-10.3425
1188,10353061,0.962458,0.18251199999999998,-0.244732,-15.9075,-0.21,-9.2925
1189,10353158,1.014674,0.202398,-0.194956,-12.775,-1.7325,-8.785
1190,10353255,1.05408,0.21276799999999998,-0.155672,-10.01,-4.2525,-8.6275
1191,10353351,1.072868,0.20630199999999999,-0.11467999999999999,-9.8175,-6.79,-8.89
1192,10353448,1.09495,0.188002,-0.119072,-11.935,-7.7875,-9.5025
1193,10353545,1.122522,0.14396,-0.20996199999999998,-14.9975,-9.87,-9.275
1194,10353641,1.155706,0.040138,-0.503738,-19.39,-14.42,-7.35
1195,10353738,1.139846,-0.026595999999999998,-0.6466,-22.6975,-20.02,-3.6925
1196,10353835,1.1009280000000001,-0.046116000000000004,-0.6010939999999999,-22.61,-17.7625,-1.2075
1197,10353931,1.104954,0.000122,-0.6335460999999999,-17.6225,-12.25,1.505
1198,10354028,1.1476540000000002,0.104554,-0.690886,-10.5525,-11.4625,7.6825
1199,10354125,1.132526,0.260592,-0.540216,-9.9575,-12.145,16.345
1200,10354222,1.103734,0.457012,-0.36892800000000003,-11.095,-7.42,20.7025
1201,10354318,1.044808,0.5294800000000001,-0.27816,-8.61,-3.1325,20.09
1202,10354415,0.9669721,0.404918,-0.361852,-2.135,-2.59,21.525
1203,10354512,0.834724,0.217038,-0.493612,4.9175,-8.155,24.85
1204,10354609,0.7738461,0.163236,-0.420412,7.525,-9.31,27.2125
1205,10354705,0.8220360000000001,0.171654,-0.4404201,8.365,-6.685,24.9725
1206,10354802,0.8959681,0.17873,-0.475312,10.08,-10.9025,23.31
1207,10354899,0.9539181000000001,0.14274,-0.46603999999999995,12.81,-14.1925,23.5025
1208,10354995,1.013576,0.121878,-0.48104600000000003,14.56,-13.7725,22.2425
1209,10355092,1.0943399999999999,0.124196,-0.484584,16.2925,-11.8825,19.74
1210,10355189,1.164612,0.104676,-0.44847200000000004,18.8125,-10.9375,15.0675
1211,10355285,1.217316,0.083204,-0.39967199999999997,18.34,-12.95,7.385
1212,10355382,1.2184139999999999,0.08235001,-0.37942,16.8175,-13.5625,-1.89
1213,10355479,1.171078,0.09479401,-0.36356,14.8925,-12.3375,-10.01
1214,10355576,1.083848,0.12395199999999999,-0.35099400000000003,12.3375,-10.5,-16.03
1215,10355672,0.978074,0.162138,-0.33000999999999997,9.1525,-8.365,-18.725
1216,10355769,0.886452,0.17543599999999998,-0.309514,7.315,-7.1925,-18.6375
1217,10355866,0.808982,0.169458,-0.296216,6.4225,-6.895,-16.7125
1218,10355962,0.75579,0.155672,-0.277062,6.5975,-7.14,-13.3
1219,10356059,0.71919,0.139324,-0.257054,7.2275,-7.4725,-9.03
1220,10356156,0.7015,0.129198,-0.250832,8.295,-7.385,-4.7775
1221,10356253,0.696864,0.129198,-0.24936799999999998,9.345,-7.595,-0.945
1222,10356349,0.70394,0.128344,-0.243146,10.0975,-7.9625,1.89
1223,10356446,0.719434,0.122366,-0.239608,10.4475,-7.455,3.5
1224,10356543,0.734928,0.129198,-0.238632,10.115,-6.0025,3.8675
1225,10356639,0.748592,0.136152,-0.23838800000000002,10.045,-4.025,3.8325
1226,10356736,0.7610359999999999,0.133224,-0.242536,10.5,-1.1375,3.0625
1227,10356833,0.763476,0.128222,-0.24522,11.62,2.03,2.2575
1228,10356930,0.754692,0.11955999999999999,-0.23887600000000003,12.4075,4.83,1.9425
1229,10357026,0.7388319999999999,0.12029200000000001,-0.228262,12.285,6.7025,2.31
1230,10357123,0.729438,0.130296,-0.21716,12.88,7.805,2.87
1231,10357220,0.7352941,0.144204,-0.208132,14.2275,8.68,3.395
1232,10357316,0.7510321,0.154574,-0.201544,15.7675,9.4325,3.99
1233,10357413,0.7865340000000001,0.150304,-0.206668,17.92,10.36,4.445
1234,10357510,0.8258181,0.13176,-0.22875,20.405,10.465,4.795
1235,10357607,0.8663219999999999,0.11224,-0.235948,22.785,9.38,5.32
1236,10357703,0.9089001,0.099674,-0.226554,24.64,7.4375,5.8975
1237,10357800,0.9396440999999999,0.087108,-0.219966,24.955,4.2175,6.2475
1238,10357897,0.9581881,0.08625401,-0.21057199999999998,22.61,2.485,6.4925
1239,10357993,0.972706,0.09540401,-0.198128,18.83,3.2025,6.0725
1240,10358090,0.9858819999999999,0.08625401,-0.192638,15.015,5.215,4.4625
1241,10358187,1.010404,0.042822000000000006,-0.180316,12.25,7.8575,2.6075
1242,10358284,1.0351700000000001,0.006954000000000001,-0.145058,9.2575,9.1,1.0325
1243,10358380,1.060546,-0.012688,-0.116022,6.0025,8.855,-0.28
1244,10358477,1.063352,-0.007686,-0.15494000000000002,5.215,9.0125,-1.19
1245,10358574,1.046638,0.05209400000000001,-0.35282399999999997,5.5125,9.73,-2.6425
1246,10358671,1.090558,0.124806,-0.451034,1.5575,7.35,-5.9325
1247,10358767,1.1089799999999999,0.137494,-0.477386,-5.705,-2.065,-9.24
1248,10358864,1.09861,0.158478,-0.44652,-13.3525,-11.97,-10.1675
1249,10358961,1.122522,0.146034,-0.459818,-15.89,-16.0125,-11.1475
1250,10359057,1.19316,0.07039400000000001,-0.5413140000000001,-16.5025,-15.2775,-13.09
1251,10359154,1.2547700000000002,-0.040504000000000005,-0.5023960999999999,-12.425,-11.4275,-14.5775
1252,10359251,1.269898,-0.09418401,-0.47763,-10.2725,-7.8575,-16.415
1253,10359347,1.1984059999999999,-0.077348,-0.41406800000000005,-10.2375,-6.4925,-16.415
1254,10359444,1.073356,-0.066246,-0.458232,-8.4875,-6.4225,-14.6825
1255,10359541,1.021506,-0.041602,-0.469944,-10.3775,-7.0175,-14.5075
1256,10359638,0.975634,-0.042822000000000006,-0.431026,-14.1575,-7.945,-15.6975
1257,10359734,0.9450120000000001,0.02623,-0.43932200000000005,-15.33,-6.02,-17.3775
1258,10359831,0.9641661,0.11712,-0.44383599999999995,-16.8,-8.5225,-20.5275
1259,10359928,0.9802700000000001,0.196908,-0.443958,-17.3775,-12.8625,-22.785
1260,10360025,1.01809,0.249002,-0.444446,-16.7475,-16.1875,-22.3475
1261,10360121,1.060912,0.275598,-0.44408000000000003,-16.0825,-18.3575,-20.3875
1262,10360218,1.082994,0.28731,-0.44286000000000003,-13.3525,-18.83,-17.08
1263,10360315,1.080432,0.257176,-0.416508,-8.33,-17.955,-12.4075
1264,10360411,1.068598,0.21386599999999997,-0.388326,-4.655,-16.485,-7.56
1265,10360508,1.0438319999999999,0.14688800000000002,-0.372832,-2.1525,-13.37,-2.835
1266,10360605,1.001498,0.07503,-0.360754,-1.26,-9.6775,0.945
1267,10360702,0.9413520000000001,0.023424,-0.347578,-1.4,-6.5275,3.465
1268,10360798,0.8777901,-0.027694,-0.33123,-1.6275,-5.0225,4.2875
1269,10360895,0.818132,-0.058803999999999995,-0.3172,-2.9225,-5.3725,4.0425
1270,10360992,0.770918,-0.06892999999999999,-0.302438,-4.5325,-6.8425,3.255
1271,10361088,0.7378560000000001,-0.07222401,-0.292678,-5.3725,-8.82,1.7675
1272,10361185,0.715286,-0.063318,-0.290848,-6.1075,-10.9725,-0.105
1273,10361282,0.709186,-0.05160601,-0.268766,-6.475,-12.1275,-1.68
1274,10361379,0.712236,-0.030987999999999998,-0.266204,-7.0,-12.6525,-2.765
1275,10361475,0.71858,-0.021838,-0.244732,-6.615,-12.4075,-4.025
1276,10361572,0.7329760000000001,0.00427,-0.22509,-6.72,-10.7625,-4.7425
1277,10361669,0.740296,0.02928,-0.22386999999999999,-6.405,-9.135,-5.1975
1278,10361765,0.75335,0.045872,-0.216428,-6.055,-7.14,-6.3875
1279,10361862,0.7722600000000001,0.058316,-0.206058,-5.32,-5.285,-7.49
1280,10361959,0.7881199999999999,0.058072000000000006,-0.194956,-5.3025,-5.3375,-8.1375
1281,10362056,0.79971,0.065514,-0.164456,-6.615,-4.7425,-8.7325
1282,10362152,0.8023939999999999,0.07991000000000001,-0.14579,-8.2075,-2.905,-9.9225
1283,10362249,0.798856,0.091378,-0.134688,-10.185,-1.7675,-11.0775
1284,10362346,0.8010520000000001,0.116754,-0.15372,-12.11,-1.4,-11.585
1285,10362442,0.805566,0.11126400000000002,-0.19276,-12.7575,-1.015,-11.41
1286,10362539,0.812886,0.08771799999999999,-0.22691999999999998,-14.8575,1.365,-10.745
1287,10362636,0.817766,0.062220000000000004,-0.26169000000000003,-16.905,6.965,-9.555
1288,10362733,0.8127641,0.066246,-0.28365,-16.9575,11.9875,-8.4175
1289,10362829,0.8145941,0.07832401,-0.306098,-14.5775,12.005,-8.435
1290,10362926,0.826672,0.09345201,-0.290604,-10.99,9.2925,-9.3625
1291,10363023,0.8563181000000001,0.124806,-0.259982,-7.0,8.575,-10.5
1292,10363120,0.904752,0.17568,-0.224846,-4.2525,6.965,-11.34
1293,10363216,0.964044,0.20190999999999998,-0.17873,-1.9425,2.5725,-11.935
1294,10363313,1.013332,0.203618,-0.167872,-0.4725,-1.575,-12.565
1295,10363410,1.063352,0.180072,-0.188124,-1.505,-5.705,-13.1775
1296,10363506,1.112762,0.14078800000000002,-0.291824,-3.3075,-11.06,-13.3525
1297,10363603,1.1686379999999998,0.08466801,-0.49727200000000005,-4.655,-18.6025,-12.0225
1298,10363700,1.191086,0.0793,-0.500078,-5.005,-24.115,-8.7675
1299,10363797,1.2494020000000001,0.09418401,-0.465308,-1.995,-20.9475,-5.11
1300,10363893,1.330532,0.167994,-0.48568199999999995,2.2925,-14.07,-0.8575
1301,10363990,1.344684,0.225456,-0.5043479999999999,5.285,-7.245,4.8475
1302,10364087,1.25721,0.268278,-0.478972,2.8525,-1.75,8.5575
1303,10364183,1.140212,0.30536599999999997,-0.40052600000000005,0.8575,4.515,10.15
1304,10364280,1.015528,0.314272,-0.326106,2.17,7.105,9.8875
1305,10364377,0.9358620999999999,0.265228,-0.35087199999999996,4.62,4.025,8.715
1306,10364473,0.868152,0.132004,-0.530334,6.8075,-4.095,9.2925
1307,10364570,0.790804,0.038064,-0.46469799999999994,5.95,-10.7275,12.075
1308,10364667,0.806908,0.053801999999999996,-0.420778,4.0775,-10.9025,12.6175
1309,10364764,0.906948,0.116754,-0.450912,3.57,-13.6325,13.2475
1310,10364860,0.9985700999999999,0.131638,-0.455426,3.605,-15.3125,17.395
1311,10364957,1.018456,0.12444000000000001,-0.453474,4.3925,-13.9825,21.1575
1312,10365054,1.04554,0.126026,-0.463844,5.425,-11.7775,22.12
1313,10365150,1.070184,0.116998,-0.465796,7.49,-9.1175,21.77
1314,10365247,1.074332,0.08003201,-0.447008,10.1325,-7.035,18.5675
1315,10365344,1.081042,0.052703999999999994,-0.42199799999999993,11.4275,-6.58,12.845
1316,10365441,1.077382,0.063684,-0.390034,10.675,-7.1225,5.88
1317,10365537,1.056154,0.096014,-0.37515,9.6075,-6.37,-1.3125
1318,10365634,1.01626,0.135176,-0.35538600000000004,8.3475,-4.7775,-7.6825
1319,10365731,0.9618481,0.167994,-0.33123,6.825,-3.29,-12.6175
1320,10365827,0.8987741,0.19861600000000001,-0.313418,5.39,-2.975,-15.5925
1321,10365924,0.836676,0.21362199999999998,-0.29585,4.83,-3.7275,-16.5375
1322,10366021,0.7890961,0.219234,-0.283528,5.355,-5.04,-16.3625
1323,10366118,0.7489581,0.215574,-0.278526,6.6325,-6.4925,-15.2425
1324,10366214,0.7245581,0.20776599999999998,-0.26352,7.98,-7.7,-13.51
1325,10366311,0.711138,0.21447600000000003,-0.251442,9.52,-7.56,-12.0575
1326,10366408,0.7093081,0.210694,-0.24436599999999997,12.1975,-7.1575,-10.57
1327,10366505,0.712114,0.202032,-0.23546,14.595,-8.225,-8.785
1328,10366601,0.71553,0.188002,-0.223138,17.535,-8.9775,-7.2625
1329,10366698,0.730536,0.17433800000000002,-0.215086,20.055,-8.6625,-6.51
1330,10366795,0.751642,0.151402,-0.222284,22.6625,-7.875,-5.495
1331,10366891,0.7762859999999999,0.124074,-0.221552,24.4475,-6.51,-5.145
1332,10366988,0.79605,0.094306,-0.210694,25.62,-5.3025,-5.04
1333,10367085,0.799466,0.070638,-0.195444,25.69,-4.97,-5.0925
1334,10367182,0.799588,0.06039,-0.18629400000000002,25.1125,-3.6225,-4.865
1335,10367278,0.798734,0.06405001,-0.18544000000000002,23.7825,-0.6475,-4.515
1336,10367375,0.803858,0.082106,-0.18446400000000002,21.7525,2.1875,-3.955
1337,10367472,0.810934,0.097478,-0.187148,19.9325,4.2875,-3.0275
1338,10367568,0.8193521,0.105896,-0.198128,18.97,6.09,-1.8025
1339,10367665,0.8411900999999999,0.111874,-0.196908,18.305,7.6825,-0.1575
1340,10367762,0.877058,0.102846,-0.192638,19.18,8.8375,1.6625
1341,10367859,0.9145120999999999,0.06832001,-0.193858,21.455,8.575,3.22
1342,10367955,0.9479401,0.031842,-0.2013,24.01,7.07,4.7775
1343,10368052,0.975024,0.016958,-0.186782,25.1125,4.7425,6.055
1344,10368149,1.000522,0.020130000000000002,-0.167994,23.5025,3.395,6.1075
1345,10368245,1.022238,0.015006,-0.162748,20.055,4.6725,5.0225
1346,10368342,1.049566,-0.00427,-0.148352,16.31,7.3325,3.1675
1347,10368439,1.0612780000000002,0.00305,-0.160064,12.3375,7.8225,1.0675
1348,10368536,1.0626200000000001,0.05063,-0.251442,8.575,5.88,-1.19
1349,10368632,1.075308,0.131028,-0.45432799999999995,5.1625,2.345,-3.7625
1350,10368729,1.1538760000000001,0.11736400000000001,-0.459818,-0.9625,-2.6775,-7.035
1351,10368826,1.198772,0.09333,-0.426878,-7.3325,-11.165,-10.0275
1352,10368922,1.249158,0.072712,-0.427122,-8.54,-12.565,-14.035
1353,10369019,1.286124,0.08344800000000001,-0.490806,-9.8525,-9.695,-19.2325
1354,10369116,1.26209,0.040016,-0.478362,-12.25,-7.595,-22.785
1355,10369213,1.2117040000000001,0.030256,-0.469578,-10.43,-2.9575,-22.9075
1356,10369309,1.131184,0.037332,-0.422242,-9.2575,-4.165,-20.23
1357,10369406,1.01748,-0.037332,-0.449326,-7.0875,-9.4325,-15.4525
1358,10369503,1.000034,-0.011712,-0.47946000000000005,-7.0,-12.2325,-12.7925
1359,10369600,1.006744,-0.0122,-0.45201,-10.92,-13.8775,-13.1425
1360,10369696,0.969046,-0.007320001,-0.439566,-11.4975,-10.325,-13.755
1361,10369793,0.9740479999999999,0.039284,-0.45640200000000003,-12.88,-7.9275,-14.8225
1362,10369890,0.981978,0.11760799999999999,-0.47213999999999995,-16.38,-10.325,-17.255
1363,10369986,0.9856379999999999,0.18849000000000002,-0.46421,-18.795,-12.53,-18.9
1364,10370083,1.000034,0.234362,-0.46762600000000004,-19.2325,-15.295,-18.4975
1365,10370180,1.01565,0.258274,-0.46738199999999996,-17.9025,-18.8125,-16.7475
1366,10370277,1.023946,0.269376,-0.46298999999999996,-14.91,-21.0,-13.4575
1367,10370373,1.0262639999999998,0.269498,-0.446154,-10.8325,-20.65,-9.1875
1368,10370470,1.016504,0.238632,-0.414678,-5.88,-18.2175,-4.76
1369,10370567,0.9928360999999999,0.177022,-0.392108,-1.3825,-15.47,-0.8575
1370,10370663,0.9496479999999999,0.09906401,-0.384178,1.4,-12.18,2.24
1371,10370760,0.890966,0.032330000000000005,-0.374784,2.485,-9.0125,3.325
1372,10370857,0.8245979999999999,-0.022082,-0.357948,2.485,-7.4025,2.5025
1373,10370954,0.768356,-0.050752,-0.345016,1.54,-7.84,0.4025
1374,10371050,0.731146,-0.061732,-0.328546,0.6475,-9.52,-1.89
1375,10371147,0.713334,-0.053070000000000006,-0.31646799999999997,-0.1225,-11.27,-3.9025
1376,10371244,0.715408,-0.031964,-0.304146,-0.7175,-11.9875,-5.845
1377,10371341,0.73017,-0.00488,-0.307684,-1.295,-12.0225,-8.05
1378,10371437,0.751276,0.024766,-0.299632,-1.4525,-11.4625,-9.94
1379,10371534,0.7707961,0.061488,-0.28792,-0.3325,-10.5875,-10.85
1380,10371631,0.793244,0.090768,-0.274134,1.12,-10.0625,-12.32
1381,10371727,0.803248,0.11773,-0.263398,3.3425,-8.6625,-12.635
1382,10371824,0.81862,0.137128,-0.247294,6.0725,-5.67,-13.6325
1383,10371921,0.8258181,0.149694,-0.233752,8.5925,-2.03,-14.0875
1384,10372018,0.8222799999999999,0.147742,-0.235582,10.22,0.2275,-14.4375
1385,10372114,0.818376,0.14152,-0.24095,10.5,0.595,-15.3475
1386,10372211,0.813496,0.142252,-0.226554,9.59,0.07,-16.2575
1387,10372308,0.81679,0.140666,-0.21411,9.0825,-0.56,-17.15
1388,10372404,0.820572,0.14493599999999998,-0.19764,6.9475,-1.96,-17.71
1389,10372501,0.8248421,0.13298,-0.20483800000000002,3.8325,-1.2775,-17.6225
1390,10372598,0.8304541,0.09381801,-0.230946,1.9775,2.17,-17.2025
1391,10372694,0.8280139999999999,0.047824,-0.267546,1.1375,6.125,-16.52
1392,10372791,0.82411,0.01891,-0.287432,0.4025,9.4675,-15.7675
1393,10372888,0.8271601000000001,0.014274,-0.28633400000000003,-0.2625,11.97,-15.225
1394,10372985,0.837408,0.042944,-0.27828200000000003,-1.8375,13.1425,-14.6125
1395,10373081,0.8579041,0.088328,-0.260348,-3.745,11.1125,-14.245
1396,10373178,0.87718,0.129198,-0.249002,-4.865,7.175,-14.21
1397,10373275,0.9126820999999999,0.153598,-0.21520799999999998,-3.08,3.045,-15.0325
1398,10373372,0.9625799999999999,0.166652,-0.212524,-0.9275,-1.1025,-16.7125
1399,10373468,1.00406,0.16226,-0.224358,-0.5775,-3.9725,-18.2525
1400,10373565,1.0523719999999999,0.153232,-0.24412199999999998,-1.1025,-5.3725,-19.3025
1401,10373662,1.089582,0.139202,-0.367586,-1.8725,-6.7025,-18.69
1402,10373758,1.111176,0.102358,-0.5307,-4.6025,-8.8375,-16.1875
1403,10373855,1.098732,0.09516001,-0.533262,-7.875,-10.7625,-12.95
1404,10373952,1.098732,0.07564,-0.655628,-6.3525,-12.46,-11.795
1405,10374049,1.115446,0.06771001,-0.7631101,1.2775,-19.8275,-10.2025
1406,10374145,1.1666860000000001,0.165554,-0.5158159999999999,6.3525,-21.5075,-4.9
1407,10374242,1.23525,0.34892,-0.30792800000000004,9.625,-10.605,-1.3125
1408,10374339,1.1686379999999998,0.412238,-0.31171,12.5125,0.91,0.5075
1409,10374434,0.975024,0.27071799999999996,-0.423584,14.5075,3.6225,3.92
1410,10374531,0.8072741,0.136152,-0.42151000000000005,15.295,-0.6475,6.055
1411,10374627,0.758108,0.071492,-0.43188000000000004,16.555,-3.6225,6.0375
1412,10374724,0.8052,0.112728,-0.452132,17.08,-11.2525,4.55
1413,10374821,0.9084121,0.196664,-0.45420600000000005,16.8525,-16.66,4.8825
1414,10374917,0.973316,0.215086,-0.46030600000000005,17.08,-14.2625,7.105
1415,10375014,1.00223,0.229848,-0.473238,18.34,-10.01,9.135
1416,10375111,1.0187,0.255956,-0.490196,20.755,-5.5825,10.99
1417,10375208,1.0107700000000002,0.258762,-0.503738,23.8,-1.12,11.795
1418,10375304,0.980514,0.23668000000000003,-0.48128999999999994,28.42,1.3475,9.5025
1419,10375401,0.9720960999999999,0.208132,-0.441518,33.0225,3.2725,4.06
1420,10375498,0.9714860000000001,0.190076,-0.405406,35.4375,2.695,-2.275
1421,10375595,0.971974,0.168848,-0.385642,36.5575,1.54,-8.6975
1422,10375691,0.9646541,0.158722,-0.37393000000000004,37.1175,1.4525,-14.245
1423,10375788,0.945866,0.16165,-0.35868,36.96,1.5225,-18.2875
1424,10375885,0.9214661,0.17446,-0.34416199999999997,36.295,1.4,-20.0725
1425,10375981,0.8910879999999999,0.193248,-0.329156,35.805,1.645,-20.0725
1426,10376078,0.86315,0.21032800000000001,-0.316346,36.085,1.8725,-18.6725
1427,10376175,0.8405800999999999,0.231312,-0.31354,36.47,2.45,-16.275
1428,10376272,0.8258181,0.24339,-0.30536599999999997,37.625,3.36,-13.72
1429,10376368,0.815082,0.256322,-0.29877800000000004,39.0775,4.2875,-11.34
1430,10376465,0.812886,0.2562,-0.30792800000000004,41.3525,4.795,-9.5375
1431,10376562,0.817766,0.238144,-0.30195,43.0675,4.655,-8.7325
1432,10376659,0.8203280000000001,0.20496,-0.292678,44.8525,4.5325,-8.9775
1433,10376755,0.82411,0.171044,-0.288896,47.565,4.6025,-9.8175
1434,10376852,0.8311860999999999,0.13480999999999999,-0.274988,50.4,4.025,-10.9025
1435,10376949,0.834724,0.104798,-0.271938,52.745,2.45,-12.4075
1436,10377045,0.8436299999999999,0.087108,-0.266204,54.3025,0.665,-13.72
1437,10377142,0.8475341000000001,0.08466801,-0.257786,54.5125,-0.735,-15.155
1438,10377239,0.8448501,0.08881599,-0.24436599999999997,53.97,-1.1375,-16.0125
1439,10377336,0.840458,0.10492,-0.238144,53.095,-0.035,-16.1875
1440,10377432,0.832406,0.112972,-0.239852,53.095,2.345,-16.1
1441,10377529,0.827526,0.126148,-0.23692399999999997,53.235,4.2,-15.4
1442,10377626,0.8308200000000001,0.135908,-0.2318,52.675,5.215,-14.035
1443,10377722,0.837042,0.133712,-0.22265,52.605,6.1425,-12.3025
1444,10377819,0.8559521000000001,0.128344,-0.215452,53.7425,7.595,-10.57
1445,10377916,0.879376,0.122,-0.22362600000000002,55.79,7.945,-8.8375
1446,10378013,0.8985301,0.119316,-0.22777399999999998,57.925,7.21,-7.14
1447,10378109,0.910486,0.11102000000000001,-0.22630999999999998,59.7275,6.0725,-5.775
1448,10378206,0.904874,0.098576,-0.217282,60.655,5.0925,-4.935
1449,10378303,0.8901120000000001,0.094916,-0.193492,60.6375,5.635,-5.04
1450,10378400,0.882182,0.09320801,-0.170312,60.4625,7.8225,-6.09
1451,10378496,0.8815719999999999,0.098088,-0.15494000000000002,59.395,9.8525,-7.4375
1452,10378593,0.8941380999999999,0.108214,-0.137006,56.315,10.815,-8.5575
1453,10378690,0.916342,0.118584,-0.104798,53.375,10.9725,-9.1525
1454,10378786,0.9431821,0.138836,-0.101626,51.065,11.97,-9.555
1455,10378883,0.98088,0.133102,-0.132492,50.7675,14.3325,-10.2025
1456,10378980,1.0115020000000001,0.12505,-0.293166,50.96,14.9275,-10.5875
1457,10379077,1.071404,0.115656,-0.377712,47.1275,11.025,-11.27
1458,10379173,1.15534,0.039406000000000004,-0.373442,40.67,0.9275,-13.23
1459,10379270,1.182302,-0.09381801,-0.508374,38.5875,-4.8125,-19.4425
1460,10379367,1.259772,-0.229848,-0.5979220000000001,41.79,-0.5075,-28.8925
1461,10379464,1.281488,-0.229726,-0.6019479999999999,40.4075,-1.54,-38.255
1462,10379560,1.1964540000000001,-0.08784,-0.523258,38.5525,-5.2675,-44.31
1463,10379657,1.091412,-0.02562,-0.51972,42.945,-5.6,-45.465
1464,10379754,1.038098,-0.030866,-0.542168,46.34,-6.9125,-42.21
1465,10379850,1.032486,0.09979600000000001,-0.56852,45.7975,-7.56,-40.845
1466,10379947,1.029802,0.14823,-0.48739,47.7225,-8.61,-38.92
1467,10380044,0.998692,0.128222,-0.42395,52.01,-12.1625,-34.9125
1468,10380141,0.992226,0.124806,-0.413458,54.705,-16.695,-32.445
1469,10380237,1.0178459999999998,0.144326,-0.42004600000000003,54.5825,-18.97,-32.5325
1470,10380334,1.037366,0.16433399999999998,-0.428464,52.4125,-16.24,-33.985
1471,10380431,1.0412700000000001,0.151036,-0.42065600000000003,52.115,-13.37,-35.9275
1472,10380528,1.038098,0.12505,-0.435418,51.45,-13.86,-37.4325
1473,10380624,1.035048,0.10638399999999999,-0.43505200000000005,51.4675,-16.59,-37.4325
1474,10380721,1.031998,0.08918200000000001,-0.431514,53.6375,-19.3725,-35.9275
1475,10380818,1.026874,0.07002799999999999,-0.43371000000000004,55.055,-21.21,-33.565
1476,10380914,1.014918,0.044896,-0.410652,55.755,-21.2625,-29.9775
1477,10381011,0.9980821,0.010614,-0.398818,56.455,-19.53,-26.6175
1478,10381108,0.9700219999999999,-0.007442,-0.37246599999999996,56.91,-17.5525,-23.5025
1479,10381205,0.9270780999999999,-0.033184,-0.35087199999999996,59.745,-16.1175,-20.615
1480,10381301,0.874374,-0.04392,-0.328302,60.9875,-14.3325,-19.18
1481,10381398,0.823866,-0.04819,-0.312808,62.37,-12.1275,-18.8825
1482,10381495,0.7734800000000001,-0.056852,-0.301462,63.7175,-10.0625,-19.5125
1483,10381591,0.73627,-0.047702,-0.293166,64.9425,-8.89,-21.1225
1484,10381688,0.7150420999999999,-0.032818,-0.287188,66.08,-8.7325,-23.4675
1485,10381785,0.707356,-0.019275999999999998,-0.279624,67.445,-8.33,-25.2525
1486,10381882,0.714066,0.000732,-0.281942,68.1275,-7.105,-28.175
1487,10381978,0.739564,0.019398,-0.28011199999999997,69.4225,-5.5125,-30.66
1488,10382075,0.762744,0.023546,-0.27218200000000004,70.035,-4.0425,-33.425
1489,10382172,0.788608,0.037454,-0.268644,69.86,-1.9075,-36.2425
1490,10382268,0.806542,0.040260000000000004,-0.256322,69.93,-0.315,-38.0975
1491,10382365,0.8192299999999999,0.037698,-0.26303200000000004,69.055,1.2425,-40.1275
1492,10382462,0.826672,0.019275999999999998,-0.263276,69.055,2.0825,-41.895
1493,10382559,0.833992,0.007442,-0.266936,68.3725,1.89,-43.4
1494,10382655,0.8418,-0.01037,-0.28011199999999997,66.7975,0.5425,-44.7825
1495,10382752,0.8620521000000001,-0.021472,-0.282918,64.7325,-0.8575,-46.025
1496,10382849,0.8819381,-0.026595999999999998,-0.26657,62.475,-0.385,-46.9
1497,10382946,0.9056061,-0.032208,-0.247294,60.2175,2.17,-47.1625
1498,10383042,0.9091440000000001,-0.029889999999999996,-0.242048,57.1725,4.7075,-46.6375
1499,10383139,0.8941380999999999,-0.032574,-0.24082800000000001,54.1275,6.72,-45.395
1500,10383236,0.8791321,-0.016225999999999997,-0.250832,50.75,9.24,-44.4675
1501,10383332,0.873398,0.012688,-0.275354,48.5975,11.7075,-43.8725
1502,10383429,0.865956,0.038551999999999996,-0.29341,48.09,12.81,-43.5925
1503,10383526,0.865102,0.06954,-0.304268,47.11,13.4225,-43.8725
1504,10383623,0.874374,0.08893801,-0.28682199999999997,46.9,13.9125,-44.52
1505,10383719,0.8884040000000001,0.10394400000000001,-0.282186,47.5825,13.8425,-45.0975
1506,10383816,0.9089001,0.123464,-0.25742,47.0225,12.7925,-46.3925
1507,10383913,0.9496479999999999,0.127246,-0.228506,45.535,14.175,-48.3175
1508,10384009,0.9977159999999999,0.11736400000000001,-0.228262,43.75,17.71,-49.56
1509,10384106,1.0168700000000002,0.11760799999999999,-0.201544,41.825,21.7525,-49.14
1510,10384203,0.99125,0.09162200000000001,-0.229238,39.2525,26.7925,-48.86
1511,10384300,0.9590420000000001,0.022203999999999998,-0.34794400000000003,38.045,28.77,-50.2075
1512,10384396,0.9028,-0.07076001,-0.482754,39.1825,23.0125,-51.3975
1513,10384493,0.873398,-0.09650201,-0.6326921,41.51,9.555,-53.34
1514,10384590,0.892308,-0.08954801,-0.8076399999999999,44.905,-7.42,-54.845
1515,10384687,0.959408,-0.0427,-0.80215,50.61,-22.12,-51.555
1516,10384783,1.110932,0.151646,-0.6008501,54.845,-26.4075,-41.895
1517,10384880,1.300642,0.440542,-0.53192,53.9175,-13.6675,-28.49
1518,10384977,1.295884,0.527162,-0.46787,56.35,2.0125,-17.815
1519,10385073,1.15656,0.42931800000000003,-0.378932,61.775,5.495,-13.4925
1520,10385170,1.0504200000000001,0.31964000000000004,-0.383202,64.925,1.505,-12.2675
1521,10385267,0.9406200000000001,0.249612,-0.432612,68.1275,-0.805,-12.775
1522,10385364,0.854244,0.208498,-0.428708,73.7625,0.42,-14.63
1523,10385460,0.81862,0.192028,-0.419314,76.895,2.59,-17.675
1524,10385557,0.8039801,0.167262,-0.41577600000000003,78.62751,2.5025,-20.5975
1525,10385654,0.8289901,0.14823,-0.418338,78.855,1.015,-23.275
1526,10385751,0.887916,0.143594,-0.43334399999999995,79.0125,-1.9425,-26.8975
1527,10385847,0.96441,0.167872,-0.43651599999999996,79.415,-5.3725,-31.7975
1528,10385944,1.0384639999999998,0.194102,-0.41589799999999993,81.74251,-6.37,-37.3625
1529,10386041,1.0736,0.243756,-0.39466999999999997,84.35,-6.23,-42.525
1530,10386137,1.066646,0.29426399999999997,-0.38247,87.0975,-5.0575,-46.095
1531,10386234,1.030534,0.308904,-0.373686,90.2475,-1.6625,-47.7575
1532,10386331,0.9648979999999999,0.308782,-0.365634,93.8,3.64,-48.16
1533,10386428,0.8995059999999999,0.28621199999999997,-0.35538600000000004,98.3325,7.9625,-48.3875
1534,10386524,0.864614,0.26461799999999996,-0.345138,102.305,9.87,-49.0525
1535,10386621,0.8494860999999999,0.238998,-0.334158,106.4,9.59,-49.5425
1536,10386718,0.841678,0.21520799999999998,-0.325252,108.885,8.3475,-49.735
1537,10386814,0.8487540000000001,0.20447200000000001,-0.31354,109.4975,7.175,-49.6825
1538,10386911,0.8629061,0.206668,-0.30780599999999997,109.55,7.105,-48.965
1539,10387008,0.8769360999999999,0.20447200000000001,-0.303292,109.7075,7.595,-48.9125
1540,10387105,0.885842,0.196542,-0.30439,110.74,8.785,-48.93
1541,10387201,0.8838901,0.196176,-0.306952,111.125,10.045,-49.0175
1542,10387298,0.8855980999999999,0.17616800000000002,-0.310856,111.37,11.2875,-49.875
1543,10387395,0.879864,0.160552,-0.310612,112.035,12.075,-49.945
1544,10387492,0.8754719999999999,0.142618,-0.31158800000000003,112.14,12.4425,-51.1175
1545,10387588,0.8670540999999999,0.126026,-0.31317399999999995,112.9625,12.25,-52.045
1546,10387685,0.8604661,0.11431400000000001,-0.30317,113.4175,11.795,-52.605
1547,10387782,0.8591241,0.104554,-0.293532,113.4875,11.305,-53.06
1548,10387879,0.8586360000000001,0.104432,-0.28792,113.2075,10.2375,-53.2875
1549,10387975,0.86315,0.105652,-0.278648,112.98,9.8525,-53.305
1550,10388072,0.8725440999999999,0.104798,-0.272304,112.63,10.8325,-52.885
1551,10388169,0.8903561,0.10223600000000001,-0.265838,112.1225,12.775,-52.255
1552,10388265,0.9004821,0.094306,-0.25559,110.8625,13.965,-51.065
1553,10388362,0.9087780000000001,0.09259801,-0.247416,110.1975,14.7875,-49.5775
1554,10388459,0.9195141,0.08869401,-0.24326799999999998,110.005,15.2775,-47.985
1555,10388556,0.922686,0.08100801,-0.24766,110.25,15.925,-46.1125
1556,10388652,0.931348,0.06380599999999999,-0.256444,110.8275,16.555,-44.2225
1557,10388749,0.9435479999999999,0.050142,-0.265838,111.09,16.0825,-42.245
1558,10388846,0.9547720999999999,0.046848,-0.25986,110.2325,14.5775,-40.5125
1559,10388943,0.957944,0.047214,-0.251564,109.41,13.7025,-38.9375
1560,10389039,0.9602620999999999,0.05185,-0.251686,108.815,14.3675,-37.8
1561,10389136,0.959774,0.05563200000000001,-0.245342,108.045,15.8725,-37.17
1562,10389233,0.9591639999999999,0.055265999999999996,-0.24631799999999998,107.0125,17.15,-37.205
1563,10389329,0.9625799999999999,0.058072000000000006,-0.23472800000000002,105.385,17.7275,-37.3625
1564,10389426,0.9651421,0.06771001,-0.22875,103.88,17.92,-37.45
1565,10389523,0.9589200999999999,0.08369201,-0.215574,102.725,18.375,-37.1525
1566,10389620,0.9479401,0.103334,-0.210206,101.885,19.635,-36.47
1567,10389716,0.93391,0.141398,-0.23546,100.9925,21.1925,-35.63
1568,10389813,0.9439139999999999,0.135054,-0.25790799999999997,101.185,22.225,-35.21
1569,10389910,0.9592860000000001,0.10797000000000001,-0.308782,102.6725,21.805,-34.65
1570,10390007,0.9862479999999999,0.077958,-0.427854,104.125,20.16,-34.58
1571,10390103,1.0534700000000001,0.032818,-0.49580799999999997,104.8075,15.68,-35.525
1572,10390200,1.107882,-0.029646,-0.4697,103.32,5.81,-36.855
1573,10390297,1.102392,-0.047945999999999996,-0.463844,100.9925,-3.57,-38.7975
1574,10390393,1.090192,-0.008540001,-0.47653199999999996,96.95,-5.2675,-41.3875
1575,10390490,1.0645719999999999,-0.017568,-0.457866,93.4675,-2.4325,-42.8925
1576,10390587,1.027362,-0.0732,-0.431514,92.925,4.445,-44.0825
1577,10390684,1.006744,-0.042334,-0.41272600000000004,91.4725,11.305,-46.4275
1578,10390780,0.9713639999999999,0.040382,-0.38918,90.475,13.895,-47.3725
1579,10390877,0.918416,0.111142,-0.37942,92.3825,14.175,-45.43
1580,10390974,0.8643700999999999,0.15762400000000001,-0.416996,95.585,12.845,-42.385
1581,10391071,0.8392381,0.18361,-0.425292,98.4375,10.3075,-40.3375
1582,10391167,0.838018,0.178242,-0.4148,100.6075,7.77,-39.83
1583,10391264,0.8574161,0.16165,-0.396988,102.5325,6.2475,-40.705
1584,10391361,0.8965780000000001,0.15006,-0.37417399999999995,103.285,5.2325,-43.015
1585,10391457,0.9301280000000001,0.122,-0.351482,103.4075,5.4775,-46.2
1586,10391554,0.953308,0.074664,-0.33916,103.3375,6.72,-49.0
1587,10391651,0.96075,0.025376,-0.335744,102.3225,7.1225,-50.785
1588,10391748,0.9595300999999999,-0.000488,-0.333548,99.8375,6.2125,-51.275
1589,10391844,0.95709,-0.01647,-0.338428,97.2475,5.635,-50.6275
1590,10391941,0.9630681000000001,-0.0183,-0.33171799999999996,93.66,5.0925,-49.0
1591,10392038,0.971974,-0.014396,-0.341356,90.9125,4.7425,-46.3925
1592,10392135,0.9863700000000001,-0.011224,-0.338428,89.5125,4.3925,-43.4875
1593,10392231,1.001742,-0.006954000000000001,-0.335866,88.27,3.6575,-40.81
1594,10392328,1.015894,-0.001098,-0.325862,87.1675,3.92,-38.5525
1595,10392425,1.01321,-0.002928,-0.31537,86.415,5.39,-36.61
1596,10392521,0.9895421,-0.0051240009999999996,-0.306464,85.505,6.755,-35.0875
1597,10392618,0.9595300999999999,-0.011712,-0.28914,84.9625,6.9475,-33.6525
1598,10392715,0.93391,-0.005978,-0.27389,83.895,6.335,-32.34
1599,10392812,0.9140241,-0.003172,-0.259006,83.0375,5.67,-31.5
1600,10392908,0.9030440000000001,-0.003172,-0.24265799999999998,82.915,5.1275,-31.3425
1601,10393005,0.8964561,-0.005612,-0.235704,83.09000999999999,4.4275,-31.6925
1602,10393102,0.8881600000000001,-0.01403,-0.23216599999999998,82.81,3.92,-32.935
1603,10393199,0.8840120000000001,-0.021838,-0.229726,82.8625,4.3225,-34.3
1604,10393295,0.87718,-0.028426,-0.221552,81.76001,4.3225,-36.1025
1605,10393392,0.870714,-0.027572000000000003,-0.21057199999999998,80.15,4.06,-37.9225
1606,10393489,0.8633940000000001,-0.016225999999999997,-0.194712,77.9275,3.64,-39.97
1607,10393586,0.86498,-0.008784,-0.186172,75.4775,3.9375,-41.51
1608,10393682,0.8657120999999999,-0.0034159999999999998,-0.19178399999999998,72.5375,3.99,-42.28
1609,10393779,0.8692501,-0.016836,-0.197518,69.72,3.3775,-42.4725
1610,10393876,0.8769360999999999,-0.03355,-0.21581799999999998,66.5175,2.6775,-42.105
1611,10393972,0.8936501,-0.058316,-0.232654,63.735,2.0475,-41.4925
1612,10394069,0.915976,-0.08405800000000001,-0.234972,61.3375,1.19,-40.7925
1613,10394166,0.9378139999999999,-0.10345599999999999,-0.228994,58.905,0.4725,-40.25
1614,10394263,0.96441,-0.115534,-0.212646,56.7875,0.9975,-39.8825
1615,10394359,0.9916161,-0.10650599999999999,-0.201544,53.27,0.0525,-39.165
1616,10394456,0.995886,-0.082228,-0.217892,48.1425,-3.0275,-37.6075
1617,10394553,0.9916161,-0.052948,-0.24570799999999998,42.7875,-4.2525,-35.77
1618,10394649,0.981612,-0.022692,-0.254492,38.675,-2.3625,-34.0375
1619,10394746,0.96929,0.017324000000000003,-0.258274,35.1925,0.175,-32.27
1620,10394843,0.9505020000000001,0.037332,-0.272548,32.9175,2.3625,-30.03
1621,10394940,0.9320801,0.028548,-0.29292199999999996,32.55,4.235,-27.37
1622,10395036,0.9242720999999999,0.002806,-0.28987199999999996,33.775,5.53,-25.235
1623,10395133,0.9240280000000001,-0.002806,-0.2745,34.58,5.4775,-23.8525
1624,10395230,0.934276,-0.00244,-0.27510999999999997,35.4375,4.2,-23.135
1625,10395327,0.9467200000000001,-0.012078,-0.268766,36.5925,1.225,-22.82
1626,10395423,0.9651421,-0.0008540001,-0.274134,36.1725,-1.9425,-23.03
1627,10395520,0.9882001,0.029036000000000003,-0.292678,34.2125,-3.8325,-24.22
1628,10395617,1.054324,0.018788,-0.321592,32.6025,-4.515,-25.445
1629,10395713,1.11386,0.032818,-0.386252,32.8475,-5.1275,-24.7975
1630,10395810,1.136918,0.04941,-0.409554,30.485,-1.2425,-22.5575
1631,10395907,1.1211799999999998,0.031842,-0.5104479999999999,23.625,5.145,-21.63
1632,10396004,1.09617,-0.023546,-0.649894,24.4125,4.7775,-23.03
1633,10396100,1.066402,0.002562,-0.44847200000000004,28.2275,-2.1,-24.1325
1634,10396197,1.068232,0.1525,-0.413458,25.0075,-6.4575,-25.34
1635,10396294,1.15595,0.265228,-0.48690200000000006,25.06,-6.9825,-23.9925
1636,10396390,1.1598540000000002,0.17580199999999999,-0.44090799999999997,29.89,4.06,-16.695
1637,10396487,1.0290700000000002,0.083204,-0.410896,30.6425,12.39,-13.4925
1638,10396584,0.9619700000000001,0.04404201,-0.414678,28.0175,8.9775,-15.575
1639,10396681,0.9195141,0.042456,-0.425658,25.4275,1.68,-16.2225
1640,10396777,0.8666879999999999,0.046238,-0.42895200000000006,24.78,-3.92,-14.525
1641,10396874,0.817278,0.057096,-0.409066,25.06,-8.295,-12.25
1642,10396971,0.8010520000000001,0.10126,-0.40504,22.5225,-9.0475,-9.275
1643,10397067,0.811666,0.139324,-0.424804,19.9325,-4.7075,-6.16
1644,10397164,0.8282579999999999,0.151402,-0.42895200000000006,20.37,-0.77,-3.71
1645,10397261,0.846558,0.166652,-0.42748800000000003,22.19,-0.98,-2.695
1646,10397358,0.8712021000000001,0.18605,-0.430782,25.3575,-1.8375,-3.36
1647,10397454,0.8975540000000001,0.19825,-0.42700000000000005,28.3675,-1.6275,-5.6
1648,10397551,0.9254921,0.201422,-0.41760600000000003,30.6425,-1.365,-8.4875
1649,10397648,0.9519661,0.19483399999999998,-0.41272600000000004,33.32,-1.8025,-12.0925
1650,10397745,0.96929,0.19825,-0.402478,34.5275,-3.7975,-16.0125
1651,10397841,0.953308,0.226066,-0.400404,34.9825,-6.23,-19.355
1652,10397938,0.926834,0.208254,-0.38198200000000004,36.505,-6.51,-22.6625
1653,10398035,0.8960899999999999,0.198982,-0.365268,38.115,-4.2525,-24.325
1654,10398132,0.8640040000000001,0.17921800000000002,-0.351482,39.935,-1.75,-25.3925
1655,10398228,0.8513161,0.15176800000000001,-0.338672,42.035,-0.3325,-26.355
1656,10398325,0.8443620999999999,0.140178,-0.328424,43.7325,0.3325,-26.7225
1657,10398422,0.8443620999999999,0.129686,-0.31097800000000003,44.7825,0.245,-26.39
1658,10398518,0.8509501,0.12431800000000001,-0.310002,44.9225,-0.245,-25.305
1659,10398615,0.85034,0.13456600000000002,-0.309148,44.4675,-1.295,-23.3625
1660,10398712,0.8526581,0.139568,-0.30780599999999997,44.2225,-2.2925,-21.7525
1661,10398809,0.850706,0.135542,-0.298168,44.3975,-2.4675,-20.825
1662,10398905,0.8453381,0.133102,-0.284138,44.835,-1.365,-19.81
1663,10399002,0.84241,0.108824,-0.28181999999999996,45.64,0.3675,-19.565
1664,10399099,0.8405800999999999,0.094306,-0.28157600000000005,45.605,2.205,-19.4075
1665,10399196,0.839116,0.077836,-0.271694,46.095,2.975,-19.005
1666,10399292,0.835822,0.067832,-0.262666,46.4625,3.3775,-18.795
