,T,ax,ay,az,gx,gy,gz
0,932111,0.43432,-0.125416,-0.748104,16.9225,-15.715,-19.0575
1,932257,0.462136,-0.115656,-0.822524,76.825,-128.3625,-170.695
2,932355,0.49654,-0.11345999999999999,-0.8862081,-12.18,-99.5575,-367.955
3,932453,0.499712,-0.1037,-0.897432,31.9025,-105.525,-87.115
4,932551,0.496296,-0.10833599999999999,-0.9267120000000001,7.735,-4.76,-7.2625
5,932649,0.5002,-0.116388,-0.935984,14.28,-0.2625,-5.7225
6,932747,0.5321640000000001,-0.11736400000000001,-0.9711200999999999,20.6325,3.9725,-5.355
7,932845,0.49434399999999995,-0.121512,-0.9037761000000001,21.385,7.5075,-5.7925
8,932943,0.6229319999999999,-0.21667199999999998,-0.633668,11.97,10.9375,-7.0
9,933041,0.45432799999999995,-0.003172,-0.8693719999999999,-23.73,-33.4775,-7.1225
10,933139,0.63562,-0.22423600000000002,-0.973316,-13.2475,-49.0525,-7.28
11,933237,0.41358,-0.12053599999999999,-0.763476,0.35,-2.8,-6.72
12,933335,0.47458,-0.119316,-0.813008,1.33,-5.1275,-6.9475
13,933434,0.5023960999999999,-0.12761199999999998,-0.8586360000000001,0.91,-6.265,-6.86
14,933532,0.503616,-0.12444000000000001,-0.862784,0.805,-5.9675,-6.9825
15,933630,0.5016641,-0.12444000000000001,-0.854244,0.805,-5.565,-6.9125
16,933728,0.49824799999999997,-0.123708,-0.8527800999999999,0.8400001,-5.6175,-6.825
17,933826,0.49727200000000005,-0.124196,-0.8527800999999999,0.8575,-5.775,-6.8425
18,933924,0.498004,-0.124196,-0.854244,0.8225,-5.6525,-6.86
19,934022,0.49995600000000007,-0.123464,-0.8549761,0.945,-5.6525,-6.8775
20,934120,0.49776000000000004,-0.12395199999999999,-0.853024,0.9625,-5.6875,-6.895
21,934218,0.49776000000000004,-0.122976,-0.8552200000000001,1.0325,-5.6525,-6.8425
22,934316,0.49727200000000005,-0.12322000000000001,-0.8540000000000001,1.12,-5.5825,-6.86
23,934414,0.499468,-0.123464,-0.8547319999999999,1.1375,-5.495,-6.685
24,934512,0.49654,-0.126392,-0.8552200000000001,1.19,-5.4775,-6.7025
25,934610,0.49898000000000003,-0.126148,-0.8559521000000001,1.155,-5.53,-6.65
26,934708,0.49824799999999997,-0.12566,-0.85156,1.26,-5.5825,-6.6325
27,934807,0.49776000000000004,-0.126392,-0.85156,1.225,-5.6875,-6.7025
28,934905,0.5002,-0.125172,-0.8518040000000001,1.05,-5.775,-6.8425
29,935003,0.49751599999999996,-0.12468399999999999,-0.850584,0.8575,-5.8275,-6.895
30,935101,0.49824799999999997,-0.122,-0.8532681000000001,0.875,-5.8975,-6.93
31,935199,0.49751599999999996,-0.122732,-0.853512,0.945,-5.95,-7.0
32,935297,0.49751599999999996,-0.124196,-0.849852,0.8925,-5.845,-6.8775
33,935395,0.49702799999999997,-0.122244,-0.853512,0.9625,-5.7225,-6.825
34,935493,0.49776000000000004,-0.122732,-0.854244,0.98,-5.53,-6.7725
35,935591,0.49824799999999997,-0.123464,-0.8493641,1.0325,-5.5475,-6.755
36,935689,0.49873599999999996,-0.12566,-0.8510719999999999,1.085,-5.635,-6.685
37,935787,0.49702799999999997,-0.123464,-0.8520479999999999,1.1375,-5.565,-6.685
38,935885,0.49702799999999997,-0.122976,-0.853024,1.1025,-5.6,-6.72
39,935983,0.49751599999999996,-0.12468399999999999,-0.85156,1.015,-5.635,-6.615
40,936081,0.496784,-0.12468399999999999,-0.8525360000000001,0.9975,-5.6525,-6.72
41,936180,0.49824799999999997,-0.126636,-0.8508280999999999,0.945,-5.81,-6.7725
42,936278,0.49751599999999996,-0.126392,-0.8508280999999999,0.8225,-5.8975,-6.7725
43,936376,0.498004,-0.125416,-0.8525360000000001,0.7,-5.8625,-6.79
44,936474,0.5011760000000001,-0.12322000000000001,-0.85034,0.7,-5.88,-6.8425
45,936572,0.49751599999999996,-0.12322000000000001,-0.85156,0.77,-5.88,-6.8075
46,936670,0.49824799999999997,-0.123708,-0.8513161,0.8225,-5.8625,-6.8775
47,936768,0.49727200000000005,-0.123464,-0.8532681000000001,0.875,-5.775,-6.825
48,936866,0.498004,-0.12444000000000001,-0.853024,0.8925,-5.6875,-6.8075
49,936964,0.49776000000000004,-0.12395199999999999,-0.8518040000000001,0.8575,-5.6175,-6.79
50,937062,0.49727200000000005,-0.125416,-0.849852,0.8400001,-5.6,-6.79
51,937160,0.498004,-0.124928,-0.8522921,0.8575,-5.6525,-6.8425
52,937258,0.49824799999999997,-0.126392,-0.8508280999999999,0.875,-5.67,-6.7375
53,937356,0.49824799999999997,-0.124928,-0.8525360000000001,0.7875,-5.635,-6.825
54,937454,0.499712,-0.12444000000000001,-0.8493641,0.8575,-5.5475,-6.895
55,937552,0.500688,-0.125172,-0.8510719999999999,0.8575,-5.53,-6.965
56,937650,0.49849209999999994,-0.12175599999999999,-0.8527800999999999,0.77,-5.7925,-7.0175
57,937748,0.49995600000000007,-0.12322000000000001,-0.8513161,0.805,-5.705,-6.895
58,937846,0.5009319999999999,-0.122976,-0.850096,0.875,-5.635,-6.86
59,937944,0.496784,-0.125416,-0.8486319999999999,0.9625,-5.67,-6.79
60,938043,0.49776000000000004,-0.12395199999999999,-0.8479,0.875,-5.74,-6.825
61,938141,0.496784,-0.124196,-0.8513161,0.7525,-5.8975,-6.8775
62,938239,0.49898000000000003,-0.124928,-0.8483879999999999,0.77,-5.9675,-6.895
63,938337,0.49580799999999997,-0.123708,-0.8518040000000001,0.6825,-6.02,-6.93
64,938435,0.49849209999999994,-0.12248800000000001,-0.8520479999999999,0.595,-6.0375,-6.9825
65,938533,0.498004,-0.12468399999999999,-0.8508280999999999,0.5775,-6.055,-6.9475
66,938631,0.49751599999999996,-0.12322000000000001,-0.8518040000000001,0.56,-6.0375,-7.035
67,938729,0.49824799999999997,-0.122244,-0.8513161,0.56,-6.0025,-7.0175
68,938827,0.49751599999999996,-0.12078,-0.850584,0.7175,-5.845,-7.0525
69,938925,0.49751599999999996,-0.12029200000000001,-0.8510719999999999,0.8925,-5.74,-6.86
70,939023,0.49702799999999997,-0.12053599999999999,-0.849608,0.945,-5.7225,-6.685
71,939121,0.500444,-0.122976,-0.8493641,1.085,-5.6875,-6.7025
72,939219,0.496296,-0.124928,-0.8510719999999999,1.1025,-5.5825,-6.685
73,939317,0.49849209999999994,-0.122732,-0.8513161,0.9975,-5.6875,-6.6325
74,939415,0.499712,-0.126148,-0.85156,0.98,-5.81,-6.755
75,939514,0.49776000000000004,-0.126148,-0.849608,1.015,-5.7925,-6.755
76,939612,0.49995600000000007,-0.124928,-0.8493641,1.0325,-5.7925,-6.6675
77,939710,0.499224,-0.122976,-0.85034,0.9975,-5.8275,-6.7025
78,939808,0.499712,-0.122732,-0.849852,0.9625,-5.81,-6.755
79,939906,0.49849209999999994,-0.122244,-0.8479,1.1025,-5.95,-6.7725
80,940004,0.499712,-0.122244,-0.850096,1.1725,-5.6875,-6.58
81,940102,0.499224,-0.12322000000000001,-0.8540000000000001,1.3475,-5.6,-6.545
82,940200,0.499224,-0.12322000000000001,-0.853024,1.54,-5.5125,-6.58
83,940298,0.502152,-0.12468399999999999,-0.8554641,1.61,-5.39,-6.6675
84,940396,0.50264,-0.126636,-0.8447280999999999,1.54,-5.6175,-6.79
85,940494,0.49776000000000004,-0.12566,-0.849852,1.225,-6.0725,-6.8425
86,940592,0.49702799999999997,-0.12322000000000001,-0.8471681000000001,1.2425,-5.915,-6.825
87,940690,0.499224,-0.124196,-0.8483879999999999,1.12,-5.985,-6.8775
88,940788,0.499224,-0.12322000000000001,-0.8488761,1.1025,-6.0725,-6.895
89,940886,0.49824799999999997,-0.12175599999999999,-0.850096,1.19,-6.02,-6.9125
90,940984,0.499224,-0.12468399999999999,-0.849608,1.12,-5.9325,-6.965
91,941082,0.49727200000000005,-0.12322000000000001,-0.8481440999999998,1.085,-5.74,-6.93
92,941181,0.49898000000000003,-0.123708,-0.8486319999999999,1.0325,-5.74,-6.9125
93,941279,0.5002,-0.12248800000000001,-0.8549761,1.0675,-5.7925,-6.965
94,941377,0.500444,-0.119072,-0.8610761,1.5225,-5.81,-6.965
95,941475,0.504836,-0.122,-0.8671761,2.2225,-5.565,-7.0525
96,941573,0.504104,-0.123464,-0.8679081,3.15,-5.1275,-7.0
97,941671,0.503372,-0.128344,-0.8610761,4.445,-4.1475,-7.035
98,941769,0.504592,-0.13054000000000002,-0.8479,5.915,-3.2375,-7.0875
99,941867,0.5936520000000001,0.043432,-0.8176439999999999,6.4925,-2.52,-7.21
100,941965,0.410408,-0.26718000000000003,-0.8230120999999999,8.8375,-3.7625,-9.2575
101,942063,0.508984,-0.135664,-0.815204,6.195,-4.27,-7.035
102,942161,0.4933681,-0.114192,-0.8298440999999999,4.8825,-4.0425,-7.0525
103,942259,0.48726800000000003,-0.144204,-0.8559521000000001,4.4975,-4.445,-7.35
104,942357,0.49824799999999997,-0.132736,-0.8520479999999999,4.6375,-5.285,-7.105
105,942455,0.49776000000000004,-0.127856,-0.8413120000000001,2.5375,-4.9525,-6.9825
106,942553,0.5002,-0.13298,-0.853024,2.1525,-5.565,-6.9825
107,942651,0.5077640999999999,-0.135664,-0.8547319999999999,1.61,-5.775,-7.1925
108,942749,0.504104,-0.133468,-0.8491200000000001,1.61,-5.9325,-7.3325
109,942847,0.5690081,-0.071492,-0.81862,1.645,-5.5825,-7.7
110,942945,0.470188,-0.15982000000000002,-0.8647360000000001,4.095,-6.5275,-8.2425
111,943043,0.533384,-0.111752,-0.841556,3.0625,-5.6175,-7.4725
112,943142,0.49263599999999996,-0.145424,-0.8388721,4.5675,-5.705,-7.4375
113,943240,0.49605200000000005,-0.13664,-0.8396040000000001,4.935,-6.2475,-7.1925
114,943338,0.5058121,-0.12761199999999998,-0.8420440999999999,3.85,-5.95,-7.0875
115,943436,0.49141599999999996,-0.133956,-0.8432639999999999,3.7975,-6.265,-7.105
116,943534,0.49873599999999996,-0.128832,-0.838628,2.9575,-6.265,-7.0
117,943632,0.496296,-0.136884,-0.8376520000000001,2.415,-6.3875,-7.0
118,943730,0.49288000000000004,-0.136152,-0.8383841000000001,1.5925,-6.545,-7.14
119,943828,0.49556400000000006,-0.134444,-0.8352120000000001,0.6125,-6.5625,-7.0875
120,943926,0.49824799999999997,-0.134932,-0.8371639999999999,-0.14,-6.545,-7.175
121,944024,0.49995600000000007,-0.13176,-0.8400921,-0.9625,-6.4925,-7.3325
122,944122,0.49849209999999994,-0.130296,-0.8457040000000001,-1.295,-6.3525,-7.4725
123,944220,0.5009319999999999,-0.131272,-0.8425321,-1.5225,-6.09,-7.49
124,944318,0.499712,-0.133468,-0.8439959999999999,-1.785,-5.81,-7.455
125,944416,0.5016641,-0.133224,-0.8461921,-1.8025,-5.4075,-7.49
126,944514,0.506544,-0.130052,-0.84546,-1.855,-5.0225,-7.525
127,944612,0.5011760000000001,-0.130296,-0.8430200999999999,-1.575,-4.62,-7.4725
128,944710,0.49824799999999997,-0.125172,-0.8439959999999999,-1.575,-4.2875,-7.4725
129,944808,0.5011760000000001,-0.12566,-0.8471681000000001,-1.4,-3.885,-7.35
130,944906,0.498004,-0.12688,-0.8430200999999999,-1.1375,-3.4825,-7.455
131,945004,0.493856,-0.128588,-0.8432639999999999,-1.1025,-3.115,-7.42
132,945102,0.49532,-0.13176,-0.8432639999999999,-1.33,-2.7125,-7.49
133,945201,0.4941,-0.14005599999999999,-0.8403360000000001,-1.7675,-2.3625,-7.7875
134,945299,0.48556000000000005,-0.171532,-0.8642481,-2.345,-1.8725,-8.365
135,945397,0.49141599999999996,-0.156404,-0.906216,-2.9225,-0.2975,-9.0475
136,945495,0.48263199999999995,-0.152256,-0.897432,-1.19,1.2425,-10.29
137,945593,0.48556000000000005,-0.16201600000000002,-0.8708360999999999,-0.5775,3.3425,-11.76
138,945691,0.48312,-0.158112,-0.8642481,-1.1025,6.58,-12.95
139,945789,0.427976,-0.0549,-0.8847440999999999,-1.365,11.8125,-14.14
140,945887,0.256444,0.075396,-1.027728,8.6275,19.0575,-18.97
141,945985,0.274988,-0.220088,-1.072624,31.395,33.7225,-30.975
142,946083,0.179828,-0.14005599999999999,-1.15534,35.0,43.4175,-39.585
143,946181,0.07173600000000001,-0.194468,-1.2719719999999999,44.1,50.26,-44.38
144,946279,-0.036844,-0.26156799999999997,-1.2397639999999999,44.17,50.05,-45.36
145,946377,-0.124196,-0.291824,-1.2639200000000002,39.0075,49.4375,-42.175
146,946475,-0.11224,-0.343796,-1.3705479999999999,32.375,46.48,-35.9975
147,946573,-0.08637601,-0.331352,-1.575996,18.76,37.52,-27.265
148,946671,-0.20691199999999998,-0.257664,-1.561356,7.21,16.59,-15.995
149,946769,-0.314272,-0.14518,-1.48718,0.63,-3.29,-6.545
150,946867,-0.349896,-0.026595999999999998,-1.45302,-1.785,-18.48,-1.575
151,946965,-0.326472,0.054412,-1.438136,-0.735,-32.0075,-1.505
152,947064,-0.26352,0.10858,-1.418128,1.225,-45.4475,-5.0575
153,947162,-0.186416,0.141032,-1.374208,2.975,-58.6775,-10.99
154,947260,-0.109556,0.160308,-1.311744,5.4425,-70.4375,-17.71
155,947358,-0.0051240009999999996,0.15738,-1.256356,9.3625,-78.89,-23.8175
156,947456,0.11541199999999999,0.138348,-1.2251239999999999,13.8075,-84.15751,-29.1725
157,947554,0.22667600000000002,0.110044,-1.186816,17.92,-88.2175,-33.1625
158,947652,0.327936,0.080276,-1.1446040000000002,19.3725,-91.07,-35.8575
159,947750,0.401868,0.05856,-1.104588,17.85,-92.40001,-37.7125
160,947848,0.461404,0.035624,-1.070184,14.91,-92.12001,-39.0075
161,947946,0.49605200000000005,0.014152000000000001,-1.0521280000000002,11.5675,-90.755,-39.69
162,948044,0.5260640000000001,0.010492,-1.044564,8.96,-89.3025,-40.11
163,948142,0.534848,-0.00488,-1.0126,8.1725,-89.075,-40.2675
164,948240,0.514596,-0.021228,-0.9567241,7.77,-88.48001,-40.075
165,948338,0.487756,-0.044896,-0.9001161,7.0,-86.17,-39.4975
166,948436,0.47360399999999997,-0.071492,-0.8676640999999999,5.74,-81.81251,-37.8875
167,948534,0.47775200000000007,-0.09125599999999999,-0.8913321,3.885,-76.0725,-34.72
168,948632,0.556808,-0.053924,-1.0147959999999998,4.13,-70.665,-29.3125
169,948731,0.6736840000000001,-0.013663999999999999,-1.109956,10.15,-71.2075,-22.575
170,948829,0.6566041,-0.016836,-1.0255319999999999,15.33,-81.90001,-16.695
171,948927,0.52704,-0.005856,-0.8235001000000001,13.055,-92.12001,-14.2975
172,949025,0.44847200000000004,0.021228,-0.6785640000000001,8.3125,-90.59751,-14.875
173,949123,0.49166000000000004,0.033916,-0.67466,8.3475,-78.8725,-15.89
174,949221,0.6007279999999999,-0.006832001,-0.7241920000000001,13.8425,-67.34000999999999,-16.0475
175,949319,0.65514,-0.057584,-0.7088201,17.465,-62.895,-15.9075
176,949417,0.644892,-0.079056,-0.615124,15.19,-62.0725,-16.7825
177,949515,0.659532,-0.061,-0.550952,10.1325,-58.87,-19.3375
178,949613,0.716384,-0.031476,-0.5231359999999999,8.4525,-52.7275,-22.995
179,949711,0.7468840999999999,-0.023424,-0.467992,10.115,-47.9325,-27.86
180,949809,0.7834840000000001,-0.021472,-0.403332,12.81,-42.4025,-33.775
181,949907,0.8520479999999999,-0.028792,-0.390644,17.1675,-34.6325,-39.725
182,950005,0.8901120000000001,-0.057584,-0.363072,22.365,-28.735,-44.345
183,950103,0.8847440999999999,-0.101016,-0.300608,26.74,-24.2725,-47.1975
184,950202,0.8674200000000001,-0.153476,-0.28304,27.51,-18.1475,-48.8775
185,950300,0.876692,-0.183488,-0.32403200000000004,22.3825,-10.6925,-50.61
186,950398,0.8881600000000001,-0.176656,-0.37088000000000004,14.28,-5.145,-52.1325
187,950496,0.8820601,-0.148352,-0.365268,10.185,-2.1525,-53.3575
188,950594,0.8657120999999999,-0.14713199999999999,-0.34281999999999996,13.1075,1.1725,-54.9675
189,950692,0.9315921,-0.025131999999999998,0.23887600000000003,22.61,11.6025,-57.1025
190,950790,1.1960879999999998,-0.40577199999999997,0.14762,49.07,59.5,-57.12
191,950888,0.543144,-0.621224,-0.409188,33.7225,86.5725,-55.3175
192,950986,0.296704,-0.8586360000000001,-1.411784,36.4875,103.845,-37.73
193,951084,0.313052,-0.903532,-0.695156,9.7825,102.76,-35.945
194,951182,0.820084,-0.650748,-0.7415161,-11.2875,125.44,-35.3325
195,951280,0.677344,-0.28694400000000003,-0.9633120999999999,-29.75,122.85,-20.4575
196,951378,0.550708,0.45603599999999994,-0.8725440999999999,-48.755,112.0175,-20.895
197,951476,1.146556,0.8296,-1.38592,-53.375,121.905,-26.1975
198,951574,0.5124001,0.14005599999999999,-1.337608,-1.96,103.11,-18.6025
199,951673,0.177876,-0.261324,-0.807884,17.1325,86.9225,-19.355
200,951771,0.388204,0.29426399999999997,-0.8723001,22.2075,108.0275,-12.5125
201,951869,1.796572,-0.429684,-2.2387,38.1325,117.5125,-9.975
202,951967,0.909632,-0.9167081,-0.40016,-17.325,59.465,-2.0825
203,952065,0.6729520999999999,-0.02074,-1.276852,-50.7675,-12.0575,-19.775
204,952163,0.770308,-0.266936,-0.9318360000000001,-54.18,-1.8025,-21.7525
205,952261,0.704916,-0.2806,-0.9318360000000001,-25.69,-8.1025,-17.8675
206,952359,0.67588,-0.152988,-0.9293961,-23.7825,-18.3925,-18.305
207,952457,0.594384,-0.08344800000000001,-0.885964,-20.3,-12.11,-16.4675
208,952555,0.555832,-0.026595999999999998,-0.89792,-14.5425,-12.5475,-13.3
209,952653,0.5441199999999999,-0.085888,-0.8676640999999999,-5.7925,-10.045,-9.9225
210,952751,0.520208,-0.058316,-0.864492,-4.8825,-9.765,-9.5375
211,952849,0.509228,-0.054167999999999994,-0.8679081,-2.065,-9.2575,-8.1725
212,952947,0.5016641,-0.082716,-0.8591241,0.8400001,-8.47,-6.825
213,953045,0.49117200000000005,-0.07076001,-0.860344,1.68,-7.4725,-6.265
214,953143,0.487756,-0.07198,-0.861808,3.22,-6.125,-5.355
215,953241,0.490196,-0.07222401,-0.8596120999999999,4.8475,-4.2875,-4.1825
216,953340,0.493612,-0.07198,-0.8549761,5.915,-2.835,-2.9925
217,953438,0.500688,-0.12053599999999999,-0.8544879999999999,7.8925,-1.7325,-1.855
218,953536,0.502152,-0.14762,-0.8481440999999998,7.665,-1.3125,-2.73
219,953634,0.501908,-0.133468,-0.853756,5.075,-1.4525,-5.005
220,953732,0.504104,-0.12712400000000001,-0.8459479999999999,3.36,-1.5925,-6.72
221,953830,0.504592,-0.11102000000000001,-0.85034,2.1,-2.2925,-8.05
222,953928,0.504836,-0.10248,-0.845216,1.9075,-3.045,-8.4525
223,954026,0.5043479999999999,-0.08564401,-0.8522921,1.5925,-3.36,-8.4175
224,954124,0.504836,-0.07246799999999999,-0.8510719999999999,2.2925,-3.7975,-7.9275
225,954222,0.502884,-0.08759601,-0.853756,3.2725,-4.62,-6.685
226,954320,0.49824799999999997,-0.10345599999999999,-0.8493641,3.815,-5.2325,-5.8625
227,954418,0.5016641,-0.11053199999999999,-0.8483879999999999,3.3425,-5.88,-6.02
228,954516,0.49849209999999994,-0.128344,-0.8493641,3.0975,-6.7375,-6.265
229,954614,0.5011760000000001,-0.121024,-0.849608,2.205,-7.4025,-7.21
230,954712,0.49751599999999996,-0.10516400000000001,-0.8476561,1.05,-8.085,-7.9975
231,954811,0.49654,-0.10760399999999999,-0.8522921,0.7525,-8.4875,-8.2075
232,954909,0.50264,-0.10248,-0.8532681000000001,0.5425,-8.645,-8.12
233,955007,0.50142,-0.099552,-0.84546,0.315,-8.4525,-7.945
234,955105,0.503372,-0.101016,-0.853024,0.245,-8.75,-7.49
235,955203,0.504592,-0.10858,-0.8491200000000001,-0.1225,-9.275,-7.315
236,955301,0.504836,-0.10223600000000001,-0.85156,-0.49,-9.905,-7.2625
237,955399,0.500444,-0.08637601,-0.8510719999999999,-1.12,-10.7625,-7.455
238,955497,0.5011760000000001,-0.10394400000000001,-0.8549761,-0.8225,-11.025,-7.35
239,955595,0.488976,-0.09320801,-0.8479,-1.2425,-10.92,-7.49
240,955693,0.46628400000000003,-0.135664,-0.8608319999999999,-0.4025,-11.06,-7.2625
241,955791,0.487512,-0.10540799999999999,-0.8527800999999999,-0.91,-9.7475,-7.49
242,955889,0.492148,-0.10126,-0.8518040000000001,-0.6125,-8.5575,-7.56
243,955987,0.4933681,-0.10345599999999999,-0.8520479999999999,-0.77,-8.645,-7.49
244,956085,0.49556400000000006,-0.09418401,-0.8549761,-0.8925,-8.6275,-7.5075
245,956183,0.493612,-0.096868,-0.8520479999999999,-0.735,-8.5925,-7.2975
246,956281,0.49288000000000004,-0.08784,-0.8540000000000001,-0.5775,-8.575,-6.72
247,956380,0.490684,-0.09418401,-0.860344,0.105,-8.4,-5.95
248,956478,0.491904,-0.090036,-0.8718120999999999,0.175,-7.875,-5.5825
249,956576,0.49288000000000004,-0.08369201,-0.8613200000000001,-0.245,-8.155,-5.25
250,956674,0.495076,-0.079544,-0.8569280999999999,-0.77,-8.5575,-4.5325
251,956772,0.49556400000000006,-0.0854,-0.853512,-0.735,-8.8025,-3.64
252,956870,0.489708,-0.082472,-0.853512,0.0,-9.17,-2.9925
253,956968,0.487512,-0.081496,-0.850096,1.785,-8.96,-2.2925
254,957066,0.478484,-0.072956,-0.8527800999999999,3.8675,-8.1725,-1.2775
255,957164,0.48653599999999997,-0.131028,-0.8574161,6.6675,-7.4725,-0.3675
256,957262,0.491904,-0.12078,-0.853512,6.09,-7.0175,-1.33
257,957360,0.487512,-0.141032,-0.85034,4.9175,-7.2975,-2.6425
258,957458,0.483608,-0.12761199999999998,-0.8586360000000001,3.885,-8.1375,-3.8325
259,957556,0.48653599999999997,-0.125416,-0.8608319999999999,2.835,-8.54,-5.215
260,957654,0.48263199999999995,-0.1098,-0.859856,1.9425,-8.995,-6.055
261,957752,0.484584,-0.10736,-0.856684,1.575,-9.17,-6.265
262,957850,0.484096,-0.10516400000000001,-0.8576601,1.435,-9.1,-6.2825
263,957948,0.482876,-0.09979600000000001,-0.8620521000000001,1.365,-8.7675,-6.125
264,958046,0.486048,-0.10540799999999999,-0.8596120999999999,1.5225,-8.54,-6.0375
265,958144,0.487756,-0.10492,-0.8574161,1.3475,-8.3125,-6.0025
266,958242,0.48702399999999996,-0.10931199999999999,-0.8632719999999999,1.225,-8.19,-6.1425
267,958341,0.48678,-0.10321199999999998,-0.8591241,0.98,-8.085,-6.405
268,958439,0.48678,-0.101748,-0.8632719999999999,0.8400001,-7.9275,-6.44
269,958537,0.484584,-0.10004,-0.8610761,1.1375,-7.77,-6.2825
270,958635,0.485072,-0.100284,-0.8605879999999999,1.6275,-7.3675,-5.985
271,958733,0.48824399999999996,-0.098332,-0.861808,2.065,-7.3675,-5.705
272,958831,0.492148,-0.11028800000000001,-0.8652241,2.1525,-7.56,-5.565
273,958929,0.494588,-0.114924,-0.8615640999999999,1.2425,-8.12,-5.9675
274,959027,0.4941,-0.118584,-0.8601,0.4025,-8.9075,-6.7025
275,959125,0.48678,-0.121512,-0.8508280999999999,-0.1225,-9.5375,-7.385
276,959223,0.48433999999999994,-0.11248399999999999,-0.8540000000000001,-0.4725,-9.8,-7.9975
277,959321,0.48653599999999997,-0.101504,-0.8522921,-0.5075,-9.345,-8.4875
278,959419,0.490684,-0.10906800000000001,-0.8396040000000001,0.0175,-9.765,-8.645
279,959517,0.42163199999999995,-0.152256,-0.8718120999999999,0.175,-10.29,-8.6975
280,959615,0.472872,-0.096624,-0.8579041,-0.3675,-10.3075,-7.5775
281,959713,0.466528,-0.10004,-0.859856,-0.35,-10.1675,-7.245
282,959811,0.47165200000000007,-0.096624,-0.859856,-0.2275,-10.3075,-7.07
283,959909,0.47360399999999997,-0.096624,-0.853756,-0.07,-10.3775,-6.86
284,960007,0.467504,-0.09589201,-0.8579041,0.175,-10.08,-6.755
285,960106,0.465796,-0.105652,-0.856196,0.7875,-9.625,-6.44
286,960204,0.46164799999999995,-0.10248,-0.8613200000000001,0.7525,-8.96,-6.265
287,960302,0.45993999999999996,-0.10345599999999999,-0.863516,0.6825,-7.8225,-6.1425
288,960400,0.45993999999999996,-0.10345599999999999,-0.8674200000000001,0.8925,-6.5975,-5.8275
289,960498,0.46921199999999996,-0.09882,-0.8642481,0.945,-5.3375,-5.6
290,960596,0.47555600000000003,-0.107116,-0.861808,1.19,-4.2875,-5.5825
291,960694,0.49288000000000004,-0.105652,-0.8479,1.0325,-3.465,-5.74
292,960792,0.481412,-0.13785999999999998,-0.8405800999999999,0.805,-2.975,-5.285
293,960890,0.462136,-0.08881599,-0.864492,1.6275,-1.82,-5.6175
294,960988,0.46481999999999996,-0.096868,-0.8652241,2.1175,0.2275,-5.7225
295,961086,0.471164,-0.10614000000000001,-0.8625401,2.485,2.485,-5.635
296,961184,0.471896,-0.111508,-0.870592,3.1325,4.3225,-5.7925
297,961282,0.475312,-0.125416,-0.8701040000000001,3.5875,6.02,-6.335
298,961380,0.47506800000000005,-0.1281,-0.8730319999999999,3.1675,7.4375,-7.2625
299,961478,0.47336000000000006,-0.13078399999999998,-0.8757159999999999,2.4675,8.785,-8.47
300,961576,0.47604399999999997,-0.122,-0.8718120999999999,1.6975,10.0975,-9.5725
301,961674,0.46506400000000003,-0.11053199999999999,-0.8744960999999999,1.61,11.7775,-10.885
302,961772,0.442616,-0.128344,-0.8954801,2.2575,14.56,-12.075
303,961870,0.466528,-0.11712,-0.8813280000000001,1.7325,21.28,-13.2125
304,961969,0.469944,-0.113704,-0.8791321,1.0675,27.58,-14.35
305,962067,0.46481999999999996,-0.129076,-0.8788879999999999,2.135,34.9475,-14.175
306,962165,0.45896400000000004,-0.122,-0.8967,2.4675,43.1725,-14.1575
307,962263,0.444812,-0.149328,-0.92232,3.0975,53.55,-14.49
308,962361,0.44993599999999995,-0.182024,-0.936472,3.325,66.01,-15.6975
309,962459,0.459208,-0.166408,-0.9323239999999999,1.0675,77.805,-18.515
310,962557,0.47506800000000005,-0.14566800000000002,-0.9437921,0.0875,93.8175,-20.9125
311,962655,0.49751599999999996,-0.133224,-0.9537959999999999,1.26,109.8125,-22.4875
312,962753,0.5104479999999999,-0.121024,-0.9738041,3.4125,125.44,-23.415
313,962851,0.5543680000000001,-0.14566800000000002,-0.993568,7.14,139.6675,-23.38
314,962949,0.596336,-0.14078800000000002,-0.9982040000000001,8.435,147.7,-23.1875
315,963047,0.6729520999999999,-0.09638,-1.0614,7.98,156.555,-23.8525
316,963145,0.7229720000000001,-0.11955999999999999,-1.078968,3.2375,167.72,-28.6125
317,963243,0.6878361,-0.24351199999999998,-1.01626,-8.995,180.8275,-39.27
318,963341,0.6653880999999999,-0.135908,-0.995764,-25.025,195.4575,-51.3625
319,963440,0.686616,-0.24278000000000002,-0.998692,-27.09,214.41,-61.145
320,963538,0.7598161,-0.244,-0.974292,-33.0925,232.75,-71.8025
321,963636,0.8010520000000001,-0.361608,-0.9840521000000001,-34.685,248.7975,-85.4525
322,963734,0.942084,-0.45164399999999993,-1.0208959999999998,-38.9375,258.4925,-101.1325
323,963832,1.284904,-0.49873599999999996,-1.1995040000000001,-43.5925,259.6475,-116.62
324,963930,1.0004,-0.5219159999999999,-1.1350879999999999,-51.9925,237.7725,-132.3175
325,964028,0.7141881,-1.479128,-1.5323200000000001,-56.4375,217.6825,-125.9475
326,964126,0.5504641,-2.74134,-1.573312,-43.7675,184.765,-52.7275
327,964224,0.588284,-2.151104,-1.905884,-69.72,132.0375,56.035
328,964322,0.13639600000000002,-1.383724,-1.655052,-96.5825,67.2,135.695
329,964420,-0.05612,-0.735172,-1.5525719999999998,-101.4825,34.405,168.4025
330,964518,-0.20691199999999998,-0.284016,-1.569164,-90.28251,6.9825,168.1575
331,964616,-0.332084,-0.012688,-1.5847799999999999,-70.455,-20.1775,150.0625
332,964714,-0.386252,0.129076,-1.58112,-46.5675,-46.5325,122.3075
333,964812,-0.3904,0.142496,-1.5401280000000002,-21.735,-73.8675,92.55751
334,964910,-0.360632,0.098332,-1.458144,-1.2425,-100.835,65.555
335,965009,-0.29768,0.03904,-1.349808,13.8425,-126.175,44.3625
336,965107,-0.200812,0.0034159999999999998,-1.275388,24.6225,-146.4225,30.45
337,965205,-0.066856,0.004392,-1.250744,32.9875,-162.2425,24.1325
338,965303,0.08003201,-0.030012,-1.241228,39.865,-176.4525,23.38
339,965401,0.23301999999999998,-0.03904,-1.260016,40.74,-191.24,25.9175
340,965499,0.344528,-0.032451999999999995,-1.236104,38.2025,-207.1475,31.465
341,965597,0.36844,0.000488,-1.131672,32.515,-222.04,38.185
342,965695,0.401136,0.07198,-1.055544,23.9225,-230.265,42.1925
343,965793,0.429684,0.17616800000000002,-1.043588,15.0675,-230.755,41.1075
344,965891,0.47677600000000003,0.233996,-1.083604,11.865,-227.2025,34.8775
345,965989,0.6856399999999999,0.23887600000000003,-1.269288,15.225,-221.0425,24.0625
346,966087,0.853512,0.205936,-1.382016,23.87,-221.69,13.9825
347,966185,0.886452,0.11102000000000001,-1.298324,33.7925,-229.3025,8.3825
348,966283,0.90646,0.038551999999999996,-1.193648,39.7075,-229.74,5.9325
349,966381,1.018944,-0.125904,-1.2282959999999998,46.27,-217.875,6.93
350,966480,1.212192,-0.364048,-1.25416,53.6025,-205.485,16.5375
351,966578,1.36762,-0.5631520000000001,-1.172908,53.2525,-199.0975,37.4325
352,966676,1.510604,-0.515328,-1.005036,40.215,-196.4025,62.4225
353,966774,1.6975080000000002,-0.11394800000000001,-0.9506241,17.36,-189.3325,84.9625
354,966872,2.00812,0.235948,-0.9455,2.03,-178.3775,87.90250999999999
355,966970,2.316292,0.326228,-0.8193521,-11.13,-179.3225,67.795
356,967068,2.44244,0.260836,-0.42700000000000005,-28.385,-191.1,38.22
357,967166,2.413648,0.014884,0.169336,-36.2425,-200.2175,14.6825
358,967264,2.459764,-0.122732,0.5946279999999999,-34.4925,-191.38,2.4675
359,967362,2.541748,0.024888,0.856684,-18.83,-166.215,0.2275
360,967460,2.403644,0.284992,1.152168,12.8275,-133.0,0.4025
361,967558,2.297504,0.36648800000000004,1.2056040000000001,43.6625,-85.96,-6.23
362,967656,2.531988,0.251564,1.104344,48.1775,-38.8325,-18.9
363,967754,2.434388,0.236192,1.129232,3.1675,6.3175,-29.4525
364,967853,2.411452,0.45164399999999993,1.3917760000000001,-39.9175,67.095,-33.0225
365,967951,0.341844,-0.12078,-0.5104479999999999,-56.21,105.3675,-47.145
366,968049,0.286456,-0.5843801,-1.93858,-18.4975,136.92,-51.45
367,968147,0.892308,0.30012,-0.793244,-72.2225,129.5175,-68.705
368,968245,1.087752,0.3721,-0.9921040999999999,-53.69,127.7325,-77.2275
369,968343,1.6635919999999997,0.560956,-1.9366279999999998,-26.88,129.7975,-47.4075
370,968441,0.791536,-0.44676400000000005,-1.492548,1.61,87.36,-29.6275
371,968539,0.258884,-0.319884,-0.8359440999999999,-12.145,68.18,-23.1875
372,968637,0.221796,0.40821199999999996,-0.9567241,-15.54,84.49,-13.8075
373,968735,0.132492,0.15982000000000002,-0.8945040000000001,15.2075,92.4525,-16.94
374,968833,2.084492,-0.904752,-1.402268,23.9575,100.5025,-7.77
375,968931,0.7869,-0.34892,-0.960384,-55.125,29.995,-4.4975
376,969029,0.534604,0.033672,-0.9769760000000001,-47.0925,14.4375,-10.745
377,969127,0.714676,-0.18422,-1.0145520000000001,-34.3,10.22,-11.025
378,969225,0.5875520000000001,-0.117852,-0.968924,-25.1125,0.1575,-8.7675
379,969324,0.555588,-0.15982000000000002,-0.9286639999999999,-14.595,-2.1,-6.79
380,969422,0.531676,-0.148596,-0.9086559999999999,-7.175,-3.29,-5.18
381,969520,0.522404,-0.142008,-0.9059721,-2.4675,-3.1675,-3.92
382,969618,0.503128,-0.181536,-0.874252,3.465,-3.1325,-2.73
383,969716,0.48873199999999994,-0.144204,-0.879376,5.705,-2.4675,-2.3275
384,969814,0.490196,-0.148108,-0.86498,8.05,-1.4875,-1.9775
385,969912,0.48531599999999997,-0.166652,-0.8525360000000001,9.9575,-0.7,-1.7675
386,970010,0.48116800000000004,-0.162992,-0.8513161,10.4125,-0.4375,-1.7675
387,970108,0.479704,-0.143228,-0.8544879999999999,10.8325,-0.0525,-1.9075
388,970206,0.486048,-0.156892,-0.8461921,11.7425,0.0875,-1.855
389,970304,0.484584,-0.191296,-0.83204,12.215,-0.035,-2.1175
390,970402,0.490928,-0.19739600000000002,-0.8352120000000001,10.3425,-0.6475,-2.94
391,970500,0.48556000000000005,-0.188368,-0.833992,8.435,-1.3125,-3.92
392,970598,0.48556000000000005,-0.176656,-0.8361879999999999,7.4025,-1.785,-4.62
393,970696,0.485072,-0.183732,-0.830576,6.65,-2.0825,-5.145
394,970794,0.48653599999999997,-0.18788,-0.835456,5.3725,-2.5025,-5.6525
395,970893,0.48653599999999997,-0.195932,-0.831308,3.85,-3.08,-6.3
396,970991,0.489464,-0.193736,-0.8344801,1.715,-4.13,-7.0175
397,971089,0.485072,-0.199348,-0.826916,-0.4725,-5.1275,-7.7875
398,971187,0.488,-0.181536,-0.829356,-2.695,-5.3725,-8.4
399,971285,0.488,-0.17568,-0.82594,-3.885,-5.9325,-8.9775
400,971383,0.487756,-0.161772,-0.829356,-4.9875,-6.4225,-9.45
401,971481,0.485804,-0.16958,-0.8220360000000001,-5.32,-7.0,-9.73
402,971579,0.48726800000000003,-0.173484,-0.833016,-5.74,-7.0,-9.835
403,971677,0.47994799999999993,-0.17397200000000002,-0.8471681000000001,-6.0375,-6.405,-9.73
404,971775,0.478728,-0.166164,-0.8559521000000001,-5.9325,-4.9525,-9.345
405,971873,0.4933681,-0.162748,-0.847412,-5.705,-4.06,-8.61
406,971971,0.480192,-0.188612,-0.8552200000000001,-4.6025,-3.3425,-7.945
407,972069,0.4636,-0.156892,-0.839116,-4.55,-2.415,-7.735
408,972167,0.48263199999999995,-0.20642399999999997,-0.8274040000000001,-3.08,0.595,-8.0675
409,972265,0.479704,-0.1708,-0.8596120999999999,-2.73,2.0125,-8.225
410,972363,0.477264,-0.15616,-0.862296,-1.8025,5.6875,-8.6975
411,972461,0.4758,-0.14518,-0.86498,-0.1225,9.24,-8.5925
412,972559,0.460916,-0.142984,-0.8857200999999999,2.1,12.8975,-8.4525
413,972657,0.46774799999999994,-0.15128,-0.880352,5.1975,17.675,-8.33
414,972756,0.483364,-0.16958,-0.8784,7.8925,23.1,-8.2075
415,972854,0.48873199999999994,-0.188124,-0.8723001,9.45,28.245,-8.1025
416,972952,0.417728,-0.23887600000000003,-0.9489161,9.695,34.2125,-8.1725
417,973050,0.477264,-0.27328,-0.9015799999999999,6.02,43.785,-9.3975
418,973148,0.45506,-0.242536,-0.93086,3.675,54.425,-13.3
419,973246,0.435784,-0.204228,-0.96624,5.3375,70.84000999999999,-15.6975
420,973344,0.412116,-0.18056,-1.023824,10.7275,92.8725,-16.765
421,973442,0.373564,-0.188612,-1.0972680000000001,21.5425,122.08,-15.54
422,973540,0.359412,-0.173728,-1.1594879999999999,36.2425,158.2525,-12.005
423,973638,0.392596,-0.15616,-1.1716879999999998,51.5725,194.7925,-7.875
424,973736,0.46335600000000005,-0.09223200000000001,-1.208776,64.19,225.8375,-3.0275
425,973834,0.7076001000000001,0.006587999999999999,-1.3542,72.31,251.58,2.1175
426,973932,0.9049959999999999,-0.041236,-1.317844,82.6175,273.0875,0.42
427,974030,0.721996,-0.308172,-1.3146719999999998,78.41751,317.415,-11.2875
428,974128,0.7661600000000001,-0.574864,-1.1131280000000001,53.305,361.4975,-26.1275
429,974226,0.724436,-0.145424,-1.367132,-0.175,406.5425,-47.3375
430,974324,1.16632,0.21374400000000002,-1.912716,-16.24,430.955,-55.0375
431,974422,0.9540401,-0.34257600000000005,-1.613816,23.94,419.0025,-28.945
432,974521,1.069208,-0.3782,-2.184288,25.62,389.83,-11.795
433,974619,0.061,-0.023912,-3.3201080000000003,4.7075,334.46,-46.55
434,974717,-0.09442801,0.024888,-3.481392,7.945,197.015,-79.8175
435,974815,-0.58194,-0.221552,-3.2886319999999998,17.045,64.925,-103.4425
436,974913,-0.8971879999999999,-0.575596,-2.416576,13.195,-35.945,-126.595
437,975011,-0.654408,-0.9237841,-2.134024,15.2075,-74.725,-135.415
438,975109,-0.442616,-1.1594879999999999,-1.9893319999999999,9.0825,-111.3875,-123.3575
439,975207,-0.360632,-1.320284,-1.729228,3.815,-152.9675,-95.515
440,975305,-0.244732,-1.3607879999999999,-1.51158,-10.465,-187.6,-60.9525
441,975403,-0.09418401,-1.256844,-1.381284,-31.15,-215.425,-25.865
442,975501,0.038064,-1.086532,-1.268068,-47.9325,-240.45,6.65
443,975599,0.142252,-0.8996280999999999,-1.161684,-58.03,-262.115,32.4275
444,975697,0.25961599999999996,-0.696864,-1.087752,-61.8275,-278.1975,48.93
445,975795,0.312564,-0.494832,-1.0340719999999999,-58.625,-290.0975,55.93
446,975893,0.382348,-0.329156,-1.040416,-44.73,-295.54,53.3575
447,975992,0.44115200000000004,-0.22326,-1.01138,-22.96,-297.08,42.9625
448,976090,0.58316,-0.188368,-1.02968,1.75,-293.195,27.055
449,976188,0.7522521,-0.23448400000000003,-1.0323639999999998,26.2675,-286.37,11.3575
450,976286,0.8969440000000001,-0.363316,-1.00406,45.5,-278.8625,0.7525
451,976384,1.009916,-0.479704,-1.1333799999999998,55.195,-267.6275,-3.045
452,976482,1.090436,-0.42016800000000004,-1.260504,59.15,-259.42,1.6275
453,976580,1.119472,-0.39918400000000004,-1.317844,66.255,-255.3075,10.99
454,976678,1.12606,-0.431148,-1.272216,70.0875,-252.7875,19.145
455,976776,1.19438,-0.41846000000000005,-1.220732,68.6875,-244.405,28.07
456,976874,1.309548,-0.489708,-1.105564,71.19,-231.7875,38.36
457,976972,1.483032,-0.6517241,-0.940132,74.375,-215.3025,52.185
458,977070,1.6445599999999998,-0.757376,-0.71004,68.425,-195.9475,72.1175
459,977168,1.7990119999999998,-0.438468,-0.586088,46.3575,-172.3575,94.78
460,977266,2.1996599999999997,0.165188,-0.7944641,28.0875,-143.535,110.6175
461,977364,2.882372,0.528504,-1.130452,25.935,-127.3125,108.5
462,977462,3.053416,0.388448,-0.6070720000000001,9.4325,-157.8325,90.16001
463,977560,2.877736,0.022203999999999998,0.29426399999999997,-28.98,-195.6325,61.4775
464,977658,3.075864,0.135664,0.642696,-58.8175,-197.2775,50.645
465,977756,2.966064,0.508984,1.026996,-46.76,-184.1875,53.1125
466,977855,2.556632,0.624152,1.50914,-5.4775,-153.65,49.7875
467,977953,2.311412,0.670024,1.663348,11.655,-96.3375,30.3625
468,978051,2.440976,0.5694961,1.162172,18.1475,-25.83,6.8075
469,978149,2.5049040000000002,0.275476,0.5968241,30.03,20.79,-8.9775
470,978247,2.418284,-0.133468,0.564616,36.0325,29.19,-13.8075
471,978345,1.2190239999999999,-0.24912399999999998,0.73444,-14.455,66.9375,-14.91
472,978443,0.1769,-0.456768,-1.8587919999999998,-44.625,130.8125,-9.9225
473,978541,0.399916,-0.17519200000000001,-1.265384,-33.145,145.6,-10.15
474,978639,1.200236,0.5321640000000001,-0.80886,-69.23,163.17,-22.26
475,978737,0.780068,0.868884,-1.46766,-34.2125,154.1925,-21.07
476,978835,0.958432,1.000156,-1.3290680000000001,-59.64,133.98,-52.64
477,978933,1.06384,-0.5926760999999999,-1.196332,-3.6225,125.5625,-60.9875
478,979031,0.859368,-0.194956,-1.361764,-15.925,115.8675,-32.725
479,979129,0.3355,0.109556,-1.207068,-29.225,99.5925,-26.075
480,979228,-0.009516001,0.189588,-0.8127641,-10.01,97.5975,-28.0525
481,979326,0.2501,0.26156799999999997,-0.7788480999999999,17.7275,117.9325,-27.9125
482,979424,2.4278,-1.389824,-1.754848,43.12,131.88,-16.905
483,979522,0.9947881,-0.496784,-1.095316,-48.9125,54.5475,1.3825
484,979620,0.43554,0.09418401,-0.9796600000000001,-71.6975,15.89,-14.0525
485,979718,0.80886,-0.22252800000000003,-1.055056,-39.375,25.8125,-12.1275
486,979816,0.558272,-0.175924,-0.9396440999999999,-35.0,8.3125,-10.15
487,979914,0.573156,-0.179584,-0.9520881,-27.3525,7.42,-9.2575
488,980012,0.555588,-0.149816,-0.9337880999999999,-22.1375,3.8675,-8.47
489,980110,0.520452,-0.16104000000000002,-0.9089001,-15.0325,1.4175,-7.2975
490,980208,0.521672,-0.15420799999999998,-0.8935280999999999,-9.9575,0.315,-6.5275
491,980306,0.493856,-0.14762,-0.8845,-5.95,-0.665,-6.09
492,980404,0.49751599999999996,-0.14152,-0.8725440999999999,-2.52,-0.8575,-5.2675
493,980502,0.488976,-0.162748,-0.8640040000000001,0.7,-1.68,-4.8125
494,980601,0.49044,-0.14078800000000002,-0.8591241,1.435,-1.435,-4.6375
495,980699,0.48214399999999996,-0.14152,-0.8620521000000001,4.27,-1.96,-4.34
496,980797,0.480192,-0.155672,-0.8457040000000001,6.195,-1.505,-3.92
497,980895,0.482388,-0.17324,-0.834968,6.9125,-1.365,-4.06
498,980993,0.48263199999999995,-0.181292,-0.8327720999999999,5.565,-1.4175,-4.8825
499,981091,0.483364,-0.17738800000000002,-0.8335040000000001,3.955,-1.5225,-5.67
500,981189,0.49044,-0.17055599999999999,-0.833992,2.205,-1.8025,-6.475
501,981287,0.490684,-0.167628,-0.840824,1.225,-2.345,-6.7375
502,981385,0.489708,-0.165432,-0.8400921,0.21,-2.345,-7.105
503,981483,0.489464,-0.169824,-0.83814,-0.07,-2.205,-7.2275
504,981581,0.489464,-0.178852,-0.8249639999999999,-0.8400001,-2.4325,-7.665
505,981679,0.489708,-0.200812,-0.8174001000000001,-2.6425,-2.8525,-8.4875
506,981777,0.49117200000000005,-0.191296,-0.8291120999999999,-5.2325,-3.5,-9.59
507,981875,0.49556400000000006,-0.17519200000000001,-0.8364321,-7.0,-4.1125,-10.1325
508,981973,0.486292,-0.188612,-0.8471681000000001,-7.665,-4.4625,-10.22
509,982072,0.484584,-0.15006,-0.8117880000000001,-8.1725,-4.48,-10.1675
510,982170,0.490196,-0.22204000000000002,-0.822524,-7.7525,-2.6075,-10.675
511,982268,0.48726800000000003,-0.17616800000000002,-0.8552200000000001,-9.485,-2.59,-10.99
512,982366,0.47506800000000005,-0.161772,-0.865956,-8.2075,-0.7875,-11.0425
513,982464,0.47994799999999993,-0.145912,-0.8674200000000001,-6.44,1.68,-10.7625
514,982562,0.478972,-0.135908,-0.873764,-4.4975,4.4625,-10.7275
515,982660,0.47092,-0.125172,-0.8762040000000001,-2.2925,7.5425,-10.3425
516,982758,0.47555600000000003,-0.11834000000000001,-0.877424,0.91,11.305,-9.6425
517,982856,0.487756,-0.118584,-0.8769360999999999,4.41,15.785,-8.995
518,982954,0.482388,-0.12078,-0.879864,7.49,20.3525,-7.7875
519,983052,0.44822799999999996,-0.181536,-0.9054840000000001,10.5525,26.04,-6.3
520,983150,0.444324,-0.264252,-0.8940161,10.71,35.6475,-5.6175
521,983248,0.44944799999999996,-0.22716399999999998,-0.9335440999999999,8.8725,51.1525,-9.31
522,983346,0.44115200000000004,-0.209108,-0.94916,8.33,64.5575,-13.02
523,983444,0.431148,-0.18422,-0.9777081,10.36,82.005,-15.1025
524,983542,0.409432,-0.142252,-1.042368,18.34,105.91,-15.1375
525,983641,0.36282800000000004,-0.131272,-1.1211799999999998,31.255,136.815,-12.25
526,983739,0.361852,-0.19642,-1.19072,47.25,174.72,-7.0175
527,983837,0.393572,-0.153232,-1.233908,62.5275,213.22,-2.45
528,983935,0.531188,-0.05929201,-1.2900280000000002,74.5675,245.1925,3.885
529,984033,0.726876,0.041724000000000004,-1.3664,81.32251,269.6225,8.33
530,984131,0.815692,-0.071492,-1.310524,85.68,295.505,4.48
531,984229,0.733952,-0.555588,-1.098732,70.9275,340.655,-5.7575
532,984327,0.7093081,-0.276208,-1.156072,12.8975,388.92,-25.1825
533,984425,0.845216,0.15762400000000001,-1.552084,-34.5975,435.1725,-36.2425
534,984523,1.119716,0.194224,-1.7441119999999999,-9.3975,450.31,-22.61
535,984621,1.045052,-0.380884,-1.640412,37.31,433.02,8.96
536,984719,0.8669319999999999,-0.36966,-2.53028,28.385,411.3025,12.495
537,984817,0.053924,-0.045627999999999995,-3.3569519999999997,-1.505,335.65,-26.5825
538,984915,0.135176,0.850584,-3.8815519999999997,-7.2275,191.7475,-58.8
539,985013,-0.6439159999999999,0.27816,-3.3603680000000002,23.975,38.57,-107.73
540,985111,-0.8906,-0.14786400000000002,-2.429264,42.4025,-64.33,-150.8325
541,985209,-0.621224,-0.706624,-2.0337400000000003,63.245,-100.24,-173.7925
542,985307,-0.304268,-1.137772,-1.886852,60.83,-133.3325,-169.575
543,985405,-0.13664,-1.405196,-1.641388,51.6425,-174.825,-141.645
544,985503,-0.038796,-1.540616,-1.3668879999999999,33.7925,-212.765,-99.26001
545,985602,0.071492,-1.493768,-1.158024,8.5575,-238.8925,-51.03
546,985700,0.19983599999999999,-1.319552,-1.047004,-15.96,-256.55,-3.8675
547,985798,0.333304,-1.106784,-0.9994241,-32.97,-270.2175,36.54
548,985896,0.45506,-0.8657120999999999,-0.9767321,-44.345,-282.6425,65.94
549,985994,0.49751599999999996,-0.594384,-0.9511120000000001,-50.435,-293.685,83.0025
550,986092,0.5292359999999999,-0.378444,-0.983564,-46.1475,-300.0025,86.7475
551,986190,0.62342,-0.19642,-1.0187,-32.9525,-302.4875,78.0325
552,986288,0.734196,-0.092964,-1.015284,-11.9,-303.8175,61.005
553,986386,0.8808401,-0.131028,-1.012356,11.655,-301.35,39.865
554,986484,0.9955200000000001,-0.22691999999999998,-1.010648,29.05,-294.8925,22.505
555,986582,1.03944,-0.281088,-1.0084520000000001,40.9325,-286.44,14.0875
556,986680,1.068232,-0.301584,-1.0706719999999998,46.2175,-275.94,13.0725
557,986778,1.1873040000000001,-0.313784,-1.273192,46.6725,-264.2675,12.8275
558,986876,1.326384,-0.292068,-1.406172,46.48,-259.7875,13.9825
559,986974,1.334924,-0.285724,-1.3029600000000001,49.315,-261.8175,16.73
560,987072,1.3359,-0.35087199999999996,-1.109956,56.7875,-257.8625,17.7975
561,987170,1.44936,-0.508008,-0.893284,67.0425,-242.795,21.4725
562,987268,1.591612,-0.741028,-0.662948,75.18,-222.4075,31.8675
563,987367,1.725568,-0.797636,-0.50264,68.88,-198.52,48.7375
564,987465,2.051796,-0.50874,-0.612928,57.715,-169.68,71.4525
565,987563,2.618852,-0.09540401,-0.877668,54.88,-151.1125,90.9475
566,987661,2.886764,0.118096,-0.527772,42.63,-165.0075,98.3675
567,987759,2.7345080000000004,0.116876,0.257664,5.775,-192.7975,81.91751
568,987857,2.788188,0.369172,0.7451760000000001,-35.3675,-192.115,67.1125
569,987955,2.716208,0.60512,1.13582,-36.505,-164.605,62.8775
570,988053,2.510272,0.7166279999999999,1.3285799999999999,-15.8375,-120.4525,52.9725
571,988151,2.4282880000000002,0.738588,1.154364,0.1225,-66.3075,31.2725
572,988249,2.33508,0.641232,0.8405800999999999,9.94,-21.7175,6.8775
573,988347,2.178432,0.416264,0.547292,15.4,7.98,-11.62
574,988445,1.873188,0.44212799999999997,0.874984,12.425,27.09,-24.6575
575,988543,1.778516,0.139812,0.2257,-29.89,82.11,-36.225
576,988641,-0.1708,-0.32208000000000003,-1.720688,-30.6425,116.935,-37.9925
577,988739,0.530456,0.061488,-1.322724,-29.6625,150.325,-49.315
578,988837,1.37616,0.232776,-1.0145520000000001,-47.39,167.615,-57.9075
579,988935,0.9106081,0.333548,-1.494744,-27.4225,146.23,-47.5825
580,989034,0.7829961,0.199104,-1.086532,-46.6025,124.5475,-57.6625
581,989132,0.71736,-0.27279200000000003,-0.9167081,-31.3425,119.49,-56.98
582,989230,0.7661600000000001,-0.069052,-1.173884,-31.255,122.92,-37.9575
583,989328,0.7522521,0.164944,-1.228784,-30.73,116.305,-29.19
584,989426,0.262056,-0.112728,-1.0828719999999998,-8.015,105.4375,-26.4775
585,989524,0.000244,0.0793,-0.758108,-1.68,103.46,-26.1975
586,989622,0.269376,0.018788,-1.025288,21.77,124.5125,-25.4275
587,989720,2.5861560000000003,-1.218536,-1.4069040000000002,28.7875,125.8425,-5.705
588,989818,0.505568,-0.18056,-0.935008,-71.6975,25.655,-5.6
589,989916,0.6675840000000001,-0.006832001,-1.02358,-61.145,21.1225,-14.0175
590,990014,0.66856,-0.302316,-0.9286639999999999,-37.6775,18.0075,-13.1775
591,990112,0.571692,-0.17128800000000002,-0.9586761,-42.1575,6.0725,-12.075
592,990210,0.60512,-0.175924,-0.9562360999999999,-32.9,6.3,-11.3925
593,990308,0.563396,-0.127368,-0.9486720999999999,-24.6925,1.645,-9.8
594,990406,0.5382640000000001,-0.14347200000000002,-0.913536,-16.555,0.7175,-8.05
595,990504,0.528992,-0.11955999999999999,-0.8949921000000001,-10.325,0.0175,-6.5975
596,990602,0.49776000000000004,-0.142252,-0.8769360999999999,-5.3725,-1.05,-5.53
597,990700,0.499468,-0.160552,-0.853756,-2.205,-1.47,-4.9175
598,990799,0.49580799999999997,-0.14152,-0.8640040000000001,-0.42,-2.2925,-4.76
599,990897,0.5016641,-0.134444,-0.8647360000000001,1.47,-2.2925,-4.4275
600,990995,0.492392,-0.132004,-0.8544879999999999,4.2525,-2.625,-4.095
601,991093,0.491904,-0.144204,-0.8486319999999999,5.6875,-2.4325,-3.99
602,991191,0.490684,-0.167384,-0.8335040000000001,6.1075,-2.3275,-4.41
603,991289,0.488976,-0.18104800000000001,-0.815936,4.76,-2.94,-5.3025
604,991387,0.482876,-0.193248,-0.8081281,1.8025,-3.7275,-6.8425
605,991485,0.47775200000000007,-0.194712,-0.803248,-2.59,-4.7075,-8.715
606,991583,0.482388,-0.19154000000000002,-0.8222799999999999,-7.7175,-5.6175,-10.5
607,991681,0.485804,-0.17543599999999998,-0.8364321,-11.1825,-6.0725,-11.6725
608,991779,0.49263599999999996,-0.163724,-0.85156,-12.6175,-6.4925,-11.8825
609,991877,0.488976,-0.155428,-0.8532681000000001,-12.8625,-6.58,-11.8475
610,991975,0.48385200000000006,-0.16909200000000002,-0.8544879999999999,-11.9525,-6.51,-11.7075
611,992073,0.49556400000000006,-0.172996,-0.903532,-12.5125,-5.3025,-11.7075
612,992171,0.47506800000000005,-0.151524,-0.871568,-11.445,-4.4625,-11.9175
613,992269,0.48068,-0.14493599999999998,-0.8579041,-10.4825,-2.1875,-11.165
614,992368,0.479216,-0.128832,-0.876692,-7.5425,0.5075,-10.43
615,992466,0.48068,-0.133712,-0.8666879999999999,-5.3025,3.5525,-10.0625
616,992564,0.481412,-0.13542,-0.8740081000000001,-3.0975,6.9825,-9.8875
617,992662,0.47482399999999997,-0.13176,-0.8805960999999999,-1.4875,10.7975,-10.08
618,992760,0.462624,-0.117852,-0.8849879999999999,0.105,14.735,-10.5875
619,992858,0.46774799999999994,-0.14274,-0.8820601,3.43,19.6875,-11.06
620,992956,0.47213999999999995,-0.163724,-0.8906,5.355,24.9725,-12.0925
621,993054,0.473116,-0.168604,-0.8676640999999999,5.0925,30.59,-11.8825
622,993152,0.4636,-0.13298,-0.8957241,6.0025,40.74,-11.935
623,993250,0.47823999999999994,-0.15006,-0.9418401,8.225,51.345,-11.4275
624,993348,0.449692,-0.16592,-0.9577,9.3975,62.0025,-11.34
625,993446,0.42626800000000004,-0.180804,-1.003084,13.125,79.59000999999999,-11.8475
626,993544,0.38064000000000003,-0.186416,-1.074576,19.6875,106.19,-12.1625
627,993642,0.367464,-0.20837600000000003,-1.1192280000000001,27.825,140.49,-11.725
628,993740,0.40528400000000003,-0.211304,-1.142164,37.345,178.08,-11.7425
629,993838,0.471896,-0.16201600000000002,-1.1829120000000002,46.06,208.8625,-11.3925
630,993937,0.5690081,-0.128832,-1.259528,56.6125,236.075,-7.4725
631,994035,0.7869,0.00244,-1.3729879999999999,59.5525,260.6275,-5.4425
632,994133,0.69662,-0.19178399999999998,-1.310524,56.8925,285.3725,-18.7075
633,994231,0.6229319999999999,-0.392108,-1.2017,40.5825,327.775,-35.7
634,994329,0.687592,-0.279868,-1.225856,15.785,371.245,-53.76
635,994427,0.78446,-0.102968,-1.3603,-10.43,414.8025,-66.1675
636,994525,1.11386,0.051972000000000004,-1.725812,-17.185,443.3275,-65.0475
637,994623,1.1899879999999998,-0.42333999999999994,-1.676768,23.9225,441.315,-39.795
638,994721,1.23098,-0.6021920000000001,-2.6388599999999998,24.71,427.77,-43.0675
639,994819,0.282552,-0.06954,-3.894484,-11.2,341.075,-70.4375
640,994917,0.279868,-0.112728,-4.261216,-1.3825,182.14,-78.8025
641,995015,-0.854244,-0.5104479999999999,-3.146624,18.9525,8.12,-75.845
642,995113,-1.312476,-0.620004,-2.073756,-2.6775,-84.8225,-89.0225
643,995211,-0.782508,-0.7747001,-2.136464,4.27,-95.02501,-94.99
644,995309,-0.392108,-0.96624,-2.175016,17.535,-121.17,-80.185
645,995407,-0.334036,-1.17608,-1.820972,26.985,-174.8075,-51.5375
646,995506,-0.248392,-1.1831559999999999,-1.4752239999999999,11.2875,-218.5225,-21.6475
647,995604,-0.07515201,-1.0528600000000001,-1.2939319999999999,-12.565,-245.7,7.2625
648,995702,0.08442401,-0.8383841000000001,-1.172664,-31.22,-267.365,34.23
649,995800,0.209108,-0.6158561,-1.059204,-39.4975,-285.32,54.8975
650,995898,0.309148,-0.404796,-0.9762440999999998,-38.8325,-297.325,66.08
651,995996,0.404308,-0.256444,-0.927932,-30.4325,-303.8,67.06
652,996094,0.48824399999999996,-0.140544,-0.8754719999999999,-16.87,-304.5875,60.0075
653,996192,0.5743761,-0.12029200000000001,-0.86864,-0.5075,-299.2325,47.25
654,996290,0.7376119999999999,-0.123708,-0.956968,16.94,-286.16,33.4775
655,996388,0.9528200000000001,-0.238632,-1.136308,37.9925,-272.4225,26.39
656,996486,1.077992,-0.317932,-1.208776,49.455,-267.61,26.3025
657,996584,1.048712,-0.263276,-1.1568040000000002,43.015,-270.2,26.81
658,996682,1.067256,-0.10760399999999999,-1.186328,35.98,-266.2975,23.1525
659,996780,1.217316,-0.10906800000000001,-1.3327280000000001,46.9525,-255.3425,17.36
660,996878,1.374452,-0.215696,-1.392508,65.4675,-249.62,15.225
661,996976,1.440576,-0.398208,-1.254404,74.69,-249.4975,16.6425
662,997075,1.491328,-0.567788,-1.0004,71.295,-245.945,22.4
663,997173,1.6504159999999999,-0.8105680000000001,-0.838628,64.34751,-231.84,36.6275
664,997271,2.001044,-1.043344,-0.9049959999999999,55.545,-213.2025,59.57
665,997369,2.311168,-1.039684,-0.8967,40.3025,-205.9925,91.7525
666,997467,2.4583,-0.7571321,-0.7227279999999999,13.2125,-211.8725,120.9075
667,997565,2.63032,-0.31646799999999997,-0.47384799999999994,-12.3025,-219.0475,131.7575
668,997663,2.642032,0.09906401,0.030987999999999998,-20.615,-224.5775,126.0175
669,997761,2.448296,0.42163199999999995,0.7417600000000001,-8.365,-215.9675,105.945
670,997859,2.3733880000000003,0.765428,1.2463520000000001,12.74,-177.0825,76.23001
671,997957,2.653988,0.87108,1.19682,53.2875,-110.6875,38.535
672,998055,2.79868,0.689056,1.11386,85.82,-58.3625,4.585
673,998153,2.574688,0.51484,1.052616,81.5675,-21.9275,-18.7775
674,998251,2.3075080000000003,0.43358800000000003,0.70516,49.455,9.275,-36.19
675,998349,2.352648,0.05929201,0.547292,23.2575,32.3575,-46.2875
676,998447,2.054724,0.13176,0.7237041,-38.78,74.06,-53.445
677,998545,0.23253200000000002,-0.25351599999999996,0.21106,-77.525,140.4375,-52.6925
678,998644,0.20861999999999997,-0.44773999999999997,-1.8866080000000003,-64.505,185.8675,-44.6425
679,998742,1.60552,0.341844,-1.269288,-78.295,220.5875,-33.3025
680,998840,1.047736,0.712724,-1.274168,-79.695,187.5825,-34.6675
681,998938,1.255868,1.148508,-1.525244,-92.225,162.19,-65.345
682,999036,1.2397639999999999,-0.143716,-1.42374,-38.745,144.5325,-59.4825
683,999134,0.657092,-0.417484,-1.22976,-20.44,126.2625,-37.8
684,999232,0.11028800000000001,0.101504,-1.004548,-47.005,116.62,-29.19
685,999330,0.18251199999999998,0.5607121,-0.9167081,-25.55,132.615,-26.215
686,999428,1.9124720000000002,-0.8971879999999999,-2.10816,16.485,146.4925,-27.125
687,999526,1.606496,-0.94916,-1.078968,-32.7425,93.9925,1.33
688,999624,0.499224,0.202764,-1.141676,-104.7025,10.71,-22.4175
689,999722,0.8723001,-0.172264,-1.062376,-68.4425,20.3,-20.0375
690,999820,0.5546121,-0.15762400000000001,-0.9862479999999999,-44.625,1.12,-16.065
691,999918,0.662948,-0.155672,-0.975024,-43.8375,-0.7175,-13.5625
692,1000016,0.5575399999999999,-0.15128,-0.9403761,-25.5675,-7.63,-10.64
693,1000115,0.5734,-0.07344400000000001,-0.9250040999999999,-21.3325,-6.7725,-8.015
694,1000213,0.527528,-0.16811600000000002,-0.8796200000000001,-7.84,-7.035,-5.04
695,1000311,0.5124001,-0.091988,-0.8884040000000001,-5.1625,-6.0725,-4.2525
696,1000409,0.517768,-0.151524,-0.8540000000000001,-0.035,-4.27,-3.3775
697,1000507,0.504592,-0.169336,-0.861808,1.9775,-3.6575,-3.7275
698,1000605,0.5002,-0.158112,-0.868152,0.98,-3.745,-5.53
699,1000703,0.49849209999999994,-0.159576,-0.8547319999999999,-0.315,-3.99,-7.385
700,1000801,0.49166000000000004,-0.167872,-0.844972,-2.1525,-4.2,-8.89
701,1000899,0.48848800000000003,-0.15054800000000002,-0.8508280999999999,-3.185,-4.0425,-10.2375
702,1000997,0.487756,-0.15738,-0.85034,-4.025,-3.2375,-11.27
703,1001095,0.489708,-0.159332,-0.8518040000000001,-4.725,-2.415,-11.8475
704,1001193,0.48653599999999997,-0.146644,-0.8540000000000001,-5.285,-1.3125,-12.3725
705,1001291,0.46603999999999995,-0.146156,-0.853756,-5.425,-0.1575,-12.8975
706,1001389,0.48824399999999996,-0.13908,-0.85644,-5.8625,1.19,-13.44
707,1001487,0.48922,-0.136152,-0.85888,-5.985,2.2575,-13.8775
708,1001585,0.49263599999999996,-0.11736400000000001,-0.856196,-5.74,3.64,-13.895
709,1001684,0.493856,-0.100772,-0.860344,-4.585,4.585,-13.7025
710,1001782,0.49434399999999995,-0.09272000000000001,-0.8581479999999999,-3.185,5.18,-12.88
711,1001880,0.490684,-0.08759601,-0.8544879999999999,-1.3475,5.635,-11.7775
712,1001978,0.496296,-0.098332,-0.854244,0.875,6.3875,-10.78
713,1002076,0.496784,-0.096868,-0.8508280999999999,1.9425,6.44,-9.8525
714,1002174,0.490684,-0.124928,-0.8540000000000001,3.3425,6.5625,-9.1175
715,1002272,0.484828,-0.14469200000000002,-0.8540000000000001,3.4125,7.945,-8.9075
716,1002370,0.489464,-0.129564,-0.8586360000000001,2.8,11.41,-9.59
717,1002468,0.490928,-0.138836,-0.856196,3.0275,14.8575,-10.57
718,1002566,0.488976,-0.13298,-0.858392,3.255,19.0575,-11.235
719,1002664,0.492148,-0.138836,-0.86498,4.165,23.9225,-11.5675
720,1002762,0.49117200000000005,-0.131028,-0.86498,4.795,29.505,-11.9
721,1002860,0.49263599999999996,-0.13078399999999998,-0.869616,6.055,35.9275,-12.1275
722,1002958,0.5002,-0.119804,-0.8727879999999999,7.21,43.05,-12.25
723,1003056,0.513376,-0.094916,-0.8823040000000001,8.925,50.47,-11.5325
724,1003154,0.514596,-0.093696,-0.8796200000000001,11.2875,56.5425,-9.695
725,1003252,0.50752,-0.115656,-0.8927959999999999,14.1925,63.8925,-7.1575
726,1003351,0.49824799999999997,-0.149572,-0.9125601000000001,16.9925,75.35501,-5.4075
727,1003449,0.49898000000000003,-0.17446,-0.9237841,19.8975,89.4075,-5.285
728,1003547,0.50142,-0.15128,-0.9528200000000001,22.6625,104.72,-6.3
729,1003645,0.5084960000000001,-0.150792,-0.983564,27.37,120.0675,-6.1775
730,1003743,0.509716,-0.118828,-1.0382200000000001,32.8125,136.8675,-4.025
731,1003841,0.5185,-0.148596,-1.110932,41.825,161.105,0.6475
732,1003939,0.692472,-0.14884,-1.194868,49.3325,190.75,5.285
733,1004037,0.7041841,-0.107848,-1.235372,47.4075,214.165,0.0175
734,1004135,0.7166279999999999,-0.29426399999999997,-1.2444,43.785,245.735,-12.565
735,1004233,0.6202479999999999,-0.407968,-1.277828,30.7825,288.3825,-31.5
736,1004331,0.6802720999999999,-0.4404201,-1.227808,14.6825,330.0675,-52.64
737,1004429,0.780556,-0.22691999999999998,-1.294664,-11.69,376.6,-73.16751
738,1004527,1.052616,0.133224,-1.7977919999999998,-24.675,411.9325,-78.575
739,1004625,1.1394799999999998,0.009272001,-1.571848,7.245,426.2125,-55.895
740,1004724,1.486936,-0.340624,-1.7428919999999999,45.5,430.9025,-37.765
741,1004822,0.9572120999999999,-0.345748,-2.641788,38.535,413.35,-61.32
742,1004920,0.197152,0.10345599999999999,-4.128480000000001,7.7875,325.185,-80.08
743,1005018,0.14884,0.306464,-4.303428,31.5,152.5475,-91.455
744,1005116,-0.9437921,-0.483608,-2.8774919999999997,75.32,-11.305,-103.565
745,1005214,-1.1324040000000002,-0.824232,-1.957612,55.825,-87.6925,-118.79
746,1005312,-0.55388,-1.0382200000000001,-2.0815639999999997,54.0925,-95.55,-115.71
747,1005410,-0.286456,-1.267092,-2.056432,52.185,-130.515,-84.9625
748,1005508,-0.179096,-1.393728,-1.741672,46.2,-182.2275,-41.02
749,1005606,-0.021716,-1.343952,-1.523292,21.4725,-224.0,3.745
750,1005704,0.21374400000000002,-1.115324,-1.467172,-5.705,-255.5,46.83
751,1005802,0.386252,-0.8491200000000001,-1.37616,-25.4975,-287.91,83.7725
752,1005900,0.463844,-0.57218,-1.2343959999999998,-40.53,-319.1125,108.9025
753,1005998,0.5514399999999999,-0.270108,-1.148996,-51.5025,-341.1975,117.46
754,1006096,0.563884,-0.021472,-1.0321200000000001,-53.515,-356.125,110.9325
755,1006194,0.526552,0.173728,-0.8908440999999999,-44.5725,-360.4475,92.54001
756,1006292,0.5172800999999999,0.30622,-0.718092,-22.6275,-351.6625,68.0225
757,1006391,0.634156,0.28011199999999997,-0.689056,11.305,-325.6575,44.59
758,1006489,0.8508280999999999,0.157136,-0.902068,43.54,-290.3075,27.9125
759,1006587,1.065792,0.022936,-1.161928,57.785,-264.1625,20.335
760,1006685,1.131184,-0.018788,-1.414712,46.9175,-254.485,15.6275
761,1006783,1.22244,0.19885999999999998,-1.608692,27.1075,-255.99,7.2625
762,1006881,1.169248,0.358192,-1.49328,25.1825,-265.1075,-3.4825
763,1006979,1.180472,0.349652,-1.318332,41.825,-264.6875,-16.8175
764,1007077,1.359812,0.175924,-1.280756,64.34751,-251.4575,-28.0875
765,1007175,1.560136,-0.20008,-1.148264,79.9925,-239.7325,-32.55
766,1007273,1.681648,-0.738588,-0.836676,79.9575,-230.79,-25.725
767,1007371,1.914912,-1.1685159999999999,-0.657092,62.2125,-211.7675,-1.575
768,1007469,2.29604,-1.307596,-0.74664,37.625,-186.2875,41.1425
769,1007567,2.6232439999999997,-1.013576,-0.7861680999999999,12.74,-175.35,90.4575
770,1007665,2.753052,-0.46481999999999996,-0.538996,-11.935,-185.57,124.6
771,1007763,2.77428,0.25351599999999996,-0.100772,-29.7325,-198.5025,131.145
772,1007862,2.7020560000000002,0.6985720999999999,0.340868,-20.3875,-199.325,111.37
773,1007960,2.523448,0.7983680000000001,0.7712840999999999,3.99,-182.7175,82.1275
774,1008058,2.445368,0.861808,1.057008,13.6325,-150.71,49.6475
775,1008156,2.381196,0.90402,1.2658719999999999,10.4825,-109.55,13.8075
776,1008254,2.48026,0.862784,1.128012,17.6225,-58.3975,-20.1425
777,1008352,2.397056,0.669048,0.8256960999999999,31.57,-15.435,-48.09
778,1008450,2.102792,0.44408000000000003,0.564128,30.8875,9.24,-72.4325
779,1008548,1.929064,0.0671,0.350628,20.6675,27.16,-90.09000999999999
780,1008646,0.665632,-0.6273241,0.400892,-11.1125,61.8975,-94.58751
781,1008744,0.206668,-1.2463520000000001,-1.7343520000000001,-22.5925,118.79,-69.52750999999999
782,1008842,0.09540401,-1.3266280000000001,-0.7556681,-12.565,132.1425,-33.8275
783,1008940,1.520852,-0.422364,-1.047736,-45.08,180.18,-30.765
784,1009038,1.050908,-0.24668400000000001,-1.227076,-20.7375,171.6925,8.47
785,1009136,0.535824,0.329156,-1.034316,-53.095,141.6625,17.6225
786,1009234,0.4514,1.399828,-1.226344,-68.0225,136.43,-9.905
787,1009332,0.797392,0.9413520000000001,-1.188768,-51.3975,130.025,-43.645
788,1009431,0.965996,-0.5489999999999999,-1.2944200000000001,34.195,130.97,-39.2
789,1009529,0.60878,-0.397964,-1.2160959999999998,7.4375,112.7875,-25.7425
790,1009627,0.178608,0.19983599999999999,-1.004792,-10.1675,101.01,-22.9075
791,1009725,0.360632,0.065148,-0.787876,17.3425,109.83,-26.3725
792,1009823,2.2128360000000002,-1.478884,-1.780468,38.2375,119.3675,-17.955
793,1009921,0.8554641,-0.44725200000000004,-0.960628,-52.6225,53.62,1.3125
794,1010019,0.4743361,0.041236,-1.01504,-72.555,21.245,-13.1075
795,1010117,0.771772,-0.1769,-1.037976,-50.4,25.725,-12.04
796,1010215,0.5604680000000001,-0.16909200000000002,-0.9494040000000001,-39.83,12.3025,-10.1325
797,1010313,0.5799880000000001,-0.11394800000000001,-0.9708760000000001,-35.035,8.12,-9.3975
798,1010411,0.54656,-0.094672,-0.9528200000000001,-24.64,2.7825,-8.12
799,1010509,0.524356,-0.049044,-0.9516,-17.01,0.7175,-6.125
800,1010607,0.523624,-0.09150001,-0.9189040999999999,-6.8775,-0.35,-3.3775
801,1010705,0.5121560000000001,-0.134444,-0.8754719999999999,0.77,-0.8925,-1.4
802,1010803,0.5058121,-0.11321600000000001,-0.8840120000000001,4.1125,-0.805,-0.1225
803,1010901,0.505568,-0.187636,-0.8479,8.12,-0.1225,0.3325
804,1010999,0.49751599999999996,-0.205448,-0.829356,8.26,-0.7875,-0.6475
805,1011098,0.499468,-0.183,-0.833992,5.8275,-1.5575,-2.485
806,1011196,0.496296,-0.190808,-0.8281360999999999,5.0225,-2.1175,-3.7625
807,1011294,0.49702799999999997,-0.177876,-0.8400921,3.7275,-2.52,-4.9175
808,1011392,0.496784,-0.178852,-0.8430200999999999,3.2375,-2.45,-5.81
809,1011490,0.496296,-0.188124,-0.8376520000000001,2.8175,-2.66,-6.44
810,1011588,0.49824799999999997,-0.18788,-0.8359440999999999,1.2775,-3.29,-7.21
811,1011686,0.493612,-0.189832,-0.834968,-0.4725,-4.3575,-8.1375
812,1011784,0.486048,-0.16128399999999998,-0.8554641,-2.625,-4.97,-8.9775
813,1011882,0.48873199999999994,-0.221796,-0.819108,-3.43,-5.3025,-9.3625
814,1011980,0.4697,-0.14518,-0.89792,-5.8975,-5.1275,-10.5875
815,1012078,0.489464,-0.202032,-0.828868,-5.425,-5.3375,-10.9025
816,1012176,0.489464,-0.167872,-0.8447280999999999,-7.945,-6.195,-11.4625
817,1012274,0.48873199999999994,-0.188612,-0.845216,-9.0125,-5.5825,-12.04
818,1012372,0.489708,-0.15201199999999998,-0.8576601,-9.24,-4.725,-12.6875
819,1012470,0.477996,-0.163724,-0.8586360000000001,-8.435,-2.275,-12.74
820,1012568,0.479216,-0.143228,-0.862296,-7.14,0.7,-12.25
821,1012666,0.47555600000000003,-0.138836,-0.865468,-4.4625,3.85,-11.725
822,1012765,0.4743361,-0.13151600000000002,-0.869128,-2.6775,7.2625,-11.165
823,1012863,0.47165200000000007,-0.13908,-0.8701040000000001,-0.525,10.2725,-10.9025
824,1012961,0.473116,-0.146644,-0.8662001,1.085,13.615,-11.13
825,1013059,0.483608,-0.161528,-0.8615640999999999,2.345,17.255,-12.145
826,1013157,0.46018400000000004,-0.18470799999999998,-0.886452,2.555,20.93,-13.1075
827,1013255,0.48092399999999996,-0.216916,-0.8674200000000001,1.5925,26.3375,-13.5975
828,1013353,0.46603999999999995,-0.160308,-0.894748,1.015,35.98,-15.54
829,1013451,0.49166000000000004,-0.157868,-0.91622,2.065,45.1675,-16.45
830,1013549,0.49263599999999996,-0.13542,-0.9125601000000001,3.4825,52.395,-16.205
831,1013647,0.48312,-0.102968,-0.9357401,6.825,62.09,-15.0675
832,1013745,0.46603999999999995,-0.101504,-0.9674601,12.985,76.2125,-12.04
833,1013843,0.447984,-0.12761199999999998,-0.9911281,21.525,96.145,-7.9975
834,1013941,0.43066000000000004,-0.151036,-1.038952,30.5025,120.365,-4.48
835,1014039,0.43212399999999995,-0.126392,-1.092144,41.9825,148.365,-1.89
836,1014137,0.447496,-0.125172,-1.158756,54.4075,177.9925,2.24
837,1014235,0.515328,-0.132004,-1.167052,67.0775,208.7575,8.505
838,1014334,0.7041841,-0.035868000000000004,-1.1831559999999999,69.3,231.8925,13.195
839,1014432,0.81862,-0.055388,-1.203164,66.2375,249.0775,12.5125
840,1014530,0.7771399999999999,-0.47067600000000004,-1.05408,59.3425,284.3575,6.72
841,1014628,0.68076,-0.39723200000000003,-1.05408,4.7075,325.2375,-11.6025
842,1014726,0.705404,-0.23472800000000002,-1.172176,-45.185,366.38,-28.49
843,1014824,0.8039801,-0.03294,-1.33346,-50.225,405.055,-35.28
844,1014922,1.099464,0.14274,-1.712392,-31.185,427.4375,-29.9775
845,1015020,0.978684,-0.27205999999999997,-1.60674,22.6625,419.3,-1.715
846,1015118,1.5852680000000001,-0.36844,-1.7514319999999999,30.7825,405.2475,15.505
847,1015216,0.760792,-0.137128,-2.8626080000000003,8.575,385.8225,-23.275
848,1015314,-0.411384,1.086532,-4.643076000000001,-9.9925,254.205,-60.9175
849,1015412,-0.25864000000000004,0.934276,-4.253408,22.365,55.9125,-122.885
850,1015510,-0.9867360999999999,0.158844,-2.694004,74.34,-80.6925,-187.18
851,1015608,-0.762012,-0.681492,-2.067656,94.64,-129.3425,-224.035
852,1015706,-0.26961999999999997,-1.317844,-1.943704,106.9425,-145.1275,-218.715
853,1015804,-0.018788,-1.9368720000000001,-1.795352,96.9675,-182.91,-178.43
854,1015903,0.057096,-2.163304,-1.506212,59.115,-225.7325,-110.4775
855,1016001,0.188856,-1.9893319999999999,-1.328336,9.9225,-256.9875,-31.4125
856,1016099,0.25961599999999996,-1.6213799999999998,-1.170712,-34.405,-281.8025,42.28
857,1016197,0.329644,-1.22854,-1.063108,-64.5575,-300.755,99.8375
858,1016295,0.43505200000000005,-0.820084,-1.017968,-83.4575,-313.4425,137.3575
859,1016393,0.43724799999999997,-0.44554399999999994,-0.9552601000000001,-93.6775,-325.535,154.14
860,1016491,0.396256,-0.122,-0.8996280999999999,-93.08249,-332.8675,149.695
861,1016589,0.366,0.150304,-0.934276,-81.9875,-329.9625,125.195
862,1016687,0.393816,0.197884,-0.87718,-52.535,-321.265,90.1075
863,1016785,0.606096,-0.004392,-0.8571719999999999,-11.76,-302.225,55.58
864,1016883,0.8525360000000001,-0.257664,-0.9347639999999999,18.69,-276.955,32.8475
865,1016981,1.08702,-0.48165600000000003,-1.1709559999999999,32.095,-254.485,27.3875
866,1017079,1.209264,-0.5206960999999999,-1.435208,28.84,-243.11,33.04
867,1017177,1.193892,-0.39967199999999997,-1.480836,15.7325,-248.3075,38.675
868,1017275,1.176812,-0.228872,-1.452288,7.84,-253.6275,38.045
869,1017373,1.286368,-0.20447200000000001,-1.4152,18.7075,-249.9875,33.3725
870,1017472,1.37006,-0.379176,-1.2275639999999999,35.91,-244.895,27.6325
871,1017570,1.464244,-0.6883239999999999,-0.895236,44.9925,-237.0375,24.9375
872,1017668,1.604544,-0.957456,-0.6314721,43.05,-217.42,29.47
873,1017766,1.797548,-1.0182120000000001,-0.52094,33.95,-191.17,42.0
874,1017864,2.2179599999999997,-0.679784,-0.6182960999999999,34.72,-162.8725,61.5125
875,1017962,2.732312,-0.29402,-0.746396,51.0825,-150.605,74.5675
876,1018060,3.012668,0.115656,-0.502884,58.3975,-164.8325,71.225
877,1018158,2.919216,0.413336,0.080276,55.3875,-189.245,51.765
878,1018256,2.701568,0.42822,0.6307401,54.1975,-191.2575,35.805
879,1018354,2.512956,0.449692,1.04188,39.3575,-167.4225,30.3275
880,1018452,2.4104759999999996,0.5260640000000001,1.257332,12.04,-126.175,26.1625
881,1018550,2.366556,0.53192,1.230492,-1.5925,-74.34,16.065
882,1018648,2.279448,0.372832,1.0340719999999999,8.2425,-23.73,2.17
883,1018746,2.198196,0.139812,0.692228,31.9725,19.46,-7.5425
884,1018844,1.8580599999999998,-0.159088,0.889868,48.895,45.9725,-11.8125
885,1018942,2.180872,-0.470188,0.5987760999999999,1.1375,94.115,-6.125
886,1019040,0.313052,-0.30036399999999996,-0.135176,-55.5275,146.3875,12.495
887,1019138,0.14884,-0.21667199999999998,-1.7631439999999998,-60.515,187.18,22.645
888,1019236,1.204628,0.761524,-1.153632,-71.1375,206.8675,8.9425
889,1019334,0.9418401,0.758596,-1.1636360000000001,-65.0125,193.69,-6.72
890,1019433,1.051152,1.49694,-1.6326040000000002,-74.5675,167.5975,-46.7775
891,1019531,1.39324,0.03416,-1.360544,-40.425,146.475,-66.4475
892,1019629,0.864492,-0.467016,-1.4635120000000001,2.1525,127.61,-40.04
893,1019727,0.101748,0.09735601,-1.117032,-31.64,106.3125,-30.345
894,1019825,0.16909200000000002,0.61122,-0.9235399999999999,-13.3175,119.1225,-27.1425
895,1019923,1.8724560000000001,-1.01016,-2.0403279999999997,32.97,137.48,-28.5075
896,1020021,1.4720520000000001,-1.081164,-1.002108,-24.3775,85.54,0.2625
897,1020119,0.535824,0.10906800000000001,-1.083848,-96.075,15.5575,-19.1275
898,1020217,0.822768,-0.327204,-1.00406,-68.39,18.3925,-19.7225
899,1020315,0.606584,-0.14152,-1.009428,-56.6825,4.55,-18.2
900,1020413,0.6422081000000001,-0.203252,-0.9389120000000001,-52.36,-0.6475,-16.59
901,1020511,0.567056,-0.150304,-0.9464761,-36.47,-6.1075,-14.3325
902,1020609,0.5846241,-0.07246799999999999,-0.954528,-31.465,-5.775,-12.25
903,1020707,0.528016,-0.12395199999999999,-0.9098761000000001,-17.7275,-7.5775,-9.52
904,1020805,0.520452,-0.10248,-0.8962120000000001,-12.7225,-5.4075,-8.05
905,1020903,0.5060560000000001,-0.1037,-0.879376,-8.2775,-5.075,-7.315
906,1021001,0.5131319999999999,-0.127856,-0.8701040000000001,-5.775,-4.515,-6.5625
907,1021099,0.49849209999999994,-0.128344,-0.8723001,-3.85,-5.0575,-6.7725
908,1021198,0.49605200000000005,-0.1159,-0.8662001,-2.52,-5.32,-7.245
909,1021296,0.48653599999999997,-0.1159,-0.8608319999999999,-1.4175,-5.5825,-7.245
910,1021394,0.4819,-0.118096,-0.8576601,-0.2275,-5.4075,-6.9825
911,1021492,0.476288,-0.141032,-0.85034,0.945,-5.1625,-6.72
912,1021590,0.47653199999999996,-0.15128,-0.8493641,0.455,-5.39,-7.1575
913,1021688,0.481412,-0.1586,-0.8486319999999999,-0.7175,-5.46,-8.015
914,1021786,0.47994799999999993,-0.156648,-0.8544879999999999,-2.065,-5.6875,-9.1525
915,1021884,0.48312,-0.14566800000000002,-0.8527800999999999,-3.465,-5.88,-10.1675
916,1021982,0.492148,-0.12932000000000002,-0.853512,-4.585,-5.53,-10.85
917,1022080,0.484584,-0.118584,-0.849852,-4.97,-5.32,-11.3225
918,1022178,0.484828,-0.111752,-0.853756,-4.7425,-4.8475,-11.375
919,1022276,0.482876,-0.11321600000000001,-0.856684,-4.1475,-4.2175,-11.0075
920,1022374,0.468724,-0.11102000000000001,-0.862296,-3.815,-3.71,-10.85
921,1022472,0.48214399999999996,-0.12078,-0.859368,-3.15,-2.9925,-11.0075
922,1022570,0.484828,-0.130296,-0.8579041,-3.43,-2.135,-11.3925
923,1022668,0.47994799999999993,-0.13078399999999998,-0.8532681000000001,-3.395,-1.4,-11.6025
924,1022766,0.479216,-0.125904,-0.850584,-3.2725,0.2275,-12.11
925,1022865,0.48214399999999996,-0.115656,-0.855708,-2.905,2.485,-12.18
926,1022963,0.472628,-0.109556,-0.8664440000000001,-2.135,4.97,-12.1625
927,1023061,0.46506400000000003,-0.101504,-0.8754719999999999,-0.805,8.225,-12.25
928,1023159,0.447496,-0.086132,-0.889868,0.49,12.215,-12.18
929,1023257,0.43041599999999997,-0.105652,-0.9052401,3.15,18.095,-11.235
930,1023355,0.457988,-0.12078,-0.8998719999999999,5.25,27.4225,-11.0425
931,1023453,0.48092399999999996,-0.118828,-0.874984,5.5125,35.805,-12.04
932,1023551,0.49263599999999996,-0.111752,-0.8735200000000001,6.65,43.4875,-12.11
933,1023649,0.496296,-0.104432,-0.8815719999999999,7.6825,49.5425,-11.6725
934,1023747,0.48922,-0.12322000000000001,-0.8967,9.03,56.7,-10.465
935,1023845,0.490196,-0.15372,-0.9198799999999999,10.4825,65.17,-10.5175
936,1023943,0.47482399999999997,-0.16958,-0.9203680000000001,10.5,74.4975,-11.69
937,1024041,0.47458,-0.171044,-0.9474520000000001,11.5325,89.5125,-14.0175
938,1024139,0.46945600000000004,-0.139812,-0.9825879999999999,13.23,108.01,-15.7325
939,1024237,0.45603599999999994,-0.170312,-1.048468,17.5875,129.2025,-15.7325
940,1024335,0.48824399999999996,-0.198372,-1.100196,22.4875,150.815,-14.7175
941,1024433,0.51362,-0.190808,-1.1468,28.0175,173.565,-13.9475
942,1024532,0.599264,-0.11028800000000001,-1.27978,32.9525,201.18,-12.7925
943,1024630,0.752984,-0.053191999999999996,-1.3834799999999998,34.6675,230.2125,-15.19
944,1024728,0.6141479999999999,-0.24863600000000002,-1.306132,23.45,262.6925,-29.365
945,1024826,0.613416,-0.30744,-1.319308,15.12,301.0,-45.01
946,1024924,0.7056479999999999,-0.190076,-1.2719719999999999,6.4925,341.4425,-58.3625
947,1025022,0.73078,-0.292068,-1.275388,3.7275,381.6225,-68.2675
948,1025120,1.123864,0.126148,-1.732156,-14.4375,416.4475,-76.37001
949,1025218,1.4093440000000002,-0.217648,-1.6682279999999998,17.535,431.8475,-64.8725
950,1025316,1.285636,-0.609024,-1.800232,25.4975,413.6825,-74.445
951,1025414,0.307684,-0.465308,-2.8853,-23.765,355.775,-90.125
952,1025512,0.28694400000000003,-0.5429,-3.596072,-7.4025,238.84,-72.7825
953,1025610,-0.752496,-1.022604,-2.87432,31.2375,79.2225,-46.935
954,1025708,-1.14924,-0.989908,-2.085468,5.075,-11.9175,-38.4125
955,1025806,-0.756888,-0.887916,-2.212348,-4.83,-30.1,-29.12
956,1025905,-0.542656,-0.85156,-2.2301599999999997,3.5,-65.3975,-10.115
957,1026003,-0.48678,-0.913048,-1.957612,15.6975,-120.12,10.3075
958,1026101,-0.29768,-0.8949921000000001,-1.76046,14.21,-166.4775,27.51
959,1026199,-0.10906800000000001,-0.8344801,-1.580632,7.1225,-207.06,45.605
960,1026297,0.029524,-0.72224,-1.4015360000000001,-4.0775,-245.2975,62.8425
961,1026395,0.200568,-0.5587601,-1.242692,-16.17,-275.73,74.8825
962,1026493,0.291824,-0.367708,-1.084336,-24.5525,-298.375,81.2875
963,1026591,0.392352,-0.17616800000000002,-1.019188,-24.8675,-309.3125,81.0775
964,1026689,0.564616,-0.038064,-1.003816,-14.49,-311.15,73.85
965,1026787,0.6653880999999999,0.08174001,-0.9686799999999999,-0.91,-310.52,61.74
966,1026885,0.74298,0.231068,-0.936716,15.2075,-305.445,49.4725
967,1026983,0.8559521000000001,0.332572,-0.989664,30.2925,-293.3525,35.595
968,1027081,0.9752681000000001,0.370392,-1.118252,38.08,-280.07,17.3775
969,1027179,1.042368,0.274256,-1.16632,42.2625,-271.285,0.455
970,1027278,1.108248,0.15982000000000002,-1.252208,40.565,-265.4575,-13.23
971,1027376,1.199016,0.16104000000000002,-1.3066200000000001,39.7775,-261.135,-19.8275
972,1027474,1.180472,0.172508,-1.22366,46.1125,-258.9125,-20.8425
973,1027572,1.1934040000000001,0.1586,-1.158756,54.775,-253.505,-23.6425
974,1027670,1.4574120000000002,0.031232,-1.3146719999999998,69.335,-240.6775,-26.5825
975,1027768,1.7043400000000002,-0.331352,-1.347124,82.0925,-236.2325,-25.1475
976,1027866,1.756068,-0.8430200999999999,-0.960628,76.8075,-244.755,-12.4075
977,1027964,1.843908,-1.1324040000000002,-0.574132,54.495,-239.085,18.34
978,1028062,2.129876,-1.08946,-0.49995600000000007,30.87,-213.29,65.5375
979,1028160,2.3302,-0.7361481,-0.362584,5.8275,-190.75,113.75
980,1028258,2.41194,-0.183976,-0.116388,-28.49,-177.3625,139.545
981,1028356,2.511248,0.514108,0.107848,-59.9375,-164.6225,136.2025
982,1028454,2.529548,0.918416,0.387228,-62.9475,-149.2925,109.7425
983,1028552,2.511736,1.093608,0.70394,-44.835,-127.5575,70.8575
984,1028650,2.49002,1.038708,1.037488,-18.7775,-96.4775,29.2775
985,1028749,2.589816,0.856684,1.0553,2.1875,-54.5125,-10.01
986,1028847,2.478796,0.6202479999999999,0.9150001,16.03,-17.3425,-37.17
987,1028945,2.18624,0.453596,0.6944241,17.64,8.2775,-54.6875
988,1029043,2.164768,0.644404,0.525088,14.35,28.9275,-67.97
989,1029141,2.181848,0.013908000000000002,0.6653880999999999,12.915,65.765,-79.4325
990,1029239,0.295484,-0.5414359999999999,-0.08906,8.5575,116.445,-85.1375
991,1029337,0.175924,-1.232932,-1.652856,18.8825,146.965,-90.63251
992,1029435,1.32492,-0.5504641,-0.786656,-24.01,167.4225,-93.59
993,1029533,1.240984,-0.302072,-0.8937719999999999,-27.7725,171.85,-65.7825
994,1029631,1.707024,0.444812,-1.710684,-49.14,160.8775,-52.535
995,1029729,1.061156,-0.05246,-1.545008,-26.1275,127.435,-32.76
996,1029827,0.19642,-0.35038400000000003,-0.9972281,-23.4325,97.3875,-26.88
997,1029925,0.10858,0.312808,-0.8937719999999999,-27.125,110.0575,-19.3725
998,1030023,0.6378159999999999,-0.049532,-1.529148,1.96,129.0625,-18.0425
999,1030121,2.063508,-0.7422481,-1.094584,-20.265,105.735,-4.6375
1000,1030219,0.515572,-0.13542,-1.0492,-78.82,-1.7675,-17.4125
1001,1030318,0.796416,-0.003904,-1.0016200000000002,-66.57,14.525,-16.8525
1002,1030416,0.6231760999999999,-0.33794,-0.9333,-34.58,-1.155,-15.6625
1003,1030514,0.6280560000000001,-0.094916,-0.9882001,-43.2075,-6.72,-14.2625
1004,1030612,0.5546121,-0.194712,-0.915732,-26.1975,-8.0325,-12.39
1005,1030710,0.527284,-0.1098,-0.9206120000000001,-21.9275,-9.52,-11.445
1006,1030808,0.514108,-0.135664,-0.9030440000000001,-16.1175,-8.6275,-10.1325
1007,1030906,0.502152,-0.1464,-0.8805960999999999,-11.5325,-8.19,-9.1175
1008,1031004,0.49702799999999997,-0.09516001,-0.8827921000000001,-10.465,-8.12,-8.6625
1009,1031102,0.483364,-0.09540401,-0.8788879999999999,-6.545,-7.7875,-7.5425
1010,1031200,0.48312,-0.090036,-0.8866961,-3.0625,-7.3675,-6.195
1011,1031298,0.477264,-0.096624,-0.869616,0.245,-6.37,-4.76
1012,1031396,0.477264,-0.10418800000000002,-0.864492,2.31,-5.1275,-3.955
1013,1031494,0.47555600000000003,-0.113704,-0.858392,3.92,-4.445,-3.85
1014,1031592,0.47482399999999997,-0.111996,-0.858392,4.41,-3.6575,-3.99
1015,1031690,0.48214399999999996,-0.141276,-0.855708,5.1975,-2.6425,-4.0425
1016,1031789,0.48092399999999996,-0.15006,-0.8576601,4.3925,-2.24,-4.655
1017,1031887,0.48385200000000006,-0.16104000000000002,-0.849852,3.5525,-2.1875,-5.5825
1018,1031985,0.4819,-0.149572,-0.85644,1.855,-2.555,-6.615
1019,1032083,0.484096,-0.154696,-0.856196,0.35,-2.87,-7.455
1020,1032181,0.484828,-0.14786400000000002,-0.8540000000000001,-1.365,-3.15,-8.3125
1021,1032279,0.474092,-0.13298,-0.860344,-2.5025,-3.6575,-9.66
1022,1032377,0.480436,-0.136884,-0.8559521000000001,-3.465,-3.745,-10.5525
1023,1032475,0.477996,-0.12761199999999998,-0.8632719999999999,-3.85,-2.975,-11.515
1024,1032573,0.472628,-0.127856,-0.8569280999999999,-3.675,-1.365,-12.2675
1025,1032671,0.472628,-0.12688,-0.8632719999999999,-3.0275,0.5775,-12.7225
1026,1032769,0.47653199999999996,-0.12078,-0.863028,-2.38,2.835,-12.8625
1027,1032867,0.473116,-0.10833599999999999,-0.868152,-1.715,4.5675,-12.81
1028,1032965,0.4743361,-0.11467999999999999,-0.862296,-0.4025,6.615,-12.46
1029,1033063,0.4697,-0.11126400000000002,-0.869616,0.5775,8.54,-12.53
1030,1033162,0.443592,-0.104432,-0.8866961,1.54,10.99,-12.5825
1031,1033260,0.46433199999999997,-0.15420799999999998,-0.8652241,3.0975,15.75,-11.76
1032,1033358,0.46433199999999997,-0.119804,-0.8764481,3.2025,22.8025,-13.0025
1033,1033456,0.4743361,-0.11834000000000001,-0.874252,3.92,29.6275,-14.14
1034,1033554,0.47482399999999997,-0.112728,-0.87718,4.9,36.68,-14.1575
1035,1033652,0.48848800000000003,-0.104432,-0.874252,6.125,43.89,-13.4225
1036,1033750,0.494588,-0.094916,-0.8769360999999999,7.245,50.5575,-12.11
1037,1033848,0.492392,-0.10394400000000001,-0.8866961,8.715,57.6975,-10.7275
1038,1033946,0.490196,-0.141764,-0.9030440000000001,10.57,66.045,-9.905
1039,1034044,0.483608,-0.161528,-0.9232961,11.165,75.32,-9.9225
1040,1034142,0.47823999999999994,-0.165676,-0.9472079999999999,12.495,87.99,-11.165
1041,1034240,0.469944,-0.155916,-0.9869800999999999,15.9425,105.6125,-12.075
1042,1034338,0.46896800000000005,-0.12175599999999999,-1.059204,21.0175,125.4225,-11.865
1043,1034436,0.463844,-0.126148,-1.131916,28.84,146.37,-9.03
1044,1034534,0.49776000000000004,-0.135664,-1.158512,38.5525,173.32,-3.535
1045,1034632,0.627812,-0.060267999999999995,-1.2136559999999998,45.1675,203.5775,1.2075
1046,1034731,0.7417600000000001,-0.083204,-1.291736,45.5175,231.4725,1.3475
1047,1034829,0.664412,-0.323056,-1.24318,36.295,260.26,-10.6225
1048,1034927,0.6202479999999999,-0.404064,-1.225856,17.57,293.195,-29.33
1049,1035025,0.6771,-0.37990799999999997,-1.188524,0.2975,331.8175,-47.5125
1050,1035123,0.814472,-0.22033200000000003,-1.269776,-29.05,370.65,-61.9675
1051,1035221,1.022604,0.19032000000000002,-1.665544,-46.445,403.2875,-65.835
1052,1035319,1.2317120000000001,-0.10833599999999999,-1.559404,-13.965,425.705,-52.4475
1053,1035417,1.295396,-0.42773199999999995,-1.8412240000000002,22.505,427.9975,-49.805
1054,1035515,0.681492,-0.292312,-2.699616,-2.415,390.1975,-70.105
1055,1035613,-0.10858,0.349408,-3.99672,-27.51,291.97,-77.47251
1056,1035711,0.048556,0.027572000000000003,-3.9393800000000003,19.25,130.2,-80.745
1057,1035809,-1.044564,-0.6409881,-2.32166,48.51,-11.6725,-89.3375
1058,1035908,-0.9140241,-0.9567241,-1.8939279999999998,27.8425,-54.4075,-101.0625
1059,1036005,-0.45896400000000004,-1.121424,-2.0352040000000002,24.9725,-68.0925,-87.90250999999999
1060,1036104,-0.279868,-1.298568,-1.889048,27.1425,-109.6375,-54.495
1061,1036202,-0.21618400000000002,-1.340048,-1.555256,21.0875,-158.235,-13.6325
1062,1036300,-0.041236,-1.2214639999999999,-1.390312,5.6,-191.9575,27.685
1063,1036398,0.169336,-1.033096,-1.351272,-10.7625,-220.185,65.7125
1064,1036496,0.338428,-0.8195960999999999,-1.3029600000000001,-26.74,-251.1425,95.9525
1065,1036594,0.42895200000000006,-0.586332,-1.170468,-42.2275,-282.695,115.7275
1066,1036692,0.46457600000000004,-0.353556,-1.01748,-55.23,-307.755,123.305
1067,1036790,0.49117200000000005,-0.111752,-0.9242720999999999,-63.1575,-320.775,116.4275
1068,1036888,0.50508,0.043432,-0.8252079999999999,-61.25,-324.8525,98.0525
1069,1036986,0.538996,0.14762,-0.73444,-45.5,-318.43,74.69
1070,1037084,0.661484,0.1647,-0.706624,-16.1525,-300.4925,53.9175
1071,1037182,0.815936,0.07612801,-0.7998321,16.17,-275.66,39.8125
1072,1037280,1.0025959999999998,-0.050263999999999996,-1.044564,27.405,-253.5225,28.2625
1073,1037378,1.147532,-0.08369201,-1.41398,17.325,-244.6675,17.5
1074,1037476,1.1472879999999999,0.057339999999999995,-1.4513120000000002,7.1225,-254.7125,10.22
1075,1037574,1.079456,0.213988,-1.3327280000000001,11.165,-265.3175,2.9225
1076,1037672,1.148752,0.237168,-1.297836,28.2625,-260.365,-9.7475
1077,1037770,1.250256,0.13054000000000002,-1.257576,48.8075,-250.635,-24.0625
1078,1037868,1.40056,-0.12322000000000001,-1.165832,66.8675,-240.2225,-33.8275
1079,1037966,1.5408600000000001,-0.48922,-0.9442801,77.5775,-229.32,-34.6675
1080,1038065,1.6796959999999999,-0.9057280999999999,-0.669048,78.7675,-215.635,-21.9975
1081,1038163,1.9459,-1.0704280000000002,-0.60512,66.9025,-193.4975,5.5125
1082,1038261,2.376316,-0.862296,-0.821304,50.6975,-173.2675,42.1925
1083,1038359,2.76208,-0.38795999999999997,-0.8518040000000001,38.43,-177.8525,73.955
1084,1038457,2.797704,0.14274,-0.364536,23.8525,-203.9625,86.17
1085,1038555,2.706692,0.490196,0.364292,14.0525,-220.605,75.21500999999999
1086,1038653,2.554924,0.7820199999999999,1.0723799999999999,13.58,-207.8125,56.91
1087,1038751,2.533208,0.961116,1.479128,21.2975,-160.965,33.8975
1088,1038849,2.636176,1.021384,1.500844,29.225,-97.72,2.5725
1089,1038947,2.697908,0.841556,1.263676,45.22,-39.7075,-28.9625
1090,1039045,2.476844,0.5587601,0.9708760000000001,52.29,-0.0175,-52.045
1091,1039143,2.148176,0.05636401,1.279048,32.375,35.6475,-66.9725
1092,1039241,2.183312,-0.173484,0.590236,-13.1425,106.785,-67.445
1093,1039339,0.512888,-0.944524,-1.3649360000000001,-28.1225,131.3025,-49.945
1094,1039437,0.154696,-0.8840120000000001,-1.1224,-34.4575,154.315,-28.9975
1095,1039535,1.2719719999999999,0.07588400000000001,-0.9049959999999999,-61.18,179.935,-24.0275
1096,1039633,1.050664,0.370392,-1.3590799999999998,-41.1425,173.0925,-13.23
1097,1039731,0.8918200000000001,1.241228,-1.372012,-83.37001,136.8675,-42.91
1098,1039829,1.236592,0.036356,-1.21878,-45.8325,127.4875,-56.665
1099,1039927,0.532896,-0.52094,-1.272216,-10.255,114.9575,-30.73
1100,1040026,-0.09418401,-0.09320801,-0.649284,-38.395,105.0,-24.57
1101,1040124,0.243024,0.564616,-0.7890961,-28.0175,139.3,-18.6375
1102,1040222,2.8652919999999997,-0.736392,-2.434388,0.6475,154.2625,-14.42
1103,1040320,0.71004,-0.568276,-0.8581479999999999,-82.4075,56.105,-12.25
1104,1040418,0.7625,0.25424800000000003,-1.327604,-84.455,17.605,-21.8575
1105,1040516,0.7376119999999999,-0.186172,-1.000888,-61.1275,7.175,-17.15
1106,1040614,0.5795,-0.1098,-0.9894200000000001,-33.1275,-3.22,-11.62
1107,1040712,0.6673399999999999,-0.134932,-0.9608721,-25.9175,-4.305,-7.4025
1108,1040810,0.562908,-0.167384,-0.899384,-11.13,-9.135,-3.885
1109,1040908,0.538508,-0.151036,-0.8866961,-6.8775,-7.6825,-2.905
1110,1041006,0.549488,-0.185684,-0.8549761,-2.4675,-6.615,-2.5375
1111,1041104,0.508252,-0.116876,-0.8596120999999999,-2.59,-6.58,-3.5
1112,1041202,0.5131319999999999,-0.149816,-0.8703481,-0.35,-5.7225,-3.7275
1113,1041300,0.511424,-0.154452,-0.862784,1.505,-6.02,-3.8325
1114,1041398,0.49873599999999996,-0.13859200000000002,-0.8608319999999999,1.855,-5.915,-4.6025
1115,1041496,0.49263599999999996,-0.127856,-0.8579041,2.625,-6.02,-5.075
1116,1041594,0.493856,-0.125416,-0.85644,3.815,-5.67,-5.215
1117,1041692,0.490196,-0.130296,-0.8520479999999999,4.9875,-4.7075,-5.1975
1118,1041790,0.48922,-0.142008,-0.8493641,5.7575,-3.85,-5.4075
1119,1041889,0.489464,-0.15274400000000002,-0.8457040000000001,5.81,-3.22,-5.6875
1120,1041987,0.48922,-0.157868,-0.8427761,5.0925,-2.94,-6.2125
1121,1042085,0.490684,-0.160308,-0.845216,4.235,-2.94,-6.8775
1122,1042183,0.490928,-0.158844,-0.847412,3.3075,-2.7475,-7.6475
1123,1042281,0.49141599999999996,-0.149084,-0.844484,2.555,-2.24,-8.26
1124,1042379,0.495076,-0.138836,-0.8398479999999999,2.205,-1.75,-8.365
1125,1042477,0.493612,-0.144204,-0.8461921,2.205,-1.8025,-8.365
1126,1042575,0.479704,-0.133468,-0.853512,1.7675,-2.1,-8.2775
1127,1042673,0.49117200000000005,-0.155916,-0.8357,0.735,-2.6075,-8.33
1128,1042771,0.49044,-0.157136,-0.8596120999999999,-0.42,-2.765,-8.75
1129,1042869,0.490928,-0.15616,-0.840824,-1.7325,-2.31,-9.275
1130,1042967,0.5011760000000001,-0.158844,-0.8364321,-2.345,-1.8375,-9.73
1131,1043065,0.48873199999999994,-0.149084,-0.8476561,-2.835,-0.5425,-10.045
1132,1043163,0.486292,-0.133468,-0.8581479999999999,-2.2225,1.19,-10.045
1133,1043261,0.48653599999999997,-0.1281,-0.8608319999999999,-0.98,3.2375,-9.835
1134,1043359,0.485072,-0.12980799999999998,-0.8601,0.245,5.565,-9.5025
1135,1043457,0.482876,-0.12444000000000001,-0.8657120999999999,1.5225,8.0325,-9.3625
1136,1043555,0.48653599999999997,-0.12444000000000001,-0.865468,3.3425,10.9025,-9.31
1137,1043653,0.48556000000000005,-0.146644,-0.863516,4.9525,14.175,-9.4675
1138,1043752,0.453596,-0.16714,-0.887184,5.2325,18.4975,-9.7825
1139,1043850,0.485804,-0.15420799999999998,-0.8801081000000001,4.6375,26.495,-10.92
1140,1043948,0.49263599999999996,-0.130296,-0.8718120999999999,4.095,33.8275,-12.425
1141,1044046,0.49556400000000006,-0.122976,-0.8810841,6.195,41.58,-11.655
1142,1044144,0.50142,-0.14566800000000002,-0.8969440000000001,8.8375,48.7025,-10.3775
1143,1044242,0.482876,-0.149328,-0.921832,10.4825,55.9475,-9.52
1144,1044340,0.47213999999999995,-0.15494000000000002,-0.9384239999999999,14.0525,68.7575,-8.995
1145,1044438,0.447008,-0.170068,-0.9791719999999999,19.5475,86.3625,-8.8725
1146,1044536,0.424804,-0.175924,-1.0431,26.0225,110.285,-8.5925
1147,1044634,0.406016,-0.19642,-1.115812,35.3325,140.2975,-8.2425
1148,1044732,0.442616,-0.185196,-1.123376,44.2925,172.3575,-7.7
1149,1044830,0.513864,-0.13639600000000002,-1.12972,52.01,199.3775,-5.0925
1150,1044928,0.7068681,-0.02928,-1.256844,58.45,224.56,1.505
1151,1045026,0.752984,-0.046604,-1.31028,57.8025,243.32,1.6975
1152,1045124,0.71126,-0.351116,-1.212192,51.87,272.125,-8.645
1153,1045222,0.670268,-0.49556400000000006,-1.135576,25.62,312.8475,-28.805
1154,1045320,0.706136,-0.280356,-1.181936,-15.8725,352.38,-49.84
1155,1045418,0.8513161,-0.031476,-1.375428,-26.67,389.655,-60.165
1156,1045517,1.12606,0.06344,-1.560624,-7.2975,410.585,-52.85
1157,1045615,1.297348,-0.233508,-1.517192,28.595,406.8225,-27.7375
1158,1045713,0.901336,-0.342332,-2.27164,37.1875,389.55,-32.8475
1159,1045811,0.291092,0.163968,-3.011692,16.765,330.3475,-56.525
1160,1045909,0.361852,0.461892,-3.35744,17.2375,192.465,-91.49
1161,1046007,-0.331108,-0.10223600000000001,-2.875784,50.4875,51.2925,-129.535
1162,1046105,-0.7198,-0.5795,-1.8961240000000001,51.03,-39.2525,-156.03
1163,1046203,-0.45164399999999993,-0.9625799999999999,-1.7109279999999998,46.7075,-58.625,-163.695
1164,1046301,-0.16104000000000002,-1.262456,-1.7221520000000001,43.0675,-78.55751,-142.31
1165,1046399,-0.087352,-1.4844959999999998,-1.5281719999999999,41.895,-116.4625,-100.065
1166,1046497,-0.040260000000000004,-1.525976,-1.303448,26.8975,-153.195,-49.3325
1167,1046595,0.02928,-1.371768,-1.15534,1.05,-181.8775,1.19
1168,1046693,0.1159,-1.106784,-1.09556,-22.2075,-205.275,46.48
1169,1046791,0.198128,-0.8378960999999999,-1.080188,-36.19,-226.2925,80.97251
1170,1046889,0.30622,-0.5787680000000001,-1.087752,-43.4175,-247.2225,102.0075
1171,1046987,0.39161999999999997,-0.378932,-1.077748,-44.5725,-269.0625,109.6025
1172,1047085,0.43432,-0.18422,-0.9999121,-43.9075,-288.645,104.2825
1173,1047183,0.518256,-0.047824,-0.97478,-35.735,-301.2625,89.3725
1174,1047281,0.613416,0.06661201,-0.8937719999999999,-21.5075,-307.265,68.6875
1175,1047379,0.715164,0.06661201,-0.795928,-0.63,-304.9725,46.13
1176,1047478,0.845216,-0.046116000000000004,-0.75884,25.0425,-291.9525,29.6625
1177,1047576,0.894748,-0.11028800000000001,-0.724436,43.19,-273.455,25.0075
1178,1047674,0.969412,-0.12395199999999999,-0.8466800999999999,47.39,-252.3675,27.195
1179,1047772,1.126792,0.013908000000000002,-1.244888,39.83,-235.095,26.635
1180,1047870,1.2397639999999999,0.24570799999999998,-1.474736,36.6975,-236.11,20.23
1181,1047968,1.125572,0.42431599999999997,-1.299056,42.0525,-251.65,7.0875
1182,1048066,1.128744,0.518012,-1.083848,54.7225,-254.065,-14.035
1183,1048164,1.281488,0.503128,-0.9706319999999999,72.38,-240.73,-38.57
1184,1048262,1.4422840000000001,0.286456,-0.793976,91.1925,-225.33,-60.725
1185,1048360,1.693848,-0.056852,-0.7190681,104.895,-205.9575,-72.3275
1186,1048458,2.1045,-0.330376,-0.8378960999999999,106.26,-187.985,-67.6025
1187,1048556,2.44244,-0.403332,-0.8178880999999999,95.865,-184.9925,-46.1825
1188,1048654,2.495388,-0.194956,-0.462624,75.39,-192.1325,-17.4475
1189,1048752,2.488312,0.057828,-0.03416,51.1,-188.5975,4.795
1190,1048850,2.5510200000000003,0.190076,0.25742,26.7925,-171.255,16.975
1191,1048948,2.520276,0.29158,0.55388,7.0175,-152.075,25.9525
1192,1049046,2.285304,0.56608,0.9581881,-9.2925,-133.1575,30.38
1193,1049144,2.104988,0.9964959999999999,1.105808,-12.6875,-95.8825,19.4425
1194,1049242,2.243824,1.1855959999999999,0.745908,12.11,-44.9225,-10.745
1195,1049341,2.240164,0.921344,0.8513161,36.0325,-11.585,-48.1775
1196,1049439,2.357772,0.621468,0.7032079999999999,19.5125,29.575,-80.6925
1197,1049537,2.189412,0.542168,1.048468,-19.985,60.1825,-100.415
1198,1049635,0.508008,0.204716,-0.732244,-44.975,94.64,-114.7825
1199,1049733,0.30036399999999996,-1.051396,-1.685552,8.8725,130.7075,-97.9125
1200,1049831,1.032852,-0.35087199999999996,-0.57462,-42.4375,134.82,-97.6675
1201,1049929,1.726056,0.11248399999999999,-1.22366,-49.14,146.72,-79.7125
1202,1050027,1.353224,0.282064,-2.1945360000000003,-26.6175,139.825,-29.505
1203,1050125,-0.05636401,-0.6851520999999999,-0.571448,-18.6725,75.11,-33.4775
1204,1050223,0.14518,0.06832001,-0.8071520000000001,-27.0025,106.89,-20.93
1205,1050321,1.307596,-0.350628,-1.6801840000000001,-18.3925,129.7275,-12.005
1206,1050419,1.442772,-0.450668,-1.0060120000000001,-71.26,89.93251,-5.95
1207,1050517,0.672708,0.0017079999999999999,-1.15656,-93.345,16.8875,-19.215
1208,1050615,0.8252079999999999,0.025131999999999998,-1.0340719999999999,-79.975,16.24,-19.4075
1209,1050713,0.638304,-0.148352,-1.01626,-42.7175,-0.6125,-15.855
1210,1050811,0.6517241,-0.025376,-0.9852719999999999,-38.605,-5.0925,-10.745
1211,1050910,0.5502199999999999,-0.130052,-0.930372,-15.19,-10.325,-6.055
1212,1051008,0.551928,-0.12712400000000001,-0.8964561,-9.975,-8.5925,-3.5
1213,1051106,0.5453399999999999,-0.133712,-0.8735200000000001,-3.815,-7.98,-2.6075
1214,1051204,0.505568,-0.116876,-0.8827921000000001,-1.995,-7.49,-2.835
1215,1051302,0.49898000000000003,-0.127856,-0.8757159999999999,0.77,-6.1775,-2.8
1216,1051400,0.49166000000000004,-0.13664,-0.8752280000000001,2.2225,-5.81,-2.9575
1217,1051498,0.483608,-0.122244,-0.869128,3.29,-4.97,-2.94
1218,1051596,0.483608,-0.13078399999999998,-0.8605879999999999,4.515,-3.605,-2.8875
1219,1051694,0.486048,-0.137372,-0.8596120999999999,4.9875,-2.7825,-3.185
1220,1051792,0.485804,-0.141764,-0.8527800999999999,5.6525,-2.415,-3.6225
1221,1051890,0.485804,-0.14152,-0.853512,5.32,-2.1525,-4.2525
1222,1051988,0.488976,-0.13908,-0.856684,4.5675,-1.1725,-4.725
1223,1052086,0.490684,-0.124928,-0.8527800999999999,4.06,-0.2975,-5.04
1224,1052184,0.49288000000000004,-0.138836,-0.8471681000000001,4.3575,-0.14,-5.2675
1225,1052282,0.492392,-0.141032,-0.8471681000000001,4.1475,-0.0875,-5.425
1226,1052380,0.495076,-0.136884,-0.850584,3.885,-0.315,-5.7225
1227,1052478,0.49312399999999995,-0.131028,-0.8508280999999999,3.5175,-0.6825,-5.8975
1228,1052576,0.49434399999999995,-0.134932,-0.850096,3.2375,-1.1375,-5.985
1229,1052675,0.504104,-0.12712400000000001,-0.8493641,2.7475,-1.75,-5.95
1230,1052773,0.503128,-0.134444,-0.8488761,2.485,-2.3625,-5.5825
1231,1052871,0.4941,-0.13761600000000002,-0.8481440999999998,2.24,-3.325,-5.6175
1232,1052969,0.49434399999999995,-0.14005599999999999,-0.8471681000000001,1.2075,-4.025,-5.88
1233,1053067,0.499224,-0.13664,-0.8422879999999999,0.6825,-4.83,-6.2475
1234,1053165,0.49044,-0.153476,-0.8471681000000001,0.525,-5.3725,-6.6675
1235,1053263,0.491904,-0.14518,-0.8457040000000001,-0.0175,-6.02,-7.4025
1236,1053361,0.491904,-0.146156,-0.8491200000000001,-0.4025,-6.685,-7.9975
1237,1053459,0.49556400000000006,-0.141032,-0.8420440999999999,-0.6475,-7.035,-8.5225
1238,1053557,0.484828,-0.143716,-0.856684,-1.0675,-6.9475,-8.89
1239,1053655,0.477264,-0.141276,-0.8818159999999999,-1.1025,-6.44,-9.2575
1240,1053753,0.489708,-0.124196,-0.8579041,-0.665,-4.9525,-9.59
1241,1053851,0.490196,-0.146644,-0.8376520000000001,-0.5425,-4.48,-9.6075
1242,1053949,0.480192,-0.135908,-0.8591241,-0.7175,-2.9575,-9.8525
1243,1054047,0.48312,-0.128832,-0.8620521000000001,0.0,-1.54,-10.2375
1244,1054145,0.478728,-0.13176,-0.859856,-0.1575,0.1575,-10.85
1245,1054243,0.481412,-0.132248,-0.8574161,-0.245,2.205,-11.305
1246,1054341,0.48873199999999994,-0.130296,-0.856684,0.1575,4.2,-11.76
1247,1054439,0.489708,-0.129076,-0.8540000000000001,0.3675,5.95,-12.1275
1248,1054538,0.472872,-0.13078399999999998,-0.864492,0.8225,7.5075,-12.0575
1249,1054636,0.47946000000000005,-0.155184,-0.85644,1.2425,10.5525,-12.1625
1250,1054734,0.4743361,-0.140544,-0.8640040000000001,0.9625,16.03,-13.195
1251,1054832,0.4758,-0.15006,-0.8727879999999999,2.1,22.085,-14.0
1252,1054930,0.4758,-0.154696,-0.8781559999999999,2.4325,29.085,-15.1725
1253,1055028,0.47165200000000007,-0.156648,-0.892552,2.765,37.7125,-16.66
1254,1055126,0.465308,-0.1403,-0.9357401,3.2725,48.1425,-17.9025
1255,1055224,0.435296,-0.167872,-0.973316,5.1275,60.445,-18.2525
1256,1055322,0.41504399999999997,-0.211548,-1.0060120000000001,7.9975,78.015,-19.5475
1257,1055420,0.388204,-0.22935999999999998,-1.057984,10.29,102.655,-22.295
1258,1055518,0.39113200000000004,-0.246196,-1.119472,13.09,131.8275,-25.48
1259,1055616,0.47482399999999997,-0.188612,-1.1631479999999998,17.4825,159.355,-29.4175
1260,1055714,0.5343600000000001,-0.180072,-1.16754,40.635,181.825,-34.65
1261,1055812,0.674172,-0.2013,-1.2221959999999998,78.4525,208.18,-46.9
1262,1055910,0.795928,-0.29572800000000005,-1.2702639999999998,94.325,230.9825,-67.795
1263,1056008,0.6351319999999999,-0.18178,-1.20414,76.5625,248.0625,-88.725
1264,1056106,0.6231760999999999,-0.187636,-1.1855959999999999,75.7225,272.1075,-99.5925
1265,1056204,0.6902761,-0.23741199999999998,-1.192428,76.44001,293.685,-105.6825
1266,1056302,1.02114,-0.152256,-1.373232,79.6425,308.9975,-111.405
1267,1056400,1.047248,-0.141032,-1.637484,93.4325,299.425,-113.855
1268,1056498,0.23668000000000003,-0.22448,-2.062532,123.83,250.39,-117.53
1269,1056597,-0.428464,-0.159576,-1.9898200000000001,108.8675,187.0925,-132.8425
1270,1056695,-0.36892800000000003,-0.048556,-2.2326,111.37,120.8025,-146.965
1271,1056793,-0.250832,-0.31402800000000003,-2.2484599999999997,131.95,42.105,-153.3875
1272,1056891,-0.679784,-0.638548,-1.5525719999999998,143.6225,-33.04,-146.335
1273,1056989,-0.48263199999999995,-0.725168,-1.4130040000000001,142.0825,-56.9625,-132.3525
1274,1057087,-0.321592,-0.7500560000000001,-1.368108,139.8775,-77.805,-108.22
1275,1057185,-0.228872,-0.708088,-1.2566,138.32,-103.8975,-80.97251
1276,1057283,-0.1281,-0.640744,-1.190964,135.555,-126.2275,-51.905
1277,1057381,0.000244,-0.48702399999999996,-1.18584,129.0275,-145.0225,-23.9575
1278,1057479,0.09223200000000001,-0.28181999999999996,-1.186572,119.6825,-164.1325,-1.4175
1279,1057577,0.20642399999999997,-0.05002,-1.215852,109.83,-182.1225,13.16
1280,1057675,0.295484,0.160796,-1.1958440000000001,103.3025,-199.675,19.6175
1281,1057773,0.384056,0.330864,-1.168272,100.1,-214.2,18.34
1282,1057871,0.49141599999999996,0.47092,-1.136308,100.38,-222.81,11.865
1283,1057969,0.578036,0.6224441,-1.047736,102.0775,-227.9375,2.6075
1284,1058067,0.6314721,0.827892,-0.9406200000000001,103.39,-227.99,-10.745
1285,1058165,0.781532,0.9906401,-0.9947881,105.9975,-219.2575,-32.48
1286,1058263,0.948184,0.9886881,-1.112396,114.485,-211.82,-59.185
1287,1058361,1.0138200000000002,0.8764481,-1.12362,123.9875,-211.68,-84.84
1288,1058459,1.01748,0.7093081,-1.026508,130.13,-214.515,-106.54
1289,1058557,1.04798,0.6117081,-0.9354959999999999,133.385,-211.7675,-121.5025
1290,1058656,1.06628,0.555588,-0.827892,138.1975,-203.8925,-130.2
1291,1058754,1.0828719999999998,0.510204,-0.756156,144.41,-191.8,-136.2375
1292,1058852,1.15656,0.4594521,-0.8169121,149.31,-176.8375,-142.31
1293,1058950,1.411784,0.45335200000000003,-0.984784,154.8575,-164.4825,-147.9975
1294,1059048,1.483276,0.418704,-0.869616,165.5675,-165.2175,-149.625
1295,1059146,1.524268,0.386252,-0.6993041,175.245,-166.67,-148.7325
1296,1059244,1.5967360000000002,0.36844,-0.499712,179.41,-159.8625,-145.88
1297,1059342,1.7282520000000001,0.329156,-0.36941599999999997,178.64,-148.89,-140.385
1298,1059440,1.838052,0.288164,-0.21032800000000001,171.8675,-136.8675,-132.755
1299,1059538,1.8473240000000002,0.37332,0.025863999999999998,156.695,-126.525,-124.6525
1300,1059636,1.7924240000000002,0.6409881,0.30475599999999997,138.495,-111.0725,-119.805
1301,1059734,1.815604,0.8988959999999999,0.451888,129.3775,-86.18751,-122.5525
1302,1059832,1.821216,0.9979600000000001,0.514352,129.0275,-57.575,-134.1375
1303,1059930,1.766072,0.9852719999999999,0.556076,129.7975,-30.6075,-149.555
1304,1060028,1.71776,0.665876,0.5282600000000001,128.2575,-3.7975,-163.7825
1305,1060126,1.5523280000000002,0.561932,0.380884,99.27750999999999,25.2525,-172.27
1306,1060224,1.431548,0.068076,-0.051972000000000004,64.645,52.3425,-161.7525
1307,1060322,1.519144,-1.18462,-1.58356,-14.1925,47.88,-126.175
1308,1060420,0.10906800000000001,-0.351116,-1.3786,-182.035,-3.22,-88.3575
1309,1060518,0.447984,0.6824680000000001,-1.97396,-214.235,-4.62,-66.08
1310,1060617,1.091656,0.686128,-1.363472,-192.5525,-6.23,-87.4825
1311,1060715,0.90646,-0.12395199999999999,-1.158268,-107.765,-43.96,-83.4575
1312,1060813,0.453108,0.7639640999999999,-1.362252,-107.7125,-28.6825,-49.8225
1313,1060911,0.6117081,-0.106628,-0.9450120000000001,-41.58,-9.835,-24.0975
1314,1061009,0.5429,0.005856,-0.8991401,-32.0425,-12.88,-13.2125
1315,1061107,0.554856,0.20788800000000002,-0.9057280999999999,-25.9525,-9.3275,-7.0175
1316,1061205,0.540704,-0.1403,-0.8420440999999999,-6.2475,-10.9725,-6.86
1317,1061303,0.540704,-0.114192,-0.8657120999999999,-3.3425,-11.8125,-6.1075
1318,1061401,0.519964,-0.10052799999999999,-0.8601,-3.745,-12.53,-6.4225
1319,1061499,0.517768,-0.148352,-0.8552200000000001,-1.4175,-12.74,-5.8975
1320,1061597,0.499224,-0.157868,-0.865468,-1.8025,-12.495,-6.755
1321,1061695,0.48873199999999994,-0.13785999999999998,-0.8679081,-3.1675,-11.62,-8.05
1322,1061793,0.49141599999999996,-0.132492,-0.850584,-3.5875,-10.185,-8.7675
1323,1061891,0.487512,-0.11834000000000001,-0.8569280999999999,-3.5525,-9.17,-8.8025
1324,1061989,0.489464,-0.113704,-0.8554641,-2.8875,-7.98,-8.4525
1325,1062087,0.487756,-0.099552,-0.8569280999999999,-2.275,-6.9125,-7.84
1326,1062185,0.490196,-0.106628,-0.8520479999999999,-0.945,-5.775,-7.2625
1327,1062283,0.48922,-0.110044,-0.8554641,-0.0175,-5.425,-6.79
1328,1062382,0.486292,-0.110044,-0.8571719999999999,0.455,-5.0225,-6.6325
1329,1062480,0.48385200000000006,-0.10614000000000001,-0.8554641,0.8400001,-4.69,-6.44
1330,1062578,0.48678,-0.112972,-0.8513161,1.2775,-4.6025,-6.265
1331,1062676,0.48824399999999996,-0.109556,-0.8576601,1.4875,-4.515,-6.335
1332,1062774,0.49166000000000004,-0.11321600000000001,-0.8552200000000001,2.065,-4.025,-6.23
1333,1062872,0.495076,-0.12078,-0.8532681000000001,2.2925,-3.5525,-6.16
1334,1062970,0.496296,-0.12566,-0.8527800999999999,2.135,-3.78,-6.4575
1335,1063068,0.49556400000000006,-0.130296,-0.8466800999999999,1.5225,-4.235,-6.7025
1336,1063166,0.496296,-0.124928,-0.8481440999999998,1.0675,-4.76,-6.93
1337,1063264,0.494588,-0.112972,-0.8493641,0.665,-5.3725,-7.2275
1338,1063362,0.494832,-0.107848,-0.85034,0.8400001,-5.775,-7.1575
1339,1063460,0.4941,-0.10418800000000002,-0.8544879999999999,1.3825,-5.95,-6.8775
1340,1063558,0.493612,-0.105652,-0.853512,2.1875,-6.0725,-6.545
1341,1063656,0.49288000000000004,-0.108824,-0.853512,2.6425,-6.2125,-6.23
1342,1063754,0.49312399999999995,-0.11102000000000001,-0.8532681000000001,2.8875,-6.3,-5.9325
1343,1063852,0.492148,-0.112972,-0.85156,3.115,-6.2825,-5.915
1344,1063950,0.492392,-0.110776,-0.8491200000000001,3.3075,-6.2125,-5.81
1345,1064049,0.49263599999999996,-0.10760399999999999,-0.850096,3.6225,-6.1775,-5.705
1346,1064147,0.490684,-0.111508,-0.8471681000000001,4.1125,-6.1775,-5.5125
1347,1064245,0.49166000000000004,-0.11712,-0.8483879999999999,4.55,-6.0375,-5.2675
1348,1064343,0.489708,-0.121512,-0.850096,4.7075,-5.775,-5.25
1349,1064441,0.48995200000000005,-0.127856,-0.8513161,4.8475,-5.5825,-5.355
1350,1064539,0.48995200000000005,-0.132492,-0.85156,4.6375,-5.2325,-5.6525
1351,1064637,0.489708,-0.131272,-0.855708,4.1475,-5.04,-6.055
1352,1064735,0.48922,-0.124196,-0.853024,3.7625,-4.9875,-6.405
1353,1064833,0.488,-0.121268,-0.8540000000000001,3.605,-4.655,-6.44
1354,1064931,0.489708,-0.115168,-0.8483879999999999,3.92,-3.9725,-6.1075
1355,1065029,0.48848800000000003,-0.117852,-0.8510719999999999,4.9,-3.01,-5.6875
1356,1065127,0.502884,-0.17934,-0.818376,6.0375,-2.065,-5.67
1357,1065225,0.48214399999999996,-0.12688,-0.84424,5.18,-1.715,-6.3
1358,1065323,0.499712,-0.169336,-0.846924,6.6325,-1.1375,-6.335
1359,1065421,0.484584,-0.118096,-0.8591241,5.3725,-0.21,-7.175
1360,1065519,0.503372,-0.197884,-0.8188641,6.3525,-0.105,-7.385
1361,1065617,0.488,-0.115656,-0.8439959999999999,4.2875,1.155,-8.4875
1362,1065716,0.5119121,-0.167628,-0.818376,6.195,1.855,-8.9075
1363,1065814,0.49044,-0.156404,-0.8308200000000001,4.165,2.835,-9.87
1364,1065912,0.487512,-0.137128,-0.850096,5.425,4.6025,-10.605
1365,1066010,0.477264,-0.106628,-0.8703481,6.44,6.9125,-11.3925
1366,1066108,0.46433199999999997,-0.11345999999999999,-0.887184,8.295,10.815,-11.83
1367,1066206,0.43724799999999997,0.025131999999999998,-0.9286639999999999,12.7575,16.8175,-13.86
1368,1066304,0.4023561,-0.262544,-0.9564799999999999,30.555,24.535,-23.485
1369,1066402,0.384788,-0.127856,-1.031144,44.695,38.325,-38.2725
1370,1066500,0.398696,-0.25351599999999996,-1.0138200000000002,58.975,58.24,-54.4775
1371,1066598,0.395036,-0.223992,-1.030168,78.295,76.4225,-71.645
1372,1066696,0.4026,-0.248148,-1.040416,102.48,94.3425,-85.90751
1373,1066794,0.438468,-0.290116,-1.0147959999999998,127.12,114.59,-93.8
1374,1066892,0.48702399999999996,-0.284748,-0.9833200000000001,152.2675,132.72,-94.09751
1375,1066990,0.527284,-0.191296,-1.00528,177.275,149.0475,-89.46
1376,1067088,0.562908,-0.160552,-1.0553,205.38,162.9775,-86.3625
1377,1067186,0.6348881,-0.221308,-1.0499319999999999,227.57,172.1125,-86.59
1378,1067284,0.665632,-0.194712,-1.013332,228.5675,177.765,-87.67501
1379,1067382,0.8581479999999999,-0.321592,-1.067744,217.2275,184.8525,-91.2975
1380,1067481,0.8554641,-0.124928,-1.10776,181.8425,191.24,-97.86
1381,1067579,1.0169920000000001,0.055388,-1.29564,183.2775,198.24,-94.74501
1382,1067677,0.94916,0.14005599999999999,-1.2014559999999999,229.7925,188.2125,-85.5925
1383,1067775,0.785924,0.033428,-1.2214639999999999,282.7825,172.7425,-85.54
1384,1067873,0.42748800000000003,0.020008,-1.28588,304.185,149.7125,-99.9075
1385,1067971,0.055144000000000006,0.570472,-1.553792,264.53,103.2675,-138.32
1386,1068069,0.05246,0.954528,-1.7097080000000002,230.1425,48.0025,-197.1025
1387,1068167,0.15396400000000002,0.9711200999999999,-1.665056,221.97,-10.8325,-254.73
1388,1068265,0.258884,0.298412,-1.482788,243.2675,-59.71,-294.315
1389,1068363,0.0976,-0.309392,-1.0643280000000002,254.2575,-97.895,-300.895
1390,1068461,0.15201199999999998,-0.794708,-0.9335440999999999,242.445,-113.365,-280.2625
1391,1068559,0.260104,-1.087752,-1.02236,218.1375,-119.0875,-238.385
1392,1068657,0.273036,-1.229272,-1.0797,185.9725,-131.4775,-179.515
1393,1068755,0.22033200000000003,-1.092388,-1.0711600000000001,149.38,-146.2475,-113.2775
1394,1068853,0.205448,-0.8020281,-1.082384,117.1975,-156.7475,-53.5325
1395,1068951,0.190564,-0.47677600000000003,-1.096536,96.075,-165.6375,-6.6675
1396,1069049,0.22082,-0.143228,-1.158756,85.34751,-172.55,25.305
1397,1069147,0.284504,0.1342,-1.246108,78.62751,-181.3875,41.2825
1398,1069245,0.339892,0.442616,-1.291736,69.3875,-195.37,42.525
1399,1069343,0.375272,0.6563601,-1.259772,61.53,-211.5225,30.38
1400,1069442,0.429196,0.8754719999999999,-1.171932,56.875,-224.175,8.75
1401,1069540,0.47336000000000006,1.036024,-1.07482,59.5875,-230.965,-17.675
1402,1069638,0.510204,1.1155680000000001,-0.952332,65.135,-232.015,-50.68
1403,1069736,0.595116,1.075552,-0.8740081000000001,76.475,-225.575,-85.55751
1404,1069834,0.780312,0.9154880999999999,-0.9391560999999999,93.2925,-212.975,-115.08
1405,1069932,1.006744,0.6919841,-1.090436,109.7775,-203.07,-134.6625
1406,1070030,1.067256,0.444812,-1.0614,117.775,-205.1875,-142.8
1407,1070128,0.956968,0.294996,-0.9093880999999999,110.6,-209.1775,-145.1975
1408,1070226,0.959408,0.24351199999999998,-0.8420440999999999,100.835,-202.405,-143.9375
1409,1070324,1.031388,0.22204000000000002,-0.8527800999999999,100.6425,-189.1575,-139.2475
1410,1070422,1.1533879999999999,0.19397999999999999,-0.8754719999999999,111.5975,-177.3275,-131.985
1411,1070520,1.285148,0.20861999999999997,-0.9057280999999999,122.395,-170.87,-126.105
1412,1070618,1.390312,0.296704,-0.9057280999999999,127.1375,-171.2025,-126.0175
1413,1070716,1.454728,0.41406800000000005,-0.81374,129.5525,-175.4375,-131.3375
1414,1070814,1.458876,0.45506,-0.60512,135.1175,-178.36,-139.825
1415,1070912,1.48108,0.353556,-0.39967199999999997,138.25,-173.8625,-148.5575
1416,1071010,1.569896,0.144448,-0.276696,133.6125,-162.4175,-152.075
1417,1071108,1.6082040000000002,-0.100284,-0.114436,118.9825,-151.2525,-145.0575
1418,1071206,1.5828280000000001,-0.26303200000000004,0.082472,93.695,-138.005,-126.7
1419,1071305,1.635044,-0.366,0.1586,65.415,-116.3925,-100.8175
1420,1071403,1.65188,-0.476288,0.26108000000000003,41.7725,-92.575,-70.6475
1421,1071501,1.5786799999999999,-0.47384799999999994,0.7449321,18.8825,-67.025,-39.9525
1422,1071599,1.790472,-0.47506800000000005,0.7046720999999999,-20.1075,-21.175,-17.5875
1423,1071697,2.0815639999999997,-0.36892800000000003,0.6724640000000001,-23.8875,27.44,6.3
1424,1071795,1.984696,-0.181536,0.7600600000000001,-47.25,57.75,19.25
1425,1071893,1.319552,0.20642399999999997,0.08369201,-80.0275,88.44501,22.2425
1426,1071991,1.094096,-0.379664,-1.683356,-78.295,87.95501,28.2975
1427,1072089,-0.1098,-0.091988,-1.0499319999999999,-98.35,50.1725,27.7375
1428,1072187,0.380152,0.930616,-1.101416,-133.945,69.0725,-8.5225
1429,1072285,0.7190681,2.1823360000000003,-1.762168,-102.5325,77.7875,-28.525
1430,1072383,0.26108000000000003,0.504104,-1.166564,-13.6325,64.5575,-30.835
1431,1072481,1.4844959999999998,-1.642852,-1.286124,36.3125,66.5,-32.1825
1432,1072579,0.8796200000000001,-0.013908000000000002,-0.904508,-58.73,37.7475,-5.6
1433,1072677,0.471896,-0.014152000000000001,-0.9381801,-47.3025,17.6925,-11.97
1434,1072775,0.6600201,-0.28011199999999997,-0.9252481,-36.1725,10.36,-12.88
1435,1072874,0.593896,-0.116876,-0.906948,-36.82,8.855,-11.8125
1436,1072972,0.60024,-0.138836,-0.9323239999999999,-30.8525,0.315,-11.585
1437,1073070,0.5368,-0.17934,-0.873276,-24.605,-3.1675,-10.36
1438,1073168,0.503372,-0.144204,-0.8893800999999999,-21.805,-5.4775,-9.9925
1439,1073266,0.532408,-0.135664,-0.898652,-18.5675,-6.58,-9.59
1440,1073364,0.499712,-0.138836,-0.883768,-14.2625,-7.98,-9.0475
1441,1073462,0.5158159999999999,-0.08344800000000001,-0.8959681,-10.9725,-8.155,-8.12
1442,1073560,0.49776000000000004,-0.09882,-0.883036,-4.8475,-7.805,-6.1775
1443,1073658,0.49727200000000005,-0.127856,-0.868396,0.525,-7.07,-4.2875
1444,1073756,0.5009319999999999,-0.136884,-0.8679081,3.9025,-6.0025,-3.4825
1445,1073854,0.4933681,-0.134932,-0.8703481,6.615,-4.83,-2.8
1446,1073952,0.506788,-0.154452,-0.85888,8.925,-3.4475,-2.6075
1447,1074050,0.5016641,-0.15372,-0.8508280999999999,10.8675,-1.9425,-2.94
1448,1074148,0.49702799999999997,-0.158112,-0.844484,12.11,-0.805,-3.1675
1449,1074246,0.49995600000000007,-0.159332,-0.8405800999999999,12.215,-0.245,-3.43
1450,1074344,0.49702799999999997,-0.17934,-0.8352120000000001,12.3725,0.35,-3.71
1451,1074442,0.500444,-0.183976,-0.826672,11.1125,0.6825,-4.235
1452,1074541,0.49873599999999996,-0.19032000000000002,-0.82594,9.7125,0.4375,-5.0575
1453,1074639,0.48556000000000005,-0.17934,-0.8740081000000001,7.6125,0.245,-6.09
1454,1074737,0.50874,-0.20642399999999997,-0.8327720999999999,6.9825,0.455,-7.035
1455,1074835,0.510692,-0.1769,-0.8049561,5.1975,-0.5775,-7.7525
1456,1074933,0.49312399999999995,-0.158356,-0.8256960999999999,4.6375,-0.105,-8.0675
1457,1075031,0.499224,-0.159088,-0.8337481,4.62,-0.4025,-7.9975
1458,1075129,0.500444,-0.167384,-0.8327720999999999,4.06,-0.14,-7.7875
1459,1075227,0.50142,-0.16226,-0.8342360000000001,3.36,0.0875,-7.525
1460,1075325,0.501908,-0.172752,-0.837408,2.8525,0.3325,-7.385
1461,1075423,0.5023960999999999,-0.167872,-0.833992,2.45,0.8225,-7.3325
1462,1075521,0.49873599999999996,-0.167384,-0.8398479999999999,1.89,1.6275,-7.3675
1463,1075619,0.493612,-0.168848,-0.8369200000000001,2.065,2.695,-7.0525
1464,1075717,0.493856,-0.154696,-0.8430200999999999,2.4675,4.2875,-6.8075
1465,1075815,0.49654,-0.142496,-0.8486319999999999,3.185,6.2475,-6.2125
1466,1075913,0.500444,-0.151524,-0.849852,4.97,8.26,-5.075
1467,1076011,0.5063,-0.147376,-0.8466800999999999,6.44,10.7275,-3.92
1468,1076109,0.499712,-0.150304,-0.85156,7.77,13.4925,-2.8875
1469,1076208,0.5009319999999999,-0.164456,-0.847412,9.1525,16.5375,-1.785
1470,1076306,0.505324,-0.18544000000000002,-0.8483879999999999,10.605,19.845,-1.19
1471,1076404,0.5011760000000001,-0.197152,-0.8508280999999999,11.305,23.485,-1.505
1472,1076502,0.459696,-0.235704,-0.8762040000000001,10.57,27.2825,-2.52
1473,1076600,0.50508,-0.2501,-0.8569280999999999,8.5575,34.1775,-5.2325
1474,1076698,0.526552,-0.227408,-0.8471681000000001,5.9325,38.85,-9.5375
1475,1076796,0.531188,-0.178852,-0.8425321,5.3725,43.085,-11.9525
1476,1076894,0.529724,-0.168604,-0.849852,7.35,47.74,-12.5825
1477,1076992,0.53314,-0.162992,-0.8579041,10.22,53.7425,-11.935
1478,1077090,0.5321640000000001,-0.157136,-0.8664440000000001,14.2275,61.18,-10.955
1479,1077188,0.529724,-0.150304,-0.8849879999999999,19.04,70.0,-8.9775
1480,1077286,0.5380199999999999,-0.139812,-0.885964,25.5325,80.78,-6.265
1481,1077384,0.537776,-0.125416,-0.9030440000000001,33.5475,91.595,-2.3275
1482,1077482,0.5314321,-0.133712,-0.945744,42.91,104.3175,3.045
1483,1077580,0.5084960000000001,-0.16128399999999998,-1.02236,52.64,122.0625,8.75
1484,1077678,0.493612,-0.213256,-1.050908,63.2625,144.8475,13.9475
1485,1077777,0.567788,-0.190808,-1.065792,67.34000999999999,167.895,13.65
1486,1077875,0.692472,-0.158112,-1.2139,68.845,190.3475,10.395
1487,1077973,0.79422,-0.23692399999999997,-1.2038959999999999,86.32751,223.79,9.3275
1488,1078071,0.7427361,-0.337208,-1.209752,94.23751,269.5175,3.43
1489,1078169,0.7622561,-0.465552,-1.1712,94.67501,310.275,-6.9125
1490,1078267,0.8100801,-0.277428,-1.24684,77.9275,347.8825,-26.9325
1491,1078365,1.1131280000000001,0.243024,-1.760948,74.935,376.39,-38.605
1492,1078463,1.0492,-0.024156,-1.517436,129.7275,383.95,-20.755
1493,1078561,1.108004,-0.262544,-1.8292680000000001,141.54,371.665,-7.91
1494,1078659,1.335412,-0.284016,-1.86294,149.3625,364.665,3.92
1495,1078757,0.38186,0.8574161,-3.6978199999999997,106.1025,304.5525,-63.56
1496,1078855,0.758352,1.3773799999999998,-4.099932,103.0575,140.7875,-139.7725
1497,1078953,-0.468236,0.513864,-2.738168,141.1025,-2.5375,-206.6225
1498,1079051,-0.728096,-0.11712,-1.7263,148.0325,-78.7675,-249.515
1499,1079149,-0.331596,-0.7195560000000001,-1.758752,163.31,-73.3775,-259.0175
1500,1079247,-0.03904,-1.232688,-1.8470799999999998,151.0775,-92.3125,-234.0275
1501,1079345,-0.048068,-1.579656,-1.626992,120.1375,-140.0175,-188.335
1502,1079444,-0.07832401,-1.62382,-1.378844,68.3725,-180.6525,-130.8125
1503,1079542,0.010004,-1.416664,-1.3005200000000001,16.3625,-205.0825,-70.56
1504,1079640,0.15274400000000002,-1.1065399999999999,-1.311744,-18.2525,-224.98,-16.03
1505,1079738,0.22935999999999998,-0.773724,-1.277828,-35.9275,-248.4825,27.4225
1506,1079836,0.259128,-0.44944799999999996,-1.218536,-42.77,-272.7375,54.95
1507,1079934,0.322324,-0.168604,-1.1834,-42.8575,-293.405,63.455
1508,1080032,0.46457600000000004,0.047092,-1.1953559999999999,-39.165,-309.9775,53.97
1509,1080130,0.5873079999999999,0.15738,-1.109224,-29.7325,-326.305,33.845
1510,1080228,0.6283,0.142008,-0.8796200000000001,-14.2625,-337.3825,12.285
1511,1080326,0.661728,0.053924,-0.647332,3.815,-331.8175,-3.22
1512,1080424,0.789828,-0.127368,-0.5726680000000001,21.315,-306.88,-6.65
1513,1080522,0.9354959999999999,-0.29743600000000003,-0.6539201,27.7375,-273.2975,3.5525
1514,1080620,0.999668,-0.31232,-0.9028,15.82,-246.1725,21.7175
1515,1080718,1.161196,-0.167872,-1.304424,2.1525,-227.3775,38.5875
1516,1080816,1.2439120000000001,-0.016836,-1.455948,-1.1725,-227.0625,48.3525
1517,1080915,1.220244,0.022448,-1.279536,0.8225,-238.735,48.7375
1518,1081013,1.3359,0.04392,-1.14314,3.57,-238.945,40.3025
1519,1081111,1.384944,-0.024156,-0.9884440000000001,10.64,-233.135,28.945
1520,1081209,1.486692,-0.30866,-0.807396,25.2,-224.0875,22.8025
1521,1081307,1.643584,-0.619516,-0.7032079999999999,34.0025,-208.39,25.5675
1522,1081405,1.8065759999999997,-0.917684,-0.6258600000000001,30.135,-192.325,37.135
1523,1081503,2.077416,-1.039928,-0.719312,16.1175,-176.82,56.665
1524,1081601,2.297748,-0.871568,-0.696864,2.555,-170.45,82.7925
1525,1081699,2.419016,-0.471408,-0.5058121,-7.805,-174.86,105.665
1526,1081797,2.49246,-0.07417601,-0.21106,-10.01,-181.3875,109.865
1527,1081895,2.50832,0.26961999999999997,0.170068,-6.65,-183.68,93.3625
1528,1081993,2.489776,0.322324,0.7068681,7.945,-175.21,66.46500999999999
1529,1082091,2.458544,0.23448400000000003,1.277584,21.385,-147.63,42.875
1530,1082189,2.514664,0.067832,1.6150360000000001,31.71,-95.865,27.5625
1531,1082287,2.620804,-0.086132,1.504748,43.2775,-33.1975,21.07
1532,1082385,2.584204,-0.214232,1.1716879999999998,63.1225,19.8275,21.14
1533,1082483,2.2262560000000002,-0.302804,0.8908440999999999,78.155,51.3625,21.3325
1534,1082581,2.021052,-1.2056040000000001,1.40788,67.1125,86.45,26.1625
1535,1082679,1.0626200000000001,-0.08466801,-0.609268,-43.8375,154.3675,48.6675
1536,1082778,-0.20252,-0.193004,-1.5189,-74.13,160.58,65.9575
1537,1082876,0.6290319999999999,0.9774639999999999,-1.02358,-94.97251,190.8725,41.8425
1538,1082974,0.9520881,1.8282919999999998,-1.38104,-102.8125,200.27,-5.81
1539,1083072,1.736792,1.93858,-2.0051919999999996,-85.48751,166.2675,-64.12
1540,1083170,1.21146,-0.907192,-1.301984,21.665,132.23,-70.1925
1541,1083268,0.202764,-0.5463161,-1.107516,-22.4525,105.56,-46.06
1542,1083366,0.060267999999999995,0.781044,-0.9520881,-49.1225,117.7925,-34.5975
1543,1083464,1.6662759999999999,-0.459696,-2.027884,4.9,142.975,-31.8675
1544,1083562,1.6806720000000002,-1.190964,-0.9386681,-27.8425,94.64,-2.03
1545,1083660,0.540948,0.099552,-1.10776,-97.21251,15.0325,-17.7975
1546,1083758,0.8759601,-0.11736400000000001,-1.08946,-75.11,14.665,-17.64
1547,1083856,0.6453800000000001,-0.24351199999999998,-0.978684,-37.45,-0.6825,-12.355
1548,1083954,0.65514,-0.14713199999999999,-0.985516,-40.705,-5.4775,-9.7825
1549,1084052,0.5353359999999999,-0.112972,-0.9325680000000001,-23.4325,-9.6425,-7.5775
1550,1084150,0.549244,-0.10321199999999998,-0.907192,-15.2075,-8.82,-5.005
1551,1084248,0.534604,-0.118584,-0.9054840000000001,-5.67,-6.86,-2.695
1552,1084346,0.479216,-0.110044,-0.9103641,-1.61,-6.0025,-1.7675
1553,1084445,0.49995600000000007,-0.18324400000000002,-0.8818159999999999,1.8375,-3.2725,-1.5225
1554,1084543,0.494832,-0.166652,-0.877912,1.68,-3.3075,-3.01
1555,1084641,0.49654,-0.161528,-0.862784,0.3675,-2.87,-4.9
1556,1084739,0.489708,-0.13639600000000002,-0.8596120999999999,-0.8925,-3.535,-6.6675
1557,1084837,0.48678,-0.11614400000000001,-0.869616,-1.155,-2.52,-7.525
1558,1084935,0.47994799999999993,-0.101748,-0.8625401,-0.105,-1.54,-7.875
1559,1085033,0.48263199999999995,-0.109556,-0.854244,0.98,-0.175,-7.7
1560,1085131,0.484828,-0.138104,-0.846924,1.8375,0.77,-7.35
1561,1085229,0.48263199999999995,-0.141276,-0.8525360000000001,2.24,1.575,-7.21
1562,1085327,0.486048,-0.14347200000000002,-0.850096,2.87,2.0825,-7.4725
1563,1085425,0.485072,-0.14713199999999999,-0.8510719999999999,2.1875,2.695,-8.26
1564,1085523,0.488976,-0.13542,-0.85156,1.26,3.22,-8.89
1565,1085621,0.488976,-0.141276,-0.8527800999999999,1.2075,3.5875,-9.4675
1566,1085719,0.490196,-0.133224,-0.853024,0.7175,4.095,-10.4475
1567,1085817,0.490684,-0.125172,-0.849608,0.175,4.3575,-11.13
1568,1085915,0.49117200000000005,-0.12444000000000001,-0.8520479999999999,-0.0525,4.515,-11.585
1569,1086014,0.489464,-0.117852,-0.853512,-0.315,4.7075,-11.7425
1570,1086112,0.492148,-0.11541199999999999,-0.8552200000000001,0.4025,5.46,-11.6025
1571,1086210,0.49141599999999996,-0.11955999999999999,-0.8549761,1.1025,6.125,-11.41
1572,1086308,0.486048,-0.124196,-0.8601,1.8025,7.21,-10.8325
1573,1086406,0.46335600000000005,-0.129564,-0.8813280000000001,2.5025,8.855,-10.0275
1574,1086504,0.483364,-0.142252,-0.869616,3.0975,13.195,-10.325
1575,1086602,0.48312,-0.13542,-0.8652241,2.87,17.605,-11.41
1576,1086700,0.490196,-0.136152,-0.8657120999999999,3.955,22.715,-11.97
1577,1086798,0.492148,-0.133712,-0.868152,4.7775,27.5975,-12.39
1578,1086896,0.4933681,-0.132492,-0.8703481,5.6,32.935,-12.67
1579,1086994,0.502152,-0.13761600000000002,-0.883036,6.545,38.6575,-12.9325
1580,1087092,0.499712,-0.13054000000000002,-0.8857200999999999,7.245,43.47,-13.265
1581,1087190,0.5070319999999999,-0.1159,-0.879376,8.54,49.7525,-13.3
1582,1087288,0.515572,-0.09150001,-0.8718120999999999,11.095,57.855,-12.1975
1583,1087386,0.5131319999999999,-0.091744,-0.8723001,14.0525,66.0975,-9.6775
1584,1087485,0.515084,-0.12078,-0.8935280999999999,17.9375,76.3875,-6.755
1585,1087583,0.5038600000000001,-0.148596,-0.9267120000000001,21.455,88.9525,-5.25
1586,1087681,0.485072,-0.16714,-0.957456,25.9,105.07,-4.9875
1587,1087779,0.49532,-0.16909200000000002,-1.0323639999999998,30.7825,123.7075,-4.935
1588,1087877,0.487756,-0.21813600000000002,-1.059692,36.7675,146.2125,-3.605
1589,1087975,0.559248,-0.250832,-1.0979999999999999,42.4375,171.4475,-3.08
1590,1088073,0.681492,-0.12395199999999999,-1.19682,42.2975,192.8325,-6.0025
1591,1088171,0.73932,-0.132248,-1.274656,41.58,217.2625,-15.2425
1592,1088269,0.6466,-0.31402800000000003,-1.2580639999999998,36.47,253.5575,-27.4225
1593,1088367,0.6463561,-0.369904,-1.271728,26.3025,294.805,-46.1125
1594,1088465,0.6505041,-0.359168,-1.228784,23.5025,338.6775,-65.17
1595,1088563,0.755424,-0.24936799999999998,-1.2275639999999999,9.555,378.7875,-82.4075
1596,1088661,1.013088,0.225456,-1.7348400000000002,-5.215,414.575,-89.145
1597,1088759,1.19194,-0.02196,-1.491572,17.2725,432.005,-66.36
1598,1088858,1.379332,-0.384788,-1.3534680000000001,38.255,434.9975,-47.565
1599,1088956,1.5403719999999999,-0.349896,-2.061312,28.525,437.6575,-60.9875
1600,1089054,0.680516,0.18178,-3.3996519999999997,14.175,369.1625,-80.4825
1601,1089152,0.653188,0.7019880000000001,-4.201436,42.1225,191.3275,-97.7725
1602,1089250,-0.41846000000000005,-0.349164,-3.200304,110.4425,-5.355,-122.115
1603,1089348,-1.0138200000000002,-0.7722600000000001,-1.8531799999999998,93.1175,-127.4,-144.06
1604,1089446,-0.518012,-1.117032,-1.6806720000000002,87.2025,-131.8275,-144.165
1605,1089544,-0.142252,-1.414712,-1.754116,75.1275,-138.285,-112.77
1606,1089642,-0.013908000000000002,-1.56892,-1.609912,63.735,-174.0725,-62.2125
1607,1089740,0.036356,-1.4396,-1.38104,34.615,-213.9725,-8.9075
1608,1089838,0.12078,-1.170468,-1.21268,5.0925,-243.0575,38.2025
1609,1089936,0.216428,-0.8174001000000001,-1.1155680000000001,-16.87,-263.865,74.6725
1610,1090035,0.302316,-0.47092,-1.083604,-27.895,-280.91,97.8775
1611,1090133,0.401624,-0.178852,-1.075552,-25.865,-295.7325,107.45
1612,1090231,0.476288,-0.014884,-1.0121120000000001,-16.5025,-310.4325,103.845
1613,1090329,0.465796,0.120048,-0.8949921000000001,-11.025,-322.0175,88.9175
1614,1090427,0.46848,0.20691199999999998,-0.811056,-3.0975,-323.785,67.8825
1615,1090525,0.496784,0.25522399999999995,-0.733708,11.725,-315.07,46.0425
1616,1090623,0.5941401,0.239852,-0.706136,33.005,-297.6575,28.735
1617,1090721,0.7812880999999999,0.09589201,-0.8510719999999999,56.28,-270.9875,19.985
1618,1090819,1.017968,-0.101748,-1.070184,67.165,-250.0575,20.79
1619,1090917,1.1899879999999998,-0.225212,-1.335412,56.2275,-241.6925,26.425
1620,1091015,1.167296,-0.09589201,-1.423984,31.115,-248.29,31.3425
1621,1091113,1.111908,0.06929600000000001,-1.3468799999999999,17.4825,-256.2525,33.6875
1622,1091211,1.175348,0.16128399999999998,-1.364692,23.835,-253.225,30.59
1623,1091309,1.266116,0.11345999999999999,-1.372012,38.15,-247.625,22.7325
1624,1091408,1.383724,-0.02196,-1.282952,51.59,-242.76,14.525
1625,1091506,1.458388,-0.274256,-0.9982040000000001,58.66,-237.1425,10.15
1626,1091604,1.585512,-0.657824,-0.6856399999999999,58.31,-223.2475,15.435
1627,1091702,1.914912,-0.823256,-0.650748,45.1325,-195.8425,36.4525
1628,1091800,2.4949,-0.682712,-0.9049959999999999,26.04,-171.71,67.795
1629,1091898,2.9707,-0.393328,-0.9023121,4.5675,-177.625,94.0625
1630,1091996,3.107096,-0.044896,-0.22252800000000003,-20.09,-211.7325,103.145
1631,1092094,3.0087639999999998,0.434564,0.72712,-35.4375,-234.0275,90.405
1632,1092192,2.83406,0.856684,1.501088,-20.4225,-211.085,69.6325
1633,1092290,2.709376,0.9867360999999999,1.8109680000000001,15.26,-147.8225,42.1575
1634,1092388,2.745,0.9254921,1.604056,26.215,-75.28501,5.915
1635,1092486,2.673996,1.04798,1.342976,17.3425,-16.975,-30.415
1636,1092584,2.647888,0.343552,1.1873040000000001,11.9175,37.7825,-53.3575
1637,1092682,2.606896,-0.128832,1.398364,3.0625,98.96251,-61.5475
1638,1092780,0.34404,-0.5777920999999999,-0.8579041,-33.3025,141.995,-69.0025
1639,1092879,0.652456,-0.668316,-1.931504,-21.9275,186.6375,-58.5725
1640,1092977,1.25904,-0.11321600000000001,-0.6944241,-45.4125,176.925,-42.735
1641,1093075,1.0323639999999998,0.538752,-1.358104,-28.4025,170.8,-26.5125
1642,1093173,1.3973879999999999,0.8315520000000001,-1.6204040000000002,-47.3025,157.6225,-42.35
1643,1093271,1.114104,-0.398452,-1.392996,-2.5725,129.5525,-40.0925
1644,1093369,0.417728,-0.26303200000000004,-1.1636360000000001,-13.685,107.3275,-24.43
1645,1093467,-0.000244,0.398696,-0.9150001,-22.1375,106.365,-19.425
1646,1093565,0.174704,0.384544,-0.8283799999999999,11.27,125.93,-22.4175
