,T,ax,ay,az,gx,gy,gz
0,10329402,0.9375700000000001,-0.040626,-0.063318,20.5275,-19.6,-17.78
1,10329543,0.96624,-0.07612801,-0.11895,-78.365,23.03,-25.2
2,10329640,1.011868,-0.08893801,-0.127856,-57.9075,-74.1475,-122.8325
3,10329736,0.979294,-0.07893401,-0.14310599999999998,26.0575,-104.335,-51.6425
4,10329833,0.9453780999999999,-0.06941801,-0.156282,1.575,-9.3275,-4.4625
5,10329930,0.9600181000000001,-0.052703999999999994,-0.155306,0.8575,-6.055,-1.995
6,10330026,0.96441,-0.07442,-0.165554,1.3125,-5.6875,-3.2025
7,10330123,0.9683141,-0.082228,-0.15433,3.395,-5.9675,-4.2175
8,10330220,0.980514,-0.081252,-0.155184,3.9375,-5.95,-3.955
9,10330317,0.9941780000000001,-0.07246799999999999,-0.160674,2.5375,-6.02,-3.1325
10,10330413,1.003572,-0.07234600000000001,-0.146156,1.9775,-6.8425,-2.905
11,10330510,0.984174,-0.037454,-0.266692,-1.3125,-6.055,-2.66
12,10330607,0.9683141,-0.037942000000000004,-0.19556600000000002,0.21,-10.815,-4.025
13,10330704,0.972218,-0.041602,-0.195078,3.64,-15.33,-5.565
14,10330800,0.985516,-0.050142,-0.19276,5.53,-17.9375,-6.6325
15,10330897,0.995886,-0.062098,-0.188978,5.705,-21.665,-6.23
16,10330994,0.993812,-0.069906,-0.177266,5.215,-25.4975,-4.8825
17,10331091,0.9946659999999999,-0.08369201,-0.152622,4.83,-26.2325,-3.465
18,10331187,0.987102,-0.08503401,-0.12248800000000001,2.135,-22.435,-0.7875
19,10331284,0.980758,-0.06539201,-0.196298,-0.2975,-14.5425,0.315
20,10331381,0.9867360999999999,-0.07893401,-0.153232,0.455,-14.1575,-0.9275
21,10331477,0.9790501,-0.068686,-0.17397200000000002,-2.5375,-12.5825,-1.4525
22,10331574,0.9817341,-0.070882,-0.18470799999999998,-2.3625,-9.45,-1.61
23,10331671,0.9741700000000001,-0.066856,-0.194712,-2.765,-7.875,-1.6275
24,10331768,0.9718521000000001,-0.060877999999999995,-0.19739600000000002,-2.45,-7.6825,-1.9075
25,10331864,0.974292,-0.060634,-0.19947,-1.085,-7.455,-1.925
26,10331961,0.9734381,-0.054778,-0.202032,-0.5075,-8.1025,-2.1175
27,10332058,0.9753901,-0.047458,-0.20630199999999999,0.1925,-8.7325,-2.31
28,10332155,0.9768540000000001,-0.044652,-0.20923000000000003,1.295,-9.555,-2.6425
29,10332251,0.9749021000000001,-0.038186000000000005,-0.211304,3.3425,-10.22,-3.185
30,10332348,0.9718521000000001,-0.049288,-0.205326,4.5325,-11.725,-3.745
31,10332445,0.971974,-0.052216,-0.191296,3.71,-11.9525,-3.4825
32,10332542,0.9686799999999999,-0.06039,-0.198494,2.0125,-10.64,-3.115
33,10332638,0.9709979999999999,-0.057218,-0.166774,1.3125,-12.0925,-3.29
34,10332735,0.9703879999999999,-0.06563601,-0.186782,1.1025,-10.0625,-3.3425
35,10332832,0.9669721,-0.068686,-0.18971,0.2975,-8.505,-3.0625
36,10332929,0.9777081,-0.07246799999999999,-0.189466,-0.1225,-8.4175,-2.9925
37,10333025,0.978806,-0.07332201,-0.19093,-0.595,-7.945,-2.9225
38,10333122,0.978684,-0.061854,-0.193858,-1.1725,-7.4725,-2.66
39,10333219,0.978074,-0.059902,-0.192638,-1.1375,-7.105,-2.5375
40,10333315,0.978196,-0.05843801,-0.194712,-1.1025,-6.5975,-2.4675
41,10333412,0.9734381,-0.052216,-0.195932,-0.9975,-6.58,-2.4675
42,10333509,0.9641661,-0.05246,-0.196664,-0.77,-6.1425,-2.7125
43,10333606,0.9650200999999999,-0.05648601,-0.196786,-0.5075,-5.5825,-2.765
44,10333702,0.9633120999999999,-0.060512,-0.193492,-0.5775,-5.32,-2.8
45,10333799,0.9651421,-0.060512,-0.19556600000000002,-0.945,-4.7425,-2.555
46,10333896,0.9702661,-0.062464,-0.19337000000000001,-0.6125,-4.83,-2.7125
47,10333993,0.9563581,-0.061854,-0.19959200000000002,-0.6475,-4.1125,-2.9575
48,10334089,0.9642879999999999,-0.06636801,-0.174704,-0.8925,-4.095,-3.36
49,10334186,0.9596520000000001,-0.06892999999999999,-0.17848599999999998,-1.505,-2.7475,-3.6225
50,10334283,0.9519661,-0.060512,-0.174948,-2.8875,-3.78,-4.27
51,10334379,0.953308,-0.053436000000000004,-0.176534,-3.4125,-2.8875,-4.2175
52,10334476,0.957944,-0.049166,-0.185074,-3.9025,-0.7875,-3.9725
53,10334573,0.9480620000000001,-0.0366,-0.182268,-4.06,-0.1575,-4.3225
54,10334670,0.9633120999999999,-0.014274,-0.1891,-4.0075,1.7675,-4.8475
55,10334766,0.968924,-0.052826,-0.179706,-3.6225,3.64,-4.6375
56,10334863,0.968192,-0.046360000000000005,-0.183,-3.7275,3.605,-4.06
57,10334960,0.9856379999999999,-0.0549,-0.179706,-4.13,5.25,-3.5525
58,10335057,0.9989360999999999,-0.038064,-0.17433800000000002,-4.095,6.3175,-3.64
59,10335153,0.9921040999999999,-0.049288,-0.163846,-3.1675,7.0,-4.0775
60,10335250,0.974292,-0.051484,-0.162626,-3.4475,5.8625,-4.3925
61,10335347,0.9858819999999999,-0.04819,-0.144082,-3.08,6.125,-4.0075
62,10335443,0.981124,-0.039162,-0.149816,-3.7625,8.82,-3.64
63,10335540,0.990762,-0.044896,-0.141276,-3.0275,8.61,-4.725
64,10335637,0.9913719999999999,-0.061,-0.136884,-2.94,8.12,-4.6025
65,10335734,0.9886881,-0.038796,-0.13847,-4.305,7.28,-4.41
66,10335830,0.9734381,-0.067344,-0.12712400000000001,-4.865,6.4225,-4.7425
67,10335927,0.9850280999999999,-0.052948,-0.144326,-8.6625,4.6375,-5.3025
68,10336024,0.998814,-0.074542,-0.133712,-9.625,5.11,-6.0025
69,10336121,0.996862,-0.052826,-0.126026,-7.245,6.5275,-6.44
70,10336217,0.9725841000000001,-0.042822000000000006,-0.13298,-5.74,7.105,-5.6175
71,10336314,0.9951540000000001,-0.103822,-0.13785999999999998,-7.8925,4.1825,-6.7725
72,10336411,1.059814,-0.08576601,-0.152134,-11.1125,-2.485,-7.5075
73,10336508,1.051762,-0.042334,-0.146766,-11.165,-0.5075,-6.685
74,10336604,0.9900300999999999,-0.024644,-0.168848,-10.01,-0.28,-6.1425
75,10336701,0.9437921,-0.025376,-0.15274400000000002,-8.435,-0.8225,-4.3925
76,10336798,0.952332,-0.049898000000000005,-0.160918,-8.1375,0.9975,-2.0125
77,10336894,0.9581881,-0.01525,-0.165188,-8.6625,-0.0875,-2.485
78,10336991,0.9688021000000001,-0.034282,-0.171654,-7.4725,-0.35,-2.8
79,10337088,0.9590420000000001,-0.006954000000000001,-0.15762400000000001,-8.295,-7.175,-3.64
80,10337185,1.008208,-0.07551801,-0.14871800000000002,-9.695,-6.3525,-4.095
81,10337281,1.054934,-0.050874,-0.139934,-12.3375,-2.31,-3.885
82,10337378,1.022726,-0.050996,-0.138104,-11.445,-4.55,-7.2625
83,10337475,1.030412,-0.024156,-0.117486,-13.825,-8.505,-10.605
84,10337572,0.9964959999999999,-0.004026,-0.128588,-12.11,-2.8,-8.3125
85,10337668,0.9465981,0.033428,-0.156282,-10.3775,-4.6375,-8.19
86,10337765,0.918294,0.019642,-0.112728,-5.5125,-7.0525,-6.8075
87,10337862,1.056764,-0.027816000000000004,-0.10931199999999999,-6.09,-5.9325,-9.4325
88,10337959,1.026386,-0.063074,-0.12163399999999999,-6.44,-4.3575,-10.885
89,10338055,0.9562360999999999,-0.052216,-0.123708,-7.2975,-4.865,-10.325
90,10338152,0.912926,-0.02623,-0.112728,-6.4925,-2.2575,-10.01
91,10338249,0.9091440000000001,0.019886,-0.10187,-1.61,0.455,-10.9375
92,10338345,0.9703879999999999,0.023302,-0.108458,1.3475,-2.065,-11.9175
93,10338442,1.0126,0.003172,-0.09186601,5.53,-1.8725,-11.095
94,10338539,1.107394,-0.0366,-0.084912,7.1575,-3.745,-9.87
95,10338636,1.141432,0.021228,-0.093574,5.74,-3.885,-6.5275
96,10338732,1.12057,-0.03599,-0.106628,4.305,2.24,-2.17
97,10338829,0.9790501,-0.036478,-0.139812,4.1125,15.785,-3.01
98,10338926,1.009428,-0.062952,-0.09930800000000001,8.47,24.5875,-4.4975
99,10339023,0.9791719999999999,-0.038064,-0.170068,-0.665,26.425,-6.4925
100,10339119,0.9456220999999999,0.022203999999999998,-0.175924,14.4025,38.395,-9.1
101,10339216,0.8308200000000001,-0.08503401,-0.10760399999999999,21.4725,67.2,-8.855
102,10339313,1.022848,-0.12175599999999999,-0.028669999999999998,9.485,82.4075,-14.665
103,10339409,0.903532,-0.11846199999999998,-0.11504600000000001,-9.38,49.77,-15.4525
104,10339506,0.727486,-0.062586,-0.14945,-10.01,74.2175,-2.2225
105,10339603,0.7567659999999999,0.061610000000000005,-0.001098,-13.3525,114.8525,0.5425
106,10339700,0.8510719999999999,0.022326,0.10723800000000001,-23.24,77.8575,-9.205
107,10339796,0.9526979999999999,0.055510000000000004,-0.05160601,-18.6375,10.9725,-18.55
108,10339893,0.9060940000000001,0.028792,-0.064538,-13.5975,10.36,-17.6225
109,10339990,1.032608,0.01281,0.021716,-10.605,25.4625,-17.64
110,10340087,1.2313459999999998,0.052216,0.15006,-2.0125,10.465,-11.2175
111,10340183,1.275144,0.009150001,0.185928,7.9625,-38.5875,-0.9275
112,10340280,1.457778,-0.018544,0.071248,5.95,-97.3875,5.18
113,10340377,1.420568,-0.030987999999999998,-0.019154,5.285,-180.1625,15.2775
114,10340474,1.032974,-0.028304000000000003,-0.323666,-12.1975,-271.6525,27.44
115,10340570,0.66063,-0.07564,0.013908000000000002,-25.515,-180.635,17.5
116,10340667,0.715164,-0.109556,-0.255102,-0.5425,3.4825,19.6175
117,10340764,1.109346,-0.029524,-0.121268,5.3025,10.99,16.66
118,10340860,1.049566,-0.033672,-0.146522,0.595,-16.905,4.935
119,10340957,0.9337880999999999,-0.005856,-0.11541199999999999,4.9175,-7.49,6.7025
120,10341054,1.12057,0.002806,-0.160308,1.82,-10.0975,1.4875
121,10341151,1.2505,-0.011101999999999999,-0.120902,4.41,-13.51,3.5525
122,10341247,1.065304,-0.11895,-0.038796,3.29,-5.9325,8.82
123,10341344,0.9757561,-0.22716399999999998,-0.12248800000000001,-4.025,-11.1475,4.1475
124,10341441,0.833626,-0.08674201,-0.09942999999999999,-6.93,-10.5,1.3125
125,10341538,0.731268,0.135298,-0.234972,-3.36,5.7225,-5.8975
126,10341634,0.7638421,0.026474,-0.199104,6.755,6.405,-8.75
127,10341731,0.8521700999999999,-0.058316,-0.151036,6.51,2.345,-10.3075
128,10341828,0.9801479999999999,-0.11626600000000001,-0.115534,6.0725,3.43,-7.98
129,10341924,1.082506,-0.16652999999999998,-0.08601,1.4875,10.01,-3.255
130,10342021,1.045662,-0.17214200000000002,-0.107116,-4.165,8.61,-1.4175
131,10342118,1.05469,-0.09150001,-0.07307801,-5.0925,-2.1,-4.5325
132,10342215,1.0821399999999999,-0.045018,-0.11712,-9.555,0.9625,-6.7725
133,10342311,1.0565200000000001,-0.00366,-0.13725,-8.085,2.835,-7.735
134,10342408,1.022848,0.017202000000000002,-0.153232,-7.2275,0.49,-6.9475
135,10342505,0.9833200000000001,0.015006,-0.14335,-4.5675,-0.8225,-5.985
136,10342602,0.966728,0.011590000000000001,-0.17128800000000002,-4.1825,-1.96,-5.495
137,10342698,0.9762440999999998,0.012444,-0.17446,-6.8075,-4.1825,-5.2325
138,10342795,0.945866,0.015982,-0.13456600000000002,-10.29,-6.6675,-6.23
139,10342892,0.9234180000000001,-0.011590000000000001,-0.13237000000000002,-16.6775,-8.4,-8.995
140,10342988,0.9375700000000001,-0.009028000999999999,-0.11943800000000002,-24.3075,-10.3075,-10.6575
141,10343085,0.9886881,-0.00549,-0.107116,-29.68,-11.4625,-9.345
142,10343182,1.053592,-0.002196,-0.091744,-32.3225,-13.8075,-6.5625
143,10343279,1.100562,0.005246,-0.07002799999999999,-33.67,-14.28,-3.71
144,10343375,1.113494,0.015616,-0.068442,-32.515,-13.44,1.1025
145,10343472,1.109102,0.042212,-0.046726,-30.45,-17.29,5.005
146,10343569,1.084092,0.07856801,-0.040382,-25.06,-18.725,6.9825
147,10343665,1.093242,0.09186601,-0.029889999999999996,-19.6525,-20.9825,6.4925
148,10343762,1.0889719999999998,0.1037,-0.014396,-16.835,-23.4675,3.6575
149,10343859,1.1125180000000001,0.11394800000000001,-0.050263999999999996,-13.93,-21.42,0.805
150,10343956,1.1204479999999999,0.14347200000000002,-0.07893401,-11.55,-18.935,-1.575
151,10344052,1.0912899999999999,0.146522,-0.068076,-8.4875,-19.88,-2.3625
152,10344149,1.06994,0.130174,-0.037332,-5.635,-17.745,-3.745
153,10344246,1.032242,0.07259,-0.03843,-3.255,-14.315,-4.8125
154,10344343,0.9653860000000001,0.04575,-0.01647,-0.105,-11.48,-4.6725
155,10344439,0.8985301,0.046360000000000005,-0.050142,-0.1575,-6.65,-5.11
156,10344536,0.8836459999999999,0.104066,-0.062098,1.6625,-7.7875,-8.295
157,10344633,0.8912100000000001,0.100772,-0.05587601,0.2625,-3.7275,-11.445
158,10344730,0.8818159999999999,0.102114,-0.05124001,1.9425,-1.4525,-9.3625
159,10344826,0.863028,0.10833599999999999,-0.03965,3.99,-2.2575,-3.885
160,10344923,0.8359440999999999,0.139812,-0.058926,5.355,-0.9975,1.0325
161,10345020,0.834968,0.15274400000000002,-0.066734,9.7475,-2.03,4.6375
162,10345117,0.8704700000000001,0.14347200000000002,-0.085522,14.84,-1.82,7.4025
163,10345213,0.8976761000000001,0.11126400000000002,-0.06832001,21.6825,-1.0675,8.715
164,10345310,0.8960899999999999,0.07076001,-0.052703999999999994,28.9275,0.245,10.1325
165,10345407,0.8904780000000001,0.05795,-0.04697001,34.615,3.9725,11.445
166,10345503,0.916098,0.04514,-0.08857201,39.0775,6.3175,11.27
167,10345600,0.966118,0.028669999999999998,-0.14188599999999998,43.26,6.545,9.765
168,10345697,1.070916,-0.023058000000000002,-0.19556600000000002,44.6425,7.5075,6.3525
169,10345794,1.2104840000000001,-0.10809200000000001,-0.215086,41.685,6.23,-0.1225
170,10345890,1.291614,-0.08723001,-0.22045399999999998,37.9575,2.5725,-7.455
171,10345987,1.2500120000000001,-0.05368,-0.224358,32.725,-2.4675,-13.9125
172,10346084,1.095804,-0.03965,-0.21716,27.9125,-10.675,-15.3475
173,10346181,0.916342,-0.03599,-0.20923000000000003,25.8825,-15.6275,-12.4775
174,10346277,0.784582,-0.04453,-0.19215,26.285,-14.4025,-10.395
175,10346374,0.649406,-0.061732,-0.152866,26.2325,-14.6825,-7.735
176,10346471,0.626958,-0.09040201,-0.09625801,26.845,-11.725,-1.5925
177,10346568,0.743468,-0.101992,-0.054655999999999996,23.1175,-8.225,1.4175
178,10346664,0.999302,-0.105774,-0.064538,24.1325,-4.655,0.0875
179,10346761,1.255258,-0.110654,-0.03965,29.3825,-2.94,-2.6425
180,10346858,1.360056,-0.11834000000000001,0.038918,36.225,-6.9825,-5.775
181,10346954,1.242692,-0.098088,0.019764,38.745,-2.9575,-5.6175
182,10347051,1.059692,-0.146156,0.042456,45.7275,-8.8025,-0.9975
183,10347148,1.030656,-0.21057199999999998,0.035258,42.7175,-21.315,-0.21
184,10347245,1.103734,-0.117486,0.04331,47.39,-13.9825,2.1175
185,10347341,1.191574,-0.0183,0.026351999999999997,42.945,-0.6825,7.4725
186,10347438,1.2402520000000001,0.00427,0.102846,40.145,-2.9225,15.995
187,10347535,1.107516,-0.009882,0.017812,36.715,-11.1125,20.1425
188,10347632,0.9836860999999999,-0.08454600000000001,0.066246,42.5425,-26.2325,14.6475
189,10347728,0.898042,-0.08344800000000001,0.034648000000000005,37.275,-33.88,9.5725
190,10347825,0.8438741,-0.12322000000000001,0.032451999999999995,37.065,-33.25,7.6825
191,10347922,0.8605879999999999,-0.165432,0.02623,35.4725,-27.5625,10.5175
192,10348018,0.9171961,-0.21533000000000002,0.035136,29.645,-26.145,11.76
193,10348115,0.9439139999999999,-0.201666,0.031964,28.2275,-20.37,11.6725
194,10348212,0.969046,-0.185074,0.02806,25.8475,-14.315,11.9
195,10348309,0.9979600000000001,-0.134688,0.040138,25.69,-13.2125,9.625
196,10348405,0.981612,-0.132736,0.032695999999999996,24.0625,-13.405,5.8625
197,10348502,0.9272,-0.14688800000000002,0.040138,22.9775,-14.9275,1.9775
198,10348599,0.8914540000000001,-0.151158,0.033062,20.4925,-18.3575,-0.91
199,10348696,0.8672979999999999,-0.189344,0.012444,17.43,-19.1975,-2.52
200,10348792,0.856196,-0.21520799999999998,-0.0008540001,13.6675,-20.7025,-3.045
201,10348889,0.862174,-0.23802199999999998,0.000244,8.225,-23.24,-2.6425
202,10348986,0.8812059999999999,-0.24936799999999998,0.002074,1.3125,-25.2525,-2.4675
203,10349082,0.9091440000000001,-0.259738,-0.005368,-6.6675,-26.565,-2.135
204,10349179,0.938058,-0.26718000000000003,-0.015982,-13.265,-28.07,-0.9625
205,10349276,0.955992,-0.252784,-0.013786000000000001,-19.0575,-30.0125,0.875
206,10349373,0.9648979999999999,-0.242902,-0.008784,-24.29,-30.9225,2.8875
207,10349469,0.966728,-0.22862800000000003,-0.004026,-29.225,-32.06,5.145
208,10349566,0.9739261,-0.189344,0.0427,-34.125,-33.67,7.2275
209,10349663,0.9851501,-0.166408,0.036722000000000005,-39.8475,-33.8275,9.17
210,10349760,0.9883221,-0.12212200000000001,0.045018,-43.5575,-34.545,10.78
211,10349856,0.9961300999999999,-0.10833599999999999,0.06588,-43.9425,-37.415,11.2
212,10349953,1.0025959999999998,-0.056729999999999996,0.051118000000000004,-43.2075,-37.835,11.34
213,10350050,1.0016200000000002,-0.061,0.056608000000000006,-40.8625,-39.1475,12.3025
214,10350146,1.0168700000000002,-0.06575800000000001,0.035013999999999997,-39.27,-43.4525,14.9625
215,10350243,1.02541,-0.010248,0.025498,-39.2,-47.3375,17.08
216,10350340,1.000034,-0.033794,0.05172801,-34.7375,-50.295,19.04
217,10350437,0.9851501,-0.072956,0.066856,-33.32,-53.27,19.985
218,10350533,0.96319,-0.10065,0.07625,-28.2275,-56.105,19.2325
219,10350630,0.93696,-0.119926,0.121878,-18.2,-56.175,16.45
220,10350727,0.921832,-0.15823399999999999,0.047458,-15.82,-58.8,15.4875
221,10350823,0.951844,-0.164456,-0.009028000999999999,-12.9325,-58.0825,16.2225
222,10350920,1.045662,-0.121024,-0.19251600000000002,-10.465,-50.1375,17.1325
223,10351017,1.248426,-0.10126,-0.482266,-16.31,-43.365,20.02
224,10351114,1.328702,-0.05941401,-0.335256,1.435,-42.7875,24.0625
225,10351210,1.229882,0.010736,-0.299754,10.4475,-43.1375,18.8825
226,10351307,1.1486299999999998,-0.018422,-0.33684200000000003,2.0475,-38.6575,12.46
227,10351404,1.1831559999999999,-0.109922,-0.309148,2.275,-18.0075,9.8
228,10351500,1.3096700000000001,-0.131394,-0.29426399999999997,5.1625,4.3925,9.8
229,10351597,1.41337,-0.100162,-0.326716,7.8225,11.3925,12.145
230,10351694,1.437892,-0.025131999999999998,-0.44371400000000005,12.425,5.3025,13.895
231,10351791,1.336754,0.076494,-0.517402,13.965,-4.6725,12.67
232,10351887,1.1776659999999999,0.069784,-0.45298599999999994,20.8425,-6.2125,6.93
233,10351984,1.053104,-0.052216,-0.410774,23.9925,0.77,0.0525
234,10352081,0.9724620999999999,-0.161406,-0.390888,24.71,6.3875,-2.8875
235,10352177,0.9024341,-0.23485,-0.43358800000000003,22.9425,7.28,-2.87
236,10352274,0.8827921000000001,-0.265716,-0.45566999999999996,22.89,5.9675,0.1575
237,10352371,0.9206120000000001,-0.265228,-0.471042,25.13,10.0625,4.2175
238,10352468,0.9738041,-0.254858,-0.441396,27.72,15.1375,7.245
239,10352564,1.0309,-0.249002,-0.42297399999999996,28.175,18.1825,7.49
240,10352661,1.059326,-0.24436599999999997,-0.415166,25.235,21.07,5.775
241,10352758,1.0967799999999999,-0.222162,-0.401014,20.475,22.3475,2.6075
242,10352855,1.117398,-0.19093,-0.35026199999999996,14.77,24.5525,-1.4
243,10352951,1.105076,-0.185318,-0.34831,8.925,27.5625,-7.2275
244,10353048,1.11447,-0.171898,-0.342088,1.8025,28.77,-13.055
245,10353145,1.119106,-0.165432,-0.26095799999999997,-3.0625,32.83,-17.9025
246,10353242,1.074332,-0.175314,-0.239242,-10.7975,44.135,-21.4725
247,10353338,1.03639,-0.184342,-0.203496,-19.1275,33.075,-22.2075
248,10353435,0.9978379999999999,-0.198006,-0.136884,-21.3675,21.8575,-24.8675
249,10353532,0.9117061,-0.196298,-0.15091400000000002,-26.4075,28.525,-26.53
250,10353629,0.8448501,-0.220698,-0.10504200000000001,-26.6875,27.3175,-27.7025
251,10353725,0.8308200000000001,-0.23460599999999998,-0.097966,-28.1575,24.605,-31.0625
252,10353822,0.785924,-0.187392,-0.059658,-29.925,25.3575,-32.0425
253,10353919,0.726388,-0.16165,-0.07710399999999999,-30.415,19.6175,-32.235
254,10354016,0.71065,-0.129442,-0.047580000000000004,-29.015,16.3625,-31.185
255,10354112,0.68137,-0.08759601,-0.038796,-31.745,15.9075,-31.0975
256,10354209,0.702354,-0.043676,-0.055510000000000004,-31.4475,19.0575,-31.78
257,10354306,0.6836880999999999,0.01098,-0.05624199999999999,-30.7125,18.2525,-30.485
258,10354402,0.663192,0.020862000000000002,-0.05770599999999999,-28.6825,12.355,-30.7825
259,10354499,0.618784,0.039772,-0.07246799999999999,-23.45,8.645,-30.6425
260,10354596,0.593286,0.056852,-0.052826,-19.845,8.47,-31.08
261,10354693,0.5859661,0.040382,-0.058803999999999995,-16.5725,6.6325,-32.41
262,10354789,0.584136,0.047092,-0.046482,-12.075,5.775,-32.6725
263,10354886,0.5696180000000001,0.025742,-0.00793,-10.4475,8.61,-30.9225
264,10354983,0.57218,0.024644,0.002562,-11.1475,11.7775,-29.3125
265,10355080,0.5666899999999999,0.007564001,0.000244,-10.3775,14.665,-27.6325
266,10355176,0.588284,-0.020984,0.034648000000000005,-11.025,16.5025,-23.8175
267,10355273,0.600484,-0.022448,0.079422,-11.7075,20.2125,-20.0725
268,10355370,0.6368401,-0.012688,0.06954,-10.185,29.295,-16.7825
269,10355467,0.6954,0.020984,0.049044,-7.7,31.6925,-13.3
270,10355563,0.7731140000000001,0.06588,0.039406000000000004,-4.2875,30.1,-8.785
271,10355660,0.868152,0.11102000000000001,0.015493999999999999,0.77,23.625,-4.9875
272,10355757,0.9525761,0.139934,-0.033306,5.8625,13.37,-1.5925
273,10355854,0.988078,0.14396,-0.032451999999999995,6.3175,3.9725,0.9625
274,10355950,0.975878,0.09845401,-0.022448,6.8425,-0.0175,2.5025
275,10356047,0.9967401,0.051972000000000004,-0.01281,9.38,-1.9425,3.815
276,10356144,1.064938,0.116876,-0.07112601,7.175,-1.8725,3.08
277,10356240,1.247206,0.13847,-0.007442,5.0225,2.135,-3.3075
278,10356337,1.399462,-0.014518000000000001,0.066124,-1.6975,5.0575,-11.5325
279,10356434,1.4374040000000001,-0.17446,0.066856,-6.4575,5.635,-17.6575
280,10356531,1.365912,-0.1891,0.101138,-5.9325,3.7975,-18.6025
281,10356627,1.326384,-0.00488,-0.015372,-8.505,3.15,-18.97
282,10356724,1.446676,0.17751,-0.12749000000000002,-10.71,3.15,-19.0575
283,10356821,1.665544,0.24497600000000003,-0.135908,-12.355,7.56,-23.555
284,10356918,1.76046,0.212524,-0.169336,-13.3,17.535,-30.66
285,10357014,1.735816,0.10638399999999999,-0.380152,-11.165,12.2675,-32.41
286,10357111,1.655418,-0.055388,-0.48922,-13.1775,-4.025,-31.36
287,10357208,1.504016,-0.239486,-0.4697,-18.6725,-7.2975,-27.195
288,10357305,1.2245139999999999,-0.31171,-0.393816,-17.6925,-3.8325,-19.25
289,10357401,0.980514,-0.191418,-0.318664,-5.845,-6.3,-8.785
290,10357498,0.9472079999999999,0.0034159999999999998,-0.393938,8.5925,-8.3475,-3.2375
291,10357595,1.034804,0.0366,-0.48739,16.5725,-5.075,-6.65
292,10357692,1.228418,0.046848,-0.562664,17.605,-1.4175,-11.9175
293,10357788,1.319552,0.06929600000000001,-0.459086,10.7975,2.8175,-17.9025
294,10357885,1.3651799999999998,0.005002,-0.403942,6.0025,2.9225,-15.1725
295,10357982,1.364814,-0.038064,-0.38186,9.45,-7.315,-14.9275
296,10358079,1.2968600000000001,-0.063074,-0.33061999999999997,14.5425,-17.605,-13.8775
297,10358175,1.27734,-0.07515201,-0.277672,15.6275,-16.1525,-9.31
298,10358272,1.2688,-0.035136,-0.24644000000000002,18.025,-9.835,-5.0225
299,10358369,1.2313459999999998,0.016347999999999998,-0.201422,21.9275,-10.535,-2.59
300,10358466,1.165222,0.002196,-0.166164,25.9875,-12.8275,-1.505
301,10358562,1.088362,-0.031964,-0.1403,28.1925,-11.235,-0.77
302,10358659,0.9985700999999999,-0.03416,-0.11407,30.1875,-8.8725,0.07
303,10358756,0.8965780000000001,-0.045262000000000004,-0.08344800000000001,31.0975,-8.2775,1.33
304,10358852,0.8117880000000001,-0.037454,-0.06819800000000001,29.785,-9.03,3.395
305,10358949,0.7427361,-0.030744,-0.050508,28.9625,-10.4475,5.3375
306,10359046,0.6893,-0.034038,-0.035746,28.7175,-12.775,8.0325
307,10359143,0.637206,-0.019642,-0.020496,27.8775,-14.035,10.57
308,10359240,0.607194,-0.06283,-0.008418,27.3525,-14.5425,13.86
309,10359336,0.5754739999999999,-0.08784,-0.019032,22.68,-14.3675,19.5125
310,10359433,0.562298,-0.09211,-0.02196,18.725,-14.735,22.9425
311,10359530,0.555466,-0.094672,-0.026108,17.2375,-15.1375,26.495
312,10359626,0.557296,-0.129076,-0.04404201,14.21,-15.7325,28.7875
313,10359723,0.556442,-0.15762400000000001,-0.050508,8.3475,-17.71,30.065
314,10359820,0.557296,-0.198982,-0.039528,1.015,-18.375,30.2225
315,10359917,0.5663239999999999,-0.216916,-0.033794,-8.3125,-16.8875,30.5025
316,10360013,0.5888939999999999,-0.25315,-0.024644,-16.59,-17.1675,28.1225
317,10360110,0.624274,-0.264496,0.002074,-24.535,-19.8975,23.9575
318,10360207,0.638792,-0.23582600000000004,0.025254,-28.5775,-21.56,19.5475
319,10360304,0.646844,-0.202154,0.029646,-35.91,-22.89,14.6825
320,10360400,0.635742,-0.19251600000000002,0.046116000000000004,-45.36,-23.905,11.34
321,10360497,0.62342,-0.187392,0.003904,-53.6725,-24.0625,9.275
322,10360594,0.639402,-0.17934,-0.080154,-56.2625,-24.0275,7.3325
323,10360691,0.670024,-0.18605,0.026962,-51.5375,-20.8075,8.8025
324,10360787,0.6994260999999999,-0.233752,0.122976,-40.1625,-6.7375,14.7525
325,10360884,0.7540819999999999,-0.23973000000000003,0.103822,-34.1775,5.3725,20.7025
326,10360981,0.8311860999999999,-0.173362,-0.061366,-25.2,3.885,24.955
327,10361078,0.916586,-0.054778,-0.112728,-12.915,-9.4675,28.1575
328,10361174,1.045784,0.17921800000000002,-0.076616,1.575,-16.1175,29.4
329,10361271,1.1224,0.459208,-0.04148,7.98,-12.6175,25.0425
330,10361368,0.943426,0.458476,0.049898000000000005,7.1925,-9.695,8.6625
331,10361465,0.646722,0.063074,0.165798,1.155,-11.3925,-13.125
332,10361561,0.644648,-0.170068,0.07442,-13.0725,-1.6625,-29.89
333,10361658,0.9683141,-0.45762200000000003,-0.610488,-41.195,23.5725,-28.9625
334,10361755,1.730692,-0.38003000000000003,-0.32879,-13.2825,36.75,-6.8075
335,10361852,2.173918,-0.144082,-0.47506800000000005,3.7275,36.05,18.27
336,10361948,2.0642400000000003,0.22167399999999998,-0.74603,-3.43,13.1075,21.8925
337,10362045,1.754604,0.41370200000000007,-0.8977980999999999,20.1425,-24.325,28.98
338,10362142,1.44692,0.39967199999999997,-0.8575379999999999,39.585,-25.48,45.4125
339,10362239,1.061034,0.328058,-0.57584,65.73,-7.9625,46.7075
340,10362335,0.764452,0.067588,-0.37417399999999995,61.705,4.0775,27.125
341,10362432,0.71675,-0.305,-0.260226,55.3175,14.49,16.8875
342,10362529,1.127768,-0.43212399999999995,-0.356484,43.26,28.6825,21.875
343,10362626,1.514142,-0.46433199999999997,-0.357216,37.5025,35.63,23.38
344,10362722,1.7033639999999999,-0.47031000000000006,-0.42321800000000004,28.7175,31.22,18.27
345,10362819,1.6592,-0.424926,-0.373808,21.0175,17.9725,12.355
346,10362916,1.5309780000000002,-0.30012,-0.312198,9.1875,13.2475,1.8025
347,10363012,1.4685139999999999,-0.271328,-0.242414,1.4175,21.1925,-5.775
348,10363109,1.474736,-0.37088000000000004,-0.21313400000000002,-7.735,31.115,-10.9725
349,10363206,1.462658,-0.42700000000000005,-0.132736,-14.5425,32.585,-15.4175
350,10363303,1.3290680000000001,-0.396378,-0.07551801,-23.1875,28.1225,-16.87
351,10363399,1.170834,-0.249856,-0.042089999999999995,-33.2675,18.4275,-17.36
352,10363496,1.055666,-0.08893801,-0.025254,-39.4275,14.0875,-19.0575
353,10363593,0.9817341,0.039284,-0.02623,-40.635,16.5375,-20.7725
354,10363690,0.886818,0.087352,-0.016592,-35.77,14.1575,-23.73
355,10363786,0.83021,0.07808001,-0.035258,-30.275,9.1875,-28.105
356,10363883,0.7687221,0.07344400000000001,-0.057096,-23.485,0.805,-34.5625
357,10363980,0.6980841,0.047580000000000004,-0.03477,-14.875,-6.7725,-41.51
358,10364077,0.621346,0.014274,-0.07076001,-10.3775,-12.7575,-43.33
359,10364173,0.600362,0.020252000000000003,-0.06929600000000001,-2.765,-18.2175,-45.4475
360,10364270,0.5620541,0.004514,-0.108824,1.33,-19.145,-45.78
361,10364367,0.5206960999999999,0.006954000000000001,-0.097234,7.4025,-17.2375,-46.06
362,10364464,0.47641000000000006,0.01586,-0.07832401,13.055,-17.3425,-45.745
363,10364560,0.45591400000000004,0.038308,-0.07527400000000001,14.1575,-13.1775,-44.6075
364,10364657,0.432856,0.062952,-0.08430201,18.0775,-4.445,-42.3325
365,10364754,0.41711800000000004,0.090768,-0.02562,22.9075,-6.8425,-38.045
366,10364851,0.39100999999999997,0.10248,-0.0305,26.74,-8.2775,-32.5675
367,10364947,0.396622,0.077714,-0.026108,28.9275,-7.8575,-26.18
368,10365044,0.398208,0.041846,-0.01098,29.75,-7.4375,-18.725
369,10365141,0.39955,0.02196,0.006344,30.835,-7.385,-11.7775
370,10365238,0.409188,0.027572000000000003,0.049288,30.1875,-7.8925,-7.5775
371,10365334,0.43066000000000004,0.045872,0.052948,31.955,-4.2175,-6.0375
372,10365431,0.490928,0.11163,0.01281,33.1275,-3.1325,-2.905
373,10365528,0.589626,0.139568,-0.025498,32.585,-6.58,0.14
374,10365625,0.6673399999999999,0.159088,-0.064172,33.425,-7.98,2.9225
375,10365721,0.805688,0.175924,-0.064538,31.2725,-6.2825,5.635
376,10365818,0.9775860000000001,0.20410599999999998,-0.07808001,28.1225,-5.18,4.5675
377,10365915,1.2404959999999998,0.117486,-0.050263999999999996,20.3525,-8.155,0.735
378,10366012,1.56282,-0.17616800000000002,-0.018056,8.61,-17.2375,-7.8925
379,10366108,1.7916919999999998,-0.5233800000000001,0.105652,-2.8175,-17.5525,-19.4075
380,10366205,1.62321,-0.649406,0.17616800000000002,-17.08,-9.3625,-30.5025
381,10366302,1.227076,-0.544974,0.19642,-30.975,-10.5525,-23.66
382,10366399,1.06323,-0.274622,0.31171,-31.57,-14.735,-10.57
383,10366495,1.0681100000000001,-0.0008540001,0.11236199999999999,-24.2375,-5.3025,-0.8575
384,10366592,1.3740860000000001,0.17019,-0.39613400000000004,-13.51,0.315,4.935
385,10366689,2.089128,0.08881599,-0.159576,-19.355,4.9175,-9.0475
386,10366785,2.075952,0.089304,-0.00976,-33.32,33.8975,-34.79
387,10366882,1.5370780000000002,0.108702,-0.513376,-34.0025,14.805,-19.6175
388,10366979,1.580876,-0.100284,-0.534726,-35.4725,-25.9175,-7.91
389,10367076,1.506456,-0.272426,-0.6265921,-45.1675,0.28,-12.6525
390,10367172,1.2444,-0.290604,-0.6405,-48.2825,4.0425,-4.9175
391,10367269,1.114592,-0.363194,-0.5070319999999999,-42.7875,-10.8675,-0.91
392,10367366,0.9858819999999999,-0.165676,-0.42333999999999994,-33.425,-1.3125,-1.015
393,10367463,0.928176,0.143228,-0.38003000000000003,-24.7975,-0.875,-6.685
394,10367559,0.993812,0.222162,-0.34831,-17.2725,-4.5325,-11.445
395,10367656,1.125206,0.211914,-0.36234,-11.655,-3.255,-12.11
396,10367753,1.296006,0.17568,-0.406382,-8.4875,1.2075,-11.1475
397,10367850,1.455948,0.20923000000000003,-0.43346599999999996,-10.325,3.92,-10.3425
398,10367946,1.474248,0.21362199999999998,-0.34111199999999997,-15.3125,3.85,-10.1675
399,10368043,1.3621299999999998,0.05770599999999999,-0.32513000000000003,-13.6325,-0.5075,-4.83
400,10368140,1.2428139999999999,-0.08906,-0.27328,-6.125,-10.1675,-1.89
401,10368237,1.119594,-0.11407,-0.23387399999999997,-0.1225,-13.965,-1.8025
402,10368333,1.06628,-0.10321199999999998,-0.203862,5.18,-12.9675,0.6475
403,10368430,1.0407819999999999,-0.07625,-0.15701400000000001,8.785,-10.325,3.745
404,10368527,0.9939341,-0.039772,-0.122732,11.445,-8.5925,8.2425
405,10368623,0.916342,-0.062098,-0.081252,14.98,-9.065,11.41
406,10368720,0.8270379999999999,-0.104798,-0.05648601,17.045,-10.885,14.175
407,10368817,0.733464,-0.10516400000000001,-0.042334,15.6975,-12.0575,17.815
408,10368914,0.650748,-0.08662001,-0.028669999999999998,14.0,-13.265,20.8425
409,10369010,0.588406,-0.07551801,-0.022082,13.0375,-12.7225,22.435
410,10369107,0.558516,-0.061488,-0.029889999999999996,10.9725,-12.3725,23.0125
411,10369204,0.5693739999999999,-0.082838,-0.016714,11.585,-10.08,24.57
412,10369301,0.590236,-0.09162200000000001,-0.019154,8.5225,-7.56,22.6975
413,10369397,0.5827939999999999,-0.09162200000000001,-0.017446,7.8925,-7.4025,20.4575
414,10369494,0.55998,-0.11467999999999999,-0.029036000000000003,6.475,-8.365,17.0275
415,10369591,0.5489999999999999,-0.109678,-0.012565999999999999,2.9575,-9.31,13.4925
416,10369688,0.528382,-0.12029200000000001,0.002074,-2.065,-8.995,11.795
417,10369784,0.523014,-0.10675,-0.00122,-9.24,-7.35,8.995
418,10369881,0.51423,-0.10760399999999999,0.015982,-14.9975,-7.1575,5.9675
419,10369978,0.522648,-0.13908,0.030378,-20.4925,-6.6325,2.6425
420,10370075,0.541924,-0.146034,0.066124,-24.7975,-6.37,-1.435
421,10370171,0.5635180000000001,-0.142252,0.06636801,-29.015,-6.8075,-5.6875
422,10370268,0.6150021,-0.139568,0.068564,-30.8175,-7.7,-8.4525
423,10370365,0.6764899999999999,-0.160796,0.05624199999999999,-31.2725,-5.2325,-8.505
424,10370462,0.757498,-0.196664,0.03965,-33.0225,0.42,-4.4275
425,10370558,0.8105680000000001,-0.21045,0.082838,-29.365,4.655,2.5725
426,10370655,0.818742,-0.225334,0.097966,-25.76,5.04,10.22
427,10370752,0.859978,-0.19483399999999998,-0.067344,-23.975,1.5925,14.7875
428,10370849,0.9126820999999999,-0.043554,-0.10797000000000001,-13.055,-5.1975,15.7325
429,10370945,0.9708760000000001,0.140666,-0.09211,3.885,-10.1675,16.345
430,10371042,1.088118,0.25437,-0.135176,14.1575,-8.925,15.4175
431,10371139,1.197064,0.325984,-0.01891,23.8,-12.46,13.4575
432,10371236,1.20658,0.312076,0.10126,23.345,-15.2425,7.6125
433,10371332,0.934154,0.127002,0.213988,13.09,-10.885,-2.1525
434,10371429,0.8052,-0.12285399999999999,0.285846,4.62,-9.5375,-18.165
435,10371526,0.868762,-0.44810600000000006,-0.087108,-17.9725,-1.9075,-24.3425
436,10371623,1.1039780000000001,-0.658068,-0.30622,-33.6525,16.73,-18.4275
437,10371719,1.450214,-0.45554799999999995,-0.068564,-6.5625,31.7275,-3.78
438,10371816,1.68177,-0.14078800000000002,-0.279258,-6.8775,33.215,9.8875
439,10371913,1.7356939999999998,0.12651400000000002,-0.5060560000000001,-9.8,15.9425,13.37
440,10372010,1.7547259999999998,0.255468,-0.75335,-0.875,3.5,19.39
441,10372106,1.586976,0.42297399999999996,-0.6530661,15.645,-1.0325,34.4575
442,10372203,1.2052379999999998,0.457988,-0.474092,24.1675,-1.645,38.8675
443,10372300,0.9032879999999999,0.195322,-0.322324,18.6375,-2.45,27.86
444,10372397,0.804834,-0.148352,-0.245464,20.7025,5.95,21.455
445,10372493,1.147166,-0.28999400000000003,-0.317688,17.85,16.17,21.1575
446,10372590,1.5475700000000001,-0.36966,-0.327814,12.9325,8.855,21.315
447,10372687,1.7069020000000001,-0.397354,-0.253882,13.8425,1.6625,18.515
448,10372784,1.6402900000000002,-0.36051,-0.333426,6.3875,11.55,13.825
449,10372880,1.535858,-0.243024,-0.237656,5.3375,8.4175,2.8875
450,10372977,1.506456,-0.203618,-0.172508,1.9075,1.8025,-7.7875
451,10373074,1.47864,-0.22252800000000003,-0.139812,-6.195,10.0275,-11.69
452,10373171,1.4082459999999999,-0.247416,-0.07637200000000001,-11.795,11.3575,-12.5125
453,10373267,1.291004,-0.236314,-0.07246799999999999,-21.4375,5.6175,-11.9175
454,10373364,1.108248,-0.16128399999999998,-0.061,-26.3725,5.46,-11.2525
455,10373461,1.009428,-0.102114,-0.03294,-29.9775,4.76,-11.9175
456,10373558,0.918782,0.002196,-0.029158,-32.3925,5.6,-12.25
457,10373654,0.8350901,0.049044,-0.018788,-32.515,1.82,-15.505
458,10373751,0.776774,0.039284,-0.021838,-31.0275,-0.665,-19.4425
459,10373848,0.735904,0.02745,-0.040138,-29.5575,-2.905,-21.2625
460,10373944,0.695766,0.042944,-0.02806,-26.7225,-4.06,-21.9975
461,10374041,0.666974,0.05636401,-0.056608000000000006,-24.57,-6.44,-23.3625
462,10374138,0.6110981,0.095648,-0.08503401,-18.6375,-2.2225,-25.3925
463,10374235,0.5414359999999999,0.10736,-0.106994,-13.16,0.105,-29.33
464,10374331,0.488,0.136274,-0.102968,-4.9525,3.535,-36.6275
465,10374428,0.450546,0.16592,-0.11126400000000002,0.63,8.9075,-43.05
466,10374525,0.43505200000000005,0.16835999999999998,-0.08479,8.12,6.2475,-46.515
467,10374622,0.43944399999999995,0.152256,-0.048556,16.135,2.3625,-47.6
468,10374718,0.43932200000000005,0.10309000000000001,-0.016104,19.985,-6.825,-44.7475
469,10374815,0.434076,0.088328,0.022692,23.8525,-17.01,-42.1925
470,10374912,0.444446,0.080154,0.026474,28.2625,-18.6375,-37.4675
471,10375009,0.47775200000000007,0.096868,0.018788,32.5675,-18.6375,-31.1325
472,10375105,0.519476,0.08674201,0.094916,39.5325,-17.5875,-21.91
473,10375202,0.533506,0.126148,0.07710399999999999,47.11,-12.04,-13.37
474,10375299,0.584136,0.1342,-0.051362,48.4925,-13.4575,-7.385
475,10375396,0.6882020000000001,0.108214,-0.156648,51.73,-24.395,-2.6775
476,10375492,0.771772,0.091134,-0.04148,55.44,-29.505,-0.175
477,10375589,0.843508,0.10906800000000001,-0.018422,52.0625,-19.0925,0.105
478,10375686,0.9263459999999999,0.114192,-0.063318,44.765,-13.5275,-2.7475
479,10375783,1.0626200000000001,-0.060267999999999995,-0.012931999999999999,33.3025,-21.0875,-4.9875
480,10375879,1.178642,-0.378444,0.010126000000000001,27.2475,-30.2225,-1.3475
481,10375976,1.268312,-0.541558,0.111996,24.29,-24.08,2.4675
482,10376073,1.351394,-0.46921199999999996,0.19397999999999999,20.02,-7.91,-0.0525
483,10376170,1.273802,-0.197152,0.327326,13.895,5.215,-2.4325
484,10376266,1.2141440000000001,-0.00549,0.31049,16.9925,9.94,4.4275
485,10376363,1.31272,0.19702999999999998,-0.149084,24.64,7.455,12.1625
486,10376460,1.733498,0.23668000000000003,-0.486292,26.3725,-3.4475,9.52
487,10376556,2.1596439999999997,0.018178,-0.06941801,14.0525,8.1725,-12.2325
488,10376653,1.845738,-0.122732,-0.06075601,12.0575,34.5275,-28.735
489,10376750,1.4970620000000001,-0.176534,-0.40528400000000003,1.3475,-6.37,-19.39
490,10376847,1.416542,-0.340868,-0.333304,-7.42,-43.6975,-20.86
491,10376943,1.2566,-0.495442,-0.462746,-16.3625,-18.3225,-19.915
492,10377040,1.17059,-0.52155,-0.299998,-18.1125,-7.1225,-8.3825
493,10377137,1.1117860000000002,-0.234972,-0.355752,-13.8775,-11.9875,2.8525
494,10377234,1.0937299999999999,0.060146000000000005,-0.42163199999999995,-8.645,-13.7025,4.165
495,10377330,1.1575360000000001,0.11724200000000001,-0.424072,-2.555,-9.1875,-1.4525
496,10377427,1.236958,0.17202,-0.474946,-5.6875,1.96,-4.5325
497,10377524,1.295762,0.191906,-0.456768,-7.9275,4.97,-10.2725
498,10377620,1.326018,0.183854,-0.349164,-13.965,0.5075,-16.205
499,10377717,1.3066200000000001,0.1098,-0.332694,-14.8925,-0.8225,-14.245
500,10377814,1.32431,0.016958,-0.316956,-10.4125,-4.34,-9.94
501,10377911,1.300154,-0.002318,-0.263642,-6.86,-8.4525,-7.595
502,10378007,1.239154,-0.058682000000000005,-0.215696,-3.8325,-11.305,-4.2875
503,10378104,1.19255,-0.105652,-0.17055599999999999,0.3675,-14.9625,-0.4725
504,10378201,1.109346,-0.101016,-0.139812,3.5,-15.5225,3.535
505,10378298,1.0171139999999999,-0.080886,-0.111142,7.3325,-13.58,5.39
506,10378394,0.9235399999999999,-0.069174,-0.09150001,11.235,-12.8275,6.44
507,10378491,0.833016,-0.066124,-0.06771001,13.2825,-12.39,7.0
508,10378588,0.7628659999999999,-0.07307801,-0.05770599999999999,14.035,-11.865,7.21
509,10378685,0.7055260999999999,-0.06929600000000001,-0.04453,15.26,-12.3375,7.6825
510,10378781,0.667828,-0.067344,-0.032818,16.5375,-11.9875,6.93
511,10378878,0.6430621,-0.08064199,-0.014396,17.6925,-11.3575,7.2975
512,10378975,0.6198821,-0.09479401,-0.019032,16.5725,-11.515,9.38
513,10379071,0.609146,-0.10492,-0.016714,15.925,-12.565,11.165
514,10379168,0.598166,-0.122,-0.019886,14.4725,-12.25,12.3725
515,10379265,0.586088,-0.12248800000000001,-0.010126000000000001,13.3875,-10.535,12.7575
516,10379362,0.586576,-0.1464,-0.018544,9.94,-9.45,12.0225
517,10379458,0.590236,-0.152866,-0.02074,5.285,-11.655,10.85
518,10379555,0.590724,-0.15176800000000001,-0.013541999999999998,-0.6475,-14.6125,10.185
519,10379652,0.6068279999999999,-0.170434,0.004636001,-7.7,-15.575,9.45
520,10379749,0.631228,-0.19580999999999998,0.026962,-15.8025,-14.8925,8.1375
521,10379845,0.641232,-0.203496,0.05917000000000001,-25.935,-13.755,7.0
522,10379942,0.6450140000000001,-0.22057600000000002,0.082106,-36.7675,-13.9825,5.1625
523,10380039,0.63562,-0.22326,0.10187,-46.3225,-16.0825,2.065
524,10380136,0.6228100000000001,-0.214232,0.130296,-54.775,-19.11,-1.19
525,10380232,0.6430621,-0.21655,0.128344,-61.6,-23.66,-3.7275
526,10380329,0.680638,-0.21386599999999997,0.039284,-65.555,-24.325,-4.445
527,10380426,0.7134560999999999,-0.18605,0.075396,-61.8275,-22.12,-2.8
528,10380523,0.761158,-0.166164,0.188978,-52.745,-12.495,-1.855
529,10380619,0.8011741,-0.14786400000000002,0.077958,-48.93,-0.98,3.64
530,10380716,0.8365541,-0.042944,-0.113704,-39.165,-5.705,8.785
531,10380813,0.9239059999999999,0.07112601,-0.045627999999999995,-14.4725,-16.2925,12.705
532,10380909,1.062498,0.179828,-0.034404000000000004,7.0,-22.4525,16.73
533,10381006,1.23464,0.271206,0.016592,25.7075,-21.2625,17.0275
534,10381103,1.17181,0.377834,0.05368,37.38,-22.4525,14.28
535,10381200,0.8577819999999999,0.258274,0.14579,35.7175,-21.9275,0.4025
536,10381296,0.63745,0.0061,0.193736,16.415,-12.0225,-22.05
537,10381393,0.6954,-0.197152,-0.074054,-11.9175,0.9625,-33.7925
538,10381490,0.996008,-0.34111199999999997,-0.599508,-46.095,13.8425,-24.1675
539,10381587,1.525244,-0.292556,-0.10528599999999999,-14.3675,26.915,4.55
540,10381683,1.7929119999999998,-0.242048,-0.356484,-12.9325,40.0925,27.265
541,10381780,1.942118,0.046726,-0.6301300999999999,-21.9975,22.925,24.675
542,10381877,1.9942119999999999,0.383934,-0.9085340000000001,-3.0275,-1.5225,31.3075
543,10381974,1.6540759999999999,0.567666,-0.759572,25.41,-12.355,48.055
544,10382070,1.088606,0.527284,-0.47470200000000007,51.0475,-9.1,42.035
545,10382167,0.727486,0.152866,-0.32403200000000004,49.245,4.41,22.575
546,10382264,0.7300479999999999,-0.228994,-0.29072600000000004,44.8525,15.9075,11.83
547,10382361,1.071282,-0.295362,-0.43163599999999996,37.7475,25.0075,16.38
548,10382457,1.492182,-0.254614,-0.32818,42.35,34.86,22.2775
549,10382554,1.63785,-0.24192600000000003,-0.296582,42.2275,29.0675,14.7525
550,10382651,1.5969799999999998,-0.191174,-0.343308,35.735,11.655,-0.385
551,10382748,1.488278,-0.13908,-0.2745,28.0,0.525,-10.0625
552,10382844,1.455582,-0.14310599999999998,-0.25986,20.685,-2.38,-15.9425
553,10382941,1.496574,-0.17580199999999999,-0.22167399999999998,11.6375,-1.8375,-19.2675
554,10383038,1.4787620000000001,-0.252052,-0.140666,6.86,4.48,-21.0175
555,10383135,1.3908,-0.299632,-0.11712,-0.7875,9.87,-21.28
556,10383231,1.25965,-0.25803000000000004,-0.08308201,-6.7375,9.6425,-20.3525
557,10383328,1.11996,-0.185318,-0.035502,-7.3675,8.54,-20.1425
558,10383425,0.992226,-0.089426,-0.017812,-10.0625,10.605,-19.32
559,10383522,0.9264680000000001,-0.069906,-0.001098,-12.18,7.49,-20.37
560,10383618,0.8521700999999999,-0.053924,0.01769,-10.815,3.01,-23.1875
561,10383715,0.765672,-0.021472,0.00793,-11.6025,-0.77,-23.625
562,10383812,0.7046720999999999,-0.022326,0.011101999999999999,-11.0075,-4.9875,-23.8875
563,10383909,0.646722,-0.047945999999999996,0.012322,-8.5575,-8.6975,-26.3375
564,10384005,0.6028020000000001,-0.066734,-0.013297999999999999,-6.3875,-11.375,-30.4325
565,10384102,0.558028,-0.047214,-0.028182,-2.835,-12.565,-33.355
566,10384199,0.510692,0.01769,-0.06283,-1.3825,-14.4375,-35.2975
567,10384296,0.48312,0.029401999999999998,-0.041724000000000004,3.115,-14.1575,-36.2425
568,10384392,0.4514,0.07551801,-0.045018,4.655,-11.795,-34.615
569,10384489,0.422486,0.086864,-0.043798000000000004,7.525,-10.2725,-33.1975
570,10384586,0.37637,0.104432,-0.023912,10.01,-10.3425,-30.415
571,10384683,0.373442,0.111996,0.002074,12.5825,-9.24,-27.195
572,10384779,0.37027,0.111752,0.038674,16.6775,-8.33,-22.6975
573,10384876,0.38808200000000004,0.09552601,0.041602,16.9575,-9.4675,-18.2175
574,10384973,0.42858599999999997,0.061854,0.08918200000000001,18.48,-9.0475,-12.6
575,10385070,0.47689799999999993,0.042822000000000006,0.111752,19.88,-5.635,-6.9475
576,10385166,0.56425,0.05648601,0.071614,21.175,-3.255,-2.555
577,10385263,0.6517241,0.054778,0.019764,25.8125,-4.7075,1.3475
578,10385360,0.750788,0.038918,-0.053314,27.405,-6.0025,4.165
579,10385456,0.860344,0.043066,-0.0051240009999999996,25.7425,-5.0925,4.9525
580,10385553,1.00345,0.08820599999999999,0.00976,24.9725,-3.8325,2.4325
581,10385650,1.135332,0.135908,-0.039894,21.98,-7.8925,-1.96
582,10385747,1.2517200000000002,0.08235001,-0.013297999999999999,18.6725,-14.5775,-5.4425
583,10385843,1.38592,-0.124074,0.039772,14.3675,-17.99,-6.0725
584,10385940,1.423252,-0.343674,0.126148,13.405,-15.4,-4.795
585,10386037,1.3474899999999999,-0.348188,0.21301199999999998,12.215,-10.605,-5.5475
586,10386134,1.235616,-0.156282,0.12431800000000001,7.98,-9.3275,-7.1225
587,10386230,1.343464,-0.019398,-0.131272,-0.77,-10.2375,-8.9075
588,10386327,1.6707900000000002,-0.053801999999999996,-0.346358,-13.335,-8.8375,-17.255
589,10386424,1.875018,-0.164456,-0.12456199999999999,-34.79,0.8400001,-32.8125
590,10386520,1.702266,-0.271084,-0.194712,-46.515,12.4775,-35.3675
591,10386617,1.548302,-0.191296,-0.315492,-44.275,-2.9925,-28.2275
592,10386714,1.475468,-0.21679400000000001,-0.363926,-49.8575,-15.7325,-24.185
593,10386811,1.289662,-0.228262,-0.346114,-52.01,-7.8225,-19.7575
594,10386908,1.164856,-0.24570799999999998,-0.25681,-46.5675,-5.075,-7.035
595,10387004,1.090192,-0.181658,-0.21093800000000001,-36.7675,-0.6125,10.6925
596,10387101,1.021018,0.055265999999999996,-0.346846,-25.445,7.315,19.8275
597,10387198,1.058838,0.11760799999999999,-0.33733,-17.7275,9.17,15.6275
598,10387294,1.131306,0.101748,-0.518134,-15.085,14.5775,9.2225
599,10387391,1.2591620000000001,0.098332,-0.45152200000000003,-15.1025,14.0525,-2.4325
600,10387488,1.331874,0.160308,-0.398574,-19.635,14.035,-13.93
601,10387585,1.42862,0.18995399999999998,-0.373198,-14.8925,8.3825,-14.6125
602,10387681,1.497672,0.14762,-0.299388,-8.9775,1.505,-12.4075
603,10387778,1.441674,0.082472,-0.2867,-2.2925,-4.62,-10.185
604,10387875,1.346392,0.032695999999999996,-0.252418,6.0025,-13.3875,-8.5225
605,10387972,1.25416,-0.013663999999999999,-0.20776599999999998,12.3025,-17.1675,-6.055
606,10388068,1.17852,-0.030744,-0.168482,16.835,-17.57,-4.1825
607,10388165,1.10837,-0.04819,-0.12261,20.895,-17.7625,-2.905
608,10388262,1.016138,-0.06112201,-0.096624,22.4525,-18.865,-0.63
609,10388359,0.9394,-0.07978801,-0.06661201,24.15,-20.3175,2.2225
610,10388455,0.8536341000000001,-0.080398,-0.051484,23.765,-20.6675,5.81
611,10388552,0.777384,-0.063318,-0.040260000000000004,23.3975,-21.805,9.1
612,10388649,0.7156520000000001,-0.077958,-0.024766,24.43,-22.225,11.445
613,10388746,0.6480640000000001,-0.068442,-0.013541999999999998,25.0425,-21.1925,14.0
614,10388842,0.598532,-0.08906,-0.015982,23.2925,-20.7725,15.2425
615,10388939,0.55937,-0.08759601,-0.013175999999999998,22.0325,-21.21,17.43
616,10389036,0.5511961,-0.09125599999999999,-0.013297999999999999,22.1025,-21.1575,18.9875
617,10389133,0.5444859999999999,-0.107726,-0.01281,20.6325,-19.25,18.6725
618,10389229,0.534848,-0.107482,-0.019398,18.62,-16.8175,17.115
619,10389326,0.521672,-0.129076,-0.03843,13.5625,-18.1475,16.485
620,10389423,0.535702,-0.193248,-0.008906,7.175,-20.7375,15.4175
621,10389520,0.550708,-0.17873,0.021472,0.2625,-19.7925,12.495
622,10389616,0.557174,-0.15201199999999998,0.06832001,-9.065,-18.6725,7.875
623,10389713,0.5516840000000001,-0.171044,0.076494,-20.37,-19.5475,3.9025
624,10389810,0.5392399999999999,-0.203374,0.07551801,-31.4475,-24.7275,1.4175
625,10389907,0.55388,-0.19861600000000001,0.1098,-39.7425,-27.0375,-3.185
626,10390003,0.5915779999999999,-0.19459,0.08601,-44.9575,-21.07,-8.61
627,10390100,0.642696,-0.229848,0.022813999999999997,-48.0375,-14.7525,-11.2175
628,10390197,0.669658,-0.307318,0.068442,-38.675,-8.6975,-9.6775
629,10390294,0.6764899999999999,-0.33610999999999996,0.077714,-31.57,0.0175,-4.865
630,10390390,0.6967420999999999,-0.236436,0.09381801,-23.7825,9.52,0.4025
631,10390487,0.7617681,-0.02074,-0.0035380000000000003,-21.84,11.2525,4.5675
632,10390584,0.818132,0.11358199999999999,-0.132004,-15.3125,5.8625,6.02
633,10390681,0.8787661,0.164456,-0.152622,0.0875,-7.5075,7.5775
634,10390777,1.020774,0.18483,-0.06636801,8.3825,-16.66,7.35
635,10390874,1.098854,0.260714,0.048434,8.575,-6.7725,4.48
636,10390971,0.8852321,0.10614000000000001,0.062341999999999995,-3.7975,1.155,-5.7225
637,10391068,0.697108,-0.11394800000000001,0.124928,-21.175,0.875,-17.36
638,10391164,0.74725,-0.35075,-0.244,-45.64,15.4,-20.1775
639,10391261,1.03883,-0.44810600000000006,-0.40381999999999996,-56.5425,36.47,-8.89
640,10391358,1.506334,-0.24656199999999998,-0.177876,-29.61,46.7425,12.67
641,10391455,1.745454,0.09162200000000001,-0.43651599999999996,-32.9875,51.66,25.5325
642,10391551,1.8988080000000003,0.36173,-0.8664440000000001,-32.3575,30.5725,23.17
643,10391648,2.0276400000000003,0.6171979999999999,-0.9779521000000001,-7.5775,1.855,41.16
644,10391745,1.578192,0.7664041,-0.6450140000000001,26.0925,-4.0425,64.0325
645,10391842,0.879986,0.5170359999999999,-0.481412,35.0175,-2.1525,53.9875
646,10391938,0.6108541000000001,0.058072000000000006,-0.302194,31.7275,7.0875,29.82
647,10392035,0.8855980999999999,-0.146034,-0.35807,30.8525,40.8275,19.425
648,10392132,1.388482,-0.295118,-0.247538,29.7325,53.2875,21.5775
649,10392229,1.6621279999999998,-0.318298,-0.207156,30.0475,51.9225,17.5875
650,10392325,1.651636,-0.168604,-0.22789600000000002,21.7525,39.34,3.85
651,10392422,1.55062,-0.018544,-0.198738,15.75,17.5525,-7.6475
652,10392519,1.515362,0.049654000000000004,-0.18873399999999999,9.52,7.4025,-14.2275
653,10392616,1.502308,0.026718000000000002,-0.164456,5.6875,6.44,-14.5425
654,10392712,1.477542,-0.05355801,-0.14579,3.2375,7.455,-14.77
655,10392809,1.438502,-0.104676,-0.126392,2.6075,8.68,-16.7125
656,10392906,1.384212,-0.122976,-0.098576,3.535,11.655,-16.905
657,10393003,1.318454,-0.09906401,-0.063074,4.83,15.05,-15.89
658,10393099,1.2252459999999998,-0.06527000000000001,-0.028792,3.815,14.91,-15.435
659,10393196,1.12789,-0.047945999999999996,0.005856,3.0975,12.565,-15.0675
660,10393293,1.05469,-0.040016,0.00122,0.4725,10.535,-15.4175
661,10393389,1.000034,-0.016958,0.016836,-1.3825,3.92,-17.9025
662,10393486,0.9242720999999999,0.002318,0.055144000000000006,-0.5075,-3.8325,-19.8625
663,10393583,0.8483879999999999,0.041358,0.025254,-4.165,-7.8225,-19.32
664,10393680,0.7821421,0.027083999999999997,0.030622000000000003,-3.8325,-8.05,-18.4275
665,10393776,0.738344,-0.019032,0.035258,-2.345,-8.4,-18.2
666,10393873,0.677954,0.004148001,0.019154,-3.0275,-10.465,-17.045
667,10393970,0.59048,0.050874,-0.049288,-2.8175,-14.6125,-17.1325
668,10394067,0.533262,0.06832001,-0.054412,6.7375,-21.4725,-19.075
669,10394163,0.48739,0.07015,-0.042578,13.195,-25.795,-17.5875
670,10394260,0.428464,0.07259,-0.062952,13.8775,-27.4575,-16.3625
671,10394357,0.393694,0.069906,-0.040138,19.4425,-29.96,-18.0775
672,10394454,0.361608,0.064172,-0.024522,23.03,-32.83,-16.4675
673,10394550,0.32574000000000003,0.057462,0.009394,26.915,-31.675,-14.735
674,10394647,0.284016,0.063928,0.017324000000000003,29.1725,-25.8475,-13.8075
675,10394744,0.288164,0.071248,0.051972000000000004,29.645,-21.07,-13.1075
676,10394841,0.285724,0.053801999999999996,0.09906401,31.01,-15.995,-10.8325
677,10394937,0.326716,0.037088,0.14078800000000002,31.3425,-11.0425,-7.6475
678,10395034,0.4148,0.032086,0.189344,29.295,-3.9375,-1.645
679,10395131,0.507154,0.008174001,0.152134,30.1,2.9575,5.4775
680,10395227,0.6095119999999999,-0.015982,0.129198,31.64,3.64,12.9325
681,10395324,0.718214,-0.069174,0.121024,33.355,2.1175,18.655
682,10395421,0.855708,-0.11321600000000001,0.019154,24.115,-1.19,21.5425
683,10395518,1.0176020000000001,-0.12627,0.077714,7.8225,-5.6525,18.8825
684,10395614,1.260138,-0.156892,0.041968,-6.3,-6.685,9.9225
685,10395711,1.523536,-0.13761600000000002,0.066246,-18.865,-11.165,-3.15
686,10395808,1.59942,-0.180316,0.134078,-23.065,-13.65,-13.9125
687,10395905,1.423252,-0.212036,0.116022,-27.195,-11.235,-11.1825
688,10396001,1.270142,-0.182024,0.21228000000000002,-21.0,-10.255,-1.925
689,10396098,1.288076,-0.128588,0.28304,-10.9025,-6.3,4.13
690,10396195,1.389214,0.020130000000000002,-0.110776,0.035,-3.6575,9.1175
691,10396292,1.757166,0.10931199999999999,-0.393816,8.6275,-12.775,1.6275
692,10396388,1.9820119999999999,0.041846,0.144814,4.165,3.745,-30.0825
693,10396485,1.66042,-0.00183,0.23851,-3.2725,34.0375,-49.84
694,10396582,1.609668,0.081252,-0.23973000000000003,-15.505,6.58,-43.4175
695,10396678,1.6832340000000001,0.011956,-0.100772,-24.535,-17.3425,-44.9225
696,10396775,1.500844,-0.20556999999999997,-0.229116,-34.16,5.95,-43.4175
697,10396872,1.42679,-0.386862,-0.319884,-42.945,1.4,-31.0625
698,10396969,1.343708,-0.410286,-0.281088,-39.2875,-10.6225,-17.675
699,10397065,1.187426,-0.161162,-0.35685,-35.385,-9.2925,-1.05
700,10397162,1.087264,0.00244,-0.39100999999999997,-28.2625,-8.645,4.83
701,10397259,1.075552,0.005368,-0.40211199999999997,-23.065,-3.3425,2.2225
702,10397356,1.077138,-0.004758,-0.424804,-19.53,-2.24,-0.8225
703,10397452,1.098122,0.040626,-0.493612,-19.1275,-8.295,-5.7225
704,10397549,1.194014,0.121146,-0.40076999999999996,-21.665,-6.0375,-11.0425
705,10397646,1.3139399999999999,0.15762400000000001,-0.35087199999999996,-23.135,2.73,-14.0
706,10397743,1.3973879999999999,0.11541199999999999,-0.27816,-18.4275,0.8925,-10.045
707,10397839,1.372012,0.06746601,-0.264496,-16.66,-7.4725,-4.655
708,10397936,1.2519639999999999,-0.00183,-0.22033200000000003,-13.0025,-14.9975,-1.05
709,10398033,1.150582,-0.0488,-0.18629400000000002,-7.7525,-18.2525,0.6825
710,10398129,1.08946,-0.06892999999999999,-0.12651400000000002,-1.1025,-21.14,-0.175
711,10398226,1.0086959999999998,-0.081984,-0.09540401,2.03,-23.415,0.1225
712,10398323,0.9320801,-0.083936,-0.07283401,5.3375,-21.5425,1.4
713,10398420,0.846802,-0.06527000000000001,-0.051972000000000004,7.4025,-19.6875,3.5
714,10398516,0.7704300000000001,-0.046848,-0.0305,7.8575,-20.16,5.6875
715,10398613,0.71309,-0.028548,-0.02745,7.56,-21.595,7.665
716,10398710,0.6664859999999999,-0.027206,-0.019642,7.7,-21.2275,9.3625
717,10398807,0.6378159999999999,-0.041236,-0.009516001,7.7525,-20.09,9.17
718,10398903,0.632326,-0.061366,-0.017934000000000002,5.705,-19.6875,10.0275
719,10399000,0.64355,-0.039772,-0.014518000000000001,6.4925,-18.8125,10.4825
720,10399097,0.634156,-0.04867801,-0.008296000999999999,8.33,-18.5325,8.5575
721,10399194,0.58865,-0.07173600000000001,-0.021716,5.6,-19.0925,9.8175
722,10399290,0.562542,-0.08405800000000001,-0.026474,3.57,-16.7125,11.8475
723,10399387,0.575962,-0.076494,-0.022692,1.3125,-16.4325,11.13
724,10399484,0.59841,-0.075396,0.008418,0.0175,-17.7275,9.5375
725,10399581,0.61488,-0.07515201,0.039894,-3.395,-18.41,8.4
726,10399677,0.63257,-0.09674601,0.05429,-11.9175,-20.055,7.0875
727,10399774,0.6572140999999999,-0.1037,0.089426,-20.1775,-22.75,4.34
728,10399871,0.7046720999999999,-0.101504,0.131882,-25.76,-22.0325,-0.1925
729,10399968,0.7418819999999999,-0.09516001,0.177144,-32.165,-19.6875,-3.6575
730,10400064,0.745054,-0.07222401,0.191418,-37.73,-19.5825,-5.5125
731,10400161,0.7260220000000001,-0.049776,0.176656,-41.685,-20.405,-8.0325
732,10400258,0.71004,-0.04819,0.165188,-44.2925,-18.8475,-10.7625
733,10400355,0.707234,-0.07173600000000001,0.10004,-45.8675,-15.3825,-12.0925
734,10400451,0.706624,-0.15506199999999998,0.091744,-43.0325,-9.7825,-11.445
735,10400548,0.715164,-0.252296,0.130296,-31.22,-2.1525,-8.6975
736,10400645,0.741394,-0.31158800000000003,-0.008784,-25.0425,4.27,-3.3075
737,10400742,0.811056,-0.172752,-0.097478,-15.6975,4.6375,2.2575
738,10400838,0.904752,0.00061,-0.12383,-1.3825,1.5225,7.105
739,10400935,0.9725841000000001,0.091378,-0.128832,10.8675,-3.325,11.7075
740,10401032,1.023458,0.18775799999999998,-0.059658,21.0175,-9.4675,12.53
741,10401128,1.00406,0.296094,0.040748,27.79,-11.1825,12.9325
742,10401225,0.746274,0.21166999999999997,0.08564401,19.565,-7.7,7.7
743,10401322,0.57157,0.002562,0.165432,3.6925,-4.305,-7.5075
744,10401419,0.6893,-0.281332,-0.29646,-23.555,6.72,-15.1375
745,10401515,1.044198,-0.398696,-0.47336000000000006,-47.8975,25.3575,-3.4125
746,10401612,1.56282,-0.30109600000000003,-0.036844,-13.09,39.6025,23.695
747,10401709,1.7642419999999999,-0.23009200000000002,-0.376004,-21.0875,42.9975,39.3225
748,10401806,1.910398,-0.033672,-0.555954,-20.4925,23.03,27.9125
749,10401902,2.001532,0.263886,-0.7422481,-8.225,4.3925,25.97
750,10401999,1.7364259999999998,0.521794,-0.7306581,2.5025,-6.5975,43.7675
751,10402096,1.306132,0.55632,-0.5866979999999999,10.535,-13.615,49.0175
752,10402193,0.9625799999999999,0.304512,-0.438346,9.8175,-5.1275,38.2025
753,10402289,0.846924,0.014274,-0.335622,8.1725,8.645,27.4925
754,10402386,1.02846,-0.15091400000000002,-0.41589799999999993,5.3725,21.665,26.0925
755,10402483,1.334924,-0.327814,-0.31585799999999997,9.0825,31.78,28.1925
756,10402580,1.466928,-0.317932,-0.239608,11.62,31.29,22.2425
757,10402676,1.4721739999999999,-0.179096,-0.214842,8.96,24.64,8.19
758,10402773,1.436916,-0.07259,-0.20861999999999997,1.82,15.0675,-0.385
759,10402870,1.383846,-0.01525,-0.16811600000000002,-2.3625,9.4325,-6.405
760,10402967,1.36762,-0.004514,-0.15176800000000001,-7.1925,5.4775,-12.3725
761,10403063,1.32797,-0.03782,-0.137982,-11.7075,2.87,-14.77
762,10403160,1.3035700000000001,-0.05795,-0.115534,-14.1575,5.39,-16.3275
763,10403257,1.2469620000000001,-0.05368,-0.07612801,-14.63,8.3125,-15.9075
764,10403354,1.162782,-0.034038,-0.059536,-13.9125,8.0675,-16.2225
765,10403450,1.0371219999999999,-0.016958,-0.037454,-11.795,8.015,-14.9975
766,10403547,0.9530641,-0.002318,-0.05160601,-11.235,9.1175,-14.9275
767,10403644,0.916098,0.001952,-0.029768,-8.54,7.77,-14.9275
768,10403741,0.868884,0.015006,-0.027816000000000004,-3.955,7.1225,-14.21
769,10403837,0.8327720999999999,0.039772,-0.027938,-1.155,2.73,-13.58
770,10403934,0.788486,0.05124001,-0.023058000000000002,2.9575,-0.8225,-13.09
771,10404031,0.761158,0.045384,-0.010736,5.985,-2.975,-14.945
772,10404127,0.7854361,0.057462,-0.003904,8.05,-6.16,-18.4975
773,10404224,0.798856,0.083814,-0.024766,9.9925,-6.2825,-19.2325
774,10404321,0.745542,0.06380599999999999,-0.023180000000000003,16.6775,-5.8275,-19.88
775,10404418,0.7056479999999999,0.061610000000000005,-0.026474,21.0525,-6.7375,-22.2425
776,10404514,0.6569699999999999,0.047336,-0.01281,24.15,-5.705,-22.1375
777,10404611,0.6037779999999999,0.011834,0.006587999999999999,26.285,-2.975,-20.7375
778,10404708,0.5827939999999999,0.017446,0.042456,28.0175,-4.235,-19.74
779,10404805,0.562176,0.039406000000000004,0.016347999999999998,28.2275,-4.69,-16.905
780,10404901,0.552416,0.016225999999999997,0.025863999999999998,27.125,-5.7925,-13.51
781,10404998,0.5355800999999999,-0.022203999999999998,0.07076001,28.735,-5.5125,-9.2925
782,10405095,0.5161819999999999,-0.031964,0.052216,29.8725,-4.76,-6.8075
783,10405192,0.518256,-0.017812,0.041724000000000004,31.08,-6.3175,-5.495
784,10405288,0.5206960999999999,0.015738,0.04941,30.8175,-6.8425,-4.4275
785,10405385,0.542412,0.048312,0.07588400000000001,31.92,-4.6025,-4.06
786,10405482,0.5914560000000001,0.102724,0.063928,32.095,-3.9375,-4.025
787,10405578,0.662704,0.1342,0.020496,30.73,-6.9125,-4.235
788,10405675,0.741028,0.11712,0.01952,27.3175,-8.995,-3.395
789,10405772,0.8127641,0.052338,0.060267999999999995,25.06,-7.9975,-1.015
790,10405869,0.8934059999999999,-0.05355801,0.06795401,26.11,-6.2475,3.01
791,10405965,0.9913719999999999,-0.106262,-0.0032939999999999996,21.7175,-7.7175,6.825
792,10406062,1.0998299999999999,-0.07978801,0.018544,12.1975,-10.43,6.1775
793,10406159,1.19438,-0.043798000000000004,0.035136,4.1125,-9.2925,-0.595
794,10406256,1.236104,-0.10650599999999999,0.12041400000000001,-0.1925,-6.9825,-6.8075
795,10406352,1.250256,-0.155672,0.163968,-6.475,-5.18,-9.2575
796,10406449,1.1747379999999998,-0.093696,0.164212,-6.2475,-4.4975,-10.0625
797,10406546,1.146312,0.007564001,-0.102724,-2.2575,-3.885,-9.31
798,10406642,1.3290680000000001,-0.102602,-0.196298,1.89,-7.7525,-9.765
799,10406739,1.592222,-0.24863600000000002,0.005856,-2.8875,-0.035,-18.0775
800,10406836,1.672864,-0.203496,0.002928,-8.1025,13.37,-32.83
801,10406933,1.561112,-0.08527801,-0.242902,-16.6075,5.775,-36.05
802,10407029,1.4936459999999998,-0.19032000000000002,-0.14896199999999998,-23.2925,-3.885,-31.955
803,10407126,1.353834,-0.225334,-0.24863600000000002,-29.155,2.3625,-29.6275
804,10407223,1.280756,-0.279136,-0.33379200000000003,-28.5075,-4.4975,-24.64
805,10407319,1.2395200000000002,-0.352092,-0.31598000000000004,-23.555,-7.7525,-21.4025
806,10407416,1.1538760000000001,-0.31012399999999996,-0.34050199999999997,-19.1625,-2.765,-19.39
807,10407513,1.026752,-0.13785999999999998,-0.324764,-16.4325,-4.165,-17.1675
808,10407610,0.9598959999999999,0.012078,-0.33318200000000003,-13.4225,-3.4475,-17.9725
809,10407706,0.9962521000000001,0.09698999999999999,-0.455426,-11.445,6.58,-20.3
810,10407803,1.1117860000000002,0.160186,-0.38369000000000003,-12.11,14.595,-24.0625
811,10407900,1.196698,0.217038,-0.28682199999999997,-12.0225,18.025,-29.68
812,10407997,1.249036,0.164456,-0.21581799999999998,-4.4275,11.69,-27.0375
813,10408093,1.260504,0.105774,-0.206668,-1.5225,4.095,-20.23
814,10408190,1.2458639999999999,0.06588,-0.199226,1.3125,0.4025,-15.295
815,10408287,1.21146,-0.007442,-0.185928,6.3525,-3.675,-12.74
816,10408383,1.164856,-0.05246,-0.208986,11.3575,-7.5075,-11.2875
817,10408480,1.1303299999999998,-0.085522,-0.214842,14.805,-10.92,-11.445
818,10408577,1.11142,-0.08637601,-0.220698,17.255,-12.18,-12.53
819,10408674,1.100806,-0.080276,-0.20691199999999998,19.2325,-13.6325,-12.775
820,10408770,1.086654,-0.092964,-0.187148,21.5075,-15.05,-11.865
821,10408867,1.049566,-0.083204,-0.17946199999999998,22.365,-16.59,-9.66
822,10408964,1.0169920000000001,-0.062220000000000004,-0.17128800000000002,24.6925,-19.5475,-7.385
823,10409061,0.989908,-0.052826,-0.154574,27.51,-21.4025,-5.81
824,10409157,0.9459880999999999,-0.054655999999999996,-0.151646,29.295,-22.0675,-3.57
825,10409254,0.8987741,-0.045872,-0.142862,30.3625,-23.065,-2.31
826,10409351,0.8759601,-0.06527000000000001,-0.138836,31.78,-25.1125,-1.6975
827,10409447,0.859978,-0.06380599999999999,-0.132736,32.55,-25.8475,0.4375
828,10409544,0.8267940999999999,-0.042578,-0.09735601,34.0375,-23.59,1.9775
829,10409641,0.800808,-0.027816000000000004,-0.09540401,35.945,-22.2075,2.73
830,10409738,0.769576,-0.029158,-0.08430201,35.4725,-21.77,2.5025
831,10409834,0.7415161,-0.033184,-0.035502,35.98,-18.69,1.68
832,10409931,0.7239479999999999,-0.02501,-0.018178,35.035,-13.615,-0.1925
833,10410028,0.69906,-0.013908000000000002,0.012322,34.5975,-11.3225,-1.7675
834,10410124,0.692472,-0.00488,0.016592,32.095,-10.185,-5.1975
835,10410221,0.686128,-0.015738,0.001464,30.6425,-10.5175,-7.28
836,10410318,0.697108,-0.027816000000000004,0.005246,31.6575,-12.005,-10.745
837,10410415,0.702964,-0.02135,0.0427,33.3025,-11.9175,-15.3825
838,10410511,0.71004,-0.044774,0.08784,35.5075,-9.52,-20.7025
839,10410608,0.708576,-0.05770599999999999,0.108458,36.015,-6.825,-24.5
840,10410705,0.719434,-0.057828,0.130174,37.1875,-3.99,-27.8075
841,10410802,0.7470060000000001,-0.05429,0.10126,38.4825,0.3325,-30.2225
842,10410898,0.784338,-0.01952,0.101626,42.5075,1.995,-31.4825
843,10410995,0.8141060999999999,0.021594,0.080398,47.425,1.1725,-31.815
844,10411092,0.8239880999999999,0.11870599999999999,0.06649,50.085,0.5775,-32.2525
845,10411188,0.80886,0.236314,0.07722601,49.91,0.525,-34.0375
846,10411285,0.8106899999999999,0.27571999999999997,0.06283,48.0025,1.5925,-37.1525
847,10411382,0.812032,0.24192600000000003,0.020252000000000003,49.5775,2.8525,-39.095
848,10411479,0.788486,0.160308,0.049654000000000004,56.4725,2.2225,-39.3225
849,10411575,0.754204,0.07076001,0.07198,59.64,-0.42,-40.0925
850,10411672,0.737002,-0.068564,0.080276,54.5825,-3.22,-42.315
851,10411769,0.7348060000000001,-0.223748,0.07356601,44.275,-2.03,-46.34
852,10411866,0.794708,-0.417728,-0.268888,28.14,4.1125,-50.435
853,10411962,0.879986,-0.5139859999999999,-0.20483800000000002,14.6125,15.225,-46.69
854,10412059,1.028094,-0.49153800000000003,-0.450424,22.295,25.585,-35.42
855,10412156,1.339316,-0.393572,-0.8494860999999999,14.9625,26.6875,-24.6225
856,10412253,1.927966,-0.217282,-0.9492821,14.5075,30.2925,-5.215
857,10412349,2.70718,0.47165200000000007,-0.742492,42.91,7.105,30.2925
858,10412446,1.89405,0.968558,-0.280966,70.4375,-34.2825,66.1325
859,10412543,0.63135,0.45859799999999995,-0.10394400000000001,77.525,-70.245,65.1875
860,10412640,0.41260399999999997,0.011101999999999999,-0.12993,68.705,-28.5075,26.3725
861,10412736,0.9006040999999999,-0.17214200000000002,-0.297802,71.47,26.95,19.8975
862,10412833,1.264408,-0.115534,-0.138348,84.0525,28.84,32.7075
863,10412930,1.307108,0.049166,-0.24997800000000003,80.675,27.1775,26.2675
864,10413026,1.28588,0.16652999999999998,-0.187392,86.06501,19.1975,12.1625
865,10413123,1.21573,0.28462600000000005,-0.167018,93.7475,15.6275,5.355
866,10413220,1.242448,0.32086,-0.12358599999999999,101.745,13.3175,-2.275
867,10413317,1.340902,0.25986,-0.090036,109.305,11.655,-8.925
868,10413413,1.3796979999999999,0.137738,-0.052948,117.5475,16.695,-14.3675
869,10413510,1.31577,0.072712,-0.016347999999999998,126.14,16.6075,-17.2025
870,10413607,1.225978,0.046848,-0.016836,132.93,9.52,-19.5825
871,10413704,1.144482,0.036844,0.00244,140.28,6.195,-20.5275
872,10413800,1.124596,0.032818,-0.000976,143.955,4.585,-22.4525
873,10413897,1.13094,0.036112,0.032818,148.2775,5.1625,-25.1825
874,10413994,1.11569,0.047214,0.014884,151.935,4.6725,-24.9725
875,10414091,1.111176,0.053436000000000004,0.028426,157.08,2.205,-26.005
876,10414187,1.103246,0.045872,0.0064659999999999995,159.88,-0.105,-26.0225
877,10414284,1.086044,0.04392,-0.000732,161.0,-3.2025,-26.5125
878,10414381,1.047614,0.032574,0.02257,163.485,-5.1275,-27.23
879,10414477,1.006744,0.024644,0.023546,165.2525,-7.6125,-26.5825
880,10414574,0.9966181000000001,0.016592,0.020496,167.8075,-10.1675,-25.7775
881,10414671,0.981612,0.002928,0.031842,169.855,-12.355,-24.955
882,10414768,0.9494040000000001,-0.006344,0.035868000000000004,171.29,-13.5275,-24.7275
883,10414864,0.931958,0.017934000000000002,0.036844,173.635,-14.945,-25.7425
884,10414961,0.9167081,0.018544,0.02928,176.19,-17.2725,-26.6875
885,10415058,0.9076799999999999,0.0061,0.036112,178.045,-18.795,-28.0525
886,10415155,0.8940161,0.001098,0.035013999999999997,180.145,-18.935,-29.7675
887,10415251,0.87718,-0.013541999999999998,0.021228,181.545,-19.7925,-31.0975
888,10415348,0.8727879999999999,-0.055388,0.03294,183.225,-21.245,-32.41
889,10415445,0.868762,-0.080764,0.033794,183.82,-21.9975,-33.5125
890,10415541,0.879986,-0.10540799999999999,0.056974000000000004,183.75,-21.525,-33.565
891,10415638,0.9049959999999999,-0.126026,0.058316,182.2275,-20.72,-33.1275
892,10415735,0.9002379999999999,-0.177266,0.05648601,178.7625,-20.7375,-32.515
893,10415832,0.9032879999999999,-0.203374,0.09040201,175.735,-19.0925,-31.6575
894,10415928,0.9029221,-0.205204,0.101992,172.2,-17.9375,-30.135
895,10416025,0.898042,-0.20947399999999997,0.09869801,167.23,-17.85,-28.21
896,10416122,0.9032879999999999,-0.198982,0.068442,161.7,-16.45,-27.055
897,10416219,0.931226,-0.180804,0.069784,153.65,-14.91,-26.425
898,10416315,0.9496479999999999,-0.10614000000000001,0.054167999999999994,144.9875,-11.6375,-25.62
899,10416412,0.9463540000000001,-0.059658,0.063928,136.36,-10.255,-23.24
900,10416509,0.94611,-0.070516,0.064172,128.205,-9.66,-19.145
901,10416605,0.9356180000000001,-0.09186601,0.0549,123.06,-10.0275,-15.0675
902,10416702,0.9211,-0.133224,0.04404201,119.5775,-9.2925,-11.3575
903,10416799,0.897432,-0.178974,0.02684,117.845,-8.2775,-7.6475
904,10416896,0.8967,-0.21386599999999997,-0.007198,116.9,-8.26,-5.1975
905,10416992,0.8792540999999999,-0.193492,-0.08906,115.2375,-8.9425,-2.31
906,10417089,0.8576601,-0.18470799999999998,-0.071248,113.4,-8.68,1.1375
907,10417186,0.8471681000000001,-0.127002,-0.16128399999999998,113.3825,-7.14,3.6225
908,10417283,0.879864,-0.03782,-0.396012,114.5025,-14.245,5.25
909,10417379,0.9946659999999999,-0.040992,-0.519598,120.9075,-19.8625,4.4975
910,10417476,1.18035,-0.07393200000000001,-0.564006,127.12,-20.51,-1.7325
911,10417573,1.315648,-0.184952,-0.44103000000000003,132.5275,-18.13,-11.515
912,10417670,1.24989,-0.188978,-0.36295,138.005,-17.64,-21.77
913,10417766,1.06384,-0.06649,-0.308172,142.975,-24.605,-30.6425
914,10417863,0.9903959999999999,-0.005368,-0.236436,141.0325,-20.475,-35.805
915,10417960,1.034316,0.049776,-0.24107199999999998,139.1775,-14.21,-37.31
916,10418057,1.0565200000000001,0.042334,-0.194468,139.1775,-16.625,-38.0275
917,10418153,1.0499319999999999,-0.00488,-0.14884,139.965,-16.0475,-38.3775
918,10418250,1.06323,-0.034892,-0.122366,138.0925,-15.5925,-38.4825
919,10418347,1.078602,-0.08296,-0.094672,135.6775,-15.225,-37.625
920,10418444,1.0912899999999999,-0.116632,-0.111142,134.0325,-15.715,-34.4225
921,10418540,1.148752,-0.14871800000000002,-0.108214,135.3975,-19.635,-28.91
922,10418637,1.19621,-0.136762,-0.10516400000000001,137.9175,-23.2925,-23.065
923,10418734,1.2043840000000001,-0.09028,-0.104066,140.98,-25.445,-19.46
924,10418830,1.1679059999999999,-0.052703999999999994,-0.09711201,144.9,-28.665,-19.145
925,10418927,1.112762,-0.012444,-0.07978801,147.4725,-28.105,-20.125
926,10419024,1.0595700000000001,0.0064659999999999995,-0.071614,148.925,-23.9575,-21.595
927,10419121,1.019676,0.010492,-0.067344,150.535,-19.8975,-22.855
928,10419217,0.987712,-0.007076001,-0.05246,152.1625,-17.2025,-24.15
929,10419314,0.9553821,-0.038186000000000005,-0.046848,152.8625,-15.645,-25.025
930,10419411,0.942206,-0.081252,-0.041114,151.8125,-14.7,-26.18
931,10419508,0.9413520000000001,-0.119682,-0.047458,150.57,-13.755,-26.7925
932,10419604,0.9343981,-0.18141400000000002,-0.044164,149.1525,-12.8975,-26.425
933,10419701,0.9322021,-0.19483399999999998,-0.05160601,147.3325,-11.165,-25.1125
934,10419798,0.938058,-0.194346,-0.071248,146.09,-9.45,-24.1325
935,10419895,0.9259799999999999,-0.191662,-0.061610000000000005,146.7725,-8.89,-23.24
936,10419991,0.9085340000000001,-0.196298,-0.07015,146.685,-8.015,-23.345
937,10420088,0.90402,-0.20703400000000002,-0.05856,147.84,-9.0475,-23.0475
938,10420185,0.885476,-0.22789600000000002,-0.044774,149.065,-9.3625,-23.2225
939,10420281,0.868152,-0.23680199999999998,-0.048068,148.715,-11.2,-23.8525
940,10420378,0.862662,-0.260226,-0.050386,147.1575,-13.685,-24.43
941,10420475,0.8640040000000001,-0.261934,-0.019275999999999998,145.075,-13.65,-24.78
942,10420572,0.8604661,-0.280966,-0.015006,141.295,-12.18,-25.5325
943,10420668,0.861808,-0.28767600000000004,-0.002196,136.15,-13.335,-26.495
944,10420765,0.861808,-0.28633400000000003,0.012444,130.1475,-14.525,-27.72
945,10420862,0.866078,-0.288408,0.03538,124.5125,-14.0525,-28.735
946,10420959,0.8796200000000001,-0.298656,0.05636401,117.7925,-13.6325,-29.54
947,10421055,0.9001161,-0.295484,0.05209400000000001,110.32,-14.5425,-30.38
948,10421152,0.9195141,-0.29597199999999996,0.044774,102.095,-15.96,-30.905
949,10421249,0.925126,-0.290116,0.02501,93.905,-17.43,-30.9225
950,10421345,0.9325680000000001,-0.303292,0.007198,86.13501,-18.69,-31.2725
951,10421442,0.9507460999999999,-0.32635,-0.013786000000000001,78.9775,-18.6725,-30.7125
952,10421539,0.9795381,-0.346114,0.005734,73.5,-18.69,-28.9275
953,10421636,0.9977159999999999,-0.329766,0.087474,67.375,-17.85,-26.53
954,10421732,1.0187,-0.29987600000000003,0.09211,59.2375,-16.135,-24.255
955,10421829,1.0229700000000002,-0.275476,0.09711201,55.4225,-16.7825,-20.4925
956,10421926,1.005036,-0.259372,0.12505,57.015,-19.2325,-15.75
957,10422023,0.987956,-0.25607800000000003,0.10309000000000001,58.625,-21.595,-12.4075
958,10422119,0.9772200999999999,-0.25132,0.14005599999999999,62.37,-22.68,-9.695
959,10422216,0.9696561,-0.248148,0.13908,63.7875,-20.895,-6.7025
960,10422313,0.9663620999999999,-0.23228800000000002,0.11846199999999998,61.425,-18.5325,-4.165
961,10422410,0.9541620000000001,-0.22362600000000002,0.125172,62.44,-16.3975,-4.725
962,10422506,0.919026,-0.23680199999999998,0.114192,61.285,-13.3875,-6.2125
963,10422603,0.853756,-0.268888,0.075396,58.485,-10.815,-8.575
964,10422700,0.85888,-0.323666,-0.114924,48.8775,-8.015,-11.0075
965,10422796,1.084824,-0.282918,-0.332694,43.68,-4.7425,-6.265
966,10422893,1.363716,-0.172264,-0.6600201,45.3775,-5.5125,10.1325
967,10422990,1.44936,-0.029158,-0.645502,63.9275,-19.2325,23.7125
968,10423087,1.175836,0.039284,-0.5198421,82.8625,-27.93,18.235
969,10423183,0.8751059999999999,0.042944,-0.373808,87.64,-27.3525,-1.295
970,10423280,0.859368,-0.056729999999999996,-0.148352,88.70749,-16.94,-14.21
971,10423377,1.1289879999999999,-0.10223600000000001,-0.28365,77.6125,-1.505,-11.375
972,10423474,1.272704,-0.17763199999999998,-0.285968,68.6,3.7975,-6.7375
973,10423570,1.243424,-0.203618,-0.338672,68.4775,-0.175,-11.2875
974,10423667,1.22,-0.135054,-0.44810600000000006,68.075,-6.265,-17.9025
975,10423764,1.14009,-0.069174,-0.38661799999999996,76.1425,-8.7325,-21.035
976,10423860,1.0406600000000001,-0.021838,-0.384056,81.74251,-8.26,-24.3075
977,10423957,0.9751460999999999,0.01891,-0.409188,85.97751,-9.8175,-25.6025
978,10424054,0.9777081,0.045262000000000004,-0.378932,91.315,-8.4175,-26.67
979,10424151,1.060668,0.05185,-0.383812,96.86251,-4.8125,-28.63
980,10424247,1.164002,0.055144000000000006,-0.353434,99.435,-3.2375,-31.6925
981,10424344,1.2496459999999998,0.049898000000000005,-0.266448,100.205,-2.3275,-35.9975
982,10424441,1.293566,0.06039,-0.267912,96.98501,-1.015,-40.145
983,10424538,1.277218,0.051118000000000004,-0.242902,93.73,-3.85,-43.9775
984,10424634,1.235494,-0.00671,-0.221308,91.2975,-5.74,-45.9375
985,10424731,1.189378,-0.06649,-0.190808,90.02,-3.0625,-46.1825
986,10424828,1.1407,-0.10004,-0.17995,88.9,0.35,-46.5325
987,10424924,1.0943399999999999,-0.10223600000000001,-0.15201199999999998,87.0975,0.3675,-45.78
988,10425021,1.058716,-0.13078399999999998,-0.116632,84.77,1.5925,-43.9775
989,10425118,1.04005,-0.149572,-0.096624,80.5175,0.7525,-41.0725
990,10425215,1.040904,-0.153354,-0.067832,77.0,-1.505,-40.355
991,10425311,1.013576,-0.171898,-0.06527000000000001,74.8825,-1.3825,-42.8575
992,10425408,0.9711200999999999,-0.1891,-0.079666,71.365,-3.9725,-44.3975
993,10425505,0.9290299999999999,-0.204716,-0.06771001,67.7425,-8.19,-45.6575
994,10425602,0.8638819999999999,-0.21838000000000002,-0.03843,65.415,-9.1175,-44.7825
995,10425698,0.794342,-0.22423600000000002,-0.057828,60.4975,-9.3975,-43.6275
996,10425795,0.7451760000000001,-0.2013,-0.063318,56.3675,-9.275,-41.9475
997,10425892,0.68686,-0.185196,-0.063074,53.3925,-9.5375,-37.975
998,10425988,0.6489180999999999,-0.15799000000000002,-0.07588400000000001,48.7025,-10.01,-37.905
999,10426085,0.619638,-0.114436,-0.082838,44.5375,-9.3975,-38.1675
1000,10426182,0.592188,-0.10675,-0.093574,41.3875,-8.015,-39.1825
1001,10426279,0.583526,-0.071248,-0.09223200000000001,38.57,-6.755,-40.6175
1002,10426375,0.570472,-0.04331,-0.07564,36.33,-3.745,-41.545
1003,10426472,0.587064,-0.023302,-0.052826,34.79,-0.7525,-42.7525
1004,10426569,0.61061,-0.016104,-0.046238,32.865,-0.21,-41.7375
1005,10426665,0.653676,-0.043554,-0.037454,32.095,-0.2275,-38.7975
1006,10426762,0.696254,-0.062341999999999995,-0.00488,32.83,-0.035,-33.005
1007,10426859,0.70516,-0.087352,0.020252000000000003,32.725,1.82,-25.6375
1008,10426956,0.7315119999999999,-0.08576601,0.05453401,31.08,3.535,-18.935
1009,10427052,0.75274,-0.068076,0.07856801,29.7675,7.0,-12.635
1010,10427149,0.786656,-0.03477,0.05977999999999999,29.33,9.7475,-7.735
1011,10427246,0.8294780999999999,0.009272001,0.074664,28.21,10.535,-4.41
1012,10427343,0.87169,0.033184,0.059048,27.405,12.95,-2.94
1013,10427439,0.9009700999999999,0.034526,0.029158,26.285,12.67,-3.1675
1014,10427536,0.918294,0.020984,0.010248,23.94,11.165,-5.215
1015,10427633,0.9567241,0.027083999999999997,-0.00671,21.8225,13.23,-8.3825
1016,10427729,1.075552,0.03416,0.033428,18.9525,16.1175,-13.0725
1017,10427826,1.203286,0.046726,0.031232,16.7825,16.7825,-17.325
1018,10427923,1.284294,0.022082,0.03965,12.005,15.6975,-19.18
1019,10428020,1.319308,-0.058926,0.10858,7.0175,13.405,-17.7975
1020,10428116,1.32492,-0.107116,0.081252,4.0775,10.185,-16.3975
1021,10428213,1.348222,-0.037942000000000004,0.000244,3.955,2.765,-14.98
1022,10428310,1.440332,0.054778,-0.150426,3.6925,0.2275,-15.155
1023,10428406,1.606252,0.12285399999999999,-0.330742,-1.1025,3.745,-18.095
1024,10428503,1.655906,0.110044,-0.266936,-8.8025,5.985,-23.7125
1025,10428600,1.571848,-0.040992,-0.2013,-14.1225,8.68,-26.5825
1026,10428697,1.531954,-0.087108,-0.333426,-15.435,3.64,-23.52
1027,10428793,1.46766,-0.08771799999999999,-0.40894400000000003,-24.08,-5.95,-20.055
1028,10428890,1.3642040000000002,-0.135298,-0.443104,-28.455,-5.1975,-16.555
1029,10428987,1.262944,-0.17751,-0.413458,-26.8625,-1.68,-12.215
1030,10429084,1.128866,-0.172264,-0.404552,-20.335,-1.365,-4.83
1031,10429180,1.054568,-0.07027201,-0.345382,-9.2225,-1.645,1.12
1032,10429277,1.0229700000000002,0.00061,-0.38198200000000004,-2.4325,2.205,4.41
1033,10429374,0.996374,0.020618,-0.40882199999999996,0.7525,-0.07,6.4925
1034,10429470,1.028704,0.013908000000000002,-0.465186,-3.5525,-6.125,6.4225
1035,10429567,1.084214,0.069906,-0.5132541,-14.56,-1.015,4.2175
1036,10429664,1.10471,0.08235001,-0.388204,-25.5325,8.5925,-1.8025
1037,10429761,1.143628,-0.001952,-0.391986,-24.9025,7.6125,-0.665
1038,10429857,1.192428,-0.057828,-0.33684200000000003,-16.1175,-6.93,1.435
1039,10429954,1.175348,-0.035746,-0.33976999999999996,-10.675,-12.4775,4.1825
1040,10430051,1.167052,0.004636001,-0.321836,-4.6375,-13.4225,6.4925
1041,10430148,1.14192,0.05941401,-0.270596,4.2525,-14.63,8.0675
1042,10430244,1.095926,0.139568,-0.232044,12.0225,-11.8475,8.7325
1043,10430341,1.02663,0.188612,-0.17324,20.02,-9.24,9.52
1044,10430438,0.927932,0.191662,-0.136152,23.905,-10.0625,10.745
1045,10430535,0.8360661,0.158112,-0.11614400000000001,28.385,-10.71,10.71
1046,10430631,0.780312,0.101138,-0.10187,33.2325,-10.15,12.0225
1047,10430728,0.7479819999999999,0.045262000000000004,-0.07381001,37.695,-10.36,12.6175
1048,10430825,0.72773,-0.007442,-0.05355801,40.6525,-10.1675,15.75
1049,10430922,0.72529,-0.039406000000000004,-0.05770599999999999,41.7375,-9.7475,18.725
1050,10431018,0.72346,-0.055998,-0.055265999999999996,42.455,-9.2925,21.6125
1051,10431115,0.7117479999999999,-0.057462,-0.061488,42.6825,-7.91,24.6575
1052,10431212,0.69296,-0.079666,-0.05624199999999999,42.385,-7.2275,26.7925
1053,10431308,0.66856,-0.08308201,-0.057218,41.265,-6.02,27.615
1054,10431405,0.6586781,-0.098576,-0.06356201,38.1325,-4.7775,27.0725
1055,10431502,0.6605081,-0.161528,-0.055022,32.9175,-7.035,26.7925
1056,10431599,0.6886899999999999,-0.21472,-0.047945999999999996,24.7975,-12.285,24.6225
1057,10431695,0.6956439999999999,-0.223748,-0.016225999999999997,17.6575,-14.35,20.7725
1058,10431792,0.68381,-0.223992,-0.025254,9.9575,-13.2475,16.59
1059,10431889,0.6729520999999999,-0.208742,-0.010126000000000001,6.545,-13.545,12.74
1060,10431986,0.6794180000000001,-0.18775799999999998,0.027206,2.2925,-14.14,8.7675
1061,10432082,0.68747,-0.146156,0.021716,1.1025,-12.46,5.565
1062,10432179,0.6917399999999999,-0.14335,0.027327999999999998,-2.6075,-12.04,2.275
1063,10432276,0.688446,-0.145302,0.024278,-6.0375,-12.565,0.7
1064,10432373,0.7013781,-0.176046,0.029889999999999996,-9.31,-10.955,0.14
1065,10432469,0.715774,-0.219966,-0.037576,-12.32,-4.4975,1.5575
1066,10432566,0.71675,-0.262056,-0.011346,-14.1575,0.945,4.48
1067,10432663,0.702232,-0.32086,0.028914,-9.7825,6.335,7.0
1068,10432760,0.700646,-0.321104,0.036112,-5.285,12.6,9.7125
1069,10432857,0.741272,-0.24082800000000001,0.06746601,1.5225,14.9275,12.0575
1070,10432953,0.8396040000000001,-0.149206,0.07551801,4.235,11.3575,13.8775
1071,10433050,0.9833200000000001,-0.077714,0.05648601,1.7675,6.965,13.5625
1072,10433147,1.069086,0.030133999999999998,0.008052001,-0.9975,7.3675,10.01
1073,10433243,1.1039780000000001,0.05636401,-0.184342,-5.4425,3.78,3.605
1074,10433340,1.2014559999999999,-0.019398,-0.502518,-9.625,-2.8525,-1.995
1075,10433437,1.451922,-0.026108,-0.7951961,-7.63,-8.6275,1.6275
1076,10433534,1.665788,0.061732,-0.57767,21.3675,-8.0325,14.7
1077,10433630,1.60247,0.262422,-0.41101800000000005,50.0325,-0.98,23.6775
1078,10433727,1.366644,0.319396,-0.530578,41.8775,-2.3275,26.25
1079,10433824,1.198284,0.21472,-0.543876,41.1075,-3.7625,25.2175
1080,10433921,1.101904,0.071248,-0.35282399999999997,41.09,8.19,24.22
1081,10434017,0.9795381,-0.19959200000000002,-0.326106,29.4,17.64,22.96
1082,10434114,1.015406,-0.25302800000000003,-0.35538600000000004,9.0825,17.78,21.665
1083,10434211,1.158634,-0.20642399999999997,-0.462624,0.0,22.9075,21.8575
1084,10434308,1.338096,-0.182024,-0.518012,-0.6475,22.6275,21.35
1085,10434404,1.5001120000000001,-0.13785999999999998,-0.54595,-0.035,14.07,19.2325
1086,10434501,1.574898,-0.107482,-0.459208,3.15,8.7325,13.4925
1087,10434598,1.449482,-0.11211800000000001,-0.407358,5.53,8.4875,9.415
1088,10434695,1.41215,-0.076616,-0.45152200000000003,-4.5675,9.835,2.5025
1089,10434791,1.43411,-0.127368,-0.390522,-7.0175,12.81,-0.2275
1090,10434888,1.429474,-0.18873399999999999,-0.367586,-13.9475,13.4575,-0.35
1091,10434985,1.361276,-0.192272,-0.28792,-21.175,6.895,-2.1525
1092,10435081,1.2524520000000001,-0.183488,-0.224846,-25.5325,7.8575,-2.6425
1093,10435178,1.158634,-0.123708,-0.17519200000000001,-28.42,14.0,-2.24
1094,10435275,1.079944,-0.102968,-0.143594,-30.5375,15.085,-3.1325
1095,10435372,1.0171139999999999,-0.09333,-0.09942999999999999,-29.6975,11.305,-5.53
1096,10435468,0.92232,-0.06941801,-0.0793,-28.6125,9.24,-6.965
1097,10435565,0.8812059999999999,-0.060024,-0.038551999999999996,-27.58,3.5525,-10.675
1098,10435662,0.87108,-0.027816000000000004,-0.02501,-26.425,-1.9775,-16.03
1099,10435758,0.8841341,-0.015616,0.002196,-24.535,-0.5075,-21.9275
1100,10435855,0.8744960999999999,0.008662000999999999,0.01891,-25.375,-0.7875,-25.8125
1101,10435952,0.8371639999999999,0.006222,-0.01098,-25.935,-6.1775,-29.8025
1102,10436049,0.7700640999999999,-0.008174001,-0.019764,-22.75,-13.0725,-33.25
1103,10436145,0.680516,-0.002806,-0.062464,-19.4075,-16.31,-36.2425
1104,10436242,0.6167100000000001,0.013297999999999999,-0.06649,-15.3125,-20.09,-39.515
1105,10436339,0.5675439999999999,0.013663999999999999,-0.08649801,-13.9825,-19.67,-40.74
1106,10436436,0.5072760000000001,0.022813999999999997,-0.07222401,-10.9375,-13.02,-40.74
1107,10436532,0.47079799999999994,0.05209400000000001,-0.05124001,-8.0675,-9.87,-40.5825
1108,10436629,0.4636,0.08857201,-0.058072000000000006,-6.37,-12.4075,-38.3425
1109,10436726,0.47336000000000006,0.101626,-0.034282,-0.28,-12.6525,-33.9325
1110,10436822,0.442616,0.110898,-0.04697001,3.0275,-7.875,-26.7225
1111,10436919,0.41723999999999994,0.07551801,0.00671,5.985,-6.02,-19.495
1112,10437016,0.38856999999999997,0.059658,0.038796,11.06,-3.85,-12.005
1113,10437113,0.385276,0.058926,0.041236,15.2075,-1.68,-5.5125
1114,10437209,0.40381999999999996,0.07015,0.071248,19.4425,1.295,-0.4725
1115,10437306,0.45335200000000003,0.095282,0.055022,25.585,7.07,2.1175
1116,10437403,0.521672,0.1464,0.039162,29.575,9.275,4.4975
1117,10437500,0.609146,0.151036,0.033794,30.5025,10.2375,4.4975
1118,10437596,0.69479,0.130662,0.05770599999999999,29.4525,13.5625,3.5525
1119,10437693,0.80886,0.12175599999999999,0.008784,28.1925,11.7075,0.8575
1120,10437790,0.9627020000000001,0.164578,-0.07856801,23.94,2.38,-3.22
1121,10437887,1.178764,0.104066,-0.052948,17.185,-7.63,-8.645
1122,10437983,1.466928,-0.149572,0.051972000000000004,13.86,-12.075,-13.4925
1123,10438080,1.672986,-0.349408,0.115168,12.2325,-8.82,-18.7425
1124,10438177,1.5525719999999998,-0.350506,0.178608,8.61,-6.7375,-25.445
1125,10438273,1.342122,-0.234118,0.24278000000000002,2.6425,-11.76,-21.1225
1126,10438370,1.2245139999999999,-0.09540401,0.25046599999999997,1.1025,-11.6375,-11.0075
1127,10438467,1.2519639999999999,0.051362,-0.15616,4.8125,-11.06,-3.255
1128,10438564,1.741916,0.11224,-0.5838920999999999,2.7125,-18.515,-9.8
1129,10438660,2.122678,0.061610000000000005,0.013297999999999999,-12.425,-3.185,-42.2625
1130,10438757,1.611376,-0.282308,0.080398,-28.5775,21.28,-49.77
1131,10438854,1.3194299999999999,-0.19178399999999998,-0.431026,-30.695,-9.2225,-25.725
1132,10438951,1.4835200000000002,-0.238144,-0.431758,-36.2775,-23.1175,-17.2725
1133,10439047,1.427278,-0.230458,-0.559004,-38.43,5.985,-16.625
1134,10439144,1.310646,-0.258152,-0.5887720000000001,-39.13,-1.89,-6.4575
1135,10439241,1.266726,-0.23472800000000002,-0.564128,-33.705,-5.4075,1.7675
1136,10439338,1.1808379999999998,-0.028669999999999998,-0.498126,-27.685,4.1475,3.8675
1137,10439434,1.048468,0.18995399999999998,-0.46298999999999996,-25.1825,1.085,3.4475
1138,10439531,1.0248,0.167628,-0.393694,-19.4775,-0.035,-3.395
1139,10439628,1.104222,0.152256,-0.37881,-17.99,4.1125,-8.47
1140,10439724,1.22122,0.18104800000000001,-0.401258,-14.7,1.3825,-10.7275
1141,10439821,1.33285,0.214232,-0.324886,-12.18,-1.8725,-12.5125
1142,10439918,1.398852,0.21777,-0.306952,-9.38,-0.35,-10.1325
1143,10440015,1.399584,0.142862,-0.28633400000000003,-1.855,-4.62,-4.9
1144,10440111,1.305644,0.033794,-0.244,5.39,-13.09,-1.6275
1145,10440208,1.167296,-0.02501,-0.199104,12.67,-19.6,-2.1
1146,10440305,1.057252,-0.043676,-0.166652,17.57,-20.9125,-2.5375
1147,10440402,0.9702661,-0.042822000000000006,-0.136152,20.4925,-16.5025,-1.1375
1148,10440498,0.8841341,-0.022082,-0.11102000000000001,22.3475,-15.19,0.8925
1149,10440595,0.8052,0.00549,-0.09418401,23.45,-16.975,2.1875
1150,10440692,0.7147979999999999,-0.005612,-0.070638,24.01,-16.59,3.85
1151,10440789,0.64904,-0.041846,-0.061366,22.05,-17.4125,5.705
1152,10440885,0.6068279999999999,-0.07442,-0.050263999999999996,21.2625,-17.1325,9.975
1153,10440982,0.5769380999999999,-0.103578,-0.045384,20.86,-12.005,14.245
1154,10441079,0.574864,-0.10736,-0.034282,19.39,-9.8525,16.275
1155,10441175,0.573278,-0.08430201,-0.03294,17.6225,-10.0275,18.0775
1156,10441272,0.550586,-0.09516001,-0.041114,15.2425,-8.0675,20.5275
1157,10441369,0.549732,-0.110898,-0.049898000000000005,11.9175,-11.3925,21.105
1158,10441466,0.54656,-0.10004,-0.046848,9.9575,-15.8375,19.565
1159,10441562,0.549366,-0.12980799999999998,-0.05941401,4.7775,-15.4,18.5675
1160,10441659,0.577426,-0.14518,-0.03477,-0.35,-15.1025,17.7625
1161,10441756,0.608658,-0.15762400000000001,-0.011712,-6.335,-14.8925,15.8025
1162,10441853,0.633668,-0.180804,0.011712,-14.21,-16.3625,12.9325
1163,10441949,0.638304,-0.182756,0.062220000000000004,-20.265,-18.2525,10.78
1164,10442046,0.629764,-0.18104800000000001,0.063684,-29.5925,-19.5825,8.47
1165,10442143,0.628422,-0.15725799999999998,0.11236199999999999,-38.3775,-19.8625,6.8425
1166,10442239,0.6456241,-0.135298,0.082838,-43.435,-17.3425,5.215
1167,10442336,0.68747,-0.127368,-0.00305,-45.7625,-14.9625,5.3725
1168,10442433,0.7104060000000001,-0.14579,0.057218,-36.9425,-10.7625,7.5775
1169,10442530,0.704306,-0.21166999999999997,0.06490399999999999,-25.3225,-2.5025,10.99
1170,10442626,0.7171161,-0.19178399999999998,0.076494,-15.015,2.6075,14.7875
1171,10442723,0.773602,-0.06795401,-0.026474,-7.5075,3.2725,17.64
1172,10442820,0.846558,0.07490801,-0.10540799999999999,0.63,-3.7275,17.6225
1173,10442916,0.9531860000000001,0.12993,-0.156526,15.645,-14.7175,13.9475
1174,10443013,1.118374,0.2196,-0.125538,24.7275,-21.07,11.5675
1175,10443110,1.167662,0.33928200000000003,-0.06563601,21.91,-18.06,9.695
1176,10443207,0.9799041,0.229726,-0.131394,15.5575,-8.995,-4.2525
1177,10443303,0.973194,-0.039894,-0.396012,2.8875,-3.15,-14.49
1178,10443400,1.255624,-0.119316,-0.40809,5.425,2.0825,-4.4975
1179,10443497,1.60552,-0.155428,-0.661606,12.32,14.35,11.9
1180,10443594,1.838418,0.023424,-0.43236800000000003,27.1075,14.875,25.27
1181,10443690,1.8707479999999999,0.215574,-0.662338,37.24,10.1675,24.78
1182,10443787,1.6391919999999998,0.191052,-0.5627861,39.6025,-8.26,22.9075
1183,10443884,1.24135,0.148474,-0.413336,53.6025,-5.7225,20.1075
1184,10443980,0.9628241,-0.069174,-0.233508,44.9225,9.6775,12.18
1185,10444077,0.9254921,-0.291824,-0.254126,32.76,21.7175,7.5425
1186,10444174,1.060912,-0.268522,-0.388814,21.6475,26.0225,10.5
1187,10444271,1.233054,-0.203252,-0.45445,22.4,25.06,11.5325
1188,10444367,1.425692,-0.16409,-0.512888,21.6125,19.005,9.45
1189,10444464,1.473028,-0.190442,-0.35258,25.3225,13.58,8.155
1190,10444561,1.429108,-0.201666,-0.42163199999999995,20.2475,11.5675,1.9075
1191,10444657,1.463268,-0.170312,-0.345016,15.26,-1.5575,-2.485
1192,10444754,1.4746139999999999,-0.236192,-0.29585,11.69,-4.9175,-3.0625
1193,10444851,1.4823,-0.28486999999999996,-0.285968,1.12,-2.835,-5.81
1194,10444948,1.382992,-0.243146,-0.194468,-7.1575,-3.5525,-7.315
1195,10445044,1.265384,-0.20447200000000001,-0.19154000000000002,-16.03,-1.505,-8.96
1196,10445141,1.1683940000000002,-0.13078399999999998,-0.133468,-20.44,5.04,-9.135
1197,10445238,1.064084,-0.061975999999999996,-0.10931199999999999,-25.025,8.575,-9.975
1198,10445334,0.9612379999999999,-0.036844,-0.09186601,-27.475,7.6125,-12.2675
1199,10445431,0.9009700999999999,-0.038796,-0.058072000000000006,-23.9925,5.74,-15.715
1200,10445528,0.8418,-0.025254,-0.051362,-23.03,7.1225,-15.8025
1201,10445625,0.8010520000000001,-0.014274,-0.012565999999999999,-19.9325,7.525,-18.34
1202,10445721,0.751154,-0.038674,-0.0008540001,-18.655,6.51,-22.6625
1203,10445818,0.71004,-0.067222,0.01525,-18.55,2.9925,-27.1425
1204,10445915,0.672708,-0.049898000000000005,0.005368,-18.8475,-3.08,-31.535
1205,10446012,0.6447701,0.00976,-0.032695999999999996,-18.48,-9.415,-35.035
1206,10446108,0.60573,0.050508,-0.052703999999999994,-13.9825,-13.0725,-37.5375
1207,10446205,0.570716,0.06563601,-0.087108,-9.8,-13.265,-39.515
1208,10446302,0.502884,0.110898,-0.065514,-2.905,-11.3225,-39.4275
1209,10446399,0.462258,0.121878,-0.081984,-3.85,-12.6875,-38.885
1210,10446495,0.43785799999999997,0.107116,-0.07612801,-1.0325,-15.5925,-36.82
1211,10446592,0.413336,0.07417601,-0.041968,2.5725,-13.755,-30.765
1212,10446689,0.39113200000000004,0.043554,-0.013786000000000001,3.395,-6.1075,-24.78
1213,10446786,0.38186,0.029889999999999996,0.0061,6.055,-2.8525,-17.99
1214,10446882,0.388326,0.021228,0.021716,8.505,-3.29,-11.76
1215,10446979,0.393572,0.044407999999999996,0.040504000000000005,11.7425,-2.2225,-6.8075
1216,10447076,0.432612,0.07612801,0.05355801,16.5725,2.2575,-2.66
1217,10447172,0.483242,0.111996,0.012931999999999999,19.04,4.795,1.05
1218,10447269,0.5444859999999999,0.118584,-0.02501,21.875,5.8275,2.835
1219,10447366,0.630252,0.11407,0.026718000000000002,24.5,8.5225,1.0675
1220,10447463,0.744688,0.163114,0.047945999999999996,23.415,13.72,-1.505
1221,10447559,0.9322021,0.263642,-0.023668,17.8675,11.97,-4.9175
1222,10447656,1.1920620000000002,0.16506600000000002,0.002684,10.4475,0.315,-9.1175
1223,10447753,1.475834,-0.15420799999999998,0.035013999999999997,6.2475,-9.8875,-9.485
1224,10447850,1.673718,-0.382104,0.085156,7.6475,-11.445,-9.835
1225,10447946,1.505724,-0.33818400000000004,0.154818,12.9325,-4.76,-14.0
1226,10448043,1.2749,-0.14884,0.255468,17.7275,-6.055,-8.365
1227,10448140,1.165466,0.030866,0.287432,22.5925,-12.075,4.83
1228,10448237,1.2043840000000001,0.237656,-0.137494,29.575,-7.42,10.0275
1229,10448333,1.4713200000000002,0.34892,-0.795074,34.9825,-14.2625,5.1275
1230,10448430,2.003362,0.081862,-0.19764,25.4625,-12.0225,-20.685
1231,10448527,1.7940099999999999,-0.22996999999999998,-0.055144000000000006,8.925,28.4375,-45.0275
1232,10448623,1.4868139999999999,-0.429806,-0.540948,-15.435,10.675,-33.985
1233,10448720,1.464,-0.540216,-0.552294,-36.085,-32.1125,-27.58
1234,10448817,1.319674,-0.653676,-0.651602,-49.4025,-12.495,-21.455
1235,10448914,1.250622,-0.662338,-0.5471701,-52.5525,0.28,-8.435
1236,10449010,1.152412,-0.269986,-0.46042799999999995,-41.755,-2.52,4.9
1237,10449107,1.054324,0.07808001,-0.456646,-28.175,-4.725,7.7175
1238,10449204,1.081042,0.17616800000000002,-0.462868,-24.36,-5.4775,0.98
1239,10449300,1.176568,0.223016,-0.456524,-26.53,2.6075,-8.5225
1240,10449397,1.294176,0.224846,-0.438346,-23.1175,5.7925,-13.405
1241,10449494,1.422764,0.245342,-0.38186,-16.485,-3.185,-12.355
1242,10449591,1.4453340000000001,0.19861600000000001,-0.291702,-17.8675,-4.865,-7.1925
1243,10449687,1.397266,0.11333800000000001,-0.35172600000000004,-22.19,-6.195,0.63
1244,10449784,1.3235780000000001,0.038308,-0.302072,-14.63,-15.3125,3.0625
1245,10449881,1.2547700000000002,-0.028548,-0.252662,-6.405,-20.8775,2.555
1246,10449978,1.195966,-0.04453,-0.230458,-0.8575,-23.695,0.98
1247,10450074,1.1289879999999999,-0.034892,-0.202764,3.7275,-25.4625,-0.35
1248,10450171,1.05713,-0.023058000000000002,-0.16897,7.0175,-22.365,-0.6475
1249,10450268,0.987956,-0.013175999999999998,-0.13785999999999998,7.7175,-18.6725,-0.665
1250,10450365,0.921832,-0.010126000000000001,-0.110776,7.8225,-17.99,-1.2425
1251,10450461,0.8494860999999999,-0.027327999999999998,-0.09930800000000001,6.545,-18.2525,-0.9625
1252,10450558,0.7928781,-0.026474,-0.08235001,7.8575,-17.675,-0.875
1253,10450655,0.74664,-0.06124401,-0.06941801,11.165,-16.59,0.105
1254,10450751,0.72102,-0.05977999999999999,-0.04575,14.07,-16.135,2.3625
1255,10450848,0.7032079999999999,-0.099186,-0.039772,16.31,-13.895,5.1975
1256,10450945,0.666852,-0.09650201,-0.046848,16.24,-11.83,8.855
1257,10451042,0.631228,-0.101382,-0.04941,17.255,-8.505,11.1125
1258,10451138,0.564982,-0.10858,-0.044407999999999996,17.85,-4.13,13.475
1259,10451235,0.52155,-0.09869801,-0.047824,16.1525,-2.135,13.055
1260,10451332,0.496296,-0.082838,-0.060024,13.475,-3.71,12.705
1261,10451428,0.496418,-0.1098,-0.0305,12.9325,-8.365,11.83
1262,10451525,0.500688,-0.099186,-0.005368,9.1525,-10.0625,10.6925
1263,10451622,0.513864,-0.10089400000000001,0.02623,1.75,-8.2075,9.2225
1264,10451719,0.534726,-0.12041400000000001,0.046116000000000004,-5.88,-6.825,7.5775
1265,10451815,0.548268,-0.13725,0.07173600000000001,-14.945,-9.975,5.4075
1266,10451912,0.550586,-0.14762,0.089914,-22.9425,-15.925,2.73
1267,10452009,0.567056,-0.16897,0.057584,-29.085,-21.8575,-0.7175
1268,10452106,0.6150021,-0.185928,0.019886,-33.355,-27.7725,-3.64
1269,10452202,0.6674621000000001,-0.199714,0.056974000000000004,-33.1975,-29.1025,-3.57
1270,10452299,0.7169939999999999,-0.230458,0.06649,-29.6975,-21.07,0.315
1271,10452396,0.764208,-0.222406,0.10248,-24.185,-9.1525,6.7375
1272,10452492,0.8282579999999999,-0.11919400000000001,0.07698201,-19.25,-2.52,12.6175
1273,10452589,0.8949921000000001,0.024522,0.002196,-18.6025,-10.0275,17.115
1274,10452686,0.981612,0.085888,-0.05563200000000001,-7.735,-25.165,20.335
1275,10452783,1.035292,0.085522,-0.025986000000000002,9.52,-31.4825,23.7475
1276,10452879,1.075186,0.151524,-0.010736,23.275,-28.56,24.4825
1277,10452976,1.025776,0.24131599999999997,-0.040138,30.31,-28.9275,22.505
1278,10453073,0.859368,0.182634,0.07246799999999999,28.28,-28.2625,14.3325
1279,10453170,0.7407841,0.012078,-0.055022,13.58,-13.8425,1.3125
1280,10453266,0.9784401,-0.23802199999999998,-0.5267960999999999,-10.36,-5.74,-6.755
1281,10453363,1.456192,-0.42016800000000004,-0.33061999999999997,-12.2325,-8.96,1.89
1282,10453460,1.6666419999999997,-0.5261859999999999,-0.252662,0.21,6.1425,16.17
1283,10453556,1.6265040000000002,-0.355142,-0.297558,-4.0075,17.4125,16.485
1284,10453653,1.70373,-0.12285399999999999,-0.49349,-1.575,11.095,11.445
1285,10453750,1.693482,0.085522,-0.638792,5.0575,2.5375,17.185
1286,10453847,1.528538,0.203618,-0.6067060000000001,16.87,-5.915,21.49
1287,10453943,1.242936,0.282918,-0.43322200000000005,24.955,-7.4725,18.795
1288,10454040,0.9595300999999999,0.159698,-0.287066,21.8225,1.68,11.1475
1289,10454137,0.9206120000000001,-0.114558,-0.31049,14.245,12.565,7.0175
1290,10454234,1.081286,-0.145912,-0.402844,9.345,22.75,10.43
1291,10454330,1.27795,-0.134932,-0.426756,8.8725,26.95,11.41
1292,10454427,1.46522,-0.158478,-0.506544,8.7675,22.5225,10.3075
1293,10454524,1.452288,-0.185318,-0.37502800000000003,12.8975,15.8375,7.735
1294,10454620,1.499746,-0.15579400000000002,-0.38552,5.18,7.3675,-2.2225
1295,10454717,1.524268,-0.165432,-0.31842,-0.07,-3.885,-6.23
1296,10454814,1.492426,-0.209596,-0.29292199999999996,-8.3825,-7.7175,-7.2625
1297,10454911,1.4398440000000001,-0.219844,-0.240218,-16.5025,-6.7025,-9.4675
1298,10455007,1.340292,-0.17543599999999998,-0.167018,-21.665,-2.2575,-10.9725
1299,10455104,1.19316,-0.107848,-0.109556,-26.6,1.855,-12.3725
1300,10455201,1.0553,-0.043554,-0.066856,-30.275,7.8225,-13.5275
1301,10455298,0.9320801,-0.020130000000000002,-0.05929201,-31.5,9.345,-14.4375
1302,10455394,0.850706,-0.007564001,-0.042334,-26.355,7.6475,-18.305
1303,10455491,0.7747001,0.007198,-0.03172,-21.875,6.3875,-19.9675
1304,10455588,0.7266321,0.06344,-0.026595999999999998,-15.5575,2.24,-25.06
1305,10455684,0.662826,0.093696,-0.032574,-9.0825,-3.08,-28.5425
1306,10455781,0.617686,0.05172801,-0.006344,-2.8175,-6.685,-32.2
1307,10455878,0.59719,0.057828,-0.03904,-0.07,-9.7825,-36.575
1308,10455975,0.5859661,0.08918200000000001,-0.076494,3.6225,-12.18,-41.0375
1309,10456071,0.5516840000000001,0.086864,-0.093696,10.395,-14.665,-43.435
1310,10456168,0.533384,0.089914,-0.07393200000000001,20.265,-17.6925,-45.01
1311,10456265,0.520574,0.09345201,-0.062586,26.8275,-20.1075,-41.7725
1312,10456362,0.46933400000000003,0.10004,-0.046604,30.31,-19.915,-36.295
1313,10456458,0.4331,0.089792,-0.042089999999999995,31.57,-20.125,-32.97
1314,10456555,0.406138,0.096868,0.007320001,34.7725,-19.145,-27.3875
1315,10456652,0.379664,0.04514,0.012078,35.4725,-14.56,-20.0725
1316,10456748,0.3721,-0.004026,0.033184,34.335,-8.89,-13.1075
1317,10456845,0.39784200000000003,-0.025131999999999998,0.07234600000000001,33.845,-4.55,-6.5275
1318,10456942,0.42944,0.00061,0.080764,34.93,-0.1575,-2.1175
1319,10457039,0.47982600000000003,0.0183,0.04331,34.825,4.375,0.2625
1320,10457135,0.55632,0.004514,-0.029768,35.2975,6.4925,1.365
1321,10457232,0.66551,-0.02928,-0.045627999999999995,34.125,9.345,1.54
1322,10457329,0.765062,0.010004,0.028426,29.995,13.0375,0.245
1323,10457426,0.8805960999999999,0.09979600000000001,-0.047214,25.0075,15.4175,-3.185
1324,10457522,1.0377319999999999,0.10430999999999999,-0.037088,18.9175,9.2925,-7.0
1325,10457619,1.249036,-0.079422,-0.045018,16.345,0.3325,-8.3825
1326,10457716,1.470588,-0.307684,0.004514,17.465,-9.7475,-6.965
1327,10457812,1.60735,-0.382104,0.084912,20.86,-10.3425,-6.5625
1328,10457909,1.491694,-0.238754,0.19397999999999999,20.545,-1.6625,-8.82
1329,10458006,1.302716,-0.10223600000000001,0.243146,23.4325,-1.1375,-1.5925
1330,10458103,1.2408620000000001,0.041236,-0.09150001,29.61,-2.73,8.82
1331,10458199,1.392874,0.153476,-0.615124,34.1075,-7.0875,8.47
1332,10458296,1.7863240000000002,-0.032451999999999995,-0.22448,25.13,-1.33,-8.1725
1333,10458393,1.85257,-0.219356,-0.117974,10.0975,20.4225,-28.8225
1334,10458490,1.658712,-0.31951799999999997,-0.64904,-7.63,9.5375,-28.77
1335,10458586,1.6399240000000002,-0.422364,-0.43981000000000003,-27.755,-9.9225,-26.53
1336,10458683,1.363106,-0.41150600000000004,-0.5866979999999999,-44.7825,5.215,-22.5575
1337,10458780,1.1033680000000001,-0.40016,-0.522648,-40.985,-3.7975,-11.935
1338,10458877,0.9677040000000001,-0.256322,-0.38613000000000003,-28.14,-10.43,-1.8025
1339,10458973,0.920734,0.015616,-0.3782,-20.405,-0.595,0.595
1340,10459070,1.072258,0.21899000000000002,-0.459696,-16.94,0.91,-3.9375
1341,10459167,1.275876,0.282186,-0.5161819999999999,-14.735,3.745,-9.9225
1342,10459263,1.4278879999999998,0.276696,-0.40894400000000003,-15.9075,9.2925,-16.135
1343,10459360,1.45363,0.269986,-0.414678,-12.8975,1.0325,-15.4875
1344,10459457,1.4332559999999999,0.199348,-0.352946,-3.15,-13.615,-9.695
1345,10459554,1.368596,0.12285399999999999,-0.31659,-1.085,-15.61,-7.315
1346,10459650,1.289418,0.050874,-0.292434,2.6775,-13.545,-6.86
1347,10459747,1.232688,-0.005734,-0.239486,10.675,-16.2225,-6.8775
1348,10459844,1.1808379999999998,-0.040382,-0.20069,15.33,-17.01,-6.8075
1349,10459941,1.126182,-0.046116000000000004,-0.170312,17.5175,-17.64,-6.6675
1350,10460037,1.035536,-0.06112201,-0.12895399999999999,17.9375,-16.45,-6.405
1351,10460134,0.93879,-0.080154,-0.10528599999999999,17.1325,-14.8575,-6.02
1352,10460231,0.8420440999999999,-0.09284201,-0.09516001,15.4525,-15.4875,-4.5675
1353,10460327,0.746396,-0.136884,-0.08113001,14.1575,-15.8725,-2.765
1354,10460424,0.6785640000000001,-0.15274400000000002,-0.071614,12.7575,-14.4725,0.07
1355,10460521,0.6439159999999999,-0.15701400000000001,-0.06124401,12.425,-11.34,3.2025
1356,10460618,0.6422081000000001,-0.139812,-0.055754,10.43,-9.2575,7.735
1357,10460714,0.6222,-0.13359000000000001,-0.056729999999999996,8.9425,-9.94,12.18
1358,10460811,0.5903579999999999,-0.150792,-0.055754,7.2625,-10.5175,15.33
1359,10460908,0.558028,-0.15433,-0.061488,5.705,-11.55,17.6225
1360,10461005,0.5313100000000001,-0.11285,-0.061975999999999996,5.145,-11.7775,16.94
1361,10461101,0.49715,-0.07344400000000001,-0.068686,5.075,-12.04,14.8225
1362,10461198,0.45896400000000004,-0.054778,-0.067344,2.905,-15.61,14.42
1363,10461295,0.45445,-0.06771001,-0.054412,-0.875,-17.885,14.3675
1364,10461391,0.48873199999999994,-0.08918200000000001,-0.018666,-5.11,-16.4675,13.16
1365,10461488,0.549122,-0.114436,0.024522,-11.83,-13.9125,11.06
1366,10461585,0.6125619999999999,-0.139568,0.05063,-21.91,-14.2975,7.9975
1367,10461682,0.6605081,-0.14786400000000002,0.07344400000000001,-31.325,-17.6225,4.5325
1368,10461778,0.678076,-0.1342,0.11138599999999999,-40.425,-21.1575,1.505
1369,10461875,0.683566,-0.12993,0.11333800000000001,-47.3375,-21.7875,-1.505
1370,10461972,0.7104060000000001,-0.14469200000000002,0.0366,-53.13,-20.72,-2.3975
1371,10462069,0.7523741,-0.174582,0.032451999999999995,-48.3175,-18.48,-0.49
1372,10462165,0.7829961,-0.200568,0.068564,-31.745,-11.27,5.7575
1373,10462262,0.8086161000000001,-0.2013,0.08479,-22.3825,-2.03,12.6875
1374,10462359,0.8860860999999999,-0.081618,0.016104,-10.4475,-1.54,15.5225
1375,10462456,0.99979,0.080886,-0.07527400000000001,-2.7825,-10.1675,14.595
1376,10462552,1.0706719999999998,0.19959200000000002,-0.142618,12.2325,-16.2925,12.2325
1377,10462649,1.1161780000000001,0.22691999999999998,-0.14469200000000002,27.44,-25.585,8.96
1378,10462746,1.116544,0.27876999999999996,-0.097478,34.2125,-32.62,5.88
1379,10462842,0.9383020000000001,0.255102,0.009150001,27.8425,-28.56,-2.555
1380,10462939,0.7626221,-0.027938,-0.243878,4.7075,-16.765,-16.8525
1381,10463036,0.9262239999999999,-0.23546,-0.5288701,-19.8275,-5.075,-20.72
1382,10463133,1.309914,-0.32574000000000003,-0.39271799999999996,-16.0825,7.525,-6.0025
1383,10463229,1.5992979999999999,-0.28853,-0.234118,-7.2975,24.4475,14.49
1384,10463326,1.7122700000000002,-0.098332,-0.369294,-7.0525,32.3575,21.77
1385,10463423,1.8096259999999997,0.077714,-0.68381,-3.185,19.53,22.8375
1386,10463520,1.7624119999999999,0.228506,-0.675148,15.4,0.245,31.64
1387,10463616,1.393972,0.33000999999999997,-0.407846,33.495,-3.64,35.525
1388,10463713,1.018822,0.17140999999999998,-0.365512,28.0875,1.6975,22.96
1389,10463810,0.8400921,-0.089426,-0.365146,21.91,11.515,12.9675
1390,10463907,0.953674,-0.132126,-0.46250209999999997,17.185,24.675,11.83
1391,10464003,1.210972,-0.11773,-0.46152600000000005,18.62,28.385,15.995
1392,10464100,1.38775,-0.165188,-0.431148,21.84,27.3,17.325
1393,10464197,1.500478,-0.18605,-0.364292,19.32,20.195,11.095
1394,10464293,1.5074319999999999,-0.144204,-0.345138,14.5775,14.1225,1.68
1395,10464390,1.514142,-0.130906,-0.279258,7.28,5.0575,-6.615
1396,10464487,1.4926700000000002,-0.185318,-0.264252,-1.82,-2.5725,-8.6975
1397,10464584,1.42801,-0.202276,-0.204228,-9.2925,-3.185,-11.2175
1398,10464680,1.299544,-0.1647,-0.158966,-14.6475,2.3975,-13.37
1399,10464777,1.16937,-0.13054000000000002,-0.165188,-19.2325,8.2425,-13.615
1400,10464874,1.050664,-0.07259,-0.09784401,-19.565,11.48,-12.1975
1401,10464971,0.952332,-0.034038,-0.07002799999999999,-21.63,15.82,-12.25
1402,10465067,0.861808,-0.02135,-0.05246,-21.14,19.2675,-11.9
1403,10465164,0.815448,-0.013908000000000002,-0.043188,-18.1475,17.9725,-13.5275
1404,10465261,0.7670140000000001,-0.031964,-0.05002,-14.5075,12.9675,-15.5925
1405,10465357,0.715286,-0.017812,-0.025863999999999998,-9.135,4.7425,-17.71
1406,10465454,0.6753920999999999,0.00427,-0.042456,-7.4025,-0.4725,-20.58
1407,10465551,0.625372,0.005734,-0.043432,-5.635,-3.465,-23.135
1408,10465648,0.6202479999999999,0.013175999999999998,-0.033184,-2.5725,-9.31,-27.2125
1409,10465743,0.61793,0.076738,-0.06344,-4.4975,-19.495,-27.9475
1410,10465839,0.58377,0.09930800000000001,-0.064172,-1.3475,-24.8325,-28.42
1411,10465936,0.5231359999999999,0.09991799999999999,-0.050142,4.515,-20.51,-30.94
1412,10466033,0.478972,0.09089001,-0.065514,7.14,-15.54,-32.2175
1413,10466130,0.424804,0.06344,-0.054167999999999994,11.1475,-15.54,-30.8875
1414,10466226,0.38369000000000003,0.033428,-0.00244,14.315,-17.6925,-28.56
1415,10466323,0.383324,-0.002806,0.045384,14.7875,-16.7825,-25.095
1416,10466420,0.374296,-0.01464,0.037942000000000004,15.1375,-11.5325,-19.705
1417,10466517,0.40211199999999997,-0.020496,0.04819,13.965,-9.17,-14.9975
1418,10466613,0.439566,-0.0035380000000000003,0.072956,14.42,-4.9,-9.94
1419,10466710,0.49446599999999996,0.044407999999999996,0.075396,16.87,0.7175,-5.7925
1420,10466807,0.559858,0.09735601,0.032330000000000005,20.58,3.6225,-3.5175
1421,10466904,0.6480640000000001,0.09320801,-0.014152000000000001,25.6025,2.6775,-1.9775
1422,10467000,0.7366361,0.075762,0.024888,28.14,4.69,-2.1525
1423,10467097,0.831918,0.12322000000000001,0.031354,26.39,12.3025,-4.165
1424,10467194,0.993568,0.19032000000000002,-0.055388,18.4625,7.63,-8.575
1425,10467291,1.19865,0.064416,-0.051484,8.5225,-4.7775,-12.8975
1426,10467387,1.4082459999999999,-0.256444,-0.024644,5.635,-10.85,-9.8
1427,10467484,1.487424,-0.470188,0.029768,8.75,-11.585,-3.6925
1428,10467581,1.410198,-0.418704,0.074786,10.01,-3.01,-3.57
1429,10467677,1.252574,-0.21301199999999998,0.208864,10.0975,-1.9775,-0.6825
1430,10467774,1.17547,-0.07503,0.127368,14.49,-5.46,10.7625
1431,10467871,1.245132,0.13078399999999998,-0.46238,20.93,-8.4,18.3575
1432,10467968,1.712148,0.110776,-0.514474,16.485,-13.895,8.7675
1433,10468064,2.017758,-0.05648601,0.020252000000000003,-2.94,8.9425,-17.6925
1434,10468161,1.753628,-0.24436599999999997,-0.401258,-18.7775,17.7975,-27.895
1435,10468258,1.70373,-0.275476,-0.424072,-37.5725,-21.5425,-25.4975
1436,10468355,1.5067,-0.461892,-0.42443800000000004,-55.9475,-12.6525,-24.325
1437,10468451,1.215608,-0.47946000000000005,-0.5294800000000001,-63.735,0.4375,-13.1775
1438,10468548,1.083116,-0.384788,-0.438224,-56.9975,-10.0975,-1.96
1439,10468645,0.9779521000000001,-0.116876,-0.381738,-43.33,-2.1175,5.4075
1440,10468742,0.9845401,0.104554,-0.44713,-34.615,2.905,3.7975
1441,10468838,1.0754299999999999,0.231312,-0.456646,-32.4625,4.2,-3.78
1442,10468935,1.26758,0.271206,-0.5191100000000001,-31.185,12.32,-8.5575
1443,10469032,1.4374040000000001,0.337818,-0.405406,-24.605,17.675,-11.3575
1444,10469128,1.479372,0.349774,-0.343064,-18.4625,6.8075,-7.1925
1445,10469225,1.46278,0.2623,-0.35026199999999996,-17.36,-10.3075,-1.8025
1446,10469322,1.365912,0.181902,-0.305732,-10.7975,-15.785,0.77
1447,10469419,1.2872219999999999,0.076494,-0.27071799999999996,-1.155,-17.7625,0.2975
1448,10469515,1.240618,0.013786000000000001,-0.228872,6.93,-19.4075,-1.9775
1449,10469612,1.1808379999999998,0.009150001,-0.20679,11.2875,-21.1225,-3.0625
1450,10469709,1.102636,-0.005734,-0.177266,15.365,-21.7875,-3.4125
1451,10469806,1.001742,-0.026474,-0.150426,16.7125,-20.5625,-3.4125
1452,10469902,0.9267120000000001,-0.034404000000000004,-0.122,17.185,-19.81,-4.27
1453,10469999,0.8497299999999999,-0.05246,-0.10126,16.5375,-19.0575,-3.85
1454,10470096,0.793976,-0.063928,-0.08857201,16.59,-17.9025,-3.71
1455,10470192,0.76189,-0.07588400000000001,-0.07381001,16.905,-15.96,-2.0825
1456,10470289,0.737734,-0.09272000000000001,-0.065514,17.29,-14.7525,0.6475
1457,10470386,0.7065020000000001,-0.11431400000000001,-0.061610000000000005,17.36,-15.05,5.2325
1458,10470483,0.655506,-0.13298,-0.046848,16.4675,-14.28,11.375
1459,10470579,0.6049981,-0.141764,-0.043432,14.4375,-12.145,16.6075
1460,10470676,0.5648601,-0.12749000000000002,-0.066856,11.9175,-10.29,18.6025
1461,10470773,0.5429,-0.10126,-0.06880801,10.3775,-9.205,17.6225
1462,10470870,0.536556,-0.080276,-0.060024,9.9925,-9.975,15.7325
1463,10470966,0.529358,-0.080154,-0.039528,9.485,-11.0075,13.5625
1464,10471063,0.5192319999999999,-0.071614,-0.012078,5.705,-9.9225,11.375
1465,10471160,0.5160600000000001,-0.08503401,0.016225999999999997,1.2775,-9.065,7.875
1466,10471257,0.522648,-0.101992,0.038064,-5.145,-10.5175,4.6375
1467,10471353,0.540094,-0.09638,0.043554,-14.0525,-12.95,1.9775
1468,10471450,0.56181,-0.09455001,0.055265999999999996,-21.2275,-14.28,-1.26
1469,10471547,0.579012,-0.10833599999999999,0.07417601,-27.3875,-13.0025,-3.955
1470,10471643,0.594262,-0.127002,0.066734,-33.8275,-9.0825,-5.1975
1471,10471740,0.633912,-0.17763199999999998,0.005612,-39.2875,-6.4225,-5.11
1472,10471837,0.67527,-0.23521599999999998,0.090036,-36.505,-5.6875,-1.96
1473,10471934,0.72529,-0.295606,0.09711201,-29.5575,2.66,2.66
1474,10472030,0.768234,-0.212646,-0.020374,-30.1875,7.6825,7.4375
1475,10472127,0.81618,-0.01037,-0.040138,-23.135,1.9425,9.205
1476,10472224,0.88328,0.08235001,-0.081862,-11.9175,-7.3325,10.5175
1477,10472321,0.9892981,0.09821001,-0.073688,0.21,-14.9625,12.6
1478,10472417,1.12362,0.17140999999999998,-0.008296000999999999,10.4125,-14.7875,15.2425
1479,10472514,1.137284,0.22423600000000002,0.033184,19.1625,-10.605,17.605
1480,10472611,0.9178061,0.15420799999999998,0.102114,15.645,-9.765,12.3025
1481,10472708,0.7518859999999999,0.008418,0.116876,2.45,-8.1025,-2.205
1482,10472804,0.7787261,-0.173484,0.125782,-13.9825,-0.5425,-12.9325
1483,10472901,1.00833,-0.438834,-0.41992399999999996,-45.5175,7.91,-15.295
1484,10472998,1.364082,-0.542656,-0.39466999999999997,-55.335,16.0825,-3.325
1485,10473095,1.695312,-0.479338,-0.15555,-23.3975,27.405,15.33
1486,10473191,1.787666,-0.193858,-0.67466,-32.6025,29.8025,21.595
1487,10473288,2.007022,0.23826599999999998,-0.73383,-14.7,8.7325,18.9175
1488,10473385,2.031544,0.595238,-0.8954801,13.7025,-12.1275,32.9875
1489,10473482,1.586854,0.729072,-0.586332,35.9275,-36.9775,46.55
1490,10473578,1.072624,0.49824799999999997,-0.473238,38.955,-34.1775,36.0325
1491,10473675,0.761524,0.090036,-0.294142,34.9825,-12.215,19.6875
1492,10473772,0.794098,-0.161162,-0.265106,28.6475,3.92,11.0425
1493,10473869,0.975512,-0.215696,-0.349652,22.3825,18.7775,14.2625
1494,10473965,1.213168,-0.184342,-0.456768,18.6375,20.37,14.1225
1495,10474062,1.331264,-0.17934,-0.39223,23.38,17.395,14.9625
1496,10474159,1.40422,-0.13176,-0.384422,20.3175,15.75,10.92
1497,10474255,1.44387,-0.041724000000000004,-0.331108,15.505,11.375,1.8375
1498,10474352,1.419348,-0.08601,-0.28548,11.585,5.8625,-5.5475
1499,10474449,1.434842,-0.167262,-0.264374,4.165,-4.9,-9.065
1500,10474546,1.432768,-0.21862399999999999,-0.18666,-0.98,-6.965,-11.025
1501,10474642,1.350662,-0.22082,-0.135298,-5.7925,-4.375,-11.1825
1502,10474739,1.19987,-0.168604,-0.124806,-11.7775,-6.16,-10.5875
1503,10474836,1.078358,-0.13602999999999998,-0.07893401,-12.985,-6.65,-11.235
1504,10474933,0.9764879999999999,-0.09552601,-0.049898000000000005,-14.63,-3.1675,-12.32
1505,10475029,0.9206120000000001,-0.066978,-0.05453401,-16.7825,-1.75,-14.9275
1506,10475126,0.8713241,-0.04392,-0.041236,-16.8175,-2.065,-15.9425
1507,10475223,0.827282,-0.007442,-0.01891,-14.035,-3.675,-18.935
1508,10475320,0.783362,-0.002684,-0.008052001,-11.4275,-4.97,-22.12
1509,10475416,0.75945,-0.0061,-0.002318,-9.52,-7.945,-24.8675
1510,10475513,0.7409060000000001,0.02257,-0.014152000000000001,-8.4525,-10.7625,-28.8225
1511,10475610,0.727364,0.061732,-0.027938,-5.285,-15.4175,-31.115
1512,10475706,0.701012,0.058803999999999995,-0.049044,-1.015,-15.155,-33.6875
1513,10475803,0.661606,0.046360000000000005,-0.05209400000000001,5.25,-14.0875,-35.1225
1514,10475900,0.602558,0.044164,-0.05246,9.5375,-15.295,-34.265
1515,10475997,0.554002,0.0488,-0.05063,12.8975,-17.0275,-34.09
1516,10476093,0.527162,0.06636801,-0.037332,17.1675,-17.2725,-32.9525
1517,10476190,0.516304,0.07137001,-0.009394,19.53,-14.9975,-28.3325
1518,10476287,0.516792,0.060146000000000005,-0.02562,19.565,-14.105,-22.785
1519,10476384,0.537776,0.028182,-0.011224,18.5325,-14.4725,-16.8525
1520,10476480,0.54961,-0.002562,0.015006,17.7975,-10.4125,-9.3625
1521,10476577,0.5414359999999999,0.019642,0.042944,18.13,-4.305,-2.1875
1522,10476674,0.5474140000000001,0.052338,0.029889999999999996,21.14,-1.5225,3.1325
1523,10476771,0.564738,0.066734,-0.005368,23.73,-0.7,7.21
1524,10476867,0.577426,0.07222401,-0.034892,27.825,2.0125,9.45
1525,10476964,0.5918220999999999,0.06588,0.074664,28.035,9.7825,8.89
1526,10477061,0.644892,0.08808401,0.09394001,26.8625,18.97,4.97
1527,10477157,0.7570100000000001,0.166042,-0.010492,20.2825,19.1625,1.82
1528,10477254,0.878034,0.14786400000000002,-0.023180000000000003,14.035,15.295,-1.12
1529,10477351,0.9924700000000001,0.0122,-0.015006,9.0125,12.425,-4.5675
1530,10477448,1.118984,-0.15494000000000002,0.045384,4.5675,11.3225,-6.825
1531,10477544,1.242936,-0.25925,0.07381001,2.7475,13.5275,-7.6125
1532,10477641,1.333826,-0.26608200000000004,0.14566800000000002,0.9975,15.155,-9.065
1533,10477738,1.26819,-0.14274,0.189344,3.9375,15.6975,-6.4575
1534,10477835,1.166808,-0.042944,0.09625801,12.3375,12.6,1.19
1535,10477931,1.178276,0.164578,-0.524112,26.5825,6.2125,6.9125
1536,10478028,1.392508,0.145912,-0.433954,31.36,0.3325,0.49
1537,10478125,1.6532220000000002,-0.099552,-0.117486,15.2425,13.895,-17.1675
1538,10478222,1.600518,-0.148108,-0.45445,12.425,16.345,-31.0975
1539,10478318,1.492548,-0.232654,-0.536678,-1.19,4.1475,-30.415
1540,10478415,1.563674,-0.43737,-0.5903579999999999,-14.385,11.3225,-34.5275
1541,10478512,1.461438,-0.5361899999999999,-0.5437541,-22.7675,11.69,-40.495
1542,10478608,1.233298,-0.584014,-0.349896,-15.8375,-1.1375,-32.515
1543,10478705,1.0260200000000002,-0.29829,-0.283528,-11.5325,-1.0325,-17.115
1544,10478802,1.000156,0.09381801,-0.34465,-13.2475,5.425,-13.3175
1545,10478899,1.22061,0.200568,-0.488122,-11.3925,12.285,-22.4
1546,10478995,1.411174,0.176656,-0.439688,-7.805,8.785,-25.4625
1547,10479092,1.34627,0.1281,-0.30475599999999997,-8.0325,-0.91,-26.53
1548,10479189,1.223904,0.0854,-0.29743600000000003,-6.5625,-9.1,-19.425
1549,10479286,1.222684,0.057462,-0.30561,-2.625,-11.5675,-11.0775
1550,10479382,1.262944,0.02501,-0.296338,-1.75,-11.2525,-7.49
1551,10479479,1.292224,-0.009028000999999999,-0.306098,1.295,-12.7925,-7.6475
1552,10479576,1.274046,-0.028548,-0.29158,7.035,-17.395,-8.19
1553,10479673,1.225368,-0.02196,-0.267058,12.285,-21.1925,-9.1
1554,10479769,1.152656,-0.027816000000000004,-0.24326799999999998,17.1675,-21.805,-10.115
1555,10479866,1.089094,-0.044286,-0.21166999999999997,21.63,-21.1575,-10.36
1556,10479963,1.026386,-0.042822000000000006,-0.18775799999999998,23.9575,-20.2475,-11.0075
1557,10480059,0.951844,-0.061975999999999996,-0.18117,24.675,-19.1625,-11.3225
1558,10480156,0.883158,-0.06649,-0.166042,25.3925,-18.41,-10.255
1559,10480253,0.84851,-0.061366,-0.14090999999999998,26.705,-17.78,-7.735
1560,10480350,0.809836,-0.064782,-0.11773,27.7375,-16.9225,-2.6075
1561,10480446,0.768112,-0.07246799999999999,-0.09711201,27.2125,-16.45,4.13
1562,10480543,0.7418819999999999,-0.08357,-0.083204,27.37,-14.805,8.2075
1563,10480640,0.7195560000000001,-0.093086,-0.076738,27.65,-13.5275,9.625
1564,10480737,0.697108,-0.101016,-0.06941801,27.4925,-13.2125,8.575
1565,10480833,0.672708,-0.115656,-0.080764,25.62,-12.5125,7.455
1566,10480930,0.65514,-0.12675799999999998,-0.082472,23.205,-12.0225,6.0025
1567,10481027,0.653432,-0.114558,-0.049532,21.56,-11.3575,3.15
1568,10481124,0.64904,-0.10052799999999999,-0.028914,19.915,-10.4475,-0.0875
1569,10481220,0.644526,-0.081618,-0.025131999999999998,15.8375,-11.2525,-3.0625
1570,10481317,0.636474,-0.08003201,-0.005734,11.7775,-12.74,-6.3525
1571,10481414,0.640744,-0.081618,0.002928,6.44,-10.0275,-9.8875
1572,10481510,0.662948,-0.0976,0.020252000000000003,1.75,-7.595,-12.495
1573,10481607,0.6882020000000001,-0.116388,0.013663999999999999,-2.17,-8.995,-15.0325
1574,10481704,0.7093081,-0.146156,0.026962,-4.55,-10.885,-17.395
1575,10481801,0.73383,-0.16104000000000002,0.042822000000000006,-6.755,-11.62,-18.27
1576,10481897,0.744688,-0.167506,0.052703999999999994,-7.49,-9.4675,-17.6575
1577,10481994,0.74725,-0.172752,0.043798000000000004,-5.9325,-6.8425,-16.695
1578,10482091,0.743712,-0.151158,0.061,-3.78,-6.09,-15.295
1579,10482188,0.746396,-0.08344800000000001,0.040138,-3.22,-3.7625,-12.6175
1580,10482284,0.794098,0.017202000000000002,0.05002,-5.25,-0.07,-10.64
1581,10482381,0.8657120999999999,0.13115,0.09698999999999999,-8.9425,3.5525,-9.9225
1582,10482478,0.942694,0.135786,0.08442401,-10.6925,8.12,-8.1025
1583,10482575,0.993568,0.07198,0.063684,-7.6825,9.5025,-3.9725
1584,10482671,1.001742,0.034282,0.05856,2.275,7.1225,0.28
1585,10482768,0.9745360000000001,0.00671,0.064172,11.305,2.94,1.435
1586,10482865,0.9206120000000001,-0.029889999999999996,0.103822,15.2775,-2.205,-1.2075
1587,10482961,0.8969440000000001,-0.10345599999999999,-0.013908000000000002,11.9,-5.6,-6.8075
1588,10483058,0.9534301,-0.16689600000000002,-0.22935999999999998,3.3425,-7.0175,-10.815
1589,10483155,1.115324,-0.24668400000000001,-0.46481999999999996,0.2275,-6.335,-10.5875
1590,10483252,1.340536,-0.263398,-0.526308,-3.4825,-4.1125,-2.485
1591,10483348,1.57197,-0.217282,-0.552538,-8.33,-1.5925,4.8825
1592,10483445,1.74948,-0.102846,-0.480436,-3.9375,2.485,10.7625
1593,10483542,1.93858,0.07747001,-0.7027201,3.9375,-2.24,23.345
1594,10483639,1.8359779999999999,0.323544,-0.58743,16.03,-20.405,39.1475
1595,10483735,1.330898,0.377834,-0.3904,18.97,-27.195,41.3525
1596,10483832,0.9489161,0.14493599999999998,-0.30317,13.0375,-20.3,26.5475
1597,10483929,0.8418,-0.05453401,-0.35319,11.6025,-1.0675,17.4125
1598,10484026,0.850706,-0.09028,-0.378444,12.4775,8.365,19.145
1599,10484122,0.865102,-0.04697001,-0.420778,14.2625,11.3575,24.2375
1600,10484219,0.927932,-0.044164,-0.56913,15.3125,11.27,27.3525
1601,10484316,1.050176,0.001098,-0.413458,26.39,4.41,28.035
1602,10484412,1.15656,0.040504000000000005,-0.368196,31.4125,2.695,22.0675
1603,10484509,1.27673,0.061366,-0.302438,33.4775,-2.1875,13.5975
1604,10484606,1.351272,0.031110000000000002,-0.25058800000000003,35.1925,-4.935,6.65
1605,10484703,1.347856,-0.0183,-0.23460599999999998,34.125,-6.5625,0.5425
1606,10484799,1.2961280000000002,-0.049654000000000004,-0.225944,31.0275,-10.6925,-5.425
1607,10484896,1.1808379999999998,-0.081862,-0.199714,30.1,-15.3125,-7.28
1608,10484993,1.060058,-0.09479401,-0.16592,30.94,-14.49,-7.28
1609,10485090,0.981002,-0.058803999999999995,-0.15201199999999998,30.38,-14.385,-8.3125
1610,10485186,0.963434,-0.002928,-0.133102,31.745,-10.5875,-13.055
1611,10485283,0.9450120000000001,0.063318,-0.127246,33.53,-6.895,-15.0325
1612,10485380,0.9497701,0.0793,-0.114802,36.4525,-7.385,-18.06
1613,10485477,0.9516,0.09516001,-0.096868,40.2325,-4.06,-20.7375
1614,10485573,0.9535521,0.08698601,-0.096014,42.91,-3.9025,-22.6275
1615,10485670,0.9131700999999999,0.089914,-0.09235399999999999,46.375,-6.405,-24.7625
1616,10485767,0.899384,0.06539201,-0.077836,50.5575,-8.2425,-27.685
1617,10485863,0.8857200999999999,0.06795401,-0.07588400000000001,55.23,-8.5575,-29.26
1618,10485960,0.8773021000000001,0.043676,-0.072102,58.87,-7.8225,-30.275
1619,10486057,0.84851,0.039772,-0.074664,62.16,-8.435,-30.205
1620,10486154,0.840458,0.033672,-0.064294,66.955,-9.94,-30.66
1621,10486250,0.8282579999999999,0.035868000000000004,-0.068686,71.3475,-11.7075,-29.1375
1622,10486347,0.81862,0.02623,-0.071858,74.7775,-13.405,-27.2825
1623,10486444,0.805688,0.022692,-0.07503,77.63,-13.5975,-25.3925
1624,10486541,0.794342,0.024766,-0.065514,80.6575,-13.4225,-23.6425
1625,10486637,0.786046,0.028914,-0.054167999999999994,84.875,-13.0725,-21.8925
1626,10486734,0.77165,0.037454,-0.057218,89.1625,-11.6025,-20.2475
1627,10486831,0.7592061,0.035502,-0.05843801,94.36,-11.0075,-18.4625
1628,10486928,0.74847,0.014762,-0.05453401,101.9375,-11.34,-16.7125
1629,10487024,0.728096,-0.007320001,-0.030378,108.57,-10.4825,-14.7
1630,10487121,0.724314,-0.01281,-0.029158,115.8325,-8.4,-13.8425
1631,10487218,0.7306581,0.007564001,-0.015982,118.825,-7.2625,-13.72
1632,10487314,0.751154,0.049288,0.004026,120.785,-5.215,-13.8775
1633,10487411,0.832406,0.168238,-0.104798,117.5125,-3.3425,-15.3475
1634,10487508,0.877668,0.21777,-0.164212,110.6,-4.3925,-18.2
1635,10487605,0.820572,0.10394400000000001,-0.093696,106.5225,-3.78,-20.7025
1636,10487701,0.846558,-0.010126000000000001,-0.103578,102.83,-4.3225,-22.785
1637,10487798,0.9052401,-0.08344800000000001,-0.05429,100.625,-2.555,-25.2175
1638,10487895,0.9552601000000001,-0.187026,-0.00427,97.37,2.065,-25.2175
1639,10487992,0.987956,-0.219966,-0.003172,94.255,2.905,-22.9425
1640,10488088,0.9886881,-0.139812,-0.049166,96.1975,3.01,-21.6125
1641,10488185,0.9598959999999999,-0.09674601,-0.166408,99.03251,2.905,-20.4575
1642,10488282,0.9749021000000001,-0.125416,-0.208986,101.3075,3.99,-19.25
1643,10488378,1.0492,-0.20556999999999997,-0.15006,99.6275,8.5925,-19.2325
1644,10488475,1.143628,-0.158112,-0.229726,95.7075,12.6175,-21.4025
1645,10488572,1.2286620000000001,-0.077348,-0.47946000000000005,90.7375,9.8,-25.48
1646,10488669,1.343464,-0.161528,-0.605974,84.6125,2.485,-30.7475
1647,10488765,1.479006,-0.366976,-0.544242,77.49,1.33,-38.1325
1648,10488862,1.43899,-0.46933400000000003,-0.393694,75.0925,3.5175,-47.53
1649,10488959,1.196942,-0.381128,-0.325008,75.0575,0.14,-52.0275
1650,10489056,1.043466,-0.28121,-0.25071,76.5975,-4.9175,-48.9475
1651,10489152,1.095804,-0.17140999999999998,-0.198494,77.1575,2.5725,-43.7675
1652,10489249,1.176568,-0.08601,-0.205814,79.0125,5.3025,-39.515
1653,10489346,1.18584,-0.052703999999999994,-0.223138,82.915,-0.595,-36.2775
1654,10489443,1.145458,-0.028548,-0.218746,84.4025,-3.0275,-35.4375
1655,10489539,1.128134,-0.035868000000000004,-0.20642399999999997,84.1925,-3.71,-34.265
1656,10489636,1.130818,-0.03782,-0.21008400000000002,83.8425,-8.26,-30.8525
1657,10489733,1.1660760000000001,-0.027694,-0.21386599999999997,85.97751,-15.5925,-27.3525
1658,10489830,1.19011,-0.026474,-0.209108,89.215,-19.5125,-24.0625
1659,10489926,1.169492,-0.04941,-0.185074,92.9775,-20.8425,-22.2425
1660,10490023,1.128744,-0.057584,-0.180804,95.4625,-23.7475,-22.0675
1661,10490120,1.084946,-0.048068,-0.20008,96.9675,-24.92,-22.3125
