,T,ax,ay,az,gx,gy,gz
0,970163,0.262544,0.193736,-0.74664,19.5475,-19.67,-17.5175
1,970316,0.294508,0.21081599999999998,-0.8788879999999999,26.2675,-67.62001,5.1625
2,970414,0.30548800000000004,0.228384,-0.9616040000000001,55.02,-129.57,43.3475
3,970513,0.30475599999999997,0.23301999999999998,-0.965752,36.6625,-112.5775,-15.575
4,970611,0.305244,0.22472399999999998,-0.949892,-3.99,-5.915,-4.34
5,970709,0.303292,0.223748,-0.9408639999999999,-2.1,-3.4125,-3.9725
6,970807,0.30548800000000004,0.22252800000000003,-0.9398880999999999,-2.275,-3.4825,-3.99
7,970905,0.30744,0.223992,-0.9413520000000001,-2.8175,-3.605,-4.025
8,971003,0.30622,0.23692399999999997,-0.9572120999999999,-2.1525,-4.2525,-4.0075
9,971101,0.30622,0.242048,-0.9703879999999999,1.5575,-4.9175,-3.815
10,971199,0.309636,0.24912399999999998,-0.9857600000000001,8.295,-5.25,-3.2725
11,971297,0.309148,0.25986,-1.029924,20.0375,-5.425,-2.6075
12,971395,0.314272,0.312076,-1.354932,34.825,-5.2325,-1.8725
13,971494,0.316712,0.027572000000000003,-0.41723999999999994,62.2475,-5.355,-1.5225
14,971592,0.30622,0.191052,-0.9315921,22.9425,-7.5775,-3.15
15,971690,0.27889200000000003,0.20496,-0.898164,6.2475,-6.44,-3.99
16,971788,0.305,0.217404,-0.9018241,2.59,-3.3425,-4.0075
17,971886,0.300608,0.199348,-0.9286639999999999,3.1675,-4.2525,-3.8325
18,971984,0.30378,0.205692,-0.9330560999999999,2.415,-4.6725,-3.745
19,972082,0.304268,0.199348,-0.9381801,2.275,-4.69,-3.6925
20,972180,0.30402399999999996,0.200324,-0.9381801,2.2225,-4.8125,-3.78
21,972279,0.303292,0.20105599999999998,-0.9394,1.96,-4.8825,-3.7275
22,972377,0.308172,0.197152,-0.9437921,0.945,-4.6375,-3.6925
23,972475,0.302804,0.2074,-0.9459880999999999,-1.2425,-3.85,-3.6925
24,972573,0.30744,0.202764,-0.9415959999999999,-2.0825,-2.9575,-3.465
25,972671,0.30036399999999996,0.206668,-0.935008,-1.89,-3.6225,-3.6225
26,972769,0.301584,0.205936,-0.9325680000000001,-1.4,-3.7625,-3.675
27,972867,0.305244,0.202276,-0.9347639999999999,-0.9975,-3.8325,-3.78
28,972965,0.307196,0.202764,-0.9335440999999999,-0.7875,-4.13,-3.9375
29,973063,0.30622,0.203984,-0.9347639999999999,-0.56,-4.2175,-4.0425
30,973162,0.305976,0.20642399999999997,-0.9345201,-0.2975,-4.48,-4.165
31,973260,0.30353600000000003,0.203984,-0.9354959999999999,-0.0525,-4.69,-4.305
32,973358,0.304512,0.20618000000000003,-0.9372040999999999,0.0,-4.795,-4.235
33,973456,0.30475599999999997,0.205204,-0.936472,-0.0875,-4.97,-4.2
34,973554,0.30475599999999997,0.206668,-0.93696,-0.0525,-5.1275,-4.13
35,973652,0.30402399999999996,0.20252,-0.9330560999999999,-0.0875,-5.11,-4.1125
36,973750,0.30134,0.203496,-0.9372040999999999,-0.1925,-5.005,-4.165
37,973848,0.300852,0.203252,-0.936472,-0.1225,-4.8825,-4.305
38,973946,0.296704,0.20178800000000002,-0.936472,0.2625,-4.7775,-4.3575
39,974045,0.303292,0.20691199999999998,-0.9362280000000001,0.42,-4.655,-4.3925
40,974143,0.30256,0.205448,-0.9386681,0.4375,-4.4275,-4.4275
41,974241,0.30548800000000004,0.20618000000000003,-0.9376921,0.0875,-4.2,-4.4625
42,974339,0.303292,0.212524,-0.9330560999999999,0.0175,-4.1475,-4.48
43,974437,0.30353600000000003,0.213988,-0.9315921,0.14,-4.2875,-4.48
44,974535,0.307684,0.21594000000000002,-0.93086,0.2975,-4.445,-4.4625
45,974633,0.302804,0.207156,-0.9335440999999999,0.5425,-4.7075,-4.55
46,974731,0.302804,0.21520799999999998,-0.9315921,0.8400001,-4.9175,-4.62
47,974830,0.300852,0.2074,-0.9337880999999999,0.91,-4.9875,-4.5675
48,974928,0.298168,0.206668,-0.934276,0.49,-4.7775,-4.4625
49,975026,0.297192,0.209352,-0.9357401,0.0,-4.4625,-4.4625
50,975124,0.30134,0.21228000000000002,-0.9345201,-0.28,-3.9725,-4.4625
51,975222,0.299632,0.21520799999999998,-0.9286639999999999,-0.35,-3.7625,-4.515
52,975320,0.30134,0.217892,-0.9296399999999999,-0.3325,-3.7625,-4.48
53,975418,0.30134,0.21886799999999998,-0.930372,0.175,-3.9375,-4.41
54,975516,0.300852,0.216428,-0.9318360000000001,0.665,-3.9025,-4.2175
55,975614,0.300852,0.214232,-0.930616,0.98,-3.85,-4.1125
56,975713,0.30134,0.214232,-0.9301280000000001,1.295,-3.7975,-3.885
57,975811,0.30182800000000004,0.21057199999999998,-0.9328120000000001,1.68,-3.885,-3.85
58,975909,0.30378,0.215696,-0.9325680000000001,1.785,-3.9375,-3.78
59,976007,0.30353600000000003,0.21447600000000003,-0.9318360000000001,1.8025,-3.885,-3.71
60,976105,0.304512,0.209352,-0.9340321,1.9075,-3.9725,-3.7275
61,976203,0.306464,0.20984,-0.9354959999999999,1.8725,-4.0775,-3.7275
62,976301,0.307196,0.208864,-0.9396440999999999,1.4,-4.095,-3.745
63,976399,0.30744,0.21032800000000001,-0.9396440999999999,0.385,-4.1475,-3.815
64,976497,0.304268,0.211304,-0.9406200000000001,-0.7,-3.85,-3.85
65,976596,0.310856,0.200568,-0.9520881,-2.45,-3.36,-3.85
66,976694,0.314272,0.200812,-0.948184,-5.425,-3.01,-3.92
67,976792,0.304512,0.209596,-0.9391560999999999,-7.525,-3.115,-4.13
68,976890,0.307196,0.22057600000000002,-0.934276,-7.98,-3.15,-4.1475
69,976988,0.313052,0.231068,-0.93086,-7.8575,-3.08,-4.025
70,977086,0.307196,0.23668000000000003,-0.9240280000000001,-7.35,-3.2025,-3.43
71,977184,0.29743600000000003,0.20788800000000002,-0.9286639999999999,-6.405,-3.465,-2.555
72,977282,0.298412,0.175924,-0.9472079999999999,-6.65,-3.0275,-2.5725
73,977381,0.30866,0.196176,-0.94916,-8.785,-2.4675,-3.255
74,977479,0.323056,0.20447200000000001,-0.9494040000000001,-11.0425,-2.4675,-3.7625
75,977577,0.32818,0.20374,-0.9476959999999999,-13.4575,-3.57,-4.06
76,977675,0.33916,0.217404,-0.9537959999999999,-16.03,-4.8825,-3.9725
77,977773,0.363316,0.21838000000000002,-0.9784401,-20.1425,-5.6525,-3.36
78,977871,0.42187600000000003,0.185196,-1.036756,-28.9625,-6.3175,-2.66
79,977969,0.483364,0.153232,-1.115324,-44.205,-8.68,-1.575
80,978067,0.553636,0.10516400000000001,-1.1533879999999999,-64.575,-14.245,0.245
81,978165,0.468724,0.09052401,-1.136552,-81.655,-24.605,3.2725
82,978264,0.36234,0.211548,-1.007232,-92.68001,-35.1225,3.4475
83,978362,0.17616800000000002,0.457012,-1.010404,-94.2725,-39.62,-0.8575
84,978460,0.294752,0.49654,-0.9564799999999999,-72.8525,-41.23,-8.3825
85,978558,0.30353600000000003,0.40992,-0.909632,-54.355,-39.9875,-11.69
86,978656,0.293532,0.25790799999999997,-0.9320801,-46.2175,-39.7075,-12.8975
87,978754,0.188124,0.149816,-0.907192,-37.59,-42.98,-11.0775
88,978852,0.155672,0.07222401,-0.9171961,-32.97,-46.62,-5.04
89,978950,0.135664,-0.0122,-0.9325680000000001,-24.9375,-48.09,6.335
90,979048,0.171044,-0.23082399999999997,-1.078236,-18.62,-48.7025,22.3825
91,979147,0.202276,-0.393084,-1.187792,-14.2275,-54.7575,43.855
92,979245,0.219356,-0.39528,-1.1507040000000002,-16.135,-64.34751,68.3375
93,979343,0.249856,-0.391864,-1.17242,-11.025,-72.695,95.5675
94,979441,0.3965,-0.499468,-1.238788,-5.1975,-80.36,125.23
95,979539,0.377224,-0.368684,-1.130452,-7.63,-89.79251,160.5275
96,979637,0.385764,-0.09418401,-1.186084,-14.1575,-101.395,191.3625
97,979735,0.30036399999999996,-0.020984,-0.948184,2.205,-110.915,209.9825
98,979833,0.215696,0.13298,-0.742004,7.175,-113.6975,217.9975
99,979931,0.115656,0.223016,-0.590968,14.0,-106.015,222.985
100,980030,0.03172,0.424072,-0.48653599999999997,12.285,-93.1175,221.6725
101,980128,-0.023424,0.54656,-0.327204,23.9925,-73.85,212.1
102,980226,-0.014396,0.528992,-0.251076,45.92,-47.81,199.535
103,980324,0.06490399999999999,0.4636,-0.334036,59.3075,-19.705,186.0425
104,980422,0.18544000000000002,0.465552,-0.550708,52.8675,5.0575,170.03
105,980520,0.374296,0.564128,-0.849608,28.91,20.9825,150.9025
106,980618,0.538996,0.7300479999999999,-1.077504,-0.0175,22.3825,128.6775
107,980716,0.6514800000000001,0.8781559999999999,-1.065548,-15.96,15.715,103.95
108,980814,0.6653880999999999,0.534116,-0.61,-20.195,14.7,83.86001
109,980913,0.6851520999999999,1.063352,-0.6517241,-70.7175,20.1425,72.24
110,981011,0.690032,1.248304,-0.85888,-75.4775,21.5075,55.5975
111,981109,0.5690081,1.132892,-0.8693719999999999,-28.385,26.53,33.1625
112,981207,0.43627200000000005,1.071648,-0.9950319999999999,0.5075,23.4325,1.4875
113,981305,0.393816,1.0016200000000002,-0.964044,8.0675,20.1775,-29.785
114,981403,0.3477,0.61732,-0.8937719999999999,30.45,23.065,-48.1775
115,981501,0.264984,0.35502,-0.9833200000000001,38.9375,24.29,-58.0125
116,981599,0.249856,0.172264,-1.002108,37.0475,22.435,-63.91
117,981697,0.165432,-0.089304,-0.835456,37.065,23.205,-62.9825
118,981796,0.09930800000000001,-0.356484,-0.8271601000000001,35.4725,28.7,-51.345
119,981894,0.027083999999999997,-0.437492,-0.9962521000000001,26.145,36.2775,-29.3825
120,981992,0.60634,-0.364048,-1.339072,40.95,30.835,-7.42
121,982090,0.669292,0.325984,-1.0145520000000001,28.6475,10.15,-3.9025
122,982188,0.378444,0.377224,-0.8132520999999999,10.0275,0.7175,-13.7025
123,982286,0.329888,0.165676,-1.0121120000000001,12.74,-1.8025,-17.92
124,982384,0.228384,0.063684,-0.9774639999999999,9.415,-3.29,-16.7475
125,982482,0.30792800000000004,0.334036,-0.9113399999999999,1.7675,-2.625,-15.8375
126,982581,0.354288,0.461404,-0.86864,4.0425,-0.9975,-13.3875
127,982679,0.305976,0.25986,-0.9052401,13.055,0.5425,-9.8525
128,982777,0.282552,0.141276,-0.9589200999999999,15.8025,0.5775,-7.1225
129,982875,0.292068,0.182024,-0.944524,12.2675,-0.1925,-6.055
130,982973,0.30744,0.233752,-0.9284200999999999,9.73,-0.665,-6.02
131,983071,0.30012,0.22204000000000002,-0.927688,9.5725,-0.7525,-5.8275
132,983169,0.30134,0.21618400000000002,-0.930616,9.87,-0.9625,-5.4775
133,983267,0.310368,0.23472800000000002,-0.9247601000000001,10.3425,-1.155,-5.18
134,983365,0.308904,0.230336,-0.9225639999999999,11.2875,-1.295,-5.005
135,983463,0.309392,0.208864,-0.9293961,12.53,-1.47,-5.145
136,983562,0.305732,0.20008,-0.9328120000000001,12.5825,-1.8375,-5.5475
137,983660,0.30548800000000004,0.193004,-0.935984,12.18,-1.9425,-5.9675
138,983758,0.306952,0.181292,-0.9396440999999999,11.6725,-1.9075,-6.3175
139,983856,0.3111,0.194712,-0.936472,10.3775,-2.1175,-6.2125
140,983954,0.3111,0.207156,-0.9335440999999999,9.8,-2.38,-5.915
141,984052,0.31012399999999996,0.203496,-0.9291520000000001,9.9225,-2.6075,-5.285
142,984150,0.31402800000000003,0.194468,-0.936716,10.045,-2.7125,-4.655
143,984248,0.31890799999999997,0.191052,-0.936716,9.4325,-2.905,-4.2525
144,984346,0.315492,0.18056,-0.9440360999999999,8.3825,-3.3425,-4.1125
145,984445,0.30866,0.182268,-0.9389120000000001,7.0525,-3.6925,-4.0425
146,984543,0.309148,0.191296,-0.9376921,6.0375,-3.9725,-4.025
147,984641,0.305,0.185928,-0.935984,5.39,-3.7625,-3.955
148,984739,0.303048,0.191052,-0.9315921,4.9175,-3.6925,-3.7625
149,984837,0.302804,0.191052,-0.9293961,4.83,-3.6225,-3.465
150,984935,0.299632,0.200568,-0.9272,4.9,-3.4475,-3.22
151,985033,0.29792399999999997,0.189832,-0.9301280000000001,5.3025,-3.045,-2.8525
152,985131,0.304268,0.184952,-0.9337880999999999,5.6,-2.6425,-2.6075
153,985230,0.315004,0.189344,-0.935984,5.285,-2.3975,-2.73
154,985328,0.31402800000000003,0.18104800000000001,-0.9403761,4.7075,-2.2925,-2.8
155,985426,0.313052,0.180072,-0.9398880999999999,4.06,-2.3275,-2.94
156,985524,0.315492,0.182268,-0.9386681,3.5,-2.3975,-3.01
157,985622,0.311344,0.175924,-0.9403761,3.2375,-2.485,-3.15
158,985720,0.320128,0.17934,-0.9325680000000001,2.9925,-2.8525,-3.325
159,985818,0.320616,0.177876,-0.9330560999999999,2.9225,-3.745,-3.5175
160,985916,0.31598000000000004,0.180072,-0.9328120000000001,3.115,-4.8125,-3.7275
161,986014,0.313052,0.183976,-0.93086,3.36,-5.7925,-3.815
162,986113,0.31012399999999996,0.183976,-0.9357401,3.6225,-6.3,-3.8675
163,986211,0.305244,0.18470799999999998,-0.9352520000000001,3.6575,-6.5625,-3.815
164,986309,0.306952,0.17763199999999998,-0.935984,3.605,-6.3175,-3.7625
165,986407,0.310612,0.17568,-0.9354959999999999,3.3075,-6.16,-3.6575
166,986505,0.306464,0.171044,-0.9337880999999999,2.9575,-6.2125,-3.8675
167,986603,0.302072,0.17202,-0.9354959999999999,2.4325,-6.1075,-3.9725
168,986701,0.302804,0.179828,-0.937448,1.995,-5.635,-4.06
169,986799,0.304512,0.183488,-0.935984,1.68,-5.1975,-4.06
170,986898,0.3111,0.181292,-0.9347639999999999,1.61,-4.9175,-3.9725
171,986996,0.313296,0.18251199999999998,-0.9330560999999999,1.505,-4.935,-3.85
172,987094,0.313296,0.18251199999999998,-0.9340321,1.4525,-5.3025,-3.9375
173,987192,0.306708,0.19032000000000002,-0.9330560999999999,1.435,-5.39,-4.1825
174,987290,0.308904,0.182024,-0.9357401,1.7675,-5.5475,-4.0425
175,987388,0.304268,0.189832,-0.9347639999999999,1.8375,-5.39,-4.06
176,987486,0.303048,0.182024,-0.9391560999999999,1.6275,-4.8825,-3.99
177,987584,0.30256,0.17934,-0.9328120000000001,1.2775,-4.34,-3.955
178,987682,0.302072,0.175924,-0.93696,1.1375,-4.1125,-3.9375
179,987781,0.30256,0.174216,-0.9394,1.2775,-3.7275,-3.885
180,987879,0.305976,0.185928,-0.9352520000000001,1.155,-3.5525,-3.8675
181,987977,0.30988000000000004,0.183,-0.936716,1.33,-3.465,-3.7275
182,988075,0.31598000000000004,0.180072,-0.936716,1.2775,-3.6225,-3.71
183,988173,0.317444,0.18104800000000001,-0.9354959999999999,1.155,-4.06,-3.815
184,988271,0.30988000000000004,0.17763199999999998,-0.93696,0.8575,-4.41,-3.9725
185,988369,0.30402399999999996,0.182024,-0.9384239999999999,0.315,-4.375,-4.095
186,988467,0.304268,0.18666,-0.937448,-0.42,-3.99,-4.1475
187,988565,0.313052,0.186172,-0.9530641,-1.7325,-2.8875,-3.9025
188,988664,0.30402399999999996,0.18056,-0.9511120000000001,-5.6875,-0.9275,-3.395
189,988762,0.327936,0.17519200000000001,-0.9435479999999999,-8.785,1.085,-3.325
190,988860,0.3233,0.164944,-0.9384239999999999,-9.8,0.21,-3.9725
191,988958,0.31646799999999997,0.1769,-0.9311040999999999,-10.4475,-1.995,-4.4975
192,989056,0.312564,0.1952,-0.9259799999999999,-10.0975,-3.465,-4.935
193,989154,0.315736,0.20496,-0.916952,-8.9775,-4.445,-5.04
194,989252,0.315736,0.203496,-0.9201241,-7.4025,-4.9875,-5.0225
195,989350,0.32086,0.20105599999999998,-0.9206120000000001,-5.985,-5.635,-5.2675
196,989449,0.30988000000000004,0.19154000000000002,-0.928176,-4.795,-6.3875,-5.5825
197,989547,0.298656,0.213256,-0.916464,-4.0775,-6.895,-5.6
198,989645,0.299632,0.217892,-0.916952,-2.6775,-6.65,-5.4075
199,989743,0.30012,0.204228,-0.9267120000000001,-0.7525,-6.3875,-4.7775
200,989841,0.2989,0.193736,-0.9301280000000001,0.3675,-6.195,-4.4625
201,989939,0.300608,0.195932,-0.9286639999999999,0.5425,-5.8975,-4.4275
202,990037,0.303048,0.19764,-0.9289081,0.8925,-5.6525,-4.4975
203,990135,0.305244,0.202032,-0.9293961,1.3475,-5.4075,-4.41
204,990233,0.305976,0.20252,-0.9320801,1.575,-5.18,-4.305
205,990332,0.316956,0.199104,-0.9354959999999999,1.225,-5.005,-4.1825
206,990430,0.31598000000000004,0.21032800000000001,-0.9315921,0.0525,-5.3025,-4.13
207,990528,0.32574000000000003,0.201544,-0.9389120000000001,-0.7525,-5.74,-3.745
208,990626,0.336476,0.180316,-0.960628,-4.7775,-5.6175,-3.6575
209,990724,0.311344,0.185196,-0.9347639999999999,-9.5375,-6.65,-3.5
210,990822,0.28914,0.205692,-0.9240280000000001,-11.375,-7.245,-3.745
211,990920,0.292068,0.21032800000000001,-0.9198799999999999,-10.5875,-6.7025,-3.675
212,991018,0.300852,0.198128,-0.916464,-9.065,-6.37,-3.3425
213,991117,0.291824,0.20447200000000001,-0.9208561,-7.49,-6.09,-3.815
214,991215,0.29572800000000005,0.21008400000000002,-0.9254921,-5.74,-5.8625,-4.0775
215,991313,0.30134,0.199348,-0.928176,-4.515,-5.53,-4.1825
216,991411,0.303292,0.196176,-0.931348,-4.06,-5.7225,-4.5325
217,991509,0.299388,0.220088,-0.9189040999999999,-3.36,-6.3875,-4.8125
218,991607,0.29572800000000005,0.233996,-0.9167081,-1.365,-6.9475,-4.6375
219,991705,0.296704,0.229604,-0.9054840000000001,1.575,-7.245,-3.955
220,991803,0.28426,0.243024,-0.9042641,4.7425,-7.2275,-3.78
221,991901,0.29426399999999997,0.226188,-0.9152440000000001,8.435,-7.3675,-3.08
222,992000,0.29597199999999996,0.21813600000000002,-0.919392,11.55,-7.4025,-2.765
223,992098,0.295484,0.21886799999999998,-0.922076,14.14,-7.6825,-2.5025
224,992196,0.291092,0.221552,-0.918416,15.8725,-7.1925,-2.415
225,992294,0.30378,0.209596,-0.9262239999999999,16.73,-6.2125,-2.6075
226,992392,0.302072,0.19861600000000001,-0.9330560999999999,16.2925,-5.5475,-2.9575
227,992490,0.305976,0.197152,-0.9347639999999999,14.8225,-5.215,-3.185
228,992588,0.302072,0.19642,-0.936716,13.5975,-4.8825,-3.57
229,992686,0.30792800000000004,0.19178399999999998,-0.9381801,12.1625,-4.41,-3.71
230,992785,0.302804,0.187636,-0.9394,10.85,-4.1125,-3.85
231,992883,0.302316,0.190808,-0.935984,9.625,-4.13,-3.955
232,992981,0.30134,0.185196,-0.9335440999999999,8.995,-4.1475,-3.9025
233,993079,0.30036399999999996,0.1891,-0.9340321,8.47,-4.4625,-3.955
234,993177,0.30134,0.185684,-0.9333,8.2775,-4.62,-3.9725
235,993275,0.300608,0.187392,-0.936716,7.9975,-4.8475,-3.92
236,993373,0.302072,0.189588,-0.9337880999999999,7.595,-4.9175,-3.92
237,993471,0.300608,0.200324,-0.928176,7.5075,-5.0925,-3.9375
238,993569,0.298656,0.190076,-0.931348,7.875,-5.005,-3.9025
239,993668,0.295484,0.187392,-0.9289081,7.8225,-4.9,-3.9725
240,993766,0.299144,0.190076,-0.931348,7.7175,-4.9175,-3.85
241,993864,0.30036399999999996,0.178852,-0.9381801,7.91,-5.0925,-3.6925
242,993962,0.303048,0.177876,-0.9406200000000001,7.455,-5.3725,-3.465
243,994060,0.296216,0.18104800000000001,-0.9328120000000001,7.175,-5.7575,-3.605
244,994158,0.296216,0.17934,-0.936472,7.035,-5.7575,-3.5175
245,994256,0.299144,0.181536,-0.9384239999999999,6.615,-5.53,-3.3775
246,994354,0.30134,0.178852,-0.9394,6.3175,-5.46,-3.395
247,994453,0.29987600000000003,0.171532,-0.94306,5.95,-5.32,-3.2725
248,994551,0.284504,0.17519200000000001,-0.9376921,5.5125,-4.83,-3.3075
249,994649,0.284748,0.183,-0.9347639999999999,5.6525,-4.5325,-3.1675
250,994747,0.297192,0.180804,-0.936716,6.65,-4.4625,-2.8875
251,994845,0.304268,0.168604,-0.9384239999999999,7.5425,-4.83,-2.87
252,994943,0.30353600000000003,0.17812,-0.9337880999999999,7.49,-5.3375,-3.15
253,995041,0.290848,0.17763199999999998,-0.9289081,6.895,-5.1975,-3.325
254,995139,0.29597199999999996,0.171776,-0.9333,6.5275,-4.865,-3.395
255,995238,0.284748,0.17568,-0.930372,6.65,-5.1275,-3.5
256,995336,0.27889200000000003,0.169824,-0.934276,7.875,-5.2675,-3.4125
257,995434,0.298656,0.177876,-0.9381801,9.1,-4.9175,-2.87
258,995532,0.311832,0.16909200000000002,-0.9372040999999999,9.485,-4.76,-2.485
259,995630,0.30378,0.165188,-0.9376921,8.9775,-5.32,-2.485
260,995728,0.292556,0.156404,-0.9406200000000001,7.98,-5.74,-2.6425
261,995826,0.29524,0.158844,-0.9433041,7.1925,-5.3725,-2.7125
262,995924,0.29743600000000003,0.159576,-0.9442801,6.3875,-4.83,-2.6425
263,996022,0.303048,0.16201600000000002,-0.9415959999999999,5.425,-4.0425,-2.555
264,996121,0.305732,0.14493599999999998,-0.9489161,4.655,-3.535,-2.555
265,996219,0.306464,0.149328,-0.9472079999999999,3.78,-3.745,-2.66
266,996317,0.307684,0.155916,-0.9440360999999999,2.9925,-4.0075,-2.94
267,996415,0.31012399999999996,0.1647,-0.942816,2.2575,-4.2,-3.395
268,996513,0.30256,0.16714,-0.942572,1.9075,-4.3225,-3.9375
269,996611,0.299632,0.167628,-0.942572,1.5575,-4.1825,-3.85
270,996709,0.303292,0.165188,-0.9413520000000001,1.26,-3.92,-3.7275
271,996807,0.30012,0.16689600000000002,-0.942084,1.0325,-3.8325,-3.71
272,996905,0.30353600000000003,0.171776,-0.940132,0.9625,-3.6225,-3.465
273,997003,0.302804,0.165188,-0.9398880999999999,1.1725,-3.745,-3.185
274,997102,0.30134,0.163236,-0.9403761,1.2425,-4.1125,-2.975
275,997200,0.30256,0.155184,-0.9403761,1.4525,-4.3925,-2.94
276,997298,0.299632,0.15396400000000002,-0.9396440999999999,1.5575,-4.69,-3.115
277,997396,0.301584,0.155916,-0.9398880999999999,1.435,-4.795,-3.4475
278,997494,0.304512,0.162504,-0.9396440999999999,1.3125,-4.97,-3.92
279,997592,0.299632,0.163236,-0.9394,1.3125,-5.145,-4.2175
280,997690,0.29792399999999997,0.163236,-0.9376921,1.4,-5.3375,-4.305
281,997788,0.293532,0.165188,-0.940132,1.68,-5.4425,-4.1825
282,997886,0.29524,0.15982000000000002,-0.9391560999999999,1.785,-5.3025,-4.025
283,997985,0.29646,0.159576,-0.9403761,1.7675,-5.04,-3.85
284,998083,0.29402,0.165432,-0.9384239999999999,1.54,-4.83,-3.7975
285,998181,0.299144,0.16689600000000002,-0.936472,1.2775,-4.375,-3.71
286,998279,0.30109600000000003,0.164456,-0.9386681,1.05,-4.06,-3.5875
287,998377,0.30012,0.16714,-0.9391560999999999,0.735,-3.99,-3.6575
288,998475,0.29987600000000003,0.167384,-0.941108,0.42,-3.885,-3.4825
289,998573,0.306464,0.157136,-0.942084,0.3675,-3.8325,-3.2375
290,998671,0.30353600000000003,0.163968,-0.9418401,-0.035,-4.1125,-3.5175
291,998770,0.303048,0.165432,-0.942816,-0.455,-3.9375,-3.675
292,998868,0.302072,0.16714,-0.9379360000000001,-0.77,-3.5525,-3.6925
293,998966,0.29792399999999997,0.161772,-0.9379360000000001,-0.7175,-3.7275,-3.605
294,999064,0.2928,0.16201600000000002,-0.93696,-0.63,-3.99,-3.675
295,999162,0.29133600000000004,0.166164,-0.9335440999999999,-0.49,-3.9725,-3.5525
296,999260,0.28548,0.165188,-0.937448,-0.07,-3.78,-3.3425
297,999358,0.285968,0.167628,-0.937448,0.35,-3.255,-2.9225
298,999456,0.294752,0.17324,-0.9372040999999999,0.8225,-2.6075,-2.6075
299,999555,0.29426399999999997,0.17519200000000001,-0.936716,1.2425,-2.1,-2.275
300,999653,0.300608,0.17397200000000002,-0.936472,1.9775,-1.8025,-1.8025
301,999751,0.305244,0.17128800000000002,-0.9352520000000001,2.52,-1.855,-1.4875
302,999849,0.31524800000000003,0.147376,-0.9376921,2.9575,-2.275,-1.4525
303,999947,0.31354,0.13176,-0.9418401,3.15,-3.5175,-1.96
304,1000045,0.30256,0.144204,-0.9423280999999999,2.5725,-4.83,-2.975
305,1000143,0.299632,0.157136,-0.9398880999999999,2.205,-5.04,-3.5875
306,1000241,0.29792399999999997,0.165188,-0.93696,2.065,-4.97,-3.885
307,1000339,0.300608,0.171776,-0.9357401,2.205,-4.8825,-3.885
308,1000438,0.30036399999999996,0.172508,-0.9381801,2.31,-4.6375,-3.5525
309,1000536,0.300608,0.164212,-0.9384239999999999,2.415,-4.48,-3.2375
310,1000634,0.30182800000000004,0.16226,-0.9376921,2.5725,-4.41,-3.08
311,1000732,0.29768,0.160552,-0.9396440999999999,2.59,-4.4625,-3.0625
312,1000830,0.29768,0.163968,-0.9408639999999999,2.6775,-4.2,-3.0275
313,1000928,0.298412,0.162992,-0.9415959999999999,2.695,-3.85,-2.94
314,1001026,0.30012,0.158356,-0.9394,2.765,-3.43,-2.835
315,1001124,0.306952,0.160796,-0.936472,2.8,-3.2725,-2.94
316,1001223,0.30256,0.161528,-0.9389120000000001,2.8,-3.64,-3.0975
317,1001321,0.302316,0.161528,-0.9384239999999999,2.7125,-3.78,-3.1325
318,1001419,0.301584,0.16201600000000002,-0.9362280000000001,2.5725,-3.64,-3.22
319,1001517,0.30109600000000003,0.161772,-0.9379360000000001,2.3625,-3.605,-3.2375
320,1001615,0.30012,0.162992,-0.9391560999999999,2.065,-3.15,-3.29
321,1001713,0.30402399999999996,0.1586,-0.942816,1.9425,-2.625,-3.185
322,1001811,0.30012,0.15982000000000002,-0.9408639999999999,1.75,-2.485,-3.185
323,1001909,0.30378,0.16104000000000002,-0.9396440999999999,1.7675,-2.3625,-3.22
324,1002007,0.30792800000000004,0.155672,-0.9396440999999999,1.75,-2.17,-3.0975
325,1002106,0.308172,0.15494000000000002,-0.9403761,1.5925,-2.2925,-3.045
326,1002204,0.308172,0.158356,-0.9398880999999999,1.4175,-2.59,-3.045
327,1002302,0.307684,0.15494000000000002,-0.9396440999999999,1.2425,-2.8,-3.255
328,1002400,0.307196,0.154696,-0.9381801,1.1375,-3.0625,-3.36
329,1002498,0.30402399999999996,0.160796,-0.9379360000000001,0.9625,-3.0275,-3.4475
330,1002596,0.30548800000000004,0.161528,-0.93696,0.875,-2.8875,-3.5525
331,1002694,0.30744,0.162748,-0.935984,0.7525,-2.4675,-3.535
332,1002792,0.311832,0.162504,-0.9389120000000001,0.6475,-2.415,-3.5
333,1002890,0.314272,0.163236,-0.9386681,0.5775,-2.765,-3.535
334,1002989,0.314272,0.160064,-0.9340321,0.525,-3.4825,-3.6925
335,1003087,0.314272,0.16128399999999998,-0.9372040999999999,0.385,-4.0425,-3.7975
336,1003185,0.31451599999999996,0.161528,-0.9381801,0.1925,-4.6375,-3.99
337,1003283,0.30622,0.16201600000000002,-0.940132,0.175,-4.7425,-4.0425
338,1003381,0.305732,0.1647,-0.9391560999999999,0.105,-4.48,-4.0425
339,1003479,0.30622,0.165188,-0.935984,0.035,-4.0775,-4.025
340,1003577,0.308904,0.16226,-0.937448,0.07,-3.8675,-3.9025
341,1003675,0.30841599999999997,0.16104000000000002,-0.9357401,0.0175,-3.815,-3.955
342,1003774,0.307196,0.167872,-0.9372040999999999,-0.14,-3.85,-3.92
343,1003872,0.305976,0.173728,-0.9372040999999999,-0.175,-3.535,-3.7625
344,1003970,0.30841599999999997,0.17616800000000002,-0.9379360000000001,-0.2625,-2.6425,-3.5175
345,1004068,0.305,0.174704,-0.9386681,-0.525,-1.54,-3.0275
346,1004166,0.305732,0.169824,-0.9384239999999999,-0.8225,-0.42,-2.7475
347,1004264,0.3111,0.163724,-0.9403761,-1.3825,0.5775,-2.6775
348,1004362,0.323788,0.158356,-0.9440360999999999,-2.8,1.5925,-2.6775
349,1004460,0.32574000000000003,0.168604,-0.9496479999999999,-5.8275,2.415,-2.3275
350,1004558,0.34038,0.158356,-0.9581881,-9.835,3.7975,-1.785
351,1004657,0.354288,0.14396,-0.958432,-14.2625,5.5125,-1.3825
352,1004755,0.37454,0.12980799999999998,-0.9630681000000001,-19.46,5.0925,-1.61
353,1004853,0.3721,0.11102000000000001,-0.9738041,-24.3775,2.3975,-2.24
354,1004951,0.363804,0.08808401,-0.9869800999999999,-31.22,0.0,-2.5725
355,1005049,0.333548,0.10248,-0.9762440999999998,-39.9875,-1.715,-2.4675
356,1005147,0.291824,0.118584,-0.9703879999999999,-47.39,-2.4675,-2.415
357,1005245,0.29792399999999997,0.14518,-0.974292,-52.5175,-1.9425,-1.715
358,1005343,0.277672,0.169336,-0.9620920000000001,-54.53,-0.8225,-0.9975
359,1005441,0.268156,0.187636,-0.9740479999999999,-55.2125,0.2625,0.7
360,1005540,0.252296,0.2135,-0.954284,-56.735,1.8025,4.0075
361,1005638,0.193004,0.21472,-0.9433041,-55.755,4.97,8.5925
362,1005736,0.23424,0.24156,-0.983808,-55.3875,6.2825,13.4225
363,1005834,0.21520799999999998,0.34281999999999996,-1.117764,-50.61,1.6275,19.8275
364,1005932,0.22204000000000002,0.36502399999999996,-1.17486,-28.77,-10.465,25.2875
365,1006030,0.185196,0.27889200000000003,-1.1263040000000002,-4.375,-26.005,28.5775
366,1006128,0.091988,0.203984,-1.013332,6.5975,-38.7625,30.2925
367,1006226,0.033916,0.142496,-0.9025559999999999,8.3125,-46.4625,34.09
368,1006325,-0.00488,0.11736400000000001,-0.8015399999999999,4.7425,-49.035,40.1275
369,1006423,-0.002196,0.113704,-0.74664,-0.805,-48.16,47.5825
370,1006521,0.041724000000000004,0.13664,-0.7451760000000001,-7.28,-45.0275,55.1075
371,1006619,0.101992,0.166164,-0.76494,-14.245,-41.2825,61.46
372,1006717,0.161772,0.212524,-0.7732359999999999,-21.665,-37.765,65.66
373,1006815,0.19397999999999999,0.287432,-0.724436,-28.035,-34.125,66.53501
374,1006913,0.19397999999999999,0.356484,-0.6378159999999999,-31.3775,-27.16,62.8075
375,1007012,0.176656,0.4148,-0.533384,-31.535,-15.1025,54.3375
376,1007110,0.416508,0.534848,-0.645868,-22.1025,7.1225,46.0425
377,1007208,0.5602239999999999,0.10321199999999998,-0.28011199999999997,31.045,46.6375,48.7375
378,1007306,0.543388,0.7998321,-1.9339439999999999,26.775,72.1875,40.915
379,1007404,2.32044,0.6453800000000001,-1.6235760000000001,98.91001,64.6275,1.3125
380,1007502,0.781044,-0.119316,-0.7285841,53.1825,5.53,-11.025
381,1007600,0.383324,-0.039284,-0.9250040999999999,31.605,-34.1775,-11.4975
382,1007698,0.23472800000000002,0.246196,-1.136552,19.04,-46.305,-3.675
383,1007796,-0.010736,0.25742,-0.7983680000000001,14.0875,-45.4475,-1.155
384,1007894,0.066124,0.10760399999999999,-0.8422879999999999,18.41,-25.8125,-4.2
385,1007993,0.23838800000000002,0.023668,-0.972828,20.8425,-8.5925,-2.94
386,1008091,0.325496,0.08954801,-0.9501360999999999,14.315,-1.925,-3.64
387,1008189,0.37576,0.230336,-0.942084,8.9775,-1.89,-6.3175
388,1008287,0.380396,0.28426,-0.94306,7.525,-4.375,-8.4525
389,1008385,0.31451599999999996,0.24326799999999998,-0.9247601000000001,8.785,-5.565,-8.33
390,1008483,0.292556,0.213256,-0.9296399999999999,9.7475,-4.7075,-6.545
391,1008581,0.302072,0.17738800000000002,-0.9386681,10.2025,-2.8875,-5.285
392,1008679,0.324764,0.15616,-0.9511120000000001,9.31,-1.4175,-5.2325
393,1008778,0.332328,0.146156,-0.949892,7.0875,-1.505,-5.6175
394,1008876,0.320372,0.15982000000000002,-0.937448,4.4625,-2.7475,-6.1775
395,1008974,0.309636,0.182268,-0.9333,2.8875,-3.4125,-6.5275
396,1009072,0.315004,0.187636,-0.9347639999999999,2.275,-3.395,-6.58
397,1009170,0.317932,0.193004,-0.9289081,1.9775,-3.2025,-6.545
398,1009268,0.32086,0.188612,-0.9335440999999999,1.54,-3.15,-6.6675
399,1009366,0.32208000000000003,0.179584,-0.934276,0.9625,-3.29,-6.9125
400,1009464,0.319152,0.19154000000000002,-0.9315921,0.0525,-3.4125,-6.9125
401,1009563,0.318664,0.197884,-0.9311040999999999,-0.385,-3.57,-6.8425
402,1009661,0.320616,0.192272,-0.9301280000000001,-0.35,-3.7275,-6.51
403,1009759,0.316224,0.171776,-0.9337880999999999,-0.2275,-4.0075,-6.405
404,1009857,0.31524800000000003,0.170312,-0.9357401,-0.4375,-4.5325,-6.72
405,1009955,0.318664,0.205692,-0.9250040999999999,-0.735,-5.145,-7.07
406,1010053,0.318176,0.237656,-0.9145120999999999,0.105,-5.5125,-6.825
407,1010151,0.316224,0.232776,-0.915976,1.9775,-5.495,-5.8275
408,1010249,0.31476,0.214232,-0.919636,4.0775,-5.5475,-4.6375
409,1010348,0.316224,0.202276,-0.9250040999999999,5.32,-5.6875,-3.6225
410,1010446,0.317444,0.189344,-0.9301280000000001,5.9325,-5.7925,-3.115
411,1010544,0.321348,0.184952,-0.9328120000000001,5.6875,-5.775,-2.9225
412,1010642,0.31646799999999997,0.183488,-0.9286639999999999,5.1275,-5.7925,-3.115
413,1010740,0.31012399999999996,0.180804,-0.9293961,4.4975,-5.775,-3.4475
414,1010838,0.30792800000000004,0.18251199999999998,-0.930616,4.0075,-5.53,-3.78
415,1010936,0.308904,0.180804,-0.936472,3.605,-5.2325,-3.9725
416,1011034,0.311832,0.182756,-0.9311040999999999,3.255,-4.9,-4.13
417,1011132,0.312808,0.183976,-0.9330560999999999,2.87,-4.41,-4.4275
418,1011231,0.31232,0.186416,-0.9325680000000001,2.4325,-4.585,-4.515
419,1011329,0.31524800000000003,0.18544000000000002,-0.9315921,2.3625,-4.7425,-4.4625
420,1011427,0.315492,0.187392,-0.9320801,2.4675,-4.8125,-4.4275
421,1011525,0.31451599999999996,0.188856,-0.93086,2.345,-4.7075,-4.3575
422,1011623,0.315004,0.189832,-0.9274440999999999,2.38,-4.6025,-4.2525
423,1011721,0.310368,0.193004,-0.9254921,2.5725,-4.6375,-4.1475
424,1011819,0.30475599999999997,0.192028,-0.9274440999999999,2.87,-4.7075,-4.025
425,1011917,0.306464,0.1891,-0.9272,3.325,-4.3925,-3.7975
426,1012016,0.309148,0.185928,-0.9293961,3.57,-4.1475,-3.71
427,1012114,0.31476,0.188612,-0.9298841,3.64,-4.0425,-3.6575
428,1012212,0.313052,0.18666,-0.927932,3.7275,-3.9025,-3.6225
429,1012310,0.310856,0.188612,-0.9262239999999999,3.78,-3.9725,-3.57
430,1012408,0.3111,0.19154000000000002,-0.927688,3.9725,-3.7625,-3.465
431,1012506,0.314272,0.190076,-0.927932,4.1475,-3.675,-3.3425
432,1012604,0.316224,0.18251199999999998,-0.931348,4.235,-3.57,-3.2375
433,1012702,0.31476,0.17568,-0.9315921,4.0075,-3.64,-3.15
434,1012801,0.313296,0.180072,-0.9320801,3.8325,-3.675,-3.255
435,1012899,0.31476,0.18422,-0.9347639999999999,3.7625,-3.64,-3.2725
436,1012997,0.3172,0.183976,-0.9318360000000001,3.99,-3.64,-3.2025
437,1013095,0.31890799999999997,0.179096,-0.9325680000000001,3.9375,-3.7275,-3.185
438,1013193,0.31890799999999997,0.175924,-0.934276,3.57,-4.0425,-3.2025
439,1013291,0.320372,0.17616800000000002,-0.9345201,3.2025,-4.27,-3.36
440,1013389,0.317444,0.17738800000000002,-0.930372,2.73,-4.2525,-3.5175
441,1013487,0.31354,0.179584,-0.9286639999999999,2.5025,-4.235,-3.605
442,1013585,0.31354,0.18056,-0.9286639999999999,2.3625,-4.025,-3.71
443,1013684,0.31158800000000003,0.180072,-0.9252481,2.415,-3.9025,-3.8325
444,1013782,0.31451599999999996,0.18056,-0.9301280000000001,2.4325,-3.8675,-3.6925
445,1013880,0.315492,0.17934,-0.9330560999999999,2.5725,-3.64,-3.6225
446,1013978,0.31964000000000004,0.179828,-0.9330560999999999,2.625,-3.5,-3.605
447,1014076,0.319152,0.17446,-0.9345201,2.3975,-3.5,-3.64
448,1014174,0.315004,0.177144,-0.9330560999999999,2.135,-3.4825,-3.745
449,1014272,0.315492,0.178852,-0.9320801,1.9425,-3.395,-3.8325
450,1014370,0.3172,0.180072,-0.9320801,1.9425,-3.22,-3.9725
451,1014469,0.317444,0.1769,-0.9323239999999999,2.0475,-3.2725,-3.9725
452,1014567,0.319152,0.17641199999999999,-0.9335440999999999,1.96,-3.36,-4.06
453,1014665,0.319152,0.17616800000000002,-0.9333,1.7325,-3.605,-4.1125
454,1014763,0.32086,0.17738800000000002,-0.9320801,1.715,-3.85,-4.27
455,1014861,0.319152,0.179828,-0.9325680000000001,1.645,-3.9025,-4.2175
456,1014959,0.31890799999999997,0.178608,-0.9311040999999999,1.6275,-4.13,-4.0775
457,1015057,0.316712,0.17836400000000002,-0.9269561,1.575,-4.1475,-4.025
458,1015155,0.31476,0.179096,-0.9291520000000001,1.47,-4.06,-4.025
459,1015253,0.315492,0.181292,-0.928176,1.5225,-4.13,-4.06
460,1015352,0.31524800000000003,0.17836400000000002,-0.9320801,1.4875,-3.99,-4.095
461,1015450,0.31524800000000003,0.179096,-0.9325680000000001,1.47,-3.885,-4.025
462,1015548,0.318176,0.180316,-0.9320801,1.435,-3.9725,-4.025
463,1015646,0.31964000000000004,0.17763199999999998,-0.9318360000000001,1.365,-4.1475,-4.0425
464,1015744,0.317932,0.17763199999999998,-0.9320801,1.2425,-4.2525,-4.13
465,1015842,0.320128,0.17836400000000002,-0.930616,1.2775,-4.4975,-4.2175
466,1015940,0.317688,0.177876,-0.927932,1.2425,-4.5675,-4.2175
467,1016038,0.31890799999999997,0.178852,-0.9254921,1.1725,-4.6725,-4.235
468,1016137,0.316956,0.17934,-0.9315921,1.155,-4.725,-4.2175
469,1016235,0.318176,0.182756,-0.9289081,1.1025,-4.6025,-4.2525
470,1016333,0.319152,0.180072,-0.9298841,1.015,-4.585,-4.2525
471,1016431,0.320372,0.18178,-0.9289081,1.0325,-4.7425,-4.2
472,1016529,0.3172,0.179828,-0.9320801,0.9625,-4.7075,-4.27
473,1016627,0.317444,0.180072,-0.9325680000000001,0.77,-4.76,-4.34
474,1016725,0.31842,0.18056,-0.9315921,0.56,-4.655,-4.4275
475,1016823,0.317688,0.177876,-0.930372,0.455,-4.6725,-4.515
476,1016922,0.317444,0.18178,-0.9323239999999999,0.2975,-4.69,-4.585
477,1017020,0.316956,0.18446400000000002,-0.9296399999999999,0.1925,-4.7775,-4.6725
478,1017118,0.315736,0.179584,-0.9289081,0.175,-4.655,-4.62
479,1017216,0.31354,0.182268,-0.9284200999999999,0.1575,-4.655,-4.6725
480,1017314,0.312808,0.18422,-0.927688,0.2625,-4.48,-4.655
481,1017412,0.312808,0.18324400000000002,-0.930372,0.2275,-4.34,-4.4625
482,1017510,0.314272,0.181292,-0.928176,0.28,-4.095,-4.27
483,1017608,0.313784,0.185684,-0.9298841,0.21,-3.955,-4.165
484,1017707,0.315736,0.185196,-0.9301280000000001,0.21,-3.7975,-4.06
485,1017805,0.31646799999999997,0.183488,-0.9301280000000001,0.14,-3.6925,-4.025
486,1017903,0.31524800000000003,0.183732,-0.9284200999999999,0.245,-3.5875,-4.06
487,1018001,0.315736,0.18544000000000002,-0.927932,0.14,-3.6225,-4.025
488,1018099,0.316956,0.182024,-0.9291520000000001,0.28,-3.6925,-3.9725
489,1018197,0.317444,0.187636,-0.927688,0.49,-3.8325,-3.92
490,1018295,0.31890799999999997,0.18470799999999998,-0.9298841,0.7875,-3.9725,-3.885
491,1018393,0.31842,0.180804,-0.9298841,1.0675,-4.1825,-3.815
492,1018492,0.319396,0.181536,-0.93086,1.155,-4.48,-3.85
493,1018590,0.320372,0.18178,-0.927932,1.1725,-4.6725,-3.9725
494,1018688,0.317444,0.182756,-0.9301280000000001,0.9975,-5.005,-4.2
495,1018786,0.31646799999999997,0.18544000000000002,-0.9259799999999999,1.0325,-5.04,-4.13
496,1018884,0.31476,0.183488,-0.928176,1.1725,-5.0575,-4.165
497,1018982,0.31476,0.18446400000000002,-0.9286639999999999,1.085,-4.8825,-4.2
498,1019080,0.31646799999999997,0.18251199999999998,-0.930372,0.98,-4.6375,-4.13
499,1019178,0.31598000000000004,0.186904,-0.9284200999999999,0.875,-4.5325,-4.1475
500,1019276,0.315492,0.185684,-0.927688,0.9625,-4.4975,-4.1475
501,1019375,0.31646799999999997,0.184952,-0.930616,0.945,-4.445,-4.06
502,1019473,0.316956,0.18788,-0.9291520000000001,0.8225,-4.34,-3.99
503,1019571,0.316224,0.187148,-0.930616,0.805,-4.235,-4.0075
504,1019669,0.311344,0.187148,-0.9301280000000001,0.8575,-4.2,-3.9725
505,1019767,0.31354,0.18788,-0.9301280000000001,0.9275,-3.92,-3.815
506,1019865,0.315492,0.183488,-0.9269561,1.015,-3.6575,-3.6225
507,1019963,0.320128,0.186416,-0.9274440999999999,0.8925,-3.675,-3.745
508,1020061,0.3172,0.18544000000000002,-0.9289081,0.77,-3.78,-4.0075
509,1020160,0.320616,0.189832,-0.9269561,0.7175,-3.71,-4.025
510,1020258,0.31890799999999997,0.18446400000000002,-0.931348,0.8225,-3.78,-4.06
511,1020356,0.321836,0.18470799999999998,-0.9320801,0.805,-4.13,-4.1825
512,1020454,0.317444,0.18544000000000002,-0.9286639999999999,0.875,-4.41,-4.3225
513,1020552,0.31476,0.188856,-0.9272,0.8575,-4.585,-4.3225
514,1020650,0.31524800000000003,0.18544000000000002,-0.930372,0.77,-4.235,-4.27
515,1020748,0.3172,0.183,-0.9293961,0.735,-4.1125,-4.2875
516,1020846,0.3172,0.18446400000000002,-0.9267120000000001,0.4375,-3.92,-4.305
517,1020945,0.317688,0.184952,-0.925736,0.4375,-3.99,-4.2875
518,1021043,0.320128,0.18544000000000002,-0.9274440999999999,0.5075,-4.095,-4.3225
519,1021141,0.31890799999999997,0.190076,-0.924516,0.7175,-4.375,-4.375
520,1021239,0.31842,0.189344,-0.9262239999999999,0.98,-4.69,-4.3925
521,1021337,0.317688,0.191052,-0.9289081,1.12,-4.935,-4.27
522,1021435,0.314272,0.186172,-0.93086,1.0675,-4.6375,-4.2525
523,1021533,0.31476,0.18666,-0.931348,0.9275,-4.2525,-4.2175
524,1021631,0.319152,0.190564,-0.9259799999999999,0.77,-3.955,-4.2
525,1021730,0.317688,0.188612,-0.9284200999999999,0.7,-3.92,-4.1825
526,1021828,0.31890799999999997,0.190564,-0.9286639999999999,0.8925,-3.9725,-4.1475
527,1021926,0.320372,0.19178399999999998,-0.927932,1.085,-4.2,-4.0075
528,1022024,0.31842,0.184952,-0.9269561,1.3475,-4.27,-3.8675
529,1022122,0.319152,0.187392,-0.924516,1.3475,-4.48,-3.8325
530,1022220,0.322324,0.186172,-0.927932,1.54,-4.8125,-3.85
531,1022318,0.316956,0.189832,-0.930372,1.96,-5.3725,-3.99
532,1022417,0.31232,0.189588,-0.930372,2.1525,-5.5825,-4.0075
533,1022515,0.317444,0.191052,-0.9296399999999999,2.0475,-5.2675,-3.9025
534,1022613,0.315736,0.182756,-0.9325680000000001,1.9075,-4.865,-3.9025
535,1022711,0.31524800000000003,0.19032000000000002,-0.9254921,1.47,-4.48,-3.99
536,1022809,0.32086,0.180804,-0.9191481,0.875,-4.1125,-4.1125
537,1022907,0.318664,0.18422,-0.9240280000000001,0.7,-4.235,-4.2175
538,1023005,0.318664,0.189832,-0.925736,0.875,-4.48,-4.1825
539,1023103,0.316712,0.181292,-0.9267120000000001,1.3125,-4.8825,-4.13
540,1023202,0.312076,0.194468,-0.9264680000000001,1.6275,-5.3025,-4.2
541,1023300,0.313052,0.193736,-0.9272,1.9425,-5.355,-3.99
542,1023398,0.31524800000000003,0.19032000000000002,-0.9323239999999999,1.96,-5.0925,-3.78
543,1023496,0.317688,0.188368,-0.9296399999999999,1.785,-4.76,-3.7975
544,1023594,0.317932,0.18788,-0.9301280000000001,1.2425,-4.27,-3.7975
545,1023692,0.321836,0.18324400000000002,-0.928176,0.9275,-4.235,-3.8325
546,1023790,0.327692,0.180804,-0.9250040999999999,0.7875,-4.7425,-4.025
547,1023888,0.322812,0.188856,-0.9272,1.19,-5.9325,-4.3575
548,1023987,0.31598000000000004,0.195688,-0.9267120000000001,1.6975,-6.9475,-4.41
549,1024085,0.30792800000000004,0.20105599999999998,-0.9298841,2.52,-7.315,-4.305
550,1024183,0.302316,0.195444,-0.9298841,2.8,-6.825,-3.8325
551,1024281,0.307196,0.188612,-0.9323239999999999,2.625,-5.3375,-3.395
552,1024379,0.30744,0.198128,-0.924516,2.065,-4.305,-3.01
553,1024477,0.306464,0.202276,-0.9269561,1.9425,-3.325,-2.6425
554,1024575,0.313296,0.20178800000000002,-0.921832,2.415,-2.555,-2.03
555,1024673,0.32818,0.180072,-0.9232961,3.1675,-2.4675,-1.6975
556,1024772,0.331108,0.161772,-0.9264680000000001,4.025,-3.8325,-2.0825
557,1024870,0.323544,0.185684,-0.9262239999999999,4.2525,-5.775,-3.1675
558,1024968,0.306708,0.19764,-0.930616,4.2,-6.3875,-3.535
559,1025066,0.305244,0.190564,-0.9372040999999999,4.095,-5.3725,-3.045
560,1025164,0.309636,0.188856,-0.9381801,3.29,-3.6225,-2.5375
561,1025262,0.31598000000000004,0.18178,-0.9384239999999999,2.2925,-2.3975,-2.38
562,1025360,0.321348,0.178852,-0.9413520000000001,0.91,-1.2075,-2.2925
563,1025458,0.317688,0.189588,-0.9547720999999999,-2.1,0.315,-2.1
564,1025557,0.342088,0.197152,-0.9635560999999999,-7.9625,3.745,-0.91
565,1025655,0.381616,0.1769,-0.9503799999999999,-13.8425,6.055,-0.105
566,1025753,0.376736,0.162748,-0.9577,-17.1675,2.87,-1.12
567,1025851,0.376492,0.143228,-0.969412,-20.65,-2.065,-2.625
568,1025949,0.358192,0.168604,-0.9564799999999999,-24.1675,-6.1075,-3.43
569,1026047,0.327204,0.24912399999999998,-0.9242720999999999,-22.89,-9.5725,-2.7125
570,1026145,0.304268,0.31890799999999997,-0.8954801,-17.7275,-10.3775,0.9975
571,1026243,0.27205999999999997,0.346236,-0.8701040000000001,-10.64,-8.47,6.8775
572,1026341,0.277916,0.342332,-0.8927959999999999,-1.33,-4.5675,12.705
573,1026440,0.299144,0.316956,-0.916952,5.95,0.5775,19.4075
574,1026538,0.322812,0.333304,-0.9591639999999999,12.04,5.2325,26.425
575,1026636,0.361608,0.188368,-0.9933241,21.455,8.715,36.085
576,1026734,0.357704,0.13785999999999998,-1.015284,15.89,6.7025,60.165
577,1026832,0.326228,0.226188,-0.8166680000000001,-2.8175,2.59,84.10501
578,1026930,0.450912,0.964044,-0.731268,-68.4075,-0.2625,83.94751
579,1027028,0.6319600000000001,1.328824,-0.888648,-130.8475,-1.2425,61.7575
580,1027127,0.529724,1.485716,-0.9015799999999999,-119.5425,-9.59,44.5375
581,1027225,0.483608,1.398364,-0.9225639999999999,-73.3425,-18.69,27.02
582,1027323,0.46726,1.127524,-0.8579041,-22.8025,-25.0775,8.015
583,1027421,0.396744,0.824232,-0.70028,0.1575,-28.07,-14.5775
584,1027519,0.278648,0.652456,-0.516304,-8.05,-25.97,-36.54
585,1027617,0.192272,0.583404,-0.39771999999999996,-30.0125,-16.66,-55.0375
586,1027715,0.164944,0.302804,-0.335012,-50.6625,-0.98,-75.9325
587,1027813,0.0549,-0.182756,-0.312076,-65.66,19.2675,-107.3275
588,1027911,0.15274400000000002,-0.22716399999999998,-0.49263599999999996,-76.44001,46.8125,-126.315
589,1028010,0.219112,-0.382104,-0.621224,-48.195,68.6875,-125.4575
590,1028108,0.203252,-0.499468,-0.7256560000000001,-8.89,81.7075,-120.9775
591,1028206,1.16144,0.231312,-2.657892,39.445,85.5225,-115.2375
592,1028304,0.429196,-1.221708,-1.766316,230.0375,51.695,-76.3525
593,1028402,0.4575,-1.2312239999999999,-1.200724,227.5175,11.83,-24.1325
594,1028500,0.9525761,-0.542168,-1.65798,186.1825,-15.785,-11.725
595,1028598,0.7105279999999999,-0.48312,-1.011624,83.895,-50.435,-8.8725
596,1028697,0.05929201,0.31402800000000003,-0.780312,26.88,-71.82,-1.085
597,1028795,0.385764,0.219356,-0.983564,22.26,-65.7125,-6.65
598,1028893,0.47336000000000006,-0.268644,-1.0084520000000001,22.5225,-55.6325,-14.49
599,1028991,0.09442801,0.226188,-1.016748,-1.855,-57.7325,-18.025
600,1029089,-0.166408,0.492148,-1.015528,-7.8225,-44.66,-15.925
601,1029187,0.10833599999999999,0.102724,-0.94916,1.4175,-13.3525,-6.09
602,1029285,0.432612,0.031232,-1.026996,-2.31,3.99,-4.6025
603,1029383,0.491904,0.187392,-1.022604,-20.8775,3.2725,-8.855
604,1029482,0.369904,0.272548,-0.9311040999999999,-29.2425,-5.5825,-9.7475
605,1029580,0.31232,0.32256799999999997,-0.8713241,-23.45,-14.945,-6.8425
606,1029678,0.28426,0.297192,-0.877912,-13.4925,-19.4075,-4.1475
607,1029776,0.290604,0.322812,-0.8730319999999999,-7.1225,-20.5975,-2.135
608,1029874,0.28621199999999997,0.334768,-0.870592,-1.9775,-19.5125,-1.12
609,1029972,0.287432,0.251808,-0.9110959999999999,2.3975,-17.15,-1.1725
610,1030070,0.27084,0.247416,-0.913536,4.0425,-14.5775,-1.6275
611,1030168,0.27718400000000004,0.231068,-0.9291520000000001,4.5325,-12.0225,-2.415
612,1030267,0.265716,0.20691199999999998,-0.9357401,4.0775,-9.87,-3.2375
613,1030365,0.264008,0.18422,-0.9418401,2.5375,-7.9275,-4.1125
614,1030463,0.258396,0.209596,-0.927688,0.2625,-6.58,-4.83
615,1030561,0.261324,0.204716,-0.9323239999999999,-1.54,-4.2525,-5.775
616,1030659,0.258152,0.2013,-0.931348,-2.975,-1.5225,-6.51
617,1030757,0.273036,0.207644,-0.9335440999999999,-5.1975,0.945,-7.2275
618,1030855,0.27084,0.199104,-0.921832,-7.5775,2.2225,-8.155
619,1030953,0.25961599999999996,0.211792,-0.9030440000000001,-7.6825,2.555,-9.03
620,1031052,0.265228,0.221308,-0.906216,-4.6375,2.52,-10.115
621,1031150,0.27718400000000004,0.21520799999999998,-0.9140241,0.49,1.9425,-11.0425
622,1031248,0.262788,0.229848,-0.892308,6.475,0.3675,-11.55
623,1031346,0.256688,0.287188,-0.8962120000000001,16.905,-0.8400001,-11.585
624,1031444,0.309392,0.252052,-0.9298841,27.055,-1.015,-10.85
625,1031542,0.34038,0.211548,-0.9598959999999999,29.645,-3.395,-8.925
626,1031640,0.315736,0.24278000000000002,-0.9623360999999999,24.675,-7.6475,-6.9125
627,1031738,0.317688,0.209596,-0.960628,21.35,-10.5875,-5.425
628,1031837,0.31964000000000004,0.20984,-0.959408,17.85,-13.1075,-4.3925
629,1031935,0.298168,0.20861999999999997,-0.955992,14.84,-15.19,-4.515
630,1032033,0.2928,0.195688,-0.9589200999999999,12.425,-15.855,-4.8475
631,1032131,0.280356,0.212524,-0.946232,10.675,-16.03,-5.0575
632,1032229,0.277916,0.228384,-0.9408639999999999,9.9225,-16.1175,-4.8125
633,1032327,0.278648,0.228384,-0.9333,9.415,-16.275,-3.815
634,1032425,0.265228,0.221796,-0.9325680000000001,8.9775,-16.6425,-2.6075
635,1032524,0.253272,0.208132,-0.9330560999999999,9.2225,-16.555,-1.3825
636,1032622,0.247416,0.199104,-0.9389120000000001,9.1875,-15.435,-0.3325
637,1032720,0.248392,0.2074,-0.936472,9.555,-14.0175,0.315
638,1032818,0.260104,0.19397999999999999,-0.9389120000000001,9.625,-12.3025,0.8925
639,1032916,0.267912,0.203984,-0.9415959999999999,9.2925,-11.34,1.05
640,1033014,0.252296,0.19885999999999998,-0.936472,9.2925,-10.9725,0.77
641,1033112,0.24156,0.208132,-0.9254921,9.3275,-9.9225,0.665
642,1033210,0.233508,0.203984,-0.9203680000000001,9.7825,-8.54,1.26
643,1033309,0.231068,0.193736,-0.917684,10.535,-6.5625,1.68
644,1033407,0.22082,0.21228000000000002,-0.915976,11.0775,-3.885,1.9775
645,1033505,0.2196,0.202764,-0.919636,12.4775,-0.07,2.4675
646,1033603,0.21057199999999998,0.19397999999999999,-0.9242720999999999,13.6675,4.69,2.8525
647,1033701,0.22472399999999998,0.195932,-0.9357401,14.455,9.9575,3.0975
648,1033799,0.228872,0.185928,-0.9340321,15.505,15.1725,3.115
649,1033897,0.24522,0.195688,-0.9376921,15.89,20.615,3.01
650,1033995,0.25522399999999995,0.19861600000000001,-0.935984,17.1325,25.795,2.975
651,1034094,0.17934,0.211548,-0.9764879999999999,17.78,31.64,2.135
652,1034192,0.05977999999999999,0.275964,-0.99918,18.3225,39.515,1.0325
653,1034290,0.273524,0.144204,-1.063596,21.56,50.33,0.9975
654,1034388,0.248392,0.20447200000000001,-1.0182120000000001,18.6725,64.1025,8.7325
655,1034486,0.331352,0.222284,-1.080188,11.725,81.18251,20.9475
656,1034584,0.24034,0.209596,-1.21024,13.7375,100.7825,31.78
657,1034682,0.47384799999999994,0.05856,-1.1838879999999998,20.125,130.6375,36.4175
658,1034780,0.2684,0.19739600000000002,-1.254404,30.5025,170.4325,33.355
659,1034879,0.258396,0.310612,-1.303448,40.32,218.8375,27.405
660,1034977,0.387472,0.25058800000000003,-1.331264,61.355,274.8725,31.465
661,1035075,0.14078800000000002,0.319152,-1.524268,84.1925,334.5475,37.3975
662,1035173,-0.036356,0.48433999999999994,-1.76046,106.75,406.0875,38.0975
663,1035271,0.9572120999999999,-0.34038,-1.6845759999999999,150.1675,494.1825,47.2325
664,1035369,0.360632,0.330864,-2.38998,153.3875,568.2425,70.35
665,1035467,0.171776,0.6917399999999999,-2.50466,156.17,573.405,91.945
666,1035565,0.31890799999999997,0.9250040999999999,-2.65594,212.94,571.7425,122.5875
667,1035664,0.7820199999999999,0.9921040999999999,-2.3372759999999997,169.89,534.38,84.7525
668,1035762,0.2623,0.5119121,-2.034716,143.5,455.3325,50.225
669,1035860,-0.603168,0.9315921,-2.471964,98.07,354.3575,58.9575
670,1035958,2.124996,0.34111199999999997,-1.028704,97.3875,278.7225,52.08
671,1036056,3.64658,0.202032,-2.7130360000000002,113.8025,359.065,71.5925
672,1036154,1.305156,1.40178,-4.244136,-41.545,265.685,-8.155
673,1036252,0.5941401,1.299056,-3.490908,-42.49,91.105,-81.69001
674,1036351,-0.479704,1.156316,-2.244068,-33.7925,-37.6775,-123.76
675,1036449,-0.728096,0.9486720999999999,-1.541836,-5.4775,-91.3675,-133.98
676,1036547,-0.8117880000000001,0.61854,-1.215852,29.5925,-116.165,-126.315
677,1036645,-0.8571719999999999,0.409188,-1.111664,41.0025,-131.3375,-119.0
678,1036743,-0.762744,0.39479200000000003,-1.115324,16.695,-147.4725,-119.105
679,1036841,-0.7176041,0.46921199999999996,-1.107272,-16.24,-171.4825,-126.28
680,1036939,-0.7198,0.527772,-1.03944,-36.8025,-198.4325,-135.4675
681,1037037,-0.612928,0.584868,-1.041148,-36.855,-221.34,-138.81
682,1037136,-0.429928,0.559004,-1.105808,-19.565,-241.92,-133.175
683,1037234,-0.22643200000000002,0.503128,-1.1746159999999999,8.575,-265.86,-122.78
684,1037332,-0.011712,0.381128,-1.236592,30.1175,-294.0175,-109.1125
685,1037430,0.173728,0.29133600000000004,-1.257576,34.86,-325.3775,-96.4425
686,1037528,0.325496,0.258396,-1.216828,26.5825,-355.915,-83.755
687,1037626,0.41968,0.266936,-1.146068,14.21,-381.6225,-70.4725
688,1037724,0.505568,0.320128,-1.091656,1.26,-399.665,-58.0825
689,1037822,0.571692,0.37746799999999997,-1.050664,-11.3225,-410.4275,-49.5425
690,1037920,0.601216,0.402844,-1.0321200000000001,-25.55,-414.855,-47.04
691,1038019,0.608536,0.426512,-1.048224,-44.31,-413.77,-50.8375
692,1038117,0.6258600000000001,0.441884,-1.121912,-67.725,-408.555,-59.3075
693,1038215,0.633912,0.444812,-1.230492,-90.37001,-400.9425,-70.56
694,1038313,0.62098,0.40821199999999996,-1.355664,-110.0225,-391.8425,-82.25
695,1038411,0.624152,0.314272,-1.513044,-124.2325,-379.3825,-90.51001
696,1038509,0.676124,0.23058,-1.7333759999999998,-129.43,-361.3575,-87.64
697,1038607,0.961116,0.006344,-2.078392,-132.09,-339.57,-68.4425
698,1038705,1.353956,-0.148108,-2.41926,-150.1675,-326.9875,-41.3875
699,1038804,1.61406,-0.09540401,-2.4090119999999997,-173.6525,-326.0775,-13.72
700,1038902,1.9258919999999997,0.071492,-2.26554,-186.62,-321.3175,13.825
701,1039000,2.2008799999999997,0.255956,-1.9990919999999999,-175.385,-303.1175,34.1775
702,1039098,1.7345959999999998,0.410896,-1.296616,-141.12,-268.065,43.295
703,1039196,3.256912,0.5873079999999999,-1.8883159999999999,-113.4525,-221.1475,34.58
704,1039294,3.3623199999999995,0.51484,-1.559648,-101.4475,-224.1575,-3.4825
705,1039392,3.256668,0.180804,-0.554856,-64.365,-222.2325,-48.265
706,1039490,2.927512,-0.542656,0.291824,-12.215,-199.815,-81.67251
707,1039588,3.071228,-1.087264,0.574132,33.5125,-142.4325,-90.21251
708,1039687,3.3855,-1.268068,0.61732,52.8675,-68.705,-68.705
709,1039785,3.7663839999999995,-1.1529,0.9262239999999999,56.1575,0.9975,-32.2175
710,1039883,4.392976,-0.8405800999999999,1.530856,77.1575,93.6425,10.2725
711,1039981,2.440244,-0.840824,3.5162839999999997,135.2925,235.8825,80.115
712,1040079,0.39771999999999996,-1.227808,-1.45912,139.58,374.2725,136.01
713,1040177,1.138992,0.8327720999999999,-4.020632,-36.26,388.5525,102.62
714,1040275,1.8595240000000002,-0.271328,-1.355176,52.815,312.0075,64.4
715,1040373,0.69052,-1.41154,-1.44448,167.5975,283.6225,111.1775
716,1040471,2.4282880000000002,0.5104479999999999,-3.3191319999999997,10.4825,279.7025,121.695
717,1040569,1.903688,0.588284,-2.577372,15.12,208.74,73.7625
718,1040668,0.9208561,0.6304960000000001,-1.405684,44.485,149.7125,52.36
719,1040766,0.21032800000000001,0.337208,-0.583404,51.38,129.745,43.1725
720,1040864,0.242536,-0.046360000000000005,-0.78446,38.255,142.9575,39.305
721,1040962,2.845772,2.535404,-3.00242,43.19,126.6475,15.75
722,1041060,1.425448,0.221552,-1.1387479999999999,188.965,50.1725,-6.5975
723,1041158,-0.041724000000000004,-0.500688,-1.031388,132.93,3.395,6.265
724,1041256,0.7117479999999999,0.23911999999999997,-1.2038959999999999,82.425,8.75,1.5575
725,1041354,0.494588,0.30792800000000004,-0.989664,51.4325,2.59,-6.6675
726,1041452,0.45335200000000003,0.162748,-1.015284,34.2475,-1.68,-8.89
727,1041550,0.41968,0.204228,-0.979416,17.08,-3.6925,-10.08
728,1041649,0.34526,0.1952,-0.953308,9.8875,-6.2825,-11.1125
729,1041747,0.32866799999999996,0.24790399999999999,-0.9076799999999999,11.2875,-6.79,-10.7275
730,1041845,0.331352,0.257176,-0.9098761000000001,12.285,-7.4725,-9.625
731,1041943,0.329644,0.239608,-0.9093880999999999,16.0825,-7.385,-8.855
732,1042041,0.36722,0.28011199999999997,-0.9086559999999999,16.38,-8.1725,-8.7325
733,1042139,0.342332,0.29133600000000004,-0.8976761000000001,16.8175,-9.625,-8.645
734,1042237,0.374052,0.29792399999999997,-0.907436,18.1825,-11.515,-7.5425
735,1042335,0.36478,0.298656,-0.8927959999999999,19.705,-15.3475,-5.705
736,1042434,0.338916,0.320616,-0.883036,22.4175,-20.195,-3.5175
737,1042532,0.330864,0.307196,-0.889136,23.7125,-23.275,-0.98
738,1042630,0.324764,0.29646,-0.904508,22.6275,-24.605,1.7325
739,1042728,0.325008,0.284992,-0.9076799999999999,21.28,-25.0775,3.8675
740,1042826,0.325496,0.284992,-0.9113399999999999,20.4225,-24.85,5.495
741,1042924,0.33061999999999997,0.246196,-0.907192,21.1575,-24.7625,6.2475
742,1043022,0.318664,0.24326799999999998,-0.8967,21.6125,-24.5875,5.635
743,1043120,0.27694,0.20837600000000003,-0.9028,21.8225,-23.555,3.0625
744,1043218,0.243756,0.190808,-0.902068,22.4525,-20.9475,0.4375
745,1043316,0.24424400000000002,0.193736,-0.9032879999999999,22.26,-16.9225,-0.5075
746,1043415,0.271328,0.205692,-0.895236,22.225,-12.985,0.105
747,1043513,0.251564,0.223992,-0.8927959999999999,22.2775,-11.025,1.82
748,1043611,0.24156,0.19642,-0.9137799999999999,23.415,-8.8375,4.34
749,1043709,0.25986,0.174704,-0.91622,24.15,-5.5125,6.475
750,1043807,0.242048,0.166164,-0.9049959999999999,23.9575,-2.205,7.665
751,1043905,0.277428,0.14396,-0.9147559999999999,23.8,2.5025,8.155
752,1044003,0.30475599999999997,0.167384,-0.9191481,22.61,8.3125,7.875
753,1044101,0.28914,0.15494000000000002,-0.9311040999999999,20.37,15.2775,7.2275
754,1044200,0.31524800000000003,0.194224,-0.9325680000000001,17.64,22.9075,7.595
755,1044298,0.350628,0.31598000000000004,-0.954284,15.12,30.73,8.015
756,1044396,0.268156,0.38966799999999996,-0.9435479999999999,13.6325,39.7075,8.75
757,1044494,0.332084,0.155184,-1.077016,10.045,52.9375,17.2725
758,1044592,0.406504,0.240096,-1.081408,5.6875,72.275,34.965
759,1044690,0.35038400000000003,0.10345599999999999,-1.214388,3.92,99.7325,45.465
760,1044788,0.379176,0.138104,-1.209508,12.6875,138.355,45.36
761,1044886,0.329156,0.21716,-1.3412680000000001,17.535,186.095,44.7825
762,1044985,0.178852,0.088328,-1.3886040000000002,33.1625,245.385,45.78
763,1045083,0.231312,0.12980799999999998,-1.613572,44.3625,319.9525,48.4925
764,1045181,0.156892,0.57096,-1.9297959999999998,56.9975,420.49,50.155
765,1045279,0.42822,0.37454,-1.990552,105.2975,528.605,65.485
766,1045377,-0.094916,0.515328,-2.710108,139.545,572.9675,99.855
767,1045475,0.715896,0.8327720999999999,-2.718404,110.7225,573.405,135.66
768,1045573,1.3266280000000001,0.9154880999999999,-2.316048,102.375,573.405,160.9125
769,1045671,1.067012,1.236348,-3.2896080000000003,33.355,572.6175,140.8575
770,1045769,-0.130296,0.969412,-3.123688,-65.1,498.3125,111.79
771,1045868,-0.8547319999999999,0.6131721,-2.8845680000000002,-136.4825,324.03,137.76
772,1045966,6.444528,-0.9496479999999999,-2.213324,-137.2875,292.4075,222.81
773,1046064,0.847412,2.183068,-4.824612,-247.38,325.4475,194.8625
774,1046162,0.302804,3.209088,-3.463336,-260.5575,163.625,54.915
775,1046260,-0.828868,3.032432,-2.656916,-161.875,28.0875,-42.665
776,1046358,-0.7829961,2.4634240000000003,-2.159888,0.42,-18.2525,-103.7925
777,1046456,-0.859368,1.7043400000000002,-1.555988,154.07,-57.89,-148.995
778,1046554,-0.886452,0.828868,-1.21024,260.5225,-96.67,-167.44
779,1046652,-0.847412,0.111508,-1.067744,299.5825,-130.0425,-157.6575
780,1046751,-0.7427361,-0.390644,-1.034804,272.72,-162.9075,-130.27
781,1046849,-0.601216,-0.6612401,-1.099708,201.5125,-201.285,-96.86251
782,1046947,-0.431392,-0.5946279999999999,-1.184376,102.8825,-243.18,-61.0925
783,1047045,-0.23546,-0.207644,-1.2641639999999998,5.81,-284.9875,-27.5275
784,1047143,0.0017079999999999999,0.22326,-1.301008,-54.74,-328.2475,-2.3625
785,1047241,0.22277199999999997,0.577304,-1.2724600000000001,-74.025,-373.1875,10.7975
786,1047339,0.401624,0.769576,-1.16754,-68.8275,-413.0175,12.4425
787,1047437,0.5002,0.814472,-0.9769760000000001,-54.7925,-443.24,2.905
788,1047536,0.574864,0.7788480999999999,-0.8081281,-50.3825,-459.935,-13.7725
789,1047634,0.567788,0.741028,-0.658312,-59.7975,-463.925,-35.77
790,1047732,0.552416,0.724924,-0.6036560999999999,-80.8675,-453.67,-61.3025
791,1047830,0.5414359999999999,0.712724,-0.640012,-108.22,-432.7925,-88.70749
792,1047928,0.58072,0.67466,-0.791048,-136.7625,-406.28,-114.8175
793,1048026,0.6844201,0.646844,-1.09556,-161.5075,-379.995,-135.87
794,1048124,0.856684,0.659044,-1.4374040000000001,-174.2475,-359.73,-148.61
795,1048222,0.9921040999999999,0.5987760999999999,-1.7814439999999998,-178.6925,-350.455,-153.125
796,1048320,1.116544,0.45457200000000003,-2.040816,-177.3275,-349.9125,-152.4075
797,1048419,1.248792,0.319396,-2.24724,-180.0225,-352.5725,-144.48
798,1048517,1.438624,0.25986,-2.3677759999999997,-188.37,-354.795,-128.415
799,1048615,1.635532,0.32256799999999997,-2.4451240000000003,-202.3525,-355.4775,-109.55
800,1048713,1.8465919999999998,0.508008,-2.5114919999999996,-217.5425,-352.0125,-98.2275
801,1048811,2.0691200000000003,0.693448,-2.559804,-224.1925,-345.275,-96.98501
802,1048909,2.299456,0.8801081000000001,-2.4441479999999998,-213.1325,-336.8925,-101.78
803,1049007,2.54736,0.678076,-2.179164,-186.0425,-325.43,-107.9925
804,1049105,2.551996,-0.08344800000000001,-1.534516,-148.75,-305.41,-126.7875
805,1049203,2.585912,-0.613904,-0.8791321,-127.5925,-261.9575,-152.6875
806,1049302,3.363296,-0.66978,-0.62098,-87.57,-199.815,-164.29
807,1049400,4.5789040000000005,-0.9189040999999999,-0.427976,2.24,-149.94,-138.5825
808,1049498,4.80924,-1.597712,0.2501,100.135,-132.4575,-77.315
809,1049596,4.293668,-1.939068,1.000156,125.5975,-105.175,-6.125
810,1049694,3.247884,-1.497916,1.22854,71.9075,-40.25,53.6025
811,1049792,2.62056,-0.5121560000000001,0.5170359999999999,3.6225,53.375,80.8325
812,1049890,2.097668,0.31232,-0.183,-4.4275,128.59,77.56
813,1049988,-1.625772,1.24684,-1.2282959999999998,73.29,194.145,36.5225
814,1050087,-3.514332,0.671732,-0.7661600000000001,213.395,284.9525,74.5325
815,1050185,1.8468360000000001,0.31524800000000003,-0.634644,110.8625,388.36,241.5
816,1050283,2.721088,-2.797948,-0.237656,315.5075,426.44,248.7625
817,1050381,0.789828,-0.42895200000000006,-2.989976,55.055,333.27,94.5525
818,1050479,1.954684,-1.093364,-3.043412,53.655,314.58,78.1025
819,1050577,1.827804,-0.220088,-2.639592,64.27750999999999,255.4125,118.09
820,1050675,1.800232,1.080676,-2.186972,24.605,199.2725,92.34751
821,1050773,1.188524,1.345416,-1.643584,40.565,150.5875,59.955
822,1050871,0.545096,0.15054800000000002,-1.149484,82.2675,124.985,35.77
823,1050970,0.28548,-0.447008,-1.108248,73.3075,116.13,31.0625
824,1051068,0.390888,0.130296,-0.820816,41.8075,105.6825,51.8175
825,1051166,0.46506400000000003,1.0887280000000001,-1.464976,20.3875,101.2025,58.3275
826,1051264,2.2179599999999997,1.653588,-1.7760759999999998,52.605,67.2,11.795
827,1051362,0.24888000000000002,-0.194712,-1.029924,137.0075,18.1475,-4.3225
828,1051460,0.36844,-0.239608,-1.11874,98.0525,13.195,-4.3925
829,1051558,0.706624,0.6290319999999999,-1.082384,53.8125,4.305,-1.7325
830,1051656,0.376004,0.19178399999999998,-0.9764879999999999,54.4425,-4.025,-4.8125
831,1051755,0.429196,0.102724,-1.045052,46.48,-7.6825,-2.87
832,1051853,0.41504399999999997,0.223992,-0.9796600000000001,29.1025,-13.2475,-3.2725
833,1051951,0.340136,0.187148,-0.9628241,22.4,-16.9225,-5.88
834,1052049,0.30036399999999996,0.256932,-0.907192,16.7125,-18.1475,-6.405
835,1052147,0.29768,0.30548800000000004,-0.8969440000000001,17.22,-17.045,-6.5625
836,1052245,0.30353600000000003,0.31451599999999996,-0.897432,21.35,-15.785,-5.95
837,1052343,0.315004,0.290604,-0.90402,23.905,-14.875,-4.7425
838,1052441,0.311832,0.27694,-0.9267120000000001,25.0075,-14.6825,-3.815
839,1052539,0.310612,0.27889200000000003,-0.92232,24.4825,-16.0125,-2.6775
840,1052638,0.300852,0.262788,-0.936716,23.59,-18.4625,-1.4
841,1052736,0.30548800000000004,0.261812,-0.9152440000000001,23.7825,-20.72,-0.0175
842,1052834,0.305976,0.23009200000000002,-0.92232,24.605,-22.47,0.805
843,1052932,0.266692,0.22277199999999997,-0.90646,26.4075,-24.64,1.085
844,1053030,0.25254,0.238632,-0.8954801,27.3175,-24.885,1.2425
845,1053128,0.249856,0.225212,-0.8988959999999999,29.0325,-22.645,0.8400001
846,1053226,0.23521599999999998,0.19178399999999998,-0.9167081,29.96,-19.075,0.455
847,1053324,0.21838000000000002,0.102724,-0.9037761000000001,28.7875,-14.98,0.0525
848,1053422,0.223504,0.08637601,-0.8996280999999999,25.375,-10.185,-0.49
849,1053521,0.222284,0.141276,-0.9140241,21.3675,-5.9675,-0.945
850,1053619,0.24766,0.189344,-0.915732,19.6175,-2.2575,0.35
851,1053717,0.228384,0.162504,-0.9152440000000001,21.14,1.435,2.765
852,1053815,0.239364,0.135664,-0.928176,21.175,6.6675,4.5675
853,1053913,0.28792,0.136152,-0.942572,20.2825,11.83,4.6375
854,1054011,0.282552,0.17446,-0.9577,19.1975,16.695,3.43
855,1054109,0.374784,0.197884,-0.9535521,17.5175,22.785,2.9575
856,1054207,0.303292,0.25424800000000003,-0.928176,16.1,27.79,4.0075
857,1054305,0.223992,0.379176,-0.9530641,14.665,36.61,5.425
858,1054403,0.26108000000000003,0.064172,-1.10166,17.5,50.4175,6.1075
859,1054502,0.16226,0.33794,-1.039196,14.9625,66.92,17.8675
860,1054600,0.427976,-0.034892,-1.04188,7.735,87.3775,29.2775
861,1054698,0.417972,0.160064,-1.17852,8.505,112.875,32.9175
862,1054796,0.44237200000000004,0.08857201,-1.1538760000000001,10.6575,144.1475,31.4825
863,1054894,0.3233,0.199348,-1.24318,16.625,184.5725,32.2875
864,1054992,0.225212,0.268156,-1.386408,25.76,235.2175,33.985
865,1055090,0.29743600000000003,0.1159,-1.344684,47.5825,300.8075,41.58
866,1055188,0.183976,0.477996,-1.76046,51.975,382.8475,55.09
867,1055286,0.42895200000000006,0.499712,-2.130608,78.995,480.655,65.485
868,1055385,0.451888,0.22326,-1.6235760000000001,130.375,561.715,96.6
869,1055483,0.7300479999999999,0.7673800000000001,-2.727188,86.66,573.405,132.545
870,1055581,1.324676,0.699792,-2.650816,101.15,573.405,168.6475
871,1055679,1.2075559999999999,0.7093081,-2.671068,114.625,573.405,187.7925
872,1055777,0.395768,1.075796,-2.2484599999999997,17.885,561.5225,140.4375
873,1055875,-0.147376,1.19316,-2.9504479999999997,-62.895,444.4475,133.28
874,1055973,-1.01016,0.8888921000000001,-2.738412,-100.87,311.8675,163.0125
875,1056071,6.747088000000001,-1.3588360000000002,-2.7142560000000002,-94.43,324.0825,238.035
876,1056170,1.438624,2.037156,-4.46398,-195.1775,336.1575,208.11
877,1056268,0.8230120999999999,3.033896,-4.4439720000000005,-263.9525,140.2275,42.4725
878,1056366,-0.092964,3.0392639999999997,-3.220068,-189.5075,-47.355,-75.6175
879,1056464,-0.820572,2.433168,-2.143296,-38.9375,-146.685,-145.67
880,1056562,-0.8610761,1.55916,-1.351516,103.565,-180.25,-163.3275
881,1056660,-0.752008,0.820572,-1.1102,185.22,-195.2825,-166.0575
882,1056758,-0.686372,0.309148,-1.0565200000000001,195.72,-214.55,-166.3375
883,1056856,-0.543632,0.071492,-1.092876,163.275,-238.175,-159.81
884,1056954,-0.366976,-0.08296,-1.1775440000000001,117.67,-266.245,-140.8575
885,1057053,-0.20788800000000002,-0.109556,-1.212924,69.895,-301.91,-113.89
886,1057151,-0.029036000000000003,-0.00366,-1.204872,26.67,-341.3725,-84.2275
887,1057249,0.142008,0.164944,-1.147044,-4.7775,-379.5575,-55.72
888,1057347,0.329644,0.317932,-1.070916,-24.22,-412.0725,-31.78
889,1057445,0.477264,0.438956,-0.9818561,-39.9175,-437.8675,-16.835
890,1057543,0.578036,0.516792,-0.871568,-55.895,-455.7175,-13.475
891,1057641,0.566812,0.593164,-0.748836,-73.325,-463.05,-20.1775
892,1057739,0.564372,0.68076,-0.71004,-94.43,-457.03,-33.0575
893,1057837,0.601704,0.7551800000000001,-0.77836,-117.915,-441.49,-51.2225
894,1057936,0.648308,0.817156,-0.9093880999999999,-139.2825,-421.5575,-74.6725
895,1058034,0.764696,0.8425321,-1.1387479999999999,-162.4525,-402.36,-98.595
896,1058132,0.889136,0.813008,-1.387628,-189.84,-388.6575,-121.1175
897,1058230,0.9869800999999999,0.801784,-1.554524,-220.3075,-382.27,-143.15
898,1058328,1.025044,0.847412,-1.622112,-245.9275,-377.93,-161.245
899,1058426,1.064084,0.96624,-1.831952,-256.48,-364.5075,-168.84
900,1058524,1.264652,1.077992,-2.112308,-248.395,-342.8775,-167.125
901,1058622,1.560136,1.1411879999999999,-2.488556,-233.415,-323.4,-162.61
902,1058720,2.024956,1.0060120000000001,-2.8552880000000003,-230.9825,-309.3125,-165.06
903,1058819,2.597868,0.7237041,-2.8416240000000004,-236.95,-304.7625,-178.08
904,1058917,3.012424,-0.223504,-2.3663119999999997,-227.0975,-300.6675,-193.725
905,1059015,3.079036,-0.43432,-1.86904,-198.17,-273.1225,-210.7175
906,1059113,3.0924560000000003,-0.6917399999999999,-1.457168,-129.57,-227.5525,-201.4425
907,1059211,3.480904,-0.7722600000000001,-1.114592,-29.5925,-184.485,-183.4875
908,1059309,4.423719999999999,-1.199016,-0.771528,65.065,-164.4125,-143.045
909,1059407,4.58354,-2.014464,0.196176,130.8825,-164.6925,-80.0625
910,1059505,4.070896,-2.3480119999999998,1.1712,122.605,-139.37,-15.155
911,1059603,3.079524,-2.016172,1.266604,57.6275,-61.95,46.025
912,1059701,2.612996,-1.340536,0.31646799999999997,9.6425,40.81,88.06
913,1059800,2.8796880000000002,-0.744688,-0.402844,9.065,109.2525,110.6
914,1059898,-0.8117880000000001,0.370148,0.549244,95.1125,192.2375,124.7225
915,1059996,-4.312944,0.454084,-1.485472,231.63,302.155,213.7975
916,1060094,2.785992,-0.24497600000000003,-0.5429,136.29,426.0025,296.5025
917,1060192,3.049512,-0.36112,-0.97356,132.755,444.2025,186.3925
918,1060290,1.794864,0.44237200000000004,-3.61608,-5.2325,371.07,60.4975
919,1060388,1.996896,-0.585112,-2.658624,96.7575,299.2325,92.76751
920,1060486,1.5525719999999998,0.28304,-2.193316,90.37001,230.335,109.4975
921,1060584,1.3649360000000001,0.8403360000000001,-1.9427279999999998,41.545,194.4075,66.5
922,1060683,0.72102,-0.002684,-1.244888,74.2875,160.16,47.9675
923,1060781,0.589504,-0.130052,-1.140456,54.04,143.7975,47.495
924,1060879,0.705404,0.308172,-1.158268,22.225,131.705,51.3275
925,1060977,2.531988,2.668384,-3.266428,25.6375,107.17,30.7825
926,1061075,1.053104,0.008540001,-0.9469641,158.55,43.1375,-10.5525
927,1061173,-0.03538,-0.47604399999999997,-1.0704280000000002,127.435,7.1575,-0.42
928,1061271,0.779824,0.692716,-1.05408,83.0025,7.315,-0.6125
929,1061369,0.47043199999999996,0.24082800000000001,-0.9901521000000001,74.6725,0.91,-2.1
930,1061468,0.374052,0.082716,-1.036024,66.71,-5.6175,-0.28
931,1061566,0.446032,0.25961599999999996,-1.006744,48.6675,-8.68,-0.9975
932,1061664,0.32866799999999996,0.164212,-0.9769760000000001,38.5875,-12.705,-2.94
933,1061762,0.338916,0.20861999999999997,-0.9520881,32.025,-13.6675,-3.85
934,1061860,0.31964000000000004,0.27816,-0.9206120000000001,27.125,-14.8575,-4.69
935,1061958,0.323544,0.262544,-0.916464,26.88,-14.665,-5.005
936,1062056,0.33794,0.283528,-0.9108521,25.8825,-14.28,-4.5675
937,1062154,0.32208000000000003,0.260836,-0.9145120999999999,24.64,-15.0675,-3.675
938,1062252,0.308904,0.26766799999999996,-0.9181720999999999,22.8025,-16.3275,-2.03
939,1062351,0.329644,0.2623,-0.913536,21.98,-17.0975,-0.2975
940,1062449,0.32574000000000003,0.24912399999999998,-0.918416,22.47,-18.305,0.9625
941,1062547,0.320372,0.248392,-0.9250040999999999,21.7875,-19.1975,1.6625
942,1062645,0.30792800000000004,0.266692,-0.9201241,19.915,-19.0225,2.1525
943,1062743,0.29743600000000003,0.23692399999999997,-0.928176,19.215,-17.57,2.345
944,1062841,0.29402,0.214232,-0.913536,19.4775,-15.715,2.3275
945,1062939,0.294996,0.186172,-0.9152440000000001,18.655,-14.1225,1.365
946,1063037,0.285236,0.177144,-0.9230520000000001,17.5175,-13.0375,-0.5775
947,1063135,0.284504,0.14518,-0.9284200999999999,16.3975,-11.2,-2.415
948,1063234,0.298656,0.163724,-0.9267120000000001,14.91,-9.8,-3.8325
949,1063332,0.277672,0.21032800000000001,-0.9113399999999999,13.44,-9.66,-4.06
950,1063430,0.273036,0.20447200000000001,-0.9181720999999999,14.21,-8.5575,-3.01
951,1063528,0.280844,0.197152,-0.9103641,15.5925,-6.9125,-1.05
952,1063626,0.268156,0.171776,-0.918416,16.5375,-5.565,0.6825
953,1063724,0.249612,0.1586,-0.8967,17.22,-4.0075,1.8725
954,1063822,0.26108000000000003,0.16835999999999998,-0.9103641,17.99,-1.75,2.73
955,1063920,0.274988,0.171044,-0.9147559999999999,18.62,2.1175,3.1675
956,1064018,0.268888,0.190808,-0.921344,18.9875,6.8075,3.5525
957,1064117,0.286456,0.189344,-0.9333,18.55,13.4575,4.095
958,1064215,0.29743600000000003,0.201544,-0.936716,18.7775,20.615,5.6875
959,1064313,0.309148,0.321592,-0.9347639999999999,17.395,29.7675,7.315
960,1064411,0.15201199999999998,0.22789600000000002,-0.9882001,17.115,40.6175,8.0675
961,1064509,0.259128,0.178608,-1.0553,15.995,56.9625,14.2275
962,1064607,0.24131599999999997,0.203008,-1.038952,11.48,73.90250999999999,26.9675
963,1064705,0.554124,0.08344800000000001,-1.0919,6.1075,97.4225,34.2825
964,1064803,0.510692,0.21447600000000003,-1.171932,3.92,127.365,38.9725
965,1064901,0.394548,0.251808,-1.2439120000000001,10.5175,167.72,49.0875
966,1065000,0.255956,0.174216,-1.437648,25.9875,219.1525,54.5825
967,1065098,0.401136,0.215452,-1.544032,43.8375,291.0425,60.3225
968,1065196,0.326716,0.379176,-1.902712,66.0975,384.0725,68.915
969,1065294,0.284504,0.62464,-2.248948,98.2275,491.225,80.29
970,1065392,0.080276,0.25790799999999997,-2.044964,156.8875,565.6875,107.73
971,1065490,0.505324,0.759572,-2.7816,125.23,573.405,151.6025
972,1065588,1.4208120000000002,1.0645719999999999,-2.42292,87.5525,573.405,177.4675
973,1065686,1.307596,1.424472,-3.2998559999999997,95.515,573.2125,192.045
974,1065784,0.08417999999999999,1.383968,-3.072448,40.04,526.715,150.92
975,1065883,-0.849852,1.198284,-2.913116,42.035,382.305,168.7525
976,1065981,4.076264,-0.303048,-1.506212,12.5825,288.5575,210.7525
977,1066079,2.4504919999999997,0.83204,-3.249836,-61.3025,346.0275,249.6725
978,1066177,0.746396,2.561268,-4.266828,-198.1875,204.0325,85.92501
979,1066275,-0.29792399999999997,2.8189319999999998,-3.18054,-174.51,27.825,-22.3475
980,1066373,-0.895236,2.5878639999999997,-2.393884,-82.1975,-70.9975,-96.8275
981,1066471,-0.8447280999999999,2.0691200000000003,-1.641388,40.4775,-109.0775,-127.6275
982,1066569,-0.739564,1.354688,-1.35054,149.1875,-140.5775,-141.2775
983,1066667,-0.672708,0.7129681,-1.151924,191.3275,-173.565,-151.7425
984,1066765,-0.628544,0.305976,-1.019432,168.3675,-208.39,-157.045
985,1066864,-0.543632,0.10004,-0.93086,113.54,-240.065,-153.72
986,1066962,-0.450912,0.061,-0.8949921000000001,53.9175,-267.365,-141.5225
987,1067060,-0.272548,0.183732,-0.9489161,6.7725,-290.3775,-122.115
988,1067158,-0.05246,0.34867600000000004,-1.039684,-20.3,-313.565,-101.465
989,1067256,0.195932,0.502152,-1.135332,-32.62,-339.15,-85.92501
990,1067354,0.39894,0.6034121,-1.173884,-36.68,-368.5675,-80.0275
991,1067452,0.48068,0.6021920000000001,-1.086288,-35.315,-395.3075,-82.6
992,1067550,0.5214281,0.529968,-0.956968,-36.5575,-412.5275,-87.15
993,1067649,0.5795,0.454816,-0.8996280999999999,-46.76,-419.37,-90.65001
994,1067747,0.6541640000000001,0.423096,-0.9174399999999999,-64.9775,-418.425,-93.065
995,1067845,0.7378560000000001,0.417484,-1.053348,-91.84000999999999,-412.5625,-95.06
996,1067943,0.8015399999999999,0.403332,-1.197552,-123.8475,-406.0175,-99.995
997,1068041,0.897432,0.392352,-1.380064,-157.85,-402.0625,-106.1025
998,1068139,1.014308,0.39894,-1.552084,-187.705,-402.1675,-110.0575
999,1068237,1.0919,0.44408000000000003,-1.685552,-208.8275,-403.8475,-111.02
1000,1068335,1.1599760000000001,0.553636,-1.7265439999999999,-210.8225,-402.115,-106.3475
1001,1068434,1.1960879999999998,0.580964,-1.7760759999999998,-198.59,-392.4025,-95.9875
1002,1068532,1.3090600000000001,0.58194,-1.836588,-187.285,-373.6425,-89.0925
1003,1068630,1.5669680000000001,0.5795,-2.02886,-190.8725,-345.2925,-86.51999
1004,1068728,1.910764,0.67588,-2.243336,-212.1175,-314.58,-95.55
1005,1068826,2.17404,0.8195960999999999,-2.2301599999999997,-219.94,-288.5925,-119.8575
1006,1068924,2.432436,0.537044,-2.050576,-195.4925,-261.8525,-147.9625
1007,1069022,2.656184,-0.02074,-1.845616,-143.78,-232.995,-175.5075
1008,1069120,2.89994,-0.447496,-1.668716,-94.43,-203.4375,-191.73
1009,1069218,2.944836,-0.725412,-1.214632,-44.6775,-179.235,-199.22
1010,1069316,3.208356,-0.802272,-0.7015,6.09,-155.5575,-197.1725
1011,1069415,3.7639440000000004,-1.132892,-0.313296,69.0025,-132.685,-168.91
1012,1069513,4.232424,-1.712636,0.18666,118.2125,-113.365,-115.045
1013,1069611,3.744668,-2.201368,0.793244,120.3825,-83.51001,-47.915
1014,1069709,2.761104,-2.5254,1.5950280000000001,72.205,-15.54,26.355
1015,1069807,2.94142,-0.06929600000000001,2.833328,23.59,177.73,105.63
1016,1069905,-1.013332,-0.8640040000000001,-0.7415161,120.015,372.295,183.295
1017,1070003,0.9799041,0.9296399999999999,-3.032676,1.085,467.1275,218.155
1018,1070102,3.594364,0.64172,-1.616744,62.4925,437.255,154.7525
1019,1070200,1.5579399999999999,-0.354044,-1.795352,142.8875,360.745,99.855
1020,1070298,1.9075919999999997,0.270352,-3.4340559999999996,59.1325,317.2575,92.295
1021,1070396,1.7328880000000002,-0.5016641,-2.566636,90.79,245.0875,92.89001
1022,1070494,1.0077200000000002,-0.379176,-1.916132,71.75,182.3675,83.2475
1023,1070592,0.47092,0.30988000000000004,-0.9952761,34.335,148.365,73.7275
1024,1070690,0.511424,0.7956840999999999,-0.8132520999999999,18.2525,144.62,69.0025
1025,1070788,0.740296,0.8105680000000001,-0.9916161,22.33,150.9025,53.97
1026,1070886,2.371436,2.05692,-4.208268,61.6175,127.995,34.0375
1027,1070984,1.361032,1.169736,-0.621468,216.125,54.9325,2.415
1028,1071083,0.204716,-0.6707561,-1.2902719999999999,199.78,32.13,0.1575
1029,1071181,0.597068,-0.618784,-1.268312,151.585,25.095,11.795
1030,1071279,0.686128,0.6946681,-1.152412,66.2025,2.135,5.0575
1031,1071377,0.411628,0.179584,-1.027728,72.2575,-5.53,-3.045
1032,1071475,0.44652,0.057096,-1.045784,59.3425,-11.4975,0.6125
1033,1071573,0.3843,0.121024,-0.9952761,37.5375,-18.34,-1.0325
1034,1071671,0.333304,0.164456,-0.968924,27.195,-20.545,-3.4475
1035,1071769,0.325496,0.162504,-0.9628241,20.93,-20.2475,-4.1125
1036,1071868,0.312808,0.20642399999999997,-0.9472079999999999,15.6275,-20.4575,-4.8475
1037,1071966,0.327692,0.23301999999999998,-0.9418401,13.23,-20.1075,-5.2325
1038,1072064,0.334036,0.23253200000000002,-0.9433041,12.635,-20.475,-4.97
1039,1072162,0.307196,0.233996,-0.9450120000000001,12.425,-21.455,-4.655
1040,1072260,0.293532,0.255956,-0.9335440999999999,12.8275,-21.385,-4.585
1041,1072358,0.299144,0.271816,-0.927688,14.385,-21.105,-3.64
1042,1072456,0.281332,0.256932,-0.9235399999999999,16.45,-21.035,-2.5725
1043,1072555,0.26108000000000003,0.227652,-0.915732,18.8825,-20.51,-1.54
1044,1072652,0.25254,0.19642,-0.919636,19.705,-19.5125,-0.63
1045,1072751,0.23692399999999997,0.18446400000000002,-0.9086559999999999,18.9525,-18.4275,0.1925
1046,1072849,0.22935999999999998,0.17202,-0.913536,17.99,-16.625,0.6475
1047,1072947,0.238144,0.134932,-0.90646,17.3425,-14.3325,1.12
1048,1073045,0.235704,0.09930800000000001,-0.9076799999999999,16.1525,-12.495,0.8400001
1049,1073143,0.21032800000000001,0.10540799999999999,-0.902068,14.035,-10.5,-0.3675
1050,1073241,0.205692,0.10687200000000001,-0.9015799999999999,13.0025,-7.0875,-1.05
1051,1073339,0.219844,0.122244,-0.9032879999999999,12.915,-3.0975,-0.8575
1052,1073438,0.242292,0.12078,-0.9225639999999999,13.2475,0.2275,-0.385
1053,1073536,0.268888,0.13785999999999998,-0.9323239999999999,14.2625,2.73,0.6475
1054,1073634,0.256444,0.11614400000000001,-0.9381801,14.28,4.795,2.3625
1055,1073732,0.26108000000000003,0.07832401,-0.9333,13.475,7.385,4.2175
1056,1073830,0.267912,0.10760399999999999,-0.9398880999999999,10.43,10.745,5.32
1057,1073928,0.304512,0.139568,-0.9398880999999999,8.4175,14.245,5.81
1058,1074026,0.267424,0.221552,-0.9381801,6.8075,18.8125,5.6
1059,1074124,0.2928,0.274256,-0.9916161,6.23,26.4425,5.8275
1060,1074222,0.190808,0.42578,-0.98088,8.4,35.3325,8.9425
1061,1074320,0.14713199999999999,0.22448,-1.0645719999999999,14.56,48.685,14.7175
1062,1074419,0.21032800000000001,0.040748,-1.097024,19.8625,68.46,23.73
1063,1074517,0.6021920000000001,0.125416,-1.065548,12.88,90.0375,35.4375
1064,1074615,0.47775200000000007,0.126636,-1.1509479999999999,5.3725,116.8125,42.4025
1065,1074713,0.490684,0.174216,-1.267092,6.72,154.8225,53.7425
1066,1074811,0.145424,0.128588,-1.328336,14.8225,205.2575,60.9875
1067,1074909,0.504104,0.189832,-1.507188,24.5525,272.615,67.585
1068,1075007,0.083936,0.595604,-1.839272,42.9975,362.81,76.8075
1069,1075105,0.20618000000000003,0.58804,-1.924916,83.615,463.2425,90.3875
1070,1075204,0.194224,0.34721199999999997,-2.121336,127.3825,557.4975,125.1775
1071,1075302,0.15396400000000002,0.777384,-2.744024,94.65751,573.405,165.7775
1072,1075400,1.43472,1.261236,-2.741584,6.1075,573.405,197.715
1073,1075498,0.957456,1.737768,-3.4845639999999998,19.8625,567.0875,210.9275
1074,1075596,0.033428,1.335412,-3.0573200000000003,-32.6725,469.9275,183.4175
1075,1075694,-0.8949921000000001,0.9520881,-1.927112,-0.6825,338.52,227.255
1076,1075792,4.764832,-0.190564,-2.053748,-25.795,324.9225,283.8325
1077,1075890,0.627568,1.992748,-3.562156,-95.83,338.835,214.2875
1078,1075988,0.525332,2.5000240000000002,-3.14272,-144.13,204.5575,84.5425
1079,1076087,-0.4331,2.3441080000000003,-2.466352,-110.565,74.69,3.3075
1080,1076185,-0.7278521,1.898564,-1.8839240000000002,-25.795,0.8575,-45.465
1081,1076283,-0.66368,1.508896,-1.552816,59.2025,-38.9725,-62.8075
1082,1076381,-0.648796,0.9713639999999999,-1.283928,126.1225,-81.0775,-68.0575
1083,1076479,-0.629764,0.514108,-1.125084,146.685,-122.22,-70.4725
1084,1076577,-0.598288,0.185196,-1.0025959999999998,119.9275,-160.3525,-71.4
1085,1076675,-0.525088,0.048556,-0.9489161,58.625,-192.7275,-71.2425
1086,1076773,-0.398208,0.133468,-0.954528,-15.575,-219.695,-71.3825
1087,1076871,-0.222284,0.34477199999999997,-0.9874681000000001,-76.5625,-245.6125,-73.885
1088,1076970,-0.07246799999999999,0.573156,-1.039684,-110.1275,-272.44,-81.13
1089,1077068,0.07710399999999999,0.7041841,-1.066524,-117.6175,-296.1525,-94.58751
1090,1077166,0.181292,0.7442,-1.0438319999999999,-105.315,-315.8575,-114.205
1091,1077264,0.26961999999999997,0.68808,-1.015772,-85.155,-328.335,-135.2925
1092,1077362,0.34794400000000003,0.54656,-0.9947881,-68.2675,-334.0925,-155.575
1093,1077460,0.42212,0.400648,-1.0016200000000002,-60.8475,-334.4075,-174.1075
1094,1077558,0.5060560000000001,0.277916,-1.09922,-65.345,-331.3625,-189.0525
1095,1077656,0.6034121,0.215696,-1.2395200000000002,-79.73001,-328.685,-200.1825
1096,1077754,0.711992,0.23009200000000002,-1.4064159999999999,-98.35,-329.595,-207.935
1097,1077853,0.8081281,0.24863600000000002,-1.5464719999999998,-116.585,-334.1275,-214.48
1098,1077951,0.8671761,0.2501,-1.6391919999999998,-131.9675,-341.04,-221.2175
1099,1078049,0.9589200999999999,0.273768,-1.7328880000000002,-147.9975,-347.48,-225.33
1100,1078147,1.036268,0.35892399999999997,-1.845372,-161.875,-353.99,-227.0275
1101,1078245,1.133624,0.5690081,-1.979572,-163.0825,-357.7525,-225.9425
1102,1078343,1.28344,0.7747001,-2.151836,-144.8125,-357.385,-220.3425
1103,1078441,1.414712,0.78446,-2.257732,-108.6925,-354.655,-215.5825
1104,1078539,1.604544,0.721264,-2.403644,-80.57,-350.7525,-214.4975
1105,1078637,1.84342,0.68686,-2.56078,-67.235,-349.965,-212.73
1106,1078736,2.072536,0.709796,-2.636176,-67.9525,-352.905,-208.355
1107,1078834,2.32898,0.649528,-2.442684,-68.95,-357.7,-204.505
1108,1078932,2.6400799999999998,0.5607121,-2.011536,-56.525,-360.3075,-199.7975
1109,1079030,2.802584,-0.061975999999999996,-1.1873040000000001,-24.6575,-351.9075,-179.1125
1110,1079128,3.166144,-1.2134120000000002,-0.353556,8.7675,-326.9875,-137.515
1111,1079226,3.802496,-1.9956759999999998,0.357948,8.4875,-276.08,-61.775
1112,1079324,3.713436,-2.28384,0.7266321,-39.0775,-212.2225,31.8675
1113,1079422,3.559228,-1.879776,0.5858439999999999,-96.95,-144.5675,97.00251
1114,1079520,3.6163239999999996,-1.0826280000000001,0.167628,-99.9075,-80.08,125.1425
1115,1079619,3.25618,-0.519964,-0.271816,-19.9325,-28.98,137.69
1116,1079717,2.6471560000000003,-0.32256799999999997,-0.5936520000000001,101.5175,10.4475,142.66
1117,1079815,2.183312,-0.573156,-0.544852,180.53,36.82,140.9625
1118,1079913,-2.4173080000000002,1.090192,-0.167872,204.1375,83.86001,177.9575
1119,1080011,-3.728076,2.338984,-0.09028,196.5425,202.44,244.16
1120,1080109,1.8770919999999998,0.7893399999999999,-0.07002799999999999,185.92,390.2325,355.4775
1121,1080207,3.2713080000000003,-0.7195560000000001,-0.29792399999999997,257.285,448.7525,219.9225
1122,1080305,1.081164,0.6283,-2.358504,-11.4625,355.81,9.7125
1123,1080404,1.69092,-0.659532,-3.262524,60.8825,337.855,29.225
1124,1080502,1.49694,-1.158756,-2.212348,108.5525,262.815,89.005
1125,1080600,1.182668,-0.001952,-2.175016,46.76,209.3175,85.19
1126,1080698,1.089948,0.7478600000000001,-1.8256080000000001,9.6425,175.7525,61.845
1127,1080796,0.7473721,0.6505041,-1.209508,32.2875,146.9475,47.1275
1128,1080894,0.66368,0.400892,-1.116544,40.8975,132.895,35.84
1129,1080992,0.632448,0.35843600000000003,-1.109224,37.555,120.05,33.915
1130,1081090,0.37576,1.424228,-1.931504,35.2975,105.0,32.025
1131,1081189,1.815604,1.127524,-1.331264,103.6525,70.1225,-0.98
1132,1081287,0.3294,-0.42285200000000006,-1.16022,147.7875,27.8775,-4.2875
1133,1081385,0.343064,-0.036844,-1.062376,103.11,13.2475,-1.5225
1134,1081483,0.6912520000000001,0.48995200000000005,-1.125084,69.8425,6.5975,-2.5375
1135,1081581,0.380884,0.126392,-1.041636,65.52,-2.5725,-4.4975
1136,1081679,0.404064,0.09589201,-1.054324,50.785,-7.4375,-2.8525
1137,1081777,0.410896,0.17836400000000002,-1.014308,32.27,-12.74,-2.9225
1138,1081875,0.34428400000000003,0.110044,-0.990884,21.6125,-17.395,-4.2175
1139,1081973,0.350628,0.15372,-0.9716081,10.185,-20.615,-3.7975
1140,1082072,0.35282399999999997,0.19032000000000002,-0.9516,1.4875,-23.59,-3.36
1141,1082170,0.337452,0.203496,-0.9240280000000001,-2.555,-26.425,-2.2925
1142,1082268,0.274256,0.255468,-0.9052401,-3.8675,-28.35,0.0175
1143,1082366,0.26352,0.306464,-0.8949921000000001,-3.4125,-27.5275,0.9975
1144,1082464,0.27523200000000003,0.386008,-0.8884040000000001,0.42,-25.7075,-0.385
1145,1082562,0.239608,0.335012,-0.862296,6.6325,-23.275,-2.73
1146,1082660,0.21520799999999998,0.329644,-0.856196,13.09,-20.7025,-3.8675
1147,1082758,0.180804,0.351848,-0.837408,20.9125,-17.115,-4.795
1148,1082857,0.22472399999999998,0.310612,-0.8801081000000001,32.0075,-11.9,-5.5125
1149,1082955,0.299144,0.2196,-0.9557479999999999,40.39,-9.4325,-5.8625
1150,1083053,0.25986,0.200568,-0.91622,40.845,-12.565,-5.2675
1151,1083151,0.262056,0.13908,-0.9967401,39.1125,-14.9625,-4.865
1152,1083249,0.24522,0.10223600000000001,-0.9564799999999999,30.0825,-18.025,-2.8175
1153,1083347,0.236436,0.174704,-0.950868,22.9425,-18.8475,-2.5375
1154,1083445,0.25522399999999995,0.142496,-0.956968,21.3325,-16.87,-2.8875
1155,1083543,0.24888000000000002,0.139568,-0.9616040000000001,18.7425,-16.3975,-3.15
1156,1083641,0.2013,0.143228,-0.9240280000000001,16.6425,-16.345,-3.255
1157,1083740,0.165188,0.151524,-0.8971879999999999,15.225,-15.68,-2.45
1158,1083838,0.154696,0.155428,-0.9030440000000001,12.7925,-14.07,-0.595
1159,1083936,0.17543599999999998,0.160796,-0.9120720999999999,11.7775,-10.8675,1.82
1160,1084034,0.245464,0.152988,-0.9206120000000001,12.6525,-6.195,4.4975
1161,1084132,0.233752,0.116388,-0.946232,14.2275,-1.89,4.5325
1162,1084230,0.202764,0.13761600000000002,-0.936716,14.28,3.3075,2.3625
1163,1084328,0.24790399999999999,0.182268,-0.951356,12.3025,10.3775,1.75
1164,1084426,0.2318,0.229848,-0.9325680000000001,13.02,15.855,2.7475
1165,1084525,0.280844,0.29987600000000003,-0.9440360999999999,12.4775,23.94,6.37
1166,1084623,0.36282800000000004,0.21276799999999998,-0.951844,15.6975,32.1125,10.0625
1167,1084721,0.276452,0.26108000000000003,-0.955992,14.4725,37.59,11.515
1168,1084819,0.122,0.24326799999999998,-1.067744,13.965,46.76,11.795
1169,1084917,0.142984,0.2623,-1.110688,10.465,63.7875,16.695
1170,1085015,0.250344,0.090768,-1.0438319999999999,7.9625,87.67501,33.18
1171,1085113,0.363316,0.32403200000000004,-1.229272,0.8575,115.8325,52.0975
1172,1085211,0.34038,0.0427,-1.3139399999999999,9.31,152.985,68.985
1173,1085310,0.36722,0.562664,-1.5001120000000001,16.975,211.015,76.3525
1174,1085408,0.39967199999999997,0.17641199999999999,-1.58966,48.825,289.5025,81.0075
1175,1085506,0.2928,0.462624,-1.80804,71.3825,381.5525,100.065
1176,1085604,0.14347200000000002,0.525088,-2.008852,102.8125,480.34,112.9625
1177,1085702,-0.285724,1.0126,-2.72304,126.9975,563.08,144.6375
1178,1085800,0.30988000000000004,0.898652,-2.688392,130.4625,573.405,181.965
1179,1085898,1.6548080000000003,1.103124,-2.6532560000000003,112.0,573.405,225.435
1180,1085996,0.9894200000000001,1.1812040000000001,-4.220712000000001,105.9975,567.175,219.555
1181,1086094,-0.256444,1.487668,-2.791604,43.8025,449.855,172.6025
1182,1086193,0.09320801,0.628544,-1.867088,43.1375,295.4525,189.56
1183,1086291,4.147024,-0.328912,-2.683512,26.0225,311.675,243.04
1184,1086389,0.472872,2.037156,-3.8610559999999996,-120.7325,241.815,119.9625
1185,1086487,-0.066856,2.16794,-2.527108,-122.675,102.2,9.31
1186,1086585,-0.9757561,1.8302439999999998,-1.665056,-88.11251,11.9875,-57.75
1187,1086683,-0.818132,1.620892,-1.232932,-42.2625,-6.8075,-93.835
1188,1086781,-0.8730319999999999,1.1873040000000001,-0.9699,21.385,-30.135,-118.125
1189,1086879,-0.8610761,0.679784,-0.8222799999999999,63.6125,-54.0925,-133.42
1190,1086978,-0.813008,0.31476,-0.764696,70.8575,-75.3725,-141.75
1191,1087076,-0.7015,0.08003201,-0.8357,52.0625,-96.93251,-140.665
1192,1087174,-0.5607121,-0.046360000000000005,-0.9450120000000001,25.41,-122.815,-130.9875
1193,1087272,-0.4209,-0.08417999999999999,-1.065792,0.8400001,-153.9475,-114.38
1194,1087370,-0.24424400000000002,-0.028792,-1.142408,-19.11,-190.155,-93.695
1195,1087468,-0.096868,0.029768,-1.1599760000000001,-30.94,-230.8425,-74.1475
1196,1087566,0.01098,0.08808401,-1.1009280000000001,-36.82,-271.0225,-59.5525
1197,1087664,0.116632,0.136884,-1.012356,-43.12,-305.4975,-50.785
1198,1087763,0.18422,0.19178399999999998,-0.91012,-51.38,-332.2375,-48.5975
1199,1087861,0.21838000000000002,0.241804,-0.798856,-61.4775,-349.37,-51.94
1200,1087959,0.244732,0.281332,-0.746396,-72.87,-357.14,-58.905
1201,1088057,0.282308,0.331352,-0.79666,-88.41001,-356.79,-69.2825
1202,1088155,0.374052,0.410896,-0.9325680000000001,-109.095,-352.1175,-84.28
1203,1088253,0.501908,0.45871999999999996,-1.139968,-130.3225,-347.7425,-103.565
1204,1088351,0.638304,0.43773599999999996,-1.333216,-148.3825,-346.36,-124.4775
1205,1088449,0.741272,0.357216,-1.520852,-163.66,-349.4225,-142.24
1206,1088548,0.844484,0.25522399999999995,-1.7141,-178.885,-353.5175,-153.4925
1207,1088646,0.9679481,0.27571999999999997,-1.844396,-188.6675,-356.895,-158.235
1208,1088744,1.071648,0.296704,-1.9773759999999998,-186.8125,-358.33,-152.215
1209,1088842,1.203408,0.336964,-2.090836,-170.8875,-355.635,-138.075
1210,1088940,1.345904,0.477996,-2.216252,-154.595,-351.9075,-123.7075
1211,1089038,1.469856,0.647332,-2.329224,-147.315,-349.3,-117.355
1212,1089136,1.590392,0.7376119999999999,-2.318488,-144.5325,-345.0475,-126.7
1213,1089234,1.622112,0.6695361,-2.165988,-134.925,-334.18,-147.315
1214,1089332,1.681648,0.447496,-2.018612,-119.8925,-309.855,-166.88
1215,1089431,1.874164,0.309148,-1.9346759999999998,-103.4775,-275.5375,-186.305
1216,1089529,2.339472,0.407724,-1.8119439999999998,-83.265,-241.465,-204.5575
1217,1089627,3.015596,0.38552,-1.294176,-37.17,-220.255,-217.945
1218,1089725,3.470168,-0.564616,-0.268888,45.2375,-207.025,-211.7325
1219,1089823,3.63194,-1.8478119999999998,0.610244,108.7275,-175.98,-166.32
1220,1089921,3.3964800000000004,-2.656916,1.169492,81.095,-116.0425,-75.3375
1221,1090019,3.038532,-1.9990919999999999,0.8666879999999999,-23.345,-40.67,6.72
1222,1090117,2.976312,-0.913048,0.197884,-81.60251,35.0525,41.0725
1223,1090215,3.3164480000000003,-0.7183361,-0.13664,-38.43,88.53251,56.5075
1224,1090314,0.5453399999999999,-0.074664,0.909632,55.0025,171.8325,82.9325
1225,1090412,-0.6368401,0.225944,-1.1956,116.6025,273.175,144.9175
1226,1090510,-0.265716,1.489376,-2.185996,34.7025,321.7025,255.3425
1227,1090608,2.957036,-0.128832,-0.537532,197.995,357.63,247.625
1228,1090706,0.729316,0.089792,-0.294996,146.8075,292.845,132.125
1229,1090804,1.037976,0.714432,-2.369484,43.855,315.875,61.635
1230,1090902,1.601372,-0.299144,-2.495144,71.85501,295.575,79.31
1231,1091000,1.0565200000000001,-1.152168,-1.7336200000000002,105.9625,232.715,93.17
1232,1091099,1.184376,-0.24351199999999998,-1.896368,28.6475,200.515,87.3075
1233,1091197,1.107272,0.504592,-1.6731080000000003,-1.5925,172.8475,75.145
1234,1091295,0.8025161,0.430172,-1.136308,14.0525,149.8175,67.1125
1235,1091393,0.254736,1.158512,-1.323212,12.32,137.4625,52.745
1236,1091491,2.513932,2.4038880000000002,-1.676768,92.83751,105.175,5.11
1237,1091589,0.9525761,0.126392,-1.18096,227.675,54.8975,-5.565
1238,1091687,0.128832,-0.5516840000000001,-1.031388,171.5875,26.425,7.4725
1239,1091785,0.61,0.5453399999999999,-1.170224,109.935,12.495,8.96
1240,1091883,0.44847200000000004,0.115656,-1.061888,101.08,6.0025,7.2975
1241,1091982,0.417728,0.20788800000000002,-0.973316,74.585,-4.6375,15.925
1242,1092080,0.495076,0.11053199999999999,-0.989664,55.51,-10.1675,20.4225
1243,1092178,0.4819,0.075396,-1.012844,45.465,-15.855,17.7625
1244,1092276,0.364536,0.17616800000000002,-0.9828321,28.56,-19.9675,12.8275
1245,1092374,0.37698000000000004,0.132248,-0.9623360999999999,23.31,-16.205,10.2025
1246,1092472,0.36136399999999996,0.172264,-0.9581881,17.255,-14.4025,6.4225
1247,1092570,0.347456,0.176656,-0.951844,14.2275,-12.985,3.5
1248,1092668,0.3477,0.16592,-0.9467200000000001,11.9,-11.375,2.205
1249,1092766,0.340868,0.185928,-0.9413520000000001,9.625,-10.3425,2.17
1250,1092865,0.343796,0.17446,-0.9408639999999999,8.3825,-9.1175,3.185
1251,1092963,0.353312,0.15372,-0.9372040999999999,7.4375,-8.12,3.7975
1252,1093061,0.368684,0.15372,-0.9372040999999999,6.2125,-8.015,2.6775
1253,1093159,0.36892800000000003,0.160308,-0.9396440999999999,4.9,-8.89,1.3475
1254,1093257,0.360144,0.15274400000000002,-0.9325680000000001,4.27,-10.6575,0.5075
1255,1093355,0.337696,0.16128399999999998,-0.9315921,3.71,-12.3725,-0.5075
1256,1093453,0.33916,0.172996,-0.9298841,3.57,-12.775,-1.365
1257,1093551,0.35258,0.156648,-0.9381801,3.9725,-12.8275,-1.4175
1258,1093650,0.36282800000000004,0.158844,-0.9423280999999999,3.78,-13.755,-1.715
1259,1093748,0.36356,0.172264,-0.9345201,3.22,-15.435,-2.345
1260,1093846,0.360632,0.165188,-0.9235399999999999,3.4475,-17.4125,-2.59
1261,1093944,0.28426,0.153232,-0.8744960999999999,3.605,-20.0725,-2.8525
1262,1094042,0.233508,0.193736,-0.9106081,3.465,-21.3325,-2.765
1263,1094140,0.28377199999999997,0.16958,-0.916464,4.7075,-17.535,-1.505
1264,1094238,0.294996,0.16348,-0.9237841,5.1275,-14.2975,-0.875
1265,1094336,0.319152,0.167384,-0.9267120000000001,5.915,-12.5825,-0.9625
1266,1094434,0.335744,0.16689600000000002,-0.9376921,6.7025,-12.3375,-1.0675
1267,1094533,0.348188,0.15274400000000002,-0.94306,7.4025,-12.9325,-0.9625
1268,1094631,0.349652,0.150304,-0.9535521,7.07,-14.28,-1.2775
1269,1094729,0.340624,0.15274400000000002,-0.9540401,5.9675,-15.505,-2.03
1270,1094827,0.313784,0.174216,-0.9398880999999999,5.1275,-16.24,-2.8525
1271,1094925,0.211548,0.193248,-0.8976761000000001,5.075,-16.135,-3.0275
1272,1095023,0.158844,0.21886799999999998,-0.892552,5.635,-11.935,-1.5925
1273,1095121,0.202276,0.192028,-0.9006040999999999,8.47,-2.94,1.7675
1274,1095219,0.250344,0.13176,-0.9089001,12.18,6.23,4.62
1275,1095318,0.276208,0.09125599999999999,-0.9142680000000001,12.5475,14.315,4.55
1276,1095416,0.206668,0.185196,-0.93086,9.87,24.3775,3.6575
1277,1095514,0.157868,0.334036,-0.9455,7.595,39.7075,4.655
1278,1095612,0.20252,-0.111996,-1.0711600000000001,7.8575,61.11,8.8375
1279,1095710,0.24863600000000002,0.246928,-1.187548,0.49,91.035,18.34
1280,1095808,0.325008,0.14713199999999999,-1.331508,-1.68,132.3,27.0025
1281,1095906,0.433832,0.283528,-1.367376,5.0575,193.3575,35.8925
1282,1096005,0.049288,0.19959200000000002,-1.641632,16.59,268.1875,46.865
1283,1096103,-0.12248800000000001,0.5873079999999999,-1.9129599999999998,45.2375,361.7775,46.5675
1284,1096201,-0.145912,0.8010520000000001,-2.47172,86.51999,475.405,50.365
1285,1096299,-0.428708,0.822768,-2.5034400000000003,156.835,562.835,62.51
1286,1096397,0.7317560000000001,0.587796,-2.72914,212.94,573.405,94.44751
1287,1096495,0.7317560000000001,0.49605200000000005,-2.082784,290.5525,573.405,126.1925
1288,1096593,0.9520881,1.118496,-2.3738759999999997,253.47,557.2,115.1675
1289,1096691,0.135908,0.8586360000000001,-1.8827040000000002,209.86,470.4525,54.3375
1290,1096789,-0.5941401,0.822524,-2.0618,196.0525,365.015,72.66
1291,1096888,2.715476,0.8910879999999999,-1.3163799999999999,180.95,288.8025,68.1275
1292,1096986,2.5161279999999997,1.377868,-1.324676,235.69,310.765,-5.11
1293,1097084,1.206824,1.890268,-4.077972,140.3675,166.565,-145.4775
1294,1097182,0.406992,1.033828,-2.218692,228.6725,4.7775,-218.2075
1295,1097280,-0.7661600000000001,0.44164,-1.142408,261.0125,-109.095,-231.9625
1296,1097378,-0.87474,0.139812,-0.7041841,274.7325,-138.005,-191.2575
1297,1097476,-0.781776,0.08637601,-0.6902761,274.4175,-139.1775,-137.655
1298,1097574,-0.642452,0.21472,-0.8364321,256.795,-150.4825,-91.7525
1299,1097673,-0.474092,0.44773999999999997,-0.9152440000000001,223.7025,-174.7725,-57.6975
1300,1097771,-0.35892399999999997,0.7829961,-1.015528,190.61,-212.73,-34.965
1301,1097869,-0.183732,1.123376,-1.075796,171.535,-253.2775,-17.605
1302,1097967,0.054167999999999994,1.436916,-1.12606,163.975,-294.35,-7.735
1303,1098065,0.31524800000000003,1.7111720000000001,-1.139968,160.475,-337.785,-10.5525
1304,1098163,0.58072,1.94712,-1.053592,157.0275,-382.55,-27.3875
1305,1098261,0.743712,2.101328,-0.8276481,160.7375,-424.3225,-56.105
1306,1098359,0.8708360999999999,2.183312,-0.5799880000000001,168.805,-453.145,-89.74
1307,1098457,1.08092,2.223084,-0.361608,173.18,-466.1125,-122.5175
1308,1098556,1.249768,2.23382,-0.174216,169.1375,-465.395,-156.24
1309,1098654,1.336632,2.176968,0.043432,156.1,-448.035,-194.495
1310,1098752,1.4069040000000002,2.130608,0.123708,127.05,-411.915,-233.5025
1311,1098850,1.56892,2.192828,0.005856,81.39251,-361.7775,-269.8675
1312,1098948,1.77998,2.341424,-0.23692399999999997,31.045,-310.8525,-306.18
1313,1099046,1.957612,2.4766,-0.48068,-4.585,-269.9375,-344.855
1314,1099144,2.084248,2.4451240000000003,-0.6373281,-18.795,-239.6625,-379.855
1315,1099242,2.188924,2.303604,-0.652944,-20.2825,-216.58,-405.5975
1316,1099340,2.210152,2.148908,-0.57584,-18.06,-196.77,-422.4675
1317,1099439,2.155496,1.9881119999999999,-0.46506400000000003,-19.4075,-173.0925,-435.19
1318,1099537,2.085468,1.87758,-0.42602399999999996,-24.6925,-141.1725,-447.825
1319,1099635,2.140368,1.861232,-0.480192,-30.03,-103.25,-459.0775
1320,1099733,2.223328,1.8058439999999998,-0.518012,-27.0725,-68.67,-468.1425
1321,1099831,2.27164,1.6384599999999998,-0.49605200000000005,-15.33,-41.1075,-471.4325
1322,1099929,2.281888,1.4276440000000001,-0.5131319999999999,-6.7025,-19.005,-463.7325
1323,1100027,2.338252,0.9806360000000001,-0.563396,-10.22,-2.1875,-444.7625
1324,1100125,2.2587080000000004,0.28426,-0.540704,-32.3575,8.75,-428.96
1325,1100223,2.243336,-0.05124001,-0.679296,-75.04,25.1125,-404.0925
1326,1100322,2.1596439999999997,-0.14688800000000002,-0.8188641,-75.5475,37.835,-356.5625
1327,1100420,2.108648,0.058072000000000006,-0.9918600000000001,-50.9775,40.2675,-302.155
1328,1100518,2.167208,0.209596,-1.0784799999999999,-7.28,26.67,-248.4825
1329,1100616,2.1581799999999998,0.178852,-0.858392,38.255,-3.0975,-201.985
1330,1100714,1.990552,0.07808001,-0.40504,59.36,-35.28,-155.8375
1331,1100812,2.29848,-0.45603599999999994,1.009428,51.7125,-40.215,-108.675
1332,1100910,2.6171439999999997,0.6470880999999999,1.93858,2.9925,68.705,-82.3725
1333,1101008,1.754116,0.502152,1.661884,-14.7175,194.95,-99.5225
1334,1101106,1.121912,0.122,-1.939068,-30.765,247.905,-152.5825
1335,1101205,0.378688,-1.1934040000000001,-2.9426400000000004,-25.2,229.4075,-174.72
1336,1101303,0.447008,-3.480172,-2.79624,79.3625,207.41,-73.115
1337,1101401,1.8407360000000001,-2.3089720000000002,-2.71084,-2.9575,155.645,56.665
1338,1101499,0.9772200999999999,1.273436,-2.041548,-133.63,55.93,52.8325
1339,1101597,1.260748,3.083916,-0.71858,25.5675,-8.12,-3.465
1340,1101695,0.121268,1.314184,-0.4392,155.96,2.87,-40.915
1341,1101793,0.975024,-0.9284200999999999,-1.80682,175.0,36.365,-25.55
1342,1101892,0.30622,0.057828,-0.931348,80.9375,-6.265,-5.6525
1343,1101990,0.216916,0.86498,-0.790804,39.6725,-16.7475,-9.87
1344,1102088,0.27205999999999997,-0.052948,-1.127524,66.2725,-0.8925,-9.205
1345,1102186,0.2806,0.13761600000000002,-0.9476959999999999,37.87,-6.23,1.7325
1346,1102284,0.351848,0.209352,-0.9791719999999999,20.825,-8.9075,2.59
1347,1102382,0.290848,0.223748,-0.9650200999999999,20.265,-9.1525,2.7125
1348,1102480,0.282552,0.220088,-0.9720960999999999,17.395,-8.855,3.2725
1349,1102578,0.30622,0.16958,-0.9825879999999999,17.7275,-6.44,3.0625
1350,1102677,0.292556,0.1891,-0.9608721,14.8225,-5.705,1.0675
1351,1102775,0.27718400000000004,0.18056,-0.9669721,13.2475,-5.32,0.21
1352,1102873,0.252296,0.189344,-0.966728,11.7075,-4.865,0.7525
1353,1102971,0.25498000000000004,0.18104800000000001,-0.956968,10.92,-3.92,2.52
1354,1103069,0.29646,0.164944,-0.9652639999999999,10.4125,-3.29,3.92
1355,1103167,0.294752,0.13859200000000002,-0.9625799999999999,9.8525,-4.025,3.64
1356,1103265,0.278648,0.122732,-0.9596520000000001,8.4875,-4.8125,1.8725
1357,1103363,0.260348,0.132736,-0.9567241,7.07,-5.075,-0.3325
1358,1103461,0.25498000000000004,0.157868,-0.958432,6.1425,-4.9875,-0.8400001
1359,1103560,0.274012,0.166652,-0.9567241,5.9675,-5.495,0.735
1360,1103658,0.265716,0.177876,-0.9472079999999999,5.9325,-6.93,2.2575
1361,1103756,0.265472,0.162992,-0.9423280999999999,6.44,-7.0525,2.905
1362,1103854,0.268156,0.160064,-0.94916,6.58,-6.0025,2.485
1363,1103952,0.2501,0.155672,-0.944524,6.6325,-5.1625,1.8375
1364,1104050,0.255468,0.160308,-0.9494040000000001,6.6325,-4.165,1.5225
1365,1104148,0.268888,0.149572,-0.951356,7.1225,-2.9925,1.33
1366,1104246,0.266204,0.161528,-0.94916,7.14,-2.45,0.98
1367,1104345,0.260836,0.161528,-0.9496479999999999,7.42,-2.0475,0.7525
1368,1104443,0.284016,0.15372,-0.951356,8.05,-1.7675,1.0325
1369,1104541,0.30792800000000004,0.14518,-0.960384,8.12,-2.52,0.8400001
1370,1104639,0.29743600000000003,0.15494000000000002,-0.9581881,7.4725,-3.99,-0.0525
1371,1104737,0.299388,0.142008,-0.9633120999999999,7.0875,-5.6525,-0.8225
1372,1104835,0.33184,0.134688,-0.972828,6.7725,-7.7525,-1.4875
1373,1104933,0.327692,0.144448,-0.9757561,5.74,-10.7975,-2.87
1374,1105031,0.325496,0.139324,-0.975512,5.5125,-14.7525,-3.745
1375,1105129,0.312808,0.17568,-0.9862479999999999,5.1975,-18.8825,-4.34
1376,1105228,0.293288,0.161528,-0.9823440999999999,4.9,-22.5925,-3.7975
1377,1105326,0.245464,0.156648,-0.9616040000000001,4.1475,-24.6225,-3.3775
1378,1105424,0.230336,0.137128,-0.9469641,3.955,-23.8875,-3.1675
1379,1105522,0.219844,0.147376,-0.9489161,3.64,-21.6125,-3.0625
1380,1105620,0.20788800000000002,0.143716,-0.9433041,3.675,-19.1625,-2.3975
1381,1105718,0.19861600000000001,0.14347200000000002,-0.9352520000000001,4.48,-16.66,-1.19
1382,1105816,0.19739600000000002,0.139568,-0.9340321,4.9,-14.28,0.245
1383,1105914,0.18324400000000002,0.10760399999999999,-0.9032879999999999,5.5825,-12.0925,2.0475
1384,1106013,0.155184,0.08954801,-0.9098761000000001,5.005,-10.29,3.85
1385,1106111,0.189832,0.111996,-0.917684,3.675,-7.175,4.7775
1386,1106209,0.165676,0.119316,-0.9225639999999999,3.9025,-4.1125,5.7575
1387,1106307,0.131028,0.125904,-0.927688,4.83,0.9625,6.615
1388,1106405,0.143228,0.067344,-0.9455,7.315,6.9475,5.4775
1389,1106503,0.193248,0.173728,-0.961116,8.47,14.665,6.125
1390,1106601,0.249856,0.121268,-0.9630681000000001,10.745,22.715,7.4725
1391,1106699,0.221552,0.220088,-0.975512,11.1825,29.4175,8.05
1392,1106798,-0.025131999999999998,0.393572,-0.9806360000000001,9.4675,38.78,8.2775
1393,1106896,0.018788,0.35502,-1.048712,8.1725,55.825,10.5875
1394,1106994,0.25864000000000004,0.189344,-1.149972,11.0425,78.96,19.32
1395,1107092,0.047580000000000004,-0.14469200000000002,-1.253916,17.22,103.5125,35.4725
1396,1107190,0.122,0.45603599999999994,-1.3351680000000001,14.4725,137.5675,51.9225
1397,1107288,0.328912,0.8291120999999999,-1.363716,44.73,166.915,45.4475
1398,1107386,0.608536,0.462868,-1.462048,93.975,191.94,70.3325
1399,1107484,0.5063,1.2282959999999998,-1.8892919999999997,140.6825,231.105,72.2225
1400,1107583,0.5917,0.8525360000000001,-1.8290240000000002,233.3625,281.96,74.06
1401,1107681,0.378932,0.68686,-1.783152,294.175,356.475,101.57
1402,1107779,-0.004148001,2.026176,-2.706448,291.0425,420.8225,113.8725
1403,1107877,0.435784,2.490508,-3.2866800000000005,309.82,399.7525,117.0925
1404,1107975,-0.16958,2.399984,-1.801696,448.28,339.6225,51.4675
1405,1108073,2.780868,3.94426,-1.03334,445.5675,277.7075,-49.2275
1406,1108171,1.099708,2.764032,-1.754604,333.795,263.655,-282.8525
1407,1108269,0.791292,1.4332559999999999,-1.46522,346.6225,233.205,-409.9725
1408,1108365,0.42724399999999996,0.068564,-1.1836440000000001,378.245,206.1675,-430.465
1409,1108463,0.193736,-0.9232961,-1.27978,370.9825,184.52,-367.115
1410,1108561,0.026595999999999998,-1.338096,-1.537688,312.1475,147.9625,-265.72
1411,1108660,-0.200324,-1.106052,-1.812432,220.4475,89.4425,-164.7975
1412,1108758,-0.41260399999999997,-0.270352,-1.778516,126.735,22.6275,-86.73
1413,1108856,-0.552416,0.6161,-1.610156,67.62001,-37.5025,-38.99
1414,1108954,-0.6373281,1.277584,-1.413248,56.42,-87.64,-24.3775
1415,1109052,-0.5665680000000001,1.59942,-1.291492,74.5325,-129.955,-37.31
1416,1109150,-0.493856,1.717516,-1.20292,97.755,-164.0275,-67.1125
1417,1109248,-0.41113999999999995,1.6967759999999998,-1.118252,111.2475,-194.425,-102.4625
1418,1109346,-0.3599,1.663348,-0.9484280999999999,111.0725,-224.595,-137.3925
1419,1109445,-0.387472,1.6836,-0.749812,101.22,-251.5625,-170.4325
1420,1109543,-0.45628,1.636264,-0.60146,88.30501,-266.14,-200.9875
1421,1109641,-0.378688,1.512312,-0.58682,69.615,-269.22,-227.3075
1422,1109739,-0.262788,1.372012,-0.6649,44.3275,-270.69,-249.4275
1423,1109837,-0.11834000000000001,1.2456200000000002,-0.803492,13.6325,-272.93,-267.1375
1424,1109935,0.090036,1.161196,-0.9677040000000001,-20.58,-277.305,-279.7725
1425,1110033,0.287188,1.1241079999999999,-1.08702,-47.425,-285.18,-289.065
1426,1110131,0.47043199999999996,1.104344,-1.1838879999999998,-61.705,-293.2475,-293.615
1427,1110230,0.661484,1.077748,-1.279536,-66.4825,-299.565,-294.525
1428,1110328,0.790072,0.974292,-1.36152,-62.7025,-304.1325,-294.1575
1429,1110426,0.907192,0.777384,-1.4295959999999999,-51.0125,-305.2175,-287.9975
1430,1110524,1.005768,0.5165481,-1.420568,-33.495,-303.87,-269.0275
1431,1110622,1.011868,0.199104,-1.391532,-11.095,-299.18,-233.6775
1432,1110720,1.12606,-0.055144000000000006,-1.580632,-6.3525,-286.7375,-181.65
1433,1110818,1.253428,-0.11467999999999999,-1.783396,-23.275,-278.8275,-122.9025
1434,1110916,1.2878319999999999,0.021472,-1.8766040000000002,-48.545,-281.47,-64.89
1435,1111015,1.464244,0.18666,-1.926868,-78.75,-281.4,-11.27
1436,1111113,1.777052,0.344528,-1.8361,-108.185,-278.215,28.7875
1437,1111211,2.143784,0.423096,-1.6977520000000001,-129.815,-268.0125,53.585
1438,1111309,2.685952,0.5443640000000001,-1.7641200000000001,-159.215,-251.5625,61.7925
1439,1111407,3.167852,0.701256,-1.6628599999999998,-188.7375,-245.6475,46.06
1440,1111505,3.291072,0.652944,-1.0626200000000001,-185.605,-249.4975,11.9875
1441,1111603,3.2942440000000004,0.23887600000000003,-0.40967600000000004,-136.395,-236.005,-18.0425
1442,1111702,3.305468,-0.229848,0.021228,-74.6725,-199.675,-29.225
1443,1111800,3.185908,-0.575596,0.249612,-32.97,-153.1075,-30.3975
1444,1111898,3.0573200000000003,-0.706136,0.310856,-13.2825,-103.7575,-26.53
1445,1111996,2.973384,-0.673196,0.249856,1.54,-57.2075,-14.5075
1446,1112094,3.072448,-0.656848,0.460672,25.5325,-15.505,8.645
1447,1112192,3.7939559999999997,0.044652,1.079212,89.5125,82.46,33.2325
1448,1112290,1.039684,-0.416264,2.360456,196.8225,227.6575,66.4825
1449,1112388,-1.178764,-0.47165200000000007,-2.7835520000000002,169.26,302.015,88.655
1450,1112487,1.226344,0.29597199999999996,-2.958988,53.725,335.93,60.0425
1451,1112585,1.8358560000000002,-0.489464,-1.3954360000000001,105.8925,293.3875,38.7275
1452,1112683,0.601216,-1.220244,-1.581608,155.785,246.68,48.72
1453,1112781,1.31516,-0.390156,-2.8618759999999996,54.845,221.0075,54.005
1454,1112879,1.267824,-0.49556400000000006,-2.118896,62.545,168.315,57.9425
1455,1112977,0.741028,0.36209600000000003,-1.475468,45.605,123.235,42.6475
1456,1113075,0.41260399999999997,0.7137001000000001,-0.891576,39.655,106.4875,29.1725
1457,1113173,0.305244,0.4743361,-0.806908,53.13,107.8875,20.65
1458,1113272,0.41968,0.316224,-0.8866961,57.7325,110.0925,23.1525
1459,1113370,0.44505600000000006,0.23668000000000003,-0.9608721,60.0775,108.0975,28.9975
1460,1113468,1.803404,1.212192,-3.8247,59.85,98.7175,15.8725
1461,1113566,1.035292,-0.014152000000000001,-0.7766521,149.7825,35.945,-1.575
1462,1113664,0.07198,-0.277916,-1.0972680000000001,90.0375,-3.92,-0.35
1463,1113762,0.46726,0.031232,-1.0826280000000001,68.0575,-0.7525,-1.89
1464,1113860,0.492148,0.43066000000000004,-1.055788,42.9625,-7.875,-2.5025
1465,1113958,0.337208,0.082716,-0.9772200999999999,41.2825,-12.88,-4.76
1466,1114057,0.360632,0.22862800000000003,-0.9708760000000001,29.9425,-15.26,-3.2725
1467,1114155,0.331352,0.223992,-0.9555040000000001,24.255,-16.415,-4.0425
1468,1114253,0.313052,0.196908,-0.9396440999999999,21.9625,-15.9775,-4.27
1469,1114351,0.320616,0.242048,-0.9345201,17.22,-15.75,-4.585
1470,1114449,0.30134,0.236436,-0.9315921,15.3825,-16.3975,-4.2875
1471,1114547,0.302316,0.24107199999999998,-0.9186601000000001,13.9475,-16.94,-2.5025
1472,1114645,0.303292,0.207644,-0.9247601000000001,13.405,-17.395,-0.8575
1473,1114743,0.302316,0.19178399999999998,-0.935984,12.5475,-18.725,0.4025
1474,1114842,0.27205999999999997,0.204716,-0.9455,11.025,-20.615,1.645
1475,1114940,0.270596,0.212036,-0.945256,10.9375,-21.49,2.3275
1476,1115038,0.278404,0.221552,-0.9489161,11.655,-22.6275,2.8875
1477,1115136,0.264008,0.215696,-0.9269561,13.2125,-24.395,3.43
1478,1115234,0.194468,0.168848,-0.8957241,14.4725,-24.8675,3.7625
1479,1115332,0.182268,0.106628,-0.9015799999999999,12.705,-21.7875,3.675
1480,1115430,0.17202,0.113704,-0.9037761000000001,8.7675,-16.8175,2.9225
1481,1115528,0.185928,0.10248,-0.9084121,5.8975,-11.515,1.9775
1482,1115626,0.214232,0.123708,-0.945256,4.235,-6.1775,0.7175
1483,1115725,0.258396,0.16201600000000002,-0.9520881,4.48,-1.6975,-0.9625
1484,1115823,0.273524,0.16348,-0.9435479999999999,6.7375,0.07,-2.3275
1485,1115921,0.24082800000000001,0.193248,-0.9181720999999999,8.2075,0.945,-2.59
1486,1116019,0.200568,0.185196,-0.9118280000000001,10.1325,3.22,-1.365
1487,1116117,0.24107199999999998,0.15396400000000002,-0.907192,12.3375,8.2425,0.21
1488,1116215,0.252052,0.117852,-0.9315921,13.055,13.335,0.7
1489,1116313,0.249612,0.12322000000000001,-0.94916,12.25,18.1475,1.26
1490,1116411,0.288652,0.14493599999999998,-0.930616,11.0425,23.905,1.4
1491,1116510,0.252784,0.17641199999999999,-0.9379360000000001,9.415,28.875,-0.9975
1492,1116608,0.159576,0.211792,-0.9530641,9.3275,34.1425,-5.04
1493,1116706,0.242536,-0.052948,-0.9777081,9.31,42.665,-7.8225
1494,1116804,0.254004,0.24570799999999998,-1.0565200000000001,3.7625,52.5525,-0.6125
1495,1116902,0.234972,0.203496,-1.037244,2.765,65.38,7.455
1496,1117000,0.409432,0.190564,-1.069696,0.07,80.92,16.8
1497,1117098,0.390644,0.237656,-1.1270360000000001,-4.7425,99.82,26.565
1498,1117196,0.477996,0.200568,-1.1468,-7.84,124.9675,38.5175
1499,1117295,0.2318,0.24497600000000003,-1.287344,0.175,159.11,48.195
1500,1117393,0.29597199999999996,0.271328,-1.339316,12.2675,203.1925,50.9425
1501,1117491,0.35624,0.24131599999999997,-1.45058,28.385,258.685,58.59
1502,1117589,0.128344,0.7327321,-1.90442,53.3925,330.96,55.93
1503,1117687,0.255956,0.17836400000000002,-1.50914,114.4675,413.385,62.09
1504,1117785,0.42773199999999995,0.227652,-1.9154,122.675,517.965,91.42
1505,1117883,0.49117200000000005,0.41968,-2.8552880000000003,104.3875,571.4625,118.65
1506,1117981,0.6273241,0.5856,-2.348744,122.885,573.405,151.445
1507,1118080,0.855708,0.8359440999999999,-2.858948,90.65001,573.405,159.145
1508,1118178,0.457744,1.4483840000000001,-2.722552,30.7825,562.905,132.1075
1509,1118276,-0.406992,1.303448,-2.87432,9.1,471.59,137.2875
1510,1118374,-0.643184,1.1777879999999998,-2.371436,-2.9925,361.2525,176.015
1511,1118472,5.332376,0.299144,-2.584204,-1.1375,369.9675,207.655
1512,1118570,0.859368,2.556876,-4.598668,-92.96,366.03,97.28251
1513,1118668,0.541192,2.8182,-3.894484,-124.845,198.555,-47.4425
1514,1118767,-0.212036,2.341424,-3.228364,-79.73001,49.8225,-142.5725
1515,1118865,-0.654652,1.549888,-2.227476,30.38,-38.6575,-187.32
1516,1118963,-0.7041841,0.8220360000000001,-1.625284,133.4375,-91.525,-184.66
1517,1119061,-0.588284,0.185928,-1.3771360000000001,191.8875,-125.7375,-156.94
1518,1119159,-0.496784,-0.232776,-1.301984,193.375,-161.2625,-128.485
1519,1119257,-0.3355,-0.393816,-1.3005200000000001,143.885,-201.81,-106.05
1520,1119355,-0.206668,-0.28426,-1.279536,70.8575,-246.4525,-91.0875
1521,1119453,-0.115656,-0.042212,-1.1651,3.4825,-290.6575,-80.43
1522,1119552,-0.011712,0.211304,-1.049688,-37.66,-330.995,-73.255
1523,1119650,0.121512,0.40992,-0.9630681000000001,-52.5525,-362.2325,-70.91001
1524,1119748,0.23692399999999997,0.533384,-0.9093880999999999,-51.9575,-383.915,-73.5875
1525,1119846,0.31524800000000003,0.5514399999999999,-0.8510719999999999,-43.855,-398.685,-81.6375
1526,1119944,0.36575599999999997,0.49873599999999996,-0.797392,-36.5225,-406.4025,-93.415
1527,1120042,0.431148,0.40894400000000003,-0.776896,-38.0275,-408.9225,-105.56
1528,1120140,0.5104479999999999,0.327692,-0.7856801,-48.16,-407.5225,-115.4825
1529,1120238,0.582428,0.321592,-0.8398479999999999,-63.07,-403.445,-120.61
1530,1120337,0.6344,0.372832,-0.955992,-79.905,-397.3725,-122.325
1531,1120435,0.676124,0.423096,-1.086044,-93.4325,-391.44,-124.845
1532,1120533,0.759084,0.48824399999999996,-1.261724,-102.3575,-387.695,-126.4725
1533,1120631,0.8195960999999999,0.50508,-1.434232,-106.3825,-387.1175,-126.56
1534,1120729,0.8903561,0.441884,-1.61162,-111.79,-388.5175,-127.2775
1535,1120827,0.990884,0.443592,-1.7585080000000002,-126.3325,-390.3725,-127.5225
1536,1120925,1.128744,0.487512,-1.84952,-144.9175,-390.8275,-128.24
1537,1121023,1.20414,0.5382640000000001,-1.838296,-153.4225,-386.3125,-127.6625
1538,1121122,1.316868,0.655628,-1.948584,-154.595,-372.155,-122.9025
1539,1121220,1.5738,0.7007680000000001,-2.1447599999999998,-158.0075,-351.54,-119.525
1540,1121318,1.9459,0.6517241,-2.280912,-166.4425,-333.1475,-124.355
1541,1121416,2.321416,0.41602,-2.118652,-166.46,-316.1725,-133.4375
1542,1121514,2.7206,0.175924,-1.8119439999999998,-151.41,-291.5325,-134.5575
1543,1121612,3.116368,0.11541199999999999,-1.5518399999999999,-119.4725,-259.6125,-123.2875
1544,1121710,3.3523160000000005,0.024644,-1.21878,-68.9675,-229.7575,-110.67
1545,1121809,3.279116,-0.4743361,-0.564128,-7.735,-205.7825,-109.2175
1546,1121907,3.5709400000000002,-1.0086959999999998,-0.01586,43.9425,-175.105,-99.085
1547,1122005,4.161176,-1.262944,0.30792800000000004,72.4325,-133.665,-60.9525
1548,1122103,4.138972,-1.145092,0.694912,84.1225,-90.02,-12.0225
1549,1122201,3.4057519999999997,-1.021872,0.90402,91.91001,-32.235,32.0075
1550,1122299,2.7471959999999997,-0.762988,0.49312399999999995,79.6075,45.675,60.48
1551,1122397,2.4705,-0.49532,-0.276208,58.8,120.7325,80.2375
1552,1122495,-0.10321199999999998,0.3355,-1.22854,40.39,152.915,100.1175
1553,1122593,-1.101904,1.1333799999999998,-1.335412,67.4975,173.075,83.3525
1554,1122692,-4.277564,1.20414,0.25132,134.0325,260.1025,181.5275
1555,1122790,4.058696,-0.470188,0.582916,179.795,448.49,283.4825
1556,1122888,2.839184,0.434808,-1.974448,122.395,426.16,172.305
1557,1122986,0.9128040000000001,0.5363121,-2.794532,-2.87,332.2375,38.4475
1558,1123084,1.6287,-0.737124,-2.30824,108.6925,298.165,82.04
1559,1123182,1.526952,-0.5743761,-2.415356,63.175,248.3775,97.0375
1560,1123280,1.5037719999999999,0.036112,-2.3016520000000003,15.4525,198.8875,68.565
1561,1123378,1.033584,0.5511961,-1.702388,12.1275,151.9525,61.25
1562,1123477,0.734684,0.617564,-1.192672,17.0625,124.495,48.9475
1563,1123575,0.6646561,0.50264,-1.2756319999999999,15.4875,111.79,38.745
1564,1123673,0.54656,0.514108,-1.1836440000000001,18.97,97.28251,36.0325
1565,1123771,2.065216,1.688236,-2.055456,40.4775,69.895,13.8075
1566,1123869,0.569984,0.132492,-1.0553,121.4325,25.8475,-7.5075
1567,1123967,0.303292,-0.230336,-1.096536,93.7825,11.97,-5.1975
1568,1124065,0.58194,0.484096,-1.062132,56.875,3.3775,-3.9725
1569,1124163,0.388692,0.276208,-0.959408,43.4875,-1.9775,-6.51
1570,1124262,0.37698000000000004,0.190564,-1.003084,38.78,-5.0925,-4.8475
1571,1124360,0.381372,0.249612,-0.968924,27.9475,-8.4,-4.5325
1572,1124458,0.31842,0.233508,-0.944524,21.7,-10.675,-5.5125
1573,1124556,0.291824,0.27523200000000003,-0.918416,19.6875,-11.2,-5.7225
1574,1124654,0.29646,0.285968,-0.8998719999999999,20.8775,-10.9025,-5.6175
1575,1124752,0.300608,0.32086,-0.8988959999999999,24.885,-10.71,-5.67
1576,1124850,0.298168,0.329156,-0.86498,27.37,-10.4825,-5.285
1577,1124948,0.274256,0.323788,-0.8769360999999999,30.9575,-9.765,-4.97
1578,1125047,0.296948,0.31354,-0.8647360000000001,35.245,-9.695,-3.64
1579,1125145,0.331352,0.28621199999999997,-0.8866961,39.375,-11.1825,-2.625
1580,1125243,0.30622,0.30622,-0.89792,43.75,-14.805,-2.52
1581,1125341,0.316956,0.21618400000000002,-0.968192,46.83,-18.76,-2.0475
1582,1125439,0.264252,0.192272,-0.927932,40.6,-24.29,-1.0325
1583,1125537,0.250832,0.23546,-0.930372,35.0525,-26.1975,-1.225
1584,1125635,0.23009200000000002,0.193248,-0.9289081,32.165,-24.1325,-1.0675
1585,1125733,0.222284,0.155916,-0.9208561,27.8075,-19.95,-0.7525
1586,1125832,0.205936,0.132004,-0.9262239999999999,23.6075,-14.56,-0.8400001
1587,1125930,0.23228800000000002,0.15738,-0.9208561,19.9325,-9.2225,-0.805
1588,1126028,0.24570799999999998,0.167872,-0.915976,18.375,-4.7775,-0.595
1589,1126126,0.231312,0.20788800000000002,-0.9291520000000001,18.2,-0.9975,0.42
1590,1126224,0.269376,0.19959200000000002,-0.9320801,20.5625,2.94,3.535
1591,1126322,0.26718000000000003,0.1586,-0.935984,22.9425,5.1975,6.86
1592,1126420,0.304268,0.15762400000000001,-0.9391560999999999,23.0475,7.8925,8.05
1593,1126518,0.389424,0.149328,-0.9577,22.295,11.725,7.595
1594,1126616,0.33305999999999997,0.14713199999999999,-0.940132,19.005,14.175,5.845
1595,1126715,0.307684,0.194956,-0.9181720999999999,15.26,19.04,5.9325
1596,1126813,0.251808,0.345504,-0.9635560999999999,12.2675,27.3175,7.98
1597,1126911,0.153232,0.35087199999999996,-1.0147959999999998,9.765,39.305,13.895
1598,1127009,0.158112,0.088328,-1.07482,7.1225,57.05,29.6625
1599,1127107,0.33794,0.23009200000000002,-1.118252,0.56,80.36,47.0575
1600,1127205,0.48702399999999996,-0.013908000000000002,-1.186816,0.105,111.9125,58.065
1601,1127303,0.205204,0.37746799999999997,-1.349564,-2.0125,153.545,54.6525
1602,1127401,0.262544,0.20008,-1.318088,24.0975,203.5775,49.42
1603,1127499,0.300852,0.086864,-1.504016,41.0025,270.375,48.02
1604,1127598,0.240096,0.23228800000000002,-1.6091799999999998,56.98,358.2425,45.9025
1605,1127696,0.03538,0.604632,-1.986648,72.24,466.6025,54.3375
1606,1127794,0.195932,0.317932,-1.908568,113.435,556.6575,72.2925
1607,1127892,0.382104,0.09906401,-2.7166959999999998,119.595,573.405,109.445
1608,1127990,0.331596,0.576328,-2.512468,94.325,573.405,142.765
1609,1128088,0.625372,0.8664440000000001,-2.732068,111.3875,573.405,168.9625
1610,1128186,0.7041841,1.117032,-2.2892080000000004,74.8825,573.3875,135.1525
1611,1128284,0.391376,0.6265921,-3.042192,15.575,551.6,117.425
1612,1128382,-1.383724,0.29426399999999997,-3.2244599999999997,-59.78,418.0925,164.01
1613,1128481,7.166767999999999,-1.62626,-2.951912,-123.095,318.7975,244.3
1614,1128579,1.8478119999999998,1.486204,-4.684312,-191.1,324.1525,240.52
1615,1128677,0.8971879999999999,2.778184,-5.133516,-273.175,111.7725,83.7725
1616,1128775,-0.266692,2.9079919999999997,-3.267404,-186.7075,-78.89,-20.2825
1617,1128873,-0.9655081,2.397544,-2.115236,-40.8275,-176.96,-86.8175
1618,1128971,-0.9293961,1.606496,-1.342732,88.37501,-202.4575,-116.235
1619,1129069,-0.8913321,0.906948,-1.069696,161.945,-214.0425,-139.6325
1620,1129167,-0.8901120000000001,0.417484,-0.9125601000000001,162.19,-227.0625,-158.69
1621,1129265,-0.768356,0.19861600000000001,-0.915732,117.635,-241.465,-170.1875
1622,1129364,-0.582184,0.130052,-0.9906401,61.4075,-260.4175,-172.515
1623,1129462,-0.41504399999999997,0.160796,-1.055544,11.1475,-284.935,-167.5975
1624,1129560,-0.227408,0.281332,-1.086776,-27.23,-313.075,-158.27
1625,1129658,-0.020496,0.42944,-1.105808,-49.1225,-341.81,-148.5925
1626,1129756,0.182268,0.55388,-1.099708,-54.635,-367.745,-140.805
1627,1129854,0.319152,0.6095119999999999,-1.043344,-46.4625,-390.145,-136.605
1628,1129952,0.44090799999999997,0.597068,-1.0340719999999999,-34.6675,-404.95,-134.61
1629,1130050,0.564372,0.529968,-1.0384639999999998,-29.1725,-413.035,-134.47
1630,1130149,0.6729520999999999,0.48726800000000003,-1.0706719999999998,-33.3725,-419.5625,-135.24
1631,1130247,0.7854361,0.474092,-1.122644,-46.4275,-423.7975,-135.135
1632,1130345,0.8513161,0.456524,-1.192672,-64.6975,-424.6025,-133.7
1633,1130443,0.8813280000000001,0.47458,-1.296616,-84.6825,-422.1875,-130.2875
1634,1130541,0.9947881,0.5246,-1.464732,-103.81,-418.6875,-122.815
1635,1130639,1.096292,0.595604,-1.647244,-120.995,-416.9375,-114.345
1636,1130737,1.166808,0.601704,-1.7619240000000003,-134.225,-416.535,-107.03
1637,1130835,1.216584,0.564616,-1.837808,-146.5975,-412.37,-97.7375
1638,1130933,1.35542,0.502152,-1.950292,-159.0925,-399.7175,-83.02
1639,1131032,1.776564,0.593164,-2.3272720000000002,-188.4225,-380.415,-62.3
1640,1131130,2.208444,0.9386681,-2.516372,-221.445,-369.6875,-50.225
1641,1131228,2.451956,1.21756,-2.318488,-227.64,-365.96,-57.9775
1642,1131326,2.638372,1.31028,-1.9276,-198.8,-351.715,-78.61
1643,1131424,2.787456,0.771528,-1.4903520000000001,-144.0775,-319.34,-104.7725
1644,1131522,2.631784,-0.40967600000000004,-0.8559521000000001,-95.26999,-272.3875,-139.8775
1645,1131620,2.393884,-1.013576,-0.529968,-89.72251,-204.505,-168.84
1646,1131718,2.935808,-0.819108,-0.71004,-76.30001,-129.99,-177.66
1647,1131816,4.083828,-0.7849480999999999,-1.041148,-15.26,-89.1975,-152.7925
1648,1131915,4.519368,-1.2343959999999998,-0.45383999999999997,83.825,-98.805,-101.6225
1649,1132013,3.962804,-1.921012,0.5702281,140.945,-109.2175,-32.8125
1650,1132111,2.9077479999999998,-2.0691200000000003,1.087752,123.2175,-68.6,37.1875
1651,1132209,2.38022,-1.3729879999999999,0.5443640000000001,53.445,15.47,86.34501
1652,1132307,2.133536,-0.762744,-0.472872,21.7875,86.27501,117.355
1653,1132405,-1.761436,0.8962120000000001,-0.880352,28.7875,130.655,137.5675
1654,1132503,-3.362076,1.0084520000000001,0.128832,155.4175,249.41,180.32
1655,1132601,1.577216,0.9725841000000001,-0.7366361,70.2625,416.0625,341.7575
1656,1132699,4.64332,0.062464,-0.699792,185.7975,480.6375,273.56
1657,1132798,1.225368,1.1350879999999999,-2.4756240000000003,18.865,365.3125,80.5875
1658,1132896,1.9305279999999998,-0.25376,-3.081964,89.93251,335.02,71.54
1659,1132994,2.093276,-0.60024,-3.077572,107.2225,278.845,108.5525
1660,1133092,1.6735959999999999,0.20618000000000003,-2.397544,56.4725,205.5725,73.7975
1661,1133190,0.7986121,0.293532,-1.517436,58.2925,152.2325,59.78
1662,1133288,0.598288,0.082472,-1.1163,48.2125,131.985,52.78
1663,1133386,0.74908,0.453108,-1.391044,15.855,122.955,45.115
1664,1133484,0.7503,0.754448,-1.274656,16.4325,102.4625,44.5375
1665,1133583,2.2845720000000003,1.832684,-2.317024,56.77,68.1625,19.5125
1666,1133681,0.317688,0.17324,-0.8432639999999999,145.25,17.465,-4.9525
1667,1133779,0.286456,-0.26474000000000003,-1.10166,116.13,14.315,-3.01
1668,1133877,0.70638,0.5099600000000001,-1.1150799999999998,73.3425,6.755,0.5775
1669,1133975,0.36575599999999997,0.269864,-0.9501360999999999,58.0475,-2.4325,-2.345
1670,1134073,0.410408,0.124928,-1.044808,49.91,-4.6725,-2.03
1671,1134171,0.385276,0.195688,-1.0086959999999998,27.6325,-8.4875,-3.3075
1672,1134269,0.305244,0.211304,-0.9745360000000001,17.255,-11.1125,-6.335
1673,1134367,0.32452,0.2684,-0.9503799999999999,14.35,-11.06,-6.895
1674,1134466,0.321104,0.2989,-0.9254921,13.3525,-11.41,-6.755
1675,1134564,0.306708,0.282552,-0.919636,14.7875,-11.8125,-7.0175
1676,1134662,0.29987600000000003,0.304512,-0.9201241,16.3625,-11.97,-6.9825
1677,1134760,0.30744,0.274012,-0.9174399999999999,16.625,-10.8675,-6.8075
1678,1134858,0.305244,0.280844,-0.921588,16.835,-10.7275,-6.685
1679,1134956,0.283528,0.2867,-0.907192,16.9225,-12.355,-5.775
1680,1135054,0.30988000000000004,0.293044,-0.9025559999999999,18.2525,-13.8425,-3.955
