,T,ax,ay,az,gx,gy,gz
0,805262,0.249856,-0.057096,-0.8076399999999999,18.445,-17.535,-21.56
1,805414,0.28328400000000004,-0.044407999999999996,-0.8842561,81.69001,-99.17251,-162.75
2,805512,0.310856,-0.041236,-0.9433041,-11.41,-96.9675,-362.845
3,805610,0.312076,-0.048556,-0.9442801,32.4975,-104.7025,-86.73
4,805708,0.315492,-0.047336,-0.949892,2.345,-6.755,-7.84
5,805806,0.31646799999999997,-0.046360000000000005,-0.952332,0.7175,-5.1975,-6.8075
6,805904,0.311832,-0.047580000000000004,-0.9528200000000001,0.315,-5.0925,-6.8775
7,806002,0.29597199999999996,-0.048556,-0.999668,-1.4525,-4.8825,-6.9825
8,806100,0.30622,-0.052703999999999994,-0.935008,-4.9875,-3.1675,-7.14
9,806198,0.30841599999999997,-0.054167999999999994,-0.9171961,-8.5225,-1.3475,-7.3675
10,806296,0.363072,-0.01952,-1.01138,-10.9025,-1.085,-7.56
11,806394,0.329644,-0.000244,-1.148508,-1.435,-5.74,-7.385
12,806492,0.313784,-0.049288,-0.969412,14.8925,-6.3875,-7.21
13,806590,0.310612,-0.030744,-0.9467200000000001,-1.12,-5.11,-7.21
14,806688,0.312076,-0.040504000000000005,-0.9333,-0.5075,-5.005,-7.14
15,806786,0.312564,-0.045384,-0.9298841,-0.385,-5.1625,-7.1575
16,806884,0.3172,-0.046116000000000004,-0.9330560999999999,-0.525,-5.2325,-7.0175
17,806982,0.320128,-0.045872,-0.9330560999999999,-0.245,-5.4775,-6.9475
18,807081,0.320128,-0.046360000000000005,-0.935008,-0.07,-5.8625,-6.9125
19,807179,0.312808,-0.048556,-0.9340321,-0.0175,-6.1775,-6.8425
20,807277,0.309636,-0.046604,-0.9347639999999999,-0.1225,-6.23,-6.8425
21,807375,0.307196,-0.047580000000000004,-0.9311040999999999,-0.105,-5.95,-6.965
22,807473,0.30402399999999996,-0.045384,-0.9328120000000001,-0.455,-5.495,-7.0525
23,807571,0.307684,-0.045627999999999995,-0.9354959999999999,-0.8925,-4.83,-7.2625
24,807669,0.312076,-0.045627999999999995,-0.9345201,-1.0675,-4.3575,-7.5775
25,807767,0.31451599999999996,-0.043676,-0.9330560999999999,-1.1025,-4.235,-7.7
26,807865,0.315004,-0.04392,-0.9320801,-0.8400001,-4.2525,-7.6825
27,807963,0.3172,-0.042456,-0.934276,-0.56,-4.4625,-7.6475
28,808061,0.31842,-0.043432,-0.9330560999999999,-0.4375,-4.655,-7.4725
29,808159,0.313784,-0.04514,-0.93086,-0.3325,-4.9175,-7.42
30,808257,0.310856,-0.043188,-0.9318360000000001,-0.3325,-4.8825,-7.385
31,808355,0.313052,-0.042944,-0.9345201,-0.6475,-4.6375,-7.455
32,808453,0.315492,-0.039528,-0.9335440999999999,-0.7875,-4.41,-7.6475
33,808551,0.317444,-0.040748,-0.9347639999999999,-0.6825,-4.3225,-7.56
34,808649,0.31598000000000004,-0.041724000000000004,-0.9345201,-0.5075,-4.375,-7.42
35,808747,0.318176,-0.041968,-0.9345201,-0.2625,-4.4275,-7.315
36,808846,0.319884,-0.038796,-0.9337880999999999,-0.0175,-4.3925,-7.2625
37,808944,0.316956,-0.041724000000000004,-0.9298841,0.1575,-4.4975,-7.2275
38,809042,0.314272,-0.041236,-0.9284200999999999,0.2625,-4.41,-7.07
39,809140,0.312808,-0.044164,-0.928176,0.035,-4.41,-7.0525
40,809238,0.312564,-0.0488,-0.9325680000000001,-0.49,-4.1125,-7.1575
41,809336,0.31476,-0.049288,-0.9262239999999999,-0.945,-3.9025,-7.42
42,809434,0.317688,-0.053191999999999996,-0.93086,-1.505,-3.7975,-7.6475
43,809532,0.325252,-0.047336,-0.9272,-1.89,-3.71,-7.7875
44,809630,0.32574000000000003,-0.046360000000000005,-0.931348,-1.995,-4.095,-7.945
45,809728,0.322324,-0.039772,-0.9333,-1.9775,-4.6025,-8.225
46,809826,0.322324,-0.027572000000000003,-0.9315921,-1.9425,-5.005,-8.435
47,809924,0.323788,-0.02684,-0.9337880999999999,-1.5575,-5.3375,-8.33
48,810022,0.319152,-0.02684,-0.934276,-1.225,-5.5125,-7.9625
49,810120,0.314272,-0.031964,-0.9337880999999999,-0.8575,-5.5475,-7.735
50,810218,0.316712,-0.031232,-0.9345201,-0.6475,-5.39,-7.455
51,810316,0.319152,-0.036112,-0.930372,-0.6125,-5.0925,-7.4025
52,810415,0.320128,-0.033428,-0.93086,-0.63,-4.97,-7.2975
53,810513,0.32403200000000004,-0.035868000000000004,-0.93086,-0.4025,-4.865,-7.2275
54,810611,0.339404,-0.010004,-0.9237841,-0.3675,-5.04,-7.315
55,810709,0.321836,-0.033184,-0.942084,0.77,-5.565,-8.19
56,810807,0.322812,-0.028792,-0.936472,-0.1925,-5.67,-7.385
57,810905,0.320616,-0.030987999999999998,-0.9330560999999999,-0.1225,-5.9325,-7.245
58,811003,0.318664,-0.035624,-0.9293961,0.07,-6.0025,-7.2275
59,811101,0.317932,-0.031232,-0.9291520000000001,0.2275,-5.88,-7.0175
60,811199,0.320616,-0.03294,-0.9328120000000001,0.3325,-5.915,-6.825
61,811297,0.31964000000000004,-0.035868000000000004,-0.9291520000000001,0.525,-6.2825,-6.86
62,811395,0.32452,-0.03538,-0.9301280000000001,0.5775,-6.3175,-6.72
63,811493,0.321592,-0.034892,-0.9318360000000001,0.665,-6.5625,-6.6675
64,811591,0.319884,-0.034892,-0.931348,0.77,-6.8075,-6.5625
65,811689,0.315492,-0.035868000000000004,-0.927688,0.8575,-6.86,-6.51
66,811787,0.31842,-0.033672,-0.931348,1.0675,-6.825,-6.5275
67,811885,0.316224,-0.033184,-0.930372,1.26,-6.685,-6.51
68,811983,0.31476,-0.032208,-0.930372,1.4525,-6.4225,-6.4575
69,812081,0.316956,-0.0305,-0.9311040999999999,1.75,-6.16,-6.3525
70,812179,0.315004,-0.03538,-0.9262239999999999,1.9775,-6.0725,-6.2825
71,812277,0.312808,-0.03538,-0.9286639999999999,1.8375,-5.88,-6.265
72,812375,0.31476,-0.038551999999999996,-0.93086,1.3825,-5.635,-6.2825
73,812473,0.319396,-0.03782,-0.9291520000000001,1.05,-5.425,-6.44
74,812572,0.319884,-0.038308,-0.930616,1.1025,-5.4775,-6.51
75,812670,0.320616,-0.037088,-0.9296399999999999,1.0675,-5.6875,-6.5975
76,812768,0.319884,-0.035624,-0.9301280000000001,1.295,-5.81,-6.65
77,812866,0.317688,-0.035136,-0.9330560999999999,1.4525,-6.02,-6.51
78,812964,0.317688,-0.034648000000000005,-0.9311040999999999,1.47,-6.02,-6.3525
79,813062,0.315492,-0.03416,-0.9301280000000001,1.5925,-6.0025,-6.335
80,813160,0.318664,-0.034648000000000005,-0.9311040999999999,1.5225,-5.9675,-6.3
81,813258,0.31964000000000004,-0.039528,-0.930372,1.4875,-6.0375,-6.2475
82,813356,0.319884,-0.037576,-0.9311040999999999,1.61,-6.0375,-6.2825
83,813454,0.31890799999999997,-0.03538,-0.9335440999999999,1.68,-6.2125,-6.2475
84,813552,0.321836,-0.041236,-0.93086,1.855,-6.3,-6.16
85,813650,0.31598000000000004,-0.03782,-0.9318360000000001,1.8375,-6.51,-6.195
86,813748,0.316956,-0.039528,-0.9298841,1.995,-6.44,-6.2125
87,813846,0.316956,-0.03782,-0.9291520000000001,2.065,-6.405,-6.2825
88,813944,0.319152,-0.0427,-0.9291520000000001,1.96,-6.37,-6.3875
89,814042,0.322812,-0.0427,-0.9274440999999999,1.9075,-6.5975,-6.44
90,814140,0.321592,-0.040504000000000005,-0.9315921,1.855,-6.9125,-6.475
91,814238,0.322324,-0.041724000000000004,-0.9301280000000001,1.575,-7.175,-6.5975
92,814336,0.317932,-0.040748,-0.928176,1.365,-7.5775,-6.7025
93,814434,0.313784,-0.039528,-0.9289081,1.295,-7.8225,-6.93
94,814533,0.307684,-0.038308,-0.9284200999999999,1.26,-7.8575,-6.8075
95,814631,0.30792800000000004,-0.038796,-0.9267120000000001,1.2775,-7.6125,-6.79
96,814729,0.30378,-0.035624,-0.9272,1.1375,-7.245,-6.685
97,814827,0.30841599999999997,-0.039772,-0.928176,1.0675,-6.93,-6.72
98,814925,0.309636,-0.040992,-0.9274440999999999,1.015,-6.58,-6.79
99,815023,0.315004,-0.034892,-0.9296399999999999,0.98,-6.4925,-6.7725
100,815121,0.315736,-0.035868000000000004,-0.9293961,1.0325,-6.615,-6.685
101,815219,0.31354,-0.039772,-0.9333,1.19,-6.7025,-6.5625
102,815317,0.309148,-0.051484,-0.9252481,1.3825,-6.9825,-6.3525
103,815415,0.31012399999999996,-0.049532,-0.9250040999999999,1.3125,-6.93,-6.3875
104,815513,0.316224,-0.030744,-0.9301280000000001,0.735,-6.5625,-6.58
105,815611,0.31451599999999996,-0.040992,-0.930372,1.05,-6.79,-6.405
106,815709,0.315736,-0.039284,-0.9330560999999999,1.05,-6.9125,-6.3875
107,815807,0.318664,-0.041968,-0.9315921,0.98,-6.895,-6.2475
108,815905,0.319396,-0.040992,-0.9328120000000001,0.98,-7.1575,-6.2825
109,816003,0.31598000000000004,-0.041236,-0.9291520000000001,0.8575,-7.525,-6.3
110,816101,0.317688,-0.042456,-0.9301280000000001,0.77,-7.875,-6.2825
111,816199,0.3172,-0.043676,-0.9340321,0.63,-8.155,-6.4225
112,816297,0.31646799999999997,-0.040016,-0.9333,0.4725,-8.4175,-6.475
113,816396,0.314272,-0.041724000000000004,-0.9323239999999999,0.4375,-8.54,-6.5625
114,816494,0.311832,-0.038551999999999996,-0.93086,0.2975,-8.75,-6.6675
115,816592,0.31354,-0.039284,-0.9337880999999999,0.0525,-9.1525,-6.7025
116,816690,0.310612,-0.037332,-0.9391560999999999,0.105,-9.415,-6.93
117,816788,0.311344,-0.042456,-0.9289081,0.49,-9.415,-7.3325
118,816886,0.30353600000000003,-0.042456,-0.927688,0.1925,-9.8175,-7.63
119,816984,0.299144,-0.043676,-0.9269561,-0.175,-10.1325,-7.8925
120,817082,0.295484,-0.049776,-0.9274440999999999,-0.3675,-9.8875,-8.085
121,817180,0.293044,-0.040748,-0.9269561,-0.5425,-9.4325,-8.155
122,817278,0.298168,-0.038064,-0.9352520000000001,-0.4375,-8.82,-8.2425
123,817376,0.298412,-0.04392,-0.9330560999999999,0.21,-8.1725,-8.2075
124,817474,0.30036399999999996,-0.01952,-0.9230520000000001,0.8400001,-7.49,-8.19
125,817572,0.296948,-0.03782,-0.940132,2.0125,-6.7725,-9.1
126,817670,0.29987600000000003,-0.030744,-0.937448,0.98,-5.95,-7.8575
127,817768,0.303048,-0.035868000000000004,-0.9345201,1.155,-5.5825,-7.2625
128,817866,0.304512,-0.038551999999999996,-0.9335440999999999,1.33,-5.53,-6.86
129,817964,0.300852,-0.037088,-0.9330560999999999,1.19,-5.6875,-6.6325
130,818062,0.299632,-0.033184,-0.928176,1.1375,-5.775,-6.5275
131,818160,0.293532,-0.03294,-0.927932,1.225,-5.67,-6.3525
132,818259,0.30402399999999996,-0.033916,-0.934276,0.9975,-5.46,-6.2125
133,818357,0.30744,-0.035136,-0.9340321,0.9625,-5.5825,-6.1425
134,818455,0.310612,-0.038796,-0.9328120000000001,1.1025,-6.125,-5.9325
135,818553,0.308172,-0.041236,-0.9301280000000001,1.3125,-6.5625,-5.775
136,818651,0.30036399999999996,-0.047336,-0.928176,1.47,-7.07,-5.7575
137,818749,0.29426399999999997,-0.044896,-0.9289081,1.365,-6.9825,-5.88
138,818847,0.298656,-0.047580000000000004,-0.9296399999999999,1.05,-6.5625,-5.9325
139,818945,0.2989,-0.045384,-0.9333,0.805,-6.23,-5.985
140,819043,0.30622,-0.040504000000000005,-0.931348,0.5425,-5.9675,-6.02
141,819141,0.30134,-0.038551999999999996,-0.9301280000000001,0.2275,-6.125,-5.985
142,819239,0.299632,-0.047092,-0.9333,0.1925,-6.2125,-6.02
143,819337,0.29768,-0.040748,-0.9618481,0.35,-5.7225,-6.5275
144,819435,0.28767600000000004,-0.039284,-0.924516,1.0675,-5.285,-7.035
145,819533,0.287188,-0.05368,-0.9254921,-0.0875,-4.41,-6.16
146,819631,0.29743600000000003,-0.046360000000000005,-0.9264680000000001,-0.28,-3.325,-6.3875
147,819729,0.31451599999999996,-0.0305,-0.9362280000000001,-0.42,-2.87,-6.4225
148,819827,0.319884,-0.027572000000000003,-0.94306,0.175,-3.4125,-6.3875
149,819925,0.3172,-0.027816000000000004,-0.9391560999999999,1.015,-4.3925,-6.1075
150,820024,0.31598000000000004,-0.025376,-0.9474520000000001,1.96,-5.18,-5.88
151,820122,0.313052,-0.028548,-0.941108,3.605,-5.565,-5.7575
152,820220,0.313296,-0.039528,-0.9389120000000001,5.0925,-5.88,-5.32
153,820318,0.311344,-0.051484,-0.935984,5.5825,-6.265,-5.1625
154,820416,0.311344,-0.033916,-0.9362280000000001,5.495,-6.44,-4.9875
155,820514,0.307196,-0.050508,-0.9311040999999999,5.495,-6.755,-4.865
156,820612,0.305,-0.043188,-0.9345201,5.2675,-6.8075,-4.865
157,820710,0.308172,-0.041968,-0.9328120000000001,5.075,-6.86,-4.8825
158,820808,0.307196,-0.041724000000000004,-0.9298841,4.9175,-7.0525,-4.725
159,820906,0.306952,-0.046604,-0.9333,4.865,-7.35,-4.62
160,821004,0.30475599999999997,-0.049288,-0.9269561,4.9,-7.6825,-4.62
161,821102,0.302316,-0.050996,-0.9272,4.445,-8.0675,-4.7075
162,821200,0.28987199999999996,-0.055388,-0.9211,3.745,-8.54,-4.9
163,821298,0.28767600000000004,-0.05977999999999999,-0.9230520000000001,2.625,-8.2075,-5.04
164,821396,0.27718400000000004,-0.053924,-0.913292,1.645,-7.665,-5.425
165,821494,0.255712,-0.059536,-0.906948,0.5075,-6.825,-5.8625
166,821592,0.263276,-0.062220000000000004,-0.9106081,-1.855,-4.795,-6.3525
167,821690,0.288652,-0.058803999999999995,-0.9240280000000001,-4.1475,-2.52,-6.615
168,821789,0.320128,-0.0427,-0.9362280000000001,-5.11,-1.785,-6.7375
169,821887,0.31524800000000003,-0.045627999999999995,-0.93696,-4.7425,-2.5025,-6.5975
170,821985,0.312564,-0.047092,-0.9396440999999999,-3.675,-2.9225,-6.125
171,822083,0.3111,-0.050996,-0.9362280000000001,-2.7475,-3.3425,-6.02
172,822181,0.306952,-0.081496,-0.916952,-1.12,-3.9375,-7.525
173,822279,0.308172,-0.046360000000000005,-0.9240280000000001,-0.665,-4.0775,-7.8925
174,822377,0.28914,-0.050508,-0.9142680000000001,-1.3475,-3.78,-6.79
175,822475,0.277916,-0.049776,-0.9291520000000001,-2.52,-2.94,-7.0
176,822573,0.305244,-0.048068,-0.9372040999999999,-3.92,-1.4,-7.525
177,822671,0.317444,-0.045872,-0.9347639999999999,-4.1475,-0.98,-7.6125
178,822769,0.31354,-0.042944,-0.936716,-3.1325,-1.89,-7.5425
179,822867,0.313296,-0.05172801,-0.9335440999999999,-2.1175,-2.3275,-7.4375
180,822965,0.31964000000000004,-0.043188,-0.9376921,-1.89,-2.905,-7.49
181,823063,0.32086,-0.04148,-0.9389120000000001,-1.4525,-3.465,-7.4025
182,823161,0.31598000000000004,-0.037088,-0.9384239999999999,-1.0675,-4.0075,-7.1925
183,823259,0.316956,-0.037332,-0.9379360000000001,-0.735,-4.2175,-7.035
184,823357,0.31451599999999996,-0.041236,-0.9384239999999999,-0.42,-4.585,-6.72
185,823455,0.31402800000000003,-0.042456,-0.9357401,-0.07,-4.76,-6.6675
186,823554,0.318176,-0.043676,-0.936716,0.4025,-4.8825,-6.685
187,823652,0.317444,-0.038551999999999996,-0.9386681,1.225,-5.11,-6.65
188,823750,0.310368,-0.048068,-0.9335440999999999,2.345,-5.495,-6.755
189,823848,0.31158800000000003,-0.047092,-0.9286639999999999,2.8525,-5.565,-6.9125
190,823946,0.316224,-0.044407999999999996,-0.9286639999999999,3.2375,-5.775,-7.0175
191,824044,0.316712,-0.044652,-0.9318360000000001,3.78,-6.0375,-6.7725
192,824142,0.31890799999999997,-0.040260000000000004,-0.9315921,4.2175,-6.2125,-6.72
193,824240,0.316224,-0.040748,-0.931348,4.8125,-6.51,-6.44
194,824338,0.312808,-0.042212,-0.9335440999999999,5.5125,-6.86,-6.3525
195,824436,0.3111,-0.042456,-0.93086,5.8275,-7.2275,-6.4225
196,824534,0.30548800000000004,-0.047092,-0.9267120000000001,5.8625,-7.49,-6.2825
197,824632,0.301584,-0.053436000000000004,-0.927688,5.32,-7.595,-6.23
198,824730,0.30402399999999996,-0.054412,-0.927688,4.62,-7.56,-6.3175
199,824828,0.30134,-0.052948,-0.9247601000000001,3.8325,-7.42,-6.615
200,824926,0.303292,-0.05563200000000001,-0.9232961,2.975,-7.35,-6.93
201,825024,0.300608,-0.047580000000000004,-0.9274440999999999,1.8725,-7.28,-7.245
202,825122,0.30256,-0.046116000000000004,-0.9242720999999999,1.1025,-7.2975,-7.5425
203,825220,0.294752,-0.048068,-0.9208561,0.7,-7.4025,-7.63
204,825318,0.288896,-0.057584,-0.9167081,0.1925,-7.455,-7.8925
205,825416,0.28377199999999997,-0.05172801,-0.9206120000000001,-0.6125,-6.93,-8.1725
206,825514,0.294752,-0.05246,-0.9267120000000001,-0.8400001,-5.7575,-8.3125
207,825613,0.303048,-0.043188,-0.93086,-0.9625,-5.0225,-8.33
208,825711,0.30402399999999996,-0.042944,-0.9323239999999999,-0.4375,-4.6025,-8.0675
209,825809,0.29987600000000003,-0.037088,-0.9318360000000001,-0.0525,-4.375,-7.665
210,825907,0.305,-0.047580000000000004,-0.9315921,0.3325,-4.1475,-7.2975
211,826005,0.29572800000000005,-0.052216,-0.9225639999999999,0.1225,-3.85,-7.245
212,826103,0.29524,-0.054167999999999994,-0.9225639999999999,-0.175,-3.535,-7.49
213,826201,0.30036399999999996,-0.054167999999999994,-0.9240280000000001,-0.28,-3.2375,-7.7175
214,826299,0.305976,-0.050263999999999996,-0.9296399999999999,-0.805,-3.0625,-8.225
215,826397,0.310612,-0.046604,-0.9318360000000001,-1.26,-2.8,-8.715
216,826495,0.30792800000000004,-0.040016,-0.9301280000000001,-1.295,-2.6775,-8.96
217,826593,0.310368,-0.044896,-0.9347639999999999,-1.015,-2.695,-8.9425
218,826691,0.31842,-0.034892,-0.936716,-1.015,-2.52,-8.8375
219,826789,0.322812,-0.02562,-0.9391560999999999,-0.56,-2.555,-8.365
220,826887,0.32086,-0.028304000000000003,-0.9362280000000001,0.14,-2.87,-7.8575
221,826985,0.316956,-0.040016,-0.9320801,0.8400001,-3.0625,-7.35
222,827083,0.31158800000000003,-0.047824,-0.9286639999999999,1.085,-3.2375,-7.07
223,827181,0.311832,-0.05368,-0.9254921,1.0325,-3.3075,-7.1575
224,827279,0.31158800000000003,-0.046604,-0.925736,0.91,-3.3425,-7.5075
225,827377,0.30475599999999997,-0.042944,-0.925736,0.9625,-3.2375,-7.805
226,827475,0.31524800000000003,-0.044164,-0.9230520000000001,1.0675,-2.9925,-7.8225
227,827573,0.32086,-0.040992,-0.925736,1.1375,-3.22,-7.9275
228,827671,0.317932,-0.052948,-0.9237841,1.19,-3.57,-7.805
229,827769,0.321348,-0.043188,-0.9293961,1.015,-3.9025,-7.9275
230,827867,0.325984,-0.044652,-0.9296399999999999,1.0325,-4.4275,-7.8575
231,827965,0.324764,-0.037332,-0.93086,1.0675,-4.8125,-7.7875
232,828063,0.32086,-0.039528,-0.9298841,1.19,-5.4075,-7.6475
233,828161,0.32086,-0.042212,-0.9301280000000001,1.2075,-5.8275,-7.455
234,828260,0.321592,-0.043432,-0.9286639999999999,1.225,-6.09,-7.3325
235,828358,0.32256799999999997,-0.038308,-0.9298841,1.295,-6.4225,-7.1575
236,828456,0.312076,-0.044164,-0.9267120000000001,1.5225,-7.0,-7.105
237,828554,0.30109600000000003,-0.048556,-0.9269561,1.47,-7.105,-7.07
238,828652,0.30841599999999997,-0.0488,-0.9254921,1.295,-6.51,-7.175
239,828750,0.307196,-0.049776,-0.9293961,1.225,-5.9675,-7.2275
240,828848,0.307196,-0.047092,-0.930616,1.05,-5.3725,-7.3675
241,828946,0.315492,-0.038551999999999996,-0.9301280000000001,0.945,-4.76,-7.42
242,829044,0.316956,-0.040016,-0.930372,0.9975,-4.7075,-7.35
243,829142,0.321104,-0.04392,-0.9274440999999999,0.9625,-4.55,-7.035
244,829240,0.325252,-0.055144000000000006,-0.921344,0.91,-4.6725,-6.93
245,829338,0.323788,-0.046116000000000004,-0.9228081,0.735,-5.4425,-6.8775
246,829436,0.321348,-0.04514,-0.9259799999999999,0.595,-6.055,-6.86
247,829534,0.319884,-0.04392,-0.9269561,0.5075,-6.4925,-6.79
248,829632,0.32086,-0.041968,-0.9318360000000001,0.35,-6.825,-6.9125
249,829730,0.318176,-0.044652,-0.9301280000000001,0.315,-7.0875,-6.8775
250,829828,0.322812,-0.040260000000000004,-0.9330560999999999,0.2275,-7.1925,-6.755
251,829926,0.316224,-0.040016,-0.9272,0.35,-7.4375,-6.6325
252,830024,0.302072,-0.045627999999999995,-0.9225639999999999,0.595,-7.5775,-6.51
253,830122,0.296216,-0.045627999999999995,-0.9247601000000001,0.665,-7.1575,-6.7025
254,830220,0.308172,-0.042456,-0.925736,0.56,-6.265,-6.9475
255,830318,0.312076,-0.042456,-0.9274440999999999,0.6825,-5.915,-6.9475
256,830416,0.31402800000000003,-0.038064,-0.930372,0.98,-6.0025,-6.7375
257,830514,0.317688,-0.037332,-0.93086,1.3475,-6.055,-6.3175
258,830612,0.318664,-0.034648000000000005,-0.9298841,1.7675,-6.1775,-5.845
259,830710,0.31354,-0.048068,-0.9325680000000001,2.205,-6.5975,-5.6875
260,830808,0.299632,-0.06466001,-0.927932,2.3625,-6.7025,-5.9325
261,830906,0.312076,-0.055388,-0.9242720999999999,1.575,-6.02,-6.3875
262,831005,0.31646799999999997,-0.043432,-0.9262239999999999,0.9975,-5.775,-6.4925
263,831103,0.313052,-0.049288,-0.9291520000000001,1.1725,-6.1075,-6.37
264,831201,0.312076,-0.046848,-0.9259799999999999,1.155,-6.2475,-6.2475
265,831299,0.306952,-0.05124001,-0.9247601000000001,1.12,-6.0725,-6.3525
266,831397,0.312808,-0.050996,-0.9242720999999999,0.9275,-5.8625,-6.405
267,831495,0.32086,-0.044652,-0.9232961,0.6125,-6.0725,-6.405
268,831593,0.325496,-0.03538,-0.927932,0.595,-6.9825,-6.51
269,831691,0.31598000000000004,-0.040748,-0.9284200999999999,0.9975,-7.77,-5.9675
270,831789,0.31012399999999996,-0.050508,-0.931348,1.19,-8.1025,-5.6175
271,831887,0.30744,-0.047092,-0.9354959999999999,1.1725,-7.91,-5.7225
272,831985,0.314272,-0.040748,-0.937448,1.435,-7.385,-5.7575
273,832083,0.316224,-0.044652,-0.9320801,2.3275,-7.245,-5.7225
274,832181,0.318664,-0.03782,-0.930616,2.8175,-7.5775,-5.495
275,832279,0.313784,-0.047824,-0.9330560999999999,3.325,-8.085,-5.1275
276,832377,0.30841599999999997,-0.062220000000000004,-0.9232961,3.465,-8.295,-5.0225
277,832475,0.299632,-0.0549,-0.9264680000000001,2.905,-8.4,-5.2325
278,832573,0.29987600000000003,-0.052703999999999994,-0.930372,2.135,-7.9275,-5.5825
279,832672,0.306952,-0.05002,-0.93086,1.715,-7.3675,-5.775
280,832770,0.30841599999999997,-0.05002,-0.9298841,1.6975,-7.245,-5.9675
281,832868,0.30402399999999996,-0.057096,-0.9291520000000001,1.3475,-7.035,-6.1075
282,832966,0.306708,-0.05636401,-0.9293961,0.9625,-6.7725,-6.2825
283,833064,0.307684,-0.055144000000000006,-0.9262239999999999,0.6475,-6.7725,-6.615
284,833162,0.305,-0.060024,-0.921832,0.2975,-6.79,-6.7025
285,833260,0.304268,-0.058803999999999995,-0.92232,-0.105,-6.8425,-7.0525
286,833358,0.302316,-0.05563200000000001,-0.9252481,-0.6475,-6.6325,-7.2625
287,833456,0.30744,-0.04514,-0.9286639999999999,-0.9625,-6.475,-7.3675
288,833554,0.30475599999999997,-0.044164,-0.928176,-0.805,-6.44,-7.2975
289,833652,0.307196,-0.040016,-0.9325680000000001,-0.5775,-6.37,-7.14
290,833750,0.30475599999999997,-0.035624,-0.930616,-0.14,-6.335,-6.79
291,833848,0.30109600000000003,-0.040016,-0.9298841,0.2975,-6.2825,-6.3875
292,833946,0.30622,-0.037088,-0.9286639999999999,0.7,-6.0375,-6.055
293,834044,0.30866,-0.040504000000000005,-0.93086,1.0675,-6.1075,-5.7575
294,834142,0.303048,-0.045872,-0.9301280000000001,1.2775,-6.1775,-5.4775
295,834240,0.29572800000000005,-0.052703999999999994,-0.9250040999999999,1.3125,-6.1425,-5.39
296,834338,0.295484,-0.05612,-0.9262239999999999,1.2075,-5.8275,-5.5825
297,834436,0.295484,-0.054412,-0.9250040999999999,0.91,-5.25,-5.985
298,834534,0.29646,-0.056852,-0.930372,0.8575,-4.5675,-6.265
299,834632,0.309392,-0.05587601,-0.9315921,0.7525,-3.92,-6.4225
300,834731,0.306708,-0.055144000000000006,-0.9298841,0.7875,-3.85,-6.545
301,834829,0.306952,-0.052948,-0.9274440999999999,0.665,-3.9725,-6.825
302,834927,0.309148,-0.049288,-0.927932,0.42,-4.0075,-6.8775
303,835025,0.30792800000000004,-0.050996,-0.9262239999999999,0.4725,-4.3925,-6.755
304,835123,0.30182800000000004,-0.052948,-0.9262239999999999,0.385,-4.585,-6.79
305,835221,0.30548800000000004,-0.050752,-0.9286639999999999,0.21,-4.2525,-6.825
306,835319,0.305732,-0.052216,-0.9274440999999999,0.175,-4.3575,-6.9475
307,835417,0.29987600000000003,-0.047824,-0.9274440999999999,0.0875,-4.2175,-6.9825
308,835515,0.30402399999999996,-0.050752,-0.9284200999999999,0.28,-4.025,-6.825
309,835613,0.30866,-0.061,-0.9250040999999999,0.1575,-3.9375,-6.895
310,835711,0.30988000000000004,-0.055388,-0.9228081,-0.35,-4.1125,-7.035
311,835809,0.310856,-0.054167999999999994,-0.9259799999999999,-0.7875,-4.48,-7.455
312,835907,0.30866,-0.044407999999999996,-0.9301280000000001,-0.91,-4.6025,-7.84
313,836005,0.308904,-0.047580000000000004,-0.9274440999999999,-0.875,-4.5325,-7.91
314,836103,0.306464,-0.0488,-0.9315921,-0.7875,-4.41,-7.8575
315,836201,0.306952,-0.047336,-0.93086,-0.6825,-4.2175,-7.98
316,836299,0.310856,-0.046116000000000004,-0.9340321,-0.5775,-3.7625,-8.05
317,836397,0.316712,-0.042456,-0.9325680000000001,-0.4725,-3.465,-7.84
318,836495,0.320128,-0.037088,-0.9318360000000001,-0.1575,-3.6225,-7.6475
319,836593,0.3233,-0.03904,-0.9328120000000001,0.1575,-4.0775,-7.385
320,836691,0.315004,-0.046604,-0.930616,0.4725,-4.7075,-7.105
321,836789,0.309148,-0.0488,-0.9286639999999999,0.5425,-4.935,-7.0
322,836887,0.312564,-0.052948,-0.928176,0.35,-4.795,-7.14
323,836985,0.312564,-0.048312,-0.9301280000000001,0.2275,-4.795,-7.3325
324,837083,0.31451599999999996,-0.050263999999999996,-0.9298841,0.0525,-4.76,-7.49
325,837182,0.31232,-0.048312,-0.9318360000000001,-0.07,-4.795,-7.595
326,837280,0.30841599999999997,-0.05172801,-0.9267120000000001,-0.1225,-4.76,-7.6825
327,837378,0.304512,-0.052703999999999994,-0.9262239999999999,-0.315,-4.48,-7.7175
328,837476,0.30182800000000004,-0.054655999999999996,-0.925736,-0.63,-3.955,-8.0325
329,837574,0.30744,-0.05124001,-0.9264680000000001,-1.1375,-3.43,-8.5225
330,837672,0.31232,-0.042944,-0.9293961,-1.365,-2.975,-8.8025
331,837770,0.319396,-0.038796,-0.927688,-1.12,-2.9225,-8.785
332,837868,0.320372,-0.0366,-0.9274440999999999,-0.7175,-3.2375,-8.5225
333,837966,0.319396,-0.032695999999999996,-0.9252481,-0.315,-3.465,-8.2775
334,838064,0.313296,-0.035868000000000004,-0.9247601000000001,0.385,-3.6925,-7.91
335,838162,0.311832,-0.037332,-0.9267120000000001,1.0325,-3.5525,-7.6475
336,838260,0.31524800000000003,-0.050508,-0.9235399999999999,1.575,-2.9925,-7.77
337,838358,0.312076,-0.046848,-0.9291520000000001,1.8025,-2.38,-7.6125
338,838456,0.319884,-0.046360000000000005,-0.927932,1.68,-1.7325,-7.84
339,838554,0.339404,-0.023668,-0.9352520000000001,1.505,-1.4875,-7.7525
340,838652,0.321348,-0.061488,-0.9418401,3.0975,-2.2225,-7.595
341,838750,0.31646799999999997,-0.047336,-0.957456,3.57,-1.715,-7.805
342,838848,0.3233,-0.07076001,-0.9577,4.2525,-0.6475,-8.155
343,838946,0.322324,-0.084912,-0.9620920000000001,4.935,0.4375,-8.8375
344,839044,0.328424,-0.10126,-0.9474520000000001,4.9875,1.3825,-9.835
345,839142,0.329644,-0.12322000000000001,-0.9450120000000001,3.675,2.31,-11.445
346,839241,0.299144,-0.07002799999999999,-0.98088,0.8925,4.3575,-13.7025
347,839339,0.20618000000000003,0.037576,-1.063108,-0.07,7.875,-17.9375
348,839437,0.17763199999999998,0.000976,-1.025044,5.3375,14.63,-23.4675
349,839535,0.1708,-0.027083999999999997,-0.957944,3.675,26.0925,-25.445
350,839633,0.265472,0.111508,-1.003084,-1.995,38.64,-23.485
351,839731,0.27694,0.127856,-1.00528,-0.77,43.47,-19.95
352,839829,0.29646,0.09711201,-1.048712,5.215,43.96,-17.3425
353,839927,0.22935999999999998,0.019275999999999998,-1.0377319999999999,15.0675,39.095,-16.765
354,840025,0.031476,-0.125416,-1.1794959999999999,24.185,27.5975,-15.6975
355,840123,-0.014884,-0.309392,-1.3790879999999999,22.68,8.9775,-13.2125
356,840221,-0.104432,-0.32818,-1.3729879999999999,-0.5775,-13.3,-7.175
357,840319,-0.245464,-0.312564,-1.1594879999999999,-23.275,-35.7,-0.385
358,840417,-0.250344,-0.29524,-1.0723799999999999,-36.4175,-51.66,7.0175
359,840515,-0.14493599999999998,-0.30182800000000004,-1.063108,-43.925,-63.8575,14.315
360,840613,-0.052948,-0.326472,-0.9796600000000001,-47.5825,-75.32,21.4375
361,840711,-0.004392,-0.336476,-0.81374,-49.1225,-84.595,28.49
362,840809,0.020008,-0.335012,-0.5887720000000001,-48.72,-85.89,36.0675
363,840907,0.07978801,-0.345992,-0.446032,-46.48,-75.7925,44.87
364,841005,0.179828,-0.366,-0.40577199999999997,-44.7475,-57.61,54.6
365,841104,0.288408,-0.392596,-0.461404,-45.1675,-38.43,64.8375
366,841202,0.41382399999999997,-0.394304,-0.592188,-47.705,-21.7,75.3725
367,841300,0.5897479999999999,-0.359656,-0.8193521,-49.875,-9.555,85.26
368,841398,0.7468840999999999,-0.290116,-1.056032,-51.1175,-6.3175,92.96
369,841496,1.61162,0.257664,-1.20414,-48.195,-11.34,98.35
370,841594,1.129476,-0.581696,0.131272,-8.7325,12.9675,112.035
371,841692,2.061312,-0.00366,-0.008784,-17.675,34.9475,127.9075
372,841790,1.7999880000000001,1.288076,-0.8086161000000001,-36.47,54.1275,150.5525
373,841888,1.0943399999999999,2.661064,-1.7216639999999999,-86.32751,-6.265,86.485
374,841986,-0.11321600000000001,1.0845799999999999,-0.9557479999999999,46.655,-78.085,-1.855
375,842084,-0.154452,-0.5604680000000001,-0.9625799999999999,77.14,-69.6325,-24.0625
376,842182,-0.243756,-1.036268,-0.67588,53.13,-40.075,-9.0125
377,842280,-0.066856,-0.047824,-0.636108,8.4525,1.155,2.0825
378,842378,0.449204,0.20447200000000001,-1.099464,-9.8525,28.2625,0.6475
379,842476,0.387716,-0.263764,-0.8359440999999999,9.6075,22.4525,-3.71
380,842574,0.2013,-0.22789600000000002,-0.7993439999999999,6.2125,14.8225,-5.5825
381,842672,0.32574000000000003,0.168848,-1.147532,-2.135,19.6,-8.085
382,842770,0.294996,0.049044,-0.9476959999999999,12.5125,19.005,-10.535
383,842868,0.35477600000000004,-0.066124,-0.9762440999999998,15.855,18.97,-7.77
384,842966,0.35624,-0.014396,-0.9696561,13.2125,17.1675,-4.9875
385,843064,0.3721,-0.055144000000000006,-0.9635560999999999,12.075,13.3175,-3.535
386,843162,0.338672,-0.034892,-0.9552601000000001,9.87,9.24,-2.555
387,843260,0.308904,-0.010736,-0.9552601000000001,7.5775,6.405,-1.96
388,843358,0.32208000000000003,-0.054167999999999994,-0.9469641,7.315,5.88,-1.6275
389,843456,0.34477199999999997,-0.0732,-0.944768,6.23,5.4075,-2.2575
390,843555,0.343308,-0.060024,-0.942572,4.795,3.36,-3.745
391,843653,0.332328,-0.0427,-0.93696,3.6225,1.0675,-5.075
392,843751,0.316712,-0.05124001,-0.9298841,2.975,-0.49,-5.88
393,843849,0.329888,-0.047092,-0.9252481,2.0125,-0.945,-6.44
394,843947,0.335012,-0.029768,-0.919392,1.085,-1.8025,-6.72
395,844045,0.326228,-0.033672,-0.9242720999999999,0.9275,-3.535,-6.3
396,844143,0.331108,-0.030012,-0.927688,0.8925,-4.235,-5.7225
397,844241,0.333548,-0.026595999999999998,-0.9242720999999999,1.1375,-4.7425,-5.2675
398,844339,0.326228,-0.038796,-0.9242720999999999,1.8375,-5.495,-4.725
399,844437,0.32086,-0.05124001,-0.925736,2.1,-5.95,-4.5675
400,844535,0.31842,-0.042944,-0.927688,1.9075,-5.915,-4.7775
401,844633,0.32256799999999997,-0.046848,-0.924516,1.96,-5.845,-5.075
402,844731,0.32403200000000004,-0.03782,-0.918416,1.82,-6.09,-5.3375
403,844829,0.318664,-0.039528,-0.9228081,1.68,-6.72,-5.425
404,844927,0.319884,-0.040504000000000005,-0.9247601000000001,1.4875,-6.9475,-5.565
405,845025,0.323544,-0.035624,-0.9301280000000001,1.2075,-6.825,-5.6175
406,845123,0.322324,-0.041236,-0.930616,1.2775,-6.7375,-5.6175
407,845221,0.31646799999999997,-0.038064,-0.9284200999999999,1.26,-6.7025,-5.6
408,845320,0.31524800000000003,-0.039772,-0.9298841,1.47,-6.44,-5.635
409,845418,0.318664,-0.039772,-0.927688,1.4875,-6.0375,-5.705
410,845516,0.325984,-0.042456,-0.9272,1.61,-5.7575,-5.705
411,845614,0.321104,-0.044407999999999996,-0.9230520000000001,1.75,-6.23,-5.7225
412,845712,0.325252,-0.049288,-0.9237841,1.75,-6.6325,-5.81
413,845810,0.322812,-0.047824,-0.9237841,1.4525,-6.8075,-5.915
414,845908,0.31598000000000004,-0.046360000000000005,-0.9230520000000001,1.225,-7.1575,-6.0725
415,846006,0.309148,-0.04392,-0.9235399999999999,1.0675,-7.0525,-6.0725
416,846104,0.309148,-0.047824,-0.9228081,1.26,-6.405,-6.125
417,846202,0.311832,-0.042944,-0.9267120000000001,1.3825,-5.53,-6.3175
418,846300,0.31524800000000003,-0.04392,-0.9254921,1.26,-4.76,-6.37
419,846398,0.318664,-0.040992,-0.9289081,1.19,-4.165,-6.3175
420,846496,0.321104,-0.041968,-0.927932,1.12,-4.13,-6.2125
421,846594,0.323056,-0.046360000000000005,-0.9267120000000001,1.155,-4.2175,-6.1425
422,846692,0.322324,-0.040260000000000004,-0.9262239999999999,1.1025,-4.62,-6.09
423,846790,0.320372,-0.046360000000000005,-0.9208561,0.945,-5.3725,-6.37
424,846888,0.31646799999999997,-0.050263999999999996,-0.9211,0.4375,-6.1425,-6.4575
425,846986,0.315004,-0.046604,-0.9240280000000001,-0.2625,-6.23,-6.8775
426,847084,0.31402800000000003,-0.04392,-0.9186601000000001,-0.3675,-5.985,-7.6825
427,847182,0.325496,-0.045872,-0.919392,-0.0875,-6.02,-8.3475
428,847280,0.323056,-0.052216,-0.922076,0.175,-6.65,-8.6975
429,847379,0.319152,-0.044652,-0.9254921,0.4725,-7.0,-8.89
430,847477,0.317688,-0.043188,-0.9267120000000001,0.735,-7.07,-8.8025
431,847575,0.31890799999999997,-0.03782,-0.931348,0.9625,-6.86,-8.435
432,847673,0.321836,-0.031476,-0.9335440999999999,1.2425,-6.51,-7.9275
433,847771,0.321592,-0.035868000000000004,-0.9272,1.4875,-6.335,-7.1575
434,847869,0.316224,-0.039528,-0.928176,1.96,-6.405,-6.6325
435,847967,0.311832,-0.041236,-0.9289081,2.345,-6.4225,-6.3
436,848065,0.319396,-0.043432,-0.9267120000000001,2.5375,-6.405,-6.2475
437,848163,0.319884,-0.04514,-0.9262239999999999,2.8175,-6.5275,-6.1425
438,848261,0.31842,-0.046116000000000004,-0.9252481,2.9575,-6.5625,-5.9325
439,848359,0.319396,-0.044652,-0.9247601000000001,3.0975,-6.79,-5.915
440,848457,0.31842,-0.049044,-0.9262239999999999,3.22,-7.035,-5.775
441,848555,0.31524800000000003,-0.050508,-0.921832,3.4125,-7.1925,-5.81
442,848653,0.30988000000000004,-0.049776,-0.9262239999999999,3.57,-7.14,-5.985
443,848751,0.308904,-0.049532,-0.925736,3.7625,-6.65,-6.0725
444,848849,0.30841599999999997,-0.05612,-0.9225639999999999,3.815,-6.23,-6.0725
445,848947,0.31232,-0.050996,-0.9269561,3.675,-5.46,-6.265
446,849045,0.31646799999999997,-0.05368,-0.93086,3.4475,-5.0575,-6.1075
447,849143,0.315004,-0.05124001,-0.927688,3.15,-4.9,-6.1425
448,849241,0.316224,-0.053436000000000004,-0.9250040999999999,2.835,-4.7075,-6.1075
449,849339,0.313052,-0.055388,-0.9247601000000001,2.5725,-4.515,-6.09
450,849438,0.31646799999999997,-0.057096,-0.9242720999999999,2.17,-4.48,-6.3875
451,849536,0.319396,-0.0549,-0.9232961,1.8725,-4.3575,-6.545
452,849634,0.315492,-0.057828,-0.9247601000000001,1.785,-4.5325,-6.6325
453,849732,0.320128,-0.054167999999999994,-0.9262239999999999,1.435,-4.6375,-6.8425
454,849830,0.31890799999999997,-0.05172801,-0.9264680000000001,1.2075,-4.7075,-6.895
455,849928,0.323788,-0.0549,-0.9252481,1.155,-4.725,-7.0175
456,850026,0.32256799999999997,-0.05368,-0.9250040999999999,1.1025,-4.83,-7.0525
457,850124,0.324276,-0.054167999999999994,-0.9240280000000001,1.155,-5.1625,-7.0175
458,850222,0.316224,-0.05563200000000001,-0.92232,1.015,-5.5825,-7.14
459,850320,0.317932,-0.057096,-0.9235399999999999,0.8925,-5.5825,-7.1925
460,850418,0.319152,-0.056608000000000006,-0.9242720999999999,0.7525,-5.6175,-7.28
461,850516,0.319884,-0.054167999999999994,-0.9237841,0.7,-5.5475,-7.315
462,850614,0.318176,-0.05246,-0.925736,0.6475,-5.495,-7.2625
463,850712,0.320128,-0.049532,-0.9269561,0.63,-5.565,-7.21
464,850810,0.3233,-0.048556,-0.9262239999999999,0.665,-5.53,-7.0875
465,850908,0.322812,-0.052703999999999994,-0.9235399999999999,0.77,-5.5125,-6.93
466,851006,0.319152,-0.053191999999999996,-0.9267120000000001,0.8925,-5.5125,-6.7725
467,851104,0.31524800000000003,-0.0488,-0.9315921,0.8400001,-5.495,-6.72
468,851202,0.317688,-0.055388,-0.9240280000000001,0.9625,-5.1275,-6.6325
469,851300,0.320616,-0.049532,-0.925736,0.8575,-5.0925,-6.65
470,851398,0.321592,-0.047336,-0.928176,0.77,-5.075,-6.5975
471,851496,0.32086,-0.050752,-0.9250040999999999,0.8575,-5.565,-6.475
472,851594,0.321836,-0.054412,-0.9232961,0.77,-5.88,-6.475
473,851692,0.320616,-0.051972000000000004,-0.9262239999999999,0.7,-6.5275,-6.5275
474,851791,0.319152,-0.05172801,-0.9272,0.665,-6.8775,-6.58
475,851889,0.31842,-0.050263999999999996,-0.9272,0.6475,-6.895,-6.65
476,851987,0.31598000000000004,-0.050996,-0.9267120000000001,0.525,-6.9125,-6.72
477,852085,0.319884,-0.049776,-0.9291520000000001,0.3675,-6.685,-6.9475
478,852183,0.322812,-0.05246,-0.9254921,0.315,-6.4575,-6.825
479,852281,0.326228,-0.052703999999999994,-0.9264680000000001,0.2625,-6.5625,-6.65
480,852379,0.32208000000000003,-0.051484,-0.9240280000000001,0.2275,-7.0175,-6.7375
481,852477,0.318664,-0.049044,-0.9240280000000001,0.175,-7.245,-6.65
482,852575,0.312564,-0.048556,-0.9242720999999999,0.42,-7.3325,-6.5625
483,852673,0.313296,-0.05246,-0.921832,0.5425,-7.0175,-6.545
484,852771,0.313784,-0.056608000000000006,-0.9247601000000001,0.4725,-6.685,-6.93
485,852869,0.31646799999999997,-0.050996,-0.9259799999999999,0.28,-6.335,-7.1225
486,852967,0.3172,-0.053191999999999996,-0.9274440999999999,0.35,-6.475,-7.1925
487,853065,0.313052,-0.049288,-0.9301280000000001,0.245,-6.4575,-7.1225
488,853163,0.314272,-0.052703999999999994,-0.9259799999999999,0.2625,-6.37,-7.0175
489,853261,0.31451599999999996,-0.050508,-0.9264680000000001,0.2275,-6.1775,-7.0175
490,853359,0.31598000000000004,-0.052948,-0.9247601000000001,0.21,-5.8625,-7.07
491,853457,0.319152,-0.047824,-0.924516,0.21,-5.845,-6.93
492,853555,0.318664,-0.050752,-0.9289081,0.35,-6.0725,-6.825
493,853653,0.31646799999999997,-0.05002,-0.9272,0.35,-6.195,-6.7725
494,853752,0.313296,-0.051484,-0.9264680000000001,0.35,-6.2475,-6.7375
495,853850,0.306708,-0.053436000000000004,-0.9250040999999999,0.28,-6.4575,-6.8425
496,853948,0.305732,-0.05172801,-0.9230520000000001,0.245,-6.265,-6.965
497,854046,0.30841599999999997,-0.052703999999999994,-0.9242720999999999,0.1575,-5.775,-7.2275
498,854144,0.312076,-0.049288,-0.9259799999999999,0.21,-5.3725,-7.2975
499,854242,0.314272,-0.047092,-0.924516,0.2275,-5.215,-7.3675
500,854340,0.309636,-0.049776,-0.92232,0.3675,-5.0225,-7.14
501,854438,0.31158800000000003,-0.050508,-0.9259799999999999,0.42,-4.7775,-7.1225
502,854536,0.313052,-0.049776,-0.927688,0.2625,-4.7425,-7.1575
503,854634,0.315736,-0.046848,-0.9269561,0.2275,-4.725,-7.105
504,854732,0.320128,-0.049776,-0.9259799999999999,0.2975,-4.8475,-6.965
505,854830,0.317688,-0.048556,-0.925736,0.4725,-5.0575,-6.8775
506,854928,0.31646799999999997,-0.051972000000000004,-0.9247601000000001,0.4375,-5.1625,-6.755
507,855026,0.315736,-0.053436000000000004,-0.9262239999999999,0.5075,-5.0925,-6.755
508,855124,0.314272,-0.052703999999999994,-0.921832,0.4375,-5.1275,-6.79
509,855222,0.313052,-0.053191999999999996,-0.9242720999999999,0.525,-5.0225,-6.685
510,855320,0.310368,-0.052216,-0.9240280000000001,0.4375,-4.83,-6.65
511,855418,0.308904,-0.053191999999999996,-0.9242720999999999,0.3675,-4.62,-6.79
512,855516,0.31476,-0.054167999999999994,-0.9250040999999999,0.14,-4.305,-7.0175
513,855614,0.31646799999999997,-0.050263999999999996,-0.924516,-0.1225,-4.3575,-7.1925
514,855712,0.31842,-0.050508,-0.9252481,-0.21,-4.6375,-7.2975
515,855810,0.32086,-0.048068,-0.9274440999999999,-0.175,-4.62,-7.3675
516,855909,0.319396,-0.049044,-0.9240280000000001,0.105,-4.62,-7.28
517,856007,0.315004,-0.051484,-0.9242720999999999,0.2275,-4.725,-7.175
518,856105,0.31524800000000003,-0.050508,-0.9235399999999999,0.2975,-4.655,-7.0875
519,856203,0.312808,-0.046360000000000005,-0.9269561,0.28,-4.375,-7.07
520,856301,0.320616,-0.05124001,-0.9232961,0.3675,-4.0775,-7.035
521,856399,0.31646799999999997,-0.045384,-0.9291520000000001,0.42,-3.92,-6.965
522,856497,0.319152,-0.048068,-0.9242720999999999,0.5425,-3.6925,-6.9825
523,856595,0.32086,-0.048556,-0.9269561,0.63,-3.7975,-6.9475
524,856693,0.320372,-0.048068,-0.924516,0.77,-3.885,-6.9475
525,856791,0.320372,-0.046360000000000005,-0.924516,0.8575,-3.78,-6.8425
526,856889,0.325984,-0.048556,-0.9232961,1.015,-3.64,-6.8075
527,856987,0.323788,-0.048068,-0.921832,0.9625,-3.7975,-6.8075
528,857085,0.3233,-0.049044,-0.92232,0.9975,-4.06,-6.8075
529,857183,0.316224,-0.05172801,-0.9225639999999999,0.9975,-4.095,-6.895
530,857281,0.31842,-0.051972000000000004,-0.9240280000000001,0.91,-3.9375,-7.0
531,857379,0.320616,-0.048312,-0.9259799999999999,0.77,-3.85,-7.105
532,857477,0.322812,-0.046604,-0.9264680000000001,0.7525,-3.7625,-7.1925
533,857575,0.323544,-0.049044,-0.924516,0.6825,-3.78,-7.2275
534,857673,0.324276,-0.0488,-0.9242720999999999,0.6125,-3.9025,-7.1925
535,857771,0.321592,-0.049288,-0.9225639999999999,0.525,-4.06,-7.07
536,857869,0.320616,-0.05002,-0.9240280000000001,0.42,-4.0425,-7.14
537,857967,0.32818,-0.047336,-0.9242720999999999,0.4025,-3.8325,-7.245
538,858065,0.327448,-0.049044,-0.9247601000000001,0.3675,-3.955,-7.21
539,858163,0.32696,-0.050263999999999996,-0.9235399999999999,0.42,-4.06,-7.21
540,858261,0.3294,-0.048068,-0.9247601000000001,0.4375,-4.0775,-7.1575
541,858359,0.331352,-0.047824,-0.9242720999999999,0.4375,-4.165,-6.9825
542,858457,0.328424,-0.046848,-0.922076,0.56,-4.4625,-7.0175
543,858555,0.33061999999999997,-0.047580000000000004,-0.9242720999999999,0.665,-4.6375,-6.8775
544,858653,0.328912,-0.047824,-0.92232,0.7,-4.8125,-6.825
545,858751,0.32696,-0.049776,-0.9247601000000001,0.735,-5.0575,-6.8075
546,858850,0.325984,-0.051484,-0.9208561,0.7875,-5.1275,-6.9125
547,858948,0.325496,-0.049532,-0.9228081,0.7175,-5.145,-7.0175
548,859046,0.327204,-0.052703999999999994,-0.9211,0.77,-5.1275,-7.035
549,859144,0.328424,-0.049288,-0.927688,0.7875,-5.18,-7.07
550,859242,0.33013200000000004,-0.048312,-0.9237841,0.8400001,-5.145,-6.93
551,859340,0.331108,-0.049288,-0.9240280000000001,0.805,-5.2675,-6.825
552,859438,0.329644,-0.047580000000000004,-0.9242720999999999,0.805,-5.6,-6.755
553,859536,0.326228,-0.048556,-0.9206120000000001,0.805,-5.8975,-6.6325
554,859634,0.32696,-0.049532,-0.925736,0.8400001,-5.985,-6.5975
555,859732,0.326716,-0.05246,-0.919636,0.875,-6.0725,-6.6675
556,859830,0.324276,-0.05246,-0.9186601000000001,0.91,-6.1425,-6.5975
557,859928,0.326472,-0.049776,-0.9232961,0.91,-6.02,-6.65
558,860026,0.32866799999999996,-0.048068,-0.9242720999999999,0.8925,-6.09,-6.6675
559,860124,0.326228,-0.049044,-0.92232,0.9275,-6.1775,-6.5975
560,860222,0.32866799999999996,-0.05002,-0.92232,0.91,-6.3175,-6.4925
561,860320,0.32818,-0.048068,-0.9240280000000001,1.015,-6.3875,-6.44
562,860418,0.324276,-0.05246,-0.9201241,1.05,-6.5275,-6.5275
563,860516,0.325008,-0.052216,-0.921588,0.8925,-6.5975,-6.545
564,860614,0.326228,-0.049776,-0.9240280000000001,0.8400001,-6.615,-6.58
565,860712,0.32574000000000003,-0.05124001,-0.9240280000000001,0.805,-6.6325,-6.65
566,860810,0.32574000000000003,-0.048556,-0.921832,0.805,-6.8075,-6.65
567,860908,0.324276,-0.049044,-0.922076,0.735,-6.9125,-6.7025
568,861006,0.323788,-0.047824,-0.919636,0.77,-7.035,-6.7375
569,861104,0.323056,-0.045872,-0.9225639999999999,0.875,-7.175,-6.5975
570,861202,0.319884,-0.047336,-0.9232961,0.945,-7.2625,-6.51
571,861300,0.32256799999999997,-0.049532,-0.9237841,1.155,-7.0875,-6.475
572,861399,0.32086,-0.050508,-0.9191481,1.3125,-6.965,-6.3525
573,861497,0.321836,-0.0488,-0.9242720999999999,1.225,-6.895,-6.405
574,861595,0.32256799999999997,-0.050752,-0.9242720999999999,1.155,-6.79,-6.3175
575,861693,0.323544,-0.050752,-0.9254921,1.1725,-6.86,-6.23
576,861791,0.325984,-0.05124001,-0.9242720999999999,1.0675,-6.9475,-6.2825
577,861889,0.32574000000000003,-0.052216,-0.921832,0.9625,-7.0,-6.2825
578,861987,0.325252,-0.053191999999999996,-0.9252481,0.8925,-7.1925,-6.3
579,862085,0.327692,-0.052703999999999994,-0.9242720999999999,0.63,-7.4725,-6.335
580,862183,0.32574000000000003,-0.052948,-0.9252481,0.525,-7.77,-6.335
581,862281,0.321836,-0.051972000000000004,-0.9228081,0.385,-8.26,-6.405
582,862379,0.320128,-0.052703999999999994,-0.924516,0.21,-8.435,-6.51
583,862477,0.318664,-0.05246,-0.9269561,0.2275,-8.4525,-6.545
584,862575,0.317688,-0.047092,-0.927688,0.2275,-8.4175,-6.5625
585,862673,0.31964000000000004,-0.047824,-0.9252481,0.28,-8.3125,-6.4925
586,862771,0.313296,-0.047824,-0.9259799999999999,0.2625,-8.19,-6.4225
587,862869,0.313784,-0.05636401,-0.9240280000000001,0.42,-8.1025,-6.3175
588,862967,0.316956,-0.05172801,-0.9240280000000001,0.2975,-7.84,-6.335
589,863065,0.312564,-0.054167999999999994,-0.9225639999999999,0.4375,-7.7175,-6.405
590,863163,0.31646799999999997,-0.052948,-0.9262239999999999,0.3675,-7.665,-6.4575
591,863261,0.314272,-0.051484,-0.9206120000000001,0.455,-7.3675,-6.4225
592,863359,0.31524800000000003,-0.053191999999999996,-0.9252481,0.525,-7.1925,-6.3875
593,863458,0.311344,-0.05124001,-0.9272,0.56,-7.07,-6.51
594,863556,0.313296,-0.055388,-0.9250040999999999,0.3675,-6.8425,-6.4225
595,863654,0.311832,-0.0488,-0.9259799999999999,0.3675,-6.51,-6.405
596,863752,0.311344,-0.051484,-0.9247601000000001,0.385,-6.3,-6.4575
597,863850,0.31012399999999996,-0.050263999999999996,-0.9242720999999999,0.245,-5.9325,-6.4925
598,863948,0.316224,-0.053191999999999996,-0.9252481,0.07,-5.6875,-6.755
599,864046,0.31451599999999996,-0.048556,-0.9269561,0.28,-5.74,-6.8425
600,864144,0.319884,-0.05002,-0.9289081,0.105,-5.985,-6.9825
601,864242,0.317444,-0.05172801,-0.9247601000000001,0.1575,-6.09,-6.9825
602,864340,0.314272,-0.05002,-0.9284200999999999,0.21,-6.2475,-6.9825
603,864438,0.310856,-0.05172801,-0.9274440999999999,0.28,-6.16,-6.965
604,864536,0.313784,-0.046116000000000004,-0.9298841,0.0525,-5.9325,-6.9825
605,864634,0.316224,-0.049776,-0.9230520000000001,0.14,-5.95,-7.0175
606,864732,0.315736,-0.047092,-0.9259799999999999,0.105,-6.0725,-6.895
607,864830,0.318664,-0.05002,-0.9269561,-0.0175,-6.16,-6.9125
608,864928,0.319396,-0.052703999999999994,-0.9262239999999999,-0.21,-6.405,-7.035
609,865026,0.317444,-0.054412,-0.9264680000000001,-0.3675,-6.7375,-7.2625
610,865124,0.312808,-0.045627999999999995,-0.928176,-0.4025,-6.7025,-7.3675
611,865222,0.31451599999999996,-0.044164,-0.9269561,-0.035,-6.265,-7.245
612,865320,0.314272,-0.043676,-0.928176,0.49,-6.0375,-6.8775
613,865418,0.31451599999999996,-0.04392,-0.9286639999999999,0.5425,-5.7925,-6.7025
614,865516,0.313296,-0.047336,-0.9284200999999999,0.77,-5.6175,-6.4225
615,865614,0.311832,-0.043188,-0.9262239999999999,0.7875,-5.6,-6.3525
616,865712,0.313784,-0.047336,-0.9284200999999999,0.8575,-5.705,-6.3
617,865810,0.315004,-0.047580000000000004,-0.928176,0.7,-5.6525,-6.2475
618,865909,0.31890799999999997,-0.048068,-0.9228081,0.6825,-5.915,-6.335
619,866007,0.316956,-0.057096,-0.9250040999999999,0.5425,-6.3175,-6.37
620,866105,0.312076,-0.049776,-0.9293961,0.28,-6.72,-6.615
621,866203,0.315004,-0.05002,-0.9286639999999999,0.07,-6.51,-6.8075
622,866301,0.316956,-0.049044,-0.9293961,-0.14,-6.4925,-7.035
623,866399,0.321836,-0.04392,-0.928176,-0.3675,-6.615,-7.0875
624,866497,0.32086,-0.045384,-0.9247601000000001,-0.5425,-6.8075,-7.035
625,866595,0.31402800000000003,-0.05246,-0.9181720999999999,-0.8925,-7.3675,-6.895
626,866693,0.29572800000000005,-0.06466001,-0.9232961,-1.2775,-7.875,-7.0875
627,866791,0.30109600000000003,-0.063928,-0.9230520000000001,-1.645,-7.2975,-7.4025
628,866889,0.29524,-0.06490399999999999,-0.9098761000000001,-1.47,-6.51,-8.4875
629,866987,0.30036399999999996,-0.061732,-0.9230520000000001,-1.435,-5.88,-9.87
630,867085,0.306464,-0.053191999999999996,-0.930372,-1.89,-5.0225,-10.29
631,867183,0.313052,-0.0427,-0.9337880999999999,-2.03,-4.4275,-10.0975
632,867281,0.319152,-0.035868000000000004,-0.936716,-1.7325,-4.305,-10.0275
633,867379,0.318664,-0.034404000000000004,-0.9345201,-1.3825,-4.5325,-9.7825
634,867477,0.316712,-0.038064,-0.9286639999999999,-1.015,-4.69,-9.1525
635,867575,0.320616,-0.041968,-0.92232,-0.7175,-5.1975,-8.645
636,867673,0.311832,-0.05246,-0.9186601000000001,-0.56,-5.8975,-8.9425
637,867771,0.30182800000000004,-0.05563200000000001,-0.9171961,-0.7,-6.2825,-9.6775
638,867869,0.290116,-0.053436000000000004,-0.9201241,-1.1025,-5.81,-10.185
639,867967,0.302316,-0.050263999999999996,-0.930616,-1.33,-4.55,-10.185
640,868066,0.321592,-0.02562,-0.936716,-1.7675,-3.5175,-9.905
641,868164,0.32452,-0.028304000000000003,-0.9264680000000001,-1.3125,-3.3075,-9.2225
642,868262,0.312564,-0.015128,-0.9286639999999999,-1.1375,-3.5,-8.3475
643,868360,0.316224,-0.018056,-0.93086,-1.1375,-3.2725,-7.28
644,868458,0.321836,-0.038064,-0.9181720999999999,-0.5425,-3.3075,-6.37
645,868556,0.313784,-0.042456,-0.91622,-0.77,-4.025,-6.37
646,868654,0.31232,-0.049532,-0.9225639999999999,-1.2425,-4.2875,-6.825
647,868752,0.319152,-0.044652,-0.9247601000000001,-1.4,-4.48,-7.2625
648,868850,0.320372,-0.032208,-0.930616,-1.225,-4.935,-7.4725
649,868948,0.326228,-0.026108,-0.9403761,-0.9975,-5.1275,-7.56
650,869046,0.319396,-0.031476,-0.9537959999999999,0.3675,-5.11,-7.315
651,869144,0.318176,-0.047824,-0.9391560999999999,2.8525,-4.3225,-7.1925
652,869242,0.325984,-0.029524,-0.9301280000000001,3.92,-3.7625,-7.5075
653,869340,0.324764,-0.030012,-0.925736,4.6025,-3.8675,-7.2275
654,869438,0.337208,-0.03294,-0.9191481,4.0425,-4.41,-6.8075
655,869536,0.328912,-0.046360000000000005,-0.913292,3.605,-6.1075,-6.51
656,869634,0.329644,-0.0427,-0.912316,2.59,-7.525,-6.475
657,869732,0.33184,-0.03416,-0.917684,1.5575,-8.8725,-6.5625
658,869830,0.335988,-0.03294,-0.9174399999999999,1.4,-10.325,-6.44
659,869928,0.33818400000000004,-0.0488,-0.91012,2.3975,-11.9875,-6.615
660,870026,0.311832,-0.050263999999999996,-0.9225639999999999,2.8875,-13.2125,-6.615
661,870124,0.29377600000000004,-0.043676,-0.9345201,3.22,-13.265,-6.5625
662,870222,0.289628,-0.041236,-0.9362280000000001,3.2725,-11.55,-6.2475
663,870321,0.296948,-0.033184,-0.9418401,3.4825,-9.9925,-5.635
664,870419,0.311344,-0.042456,-0.9469641,4.0425,-8.82,-5.1975
665,870517,0.30622,-0.046360000000000005,-0.9330560999999999,4.55,-8.1725,-5.005
666,870615,0.290848,-0.049288,-0.916464,4.1475,-7.98,-5.005
667,870713,0.20618000000000003,-0.06124401,-0.9059721,3.1675,-7.175,-5.5825
668,870811,0.249856,-0.08759601,-0.900848,1.0675,-3.4475,-6.8425
669,870909,0.31476,-0.063684,-0.919636,-0.8925,-1.4875,-8.26
670,871007,0.326228,-0.011468,-0.942816,-2.2925,-2.38,-8.8375
671,871105,0.32086,-0.046360000000000005,-0.9386681,-1.61,-3.22,-8.0675
672,871203,0.320616,-0.037332,-0.9323239999999999,-1.6625,-3.3425,-7.7175
673,871301,0.326228,-0.025376,-0.9315921,-1.5925,-3.01,-7.245
674,871399,0.316712,-0.041724000000000004,-0.9250040999999999,-0.5775,-3.08,-6.3875
675,871497,0.30866,-0.02562,-0.9293961,-0.0525,-2.7125,-6.0025
676,871595,0.316224,-0.030987999999999998,-0.9228081,0.8575,-2.0125,-5.635
677,871693,0.321836,-0.04392,-0.9140241,1.645,-1.6975,-5.145
678,871791,0.323788,-0.046848,-0.9191481,1.9425,-1.925,-5.18
679,871890,0.332328,-0.05368,-0.9230520000000001,2.625,-2.8175,-5.6
680,871987,0.3355,-0.049288,-0.9264680000000001,3.255,-4.0775,-6.09
681,872085,0.33184,-0.047580000000000004,-0.9345201,3.605,-5.0225,-6.3
682,872183,0.326228,-0.040748,-0.93696,4.655,-5.285,-6.51
683,872281,0.337452,-0.041968,-0.9291520000000001,5.565,-5.3025,-6.5625
684,872379,0.331596,-0.033916,-0.9318360000000001,5.7225,-6.02,-6.6325
685,872477,0.31598000000000004,-0.043188,-0.9237841,5.6,-7.035,-6.37
686,872576,0.299388,-0.061488,-0.935008,5.8975,-7.9625,-6.6675
687,872674,0.288408,-0.06880801,-0.931348,5.46,-7.595,-7.56
688,872772,0.264984,-0.09930800000000001,-0.942572,4.935,-6.2125,-8.96
689,872870,0.25302800000000003,-0.098576,-0.957456,3.9375,-3.0275,-11.5325
690,872968,0.200324,-0.15762400000000001,-0.97356,4.655,1.61,-15.785
691,873066,0.248148,-0.183976,-0.9801479999999999,6.965,9.275,-22.2425
692,873164,0.163968,-0.15274400000000002,-1.000644,5.6,21.245,-28.245
693,873262,-0.129076,0.12566,-1.190232,-0.7875,38.6575,-35.56
694,873360,0.037332,0.050752,-1.091412,-1.085,67.0075,-39.06
695,873458,-0.028792,0.058316,-1.178276,-12.3375,96.72251,-34.7025
696,873556,0.14688800000000002,0.01586,-1.229516,-14.7175,124.2325,-35.315
697,873654,0.0488,0.020984,-1.341512,-10.0975,151.69,-36.1375
698,873752,0.348188,-0.116388,-1.517436,10.08,191.8875,-39.4975
699,873850,0.366244,-0.185196,-1.7284959999999998,17.815,227.6925,-45.2025
700,873948,0.223748,-0.347456,-1.490108,6.1425,241.9725,-53.0775
701,874046,-0.406016,-0.10540799999999999,-2.443172,-6.65,218.015,-67.97
702,874144,0.306464,-0.37502800000000003,-3.300588,-33.985,133.9975,-92.75001
703,874242,-0.395768,-0.494588,-2.658868,-70.4725,7.07,-96.6
704,874340,-0.975512,-0.625372,-1.322968,-72.2925,-72.5725,-95.5325
705,874438,-1.1977959999999999,-0.68686,-0.625372,-67.4275,-93.4325,-92.33001
706,874536,-1.14924,-0.740052,-0.618052,-56.3325,-78.1025,-84.5775
707,874634,-0.975512,-0.755424,-0.9684360999999999,-36.505,-65.66,-69.9475
708,874733,-0.8586360000000001,-0.781776,-1.20048,-7.7,-75.11,-48.685
709,874830,-0.833016,-0.828624,-1.1570479999999999,21.84,-98.9975,-22.96
710,874929,-0.803248,-0.8117880000000001,-1.031388,40.0925,-120.19,3.535
711,875027,-0.744444,-0.679784,-0.9796600000000001,48.0025,-131.2675,28.3325
712,875125,-0.663924,-0.46628400000000003,-1.020408,53.165,-134.5575,49.49
713,875223,-0.526552,-0.22789600000000002,-1.142164,62.09,-134.5225,64.645
714,875321,-0.367464,-0.041724000000000004,-1.301252,75.075,-135.3975,73.955
715,875419,-0.201544,0.06832001,-1.39812,86.22251,-142.45,77.35
716,875517,-0.06832001,0.133956,-1.453508,89.355,-153.825,75.9325
717,875615,0.022203999999999998,0.214232,-1.467904,81.88251,-165.2525,71.1375
718,875713,0.101992,0.32452,-1.453264,69.1425,-174.4925,63.6475
719,875811,0.167872,0.402844,-1.429352,57.1375,-180.7925,53.725
720,875909,0.23668000000000003,0.44164,-1.420568,49.0,-183.68,42.7175
721,876007,0.34404,0.426512,-1.4483840000000001,43.1725,-184.2925,31.2725
722,876105,0.42724399999999996,0.37454,-1.477176,37.0475,-184.7475,19.6875
723,876203,0.518256,0.28328400000000004,-1.452532,30.52,-187.1975,8.9075
724,876301,0.5546121,0.17616800000000002,-1.365424,24.2725,-188.7725,0.0525
725,876399,0.55632,0.058316,-1.230492,19.6175,-187.495,-6.0025
726,876497,0.564372,-0.030256,-1.102148,16.0475,-182.175,-9.7475
727,876595,0.5724239999999999,-0.09979600000000001,-0.990884,15.7325,-172.5325,-12.18
728,876693,0.612684,-0.15738,-0.9486720999999999,18.6725,-160.545,-12.6875
729,876791,0.6878361,-0.20984,-0.9442801,24.675,-148.4875,-11.9
730,876889,0.792024,-0.24131599999999997,-1.012844,31.045,-138.88,-10.3425
731,876987,0.9274440999999999,-0.24156,-1.057008,35.8225,-133.4375,-8.5225
732,877085,1.019432,-0.21472,-0.968192,37.03,-135.485,-6.3
733,877183,1.038708,-0.182268,-0.674172,33.5125,-139.3525,-4.725
734,877282,1.110932,-0.141276,-0.30256,26.565,-133.42,-5.5475
735,877380,1.2505,-0.05856,0.04514,18.6025,-112.7525,-8.435
736,877478,1.4691239999999999,-0.015616,0.17446,12.215,-81.25251,-12.5125
737,877576,1.820484,0.011224,0.07442,4.795,-46.025,-17.92
738,877674,2.0996200000000003,-0.06832001,0.007564001,-3.99,-21.7525,-20.125
739,877772,2.34728,-0.35843600000000003,0.9801479999999999,-23.3625,-3.465,-20.2825
740,877870,2.8077080000000003,-0.696376,1.4515559999999998,-88.09501,69.3525,-10.7975
741,877968,0.9686799999999999,0.316956,-0.24107199999999998,-196.105,154.91,-12.215
742,878066,-0.092964,-0.015616,-2.901648,-165.9525,142.9225,0.455
743,878164,-0.609268,-0.346968,-1.719468,-133.77,132.3175,25.935
744,878262,-0.12395199999999999,0.23082399999999997,-0.324276,-132.2125,155.26,26.39
745,878360,0.571204,0.720532,-0.6319600000000001,-75.7575,181.545,60.1475
746,878458,0.117852,1.130696,-1.1004399999999999,-4.9175,181.79,102.585
747,878556,-0.11394800000000001,1.7202,-0.9049959999999999,21.21,178.5525,85.54
748,878654,0.299632,1.937116,-1.41032,25.585,183.715,30.1175
749,878752,0.9864921,0.965752,-2.1047439999999997,57.7675,170.7825,-12.565
750,878850,1.139724,-0.367464,-1.968104,70.49,131.0575,-28.1925
751,878948,0.758352,-1.0736,-1.504748,49.035,95.48,-23.8875
752,879046,0.37088000000000004,-0.56608,-1.134844,17.5525,80.675,-5.565
753,879144,0.104432,0.317932,-1.0025959999999998,6.6675,81.04251,8.1375
754,879242,0.058072000000000006,0.7861680999999999,-1.028948,20.1775,85.5925,2.6075
755,879340,0.36282800000000004,0.407968,-1.160708,47.6875,88.32251,-13.4225
756,879439,0.549244,-0.570472,-1.1272799999999998,80.3075,83.475,-16.03
757,879537,0.567056,-0.812276,-1.06018,62.125,74.9175,-12.39
758,879635,0.44286000000000003,-0.341356,-1.0492,30.3625,67.9175,-5.53
759,879733,0.374784,0.09125599999999999,-1.0723799999999999,13.8075,60.6375,-4.3575
760,879831,0.534604,-0.277428,-1.3644479999999999,11.6375,51.45,-9.8
761,879929,0.777872,-0.7141881,-1.085068,-7.5075,32.6725,-1.5575
762,880027,0.252296,0.15494000000000002,-0.992348,-37.94,15.7325,0.035
763,880125,0.32086,0.1342,-1.031388,-36.2425,11.06,-3.78
764,880223,0.44334799999999996,-0.24644000000000002,-1.034316,-26.845,7.5425,-5.6
765,880321,0.3355,-0.144448,-0.930372,-35.49,1.8725,-3.9375
766,880419,0.30548800000000004,-0.09979600000000001,-0.9152440000000001,-40.88,-1.5925,-4.7075
767,880517,0.329156,-0.119804,-0.9330560999999999,-43.015,-2.9225,-4.97
768,880615,0.279624,-0.09540401,-0.8988959999999999,-47.18,-4.8825,-4.9175
769,880713,0.245952,-0.09150001,-0.8762040000000001,-52.5,-5.53,-5.775
770,880811,0.264252,-0.09711201,-0.8884040000000001,-57.82,-4.8825,-6.0025
771,880909,0.27279200000000003,-0.02196,-1.004792,-62.4575,-4.165,-5.985
772,881007,0.33671999999999996,0.09150001,-1.075308,-58.17,-4.62,-7.245
773,881105,0.302316,0.026351999999999997,-0.9869800999999999,-45.08,-8.9075,-9.38
774,881203,0.30378,0.04392,-1.0614,-37.485,-10.9725,-9.205
775,881301,0.334524,0.07246799999999999,-1.041148,-28.175,-11.865,-10.045
776,881399,0.281332,-0.008540001,-0.9328120000000001,-17.7975,-14.735,-11.375
777,881498,0.233996,-0.004392,-0.9113399999999999,-14.9625,-14.6125,-11.515
778,881596,0.22472399999999998,0.0244,-0.8998719999999999,-14.35,-11.3925,-11.6375
779,881694,0.175924,0.013663999999999999,-0.873764,-11.585,-8.015,-11.2525
780,881792,0.163236,0.034648000000000005,-0.8569280999999999,-8.785,-2.8875,-11.3925
781,881890,0.148352,0.059048,-0.8549761,-4.1825,4.1125,-11.6725
782,881988,0.266448,0.0732,-0.8945040000000001,1.4875,12.4075,-11.76
783,882086,0.25864000000000004,0.063928,-0.8988959999999999,11.0775,19.39,-13.7725
784,882184,0.201544,0.09589201,-0.8818159999999999,19.495,25.83,-15.2775
785,882282,0.23741199999999998,0.046848,-0.9232961,31.36,34.0375,-15.785
786,882380,0.291092,0.052703999999999994,-0.964532,36.75,37.485,-13.4225
787,882478,0.35502,0.00366,-0.9520881,38.43,35.4725,-7.35
788,882576,0.317688,-0.002196,-0.9450120000000001,37.905,33.1275,-5.4775
789,882674,0.304268,-0.005368,-0.9391560999999999,37.5725,32.1825,-5.705
790,882772,0.600484,-0.345748,-0.9774639999999999,40.565,28.8225,-2.975
791,882870,0.361608,-0.008540001,-1.033096,19.215,18.8825,-7.4725
792,882968,0.2867,-0.101504,-0.966484,14.3675,19.075,-11.69
793,883066,0.334524,-0.06832001,-0.9764879999999999,10.9725,22.8375,-13.51
794,883164,0.370392,-0.062220000000000004,-0.954284,8.61,26.8275,-17.3425
795,883262,0.331108,-0.004148001,-0.984784,5.985,29.3475,-19.425
796,883360,0.27816,0.007320001,-0.9864921,3.5525,32.3225,-17.7975
797,883458,0.325496,-0.0732,-1.02114,-3.6925,38.535,-15.8725
798,883556,0.309392,0.025131999999999998,-1.083116,-12.95,47.1275,-16.1525
799,883654,0.261812,-0.019032,-1.07726,-27.72,58.065,-16.38
800,883752,0.02562,-0.037576,-1.102392,-39.9525,74.8125,-17.5875
801,883850,0.265472,-0.0366,-1.063596,-50.12,98.47251,-20.9475
802,883948,-0.004636001,-0.042212,-1.155584,-51.2575,133.875,-19.25
803,884046,0.019032,-0.075396,-1.2017,-57.505,177.24,-19.81
804,884144,-0.009028000999999999,-0.04392,-1.23708,-63.2275,228.2,-26.0225
805,884242,-0.22277199999999997,-0.162504,-1.2197559999999998,-59.9025,282.94,-39.795
806,884341,-0.06270801,0.163968,-1.6169879999999999,-56.5075,338.0475,-56.6825
807,884439,0.317444,0.09418401,-1.8060880000000001,-14.525,383.3725,-68.1975
808,884537,1.176324,0.6405,-1.921744,19.81,460.18,-72.1525
809,884635,1.51158,-0.243756,-2.77672,16.765,557.0425,-67.76
810,884733,0.8276481,-0.255956,-3.1634599999999997,-25.34,573.405,-55.7025
811,884831,1.7355720000000001,-0.28426,-3.59534,-133.8575,573.3875,-48.4575
812,884929,0.698816,-0.428708,-3.9745160000000004,-146.02,573.405,-33.635
813,885027,-0.581208,1.132892,-3.227388,-169.3825,573.405,-41.3175
814,885125,1.8880720000000002,0.8901120000000001,-6.057055999999999,-107.0125,487.1475,-109.76
815,885223,0.625372,-0.06661201,-5.661044,58.9575,209.0025,-121.66
816,885321,-0.25351599999999996,-1.172176,-3.279116,132.93,-0.6475,-97.28251
817,885419,-0.559248,-1.4884,-2.282864,71.26,-97.86,-75.3375
818,885517,-0.671488,-1.199748,-1.7272759999999998,-38.5,-139.2125,-66.185
819,885615,-0.7617681,-0.675148,-1.5001120000000001,-107.24,-166.6175,-51.135
820,885713,-0.7190681,-0.337208,-1.361032,-109.13,-192.2025,-31.7975
821,885811,-0.6344,-0.230336,-1.230736,-60.095,-214.725,-15.925
822,885909,-0.513864,-0.225944,-1.153144,-1.2775,-233.135,-3.185
823,886007,-0.357216,-0.282064,-1.10776,50.645,-250.2325,7.56
824,886105,-0.17763199999999998,-0.30866,-1.073112,82.67,-267.0675,17.78
825,886203,-0.010492,-0.30866,-1.077504,94.115,-283.675,25.5675
826,886301,0.17934,-0.27084,-1.128744,90.545,-299.4775,31.7275
827,886399,0.35282399999999997,-0.185684,-1.230736,79.4325,-316.5225,37.205
828,886497,0.533872,-0.07490801,-1.3207719999999998,66.5,-336.4025,41.6675
829,886595,0.653188,0.049776,-1.396168,54.32,-357.7175,39.9
830,886693,0.758108,0.202032,-1.4630239999999999,45.6925,-378.3325,31.9025
831,886791,0.830332,0.32208000000000003,-1.503528,44.7825,-397.5125,19.285
832,886889,0.8759601,0.38064000000000003,-1.559648,51.8525,-412.685,3.29
833,886988,0.9442801,0.353068,-1.5921,64.435,-423.5175,-12.2325
834,887086,1.013576,0.313784,-1.635044,78.7325,-430.57,-23.905
835,887184,1.057496,0.25522399999999995,-1.69458,95.935,-433.545,-30.1
836,887282,1.109956,0.19861600000000001,-1.824632,113.12,-433.09,-31.85
837,887380,1.194868,0.16714,-2.053016,131.0925,-429.8875,-28.49
838,887478,1.354688,0.07393200000000001,-2.399496,152.3025,-425.53,-19.4775
839,887576,1.617964,-0.06466001,-2.7359720000000003,172.9525,-424.06,-6.2125
840,887674,2.0520400000000003,-0.352092,-3.012912,189.7875,-428.225,9.8
841,887772,2.670092,-0.662948,-2.9707,195.475,-436.8875,29.1025
842,887870,3.4072160000000005,-0.44066400000000006,-2.33508,193.9525,-445.375,58.4325
843,887968,3.612664,-0.22252800000000003,-1.3468799999999999,204.365,-440.79,105.4375
844,888066,3.9969639999999997,-0.114192,-0.51484,205.2225,-399.175,137.0425
845,888164,4.1850879999999995,-0.034892,0.24278000000000002,162.12,-329.1575,145.1625
846,888262,4.272684,0.496784,1.003572,101.57,-253.505,146.44
847,888360,4.310992,0.8720559999999999,1.5616,56.7875,-182.1925,138.3725
848,888458,4.5996440000000005,1.797304,1.3825040000000002,7.3675,-108.85,97.07251
849,888556,4.503996,1.892464,1.530124,4.2875,-51.59,28.6475
850,888654,3.713192,1.5555,1.470344,12.915,-0.8400001,-48.2825
851,888752,3.169804,1.119716,0.693448,12.215,61.1625,-99.9425
852,888850,1.463268,-2.4339,0.6944241,22.8025,91.0525,-108.4825
853,888948,-3.0988,-0.44237200000000004,-2.8491880000000003,-205.205,212.555,-111.965
854,889046,-0.9235399999999999,-0.008540001,1.96908,-299.565,422.8175,-201.11
855,889144,4.814364,1.9773759999999998,0.22204000000000002,-198.0475,543.6025,21.6825
856,889243,1.973228,1.354444,-3.860812,128.5375,459.0425,191.765
857,889341,2.323368,4.76532,-3.927912,-25.9175,390.2325,69.1775
858,889439,2.695712,1.5664799999999999,-3.5582519999999995,-24.395,300.79,-51.065
859,889537,1.9727400000000002,-2.036912,-2.026664,115.71,197.8725,-54.005
860,889635,1.026508,-1.477176,-1.178032,17.0975,160.65,-25.9175
861,889733,0.45725600000000005,0.28181999999999996,-1.8343919999999998,-49.2625,152.74,12.18
862,889831,0.8425321,0.343796,-1.582584,-74.0075,122.2375,13.79
863,889929,1.079212,-1.8473240000000002,-1.739232,-29.54,87.6575,-12.0925
864,890027,1.346148,0.183,-1.699704,-117.8975,64.645,4.095
865,890125,0.43602799999999997,0.61488,-1.348588,-93.59,13.9475,-1.7325
866,890223,0.395768,-0.326228,-1.047736,-24.9375,-9.9225,2.2575
867,890321,0.381372,-0.072712,-1.041148,-33.285,-6.9825,1.3125
868,890419,0.353312,-0.046116000000000004,-1.037244,-29.9075,-8.4,-1.8725
869,890517,0.25058800000000003,-0.005368,-1.02968,-21.6475,-6.9825,-1.225
870,890615,0.233752,-0.017568,-0.99308,-15.155,-3.36,0.2625
871,890713,0.270352,-0.079056,-0.9564799999999999,-9.6425,-1.5225,-0.07
872,890811,0.2928,-0.028548,-0.953308,-9.1175,-0.7875,-0.525
873,890909,0.271572,0.000976,-0.949892,-7.245,-0.245,0.28
874,891007,0.25376,0.032695999999999996,-0.9974719999999999,-3.3425,0.35,1.925
875,891105,0.26766799999999996,-0.048312,-1.0023520000000001,4.375,2.2925,1.4525
876,891203,0.302804,-0.034404000000000004,-0.957944,10.6925,5.4425,-1.19
877,891301,0.326228,-0.0366,-0.9489161,13.055,6.5625,-2.765
878,891399,0.330376,-0.118096,-0.906216,15.2775,5.775,-2.8175
879,891497,0.278648,-0.042944,-0.9433041,11.34,5.6,-2.5725
880,891595,0.280844,-0.050263999999999996,-0.9232961,9.1,6.79,-2.835
881,891693,0.248392,-0.07881200000000001,-0.886452,8.5925,6.8425,-3.9025
882,891791,0.2501,-0.14884,-0.8596120999999999,8.8025,6.9475,-6.9125
883,891889,0.274256,-0.16689600000000002,-0.8178880999999999,5.3025,7.2975,-10.6575
884,891988,0.30353600000000003,-0.177144,-0.826672,-0.315,5.915,-14.7875
885,892086,0.343552,-0.118828,-0.8586360000000001,-7.3325,3.745,-17.7975
886,892184,0.35258,-0.07002799999999999,-0.8796200000000001,-10.815,0.4375,-18.9175
887,892282,0.307684,-0.030012,-0.9006040999999999,-13.3175,-2.9225,-18.2
888,892380,0.285724,-0.043188,-0.94916,-15.855,-3.36,-17.8325
889,892478,0.309636,-0.06490399999999999,-0.951356,-16.135,-2.38,-19.565
890,892576,0.30988000000000004,-0.03538,-0.9479401,-12.88,-2.765,-22.925
891,892674,0.271572,0.022203999999999998,-0.966484,-9.975,-3.9375,-25.97
892,892772,0.33428,-0.072712,-0.9247601000000001,-5.565,-5.8625,-27.7725
893,892870,0.309636,0.00366,-0.983564,-8.75,-7.21,-27.545
894,892968,0.284748,0.000488,-0.9918600000000001,-6.6325,-7.5075,-27.265
895,893066,0.240096,0.022936,-1.018944,-9.03,-5.4775,-26.635
896,893164,0.2318,0.010492,-1.02724,-9.6075,-1.1025,-26.845
897,893262,0.26718000000000003,-0.021472,-1.0140639999999999,-13.93,6.65,-26.5475
898,893360,0.223504,-0.00122,-1.033584,-20.86,19.9325,-24.5875
899,893458,0.194956,0.044896,-1.034804,-26.285,35.98,-22.05
900,893556,0.1281,0.038064,-1.029192,-29.5925,52.99,-19.1975
901,893654,0.039528,0.062220000000000004,-1.084824,-35.945,75.8975,-12.04
902,893752,0.101504,-0.03172,-1.077748,-30.7125,101.535,-5.005
903,893850,0.114436,-0.012444,-1.105808,-28.91,134.0675,-0.805
904,893948,-0.141764,-0.092964,-1.1777879999999998,-28.8225,170.835,-4.2
905,894046,-0.326472,-0.160308,-1.3449280000000001,-23.59,216.4225,-10.0275
906,894144,-0.2501,-0.205936,-1.399096,-32.8475,266.77,-20.1775
907,894242,0.01708,-0.148108,-1.42374,-20.9125,308.28,-38.57
908,894340,0.5675439999999999,0.233264,-1.847568,-15.8375,362.635,-55.4575
909,894438,0.6021920000000001,0.190808,-2.4273119999999997,52.3775,450.0825,-68.72251
910,894537,1.335412,-0.002684,-1.889536,74.8475,543.655,-76.4225
911,894635,0.9540401,0.44237200000000004,-3.121004,79.6775,572.915,-67.6025
912,894733,2.023736,-0.15420799999999998,-1.6784759999999999,63.56,573.405,-52.6925
913,894831,1.140944,-0.27328,-3.264964,37.9225,573.405,-47.8625
914,894929,-0.14493599999999998,0.496296,-4.272196,-16.485,573.405,-70.63
915,895027,1.069208,2.0215400000000003,-4.968328,11.62,563.15,-128.135
916,895125,0.658556,-0.15128,-6.122204,120.295,352.0825,-205.5025
917,895223,0.45335200000000003,-1.280024,-4.74946,178.92,69.8425,-188.0375
918,895321,-0.323788,-1.621868,-3.008276,134.4,-116.1125,-158.83
919,895419,-0.6141479999999999,-1.544276,-1.9534639999999999,-19.075,-185.2375,-158.1825
920,895517,-0.834968,-1.1392360000000001,-1.39202,-139.3,-216.16,-148.5225
921,895615,-0.741028,-0.6695361,-1.310768,-186.165,-230.7025,-126.84
922,895713,-0.554124,-0.515084,-1.2395200000000002,-155.47,-240.3625,-101.465
923,895811,-0.44944799999999996,-0.564372,-1.111908,-89.4775,-251.3525,-72.7125
924,895909,-0.313052,-0.682712,-0.9947881,-24.71,-264.145,-41.1425
925,896007,-0.157868,-0.7998321,-0.9455,21.4375,-273.385,-10.535
926,896105,0.03782,-0.7829961,-0.981612,41.4225,-279.3175,18.0075
927,896203,0.203008,-0.7088201,-1.099952,49.1925,-288.75,44.6075
928,896301,0.408456,-0.5565640000000001,-1.229272,50.05,-302.54,66.885
929,896399,0.549244,-0.4026,-1.297104,47.04,-320.075,81.95251
930,896497,0.665876,-0.23668000000000003,-1.355176,43.155,-341.005,89.0225
931,896595,0.71248,-0.023180000000000003,-1.370792,38.99,-359.9925,87.255
932,896693,0.7951961,0.17934,-1.40788,36.9775,-375.9525,75.4075
933,896791,0.8801081000000001,0.305732,-1.518168,40.215,-389.2525,52.92
934,896889,0.990884,0.303048,-1.62382,50.9775,-401.905,26.32
935,896987,1.0919,0.22448,-1.6967759999999998,68.72251,-414.54,4.095
936,897085,1.2012120000000002,0.084912,-1.7687560000000002,91.7175,-423.5,-9.275
937,897183,1.304424,-0.049288,-1.867576,111.3875,-428.96,-14.595
938,897281,1.412272,-0.186904,-2.0403279999999997,127.8375,-431.8825,-12.3375
939,897379,1.575264,-0.31354,-2.313364,141.2775,-432.2325,-3.5
940,897477,1.8451279999999999,-0.45579200000000003,-2.577616,153.7725,-431.4975,11.6025
941,897575,2.138416,-0.584136,-2.6959560000000002,164.7275,-432.915,32.62
942,897673,2.4512240000000003,-0.640256,-2.634712,171.5525,-430.745,54.88
943,897771,2.858704,-0.562664,-2.48026,179.9875,-418.25,73.4825
944,897869,3.482368,0.013908000000000002,-1.9114959999999999,200.0775,-399.1575,92.8025
945,897967,3.595828,0.285968,-1.2014559999999999,242.1125,-376.285,128.8
946,898065,3.8464160000000005,0.193492,-0.463844,267.75,-332.745,148.3475
947,898163,3.805424,0.557052,0.451888,236.2325,-275.73,163.0825
948,898262,3.89424,0.406748,1.3954360000000001,205.1,-210.6475,183.47
949,898360,4.2761,1.39568,1.2378120000000001,84.805,-142.3625,139.6675
950,898458,4.383704,1.760948,1.192428,24.185,-99.7675,66.6925
951,898556,3.8168919999999997,1.257088,1.4213,27.4925,-61.9325,-7.4725
952,898654,3.1778560000000002,0.8486319999999999,1.0016200000000002,20.44,-7.28,-71.89
953,898752,2.659112,0.437004,0.25351599999999996,13.8425,46.725,-101.675
954,898850,1.87392,-0.09784401,-0.5675439999999999,-5.39,75.7575,-106.575
955,898948,-3.3730559999999996,-2.528816,2.5644400000000003,-25.9175,88.04251,-79.7125
956,899046,-1.7028759999999998,0.9764879999999999,-1.480104,-358.6625,265.685,-84.63
957,899144,0.270596,0.48556000000000005,1.526464,-256.305,382.6375,-119.98
958,899242,3.10734,1.8004759999999997,-0.36941599999999997,-149.625,459.165,32.5675
959,899340,1.2968600000000001,1.084336,-2.3907119999999997,110.25,399.455,136.815
960,899438,2.158424,4.302208,-3.6116879999999996,-24.9725,368.69,67.9525
961,899536,1.8317080000000001,1.9351639999999999,-3.19884,-58.24,287.245,-54.25
962,899634,1.7970599999999999,-1.164856,-2.160132,75.4075,212.1875,-73.4475
963,899732,1.423252,-2.185264,-1.390556,63.315,188.3,-49.945
964,899830,0.81618,0.15128,-1.62382,-33.565,172.2,-8.9425
965,899928,1.6328479999999999,-0.560956,-2.685952,-61.88,135.9575,3.605
966,900026,1.176812,-0.9852719999999999,-1.4156879999999998,-104.3,79.1,-5.39
967,900124,0.367708,0.6124400999999999,-1.431548,-113.2075,43.5575,-13.7025
968,900222,0.77836,-0.06954,-1.401292,-83.37001,32.6725,-18.375
969,900320,0.410408,-0.077592,-1.1411879999999999,-52.5525,11.445,-14.525
970,900418,0.468236,-0.067832,-1.1468,-50.7675,4.9875,-6.3525
971,900516,0.36282800000000004,-0.13761600000000002,-1.019432,-35.0525,-2.2575,-6.405
972,900614,0.306708,-0.022692,-1.02114,-34.1425,-4.935,-5.1625
973,900712,0.307684,-0.068564,-0.9691681000000001,-27.615,-5.5125,-6.09
974,900811,0.28767600000000004,-0.040016,-0.964532,-24.3775,-6.195,-6.4925
975,900909,0.33794,-0.023424,-0.954284,-22.5925,-5.8625,-6.2825
976,901007,0.28328400000000004,-0.005612,-0.9362280000000001,-18.865,-7.0175,-4.9
977,901105,0.229848,0.006344,-0.9450120000000001,-17.185,-7.7525,-4.1475
978,901203,0.25302800000000003,-0.035136,-0.9252481,-14.35,-6.405,-5.04
979,901301,0.303292,-0.0122,-0.9284200999999999,-13.0725,-3.71,-6.3875
980,901399,0.29524,-0.0427,-0.9291520000000001,-8.995,-2.17,-7.84
981,901497,0.2867,-0.0366,-0.9476959999999999,-7.28,-0.385,-7.7175
982,901595,0.28914,-0.065148,-0.9435479999999999,-5.53,1.6275,-7.175
983,901693,0.27084,-0.035136,-0.950868,-4.27,3.815,-6.9475
984,901791,0.2684,-0.053924,-0.951844,-2.4325,6.9125,-6.8775
985,901889,0.279624,-0.05929201,-0.9403761,-0.8575,9.7825,-7.945
986,901987,0.313296,-0.081984,-0.9167081,0.5425,11.83,-10.325
987,902085,0.332572,-0.083936,-0.916952,1.82,12.4425,-14.14
988,902183,0.32452,-0.030012,-0.9262239999999999,2.695,12.285,-17.57
989,902281,0.30134,0.009028000999999999,-0.9137799999999999,3.7625,11.62,-19.1275
990,902379,0.33428,0.042456,-0.909632,4.69,11.165,-18.1125
991,902477,0.35282399999999997,-0.012444,-0.9076799999999999,6.2825,8.4525,-16.0825
992,902575,0.332328,-0.0549,-0.9115840000000001,5.81,3.9725,-15.3125
993,902673,0.329888,-0.026595999999999998,-0.921832,3.1325,0.5775,-16.695
994,902771,0.344528,0.020496,-0.9325680000000001,1.4,-1.9775,-18.025
995,902869,0.31402800000000003,-0.023180000000000003,-0.9386681,2.625,-3.7625,-17.7275
996,902967,0.2867,-0.049288,-0.959408,3.0625,-3.5875,-18.655
997,903065,0.300852,-0.004392,-0.9720960999999999,-0.0175,-1.3125,-21.63
998,903163,0.2196,-0.016104,-1.0018639999999999,-2.0825,1.5575,-23.1875
999,903261,0.255956,-0.036112,-1.004548,-5.25,6.825,-24.955
1000,903359,0.183488,-0.017568,-1.003084,-12.1975,15.4,-27.65
1001,903457,0.265228,0.008052001,-1.02114,-20.895,25.69,-31.1325
1002,903556,0.07832401,0.020252000000000003,-1.048956,-26.1975,41.7725,-28.35
1003,903654,0.111752,-0.011468,-1.026752,-30.345,60.1475,-24.605
1004,903752,0.16348,-0.038064,-1.047736,-39.6025,85.55751,-21.91
1005,903850,0.22033200000000003,-0.031476,-1.056764,-42.0875,116.3225,-19.9325
1006,903948,-0.09735601,-0.033184,-1.086776,-47.215,151.3225,-20.3175
1007,904046,0.13298,0.00244,-1.250744,-49.1575,191.625,-20.1775
1008,904144,-0.24034,-0.14005599999999999,-1.420324,-47.9325,238.9275,-24.465
1009,904242,-0.07002799999999999,-0.13298,-1.230004,-36.75,276.5,-37.6425
1010,904340,-0.088328,0.095648,-1.9010040000000001,-27.475,317.5375,-54.5825
1011,904438,0.6470880999999999,0.044407999999999996,-2.077904,23.52,379.1025,-74.9525
1012,904536,1.154852,0.093696,-1.77266,35.735,475.93,-92.69751
1013,904634,0.682956,0.54778,-2.668384,42.7175,563.1675,-87.395
1014,904732,1.031144,-0.017812,-2.240164,30.9925,573.405,-80.465
1015,904830,1.55062,-0.14274,-3.3191319999999997,34.4925,573.405,-84.4375
1016,904928,0.954528,-0.263764,-4.25536,17.325,573.405,-89.1275
1017,905026,-0.6771,1.42374,-3.5558120000000004,-16.6775,573.405,-110.1625
1018,905124,1.8463479999999999,0.483364,-6.363519999999999,23.2925,467.6525,-192.8325
1019,905222,0.6944241,-0.6790520999999999,-5.492196,182.84,147.84,-204.9075
1020,905320,-0.174216,-1.6348,-2.956548,172.8125,-59.115,-164.15
1021,905418,-0.567788,-1.700436,-1.984696,51.1,-146.4575,-141.0675
1022,905516,-0.7285841,-1.3668879999999999,-1.431548,-66.815,-174.44,-126.665
1023,905614,-0.7415161,-0.8361879999999999,-1.339072,-131.215,-191.135,-96.0575
1024,905712,-0.587796,-0.5553441,-1.31272,-116.8125,-208.18,-62.3
1025,905810,-0.485804,-0.50752,-1.206336,-58.8875,-226.03,-31.2025
1026,905908,-0.370636,-0.5206960999999999,-1.136064,5.2675,-242.9875,-2.6775
1027,906006,-0.20496,-0.5751081,-1.0723799999999999,56.245,-257.775,23.24
1028,906104,-0.018544,-0.618052,-1.063108,85.68,-271.9675,46.27
1029,906202,0.133224,-0.5919439999999999,-1.06384,93.205,-287.4025,66.395
1030,906300,0.300608,-0.5502199999999999,-1.066768,83.7025,-305.1475,85.0325
1031,906398,0.461404,-0.44212799999999997,-1.1407,63.1575,-319.655,97.6325
1032,906496,0.612684,-0.2745,-1.2219520000000001,43.12,-332.9025,103.4775
1033,906594,0.6771,-0.09711201,-1.262944,31.185,-348.4075,105.9625
1034,906692,0.734196,0.049044,-1.31516,30.38,-363.16,102.4275
1035,906790,0.801296,0.156404,-1.351516,36.6975,-374.605,93.5725
1036,906889,0.8359440999999999,0.182024,-1.380796,46.2,-384.8775,80.9375
1037,906987,0.871568,0.15274400000000002,-1.413492,54.39,-393.0325,66.78
1038,907085,0.915732,0.101504,-1.510848,63.0,-397.88,54.7225
1039,907183,1.023824,0.04392,-1.671644,73.465,-399.7875,46.9
1040,907281,1.0723799999999999,0.044896,-1.825364,85.6625,-402.29,44.9225
1041,907379,1.134844,0.046848,-1.968104,98.525,-405.0375,45.99
1042,907477,1.2014559999999999,0.042212,-2.1716,108.815,-406.42,46.515
1043,907575,1.273192,0.044407999999999996,-2.382904,115.4125,-405.5625,46.48
1044,907673,1.4457,-0.014396,-2.662528,121.17,-400.9075,43.365
1045,907771,1.9010040000000001,-0.192272,-2.9402,132.6325,-393.2425,36.925
1046,907869,2.530768,-0.358192,-2.9951,150.4825,-390.845,33.8625
1047,907967,3.31474,0.35746,-2.3846119999999997,170.7825,-395.115,46.4625
1048,908065,3.353536,-0.24497600000000003,-1.342976,219.8,-392.595,79.87
1049,908163,3.746864,-0.08906,-0.575596,195.44,-355.4425,84.385
1050,908261,3.86374,0.318176,0.5724239999999999,152.0225,-300.3525,99.54
1051,908359,4.17362,0.8166680000000001,1.49938,116.7075,-233.8875,108.535
1052,908457,4.469592,1.550132,1.687748,49.3675,-161.0525,66.64
1053,908555,4.6116,1.584292,1.6982400000000002,44.73,-102.4975,11.4975
1054,908653,4.152880000000001,0.8866961,1.7036080000000002,49.175,-47.0925,-36.12
1055,908751,3.475048,0.571448,1.084336,11.235,13.3175,-75.635
1056,908849,2.7886759999999997,0.369172,0.199104,-23.8,66.85,-88.6025
1057,908947,2.267736,-1.432768,-0.440176,-37.9575,89.775,-79.905
1058,909046,-3.521408,-1.19438,-1.543788,-144.34,169.8725,-63.2275
1059,909144,-2.83528,0.5787680000000001,1.081164,-316.05,367.605,-169.785
1060,909242,4.641856,1.7641200000000001,1.42374,-257.7575,515.76,-82.1275
1061,909340,1.133624,0.604388,-2.553216,40.32,428.575,108.3075
1062,909438,2.412672,3.4245400000000004,-3.677568,102.8125,402.92,96.6
1063,909536,2.5983560000000003,3.1534560000000003,-4.214368,-143.2025,339.29,-54.74
1064,909634,1.845616,-1.2280520000000001,-2.3982759999999996,105.1575,221.62,-54.11
1065,909732,1.208288,-1.702388,-1.307108,23.205,190.12,-40.915
1066,909830,0.570472,-0.004636001,-1.36884,-20.4925,176.82,-18.935
1067,909928,2.218692,-0.60024,-3.3964800000000004,-59.5,145.005,5.3725
1068,910026,1.036024,-0.49532,-1.25294,-111.8425,68.18,6.3
1069,910124,-0.012931999999999999,0.40211199999999997,-1.1094680000000001,-92.5925,27.615,-8.015
1070,910222,1.015284,-0.192272,-1.699948,-73.7275,35.1225,-14.8925
1071,910320,0.44676400000000005,0.142984,-1.070916,-50.715,6.2125,-8.575
1072,910418,0.370392,-0.07027201,-1.0828719999999998,-32.9525,-10.115,0.56
1073,910516,0.364292,-0.209596,-0.9818561,-22.4175,-12.215,-3.1325
1074,910614,0.310856,-0.019032,-1.011136,-27.9825,-12.11,-2.7475
1075,910711,0.274744,-0.061,-0.969412,-19.075,-12.215,-3.1325
1076,910809,0.259372,-0.040992,-1.00528,-15.2075,-10.5875,-3.465
1077,910907,0.295484,-0.057339999999999995,-0.9669721,-9.87,-7.9275,-4.2175
1078,911005,0.30134,-0.068076,-0.9298841,-6.405,-6.9825,-4.4975
1079,911103,0.26108000000000003,-0.040260000000000004,-0.92232,-5.32,-6.86,-3.9375
1080,911201,0.24717199999999998,-0.014152000000000001,-0.91012,-6.475,-6.265,-3.92
1081,911299,0.25986,-0.05563200000000001,-0.8725440999999999,-10.08,-6.545,-4.7075
1082,911397,0.295484,-0.076616,-0.9049959999999999,-16.66,-8.715,-5.9675
1083,911495,0.287188,-0.08954801,-0.9264680000000001,-18.5325,-10.5,-7.28
1084,911593,0.273036,-0.04514,-0.9625799999999999,-19.915,-9.31,-8.3125
1085,911691,0.28181999999999996,-0.038796,-0.969412,-17.5,-7.0,-8.89
1086,911789,0.274012,-0.037332,-0.9633120999999999,-13.2475,-5.6,-9.765
1087,911887,0.260592,-0.047580000000000004,-0.951356,-8.5575,-4.9175,-11.515
1088,911985,0.263764,-0.07564,-0.930372,-5.8975,-3.255,-13.545
1089,912083,0.273036,-0.09052401,-0.9150001,-3.85,-1.7675,-16.59
1090,912182,0.274988,-0.035136,-0.9225639999999999,-5.005,0.1575,-19.53
1091,912280,0.28767600000000004,-0.038551999999999996,-0.918416,-4.69,1.575,-21.2275
1092,912378,0.30792800000000004,0.012444,-0.9337880999999999,-4.4975,2.4325,-21.63
1093,912476,0.294508,0.038796,-0.940132,-2.485,2.3625,-19.705
1094,912574,0.27523200000000003,0.02074,-0.9272,-0.105,2.4675,-17.1675
1095,912672,0.29377600000000004,-0.0051240009999999996,-0.918416,1.82,3.8675,-14.5425
1096,912770,0.323544,-0.014152000000000001,-0.9240280000000001,3.815,3.675,-13.7025
1097,912868,0.28694400000000003,-0.074664,-0.9340321,7.105,2.6075,-14.6825
1098,912966,0.288408,-0.034892,-0.9525761,5.74,2.415,-17.6925
1099,913064,0.309636,-0.01464,-0.954284,5.53,2.73,-19.1275
1100,913162,0.26913200000000004,-0.02196,-0.9774639999999999,5.285,2.275,-19.74
1101,913260,0.19983599999999999,-0.008784,-1.0126,2.625,1.3475,-21.0875
1102,913358,0.198372,-0.009028000999999999,-1.042856,-1.645,5.74,-20.7725
1103,913456,0.19885999999999998,-0.042212,-1.042856,-3.6925,13.5275,-21.7875
1104,913554,0.25132,-0.001952,-1.0499319999999999,-12.565,26.075,-25.0425
1105,913652,0.24156,-0.022448,-1.086044,-20.1775,47.285,-23.1525
1106,913750,-0.28377199999999997,0.020984,-1.081896,-23.8,72.31,-19.355
1107,913848,0.18666,-0.0183,-1.0382200000000001,-28.91,86.7125,-20.58
1108,913946,0.079544,0.010736,-1.1346,-32.935,118.16,-16.1
1109,914044,-0.18251199999999998,0.016347999999999998,-1.115812,-30.7125,158.1125,-12.5475
1110,914142,0.07344400000000001,-0.08466801,-1.178032,-23.0475,200.9875,-10.7275
1111,914240,-0.17568,-0.07881200000000001,-1.469856,-28.2975,253.715,-14.42
1112,914338,-0.24107199999999998,-0.12932000000000002,-1.39812,-21.455,295.47,-20.825
1113,914436,0.34477199999999997,0.09272000000000001,-1.5616,-23.8875,337.995,-29.4875
1114,914534,0.8881600000000001,0.11102000000000001,-2.10328,21.525,405.23,-46.375
1115,914632,1.482788,0.26303200000000004,-1.5786799999999999,34.9475,502.8625,-61.5125
1116,914731,0.9869800999999999,0.25986,-2.994368,45.5875,566.5275,-60.0075
1117,914829,1.7812,-0.357704,-1.91052,26.6175,573.405,-55.965
1118,914927,0.9618481,-0.552904,-3.3489,-0.21,573.405,-60.0425
1119,915025,-0.20447200000000001,-0.048312,-3.989644,-60.4975,573.3875,-75.0925
1120,915123,-0.087352,2.089372,-4.5525519999999995,-59.9025,566.965,-122.1325
1121,915221,0.325496,0.022692,-5.9292,41.2825,373.7825,-199.9725
1122,915319,0.268888,-0.945744,-5.024204,138.145,106.61,-191.205
1123,915417,-0.47994799999999993,-1.7890080000000002,-3.3140080000000003,143.9725,-78.5925,-158.8825
1124,915515,-0.8823040000000001,-1.969812,-2.096936,20.5975,-161.9275,-140.1225
1125,915613,-1.044564,-1.587708,-1.462048,-99.82,-193.48,-118.3875
1126,915711,-0.9049959999999999,-1.025288,-1.423252,-162.3125,-207.2,-87.115
1127,915809,-0.7361481,-0.686128,-1.384212,-149.0825,-222.46,-55.825
1128,915907,-0.5738880000000001,-0.5382640000000001,-1.308816,-91.6825,-239.8725,-27.16
1129,916005,-0.44090799999999997,-0.47458,-1.24196,-25.6025,-258.125,-2.5375
1130,916103,-0.244,-0.45993999999999996,-1.2117040000000001,33.1625,-273.7875,18.48
1131,916201,-0.040016,-0.456524,-1.22854,72.52,-289.2575,35.5075
1132,916299,0.109556,-0.411872,-1.293688,86.765,-306.7925,47.81
1133,916397,0.331108,-0.30402399999999996,-1.353956,81.235,-329.0,55.9125
1134,916495,0.4941,-0.142252,-1.364692,66.2375,-351.6275,58.3975
1135,916593,0.568032,0.020496,-1.3412680000000001,54.5475,-372.33,55.3875
1136,916691,0.607316,0.195932,-1.3144280000000002,48.335,-387.9225,46.55
1137,916789,0.661728,0.32452,-1.361764,50.925,-395.885,32.235
1138,916887,0.686616,0.39771999999999996,-1.485228,65.17,-397.46,16.135
1139,916985,0.783728,0.370148,-1.6714,87.64,-397.81,2.205
1140,917083,0.97478,0.23472800000000002,-1.925648,113.365,-399.4375,-7.6475
1141,917181,1.154852,0.13298,-2.139392,133.6825,-404.6525,-8.015
1142,917279,1.279292,0.067344,-2.2713959999999997,147.63,-414.2775,-1.7325
1143,917377,1.408124,0.005368,-2.4270680000000002,154.735,-424.34,5.9675
1144,917475,1.6552959999999999,-0.131272,-2.643252,163.0125,-430.395,17.2025
1145,917573,1.981524,-0.38503200000000004,-2.656428,174.6325,-435.1725,39.27
1146,917671,2.2482159999999998,-0.613904,-2.5000240000000002,176.54,-435.6275,69.965
1147,917769,2.7364599999999997,-0.17616800000000002,-2.258464,162.8725,-423.5525,99.7675
1148,917867,3.094164,0.48433999999999994,-1.9356520000000002,173.2325,-402.0975,142.1
1149,917965,3.75516,0.863028,-1.611376,209.37,-370.265,173.775
1150,918063,4.101152,0.5292359999999999,-1.01504,225.0675,-331.38,192.5525
1151,918162,4.7021239999999995,-0.20178800000000002,0.376004,179.06,-289.975,194.8625
1152,918260,4.646248,0.388692,1.88978,23.275,-243.4775,167.37
1153,918358,4.325144,1.7048279999999998,2.157936,-108.64,-172.55,111.265
1154,918456,4.4964319999999995,1.792668,1.626016,-90.37001,-82.7225,50.68
1155,918554,4.4347,1.2017,1.2561120000000001,-29.9425,-10.92,-12.6875
1156,918652,3.5319,1.0243120000000001,0.9718521000000001,-13.7025,35.4725,-67.7075
1157,918750,2.785016,0.591212,0.372344,4.2,81.9875,-90.42251
1158,918848,1.074576,-0.9469641,-0.413092,5.5475,113.89,-96.3025
1159,918946,-2.737192,-0.657092,-2.178188,-73.6925,195.9825,-101.5175
1160,919044,-2.9858279999999997,-0.60512,1.968836,-138.39,353.43,-216.0725
1161,919142,5.0122480000000005,1.322236,1.0169920000000001,-119.21,529.235,-103.18
1162,919240,1.069208,-0.580476,-2.578348,174.86,445.55,101.99
1163,919338,3.124664,3.405508,-5.189636,61.3375,415.94,30.905
1164,919436,2.772084,-0.024644,-3.393796,-21.0175,318.395,-64.155
1165,919534,1.767048,-1.242692,-2.388516,66.0275,218.2775,-31.4125
1166,919632,1.118984,0.08052000000000001,-1.8768479999999998,3.29,179.445,-11.9525
1167,919730,0.510204,-0.062952,-2.528084,22.82,149.3275,-2.24
1168,919828,1.7741240000000003,-1.2080440000000001,-1.334924,-24.0275,85.55751,19.6875
1169,919926,0.20691199999999998,-0.5673,-0.81618,-31.605,34.3175,8.9425
1170,920024,0.47360399999999997,0.458232,-1.3786,-99.6975,37.45,10.395
1171,920122,0.606096,-0.5602239999999999,-1.064816,-26.355,19.8625,-2.9225
1172,920220,0.2745,-0.040016,-1.051884,-35.91,10.1325,3.15
1173,920318,0.43798000000000004,-0.19397999999999999,-1.139968,-27.755,7.84,1.8725
1174,920416,0.30841599999999997,-0.18324400000000002,-0.949892,-13.4575,2.8,-2.5725
1175,920514,0.34111199999999997,-0.177876,-0.9652639999999999,-12.775,1.47,-5.985
1176,920612,0.388936,-0.035136,-1.037976,-10.71,1.82,-7.0875
1177,920710,0.30841599999999997,-0.05124001,-1.006744,-1.54,1.155,-4.0775
1178,920808,0.285968,-0.12932000000000002,-0.996008,5.39,0.3325,-1.4
1179,920906,0.30402399999999996,-0.163236,-0.9762440999999998,7.385,1.96,-2.485
1180,921004,0.359412,-0.088328,-1.0060120000000001,9.94,3.0975,-4.3575
1181,921102,0.355508,-0.09150001,-0.9913719999999999,16.3275,2.2925,-3.955
1182,921200,0.32866799999999996,-0.136884,-0.9608721,21.6825,1.4175,-2.205
1183,921298,0.34477199999999997,-0.10906800000000001,-0.9650200999999999,22.68,1.6975,-0.5425
1184,921396,0.33379200000000003,-0.127856,-0.9252481,23.1525,0.21,0.77
1185,921495,0.28304,-0.152256,-0.86864,20.3525,-2.03,2.205
1186,921593,0.21374400000000002,-0.17202,-0.8296,13.58,-2.59,3.08
1187,921691,0.21081599999999998,-0.197152,-0.821792,5.2675,-0.77,3.8675
1188,921789,0.191296,-0.149816,-0.871568,-1.9425,2.485,3.955
1189,921887,0.20178800000000002,-0.18178,-0.865468,-4.445,4.515,0.6475
1190,921985,0.253272,-0.207644,-0.8317960999999999,-4.83,6.09,-4.0075
1191,922083,0.254736,-0.205692,-0.8193521,-7.875,6.0375,-8.295
1192,922181,0.272548,-0.215696,-0.8252079999999999,-12.0925,4.2175,-12.7925
1193,922279,0.285236,-0.200324,-0.8142281,-18.165,2.0125,-17.045
1194,922377,0.29133600000000004,-0.167872,-0.795928,-23.345,-0.735,-20.895
1195,922475,0.285724,-0.142496,-0.8239880999999999,-29.61,-3.2375,-23.1175
1196,922573,0.264496,-0.145424,-0.802272,-33.7575,-5.005,-25.0425
1197,922671,0.418704,0.032695999999999996,-1.049688,-39.585,-7.035,-26.46
1198,922769,0.340624,-0.004148001,-0.94306,-32.1125,-14.5425,-27.1075
1199,922867,0.30792800000000004,-0.018056,-0.94306,-23.4325,-18.445,-26.9675
1200,922965,0.29572800000000005,-0.030256,-0.964776,-19.4775,-19.1625,-25.8125
1201,923063,0.267424,-0.10809200000000001,-0.9250040999999999,-10.255,-20.37,-24.8675
1202,923161,0.257176,-0.14493599999999998,-0.9655081,-17.22,-17.2725,-21.1575
1203,923259,0.24644000000000002,-0.15982000000000002,-0.984784,-27.545,-9.3625,-18.5325
1204,923357,0.274744,-0.13761600000000002,-1.010404,-31.3775,-1.75,-20.2125
1205,923455,0.270108,-0.111996,-0.998448,-32.1825,2.3625,-23.275
1206,923553,0.221552,-0.090036,-1.0121120000000001,-30.975,5.9675,-27.475
1207,923651,0.142252,-0.121512,-1.013332,-33.1975,12.67,-31.1675
1208,923749,0.15616,-0.02684,-1.1131280000000001,-32.76,22.2775,-30.485
1209,923847,0.259372,-0.094916,-1.072624,-31.5525,35.2275,-32.6725
1210,923945,0.311344,-0.025131999999999998,-1.0882399999999999,-35.5075,56.35,-35.6125
1211,924044,-0.03416,0.004148001,-1.145092,-35.3325,83.7725,-36.89
1212,924142,-0.163968,0.004392,-1.15046,-41.3875,114.1,-37.8
1213,924240,0.233752,-0.020008,-1.16388,-48.51,150.325,-29.925
1214,924338,-0.132004,-0.05856,-1.185352,-51.59,198.0125,-23.0475
1215,924436,-0.16592,-0.035868000000000004,-1.1712,-51.8175,248.885,-23.695
1216,924534,-0.6156119999999999,-0.156892,-1.396412,-45.885,296.66,-30.0825
1217,924632,-0.002928,-0.045872,-1.49328,-28.5775,327.3025,-41.335
1218,924730,0.5785241,0.181536,-1.985428,-21.665,367.745,-56.6125
1219,924828,1.513776,0.0244,-2.348256,60.34,452.025,-71.4
1220,924926,1.16266,0.45628,-2.237968,67.515,553.805,-78.715
1221,925024,0.613904,-0.30841599999999997,-3.21592,17.955,573.405,-83.195
1222,925122,1.095072,-0.294996,-3.629744,3.815,573.405,-79.275
1223,925220,0.7993439999999999,-0.368196,-3.811036,-18.48,573.405,-79.6075
1224,925318,-0.46457600000000004,0.9557479999999999,-3.551664,-29.015,573.405,-103.25
1225,925416,3.653656,0.820572,-6.524316000000001,-20.3875,502.4425,-181.09
1226,925514,1.018944,-0.677588,-6.046564,120.9775,157.08,-217.175
1227,925612,0.003904,-1.69702,-3.5314120000000004,127.82,-88.9875,-177.7825
1228,925710,-0.429684,-1.612596,-1.6806720000000002,42.3675,-210.9975,-144.2525
1229,925808,-0.8105680000000001,-1.609424,-0.854244,-71.68,-222.4775,-136.465
1230,925906,-0.680516,-1.229516,-0.8954801,-162.2425,-207.6375,-110.53
1231,926005,-0.4636,-0.954528,-1.087752,-183.19,-204.155,-77.54251
1232,926103,-0.32452,-0.8632719999999999,-1.091412,-149.66,-216.0025,-40.18
1233,926201,-0.2806,-0.8261841000000001,-0.9630681000000001,-99.68,-234.64,-2.3275
1234,926299,-0.24278000000000002,-0.8188641,-0.797148,-54.075,-250.4075,32.27
1235,926397,-0.151036,-0.7666480999999999,-0.732244,-24.395,-257.81,61.1625
1236,926495,-0.010248,-0.6453800000000001,-0.815692,-9.38,-260.855,83.3525
1237,926593,0.13542,-0.502152,-0.9286639999999999,0.665,-266.2625,98.595
1238,926691,0.2501,-0.349408,-1.067012,9.065,-277.1125,108.6925
1239,926789,0.385276,-0.19154000000000002,-1.155828,15.6275,-292.1975,112.6825
1240,926887,0.49044,-0.07442,-1.232688,18.9175,-311.6575,110.635
1241,926985,0.58682,0.03782,-1.3066200000000001,18.7425,-331.3625,101.6575
1242,927083,0.677344,0.126392,-1.385432,18.235,-351.3475,87.1325
1243,927181,0.7700640999999999,0.160796,-1.438624,20.3,-370.5625,69.0725
1244,927279,0.874984,0.09150001,-1.513044,25.935,-387.38,51.485
1245,927377,0.9833200000000001,0.024888,-1.630164,35.035,-401.2925,39.025
1246,927475,1.0911680000000001,-0.029768,-1.70312,47.9675,-412.9475,33.6175
1247,927573,1.155096,-0.062952,-1.767048,59.78,-424.1125,31.815
1248,927671,1.243668,-0.036356,-1.9114959999999999,72.38,-430.325,32.34
1249,927769,1.387628,-0.064172,-2.123776,87.29,-432.0225,33.8625
1250,927867,1.589904,-0.13151600000000002,-2.4087680000000002,103.425,-434.35,35.4725
1251,927965,1.8992959999999999,-0.341356,-2.662528,122.36,-437.955,42.42
1252,928063,2.3119,-0.61854,-2.794044,140.245,-442.9425,56.5775
1253,928161,2.7284080000000004,-0.807396,-2.748904,146.2125,-445.55,75.775
1254,928260,3.2805800000000005,-0.482388,-2.243336,143.92,-443.0125,95.305
1255,928358,3.235684,0.6722199999999999,-1.41032,153.335,-432.1625,127.54
1256,928456,3.4240519999999997,0.951356,-0.48702399999999996,205.2225,-385.035,145.8975
1257,928554,3.823968,0.899384,0.279624,206.955,-305.515,140.315
1258,928652,4.2321800000000005,0.42187600000000003,1.271484,165.515,-231.6125,127.05
1259,928750,4.44568,1.635532,1.631384,7.21,-166.075,55.1775
1260,928848,4.3444199999999995,2.112308,1.6601759999999999,-40.25,-114.625,-34.5975
1261,928946,4.035516,1.075308,1.6796959999999999,21.0875,-50.855,-106.05
1262,929044,3.367688,0.30012,1.175348,37.73,14.21,-159.1975
1263,929142,2.680584,-0.24156,0.263764,23.87,69.0375,-176.89
1264,929240,1.731668,-1.7768080000000002,-0.671732,13.0375,92.96,-153.16
1265,929338,-4.3224599999999995,-3.039996,-0.9864921,-28.525,124.565,-99.82
1266,929436,-3.723928,-0.7324881,1.18828,-248.7625,321.79,-148.365
1267,929534,3.923032,0.5919439999999999,2.079612,-192.045,502.635,-125.2125
1268,929632,2.711816,0.9372040999999999,-2.512468,-89.005,473.515,63.5425
1269,929730,1.092388,0.883524,-2.9502040000000003,203.8225,363.58,99.015
1270,929828,2.080588,3.6580480000000004,-3.394772,-156.555,357.945,-10.745
1271,929926,2.1840439999999997,0.476288,-3.213724,43.47,280.0525,-43.6625
1272,930024,1.7619240000000003,-1.0462719999999999,-2.161596,56.7875,221.83,-37.9225
1273,930122,1.2456200000000002,-0.48116800000000004,-1.785348,28.7,181.335,-21.6125
1274,930220,0.72102,-0.351848,-2.531256,15.9775,151.48,-6.37
1275,930318,1.659932,-1.139724,-1.18706,-32.7775,87.1325,19.565
1276,930416,0.190808,-0.142008,-1.082384,-83.685,42.91,5.5125
1277,930514,0.4392,0.40748,-1.248304,-105.7875,40.3375,7.035
1278,930612,0.849852,-0.48995200000000005,-1.393484,-39.235,26.8975,-7.175
1279,930710,0.32256799999999997,0.049044,-1.0208959999999998,-53.5675,7.9975,1.3125
1280,930808,0.354532,-0.233996,-1.009428,-32.27,-2.065,1.05
1281,930906,0.397476,-0.162992,-0.9767321,-31.4475,-2.6775,-3.955
1282,931004,0.370392,0.054412,-1.059692,-30.0125,-5.32,-5.7575
1283,931102,0.28328400000000004,0.012444,-1.049688,-16.1875,-6.72,-2.5725
1284,931201,0.268156,-0.06124401,-0.9911281,-6.44,-3.9025,-1.225
1285,931299,0.339892,-0.05929201,-0.9686799999999999,-1.82,0.7,-2.135
1286,931397,0.329644,-0.06539201,-0.9833200000000001,2.5025,3.5525,-1.47
1287,931495,0.27938,-0.116876,-0.93696,6.2125,2.9225,-0.8225
1288,931593,0.27205999999999997,-0.0976,-0.9535521,6.23,4.0425,-1.575
1289,931691,0.312808,-0.081252,-0.9381801,4.8825,6.4225,-2.6425
1290,931789,0.321836,-0.05563200000000001,-0.9323239999999999,4.62,6.86,-2.0475
1291,931887,0.31842,-0.096624,-0.918416,4.4625,6.3875,-0.42
1292,931985,0.30866,-0.089304,-0.919392,2.835,6.02,0.245
1293,932083,0.31012399999999996,-0.084912,-0.9137799999999999,0.2625,5.985,0.5075
1294,932181,0.30036399999999996,-0.111508,-0.8976761000000001,-0.5425,5.3725,0.6475
1295,932279,0.27571999999999997,-0.08003201,-0.9269561,-2.1175,4.62,-0.595
1296,932377,0.30866,-0.145424,-0.8786440999999999,-0.455,3.71,-2.975
1297,932475,0.31158800000000003,-0.14713199999999999,-0.8647360000000001,-3.99,2.5725,-5.88
1298,932573,0.320616,-0.174704,-0.8378960999999999,-6.58,-0.5425,-9.5025
1299,932671,0.330864,-0.1525,-0.8357,-10.675,-6.4575,-13.44
1300,932769,0.349408,-0.146644,-0.8230120999999999,-16.9575,-13.2475,-16.905
1301,932867,0.321104,-0.113704,-0.8461921,-25.8125,-20.1075,-19.2325
1302,932965,0.312808,-0.129076,-0.8488761,-34.9125,-24.9025,-20.9475
1303,933063,0.288408,-0.189588,-0.853756,-45.1325,-27.685,-23.1175
1304,933161,0.317688,0.09052401,-1.060424,-52.325,-26.355,-27.2475
1305,933259,0.292312,-0.10931199999999999,-0.9235399999999999,-32.13,-25.4275,-31.01
1306,933357,0.311832,-0.027083999999999997,-0.9845401,-30.905,-24.3075,-35.0875
1307,933455,0.32866799999999996,-0.000488,-0.9969841,-25.1825,-21.7,-40.46
1308,933553,0.30353600000000003,0.030256,-0.9962521000000001,-20.1075,-18.2875,-41.895
1309,933651,0.2684,0.079056,-1.0060120000000001,-15.2425,-15.1725,-38.9375
1310,933749,0.262544,0.041724000000000004,-0.984784,-11.76,-11.76,-32.165
1311,933847,0.275476,0.025863999999999998,-0.9764879999999999,-9.6775,-8.155,-25.375
1312,933945,0.25790799999999997,-0.00244,-0.9745360000000001,-6.5975,-5.425,-21.735
1313,934043,0.24351199999999998,-0.010492,-0.9828321,-5.145,-2.87,-20.4575
1314,934141,0.196664,-0.030012,-0.9918600000000001,-5.1275,0.6475,-21.6125
1315,934239,0.151524,-0.017568,-1.02724,-7.315,7.21,-25.235
1316,934337,0.27084,-0.031232,-1.0025959999999998,-8.82,17.5875,-28.805
1317,934435,0.07832401,-0.00488,-1.025288,-14.385,33.4075,-29.89
1318,934533,0.21472,-0.02684,-1.052616,-19.1275,50.6975,-33.39
1319,934631,0.068076,-0.053436000000000004,-1.109224,-27.09,78.5225,-32.5675
1320,934729,0.072712,-0.07490801,-1.125084,-35.0,113.47,-31.0625
1321,934827,-0.247416,-0.08369201,-1.1346,-44.0125,151.1825,-33.7575
1322,934925,0.288896,-0.07612801,-1.251476,-49.1575,190.645,-39.095
1323,935024,-0.160796,-0.131272,-1.305156,-61.1975,243.67,-43.47
1324,935122,-0.28304,-0.081252,-1.480348,-55.0375,283.3075,-55.5975
1325,935220,0.08564401,0.236192,-2.086688,-18.69,319.7775,-74.7075
1326,935318,1.2383,0.30475599999999997,-1.7694880000000002,55.9475,394.9225,-99.26001
1327,935416,0.748592,-0.292556,-2.935564,73.15,495.425,-117.81
1328,935514,0.734684,-0.323788,-2.698152,49.21,534.7125,-124.0925
1329,935612,1.35664,-0.62952,-3.257644,21.7175,550.3575,-127.7325
1330,935710,0.5690081,-0.707356,-2.89872,-19.355,573.2475,-124.3375
1331,935808,-0.623664,-0.07173600000000001,-2.399496,-57.0325,571.6725,-132.1075
1332,935906,1.2021879999999998,-0.1037,-5.1147279999999995,-68.005,425.9325,-167.335
1333,936004,0.183976,-1.3412680000000001,-3.8564199999999995,44.905,131.635,-155.295
1334,936102,-0.813496,-1.980304,-1.695556,19.88,3.22,-98.1225
1335,936200,-0.8405800999999999,-1.952732,-0.9977159999999999,-17.22,-30.765,-38.2725
1336,936298,-0.6202479999999999,-1.447164,-1.20414,-74.305,-22.19,23.975
1337,936396,-0.545096,-0.856684,-1.399828,-95.7075,-43.715,76.755
1338,936494,-0.6280560000000001,-0.42212,-1.214388,-78.6625,-85.33,114.38
1339,936592,-0.7044279999999999,-0.126148,-0.927932,-50.05,-122.3425,133.56
1340,936690,-0.697596,0.062464,-0.7473721,-26.67,-144.515,135.415
1341,936788,-0.641232,0.186172,-0.7093081,-10.185,-156.275,125.5625
1342,936886,-0.5314321,0.229848,-0.7664041,2.625,-164.9725,110.4075
1343,936984,-0.407724,0.231312,-0.87108,12.8975,-175.98,94.46500999999999
1344,937082,-0.25302800000000003,0.225944,-1.062376,22.645,-189.8225,80.8675
1345,937180,-0.077348,0.233996,-1.272704,32.165,-207.0775,69.59751
1346,937278,0.05612,0.229604,-1.460828,39.025,-235.165,60.375
1347,937376,0.24668400000000001,0.214232,-1.544032,40.005,-270.5325,50.05
1348,937474,0.426512,0.19642,-1.551352,33.9675,-304.6925,35.945
1349,937572,0.546804,0.268156,-1.4518,27.16,-334.8975,22.8375
1350,937670,0.542168,0.317932,-1.356396,29.505,-353.1325,9.975
1351,937768,0.7517640999999999,0.42553599999999997,-1.41276,37.905,-358.5225,-6.9825
1352,937866,0.8676640999999999,0.460672,-1.492304,59.1675,-358.085,-21.7525
1353,937964,1.031388,0.42700000000000005,-1.53598,84.5425,-358.75,-35.35
1354,938063,1.08946,0.39723200000000003,-1.52378,104.9825,-361.2525,-47.005
1355,938161,1.0711600000000001,0.53314,-1.541348,118.37,-360.4475,-57.3125
1356,938259,1.100196,0.8620521000000001,-1.736304,133.0,-353.0275,-71.96
1357,938357,1.3359,1.22854,-2.090348,157.8325,-344.82,-96.8975
1358,938455,1.75558,1.396168,-2.337764,188.02,-350.84,-131.915
1359,938553,2.0242240000000002,1.5262200000000001,-2.258952,205.2225,-372.6275,-169.75
1360,938651,2.225768,1.658468,-1.904664,207.445,-388.99,-207.3225
1361,938749,2.48392,1.9305279999999998,-1.423984,200.025,-381.4475,-244.9125
1362,938847,2.784284,2.223816,-0.9006040999999999,197.12,-350.07,-276.8325
1363,938945,2.990708,2.3006759999999997,-0.475312,200.7075,-302.9075,-300.2125
1364,939043,3.134912,1.88002,-0.274988,198.3975,-248.0625,-314.44
1365,939141,3.2905839999999995,1.1028799999999999,-0.114436,170.2575,-201.6,-316.7675
1366,939239,3.382328,0.671976,0.343308,116.13,-170.345,-304.6925
1367,939337,3.155652,0.5926760999999999,0.853024,66.5525,-141.6275,-277.83
1368,939435,2.821128,0.61488,1.088484,48.755,-97.8075,-238.525
1369,939533,2.622512,0.552904,0.853756,42.875,-45.815,-188.1775
1370,939631,2.37534,0.6605081,0.419192,11.4275,-5.2675,-138.845
1371,939729,1.9522439999999999,1.157292,0.0549,-45.815,13.475,-104.9125
1372,939827,0.612928,1.314184,-0.244,-81.445,19.88,-90.89499
1373,939925,-3.326696,-1.16266,-1.968104,-70.0175,8.33,-90.1775
1374,940023,-4.098712,-2.611532,-1.295396,-162.3125,93.31,-192.92
1375,940121,0.82594,-1.3651799999999998,2.5161279999999997,-241.045,249.97,-307.615
1376,940219,2.2955520000000003,1.42252,-0.9567241,-371.0175,378.105,-151.9175
1377,940317,4.256824,1.4149559999999999,-6.620939999999999,55.2125,334.005,-7.28
1378,940416,1.381772,1.26026,-2.5983560000000003,-198.905,121.7475,-25.55
1379,940514,-0.7141881,-0.17397200000000002,-0.126148,-153.9475,38.0625,-11.6375
1380,940612,-0.4933681,0.6224441,-0.382836,-108.5175,103.2675,18.095
1381,940710,0.681248,-0.1159,-2.3541119999999998,-89.425,143.0275,11.235
1382,940808,1.7202,-0.265716,-1.609668,-165.8475,94.395,18.9175
1383,940906,0.104676,0.205692,-1.0199200000000002,-147.735,24.8675,17.6575
1384,941004,1.196332,0.750544,-1.63114,-122.255,20.4925,13.1425
1385,941102,0.403332,-0.083936,-1.063352,-34.16,-9.2575,5.5825
1386,941200,0.29158,0.14688800000000002,-1.0723799999999999,-26.81,-9.73,13.1775
1387,941298,0.45018,-0.08100801,-0.9840521000000001,-10.5175,-6.79,10.955
1388,941396,0.284992,-0.02074,-0.9581881,-8.4525,-9.0475,8.47
1389,941494,0.243756,0.00488,-0.9376921,-7.28,-9.345,5.8625
1390,941592,0.277672,-0.026351999999999997,-0.9525761,-8.26,-7.7175,4.5675
1391,941690,0.276696,-0.06880801,-0.9357401,-8.6275,-7.07,1.75
1392,941788,0.299388,-0.06075601,-0.9311040999999999,-10.955,-6.4575,-2.4325
1393,941886,0.305732,0.032208,-0.9528200000000001,-11.1125,-7.105,-4.9175
1394,941984,0.31402800000000003,0.007808001,-0.9537959999999999,-8.2425,-8.8375,-4.445
1395,942082,0.30109600000000003,-0.016836,-0.9540401,-5.7925,-10.115,-4.025
1396,942180,0.30988000000000004,-0.014152000000000001,-0.9391560999999999,-4.5675,-10.255,-4.62
1397,942278,0.292556,0.027083999999999997,-0.9291520000000001,-4.34,-11.1125,-4.6725
1398,942376,0.272548,0.0183,-0.950868,-2.8525,-12.0925,-3.1325
1399,942474,0.28157600000000005,0.019275999999999998,-0.967216,-2.1,-11.34,-1.4875
1400,942573,0.30134,0.023668,-0.9623360999999999,-2.0125,-10.71,0.105
1401,942671,0.30622,0.011224,-0.9591639999999999,-0.63,-11.13,1.5925
1402,942769,0.296216,-0.020984,-0.949892,1.12,-11.3225,1.785
1403,942867,0.298412,-0.021472,-0.948184,2.2225,-10.6575,0.595
1404,942965,0.302072,-0.026595999999999998,-0.9459880999999999,4.7075,-10.15,-0.8575
1405,943063,0.29426399999999997,-0.030256,-0.9384239999999999,6.09,-9.94,-1.925
1406,943161,0.285724,-0.039772,-0.9340321,6.1775,-10.1325,-2.7475
1407,943259,0.272548,-0.045627999999999995,-0.9318360000000001,6.125,-9.66,-3.605
1408,943357,0.275964,-0.032695999999999996,-0.93696,5.53,-8.3825,-4.7425
1409,943455,0.27889200000000003,-0.024156,-0.940132,5.425,-7.175,-6.16
1410,943553,0.27523200000000003,-0.020496,-0.9254921,6.3,-6.02,-7.1575
1411,943651,0.282796,-0.008296000999999999,-0.927932,6.7725,-5.4775,-7.665
1412,943749,0.285968,-0.024644,-0.9259799999999999,6.9825,-5.8275,-8.015
1413,943847,0.2867,-0.005368,-0.9372040999999999,6.2475,-6.0375,-8.6275
1414,943945,0.288896,-0.008540001,-0.9254921,6.51,-6.125,-8.8375
1415,944043,0.274988,-0.009028000999999999,-0.9391560999999999,7.595,-6.0375,-8.9775
1416,944141,0.280844,-0.018056,-0.927932,9.87,-4.1825,-9.9225
1417,944239,0.285968,-0.056852,-0.927688,11.8825,-2.31,-11.3925
1418,944337,0.29133600000000004,-0.061732,-0.940132,12.635,-0.7875,-12.845
1419,944435,0.25986,-0.03294,-0.9418401,11.9875,-0.1575,-13.51
1420,944534,0.26352,-0.07564,-0.9357401,11.5325,-0.3325,-17.1675
1421,944632,0.269376,-0.068076,-0.94306,7.805,-1.575,-16.7475
1422,944730,0.273524,-0.061488,-0.9516,4.725,-3.185,-15.4175
1423,944828,0.263764,-0.061,-0.9486720999999999,3.29,-2.1525,-15.2425
1424,944926,0.262544,-0.05587601,-0.952332,1.7675,0.35,-16.6775
1425,945024,0.254004,-0.034648000000000005,-0.9630681000000001,0.9275,2.7125,-18.4625
1426,945122,0.24107199999999998,-0.03172,-0.9730721,0.875,5.39,-21.4725
1427,945220,0.17934,-0.034892,-1.006744,1.2425,9.065,-27.2825
1428,945318,0.209352,-0.06124401,-0.9962521000000001,3.2375,15.295,-32.9175
1429,945416,0.046116000000000004,0.05612,-1.0767719999999998,-0.07,27.37,-35.7
1430,945514,-0.036112,0.114192,-1.19926,6.125,45.15,-39.27
1431,945612,-0.0366,0.055144000000000006,-1.226832,24.7275,74.0775,-45.745
1432,945710,-0.07393200000000001,0.21228000000000002,-1.482544,37.205,118.8075,-49.9625
1433,945808,-0.366732,0.211792,-1.66042,75.39,173.845,-57.3475
1434,945906,-0.29036,0.340868,-2.102548,141.6975,230.195,-75.3375
1435,946004,0.049044,0.8447280999999999,-2.442196,235.1825,274.3825,-102.0425
1436,946102,0.270596,0.604632,-2.429264,360.64,283.2725,-136.5525
1437,946200,0.8744960999999999,0.286456,-1.4149559999999999,433.2475,269.92,-172.06
1438,946298,0.502884,0.577548,-1.385432,492.9225,257.8975,-216.93
1439,946396,-0.152256,0.8791321,-1.219268,550.1825,221.655,-267.75
1440,946494,1.619184,-0.251076,-2.774036,493.22,99.54,-347.41
1441,946593,0.8544879999999999,-1.220244,-1.314916,326.2,-37.905,-389.305
1442,946691,0.313296,-1.4313040000000001,-0.35136,204.7675,-89.93251,-365.6275
1443,946789,0.192272,-1.303204,-0.44212799999999997,136.92,-74.48,-304.5875
1444,946887,0.03538,-0.909632,-0.7605481,112.175,-55.5625,-236.4425
1445,946985,-0.161772,-0.4404201,-0.9650200999999999,122.4125,-54.6175,-176.0675
1446,947083,-0.29036,0.0051240009999999996,-1.111908,145.985,-64.785,-133.7875
1447,947181,-0.39894,0.478728,-1.143872,162.6275,-84.21,-114.765
1448,947279,-0.51972,0.8752280000000001,-1.035292,169.4875,-111.3,-116.6025
1449,947377,-0.5846241,1.239032,-0.9237841,165.48,-134.645,-135.17
1450,947475,-0.5321640000000001,1.536956,-0.891576,158.235,-149.0825,-165.34
1451,947573,-0.44212799999999997,1.718248,-0.958432,152.0225,-162.12,-201.39
1452,947671,-0.33916,1.7565560000000002,-1.038708,148.0675,-175.6825,-238.1225
1453,947769,-0.23082399999999997,1.659444,-1.087508,144.0425,-190.89,-270.76
1454,947867,-0.13761600000000002,1.526952,-1.0553,137.8475,-206.85,-296.065
1455,947965,-0.084912,1.413248,-1.037488,128.555,-221.025,-312.8125
1456,948063,0.012444,1.353956,-1.077504,119.455,-230.7725,-323.2075
1457,948161,0.043432,1.263188,-1.115812,117.3025,-240.38,-327.635
1458,948259,0.04514,1.224392,-1.099952,118.16,-249.8825,-328.0025
1459,948357,0.058072000000000006,1.22,-1.092876,122.5,-255.2725,-326.9175
1460,948455,0.115168,1.212192,-1.1387479999999999,129.2025,-255.92,-326.1125
1461,948553,0.190564,1.170468,-1.16998,132.7725,-255.2375,-326.725
1462,948651,0.235704,1.1087360000000002,-1.1148360000000002,133.8575,-252.805,-326.9525
1463,948749,0.279624,0.984784,-1.06018,134.1375,-245.0,-323.4
1464,948847,0.35160399999999997,0.830332,-1.096048,128.765,-232.8725,-315.385
1465,948945,0.42748800000000003,0.692228,-1.17486,119.35,-221.1125,-301.21
1466,949043,0.486048,0.636352,-1.287344,111.9125,-209.7725,-281.6625
1467,949141,0.635376,0.6527,-1.392996,108.955,-199.3075,-258.2825
1468,949239,0.686616,0.74542,-1.2939319999999999,105.8225,-192.36,-235.5675
1469,949337,0.700036,0.913048,-1.206336,99.9425,-181.7725,-217.9975
1470,949435,0.8708360999999999,1.033584,-1.269044,92.12001,-166.985,-207.5675
1471,949533,1.034316,1.000156,-1.261968,77.6475,-159.18,-202.8425
1472,949631,1.069452,0.886452,-1.041392,52.36,-156.275,-200.305
1473,949729,1.15534,0.690764,-0.767868,25.34,-147.2275,-196.2275
1474,949827,1.223904,0.4392,-0.43627200000000005,1.085,-131.6175,-187.985
1475,949925,1.301008,0.162504,-0.185684,-19.705,-109.48,-175.2975
1476,950023,1.4398440000000001,-0.11028800000000001,-0.304268,-36.155,-80.43,-154.2625
1477,950121,1.8229240000000002,-0.066856,-1.089948,-43.8025,-51.1175,-124.81
1478,950219,2.0425240000000002,-0.08052000000000001,-1.305888,-34.3875,-49.2975,-86.9575
1479,950317,1.9354080000000002,-0.132736,-0.701012,-34.615,-75.95,-50.19
1480,950416,1.747772,-0.0305,-0.07588400000000001,-55.615,-84.7525,-23.4675
1481,950514,1.731912,0.21008400000000002,-0.01342,-74.3925,-63.3325,-4.8825
1482,950612,1.69092,0.33916,-0.164456,-72.975,-39.095,8.5575
1483,950710,1.541836,0.313784,-0.227652,-62.3525,-28.49,16.3275
1484,950808,1.3969,0.748836,0.054412,-53.9175,-24.9725,21.77
1485,950906,-0.611952,0.11126400000000002,0.14884,-45.57,8.995,-8.19
1486,951004,-1.54574,-1.845616,-1.110444,116.1125,71.7675,-54.285
1487,951102,0.280356,-2.75232,-1.345904,-20.125,169.9775,-123.4625
1488,951200,3.478708,-1.74338,-3.1229560000000003,-47.705,248.0275,-47.425
1489,951298,2.0703400000000003,1.843664,-4.113596,-69.0025,156.6425,60.5325
1490,951396,-1.120204,2.539796,-0.201544,-85.9425,14.0525,22.6975
1491,951494,-1.18706,0.922076,0.48116800000000004,25.585,33.705,-22.4
1492,951592,0.221552,-0.5958479999999999,-0.9674601,123.515,115.15,-17.6925
1493,951690,0.9947881,-0.94916,-1.564284,123.41,137.4975,-6.825
1494,951788,0.468724,-0.9418401,-1.692384,90.1775,116.3925,2.345
1495,951886,1.040416,0.386008,-1.86294,6.4225,77.54251,22.12
1496,951984,0.142984,-0.09735601,-0.978684,24.2025,31.3075,8.61
1497,952082,0.26718000000000003,-0.03416,-1.08092,23.835,29.435,13.02
1498,952180,0.438712,-0.290116,-1.015772,29.155,25.34,8.19
1499,952278,0.394548,-0.163968,-1.045784,26.3375,16.94,4.5675
1500,952376,0.22472399999999998,-0.057339999999999995,-0.9752681000000001,23.0475,9.555,1.225
1501,952474,0.24912399999999998,-0.07564,-1.034316,25.3925,8.7325,0.49
1502,952572,0.315492,-0.090036,-1.0243120000000001,27.545,9.3275,-0.14
1503,952670,0.32818,-0.137128,-0.984784,30.135,6.0025,0.0
1504,952768,0.29377600000000004,-0.1708,-0.949892,30.87,2.2575,0.525
1505,952866,0.292068,-0.181292,-0.9613601,30.0125,0.455,0.2625
1506,952964,0.30109600000000003,-0.223748,-0.9506241,28.595,-1.295,-1.4
1507,953062,0.330376,-0.19178399999999998,-0.983808,26.2675,-3.2025,-3.36
1508,953160,0.3233,-0.178852,-0.966484,26.53,-6.2475,-4.6375
1509,953258,0.282552,-0.184952,-0.9335440999999999,27.7025,-9.6775,-5.005
1510,953356,0.26474000000000003,-0.189832,-0.9247601000000001,27.055,-10.9725,-5.845
1511,953454,0.26303200000000004,-0.18788,-0.9089001,25.585,-11.235,-6.7725
1512,953552,0.273524,-0.185196,-0.922076,23.5725,-11.7075,-7.63
1513,953650,0.28011199999999997,-0.1708,-0.90402,21.7525,-13.0725,-8.4
1514,953748,0.20496,-0.23546,-0.769088,17.7625,-16.2225,-8.9425
1515,953846,0.14713199999999999,-0.299144,-0.7078439999999999,7.63,-16.555,-8.75
1516,953944,0.19959200000000002,-0.291824,-0.78446,-6.0725,-13.2475,-9.5375
1517,954042,0.222284,-0.250832,-0.780312,-16.065,-12.11,-11.3225
1518,954140,0.180316,-0.293532,-0.649284,-25.27,-13.545,-12.4775
1519,954238,0.149084,-0.308904,-0.555588,-42.91,-14.1225,-12.88
1520,954336,0.167384,-0.20178800000000002,-0.596336,-67.375,-12.6175,-11.6725
1521,954434,0.20008,-0.1586,-1.057984,-86.13501,-12.1275,-9.9575
1522,954532,0.3599,-0.107848,-1.106052,-82.355,-9.7475,-12.495
1523,954630,0.237168,-0.121024,-1.038952,-72.2225,-12.2325,-14.665
1524,954728,0.171044,-0.13298,-0.8954801,-62.6325,-10.395,-14.8225
1525,954826,0.13761600000000002,-0.129076,-0.8378960999999999,-64.41751,-4.3575,-15.6975
1526,954924,0.17397200000000002,-0.135664,-0.8752280000000001,-69.475,6.3525,-18.2525
1527,955022,0.32208000000000003,0.163968,-1.452532,-74.2175,16.065,-21.175
1528,955120,0.339404,0.091012,-1.042368,-43.4875,9.45,-23.66
1529,955218,0.25986,0.009516001,-1.0406600000000001,-17.8675,4.865,-23.2925
1530,955316,0.24131599999999997,0.014396,-0.999668,-16.485,10.3425,-19.0925
1531,955414,0.23253200000000002,0.000976,-0.9791719999999999,-7.49,13.1775,-16.1525
1532,955512,0.242292,-0.035136,-0.9706319999999999,-1.855,17.115,-13.44
1533,955610,0.349164,-0.098088,-0.9167081,1.9425,17.535,-11.34
1534,955708,0.185684,-0.047824,-0.9354959999999999,-0.4725,15.225,-12.46
1535,955806,0.206668,-0.067344,-0.9145120999999999,0.4375,22.4175,-14.6825
1536,955904,0.290604,-0.163968,-0.9455,0.3325,30.0825,-16.1525
1537,956002,0.351116,-0.107116,-0.9945440000000001,-3.5875,32.34,-18.9
1538,956100,0.281088,-0.038064,-1.0147959999999998,-7.315,26.915,-22.54
1539,956198,0.199104,-0.029768,-1.075308,-7.9275,23.38,-23.66
1540,956297,0.253272,-0.072712,-1.077504,-16.4675,22.61,-23.6075
1541,956395,0.15396400000000002,0.000244,-1.077992,-21.175,28.1925,-22.9775
1542,956493,0.2196,-0.038796,-1.032852,-23.45,44.3275,-21.0875
1543,956591,0.30866,-0.046848,-1.083116,-26.5825,68.79251,-19.0575
1544,956689,-0.048312,-0.061488,-1.0858,-29.47,106.2075,-17.9725
1545,956787,0.040016,-0.05124001,-1.0767719999999998,-31.3775,135.975,-16.9225
1546,956885,-0.040992,-0.133468,-1.068476,-32.55,166.1625,-17.7625
1547,956983,0.08906,-0.06466001,-1.149484,-32.0775,204.19,-22.1375
1548,957081,-0.034648000000000005,-0.02074,-1.380796,-21.1225,242.095,-26.6875
1549,957179,-0.2257,-0.028792,-1.390068,-20.9125,281.4875,-30.17
1550,957277,0.30866,0.334036,-1.515484,-12.4425,316.8375,-28.3325
1551,957375,0.6390359999999999,0.24424400000000002,-1.556232,20.58,381.85,-19.2675
1552,957473,1.315404,0.80886,-2.445856,36.9075,464.73,-7.5775
1553,957571,0.9433041,-0.046360000000000005,-3.4391800000000003,84.6825,548.765,-6.93
1554,957669,1.253428,-0.194468,-2.1533,79.5725,573.37,-9.135
1555,957767,1.11996,-0.26352,-3.4447919999999996,94.045,573.3875,-21.6125
1556,957865,0.08564401,-0.5219159999999999,-4.003064,59.115,573.405,-40.8275
1557,957963,-1.509628,0.935984,-2.6535,22.3825,573.2475,-67.62001
1558,958061,0.9860040999999999,0.07856801,-5.8984559999999995,19.8625,450.835,-135.695
1559,958159,1.037488,-0.470188,-5.954332,91.525,162.2425,-151.6025
1560,958257,-0.207644,-1.134356,-3.8388519999999997,80.5875,-69.4925,-122.115
1561,958355,-0.958432,-1.287588,-1.808528,-2.24,-202.3525,-102.4975
1562,958453,-1.161928,-1.071892,-0.9711200999999999,-96.3025,-222.25,-93.3625
1563,958551,-1.035048,-0.7407841,-0.9857600000000001,-153.3,-199.1675,-78.05
1564,958649,-0.7881199999999999,-0.5172800999999999,-1.155096,-152.4425,-186.4975,-53.8475
1565,958747,-0.6392800000000001,-0.386252,-1.229028,-113.9425,-193.5325,-26.705
1566,958845,-0.552416,-0.28621199999999997,-1.17608,-64.785,-211.8025,-2.065
1567,958943,-0.44944799999999996,-0.1891,-1.1204479999999999,-20.615,-229.8275,14.595
1568,959041,-0.31158800000000003,-0.11467999999999999,-1.136064,8.19,-245.28,21.6475
1569,959139,-0.12175599999999999,0.00366,-1.257332,21.175,-260.085,18.585
1570,959237,0.026351999999999997,0.11736400000000001,-1.39812,28.8225,-280.0175,11.4275
1571,959335,0.26913200000000004,0.194956,-1.44204,40.8975,-306.1625,5.565
1572,959433,0.460916,0.217404,-1.389824,52.4125,-334.6175,0.3325
1573,959532,0.533872,0.181292,-1.286368,59.64,-359.625,-4.1825
1574,959630,0.536556,0.184952,-1.218292,58.5025,-375.6725,-7.49
1575,959728,0.577304,0.27328,-1.33346,54.5125,-381.3425,-11.6025
1576,959826,0.7820199999999999,0.429684,-1.6030799999999998,52.675,-382.9175,-19.285
1577,959924,0.9242720999999999,0.5455840000000001,-1.7824200000000001,56.5775,-394.205,-30.2225
1578,960022,1.011868,0.593164,-1.814384,63.945,-413.14,-43.9425
1579,960120,1.055544,0.536068,-1.6592,69.685,-431.235,-60.1825
1580,960218,0.9874681000000001,0.418704,-1.387384,76.7375,-438.4275,-74.3575
1581,960316,0.953308,0.305,-1.355908,97.16001,-419.405,-78.34751
1582,960414,1.1407,0.127368,-1.68238,136.8325,-382.6725,-67.725
1583,960512,1.456436,-0.27816,-2.189168,185.115,-351.1375,-45.535
1584,960610,1.9734720000000001,-0.9906401,-2.4795279999999997,216.37,-339.7275,-10.64
1585,960708,2.605432,-1.812432,-2.5693200000000003,207.235,-346.7625,40.04
1586,960806,3.239832,-2.02276,-2.2953080000000003,152.7925,-361.9175,102.4275
1587,960904,3.3974559999999996,-0.623664,-1.569164,82.74,-377.5975,174.2825
1588,961002,3.366712,0.37088000000000004,-0.659776,66.3425,-369.2325,228.795
1589,961100,3.46846,1.2968600000000001,-0.384788,37.2925,-325.395,218.19
1590,961198,3.5941199999999998,1.357372,-0.116388,27.51,-272.615,173.7225
1591,961296,3.580944,0.965996,0.353556,13.37,-232.435,113.435
1592,961394,3.570208,1.018456,0.9823440999999999,-9.415,-196.4375,47.285
1593,961492,3.647556,1.315404,1.6555400000000002,-1.4875,-141.6275,-20.335
1594,961590,3.8369,0.63562,3.237392,55.475,-23.94,-75.9675
1595,961688,4.891224,-1.932724,5.433148,90.9125,222.985,-65.8
1596,961786,1.605764,0.8540000000000001,-1.927356,-120.7325,396.62,-81.2
1597,961884,1.322724,-0.8991401,-3.718316,-2.9925,411.145,-51.3625
1598,961983,2.245288,0.23155599999999998,-0.9506241,21.035,403.865,16.345
1599,962081,1.8580599999999998,1.7355720000000001,-3.220556,-25.76,376.74,23.8525
1600,962179,1.624308,2.3128759999999997,-3.56362,15.96,301.315,-18.095
1601,962277,1.82512,0.15128,-2.7298720000000003,17.36,216.265,-62.6325
1602,962375,0.9381801,-1.730692,-1.0765280000000002,59.2025,149.1175,-53.0775
1603,962473,0.18251199999999998,-0.8081281,-0.541192,-15.8025,138.845,-30.5025
1604,962571,0.438468,0.153232,-1.0767719999999998,-44.695,154.14,-21.8225
1605,962669,0.794708,0.08906,-1.504748,-39.8825,148.61,-30.975
1606,962767,0.7666480999999999,-1.010648,-2.17282,-33.95,125.3175,-32.83
1607,962865,2.084492,-0.9247601000000001,-1.8038919999999998,-92.995,69.02,3.6225
1608,962963,-0.112972,0.829356,-1.225856,-159.46,12.25,7.42
1609,963061,0.46921199999999996,-0.17202,-1.22488,-85.69751,6.4225,9.3975
1610,963159,0.407724,-0.07564,-1.16754,-66.92,5.46,8.7675
1611,963257,0.333304,0.067832,-1.209752,-71.3475,-0.3675,3.99
1612,963355,0.366244,-0.083936,-1.062132,-40.1625,-8.12,-0.07
1613,963453,0.258152,0.034648000000000005,-1.0443200000000001,-34.4925,-10.535,-0.7525
1614,963551,0.261812,-0.034648000000000005,-0.99308,-21.84,-10.6575,-0.5775
1615,963649,0.225212,-0.013908000000000002,-0.9818561,-13.23,-9.8875,-0.7175
1616,963747,0.245464,-0.021228,-0.9679481,-8.7675,-6.825,-1.3825
1617,963845,0.245952,-0.0305,-0.9655081,-4.305,-3.8325,-2.45
1618,963943,0.229604,-0.038551999999999996,-0.967216,-1.2075,-1.4875,-2.7825
1619,964041,0.233508,-0.023424,-0.9716081,0.035,0.7,-4.0425
1620,964139,0.239852,-0.043432,-0.960384,-0.245,2.4325,-6.3875
1621,964237,0.255712,-0.036844,-0.9613601,-1.1725,3.6225,-8.4175
1622,964335,0.23546,-0.046360000000000005,-0.944768,-1.085,3.99,-10.0275
1623,964433,0.20861999999999997,-0.06344,-0.9376921,-0.4025,5.3025,-11.9875
1624,964531,0.23472800000000002,-0.064172,-0.9250040999999999,-0.105,8.085,-14.105
1625,964629,0.246196,-0.040504000000000005,-0.936472,-0.63,10.6925,-15.2425
1626,964727,0.27523200000000003,-0.034648000000000005,-0.9496479999999999,-0.875,11.795,-14.8575
1627,964825,0.27571999999999997,-0.0061,-0.9530641,0.595,11.4275,-13.9475
1628,964923,0.28548,0.032695999999999996,-0.945256,0.91,10.1675,-12.6525
1629,965021,0.27328,0.014396,-0.9323239999999999,3.15,9.345,-10.29
1630,965120,0.27718400000000004,0.015128,-0.9298841,4.9,9.5375,-8.1375
1631,965218,0.2928,-0.004392,-0.9203680000000001,8.1375,9.66,-6.6675
1632,965316,0.271084,-0.011468,-0.9230520000000001,12.4425,9.3275,-5.81
1633,965414,0.280356,-0.022692,-0.9328120000000001,15.4,9.7125,-6.0725
1634,965512,0.29377600000000004,-0.080764,-0.9269561,15.995,9.59,-7.385
1635,965610,0.270596,-0.06661201,-0.9147559999999999,13.2475,8.7675,-9.065
1636,965708,0.2684,-0.082228,-0.9125601000000001,11.9175,9.5375,-11.06
1637,965806,0.290116,-0.07490801,-0.9254921,10.7975,10.85,-14.105
1638,965904,0.28426,-0.0366,-0.9379360000000001,9.7825,11.27,-16.975
1639,966002,0.322812,-0.0549,-0.9403761,9.59,10.6575,-17.8675
1640,966100,0.276696,-0.03416,-0.964044,7.8575,8.785,-19.0925
1641,966198,0.221796,-0.009028000999999999,-0.9943001,3.1325,7.875,-20.7725
1642,966296,0.244,-0.045627999999999995,-1.018944,-1.4525,10.01,-22.8725
1643,966394,0.24351199999999998,-0.00488,-1.03944,-5.18,15.75,-24.71
1644,966492,0.20861999999999997,-0.042944,-1.056032,-10.5,24.8325,-25.795
1645,966590,0.19251600000000002,-0.008296000999999999,-1.057252,-15.61,41.2825,-24.605
1646,966688,0.190076,-0.062952,-1.035048,-22.47,62.685,-22.47
1647,966786,-0.0183,-0.008784,-1.065792,-28.3675,86.38,-20.7025
1648,966884,0.485804,-0.06636801,-1.081652,-32.1475,113.8375,-19.74
1649,966982,-0.327448,0.0244,-1.077016,-33.6525,152.775,-19.8275
1650,967080,0.14713199999999999,0.01952,-1.11996,-28.2625,183.12,-19.39
1651,967178,-0.234972,-0.033916,-1.330288,-19.95,224.525,-16.87
1652,967276,-0.387228,-0.133468,-1.383968,-14.1575,269.955,-21.9975
1653,967374,0.02684,0.036844,-1.4393559999999999,5.775,308.1575,-36.7675
1654,967472,0.562176,0.329156,-2.106696,35.9625,362.5825,-50.365
1655,967570,1.148508,-0.163236,-1.658712,123.865,467.915,-67.97
1656,967668,1.5403719999999999,0.412116,-2.828448,107.065,547.26,-72.6425
1657,967766,0.9396440999999999,0.22667600000000002,-4.015752,106.7325,573.3,-61.5825
1658,967864,1.4191040000000001,-0.22277199999999997,-3.923276,88.0075,573.405,-53.97
1659,967962,0.6795401,-0.50752,-4.216564,38.0275,573.405,-57.3475
1660,968060,-1.142408,1.465708,-3.295464,-39.585,573.405,-91.35
1661,968159,2.696444,1.104832,-7.012316,-18.9525,503.2825,-192.36
1662,968257,0.701256,-0.5131319999999999,-5.8313559999999995,127.96,198.3975,-242.9
1663,968355,-0.401868,-1.70556,-3.6234,131.8275,-24.605,-204.3125
1664,968453,-0.704916,-1.98128,-2.109868,66.885,-144.3575,-161.28
1665,968551,-0.913536,-1.8195080000000001,-1.442528,-52.675,-161.9975,-132.965
1666,968649,-0.7759199999999999,-1.317356,-1.49206,-130.3575,-162.645,-92.7325
1667,968747,-0.612684,-0.9171961,-1.577948,-148.19,-182.8925,-53.3575
1668,968845,-0.553148,-0.702476,-1.452288,-121.38,-213.605,-22.645
1669,968943,-0.516304,-0.6070720000000001,-1.243668,-79.9575,-243.6525,-0.2625
1670,969041,-0.411872,-0.56242,-1.068476,-43.3825,-266.315,14.91
1671,969139,-0.25254,-0.50264,-1.023824,-18.5325,-281.4875,24.71
1672,969237,-0.068076,-0.415288,-1.030168,-2.7825,-294.84,30.1525
1673,969335,0.09711201,-0.327692,-1.035048,9.9925,-311.2375,33.495
1674,969433,0.22716399999999998,-0.242292,-1.008208,21.875,-328.09,35.9975
1675,969531,0.319396,-0.146156,-1.036268,35.5075,-340.5675,36.925
1676,969629,0.4148,-0.056852,-1.1041,50.855,-348.075,37.7475
1677,969727,0.5219159999999999,-0.007320001,-1.235616,65.1175,-354.655,37.135
1678,969825,0.659288,0.062464,-1.403732,73.8325,-361.8825,33.5475
1679,969923,0.792024,0.138836,-1.549888,82.5825,-373.52,27.965
1680,970021,0.863516,0.167872,-1.685064,96.2325,-388.1675,22.6275
1681,970119,1.009916,0.153476,-1.806332,114.03,-402.5875,17.045
