,T,ax,ay,az,gx,gy,gz
0,200927,0.382836,-0.058803999999999995,-0.69906,19.95,-19.32,-15.2775
1,201078,0.42333999999999994,-0.043188,-0.8052,-17.255,-31.8325,-239.4175
2,201176,0.45164399999999993,-0.0427,-0.859856,-15.225,-95.725,-362.635
3,201274,0.454084,-0.039284,-0.8620521000000001,29.68,-104.9475,-86.625
4,201372,0.4514,-0.038796,-0.8632719999999999,1.0675,-7.175,-7.875
5,201470,0.450912,-0.041236,-0.865956,0.6475,-5.6875,-6.7375
6,201568,0.450912,-0.040260000000000004,-0.8662001,0.6125,-5.5825,-6.72
7,201666,0.45383999999999997,-0.037332,-0.8640040000000001,0.665,-5.5475,-6.72
8,201764,0.45286400000000004,-0.038551999999999996,-0.8647360000000001,0.77,-5.4775,-6.685
9,201862,0.45432799999999995,-0.037088,-0.8662001,0.7175,-5.4425,-6.5975
10,201960,0.45335200000000003,-0.041236,-0.8693719999999999,0.735,-5.425,-6.58
11,202058,0.452132,-0.041236,-0.8671761,0.77,-5.495,-6.615
12,202156,0.453596,-0.040016,-0.868152,0.805,-5.4425,-6.545
13,202254,0.454084,-0.040260000000000004,-0.8679081,0.7875,-5.46,-6.615
14,202353,0.453108,-0.04148,-0.8671761,0.6825,-5.4425,-6.72
15,202451,0.45261999999999997,-0.03904,-0.865956,0.7,-5.5125,-6.7025
16,202549,0.454084,-0.040504000000000005,-0.8669319999999999,0.7175,-5.6,-6.685
17,202647,0.45603599999999994,-0.038064,-0.8647360000000001,0.665,-5.565,-6.615
18,202745,0.45432799999999995,-0.038064,-0.86498,0.735,-5.6525,-6.545
19,202843,0.45554799999999995,-0.040992,-0.86864,0.6475,-5.6525,-6.5625
20,202941,0.45286400000000004,-0.039772,-0.8666879999999999,0.63,-5.6875,-6.685
21,203039,0.453596,-0.040504000000000005,-0.869128,0.63,-5.6525,-6.65
22,203137,0.448716,-0.040748,-0.8647360000000001,0.735,-5.6525,-6.5975
23,203235,0.451888,-0.040260000000000004,-0.865468,0.735,-5.5475,-6.5625
24,203333,0.450912,-0.042456,-0.8647360000000001,0.7175,-5.53,-6.65
25,203431,0.453596,-0.039772,-0.8676640999999999,0.7175,-5.4075,-6.58
26,203529,0.453596,-0.042212,-0.8674200000000001,0.7525,-5.5475,-6.65
27,203627,0.4553041,-0.040016,-0.8669319999999999,0.7175,-5.565,-6.685
28,203725,0.45286400000000004,-0.041236,-0.8662001,0.6825,-5.7575,-6.79
29,203823,0.45554799999999995,-0.039772,-0.865956,0.6125,-5.74,-6.7025
30,203921,0.452132,-0.041968,-0.8679081,0.665,-5.6875,-6.6675
31,204019,0.453596,-0.039528,-0.868152,0.6475,-5.7575,-6.6675
32,204117,0.4553041,-0.038551999999999996,-0.8652241,0.525,-5.74,-6.72
33,204216,0.45457200000000003,-0.040992,-0.868884,0.595,-5.635,-6.5975
34,204314,0.452132,-0.040992,-0.8657120999999999,0.595,-5.74,-6.7375
35,204412,0.45261999999999997,-0.040992,-0.8664440000000001,0.5775,-5.6875,-6.685
36,204510,0.454084,-0.040748,-0.86498,0.56,-5.775,-6.7025
37,204608,0.45261999999999997,-0.040992,-0.8666879999999999,0.595,-5.775,-6.7375
38,204706,0.450912,-0.038551999999999996,-0.865468,0.5775,-5.81,-6.65
39,204804,0.45164399999999993,-0.042456,-0.8657120999999999,0.5775,-5.7225,-6.7025
40,204902,0.453596,-0.040748,-0.8679081,0.595,-5.6175,-6.7025
41,205000,0.453108,-0.039772,-0.8652241,0.5775,-5.74,-6.6675
42,205098,0.450424,-0.040992,-0.863028,0.5775,-5.74,-6.72
43,205196,0.45164399999999993,-0.041724000000000004,-0.8652241,0.595,-5.705,-6.79
44,205294,0.45383999999999997,-0.039284,-0.8662001,0.525,-5.7575,-6.685
45,205392,0.45457200000000003,-0.039284,-0.86864,0.525,-5.705,-6.685
46,205490,0.452132,-0.040016,-0.8652241,0.56,-5.7225,-6.6675
47,205588,0.4514,-0.0427,-0.8664440000000001,0.6475,-5.6875,-6.6675
48,205686,0.45286400000000004,-0.038796,-0.864492,0.595,-5.565,-6.7375
49,205784,0.45383999999999997,-0.040504000000000005,-0.8676640999999999,0.595,-5.74,-6.825
50,205882,0.452132,-0.039284,-0.86498,0.5775,-5.67,-6.685
51,205980,0.452376,-0.040504000000000005,-0.8637601,0.56,-5.53,-6.6325
52,206078,0.45383999999999997,-0.04148,-0.865468,0.595,-5.5475,-6.7025
53,206177,0.45432799999999995,-0.038796,-0.8657120999999999,0.63,-5.495,-6.6675
54,206275,0.45261999999999997,-0.040748,-0.8664440000000001,0.595,-5.5825,-6.7025
55,206373,0.45115600000000006,-0.041236,-0.8652241,0.7175,-5.5125,-6.7025
56,206471,0.45261999999999997,-0.039284,-0.863028,0.7525,-5.495,-6.7725
57,206569,0.454084,-0.038551999999999996,-0.8652241,0.7525,-5.5125,-6.7025
58,206667,0.453108,-0.041724000000000004,-0.865468,0.665,-5.53,-6.65
59,206765,0.45335200000000003,-0.039284,-0.8640040000000001,0.63,-5.5125,-6.72
60,206863,0.45383999999999997,-0.039528,-0.863516,0.7,-5.4425,-6.7375
61,206961,0.45335200000000003,-0.039284,-0.8647360000000001,0.6475,-5.4775,-6.65
62,207059,0.45383999999999997,-0.039528,-0.8657120999999999,0.6475,-5.5475,-6.6675
63,207157,0.45383999999999997,-0.037576,-0.8637601,0.665,-5.565,-6.685
64,207255,0.454816,-0.038551999999999996,-0.865468,0.6825,-5.6,-6.6325
65,207353,0.454084,-0.03904,-0.865468,0.7,-5.5825,-6.65
66,207451,0.45383999999999997,-0.039528,-0.865468,0.6125,-5.6525,-6.7725
67,207549,0.45286400000000004,-0.038551999999999996,-0.8637601,0.595,-5.5825,-6.7375
68,207647,0.45432799999999995,-0.03904,-0.863028,0.5775,-5.6175,-6.7725
69,207745,0.451888,-0.040504000000000005,-0.864492,0.63,-5.6525,-6.685
70,207843,0.45335200000000003,-0.039528,-0.864492,0.7,-5.67,-6.72
71,207942,0.454084,-0.038551999999999996,-0.864492,0.5775,-5.5125,-6.72
72,208040,0.45164399999999993,-0.041968,-0.8666879999999999,0.6125,-5.5125,-6.72
73,208138,0.45383999999999997,-0.038064,-0.8662001,0.7,-5.5825,-6.825
74,208236,0.453596,-0.040504000000000005,-0.86498,0.665,-5.5125,-6.6675
75,208334,0.45457200000000003,-0.039284,-0.8657120999999999,0.6475,-5.565,-6.72
76,208432,0.452376,-0.041724000000000004,-0.8671761,0.6825,-5.46,-6.72
77,208530,0.45335200000000003,-0.039772,-0.8642481,0.63,-5.46,-6.72
78,208628,0.4553041,-0.041968,-0.8610761,0.7,-5.5125,-6.72
79,208726,0.454084,-0.040260000000000004,-0.8640040000000001,0.595,-5.635,-6.65
80,208824,0.45383999999999997,-0.040992,-0.865956,0.56,-5.67,-6.8075
81,208922,0.4553041,-0.03904,-0.8666879999999999,0.49,-5.6875,-6.755
82,209020,0.45506,-0.040992,-0.863516,0.5075,-5.8275,-6.825
83,209118,0.4553041,-0.038064,-0.8652241,0.5425,-5.81,-6.7375
84,209216,0.450912,-0.040504000000000005,-0.865468,0.49,-5.81,-6.8425
85,209314,0.45335200000000003,-0.039528,-0.8652241,0.4725,-5.775,-6.825
86,209412,0.453108,-0.039284,-0.8632719999999999,0.525,-5.8625,-6.895
87,209510,0.453596,-0.038796,-0.8632719999999999,0.5075,-5.7925,-6.825
88,209608,0.452132,-0.039284,-0.8620521000000001,0.5075,-5.74,-6.7725
89,209706,0.453108,-0.040260000000000004,-0.865956,0.4725,-5.7225,-6.825
90,209804,0.45383999999999997,-0.038308,-0.8647360000000001,0.5075,-5.6875,-6.755
91,209902,0.45335200000000003,-0.040992,-0.8669319999999999,0.5425,-5.7225,-6.7025
92,210001,0.452376,-0.040992,-0.8647360000000001,0.525,-5.67,-6.6675
93,210099,0.45286400000000004,-0.04148,-0.8664440000000001,0.56,-5.67,-6.7725
94,210197,0.454816,-0.039284,-0.863028,0.525,-5.67,-6.825
95,210295,0.45432799999999995,-0.040748,-0.86498,0.455,-5.6875,-6.8425
96,210393,0.45286400000000004,-0.036844,-0.864492,0.5075,-5.7225,-6.8075
97,210491,0.454084,-0.038308,-0.863028,0.5425,-5.67,-6.825
98,210589,0.45286400000000004,-0.04148,-0.8640040000000001,0.5425,-5.705,-6.7725
99,210687,0.45261999999999997,-0.040748,-0.8652241,0.49,-5.7575,-6.7375
100,210785,0.45335200000000003,-0.039528,-0.8652241,0.455,-5.7925,-6.9825
101,210883,0.454816,-0.039772,-0.8647360000000001,0.49,-5.775,-6.825
102,210981,0.4553041,-0.039528,-0.863516,0.4375,-5.705,-6.8425
103,211079,0.454084,-0.038064,-0.865468,0.4375,-5.74,-6.86
104,211177,0.45335200000000003,-0.038064,-0.862784,0.5425,-5.845,-6.8775
105,211275,0.454084,-0.038796,-0.864492,0.4725,-5.74,-6.825
106,211373,0.45383999999999997,-0.037332,-0.8652241,0.455,-5.74,-6.8425
107,211471,0.45383999999999997,-0.040260000000000004,-0.8662001,0.4375,-5.775,-6.7725
108,211569,0.45115600000000006,-0.040504000000000005,-0.8647360000000001,0.4025,-5.775,-6.7025
109,211667,0.45335200000000003,-0.040016,-0.8669319999999999,0.455,-5.7925,-6.755
110,211765,0.45261999999999997,-0.040504000000000005,-0.863516,0.42,-5.95,-6.8775
111,211864,0.45115600000000006,-0.03782,-0.8620521000000001,0.385,-5.88,-6.7725
112,211962,0.453108,-0.038064,-0.8640040000000001,0.4375,-5.88,-6.7725
113,212060,0.451888,-0.038064,-0.8632719999999999,0.385,-5.775,-6.7725
114,212158,0.45383999999999997,-0.03782,-0.86498,0.3675,-5.775,-6.8075
115,212256,0.45432799999999995,-0.036844,-0.864492,0.455,-5.6525,-6.8425
116,212354,0.453108,-0.0366,-0.8632719999999999,0.455,-5.705,-6.8425
117,212452,0.453108,-0.036844,-0.863516,0.385,-5.74,-6.755
118,212550,0.45554799999999995,-0.038796,-0.8647360000000001,0.4725,-5.7225,-6.7025
119,212648,0.45506,-0.038064,-0.8642481,0.455,-5.6875,-6.79
120,212746,0.453596,-0.036356,-0.8632719999999999,0.4375,-5.7575,-6.755
121,212844,0.45335200000000003,-0.038796,-0.865468,0.49,-5.67,-6.79
122,212942,0.45286400000000004,-0.03782,-0.8640040000000001,0.5075,-5.775,-6.825
123,213040,0.452376,-0.039772,-0.865956,0.5075,-5.635,-6.72
124,213138,0.45457200000000003,-0.039284,-0.8637601,0.595,-5.67,-6.6325
125,213236,0.453108,-0.038796,-0.863028,0.595,-5.6175,-6.72
126,213334,0.45383999999999997,-0.038551999999999996,-0.8620521000000001,0.56,-5.705,-6.755
127,213432,0.454084,-0.038551999999999996,-0.8625401,0.4725,-5.705,-6.7375
128,213530,0.454816,-0.040016,-0.865468,0.4375,-5.775,-6.7375
129,213629,0.45164399999999993,-0.038064,-0.860344,0.4375,-5.845,-6.7025
130,213727,0.453108,-0.038796,-0.8640040000000001,0.4025,-5.8625,-6.755
131,213825,0.454084,-0.038064,-0.864492,0.35,-5.81,-6.86
132,213923,0.451888,-0.038064,-0.8605879999999999,0.385,-5.9325,-6.8425
133,214021,0.45383999999999997,-0.038308,-0.863028,0.35,-5.95,-6.825
134,214119,0.45603599999999994,-0.037576,-0.8637601,0.315,-5.985,-6.825
135,214217,0.45457200000000003,-0.040748,-0.865956,0.2975,-5.95,-6.8775
136,214315,0.452376,-0.037332,-0.864492,0.28,-6.0375,-6.9125
137,214413,0.4514,-0.037576,-0.8640040000000001,0.2625,-5.985,-6.895
138,214511,0.45286400000000004,-0.039772,-0.8652241,0.35,-5.95,-6.9475
139,214609,0.45018,-0.036112,-0.864492,0.2975,-5.95,-6.93
140,214707,0.451888,-0.039284,-0.8642481,0.385,-5.9325,-6.86
141,214805,0.45115600000000006,-0.036844,-0.8637601,0.455,-5.7575,-6.755
142,214903,0.4514,-0.037088,-0.8640040000000001,0.455,-5.7575,-6.755
143,215001,0.44944799999999996,-0.036844,-0.862296,0.525,-5.81,-6.7375
144,215099,0.45261999999999997,-0.03782,-0.8632719999999999,0.42,-5.635,-6.685
145,215197,0.454084,-0.0366,-0.8647360000000001,0.455,-5.6,-6.755
146,215295,0.452376,-0.038308,-0.863028,0.49,-5.6875,-6.7725
147,215393,0.4514,-0.036844,-0.8642481,0.455,-5.7575,-6.755
148,215491,0.454084,-0.038551999999999996,-0.8647360000000001,0.4375,-5.775,-6.7725
149,215589,0.453108,-0.0366,-0.865468,0.4725,-5.7575,-6.79
150,215687,0.45432799999999995,-0.037576,-0.8637601,0.5075,-5.7925,-6.8075
151,215786,0.452376,-0.03782,-0.8640040000000001,0.42,-5.845,-6.7725
152,215884,0.45261999999999997,-0.03904,-0.8652241,0.42,-5.7925,-6.895
153,215982,0.453596,-0.036844,-0.864492,0.42,-5.8275,-6.86
154,216080,0.45457200000000003,-0.0366,-0.8652241,0.42,-5.8275,-6.895
155,216178,0.450424,-0.035136,-0.8652241,0.455,-5.74,-6.86
156,216276,0.45286400000000004,-0.037576,-0.865956,0.5425,-5.7925,-6.86
157,216374,0.45261999999999997,-0.036112,-0.8662001,0.525,-5.775,-6.72
158,216472,0.453596,-0.035624,-0.8632719999999999,0.5775,-5.81,-6.72
159,216570,0.45335200000000003,-0.040016,-0.86498,0.56,-5.8275,-6.685
160,216668,0.453596,-0.034892,-0.8652241,0.5075,-5.8275,-6.6675
161,216766,0.458476,-0.040504000000000005,-0.8625401,0.5425,-5.7925,-6.615
162,216864,0.45725600000000005,-0.038308,-0.8652241,0.385,-6.0025,-6.65
163,216962,0.45506,-0.039528,-0.8647360000000001,0.35,-6.1075,-6.72
164,217060,0.45506,-0.039772,-0.864492,0.2275,-6.265,-6.8775
165,217158,0.453596,-0.04148,-0.8657120999999999,0.0875,-6.405,-7.0175
166,217256,0.452376,-0.039528,-0.861808,-0.07,-6.475,-7.1225
167,217354,0.44944799999999996,-0.037576,-0.8620521000000001,-0.105,-6.545,-7.035
168,217452,0.44554399999999994,-0.037088,-0.8610761,0.0,-6.475,-7.0175
169,217550,0.44896,-0.036112,-0.86498,0.07,-6.2825,-6.9475
170,217648,0.446032,-0.036356,-0.862296,0.1925,-6.1425,-6.8775
171,217747,0.4453,-0.031964,-0.8647360000000001,0.1225,-6.16,-6.86
172,217845,0.44725200000000004,-0.036112,-0.863516,0.2275,-6.02,-6.895
173,217943,0.450668,-0.037332,-0.8642481,0.2275,-5.8275,-6.965
174,218041,0.44993599999999995,-0.033916,-0.864492,0.28,-5.8275,-6.9125
175,218139,0.45286400000000004,-0.03538,-0.8674200000000001,0.315,-5.8625,-6.8775
176,218237,0.45115600000000006,-0.0366,-0.865468,0.4025,-5.8275,-6.7375
177,218335,0.450424,-0.036844,-0.865468,0.42,-5.7575,-6.5975
178,218433,0.449692,-0.038796,-0.86498,0.49,-5.81,-6.685
179,218531,0.45115600000000006,-0.0366,-0.865468,0.4725,-5.81,-6.755
180,218629,0.449204,-0.037088,-0.8674200000000001,0.42,-5.845,-6.7375
181,218727,0.45018,-0.037332,-0.8662001,0.455,-5.74,-6.7025
182,218825,0.45164399999999993,-0.036844,-0.8652241,0.525,-5.67,-6.72
183,218923,0.45261999999999997,-0.037332,-0.8642481,0.5775,-5.775,-6.79
184,219021,0.452132,-0.035868000000000004,-0.8662001,0.49,-5.8275,-6.825
185,219119,0.451888,-0.03782,-0.8652241,0.4725,-5.7225,-6.7725
186,219217,0.4514,-0.037088,-0.864492,0.42,-5.775,-6.8425
187,219315,0.451888,-0.038551999999999996,-0.8647360000000001,0.3675,-5.8975,-6.79
188,219413,0.452132,-0.037088,-0.865956,0.35,-6.1075,-6.9125
189,219511,0.45115600000000006,-0.037576,-0.8657120999999999,0.21,-6.09,-6.86
190,219610,0.450912,-0.03782,-0.8632719999999999,0.1225,-6.1425,-6.8775
191,219708,0.44896,-0.037088,-0.8637601,0.1575,-6.195,-6.9475
192,219806,0.44773999999999997,-0.036112,-0.863028,0.1575,-6.125,-7.0
193,219904,0.452132,-0.037576,-0.8640040000000001,0.14,-6.1425,-6.9475
194,220002,0.44847200000000004,-0.037088,-0.8632719999999999,0.07,-6.2125,-6.965
195,220100,0.449204,-0.035136,-0.8613200000000001,0.035,-6.195,-6.9125
196,220198,0.44383599999999995,-0.035136,-0.86498,0.1575,-6.125,-6.9125
197,220296,0.44676400000000005,-0.035624,-0.861808,0.245,-6.0025,-6.965
198,220394,0.44676400000000005,-0.035136,-0.862296,0.2275,-5.985,-6.9475
199,220492,0.445788,-0.03172,-0.8637601,0.245,-5.8975,-6.9825
200,220590,0.450424,-0.034404000000000004,-0.8640040000000001,0.3675,-5.775,-6.895
201,220688,0.44822799999999996,-0.034892,-0.862296,0.4375,-5.775,-6.895
202,220786,0.449204,-0.034404000000000004,-0.863028,0.35,-5.775,-6.8425
203,220884,0.44847200000000004,-0.0366,-0.8652241,0.4725,-5.845,-6.86
204,220982,0.44725200000000004,-0.032695999999999996,-0.8671761,0.4725,-5.775,-6.79
205,221080,0.44773999999999997,-0.036356,-0.862784,0.6125,-5.7225,-6.7725
206,221178,0.447984,-0.033916,-0.8637601,0.665,-5.67,-6.72
207,221276,0.448716,-0.034404000000000004,-0.8625401,0.665,-5.5475,-6.72
208,221375,0.44847200000000004,-0.035136,-0.864492,0.735,-5.5825,-6.6325
209,221473,0.449204,-0.036112,-0.865956,0.7175,-5.6175,-6.6325
210,221571,0.449692,-0.0366,-0.8674200000000001,0.7175,-5.6525,-6.5625
211,221669,0.449692,-0.0366,-0.8666879999999999,0.7,-5.6,-6.7375
212,221767,0.44896,-0.03416,-0.8657120999999999,0.7525,-5.5125,-6.65
213,221865,0.44993599999999995,-0.0366,-0.8637601,0.7875,-5.565,-6.6325
214,221963,0.450912,-0.036356,-0.8652241,0.805,-5.46,-6.5975
215,222061,0.450668,-0.036844,-0.8640040000000001,0.8575,-5.5825,-6.65
216,222159,0.449692,-0.036356,-0.8657120999999999,0.7875,-5.5475,-6.615
217,222257,0.447496,-0.036112,-0.8613200000000001,0.6825,-5.6175,-6.6325
218,222355,0.446276,-0.037576,-0.8615640999999999,0.6475,-5.6875,-6.65
219,222453,0.4453,-0.032695999999999996,-0.8637601,0.595,-5.6175,-6.685
220,222551,0.44676400000000005,-0.031964,-0.865468,0.7175,-5.5825,-6.7025
221,222649,0.44993599999999995,-0.03782,-0.8657120999999999,0.8225,-5.4075,-6.7375
222,222747,0.45115600000000006,-0.033184,-0.865468,0.875,-5.39,-6.685
223,222845,0.44944799999999996,-0.035868000000000004,-0.8652241,0.8225,-5.3725,-6.5625
224,222943,0.44944799999999996,-0.03782,-0.8647360000000001,0.8925,-5.3375,-6.545
225,223041,0.4514,-0.033672,-0.863516,0.91,-5.355,-6.615
226,223139,0.453596,-0.037332,-0.86498,0.91,-5.425,-6.58
227,223238,0.45115600000000006,-0.03782,-0.8647360000000001,0.8575,-5.4775,-6.65
228,223336,0.45335200000000003,-0.035624,-0.8662001,0.6475,-5.5475,-6.6675
229,223434,0.45286400000000004,-0.0366,-0.8632719999999999,0.5775,-5.7225,-6.7375
230,223532,0.45115600000000006,-0.033428,-0.8652241,0.525,-5.705,-6.8075
231,223630,0.447984,-0.035624,-0.863028,0.4725,-5.8275,-6.8075
232,223728,0.449204,-0.036844,-0.8652241,0.5775,-5.7575,-6.8075
233,223826,0.449692,-0.035624,-0.8652241,0.6125,-5.7225,-6.7375
234,223924,0.44847200000000004,-0.0366,-0.8637601,0.665,-5.6525,-6.6675
235,224022,0.44554399999999994,-0.033428,-0.86498,0.735,-5.705,-6.6325
236,224120,0.448716,-0.036356,-0.8642481,0.7875,-5.5825,-6.7025
237,224218,0.450912,-0.037332,-0.86498,0.77,-5.4775,-6.7725
238,224316,0.448716,-0.036844,-0.8642481,0.77,-5.46,-6.7375
239,224414,0.447496,-0.03538,-0.863028,0.8225,-5.39,-6.615
240,224512,0.450424,-0.038796,-0.863028,0.91,-5.46,-6.58
241,224610,0.450912,-0.035624,-0.865468,0.9625,-5.4075,-6.65
242,224708,0.44652,-0.03416,-0.8652241,0.91,-5.2675,-6.5975
243,224806,0.4514,-0.039284,-0.86498,0.945,-5.2675,-6.65
244,224905,0.44773999999999997,-0.035624,-0.8637601,0.945,-5.2675,-6.615
245,225003,0.45164399999999993,-0.037332,-0.8647360000000001,1.015,-5.2325,-6.475
246,225101,0.450424,-0.036844,-0.8642481,1.0325,-5.1975,-6.545
247,225199,0.453596,-0.037576,-0.8647360000000001,1.015,-5.285,-6.5975
248,225297,0.452376,-0.037332,-0.8637601,1.0325,-5.39,-6.51
249,225395,0.451888,-0.037576,-0.8642481,0.98,-5.4075,-6.5275
250,225493,0.45286400000000004,-0.0366,-0.8647360000000001,0.805,-5.39,-6.5625
251,225591,0.45164399999999993,-0.037576,-0.864492,0.875,-5.53,-6.65
252,225689,0.450668,-0.035624,-0.8642481,0.8575,-5.46,-6.685
253,225787,0.449692,-0.035624,-0.8632719999999999,0.805,-5.4425,-6.685
254,225885,0.44944799999999996,-0.038064,-0.8662001,0.8225,-5.5125,-6.65
255,225983,0.44944799999999996,-0.035868000000000004,-0.864492,0.805,-5.4775,-6.6325
256,226081,0.45164399999999993,-0.03904,-0.8652241,0.91,-5.3375,-6.5625
257,226179,0.45383999999999997,-0.03538,-0.8652241,0.8925,-5.355,-6.615
258,226277,0.45383999999999997,-0.036112,-0.8642481,0.8575,-5.3375,-6.58
259,226375,0.454816,-0.037088,-0.8647360000000001,0.8925,-5.46,-6.5975
260,226473,0.452132,-0.036356,-0.8642481,0.8225,-5.53,-6.6325
261,226571,0.453108,-0.037332,-0.863028,0.735,-5.6,-6.685
262,226669,0.45383999999999997,-0.0366,-0.8647360000000001,0.7525,-5.6875,-6.7375
263,226768,0.45261999999999997,-0.036356,-0.864492,0.7175,-5.6875,-6.6675
264,226866,0.45018,-0.037088,-0.862296,0.7175,-5.6525,-6.58
265,226964,0.450912,-0.036112,-0.86498,0.6125,-5.74,-6.7725
266,227062,0.45286400000000004,-0.036356,-0.865956,0.56,-5.7925,-6.79
267,227160,0.44944799999999996,-0.036844,-0.8632719999999999,0.6125,-5.7225,-6.72
268,227258,0.450424,-0.036356,-0.8647360000000001,0.595,-5.775,-6.6675
269,227356,0.451888,-0.038796,-0.864492,0.6475,-5.6175,-6.755
270,227454,0.44944799999999996,-0.036112,-0.864492,0.6125,-5.5475,-6.7375
271,227552,0.4514,-0.035624,-0.865956,0.7525,-5.5125,-6.65
272,227650,0.449204,-0.0366,-0.863516,0.805,-5.495,-6.615
273,227748,0.449692,-0.038308,-0.865468,0.7875,-5.425,-6.615
274,227846,0.45018,-0.03904,-0.862784,0.875,-5.4075,-6.7025
275,227944,0.450912,-0.038064,-0.862784,0.8400001,-5.3375,-6.685
276,228042,0.45261999999999997,-0.035136,-0.8647360000000001,0.77,-5.3725,-6.7025
277,228140,0.45286400000000004,-0.036356,-0.865956,0.77,-5.4425,-6.685
278,228238,0.45383999999999997,-0.038064,-0.8642481,0.805,-5.425,-6.615
279,228336,0.44993599999999995,-0.033672,-0.8647360000000001,0.8400001,-5.425,-6.6325
280,228434,0.45286400000000004,-0.038064,-0.8637601,0.77,-5.5475,-6.7375
281,228532,0.451888,-0.035868000000000004,-0.865468,0.735,-5.565,-6.755
282,228630,0.45383999999999997,-0.038551999999999996,-0.8657120999999999,0.6825,-5.705,-6.79
283,228729,0.45286400000000004,-0.03782,-0.861808,0.595,-5.6525,-6.8425
284,228827,0.45286400000000004,-0.035868000000000004,-0.865468,0.595,-5.6525,-6.9125
285,228925,0.453108,-0.035624,-0.8657120999999999,0.6125,-5.6525,-6.7375
286,229023,0.45115600000000006,-0.038796,-0.86498,0.6475,-5.6875,-6.8075
287,229121,0.45286400000000004,-0.035136,-0.8662001,0.6475,-5.7225,-6.7025
288,229219,0.45286400000000004,-0.036112,-0.8652241,0.665,-5.635,-6.6675
289,229317,0.44944799999999996,-0.037332,-0.864492,0.63,-5.635,-6.79
290,229415,0.452132,-0.036112,-0.8642481,0.665,-5.6875,-6.7725
291,229513,0.451888,-0.0366,-0.8642481,0.7,-5.6,-6.6325
292,229611,0.450668,-0.036112,-0.8640040000000001,0.6475,-5.6175,-6.685
293,229709,0.45018,-0.03904,-0.86498,0.665,-5.67,-6.7025
294,229807,0.4514,-0.037088,-0.8637601,0.7175,-5.6175,-6.755
295,229905,0.452132,-0.036844,-0.86498,0.6825,-5.6525,-6.8075
296,230003,0.451888,-0.034892,-0.865468,0.6475,-5.495,-6.7725
297,230101,0.451888,-0.035868000000000004,-0.86498,0.6825,-5.495,-6.65
298,230199,0.45286400000000004,-0.037332,-0.8652241,0.7875,-5.53,-6.65
299,230297,0.45164399999999993,-0.036844,-0.864492,0.7525,-5.53,-6.65
300,230395,0.45164399999999993,-0.035868000000000004,-0.864492,0.7525,-5.4775,-6.65
301,230493,0.451888,-0.036844,-0.863516,0.735,-5.5825,-6.65
302,230591,0.452376,-0.037332,-0.863516,0.6125,-5.6,-6.6675
303,230690,0.45383999999999997,-0.036356,-0.864492,0.665,-5.6525,-6.7375
304,230788,0.450912,-0.038064,-0.862784,0.665,-5.635,-6.755
305,230886,0.450668,-0.03538,-0.8620521000000001,0.63,-5.6875,-6.72
306,230984,0.450912,-0.03538,-0.863028,0.7175,-5.705,-6.685
307,231082,0.45164399999999993,-0.034892,-0.864492,0.735,-5.6175,-6.65
308,231180,0.452132,-0.035624,-0.865468,0.7175,-5.5825,-6.65
309,231278,0.450668,-0.036844,-0.8632719999999999,0.77,-5.6,-6.65
310,231376,0.45115600000000006,-0.038064,-0.863516,0.805,-5.565,-6.5975
311,231474,0.45286400000000004,-0.03782,-0.86498,0.7,-5.6175,-6.6675
312,231572,0.449692,-0.03538,-0.86498,0.6825,-5.565,-6.685
313,231670,0.44993599999999995,-0.039772,-0.8640040000000001,0.665,-5.5125,-6.6675
314,231768,0.4514,-0.037576,-0.863028,0.6125,-5.46,-6.7375
315,231866,0.450912,-0.039284,-0.8640040000000001,0.7175,-5.425,-6.6675
316,231964,0.450424,-0.036844,-0.8652241,0.6825,-5.3725,-6.7025
317,232062,0.450668,-0.038551999999999996,-0.8625401,0.6825,-5.4075,-6.7025
318,232161,0.450668,-0.03782,-0.864492,0.6825,-5.495,-6.7725
319,232259,0.45286400000000004,-0.035624,-0.865468,0.6825,-5.46,-6.65
320,232357,0.45335200000000003,-0.036356,-0.8640040000000001,0.7175,-5.46,-6.6675
321,232455,0.453108,-0.038796,-0.8647360000000001,0.665,-5.4775,-6.5975
322,232553,0.453108,-0.037332,-0.8632719999999999,0.7525,-5.53,-6.6675
323,232651,0.45383999999999997,-0.037576,-0.8632719999999999,0.7175,-5.6,-6.755
324,232749,0.454816,-0.037576,-0.8637601,0.665,-5.6875,-6.72
325,232847,0.45603599999999994,-0.037332,-0.8640040000000001,0.6475,-5.6525,-6.7025
326,232945,0.4553041,-0.038796,-0.8632719999999999,0.6475,-5.67,-6.7725
327,233043,0.45164399999999993,-0.03538,-0.8652241,0.6125,-5.74,-6.685
328,233141,0.45286400000000004,-0.038551999999999996,-0.8632719999999999,0.6475,-5.705,-6.685
329,233239,0.4514,-0.037576,-0.862784,0.6125,-5.7225,-6.6325
330,233337,0.45383999999999997,-0.039528,-0.8625401,0.6475,-5.6525,-6.8075
331,233435,0.452132,-0.036112,-0.8637601,0.6825,-5.6,-6.685
332,233533,0.454084,-0.0366,-0.864492,0.7175,-5.6,-6.7025
333,233631,0.454084,-0.03782,-0.863516,0.7175,-5.6175,-6.6325
334,233729,0.45164399999999993,-0.037332,-0.8642481,0.665,-5.6175,-6.5975
335,233827,0.45432799999999995,-0.038551999999999996,-0.8662001,0.6125,-5.565,-6.6675
336,233925,0.45457200000000003,-0.038064,-0.864492,0.595,-5.6875,-6.65
337,234024,0.451888,-0.03538,-0.8625401,0.665,-5.6525,-6.755
338,234122,0.451888,-0.036112,-0.865468,0.5775,-5.7225,-6.7025
339,234220,0.451888,-0.036844,-0.8647360000000001,0.5775,-5.74,-6.79
340,234318,0.450668,-0.0366,-0.863028,0.56,-5.7225,-6.7725
341,234416,0.450668,-0.040992,-0.8657120999999999,0.63,-5.7225,-6.7025
342,234514,0.45286400000000004,-0.038551999999999996,-0.8640040000000001,0.6125,-5.67,-6.685
343,234612,0.45286400000000004,-0.037576,-0.86498,0.665,-5.6175,-6.7025
344,234710,0.452376,-0.0366,-0.8637601,0.735,-5.635,-6.6325
345,234808,0.45164399999999993,-0.037088,-0.8647360000000001,0.7175,-5.6,-6.65
346,234906,0.452376,-0.038796,-0.8632719999999999,0.7175,-5.6175,-6.615
347,235004,0.45261999999999997,-0.038064,-0.862784,0.7175,-5.5125,-6.685
348,235102,0.45261999999999997,-0.038064,-0.8640040000000001,0.735,-5.495,-6.65
349,235200,0.453596,-0.037088,-0.864492,0.7525,-5.5125,-6.65
350,235298,0.4514,-0.03904,-0.863028,0.7,-5.495,-6.6675
351,235396,0.453108,-0.03538,-0.8647360000000001,0.6475,-5.5125,-6.6675
352,235494,0.45261999999999997,-0.038308,-0.864492,0.735,-5.565,-6.755
353,235592,0.45335200000000003,-0.037332,-0.862296,0.6825,-5.6,-6.7025
354,235690,0.45335200000000003,-0.0366,-0.8632719999999999,0.665,-5.6,-6.755
355,235789,0.45286400000000004,-0.037576,-0.864492,0.7,-5.6875,-6.7725
356,235887,0.45261999999999997,-0.0366,-0.8647360000000001,0.5775,-5.705,-6.7025
357,235985,0.45164399999999993,-0.036844,-0.8632719999999999,0.5775,-5.6175,-6.72
358,236083,0.450912,-0.036356,-0.8642481,0.6125,-5.6875,-6.755
359,236181,0.45335200000000003,-0.037332,-0.8642481,0.6125,-5.6175,-6.7725
360,236279,0.452376,-0.03782,-0.863028,0.6475,-5.5825,-6.6675
361,236377,0.45261999999999997,-0.037088,-0.864492,0.735,-5.53,-6.6325
362,236475,0.45506,-0.03782,-0.863516,0.6825,-5.6,-6.6675
363,236573,0.453108,-0.038551999999999996,-0.8613200000000001,0.6825,-5.5125,-6.615
364,236671,0.452132,-0.038064,-0.8640040000000001,0.6825,-5.5475,-6.6325
365,236769,0.451888,-0.036112,-0.8642481,0.63,-5.6,-6.72
366,236867,0.45335200000000003,-0.037576,-0.863516,0.595,-5.6175,-6.65
367,236965,0.45261999999999997,-0.038064,-0.8637601,0.63,-5.565,-6.7375
368,237063,0.452132,-0.037332,-0.8640040000000001,0.6475,-5.565,-6.7375
369,237162,0.451888,-0.037332,-0.863028,0.63,-5.5125,-6.6675
370,237260,0.453108,-0.033428,-0.8662001,0.6475,-5.46,-6.685
371,237358,0.45164399999999993,-0.036844,-0.8637601,0.7175,-5.5475,-6.6325
372,237456,0.45335200000000003,-0.036112,-0.864492,0.6825,-5.46,-6.5975
373,237554,0.44944799999999996,-0.037332,-0.863028,0.6825,-5.53,-6.7025
374,237652,0.45164399999999993,-0.036844,-0.8637601,0.665,-5.53,-6.6325
375,237750,0.45506,-0.037088,-0.8642481,0.7,-5.53,-6.7025
376,237848,0.450668,-0.036112,-0.8632719999999999,0.6475,-5.5475,-6.755
377,237946,0.453108,-0.038308,-0.8637601,0.6825,-5.5125,-6.755
378,238044,0.45286400000000004,-0.040260000000000004,-0.865468,0.6475,-5.5125,-6.755
379,238142,0.452132,-0.038551999999999996,-0.8625401,0.6475,-5.5825,-6.86
380,238241,0.45554799999999995,-0.038308,-0.8632719999999999,0.595,-5.5475,-6.8075
381,238338,0.454816,-0.037332,-0.8632719999999999,0.63,-5.5825,-6.8075
382,238436,0.4514,-0.038551999999999996,-0.8620521000000001,0.56,-5.53,-6.86
383,238534,0.452376,-0.036112,-0.864492,0.6125,-5.5125,-6.79
384,238633,0.45164399999999993,-0.035868000000000004,-0.8642481,0.5775,-5.635,-6.7725
385,238731,0.452132,-0.037332,-0.863028,0.595,-5.5475,-6.755
386,238829,0.450424,-0.036112,-0.863516,0.595,-5.5825,-6.86
387,238927,0.453108,-0.035136,-0.863516,0.665,-5.6175,-6.8425
388,239025,0.45457200000000003,-0.038064,-0.862296,0.6125,-5.5825,-6.825
389,239123,0.45432799999999995,-0.036844,-0.863516,0.595,-5.6,-6.755
390,239221,0.45261999999999997,-0.038796,-0.8620521000000001,0.5775,-5.5825,-6.685
391,239319,0.45432799999999995,-0.03782,-0.8637601,0.6125,-5.5475,-6.755
392,239417,0.456524,-0.038308,-0.863028,0.6125,-5.5475,-6.7025
393,239515,0.45628,-0.03904,-0.863028,0.595,-5.5125,-6.6325
394,239613,0.452376,-0.036356,-0.862784,0.6125,-5.6,-6.7025
395,239711,0.4514,-0.036356,-0.8637601,0.56,-5.6525,-6.79
396,239809,0.45164399999999993,-0.037576,-0.862296,0.5775,-5.67,-6.79
397,239907,0.452376,-0.036356,-0.8642481,0.56,-5.74,-6.7725
398,240005,0.450912,-0.0366,-0.8632719999999999,0.5775,-5.6,-6.79
399,240103,0.45261999999999997,-0.036844,-0.863028,0.63,-5.6525,-6.755
400,240201,0.45164399999999993,-0.035868000000000004,-0.8640040000000001,0.665,-5.6875,-6.755
401,240299,0.453108,-0.037088,-0.8640040000000001,0.63,-5.4425,-6.7375
402,240397,0.45261999999999997,-0.03782,-0.862296,0.6475,-5.495,-6.7025
403,240496,0.45335200000000003,-0.036112,-0.8640040000000001,0.63,-5.53,-6.7025
404,240594,0.45261999999999997,-0.037576,-0.8613200000000001,0.6475,-5.4775,-6.72
405,240692,0.454084,-0.038796,-0.8637601,0.665,-5.425,-6.7375
406,240790,0.45115600000000006,-0.035868000000000004,-0.863516,0.7,-5.5475,-6.8075
407,240888,0.452132,-0.038064,-0.8610761,0.7175,-5.46,-6.685
408,240986,0.453108,-0.036356,-0.8637601,0.665,-5.4775,-6.7025
409,241084,0.453108,-0.037576,-0.862296,0.665,-5.5825,-6.65
410,241182,0.45286400000000004,-0.036844,-0.8632719999999999,0.665,-5.6,-6.6675
411,241280,0.452376,-0.036844,-0.8610761,0.595,-5.4425,-6.72
412,241378,0.453108,-0.037088,-0.8632719999999999,0.63,-5.39,-6.7725
413,241476,0.454084,-0.039284,-0.864492,0.7175,-5.5125,-6.79
414,241574,0.453596,-0.03538,-0.8632719999999999,0.63,-5.46,-6.8075
415,241672,0.4553041,-0.038064,-0.863516,0.7,-5.4775,-6.755
416,241770,0.45579200000000003,-0.038551999999999996,-0.8637601,0.665,-5.6525,-6.7375
417,241868,0.45457200000000003,-0.040992,-0.8625401,0.6475,-5.39,-6.615
418,241966,0.45335200000000003,-0.035868000000000004,-0.865956,0.4025,-5.67,-6.8075
419,242065,0.451888,-0.03538,-0.86498,0.4725,-5.7225,-6.965
420,242163,0.451888,-0.036356,-0.863516,0.4375,-5.7225,-6.8775
421,242261,0.452132,-0.035868000000000004,-0.8637601,0.385,-5.775,-6.8425
422,242359,0.45261999999999997,-0.0366,-0.863028,0.455,-5.705,-6.9125
423,242457,0.454816,-0.037576,-0.863028,0.5075,-5.6,-6.93
424,242555,0.45506,-0.038551999999999996,-0.863028,0.595,-5.6525,-6.93
425,242653,0.4514,-0.035868000000000004,-0.8640040000000001,0.6125,-5.4775,-6.8075
426,242751,0.45115600000000006,-0.037088,-0.864492,0.595,-5.4075,-6.755
427,242849,0.450912,-0.037088,-0.863516,0.665,-5.4425,-6.7025
428,242947,0.452132,-0.037088,-0.863516,0.6125,-5.4775,-6.79
429,243045,0.453596,-0.036112,-0.863028,0.63,-5.4075,-6.685
430,243143,0.45383999999999997,-0.03782,-0.8613200000000001,0.5775,-5.46,-6.72
431,243241,0.45579200000000003,-0.038308,-0.8632719999999999,0.525,-5.53,-6.7375
432,243339,0.457744,-0.039528,-0.863516,0.6125,-5.4775,-6.65
433,243437,0.453596,-0.0366,-0.861808,0.6825,-5.5125,-6.7025
434,243536,0.45628,-0.03782,-0.865468,0.7,-5.53,-6.72
435,243634,0.456524,-0.037332,-0.86498,0.595,-5.4425,-6.755
436,243732,0.45579200000000003,-0.038796,-0.8652241,0.63,-5.5125,-6.7375
437,243830,0.45457200000000003,-0.03904,-0.8642481,0.6125,-5.5475,-6.7725
438,243928,0.45383999999999997,-0.040016,-0.8640040000000001,0.6475,-5.705,-6.7725
439,244026,0.45628,-0.038551999999999996,-0.8642481,0.56,-5.74,-6.7375
440,244124,0.45554799999999995,-0.037576,-0.863028,0.525,-5.845,-6.825
441,244222,0.45335200000000003,-0.03782,-0.863516,0.49,-5.7925,-6.8425
442,244320,0.454816,-0.038308,-0.862784,0.3675,-5.8275,-6.825
443,244418,0.452376,-0.035136,-0.8637601,0.385,-5.8975,-6.9125
444,244516,0.451888,-0.0366,-0.8642481,0.4025,-5.88,-6.8775
445,244614,0.452376,-0.0366,-0.8625401,0.4375,-5.8275,-6.8075
446,244712,0.452132,-0.036356,-0.8632719999999999,0.49,-5.775,-6.7375
447,244810,0.45261999999999997,-0.037332,-0.8605879999999999,0.5075,-5.7925,-6.8075
448,244908,0.45383999999999997,-0.03782,-0.8608319999999999,0.455,-5.705,-6.79
449,245007,0.45286400000000004,-0.035136,-0.862784,0.56,-5.7225,-6.8075
450,245105,0.454084,-0.035868000000000004,-0.8632719999999999,0.595,-5.6875,-6.7725
451,245203,0.45286400000000004,-0.038064,-0.861808,0.6125,-5.6875,-6.7725
452,245301,0.45628,-0.038064,-0.863028,0.5425,-5.635,-6.8075
453,245399,0.453596,-0.0366,-0.8632719999999999,0.5425,-5.635,-6.8075
454,245497,0.45506,-0.03782,-0.8615640999999999,0.5775,-5.67,-6.755
455,245595,0.45628,-0.03904,-0.862296,0.56,-5.7225,-6.7375
456,245693,0.45286400000000004,-0.038308,-0.8613200000000001,0.525,-5.81,-6.72
457,245791,0.45383999999999997,-0.035868000000000004,-0.8610761,0.4725,-5.8625,-6.755
458,245889,0.454816,-0.037088,-0.8605879999999999,0.4725,-5.8625,-6.895
459,245987,0.454084,-0.03416,-0.8637601,0.4725,-5.8625,-6.79
460,246085,0.453108,-0.03782,-0.860344,0.385,-5.8625,-6.79
461,246183,0.453108,-0.038064,-0.8610761,0.49,-5.8975,-6.755
462,246281,0.45286400000000004,-0.035624,-0.8632719999999999,0.49,-5.8625,-6.8425
463,246379,0.45628,-0.036844,-0.8642481,0.42,-5.7925,-6.8775
464,246478,0.4514,-0.034892,-0.864492,0.4025,-5.7225,-6.79
465,246576,0.45335200000000003,-0.039528,-0.8632719999999999,0.525,-5.6525,-6.8075
466,246674,0.450912,-0.035624,-0.8642481,0.595,-5.7225,-6.86
467,246772,0.45286400000000004,-0.035624,-0.863028,0.6125,-5.6875,-6.8075
468,246870,0.45115600000000006,-0.037332,-0.8640040000000001,0.5075,-5.565,-6.8075
469,246968,0.453108,-0.036844,-0.8601,0.5775,-5.635,-6.825
470,247066,0.45261999999999997,-0.037332,-0.859856,0.5775,-5.5475,-6.825
471,247164,0.452376,-0.034404000000000004,-0.8632719999999999,0.665,-5.635,-6.825
472,247262,0.453108,-0.035136,-0.862784,0.6125,-5.6525,-6.7725
473,247360,0.45335200000000003,-0.035868000000000004,-0.8632719999999999,0.665,-5.565,-6.72
474,247458,0.454084,-0.035624,-0.8662001,0.63,-5.6175,-6.7725
475,247556,0.45286400000000004,-0.037576,-0.8615640999999999,0.595,-5.53,-6.7725
476,247654,0.45286400000000004,-0.03904,-0.8605879999999999,0.525,-5.5125,-6.7725
477,247752,0.451888,-0.035868000000000004,-0.8640040000000001,0.6125,-5.5825,-6.7025
478,247850,0.45164399999999993,-0.036356,-0.863516,0.6125,-5.6525,-6.79
479,247948,0.4514,-0.03538,-0.863028,0.5775,-5.53,-6.7725
480,248047,0.45261999999999997,-0.03538,-0.8640040000000001,0.5775,-5.5475,-6.755
481,248145,0.4514,-0.036356,-0.863516,0.5775,-5.635,-6.79
482,248243,0.454084,-0.034648000000000005,-0.8642481,0.56,-5.6525,-6.8075
483,248341,0.454816,-0.038308,-0.8620521000000001,0.49,-5.6175,-6.825
484,248439,0.45579200000000003,-0.035624,-0.8610761,0.56,-5.7225,-6.685
485,248537,0.456524,-0.035136,-0.862296,0.4725,-5.74,-6.7375
486,248635,0.457012,-0.038308,-0.8640040000000001,0.525,-5.8625,-6.79
487,248733,0.45457200000000003,-0.037576,-0.864492,0.4725,-5.88,-6.895
488,248831,0.454084,-0.036112,-0.861808,0.385,-5.915,-6.79
489,248929,0.45286400000000004,-0.036356,-0.8608319999999999,0.4375,-5.88,-6.8775
490,249027,0.45261999999999997,-0.0366,-0.8632719999999999,0.455,-5.9325,-6.8425
491,249125,0.453108,-0.033672,-0.863516,0.4725,-5.81,-6.86
492,249223,0.45261999999999997,-0.035624,-0.8652241,0.4375,-5.7225,-6.7375
493,249321,0.45871999999999996,-0.037332,-0.8725440999999999,0.5075,-5.845,-6.7725
494,249419,0.46042799999999995,-0.03782,-0.8669319999999999,1.085,-5.74,-6.6675
495,249517,0.46457600000000004,-0.032451999999999995,-0.8813280000000001,1.575,-5.53,-6.335
496,249615,0.45164399999999993,-0.039528,-0.8647360000000001,2.2575,-5.565,-6.2125
497,249713,0.453108,-0.038551999999999996,-0.862296,2.5375,-5.775,-5.9675
498,249811,0.45286400000000004,-0.038064,-0.8591241,2.3275,-5.81,-6.0025
499,249909,0.450668,-0.04148,-0.859368,1.7675,-5.81,-6.1425
500,250007,0.45432799999999995,-0.033672,-0.8605879999999999,1.4875,-5.845,-6.3175
501,250106,0.45603599999999994,-0.041236,-0.860344,1.2775,-5.8975,-6.37
502,250204,0.45335200000000003,-0.048556,-0.860344,0.8575,-6.125,-6.475
503,250302,0.45725600000000005,-0.036112,-0.8613200000000001,0.2975,-6.37,-6.72
504,250400,0.45432799999999995,-0.041724000000000004,-0.8574161,0.1225,-6.7025,-6.86
505,250498,0.44944799999999996,-0.037088,-0.859368,-0.2975,-6.86,-6.895
506,250596,0.42212,-0.03294,-0.8569280999999999,-0.5425,-6.9475,-7.1225
507,250694,0.43798000000000004,-0.033916,-0.8596120999999999,-0.245,-6.3875,-7.105
508,250792,0.452132,-0.038308,-0.8608319999999999,0.0175,-5.81,-6.93
509,250890,0.44725200000000004,-0.033428,-0.8608319999999999,0.14,-5.7925,-6.8075
510,250988,0.44993599999999995,-0.040504000000000005,-0.8637601,0.2625,-5.6525,-6.755
511,251086,0.450912,-0.035868000000000004,-0.8647360000000001,0.14,-5.4425,-6.825
512,251184,0.45261999999999997,-0.039528,-0.8657120999999999,0.105,-5.32,-6.8075
513,251282,0.45506,-0.040992,-0.868396,0.0525,-5.495,-6.825
514,251380,0.45579200000000003,-0.03538,-0.865468,0.0175,-5.495,-6.9475
515,251478,0.45506,-0.037088,-0.8676640999999999,0.0,-5.495,-7.0875
516,251576,0.45457200000000003,-0.03538,-0.864492,0.035,-5.6175,-7.1575
517,251674,0.454816,-0.036112,-0.8652241,0.035,-5.635,-7.07
518,251772,0.45261999999999997,-0.037576,-0.8615640999999999,0.0875,-5.6525,-6.965
519,251870,0.45286400000000004,-0.03538,-0.8640040000000001,0.1225,-5.6525,-7.0175
520,251969,0.45286400000000004,-0.035868000000000004,-0.8640040000000001,0.175,-5.6,-6.93
521,252067,0.45261999999999997,-0.036356,-0.8640040000000001,0.2275,-5.6875,-6.9825
522,252165,0.452132,-0.03538,-0.8662001,0.245,-5.705,-6.9125
523,252263,0.45506,-0.03538,-0.8647360000000001,0.2625,-5.6175,-6.9125
524,252361,0.454084,-0.03416,-0.864492,0.35,-5.775,-6.8775
525,252459,0.454084,-0.037332,-0.8608319999999999,0.28,-5.8275,-6.755
526,252557,0.45286400000000004,-0.034404000000000004,-0.865956,0.245,-5.915,-6.8775
527,252655,0.45286400000000004,-0.034892,-0.8647360000000001,0.2625,-5.985,-6.93
528,252753,0.45725600000000005,-0.034648000000000005,-0.8666879999999999,0.2975,-6.0375,-6.9125
529,252851,0.45993999999999996,-0.035624,-0.8693719999999999,0.455,-5.95,-6.8425
530,252949,0.459696,-0.039528,-0.868152,0.7525,-6.055,-6.825
531,253047,0.46726,-0.037576,-0.8759601,0.945,-6.0025,-6.6325
532,253145,0.4636,-0.044164,-0.869616,1.295,-6.16,-6.5275
533,253243,0.462136,-0.045872,-0.8679081,0.98,-6.44,-6.6325
534,253341,0.462136,-0.042456,-0.86498,0.3325,-6.475,-6.9125
535,253439,0.45993999999999996,-0.042456,-0.8613200000000001,-0.2975,-6.545,-7.21
536,253537,0.460916,-0.034892,-0.8723001,-0.875,-6.7375,-7.42
537,253635,0.46116,-0.037088,-0.8666879999999999,-0.9625,-6.7025,-7.455
538,253734,0.4553041,-0.040748,-0.86864,-1.1725,-6.6325,-7.49
539,253832,0.45115600000000006,-0.037088,-0.868396,-1.61,-6.4925,-7.7175
540,253930,0.444812,-0.044652,-0.8571719999999999,-2.0125,-6.3525,-7.8925
541,254028,0.444324,-0.036844,-0.8596120999999999,-2.9925,-6.3,-8.155
542,254126,0.439932,-0.030012,-0.8559521000000001,-3.255,-6.6675,-8.3125
543,254224,0.43066000000000004,-0.02928,-0.85644,-3.22,-6.6675,-8.19
544,254322,0.4331,-0.025863999999999998,-0.8527800999999999,-2.9925,-6.4925,-8.19
545,254420,0.438712,-0.015616,-0.8571719999999999,-2.4325,-6.125,-7.945
546,254518,0.438956,-0.017812,-0.8552200000000001,-1.7325,-5.8275,-7.525
547,254616,0.416264,-0.0051240009999999996,-0.8486319999999999,-0.6825,-5.4425,-6.9475
548,254714,0.40748,0.013663999999999999,-0.85156,0.91,-4.2,-6.3
549,254812,0.416508,0.009516001,-0.8493641,3.5175,-2.4675,-5.425
550,254910,0.423584,-0.007808001,-0.859856,6.265,-0.91,-4.3575
551,255008,0.42138809999999993,-0.006587999999999999,-0.865956,8.1375,0.5075,-3.4125
552,255107,0.41553199999999996,-0.010736,-0.873276,9.73,2.135,-2.17
553,255205,0.406748,-0.037332,-0.871568,10.4125,4.375,-1.33
554,255303,0.39113200000000004,-0.047824,-0.8786440999999999,10.465,7.56,-1.3125
555,255401,0.410652,-0.005612,-0.8954801,10.9025,11.83,-1.82
556,255499,0.438712,0.019764,-0.8918200000000001,12.1275,17.22,-1.5575
557,255597,0.373564,0.048556,-0.9269561,14.3325,23.38,-0.9625
558,255695,0.146156,0.083936,-1.072136,20.195,33.4775,-3.9725
559,255793,0.039528,-0.242048,-0.8820601,26.6525,48.0725,-12.5125
560,255891,0.20447200000000001,0.089304,-1.01626,18.235,74.4625,-15.6275
561,255989,0.158356,-0.012931999999999999,-0.9945440000000001,24.9025,94.29,-22.47
562,256087,0.233996,0.015372,-0.965996,30.73,113.575,-30.625
563,256185,0.39723200000000003,0.062952,-1.039196,36.4175,131.4425,-36.7675
564,256283,0.604876,-0.03782,-1.1285,52.08,142.1875,-36.715
565,256381,0.720532,-0.115656,-1.059204,64.41751,138.2325,-34.2125
566,256479,0.721996,-0.138104,-1.1407,70.4025,134.54,-40.2325
567,256577,0.396988,-0.107848,-1.0584719999999999,75.075,129.745,-51.0475
568,256675,0.142252,-0.220088,-1.40544,79.6425,121.485,-60.235
569,256773,0.404064,-0.418704,-1.899052,70.455,105.07,-61.9325
570,256872,0.371368,-0.5060560000000001,-2.009584,48.7375,65.415,-58.4675
571,256970,0.05246,-0.452376,-1.718004,23.4675,19.0925,-50.6975
572,257068,-0.260348,-0.333548,-1.3090600000000001,7.245,-14.8925,-38.92
573,257166,-0.440176,-0.235948,-1.040416,2.0125,-31.4125,-25.2875
574,257264,-0.426756,-0.181292,-1.004304,4.0425,-37.0475,-11.6375
575,257362,-0.327448,-0.161772,-1.090192,7.1575,-41.86,1.19
576,257460,-0.242292,-0.152988,-1.16998,6.755,-51.485,12.2675
577,257558,-0.19642,-0.12468399999999999,-1.193892,1.9425,-65.065,21.4025
578,257656,-0.17543599999999998,-0.07344400000000001,-1.164368,-4.6375,-79.2925,29.2775
579,257754,-0.15201199999999998,-0.020008,-1.1148360000000002,-10.71,-91.595,36.4525
580,257852,-0.11834000000000001,0.023668,-1.081408,-16.2925,-100.975,42.175
581,257950,-0.08466801,0.046116000000000004,-1.053348,-21.8575,-107.9225,45.9725
582,258048,-0.028304000000000003,0.066856,-1.059204,-28.1925,-112.455,48.055
583,258146,0.046360000000000005,0.077836,-1.1041,-34.51,-115.29,48.615
584,258244,0.12248800000000001,0.07393200000000001,-1.152168,-40.4425,-118.44,48.055
585,258342,0.182024,0.061488,-1.181692,-46.8475,-122.2725,46.6725
586,258440,0.236436,0.062464,-1.19926,-54.18,-125.5625,43.89
587,258538,0.282308,0.06490399999999999,-1.2134120000000002,-61.1275,-128.2225,40.11
588,258636,0.34038,0.07710399999999999,-1.2153639999999999,-65.8875,-129.4475,35.805
589,258735,0.386008,0.089304,-1.215608,-67.1125,-129.36,31.4825
590,258833,0.4453,0.08003201,-1.2099959999999998,-63.9975,-127.8375,27.44
591,258931,0.518012,0.05246,-1.208532,-57.6975,-124.915,23.835
592,259029,0.5997520000000001,0.021228,-1.198772,-50.33,-121.38,20.86
593,259127,0.6832,-0.02074,-1.18584,-43.1725,-117.6,18.7075
594,259225,0.73688,-0.07856801,-1.143384,-38.185,-114.415,16.4675
595,259323,0.7834840000000001,-0.098576,-1.096292,-37.135,-111.335,13.5625
596,259421,0.8317960999999999,-0.09882,-1.0504200000000001,-38.1675,-108.2725,10.4825
597,259519,0.8547319999999999,-0.1342,-0.9962521000000001,-38.0975,-105.9275,7.1575
598,259617,0.8935280999999999,-0.182756,-0.9501360999999999,-38.36,-103.9675,3.8325
599,259715,0.9630681000000001,-0.21276799999999998,-0.9386681,-40.775,-102.9525,0.8225
600,259813,1.013088,-0.26913200000000004,-0.90402,-44.24,-104.5625,-2.485
601,259911,1.030656,-0.349164,-0.8364321,-48.4925,-109.0775,-6.8775
602,260009,1.0643280000000002,-0.41284799999999994,-0.74054,-54.145,-114.8,-12.495
603,260107,1.136552,-0.402844,-0.6156119999999999,-56.665,-121.1,-20.0375
604,260205,1.2395200000000002,-0.278648,-0.445788,-47.9325,-126.385,-27.5975
605,260303,1.340048,0.007320001,-0.189832,-19.8275,-129.3425,-30.45
606,260401,1.3022280000000002,0.071492,0.228872,31.2025,-128.8175,-23.3625
607,260499,1.10532,-0.126636,0.74298,80.01,-116.7075,-11.0425
608,260597,0.155428,-0.8432639999999999,3.1690720000000003,90.30001,-55.0725,0.07
609,260696,0.403332,-0.027083999999999997,3.537268,13.23,79.4675,-13.3525
610,260794,0.821304,0.017324000000000003,1.63236,-35.42,213.92,-48.055
611,260892,1.628944,-0.24034,-3.066348,-20.3875,261.3625,-58.835
612,260990,1.6213799999999998,-0.309392,-1.814628,-16.9225,225.7325,-39.27
613,261088,0.6141479999999999,-0.270352,-0.527528,7.14,181.965,-7.665
614,261186,0.735904,-0.068564,-1.37006,12.25,179.5325,9.3625
615,261284,1.090436,0.107116,-1.2465959999999998,21.6825,176.7675,22.82
616,261382,1.15168,0.472628,-1.422764,24.0975,156.5375,22.855
617,261480,1.327604,0.47360399999999997,-1.5767280000000001,25.305,134.6275,9.555
618,261578,1.337608,0.03172,-1.561112,23.835,107.0475,-7.6125
619,261676,1.098732,-0.430172,-1.414712,17.8325,78.47,-13.79
620,261774,0.7998321,-0.30622,-1.15534,5.1625,58.0125,-9.4325
621,261872,1.087996,0.646844,-1.93248,-3.535,46.5675,-4.13
622,261970,0.8708360999999999,0.466528,-0.9840521000000001,26.355,17.395,-1.9425
623,262068,0.402844,-0.7415161,-1.101172,32.76,-4.8825,-4.445
624,262166,0.462624,-0.36966,-0.5665680000000001,16.6425,1.9425,0.1225
625,262264,0.49556400000000006,0.02562,-0.9962521000000001,-5.8275,-9.4675,-9.7825
626,262362,0.47775200000000007,0.000244,-0.9125601000000001,-4.6025,-11.4625,-11.0775
627,262460,0.522892,-0.088328,-0.8927959999999999,0.49,-9.03,-8.61
628,262559,0.43798000000000004,-0.006587999999999999,-0.8862081,-3.5525,-10.43,-9.765
629,262657,0.49898000000000003,-0.001464,-0.9028,-3.43,-9.485,-9.835
630,262755,0.4743361,0.017324000000000003,-0.8957241,-2.6075,-8.9425,-8.8375
631,262853,0.434076,0.017568,-0.883036,-1.9775,-8.05,-8.225
632,262951,0.41992399999999996,-0.019764,-0.869616,0.1225,-6.3175,-6.7725
633,263049,0.429684,-0.032695999999999996,-0.8596120999999999,0.385,-5.075,-6.65
634,263147,0.42285200000000006,-0.03172,-0.8605879999999999,0.0875,-4.5325,-6.9475
635,263245,0.433832,-0.02196,-0.8671761,0.0,-3.92,-6.8775
636,263343,0.438712,-0.018056,-0.877912,0.315,-3.4125,-6.5625
637,263441,0.44408000000000003,-0.02074,-0.879376,1.365,-2.5025,-5.88
638,263539,0.446276,-0.01586,-0.8801081000000001,2.2925,-1.5225,-5.215
639,263637,0.44505600000000006,-0.017324000000000003,-0.8796200000000001,3.5525,-0.735,-4.48
640,263735,0.438712,-0.020496,-0.8727879999999999,4.7425,0.0875,-3.9025
641,263833,0.439688,-0.021228,-0.87108,5.39,0.7525,-3.675
642,263931,0.43798000000000004,-0.024644,-0.87474,5.8625,1.295,-3.3075
643,264029,0.44993599999999995,-0.042944,-0.868152,6.3,1.6975,-3.22
644,264127,0.46457600000000004,-0.046604,-0.8662001,6.37,1.575,-3.5
645,264226,0.464088,-0.046360000000000005,-0.8701040000000001,6.2125,0.8925,-3.9725
646,264324,0.46726,-0.031476,-0.8679081,6.3175,0.3325,-4.1825
647,264422,0.45993999999999996,-0.01464,-0.8713241,6.58,-0.035,-3.9375
648,264520,0.454816,-0.010248,-0.871568,7.14,0.105,-3.08
649,264618,0.457988,-0.013663999999999999,-0.865956,7.4375,0.63,-2.1875
650,264716,0.448716,-0.033184,-0.864492,7.665,1.05,-1.505
651,264814,0.454816,-0.03904,-0.8586360000000001,7.8575,1.435,-1.4525
652,264912,0.454816,-0.036112,-0.858392,7.84,1.89,-1.68
653,265010,0.45628,-0.026108,-0.8640040000000001,7.91,2.2225,-1.7675
654,265108,0.46164799999999995,-0.032695999999999996,-0.863516,8.6625,2.9925,-1.33
655,265206,0.460672,-0.029768,-0.865956,9.205,3.955,-0.8225
656,265304,0.464088,-0.030012,-0.8547319999999999,9.695,4.4975,-0.315
657,265402,0.463844,-0.033672,-0.859368,10.71,4.69,0.2975
658,265500,0.452132,-0.050996,-0.8476561,12.11,4.97,0.6825
659,265598,0.41846000000000005,-0.054655999999999996,-0.8432639999999999,12.7225,4.935,0.735
660,265696,0.431148,-0.054167999999999994,-0.83814,13.0725,5.635,0.595
661,265794,0.416264,-0.040260000000000004,-0.845216,13.685,6.93,0.7175
662,265892,0.420412,-0.050263999999999996,-0.8586360000000001,14.91,9.1,1.3125
663,265990,0.435296,-0.051484,-0.854244,16.0825,11.7425,1.855
664,266088,0.43773599999999996,-0.07173600000000001,-0.8576601,17.675,15.365,2.31
665,266187,0.429684,-0.028792,-0.887916,18.2875,19.3025,3.045
666,266285,0.42822,-0.027572000000000003,-0.889868,21.1575,24.01,2.73
667,266383,0.388204,0.057096,-1.014308,25.2875,28.56,0.875
668,266481,0.356484,-0.01342,-0.9486720999999999,34.9825,33.25,-3.6225
669,266579,0.348432,-0.22643200000000002,-0.82594,33.7225,42.8575,-4.8475
670,266677,0.40894400000000003,0.044652,-0.9528200000000001,28.77,55.8075,-2.415
671,266775,0.446032,-0.09979600000000001,-0.843508,33.5475,65.1175,-1.7675
672,266873,0.5043479999999999,-0.024888,-0.8876719999999999,35.0,73.7275,-0.42
673,266971,0.503128,-0.15006,-0.8479,39.865,76.8775,1.54
674,267069,0.43432,-0.07490801,-0.9015799999999999,36.9775,81.2,-2.9925
675,267167,0.493612,-0.172508,-0.8988959999999999,42.805,89.32,-5.985
676,267265,0.365268,-0.08100801,-0.9947881,45.5525,99.10251,-10.08
677,267363,0.400648,-0.149816,-0.99918,45.36,112.14,-13.93
678,267461,0.429684,-0.047824,-1.074332,50.4175,126.945,-21.3325
679,267559,0.538996,-0.200324,-1.0784799999999999,61.1275,143.08,-28.7175
680,267657,0.7200439999999999,-0.276452,-1.170224,63.735,161.4725,-37.94
681,267755,0.706136,-0.204716,-1.320284,54.2675,181.79,-46.9175
682,267854,0.9828321,0.130296,-1.627968,61.495,215.7925,-45.255
683,267952,0.6851520999999999,0.099552,-1.856596,107.8,293.0725,-32.13
684,268050,0.274744,-0.19251600000000002,-1.6865279999999998,186.13,368.6025,-29.8375
685,268148,0.8256960999999999,-0.164212,-1.274656,174.3175,419.4925,-57.085
686,268246,0.484828,-0.564372,-1.57136,180.39,507.5875,-56.8225
687,268344,0.754692,-0.9625799999999999,-1.696532,156.5375,571.8474,-33.0225
688,268442,0.49434399999999995,-0.9140241,-2.204296,97.5975,568.6625,4.515
689,268540,1.838784,-0.261812,-1.4720520000000001,-1.1725,491.6625,-13.055
690,268638,2.92678,-0.34428400000000003,-5.093744,-62.265,382.7075,-110.1975
691,268736,2.151836,-0.106628,-5.098868,-59.0275,206.08,-115.9025
692,268834,0.5246,-0.141764,-3.463336,-18.55,40.425,-91.8575
693,268932,-0.42114399999999996,-0.309148,-2.046672,18.76,-53.13,-79.205
694,269030,-0.7449321,-0.407968,-1.3207719999999998,29.82,-83.265,-78.3825
695,269128,-0.7129681,-0.43724799999999997,-1.128744,21.805,-85.83751,-79.7125
696,269226,-0.528016,-0.40138,-1.228784,6.1775,-86.24,-77.6125
697,269324,-0.311832,-0.355752,-1.3856760000000001,-5.6875,-96.53,-71.645
698,269423,-0.1159,-0.312564,-1.475468,-10.185,-118.65,-62.9125
699,269521,0.000732,-0.321592,-1.447408,-8.68,-148.785,-52.6925
700,269619,0.053191999999999996,-0.34721199999999997,-1.312232,-6.86,-180.3025,-41.825
701,269717,0.082472,-0.328912,-1.1392360000000001,-9.3625,-207.585,-31.9375
702,269815,0.124928,-0.26961999999999997,-0.989664,-13.8075,-228.2,-23.8525
703,269913,0.21472,-0.1952,-0.901336,-15.5575,-243.145,-16.73
704,270011,0.32818,-0.1525,-0.8676640999999999,-12.7225,-254.8875,-10.2025
705,270109,0.45554799999999995,-0.163724,-0.8657120999999999,-7.035,-265.93,-3.92
706,270207,0.5602239999999999,-0.216428,-0.8679081,-3.22,-277.305,2.2575
707,270305,0.662704,-0.26352,-0.885964,-4.1125,-288.5225,8.575
708,270403,0.760792,-0.28792,-0.93086,-9.24,-299.18,15.855
709,270501,0.8679081,-0.271572,-0.99308,-16.695,-309.6975,23.6775
710,270599,0.958432,-0.22448,-1.030168,-24.4475,-320.25,30.38
711,270697,1.0138200000000002,-0.17128800000000002,-1.0492,-30.3625,-330.2075,34.7375
712,270795,1.059692,-0.140544,-1.050176,-33.5475,-337.3475,37.1175
713,270893,1.1102,-0.128344,-1.067988,-34.5625,-340.235,37.6075
714,270991,1.18584,-0.13298,-1.111908,-33.9675,-338.2225,37.625
715,271089,1.30174,-0.188368,-1.248792,-31.115,-332.535,38.1325
716,271188,1.505968,-0.298168,-1.5079200000000001,-28.8575,-325.43,40.285
717,271286,1.7489919999999999,-0.409432,-1.7753439999999998,-31.465,-322.0175,43.7325
718,271384,2.01666,-0.512644,-1.998604,-39.3925,-324.2575,46.5325
719,271482,2.369972,-0.656116,-2.192584,-49.5775,-331.065,47.32
720,271580,2.768668,-0.772992,-2.2326,-61.495,-343.6475,46.445
721,271678,3.000956,-0.554856,-2.0813200000000003,-70.8925,-362.8275,48.4925
722,271776,3.030968,-0.4636,-1.649684,-61.95,-381.3075,53.69
723,271874,2.839916,-0.42895200000000006,-1.0504200000000001,-49.3325,-386.33,53.1475
724,271972,2.624708,-0.520452,-0.39918400000000004,-34.9475,-374.605,47.3375
725,272070,2.525644,-0.475312,0.22496799999999997,-29.4,-344.9075,37.695
726,272168,2.781112,-0.12932000000000002,0.7517640999999999,-19.1975,-304.08,23.24
727,272266,3.448696,0.140544,1.438868,18.9525,-262.57,14.1225
728,272364,3.7451559999999997,0.081496,2.305312,81.0075,-225.3475,19.46
729,272462,3.05366,-0.24570799999999998,3.000712,126.7525,-171.325,32.27
730,272560,1.914668,-0.6109760000000001,3.085136,118.6675,-81.48001,30.9225
731,272658,1.437648,-0.68198,2.290916,55.7025,33.25,9.6775
732,272756,1.6235760000000001,-0.590236,0.918416,-11.97,131.3025,-6.3875
733,272854,1.9541959999999998,-0.713212,-0.423828,-39.9525,181.195,1.1025
734,272952,-1.3054,-1.11142,-0.337452,-75.5125,230.0375,35.2275
735,273050,-1.8304880000000001,0.22082,0.486048,-210.63,329.98,11.8125
736,273148,2.106208,1.37372,-1.131916,-216.44,399.5425,0.5775
737,273247,3.3569519999999997,0.9730721,-2.796728,-71.2425,396.8825,96.3725
738,273345,2.0374,1.6084479999999999,-1.634312,-38.01,286.5275,121.8525
739,273443,1.689212,2.39974,-1.773636,-3.4475,260.26,102.4275
740,273541,1.800232,2.30214,-1.9398,31.1675,244.8775,46.515
741,273639,1.653588,0.552172,-1.754848,66.3425,209.3525,-6.2825
742,273737,1.521828,-1.269044,-1.6609080000000003,79.5025,175.77,-24.15
743,273835,1.530612,-1.212924,-1.579656,46.8825,145.9675,-6.65
744,273933,1.071404,0.12566,-1.352492,5.3025,115.7625,4.48
745,274031,0.534848,0.6075600999999999,-1.022116,3.15,93.2225,1.12
746,274129,2.548092,-0.03904,-3.907172,22.1025,83.755,-16.17
747,274227,0.946232,-1.361032,-0.28181999999999996,37.17,28.0,26.3025
748,274325,-0.244,0.815936,-0.63562,-37.2225,-9.555,1.995
749,274423,0.844972,-0.31524800000000003,-1.050664,-10.955,6.16,-10.955
750,274521,0.548512,-0.185928,-0.9049959999999999,2.2225,2.3975,-6.055
751,274619,0.40748,0.023912,-0.879864,-5.11,-0.9625,-5.845
752,274717,0.5172800999999999,-0.05929201,-0.9091440000000001,1.0325,0.875,-6.4575
753,274815,0.43066000000000004,0.028792,-0.903532,1.085,-0.28,-4.8475
754,274913,0.44676400000000005,-0.032695999999999996,-0.889868,4.2175,0.77,-3.99
755,275011,0.452132,-0.027327999999999998,-0.8840120000000001,5.2675,1.1725,-3.605
756,275109,0.448716,-0.045627999999999995,-0.8827921000000001,5.985,1.0325,-3.5
757,275207,0.446032,-0.033428,-0.8727879999999999,6.5275,0.98,-3.395
758,275305,0.4514,-0.0427,-0.8718120999999999,6.72,1.0325,-3.325
759,275403,0.46164799999999995,-0.044652,-0.8701040000000001,5.6175,0.3325,-3.5
760,275502,0.471408,-0.049532,-0.8669319999999999,3.3425,-1.6275,-3.815
761,275600,0.467016,-0.044407999999999996,-0.873276,2.415,-2.765,-4.235
762,275698,0.456524,-0.033184,-0.8718120999999999,2.17,-3.3075,-4.34
763,275796,0.452132,-0.049044,-0.86498,2.52,-3.64,-4.3575
764,275894,0.438468,-0.049532,-0.8608319999999999,2.7475,-3.9725,-4.165
765,275992,0.431148,-0.038064,-0.8637601,3.2025,-3.675,-4.1125
766,276090,0.424804,-0.044164,-0.8547319999999999,4.2175,-3.2375,-4.095
767,276188,0.417728,-0.040260000000000004,-0.8522921,5.1975,-2.485,-3.9725
768,276286,0.41016400000000003,-0.032451999999999995,-0.8525360000000001,6.3,-1.4525,-3.78
769,276384,0.44212799999999997,-0.051484,-0.8522921,7.525,-0.0875,-3.57
770,276482,0.457744,-0.058803999999999995,-0.8552200000000001,7.805,0.6125,-3.5175
771,276580,0.457988,-0.048556,-0.8547319999999999,7.5775,0.5425,-3.395
772,276678,0.4575,-0.020496,-0.8693719999999999,7.945,0.525,-2.87
773,276776,0.45261999999999997,-0.01586,-0.8764481,8.925,1.0675,-1.925
774,276874,0.468236,-0.024888,-0.880352,10.29,2.2925,-0.6475
775,276972,0.467504,-0.027083999999999997,-0.868152,11.8475,3.115,0.3325
776,277070,0.466528,-0.026351999999999997,-0.8576601,12.775,3.2725,1.365
777,277168,0.442616,-0.052703999999999994,-0.84424,13.7725,3.22,2.3625
778,277266,0.431392,-0.08003201,-0.8369200000000001,14.2275,3.9025,2.6775
779,277364,0.419192,-0.07881200000000001,-0.844484,14.4025,5.2675,2.31
780,277462,0.39771999999999996,-0.081252,-0.8464360000000001,14.84,7.3325,2.135
781,277560,0.383324,-0.089792,-0.8471681000000001,15.645,10.6925,2.3975
782,277659,0.44115200000000004,-0.050263999999999996,-0.8913321,16.3975,15.4875,1.96
783,277757,0.40211199999999997,-0.064416,-0.8857200999999999,19.0225,20.1775,1.47
784,277855,0.3965,-0.0366,-0.892308,22.0325,26.775,1.12
785,277953,0.41602,0.023668,-0.9274440999999999,24.5875,34.4575,1.085
786,278051,0.345504,0.188368,-1.086776,33.915,40.495,-1.3825
787,278149,0.29768,-0.233996,-0.87474,49.7175,47.0925,-6.265
788,278247,0.4023561,0.084912,-1.033828,37.2225,68.53,-1.9425
789,278345,0.36502399999999996,-0.193736,-0.8723001,42.945,81.77750999999999,0.1575
790,278443,0.37332,-0.005368,-1.006744,43.1025,94.01,-2.9575
791,278541,0.4148,-0.09638,-0.94916,51.835,104.755,-6.8075
792,278639,0.29524,-0.05563200000000001,-1.0438319999999999,56.6125,119.105,-9.45
793,278737,0.285236,0.001952,-1.1272799999999998,62.4225,140.21,-6.4925
794,278835,0.42114399999999996,-0.174216,-1.164368,69.2475,163.8875,-13.4575
795,278933,0.27816,-0.209596,-1.349564,93.45,186.2175,-31.395
796,279031,0.870592,-0.392352,-1.3527360000000002,91.28,216.37,-46.0775
797,279129,0.6749041,0.2196,-1.732156,72.1525,249.095,-56.8575
798,279227,1.054568,0.9886881,-2.9158,103.1975,281.295,-48.51
799,279325,0.494832,0.219844,-2.065948,230.09,369.9675,-13.0725
800,279424,0.831308,0.203496,-1.482544,292.775,439.6,-21.5775
801,279522,0.399916,-0.692472,-1.50548,321.895,536.55,-20.685
802,279620,0.30792800000000004,-1.122156,-1.8390279999999999,278.285,573.37,-4.62
803,279718,0.266204,-1.127524,-1.8229240000000002,141.5225,561.7325,37.0825
804,279816,2.773792,-0.45579200000000003,-4.667232,-6.79,466.34,-50.4525
805,279914,2.636176,0.034404000000000004,-5.482924,-82.5475,324.24,-159.845
806,280012,1.2871,0.40748,-4.657716000000001,-65.3975,143.7625,-154.1575
807,280110,0.031232,0.260104,-3.035116,4.9175,3.5525,-136.9375
808,280208,-0.5309441,-0.235948,-1.9175959999999999,66.2025,-68.425,-127.995
809,280306,-0.6605081,-0.542656,-1.402756,77.2275,-96.0925,-125.475
810,280404,-0.5838920999999999,-0.6319600000000001,-1.2519639999999999,51.905,-108.2725,-122.99
811,280502,-0.43334399999999995,-0.587796,-1.277096,17.185,-119.7175,-116.48
812,280600,-0.23692399999999997,-0.471896,-1.345904,-9.45,-136.71,-104.4575
813,280698,-0.07856801,-0.360632,-1.35786,-19.25,-161.1575,-88.02501
814,280796,-0.008052001,-0.321104,-1.25538,-14.175,-189.175,-68.3725
815,280894,0.037088,-0.33061999999999997,-1.086776,-4.1825,-214.6025,-47.845
816,280992,0.049532,-0.35624,-0.912316,0.98,-233.59,-29.5575
817,281090,0.13176,-0.328424,-0.8376520000000001,-2.555,-245.28,-14.7175
818,281189,0.2867,-0.265716,-0.863516,-9.905,-253.1725,-2.4675
819,281287,0.46335600000000005,-0.18470799999999998,-0.9347639999999999,-16.9575,-262.22,7.8925
820,281385,0.614636,-0.1098,-0.9906401,-21.8225,-274.82,15.855
821,281483,0.706624,-0.044164,-1.0025959999999998,-24.57,-289.8525,21.035
822,281581,0.772504,0.002684,-1.0023520000000001,-26.355,-304.43,23.5375
823,281679,0.8508280999999999,0.020252000000000003,-1.015528,-28.3675,-316.785,23.8875
824,281777,0.9415959999999999,0.007076001,-1.042124,-32.1825,-327.1275,21.9975
825,281875,1.007476,-0.020252000000000003,-1.071404,-37.7475,-336.3325,19.18
826,281973,1.062132,-0.043432,-1.087752,-43.1725,-343.35,17.955
827,282071,1.072868,-0.0793,-1.071648,-46.6725,-347.0775,19.7225
828,282169,1.102392,-0.11541199999999999,-1.036756,-49.105,-344.505,24.5
829,282267,1.172664,-0.124928,-1.109224,-51.45,-334.565,30.94
830,282365,1.3847,-0.082472,-1.3583479999999999,-52.22,-320.18,38.15
831,282463,1.586976,-0.152988,-1.6150360000000001,-50.4525,-309.9775,45.7275
832,282561,1.79462,-0.292068,-1.8480560000000001,-55.9475,-305.9175,48.8075
833,282659,2.098156,-0.485072,-2.01178,-71.19,-304.955,46.7425
834,282757,2.501732,-0.5587601,-1.9807919999999999,-92.085,-307.6675,43.12
835,282855,2.826252,-0.463844,-1.9258919999999997,-106.715,-313.25,44.625
836,282953,3.230804,-0.495076,-1.759972,-101.115,-322.5075,48.0025
837,283051,3.260816,-0.6422081000000001,-1.2383,-93.345,-334.46,49.0
838,283150,3.025112,-0.8042239999999999,-0.44090799999999997,-88.37501,-341.32,46.5325
839,283248,2.8008759999999997,-0.6466,0.342332,-88.53251,-327.8975,40.7575
840,283346,2.923608,-0.145912,0.9023121,-67.305,-294.1925,35.4025
841,283444,3.238856,0.177144,1.44448,-6.51,-252.7525,39.095
842,283542,3.451624,0.07856801,2.053016,65.3975,-210.105,46.27
843,283640,3.081476,-0.17543599999999998,2.561024,100.24,-157.0975,41.4225
844,283738,2.235284,-0.397964,2.73402,83.66751,-81.67251,15.1375
845,283836,1.7521639999999998,-0.33916,2.1508599999999998,33.9325,14.8575,-23.905
846,283934,1.7355720000000001,-0.272548,1.0643280000000002,-5.53,104.195,-52.255
847,284032,1.152656,-0.8491200000000001,0.338672,-13.4575,158.97,-61.88
848,284130,-1.74338,-0.8337481,0.107116,-31.64,246.89,-40.705
849,284228,-0.981612,-0.543144,1.466928,-77.84,341.8975,-55.7025
850,284326,3.113684,0.580476,-1.939312,-50.8375,421.3825,-9.905
851,284424,3.2849720000000002,0.529724,-2.916288,63.0175,368.0775,90.9825
852,284522,1.879532,1.575508,-1.7402080000000002,48.195,263.2175,67.935
853,284620,2.274324,1.231468,-2.539308,45.3075,248.3075,-9.52
854,284718,2.049112,-0.335988,-2.0557,71.7325,203.0525,-27.545
855,284816,1.495476,-1.192184,-1.736548,71.1025,152.18,-14.455
856,284914,1.318332,-0.747128,-1.469368,32.8825,122.9025,-6.79
857,285012,1.436916,0.050508,-1.926136,2.1175,97.51,0.105
858,285111,0.9272,-0.119316,-1.226344,-15.61,64.12,-6.44
859,285209,0.530456,-0.363072,-0.9381801,-9.1,46.095,-3.9375
860,285307,0.668316,-0.21667199999999998,-1.0023520000000001,-17.01,42.7875,-4.6025
861,285405,0.8166680000000001,0.09052401,-1.188524,-23.555,35.5775,-6.9825
862,285503,0.9201241,0.327204,-1.292224,-17.7975,17.9725,-8.645
863,285601,0.449204,-0.061,-0.9247601000000001,-6.195,-1.925,-9.38
864,285699,0.404308,-0.028304000000000003,-0.8998719999999999,-1.015,-1.575,-7.0175
865,285797,0.482876,0.009272001,-0.9254921,-2.275,-0.4725,-6.895
866,285895,0.372344,-0.04392,-0.8676640999999999,-0.9625,-2.0125,-7.21
867,285993,0.34794400000000003,-0.01342,-0.865468,-0.1575,-0.315,-6.5625
868,286091,0.40381999999999996,-0.023668,-0.8527800999999999,1.3125,2.2575,-6.7025
869,286189,0.412116,-0.026595999999999998,-0.862784,1.89,3.6925,-6.86
870,286287,0.384056,0.013908000000000002,-0.8703481,1.96,4.165,-5.985
871,286385,0.381616,0.0305,-0.873276,2.555,4.025,-5.04
872,286483,0.42212,0.00488,-0.8730319999999999,4.27,4.34,-4.9
873,286581,0.454084,-0.017324000000000003,-0.9086559999999999,5.9675,3.9725,-4.76
874,286679,0.477996,-0.013908000000000002,-0.9128040000000001,8.0675,3.325,-4.27
875,286777,0.462868,-0.030987999999999998,-0.89426,9.5025,2.31,-3.815
876,286875,0.472384,-0.0549,-0.8815719999999999,9.7125,1.3475,-3.85
877,286973,0.45457200000000003,-0.040260000000000004,-0.8788879999999999,8.68,0.105,-4.0075
878,287072,0.45018,-0.018788,-0.8847440999999999,8.0325,-0.595,-4.06
879,287170,0.45164399999999993,-0.008296000999999999,-0.876692,8.4175,-0.8575,-3.9725
880,287268,0.439688,-0.00976,-0.8693719999999999,8.61,-1.2775,-3.5875
881,287366,0.438712,-0.034404000000000004,-0.8615640999999999,8.61,-1.33,-3.2725
882,287464,0.447008,-0.045872,-0.8571719999999999,8.1725,-1.4,-3.8675
883,287562,0.435784,-0.034404000000000004,-0.856196,7.2275,-1.8025,-4.375
884,287660,0.420412,-0.036112,-0.85034,6.7725,-2.17,-4.7075
885,287758,0.417728,-0.032451999999999995,-0.856196,6.9125,-1.61,-4.445
886,287856,0.406016,-0.049776,-0.8488761,7.385,-0.8225,-4.0775
887,287954,0.390888,-0.040748,-0.8491200000000001,7.6475,0.21,-3.6225
888,288052,0.386984,-0.029036000000000003,-0.865468,8.3125,1.785,-3.2725
889,288150,0.400404,-0.013663999999999999,-0.8744960999999999,9.7825,4.5675,-2.8175
890,288248,0.406992,-0.009028000999999999,-0.8845,12.0575,8.015,-1.7325
891,288346,0.41504399999999997,-0.009516001,-0.889136,14.665,11.55,-0.49
892,288444,0.43041599999999997,-0.0244,-0.8862081,17.29,15.155,0.9975
893,288542,0.437004,-0.045384,-0.8820601,19.1275,18.5325,1.8025
894,288640,0.43724799999999997,-0.07978801,-0.8662001,19.775,21.8225,1.9075
895,288738,0.437004,-0.046848,-0.887916,19.46,25.865,2.2225
896,288837,0.39405999999999997,0.000244,-0.8906,21.1925,31.4825,1.4
897,288935,0.285724,0.09784401,-0.993568,27.0725,37.31,-3.5
898,289033,0.268888,-0.276696,-0.8725440999999999,41.3175,43.7325,-13.1775
899,289131,0.465796,0.140544,-0.99918,28.175,62.475,-11.41
900,289229,0.430904,-0.088328,-0.858392,33.285,71.3825,-6.335
901,289327,0.416508,0.0122,-0.9337880999999999,34.6325,81.34000999999999,-2.8875
902,289425,0.40138,-0.031476,-0.9340321,39.4275,92.19001,0.455
903,289523,0.41016400000000003,-0.044652,-0.9677040000000001,43.995,105.3325,0.9275
904,289621,0.398696,-0.010736,-0.998448,51.45,119.0175,-1.505
905,289719,0.374296,0.059536,-1.02236,58.135,135.1875,-1.6625
906,289817,0.217648,-0.025863999999999998,-1.146068,70.5775,150.9725,-2.0825
907,289915,0.604632,-0.45261999999999997,-1.245376,83.895,174.4575,-9.24
908,290013,0.33061999999999997,-0.133956,-1.275876,79.38,195.3525,-25.305
909,290111,0.715164,-0.296216,-1.143384,70.2625,218.3125,-42.7175
910,290209,0.793976,0.41504399999999997,-2.0173919999999996,51.275,235.8475,-54.0925
911,290307,1.181692,0.7610359999999999,-2.814296,94.01,289.6425,-32.935
912,290406,-0.023180000000000003,0.162748,-2.382416,218.5925,391.51,-7.7
913,290504,1.2505,-0.328912,-1.02846,282.59,458.5525,-25.445
914,290602,0.413092,-0.7998321,-2.004948,281.4875,552.37,-30.765
915,290700,0.519964,-1.159732,-2.009584,224.455,573.405,-1.8725
916,290798,0.8176439999999999,-0.9274440999999999,-1.62016,113.925,554.75,46.725
917,290896,3.0805,-0.7625,-5.198664,-33.1275,447.615,-69.2475
918,290994,2.29848,-0.297192,-5.371659999999999,-104.6325,294.105,-164.885
919,291092,0.8642481,0.012931999999999999,-4.1692279999999995,-92.05001,130.5325,-151.76
920,291190,-0.09540401,0.000488,-2.8091720000000002,-37.3275,19.81,-135.5025
921,291288,-0.504592,-0.32086,-1.951512,18.7775,-36.015,-126.2275
922,291386,-0.589504,-0.612684,-1.577216,39.9875,-62.265,-118.5625
923,291484,-0.509228,-0.726144,-1.491816,26.005,-80.90250999999999,-112.0875
924,291582,-0.382104,-0.6946681,-1.505724,-2.625,-101.955,-103.5825
925,291680,-0.239608,-0.580964,-1.513776,-25.83,-128.765,-91.385
926,291778,-0.146156,-0.4819,-1.437648,-33.4775,-159.8625,-74.935
927,291876,-0.12078,-0.429196,-1.242692,-27.86,-190.365,-55.5625
928,291974,-0.101016,-0.40504,-1.0382200000000001,-17.5875,-214.5675,-35.4025
929,292072,-0.050996,-0.38966799999999996,-0.8701040000000001,-10.1325,-231.4725,-17.115
930,292170,0.022936,-0.335988,-0.751276,-9.275,-242.305,-2.275
931,292268,0.11028800000000001,-0.24668400000000001,-0.691496,-12.075,-248.885,8.9075
932,292367,0.272304,-0.166164,-0.74054,-13.8775,-252.735,17.0625
933,292465,0.466528,-0.116388,-0.8437520000000001,-13.8425,-258.685,23.0125
934,292563,0.60878,-0.11102000000000001,-0.916952,-14.245,-269.7275,26.985
935,292661,0.706624,-0.12761199999999998,-0.964532,-18.0425,-283.6575,28.84
936,292759,0.797392,-0.14005599999999999,-0.9933241,-25.2,-297.7275,29.295
937,292857,0.8759601,-0.143716,-1.013332,-32.76,-311.1675,29.68
938,292955,0.9589200999999999,-0.172508,-1.044564,-38.535,-323.1025,30.8175
939,293053,1.047492,-0.217404,-1.089948,-42.63,-333.445,33.355
940,293151,1.133868,-0.24522,-1.158756,-46.9525,-342.475,37.765
941,293249,1.220732,-0.284504,-1.2139,-51.94,-350.245,42.63
942,293347,1.32492,-0.28304,-1.300764,-57.54,-355.215,47.4075
943,293445,1.491816,-0.264496,-1.468636,-60.935,-356.7025,51.66
944,293543,1.689944,-0.307196,-1.695312,-60.8125,-357.9975,54.565
945,293641,1.951024,-0.43041599999999997,-1.976156,-61.565,-360.9725,55.3875
946,293739,2.2652959999999998,-0.560956,-2.25334,-67.48001,-367.22,53.7425
947,293837,2.656672,-0.7032079999999999,-2.399252,-75.565,-377.7725,50.8725
948,293935,3.05488,-0.40967600000000004,-2.249192,-83.405,-392.5075,48.65
949,294033,3.20372,-0.35672800000000005,-1.8751400000000003,-71.96,-406.105,50.4875
950,294131,3.142232,-0.28694400000000003,-1.380064,-54.4775,-406.77,41.1775
951,294229,2.966552,-0.49605200000000005,-0.62464,-34.09,-391.0025,25.585
952,294328,2.873832,-0.47336000000000006,0.134932,-23.31,-355.9325,9.8175
953,294426,3.258132,-0.037332,0.8066641,-6.1075,-308.7875,-5.6875
954,294524,3.99672,0.155916,1.74826,43.19,-264.355,-13.055
955,294622,4.138240000000001,-0.07027201,2.753052,108.535,-224.98,-4.9875
956,294720,3.216164,-0.435784,3.4484519999999996,139.8075,-160.23,2.9925
957,294818,1.999336,-0.8066641,3.3720800000000004,114.24,-54.88,-6.72
958,294916,1.4539959999999998,-1.937848,3.9759800000000003,43.995,79.52,-31.115
959,295014,-2.478552,-0.6573359999999999,4.9573480000000005,-118.8425,315.8925,-16.8175
960,295112,0.74298,-0.3233,-1.8939279999999998,-198.59,495.25,-73.5875
961,295210,5.033476,0.398696,-2.593232,-127.015,513.975,-4.27
962,295308,2.387052,0.185196,-1.283684,-33.6175,356.58,142.625
963,295406,1.625528,1.526464,-1.725812,-11.585,324.2925,133.7
964,295504,2.573956,2.539796,-2.1947799999999997,12.04,324.5375,100.87
965,295602,2.673508,1.814384,-2.389004,50.3475,281.365,48.195
966,295700,2.4390240000000003,-0.29158,-2.6044560000000003,66.57,223.5275,-14.2625
967,295798,1.4417959999999999,-1.7934,-1.485716,53.0075,157.7625,-23.835
968,295896,0.9496479999999999,-0.692716,-1.202432,5.2325,130.025,0.2275
969,295994,5.205984,1.3603,-4.708956,-14.7875,114.5725,17.64
970,296092,-0.0549,-0.709796,-1.269044,-23.38,-25.1825,18.9875
971,296191,0.281088,0.812032,-1.0384639999999998,-16.5025,8.68,-6.2475
972,296289,0.702964,-0.351116,-0.965752,5.81,14.91,-9.2225
973,296387,0.381372,-0.03416,-0.936716,-16.3625,-1.6275,-8.47
974,296485,0.49654,-0.046360000000000005,-0.9291520000000001,-16.835,-2.52,-11.9875
975,296583,0.45506,-0.139324,-0.9018241,-10.3775,-3.36,-11.795
976,296681,0.44212799999999997,-0.06880801,-0.9057280999999999,-12.0575,-5.425,-12.6
977,296779,0.42700000000000005,-0.032695999999999996,-0.8884040000000001,-10.4825,-5.8625,-13.615
978,296877,0.393328,0.000488,-0.906948,-8.4175,-6.23,-13.055
979,296975,0.395524,-0.010248,-0.892552,-5.25,-4.4625,-11.8125
980,297073,0.41602,-0.009272001,-0.8976761000000001,-2.7825,-2.1525,-10.3075
981,297171,0.434808,-0.021716,-0.885476,-0.735,-1.1375,-8.715
982,297269,0.43163599999999996,0.012444,-0.889136,0.875,-1.015,-7.35
983,297367,0.4404201,-0.00976,-0.889624,2.87,-0.8400001,-6.37
984,297465,0.45506,0.004392,-0.8940161,3.745,-0.5075,-5.81
985,297563,0.459696,0.020008,-0.8949921000000001,5.0925,-0.3325,-4.69
986,297661,0.469944,-0.013663999999999999,-0.882548,7.4375,-0.6125,-3.395
987,297759,0.44773999999999997,-0.026108,-0.8725440999999999,8.645,-1.295,-2.38
988,297857,0.42724399999999996,-0.012931999999999999,-0.874252,9.5375,-1.645,-1.6275
989,297955,0.42114399999999996,-0.004148001,-0.8762040000000001,10.605,-0.91,-1.0325
990,298053,0.416264,-0.007076001,-0.8666879999999999,11.83,0.14,-0.35
991,298152,0.41260399999999997,-0.0061,-0.8679081,12.95,1.26,0.0875
992,298250,0.41602,-0.048312,-0.859368,14.105,2.3625,0.42
993,298348,0.425292,-0.05587601,-0.8610761,14.91,3.2725,0.3675
994,298446,0.413092,-0.016104,-0.862784,15.19,3.7975,0.455
995,298544,0.413336,-0.014396,-0.869616,16.8525,5.0925,1.4
996,298642,0.42822,-0.027083999999999997,-0.8652241,18.6025,6.9475,2.94
997,298740,0.43773599999999996,-0.030012,-0.860344,19.7225,8.155,3.815
998,298838,0.44993599999999995,-0.023668,-0.8549761,20.4575,9.5725,4.5325
999,298936,0.43798000000000004,-0.043432,-0.854244,21.105,10.255,6.1775
1000,299034,0.437492,-0.09784401,-0.85034,21.9625,11.025,6.685
1001,299132,0.428464,-0.085156,-0.849608,21.525,12.11,5.355
1002,299230,0.43602799999999997,-0.08417999999999999,-0.850584,21.2975,13.3,4.34
1003,299328,0.4514,-0.077592,-0.860344,20.7375,14.98,4.025
1004,299426,0.428464,-0.062464,-0.8718120999999999,20.685,16.765,4.2525
1005,299524,0.410896,-0.053436000000000004,-0.876692,21.735,20.0725,4.305
1006,299622,0.388204,-0.061732,-0.8869401,24.08,25.34,3.4125
1007,299720,0.35624,0.09223200000000001,-0.9823440999999999,26.6175,32.0075,0.5775
1008,299818,0.196908,-0.34648,-0.8086161000000001,36.6625,38.0275,-6.6675
1009,299916,0.405528,0.02684,-0.981124,27.475,55.335,-9.2575
1010,300014,0.423828,-0.145424,-0.8869401,31.01,66.1675,-10.4475
1011,300113,0.43334399999999995,-0.030744,-0.9323239999999999,29.19,76.825,-11.0425
1012,300211,0.46726,-0.010492,-0.9330560999999999,32.97,84.1925,-9.6425
1013,300309,0.3599,-0.057584,-0.996008,39.7775,92.40001,-7.945
1014,300407,0.326716,-0.17519200000000001,-0.9250040999999999,48.3175,107.4325,-9.205
1015,300505,0.361852,-0.0427,-0.9918600000000001,45.885,126.6825,-13.335
1016,300603,0.206668,-0.158356,-1.0321200000000001,53.305,144.34,-13.72
1017,300701,0.20178800000000002,-0.19642,-1.072868,54.915,170.52,-20.265
1018,300799,0.229604,-0.102724,-1.20048,61.0225,191.9225,-42.035
1019,300897,0.7832399999999999,-0.17397200000000002,-1.20536,65.94,217.9625,-59.5875
1020,300995,0.9850280999999999,0.19276,-1.8595240000000002,61.7925,230.72,-68.4425
1021,301093,0.702964,0.3294,-2.040572,111.9825,286.65,-46.3225
1022,301191,0.275476,0.38795999999999997,-2.475136,205.485,376.4425,-21.7
1023,301289,0.763476,0.236436,-1.182424,266.595,445.6375,-33.9325
1024,301387,0.374296,-0.488,-1.774368,314.8775,530.985,-30.485
1025,301485,0.466528,-1.1094680000000001,-1.6028360000000001,289.38,573.3,-14.0875
1026,301583,0.593896,-1.27124,-2.33874,188.895,569.7475,29.995
1027,301681,2.993636,-1.26514,-3.4367400000000004,55.1075,494.76,-31.115
1028,301779,3.045852,-0.9120720999999999,-5.68154,-47.775,347.1475,-124.4775
1029,301877,1.616012,-0.327204,-5.055436,-76.1425,151.55,-103.215
1030,301976,0.041968,-0.05002,-3.3074199999999996,-53.5675,-6.2825,-75.6525
1031,302074,-0.6973520000000001,-0.10126,-2.03618,-15.785,-85.47,-64.41751
1032,302172,-0.9042641,-0.19178399999999998,-1.41886,3.745,-110.18,-65.8
1033,302270,-0.759572,-0.21886799999999998,-1.2993,0.7525,-114.5725,-71.4
1034,302368,-0.508252,-0.17812,-1.40666,-13.6325,-120.75,-75.8625
1035,302466,-0.274012,-0.10248,-1.526464,-26.18,-138.5125,-78.4
1036,302564,-0.09540401,-0.04514,-1.553792,-28.84,-165.9175,-77.84
1037,302662,0.015616,-0.038796,-1.45546,-21.945,-197.3825,-73.85
1038,302760,0.08662001,-0.07076001,-1.288808,-11.62,-226.6775,-67.2175
1039,302858,0.15982000000000002,-0.12078,-1.129232,-3.745,-250.0225,-59.255
1040,302956,0.25864000000000004,-0.144448,-1.0169920000000001,-2.1175,-267.295,-50.5925
1041,303054,0.362584,-0.146644,-0.9608721,-5.005,-280.5775,-41.0375
1042,303152,0.461892,-0.110776,-0.93086,-10.0625,-291.7425,-30.905
1043,303250,0.5697399999999999,-0.057828,-0.9240280000000001,-13.93,-301.385,-20.3175
1044,303348,0.6602640000000001,-0.0183,-0.942572,-15.9775,-309.9775,-9.9925
1045,303446,0.7564001,0.01342,-0.9928360999999999,-18.655,-317.9925,-1.54
1046,303544,0.8552200000000001,0.05563200000000001,-1.0675,-23.8525,-326.2,3.92
1047,303642,0.99308,0.072956,-1.156072,-30.52,-334.8625,6.16
1048,303740,1.105564,0.08417999999999999,-1.184376,-37.135,-344.015,6.5975
1049,303839,1.164612,0.040504000000000005,-1.1712,-42.14,-352.9575,7.0175
1050,303937,1.206092,-0.06588,-1.1651,-46.865,-357.77,9.52
1051,304035,1.318088,-0.249612,-1.187548,-54.565,-356.0025,16.0125
1052,304133,1.5103600000000001,-0.356484,-1.2993,-67.8825,-349.37,27.5625
1053,304231,1.707756,-0.386008,-1.4313040000000001,-81.235,-341.355,44.9575
1054,304329,1.886852,-0.5267960999999999,-1.536468,-89.86251,-334.5825,65.45
1055,304427,2.0874200000000003,-0.6785640000000001,-1.597468,-105.7175,-327.215,82.9325
1056,304525,2.399984,-0.633668,-1.6267479999999999,-130.585,-317.6775,93.1
1057,304623,2.751588,-0.654408,-1.589172,-147.4025,-308.7875,94.79751
1058,304721,3.102216,-0.704916,-1.454972,-148.96,-302.89,90.475
1059,304819,3.23544,-0.5795,-1.174372,-138.5125,-299.8975,84.7175
1060,304917,3.1461360000000003,-0.6409881,-0.6463561,-108.605,-299.005,80.92
1061,305015,2.93532,-0.56852,-0.047092,-78.89,-290.8325,77.8575
1062,305113,2.9624040000000003,-0.17738800000000002,0.383324,-48.0375,-271.215,72.5725
1063,305211,3.100264,0.11102000000000001,0.8664440000000001,-1.435,-247.4325,63.77
1064,305309,3.166876,0.16348,1.426668,52.3425,-222.1625,47.81
1065,305407,2.960208,-0.041968,1.996896,90.30001,-185.85,21.77
1066,305505,2.37412,-0.2623,2.35582,98.315,-127.89,-15.1725
1067,305603,1.8758720000000002,-0.402844,2.174772,83.615,-49.4375,-52.57
1068,305701,1.705316,-0.5743761,1.441064,65.87,30.065,-75.88
1069,305799,1.618696,-1.7172720000000001,3.3637839999999994,56.0175,109.5675,-76.16001
1070,305897,-2.4561040000000003,-0.523624,1.524024,-27.9125,279.58,-41.965
1071,305995,0.8642481,-0.665632,-1.60186,-52.955,431.725,-86.9575
1072,306094,4.2565800000000005,0.09418401,-1.7094639999999999,-26.3025,439.6175,9.765
1073,306192,2.69132,0.7600600000000001,-2.527108,49.665,332.9025,84.77
1074,306290,1.636752,1.8114560000000002,-1.73606,52.185,276.3425,57.295
1075,306388,2.0935200000000003,1.2871,-2.0618,66.46500999999999,260.9425,-1.8375
1076,306486,2.186728,-0.496784,-2.1069400000000003,92.2425,222.215,-24.9375
1077,306584,1.661884,-1.9075919999999997,-1.773148,90.825,171.22,-14.315
1078,306682,1.2944200000000001,-1.20902,-1.2841719999999999,24.0975,133.595,-14.0
1079,306780,2.263832,0.8486319999999999,-3.4728519999999996,-5.9325,109.2,3.0625
1080,306878,0.798856,-0.9940559999999999,0.08052000000000001,1.05,36.1725,9.2225
1081,306976,-0.002928,0.248392,-0.719312,-9.52,-9.6775,0.07
1082,307074,0.9713639999999999,-0.277672,-1.0675,-10.535,10.71,-7.1925
1083,307172,0.429928,-0.098332,-0.8637601,1.645,-0.0525,-5.215
1084,307270,0.437492,0.046848,-0.9086559999999999,-3.9025,-0.98,-5.0925
1085,307368,0.461892,-0.15420799999999998,-0.871568,1.575,0.0,-5.0225
1086,307466,0.418704,-0.04514,-0.892064,-3.43,-1.4175,-6.02
1087,307564,0.399916,-0.06490399999999999,-0.8827921000000001,-4.165,-1.6975,-7.7
1088,307662,0.39771999999999996,-0.034404000000000004,-0.8967,-4.2875,-1.3125,-8.3825
1089,307760,0.389424,-0.059536,-0.883768,-3.045,-0.6125,-8.47
1090,307858,0.398452,-0.053924,-0.8845,-1.785,0.1925,-8.435
1091,307956,0.4023561,-0.062220000000000004,-0.879376,-0.6825,0.8400001,-8.12
1092,308054,0.41382399999999997,-0.031232,-0.8805960999999999,-0.6125,-0.035,-7.7
1093,308152,0.42724399999999996,-0.010004,-0.883768,-0.035,-0.8400001,-7.0525
1094,308250,0.43334399999999995,-0.025376,-0.8679081,1.785,-1.1025,-6.37
1095,308348,0.429196,-0.021716,-0.87108,2.765,-1.6275,-5.8275
1096,308447,0.44676400000000005,-0.030987999999999998,-0.8866961,3.9725,-1.9075,-5.2675
1097,308545,0.448716,-0.050996,-0.8862081,4.9525,-2.205,-4.8475
1098,308643,0.43651599999999996,-0.047092,-0.8820601,5.9675,-2.8175,-4.585
1099,308741,0.42163199999999995,-0.010492,-0.8842561,7.3675,-2.94,-3.955
1100,308839,0.41358,0.013908000000000002,-0.8818159999999999,9.4325,-2.2575,-2.87
1101,308937,0.4209,-0.003172,-0.879376,11.97,-0.77,-0.945
1102,309035,0.4209,-0.062220000000000004,-0.861808,14.1225,0.5775,0.49
1103,309133,0.41968,-0.068076,-0.859368,14.3325,1.2425,0.4375
1104,309231,0.424804,-0.04514,-0.865468,14.2975,1.8025,0.105
1105,309329,0.43236800000000003,-0.05246,-0.8574161,14.9625,2.38,0.42
1106,309427,0.413336,-0.05368,-0.854244,15.19,2.8,0.9625
1107,309525,0.407968,-0.06880801,-0.847412,15.4875,3.605,1.6275
1108,309623,0.38503200000000004,-0.051484,-0.8547319999999999,15.4525,4.8125,2.2575
1109,309721,0.366976,-0.049288,-0.8559521000000001,15.9775,7.0525,2.6775
1110,309819,0.376004,-0.068564,-0.8640040000000001,17.4125,10.5175,2.485
1111,309917,0.398696,-0.080276,-0.877424,18.83,14.035,1.6625
1112,310015,0.422608,-0.06954,-0.8903561,19.67,17.85,1.19
1113,310113,0.45115600000000006,-0.086132,-0.8818159999999999,20.7025,21.4025,1.2775
1114,310211,0.43358800000000003,-0.101016,-0.874984,20.58,24.4125,1.435
1115,310309,0.42138809999999993,-0.047580000000000004,-0.8935280999999999,20.0725,27.8425,1.1375
1116,310407,0.35746,0.072712,-0.9818561,23.1875,33.6525,-0.2625
1117,310505,0.238632,-0.139568,-0.8971879999999999,33.4075,37.94,-8.26
1118,310603,0.271328,-0.21301199999999998,-0.850584,32.55,50.1375,-11.9
1119,310702,0.428708,0.045627999999999995,-0.9633120999999999,28.385,67.27,-10.325
1120,310800,0.493612,-0.12395199999999999,-0.8652241,35.595,75.2325,-9.205
1121,310898,0.493612,-0.020984,-0.913536,33.005,82.6525,-6.3
1122,310996,0.377712,-0.0244,-0.975024,40.075,88.48001,-3.2725
1123,311094,0.340136,-0.104432,-0.9686799999999999,48.51,99.0675,-5.6
1124,311192,0.284748,-0.21838000000000002,-0.9474520000000001,54.18,114.9225,-10.535
1125,311290,0.290848,-0.180072,-0.9764879999999999,47.915,136.325,-15.085
1126,311388,0.41553199999999996,-0.29133600000000004,-1.1102,47.1275,160.65,-19.67
1127,311486,0.381616,-0.13542,-1.237568,52.5175,180.5475,-37.52
1128,311584,0.510692,-0.10223600000000001,-1.194624,63.665,201.845,-56.1225
1129,311682,0.532408,-0.049044,-1.401292,70.9275,228.9,-61.775
1130,311780,0.568764,0.09418401,-2.007388,86.31,272.51,-58.345
1131,311878,1.12362,0.15616,-1.8180439999999998,125.825,336.91,-47.4775
1132,311976,0.061975999999999996,0.187636,-2.2662720000000003,194.39,407.68,-44.31
1133,312074,1.241716,0.031232,-1.231956,223.4575,474.46,-65.36251
1134,312172,0.815692,-0.5648601,-1.927844,259.1575,563.4475,-57.2075
1135,312270,0.6329359999999999,-1.0967799999999999,-2.3480119999999998,237.4575,573.335,-10.9375
1136,312368,1.134844,-1.0943399999999999,-1.222684,115.6225,522.62,16.0825
1137,312466,2.67302,-1.062132,-5.301876,-32.27,404.11,-116.8825
1138,312564,1.8051119999999998,-0.467016,-5.175972,-96.4775,239.785,-148.1025
1139,312662,0.378444,-0.11053199999999999,-3.7846839999999995,-86.6425,82.5475,-120.0675
1140,312760,-0.45628,-0.084912,-2.505636,-35.21,-14.35,-96.5825
1141,312858,-0.808372,-0.343552,-1.7150759999999998,14.665,-57.575,-82.8275
1142,312956,-0.7390760000000001,-0.503372,-1.47498,30.975,-74.5325,-75.53
1143,313054,-0.559004,-0.5455840000000001,-1.473516,19.915,-88.7425,-69.125
1144,313152,-0.359656,-0.478972,-1.5279280000000002,-1.68,-110.6525,-62.0725
1145,313251,-0.196664,-0.370148,-1.518656,-19.5125,-140.5775,-53.585
1146,313349,-0.06929600000000001,-0.269864,-1.4313040000000001,-27.0725,-173.7925,-43.47
1147,313447,0.004636001,-0.213256,-1.2719719999999999,-26.355,-205.2575,-33.145
1148,313545,0.082228,-0.174216,-1.1089799999999999,-23.0825,-231.5075,-23.9925
1149,313643,0.166652,-0.13639600000000002,-0.981612,-21.0175,-252.07,-16.8875
1150,313741,0.245952,-0.08759601,-0.887184,-20.755,-267.575,-11.55
1151,313839,0.33916,-0.052216,-0.8352120000000001,-20.9125,-279.02,-7.805
1152,313937,0.43041599999999997,-0.014396,-0.8178880999999999,-20.825,-287.805,-4.6375
1153,314035,0.5292359999999999,0.007320001,-0.83204,-20.09,-294.8225,-2.73
1154,314133,0.635864,0.0122,-0.887184,-18.97,-301.1925,-1.7325
1155,314231,0.74542,0.010248,-0.9652639999999999,-18.6375,-308.0525,-1.2425
1156,314329,0.8483879999999999,-0.014396,-1.03944,-19.5825,-315.84,-1.2425
1157,314427,0.9635560999999999,-0.083204,-1.1148360000000002,-21.5775,-324.2575,-1.575
1158,314525,1.049688,-0.135176,-1.163392,-25.1125,-332.6225,-0.14
1159,314623,1.1087360000000002,-0.193736,-1.2019440000000001,-28.98,-340.2875,3.535
1160,314721,1.154852,-0.248148,-1.261968,-32.5675,-345.1175,9.66
1161,314819,1.259528,-0.312564,-1.347856,-35.245,-345.765,18.935
1162,314917,1.42618,-0.32256799999999997,-1.499624,-37.66,-342.6675,30.66
1163,315015,1.617964,-0.365268,-1.646512,-38.8325,-337.505,43.155
1164,315113,1.78852,-0.49849209999999994,-1.7446,-43.05,-331.975,53.1125
1165,315211,2.063996,-0.576572,-1.880508,-55.7725,-324.0825,59.465
1166,315309,2.465132,-0.7105279999999999,-1.9910400000000001,-70.5075,-316.47,64.1725
1167,315407,3.043412,-0.380152,-2.126216,-83.52750999999999,-313.9325,68.6875
1168,315505,3.6087599999999997,-0.251808,-2.1703799999999998,-73.5525,-324.0825,78.505
1169,315604,3.712216,-0.34038,-1.671156,-53.095,-347.375,80.2025
1170,315702,3.421124,-0.5897479999999999,-0.750788,-42.77,-369.7575,73.29
1171,315800,3.076596,-0.529724,0.223992,-51.6075,-369.005,62.0025
1172,315898,3.125884,-0.034648000000000005,1.028948,-45.4825,-341.6175,56.2625
1173,315996,3.534096,0.229116,1.8180439999999998,2.275,-299.705,63.315
1174,316094,3.643408,0.188856,2.596892,65.59,-251.545,71.19
1175,316192,2.965576,-0.08369201,3.139304,99.225,-184.1,62.6325
1176,316290,1.938092,-0.269864,3.138816,84.9625,-85.78501,28.175
1177,316388,1.3024719999999999,-0.530456,5.285284,42.0175,67.865,-4.9
1178,316486,-2.607628,-0.10687200000000001,4.886344,-21.77,320.39,-9.0825
1179,316584,2.0742439999999998,-0.706136,-3.286192,-60.585,511.595,-98.0875
1180,316682,5.57052,-0.278404,-2.7957520000000002,-79.2575,489.8075,-78.505
1181,316780,1.253184,-0.223992,-1.247084,-40.9675,309.785,39.6725
1182,316878,1.541348,1.05164,-1.738012,-26.0575,296.3625,17.57
1183,316976,2.639104,1.658956,-2.406816,12.4775,304.4825,18.3225
1184,317074,2.2601720000000003,1.175348,-2.210884,54.3025,247.0475,10.29
1185,317172,1.835368,0.038308,-2.086688,72.5725,196.1575,-14.7175
1186,317270,1.334436,-1.311256,-1.407148,77.8575,154.3675,-14.42
1187,317368,0.953308,-0.9408639999999999,-1.055788,42.4025,127.1725,-2.555
1188,317466,2.556388,0.317688,-3.749792,15.715,114.3625,7.665
1189,317564,0.537776,-0.9403761,0.445788,5.2675,37.6425,32.7775
1190,317662,-0.13151600000000002,0.48385200000000006,-0.6790520999999999,-12.46,-15.9775,2.485
1191,317760,1.01138,-0.536556,-0.9952761,-7.1925,10.255,-6.405
1192,317858,0.49556400000000006,-0.193004,-0.893284,6.44,1.2075,-3.36
1193,317956,0.4594521,0.07027201,-0.9025559999999999,-0.1925,-1.1025,-3.6225
1194,318055,0.46896800000000005,-0.163968,-0.882548,7.8575,0.3675,-2.5375
1195,318153,0.41846000000000005,-0.037332,-0.8869401,4.2875,-0.63,-2.2225
1196,318251,0.4148,-0.05929201,-0.8796200000000001,4.7775,-0.35,-2.8175
1197,318349,0.3843,-0.046360000000000005,-0.8788879999999999,5.4075,0.5075,-2.835
1198,318447,0.418216,-0.063928,-0.88328,6.0375,1.7325,-3.1325
1199,318545,0.43188000000000004,-0.067588,-0.8757159999999999,5.635,1.5925,-3.4475
1200,318643,0.4023561,-0.029036000000000003,-0.8730319999999999,4.9875,0.945,-3.4825
1201,318741,0.394304,-0.05172801,-0.8601,5.7225,1.645,-3.3075
1202,318839,0.45457200000000003,-0.064416,-0.8625401,6.6675,2.905,-3.2025
1203,318937,0.432612,-0.027327999999999998,-0.8703481,6.195,2.8875,-2.9225
1204,319035,0.445788,-0.057828,-0.8869401,6.965,3.0625,-2.17
1205,319133,0.481412,-0.090036,-0.868152,8.12,3.43,-1.9075
1206,319231,0.453596,-0.08637601,-0.8727879999999999,7.6125,2.135,-2.415
1207,319329,0.46311199999999997,-0.091988,-0.8757159999999999,7.84,1.435,-2.8525
1208,319427,0.445788,-0.059048,-0.8662001,8.26,1.12,-3.01
1209,319525,0.41602,-0.047580000000000004,-0.858392,8.8725,1.015,-2.6425
1210,319623,0.431148,-0.075396,-0.8532681000000001,10.2025,2.1,-2.1175
1211,319721,0.45018,-0.09930800000000001,-0.844484,10.6225,2.73,-2.1175
1212,319819,0.441396,-0.06880801,-0.8464360000000001,9.835,2.3975,-2.3625
1213,319917,0.441396,-0.053924,-0.8591241,9.975,2.3975,-1.9075
1214,320015,0.454084,-0.07515201,-0.8479,10.9025,3.185,-1.05
1215,320114,0.45335200000000003,-0.08906,-0.8432639999999999,10.605,3.465,-0.6125
1216,320212,0.44993599999999995,-0.08881599,-0.8388721,10.1675,3.5175,-0.4025
1217,320310,0.424072,-0.11053199999999999,-0.8376520000000001,10.045,3.78,-0.2975
1218,320408,0.410408,-0.115168,-0.8371639999999999,9.3625,4.83,-0.8400001
1219,320506,0.416996,-0.111752,-0.843508,9.2225,6.4575,-1.435
1220,320604,0.431148,-0.08857201,-0.858392,9.1,8.4175,-2.205
1221,320702,0.447496,-0.057828,-0.8762040000000001,9.52,10.5525,-2.4675
1222,320800,0.45164399999999993,-0.067344,-0.8752280000000001,11.69,13.1075,-1.785
1223,320898,0.458232,-0.05856,-0.880352,14.245,16.38,-0.1925
1224,320996,0.438712,-0.064416,-0.8842561,17.15,20.335,1.2075
1225,321094,0.422608,-0.077348,-0.8813280000000001,19.5825,24.64,2.2225
1226,321192,0.409188,0.060512,-0.942084,22.3475,29.1725,1.015
1227,321290,0.27889200000000003,-0.241804,-0.7991,31.8675,32.0075,-5.4775
1228,321388,0.30548800000000004,-0.16104000000000002,-0.8388721,30.4325,42.8575,-8.3125
1229,321486,0.431392,-0.14274,-0.958432,27.195,57.855,-7.2975
1230,321584,0.480192,-0.185684,-0.853024,23.835,67.9525,-10.5875
1231,321682,0.5009319999999999,-0.040260000000000004,-0.9057280999999999,22.6625,74.76,-10.2725
1232,321780,0.49605200000000005,-0.07612801,-0.9042641,25.69,80.7975,-6.86
1233,321878,0.459696,-0.030987999999999998,-0.9472079999999999,29.33,87.3775,-4.8825
1234,321976,0.390644,-0.141276,-0.9186601000000001,36.47,97.19501,-6.2475
1235,322074,0.435784,-0.22204000000000002,-0.9464761,39.7425,111.7725,-10.1325
1236,322173,0.452376,-0.09516001,-0.96014,34.9125,125.4575,-19.2325
1237,322271,0.375272,-0.12175599999999999,-1.097024,35.665,137.41,-25.165
1238,322369,0.255468,0.061975999999999996,-1.307596,49.875,160.0375,-31.57
1239,322467,0.650748,-0.200324,-1.23464,65.36251,187.145,-41.615
1240,322565,0.683932,-0.122976,-1.473272,65.94,204.05,-50.54
1241,322663,0.8193521,0.532896,-2.467816,85.0675,249.3225,-41.8425
1242,322761,0.696132,0.24668400000000001,-1.990552,147.035,342.65,-15.6625
1243,322859,0.0488,0.266692,-2.0708279999999997,225.4525,415.8525,-13.8775
1244,322957,0.9886881,0.07881200000000001,-1.6574919999999997,279.1075,490.35,-23.59
1245,323055,0.441396,-0.7893399999999999,-1.9598080000000002,319.5675,569.555,-2.87
1246,323153,0.512644,-1.058716,-2.5827400000000003,262.3775,571.795,54.11
1247,323251,2.481236,-0.177876,-2.683512,132.09,485.695,36.2075
1248,323349,2.744756,-0.21813600000000002,-5.836236,13.7375,312.1825,-135.7825
1249,323447,0.8274040000000001,-0.03172,-4.413716,-1.96,120.1025,-165.7775
1250,323545,-0.49605200000000005,-0.10614000000000001,-2.441952,25.655,-1.2425,-156.7825
1251,323643,-0.8544879999999999,-0.326228,-1.4823,52.22,-42.21,-153.4925
1252,323741,-0.669292,-0.521184,-1.3973879999999999,59.9725,-47.565,-149.38
1253,323839,-0.370636,-0.606096,-1.613084,49.9275,-59.5175,-139.2475
1254,323937,-0.166408,-0.6117081,-1.712148,34.6325,-89.5825,-123.4275
1255,324036,-0.07076001,-0.548024,-1.63236,22.9425,-130.62,-103.4425
1256,324134,-0.044652,-0.47823999999999994,-1.420568,19.775,-171.1675,-80.605
1257,324232,0.0051240009999999996,-0.407968,-1.2099959999999998,22.05,-204.1725,-57.5575
1258,324330,0.10614000000000001,-0.34257600000000005,-1.054568,24.57,-229.355,-36.7675
1259,324428,0.20788800000000002,-0.26474000000000003,-0.9540401,22.96,-249.9175,-20.5625
1260,324526,0.29597199999999996,-0.151036,-0.8759601,17.99,-267.295,-9.345
1261,324624,0.340136,-0.022936,-0.796904,13.9475,-281.155,-2.2925
1262,324722,0.38552,0.0854,-0.753472,14.105,-290.0275,1.26
1263,324820,0.478728,0.128588,-0.803492,18.235,-294.6125,1.54
1264,324918,0.654408,0.122,-0.9415959999999999,22.89,-298.585,0.6125
1265,325016,0.8549761,0.096868,-1.0826280000000001,24.85,-305.97,-0.525
1266,325114,1.015772,0.07832401,-1.184376,22.61,-318.3425,-2.2225
1267,325212,1.150216,0.046360000000000005,-1.2322,18.2,-333.0775,-4.48
1268,325310,1.215608,0.01464,-1.242448,14.315,-347.305,-4.4625
1269,325408,1.277828,0.006587999999999999,-1.21756,11.655,-358.295,-1.1725
1270,325506,1.323456,0.061732,-1.2197559999999998,10.815,-364.5075,4.6025
1271,325604,1.43472,0.23301999999999998,-1.2756319999999999,13.4925,-365.12,10.4825
1272,325702,1.5201200000000001,0.485072,-1.33102,22.3825,-362.6875,13.1075
1273,325800,1.631384,0.7732359999999999,-1.405196,35.875,-357.0175,7.0
1274,325899,1.9144240000000001,1.11752,-1.6108879999999999,50.4175,-349.0025,-12.81
1275,325997,2.3250759999999997,1.350784,-1.784616,67.69001,-345.5725,-46.55
1276,326095,2.72914,1.4339879999999998,-1.8004759999999997,83.5625,-350.8575,-92.69751
1277,326193,3.027552,1.248792,-1.577948,96.95,-360.0275,-144.06
1278,326291,3.172976,0.9225639999999999,-1.1529,105.63,-365.6975,-187.985
1279,326389,3.145892,0.755424,-0.564372,108.7275,-362.0225,-214.585
1280,326487,2.9646,0.6039,0.05002,114.555,-343.4025,-222.3025
1281,326585,2.756712,0.255956,0.584868,121.2225,-309.155,-215.705
1282,326683,2.703276,-0.06344,0.9240280000000001,109.235,-261.94,-199.9725
1283,326781,2.764032,-0.20691199999999998,1.15656,82.0225,-211.6275,-177.8175
1284,326879,2.893596,-0.12029200000000001,1.4149559999999999,57.6275,-166.1975,-151.5325
1285,326977,2.860656,-0.079544,1.71898,54.0225,-124.32,-119.0875
1286,327075,2.652036,-0.18788,1.9232080000000003,58.17,-76.44001,-81.445
1287,327173,2.1652560000000003,-0.535824,1.781932,47.8275,-19.145,-47.81
1288,327271,0.196664,-3.166388,5.39484,-45.6575,96.32,-3.78
1289,327369,-0.27694,-0.101992,-1.2961280000000002,-389.655,270.0775,-44.3275
1290,327468,1.017968,0.190808,-1.556232,-308.595,310.065,-52.4825
1291,327566,0.28548,1.4095879999999998,0.037088,-251.8075,278.18,49.735
1292,327664,1.937116,2.197952,-1.8697720000000002,-120.155,329.6475,105.35
1293,327762,2.4695240000000003,3.638528,-1.849764,-100.45,301.0175,102.48
1294,327860,2.517836,3.0807439999999997,-2.516616,-30.38,260.0325,13.3875
1295,327958,2.145004,0.09540401,-2.3541119999999998,30.625,209.72,-44.065
1296,328056,1.537444,-1.2932,-1.7812,43.645,160.23,-28.84
1297,328154,0.9947881,-0.192028,-1.321992,7.5425,128.59,14.4375
1298,328252,3.972808,1.28588,-4.77508,-10.7275,113.715,26.6875
1299,328350,-0.082472,-0.6375721,-0.5648601,4.48,8.26,17.1325
1300,328448,0.332816,0.694912,-1.0260200000000002,5.915,20.4925,5.1625
1301,328546,0.620004,-0.5673,-0.922076,12.74,21.1225,3.57
1302,328644,0.1403,-0.025131999999999998,-0.90646,6.79,12.145,5.705
1303,328742,0.38918,-0.081252,-0.9262239999999999,7.77,17.7975,1.925
1304,328840,0.612684,-0.14762,-0.928176,13.3525,19.74,1.715
1305,328938,0.449692,-0.186904,-0.8718120999999999,11.515,13.4225,1.365
1306,329036,0.504592,0.011224,-0.9237841,6.755,10.745,-1.33
1307,329134,0.409432,-0.072956,-0.90036,7.9975,9.52,-0.63
1308,329232,0.479216,-0.09028,-0.8815719999999999,8.645,10.5875,-1.19
1309,329330,0.47213999999999995,-0.063928,-0.8820601,6.5625,9.9925,-2.065
1310,329428,0.46945600000000004,-0.054655999999999996,-0.885964,6.72,8.96,-2.205
1311,329526,0.49117200000000005,-0.07246799999999999,-0.8813280000000001,6.6675,9.1875,-2.695
1312,329624,0.5099600000000001,-0.074664,-0.8820601,5.81,8.155,-2.9575
1313,329722,0.490928,-0.08100801,-0.895236,5.355,6.195,-3.29
1314,329820,0.487512,-0.07856801,-0.870592,3.0275,4.41,-4.0775
1315,329919,0.47165200000000007,-0.094672,-0.8740081000000001,1.225,2.6775,-4.095
1316,330017,0.472628,-0.113704,-0.864492,0.21,1.47,-4.3225
1317,330115,0.46774799999999994,-0.12053599999999999,-0.8576601,-0.6475,0.07,-5.075
1318,330213,0.473116,-0.1159,-0.858392,-1.19,-1.365,-6.16
1319,330311,0.463844,-0.09979600000000001,-0.8579041,-1.855,-2.835,-7.105
1320,330409,0.4594521,-0.109556,-0.8525360000000001,-1.925,-4.025,-7.455
1321,330507,0.45603599999999994,-0.11614400000000001,-0.85034,-1.8725,-5.075,-7.7875
1322,330605,0.437492,-0.11541199999999999,-0.8459479999999999,-1.9425,-5.985,-8.155
1323,330703,0.434564,-0.11248399999999999,-0.8466800999999999,-1.8725,-6.2825,-8.61
1324,330801,0.42431599999999997,-0.10052799999999999,-0.8508280999999999,-1.3825,-6.0375,-8.925
1325,330899,0.428708,-0.08954801,-0.8522921,-0.525,-5.1975,-8.9075
1326,330997,0.424072,-0.08344800000000001,-0.853512,0.4025,-4.0425,-8.6625
1327,331095,0.42773199999999995,-0.083204,-0.8554641,1.19,-2.5725,-8.505
1328,331193,0.43554,-0.07856801,-0.859856,1.89,-1.155,-8.085
1329,331291,0.44652,-0.072712,-0.8620521000000001,2.8175,0.0175,-7.385
1330,331389,0.459696,-0.07808001,-0.863028,3.8325,0.91,-6.8075
1331,331487,0.45896400000000004,-0.07832401,-0.8608319999999999,4.6725,1.2425,-6.195
1332,331585,0.472872,-0.081496,-0.8608319999999999,5.3375,1.3825,-5.6875
1333,331683,0.47775200000000007,-0.08296,-0.8596120999999999,5.775,1.12,-5.3375
1334,331782,0.47653199999999996,-0.08564401,-0.859856,6.0725,0.315,-5.4775
1335,331880,0.46042799999999995,-0.0671,-0.8727879999999999,6.195,-0.1925,-5.5125
1336,331978,0.434564,-0.05612,-0.8791321,7.5775,0.3325,-5.5125
1337,332076,0.44944799999999996,-0.07344400000000001,-0.8671761,9.8875,2.1175,-5.95
1338,332174,0.462624,-0.059048,-0.8586360000000001,11.6725,3.7975,-5.845
1339,332272,0.459208,-0.053436000000000004,-0.8620521000000001,13.7375,4.305,-5.11
1340,332370,0.388936,-0.021228,-0.898408,15.82,6.1425,-4.4275
1341,332468,0.38356799999999996,0.030012,-0.9469641,20.16,10.7275,-5.04
1342,332566,0.38552,-0.084912,-0.8954801,25.62,16.905,-8.61
1343,332664,0.37551599999999996,-0.132004,-0.8664440000000001,28.3325,24.64,-10.5
1344,332762,0.390156,-0.048068,-0.8998719999999999,28.0175,33.5475,-8.5225
1345,332860,0.41894799999999993,-0.014152000000000001,-0.9225639999999999,30.45,41.5975,-7.3325
1346,332958,0.39771999999999996,0.016104,-0.9745360000000001,36.575,49.0525,-8.3825
1347,333056,0.335012,0.049044,-1.0230920000000001,46.6025,58.3275,-9.24
1348,333154,0.259372,0.023424,-1.068476,61.6,69.2125,-15.3475
1349,333252,0.23253200000000002,0.0244,-1.114104,82.495,82.53,-26.0225
1350,333350,0.31524800000000003,0.155184,-1.254892,101.08,97.09000999999999,-39.5675
1351,333449,0.2684,0.158356,-1.267824,131.46,112.1225,-45.9025
1352,333547,0.27205999999999997,0.178608,-1.41276,166.74,130.9175,-47.7225
1353,333645,0.443104,0.202276,-1.593808,213.5,148.5575,-49.175
1354,333743,1.1472879999999999,0.428708,-1.8880720000000002,279.1075,160.23,-40.2325
1355,333841,0.9701440999999998,0.597068,-1.6499279999999998,375.3225,151.3575,-34.7375
1356,333939,0.62708,0.02684,-0.9516,446.25,136.01,-51.8175
1357,334037,0.46726,-0.453596,-0.462624,444.185,161.6125,-90.8775
1358,334135,0.664168,-0.2562,-0.6036560999999999,411.985,188.6675,-105.7175
1359,334233,0.398696,0.36941599999999997,-1.191208,380.8,189.2625,-104.6325
1360,334331,1.482544,1.2519639999999999,-2.447564,346.7275,141.9775,-170.24
1361,334429,1.097512,0.906948,-2.50222,260.05,48.93,-276.0275
1362,334527,0.502152,0.567788,-1.6387040000000002,234.85,-28.84,-315.0175
1363,334625,-0.025131999999999998,0.176656,-0.8757159999999999,242.6375,-67.3925,-312.2525
1364,334723,-0.044164,-0.146644,-0.76494,247.5025,-73.36,-291.4275
1365,334821,0.118584,-0.223748,-0.987956,228.3575,-75.9675,-268.1175
1366,334920,0.204716,-0.047336,-1.2021879999999998,193.9525,-90.58001,-248.465
1367,335018,0.234972,0.2074,-1.258308,165.7775,-113.68,-231.0525
1368,335116,0.21886799999999998,0.398208,-1.172176,154.1925,-139.23,-214.83
1369,335214,0.196908,0.511668,-1.0589600000000001,156.0125,-160.825,-197.9425
1370,335312,0.253272,0.5382640000000001,-1.009916,160.8075,-176.05,-179.7775
1371,335410,0.384788,0.616588,-1.039928,157.9025,-188.475,-163.695
1372,335508,0.537288,0.7515201,-1.086288,148.12,-201.495,-151.8125
1373,335606,0.671244,0.9413520000000001,-1.0845799999999999,137.585,-216.3875,-144.9175
1374,335704,0.762744,1.110932,-1.0079639999999999,132.335,-230.895,-143.465
1375,335802,0.8230120999999999,1.224636,-0.900848,132.7725,-242.235,-147.42
1376,335900,0.863516,1.285392,-0.7890961,134.715,-248.675,-156.345
1377,335998,0.928176,1.312964,-0.7171161,134.8725,-250.1275,-170.6775
1378,336096,1.019432,1.3139399999999999,-0.696864,134.1025,-248.255,-189.5075
1379,336194,1.12362,1.2658719999999999,-0.6958880000000001,135.275,-245.105,-209.8775
1380,336292,1.206092,1.172664,-0.683932,139.0725,-241.9025,-230.37
1381,336390,1.2780719999999999,1.057008,-0.674416,145.005,-238.5775,-248.8325
1382,336488,1.348832,0.9274440999999999,-0.660996,152.985,-234.2025,-261.835
1383,336586,1.408368,0.792756,-0.6273241,161.455,-229.845,-270.095
1384,336684,1.46156,0.654896,-0.57218,168.5775,-224.9625,-273.5425
1385,336782,1.525,0.5502199999999999,-0.541192,172.9175,-219.8,-272.7375
1386,336880,1.597468,0.47043199999999996,-0.50142,173.425,-214.725,-268.31
1387,336978,1.6211360000000001,0.404796,-0.42773199999999995,169.925,-210.4025,-260.7675
1388,337077,1.633092,0.34892,-0.319884,162.9075,-204.855,-249.2175
1389,337175,1.6548080000000003,0.27816,-0.22252800000000003,151.8825,-197.26,-233.275
1390,337273,1.665544,0.18056,-0.18178,133.35,-187.8275,-214.4625
1391,337371,1.6857959999999999,0.141764,-0.2013,105.07,-177.765,-195.2475
1392,337469,1.6494400000000002,0.128588,-0.19032000000000002,75.3375,-168.77,-175.0
1393,337567,1.555012,0.104676,-0.14786400000000002,50.3825,-160.7025,-154.5775
1394,337665,1.44936,0.079056,-0.09589201,30.695,-150.955,-135.6425
1395,337763,1.342976,0.056608000000000006,-0.05856,16.555,-138.915,-119.8575
1396,337861,1.249036,0.04392,-0.031964,8.785,-124.6525,-107.8875
1397,337959,1.160952,0.045384,-0.025863999999999998,8.2775,-108.78,-99.9075
1398,338057,0.47702,-1.057984,4.081876,-4.5325,-53.655,-93.1175
1399,338155,2.394128,0.9328120000000001,2.403644,-168.77,89.7575,-135.7125
1400,338253,2.797948,0.24497600000000003,-2.789164,-109.585,169.4,-164.535
1401,338351,2.383636,-0.432856,-3.6961120000000003,-20.895,116.025,-70.6125
1402,338449,0.9293961,-0.671976,-0.876692,3.92,51.8,-5.8625
1403,338547,0.34111199999999997,-0.37551599999999996,-1.1716879999999998,-1.365,38.605,16.73
1404,338645,-0.323056,-0.279136,-0.18446400000000002,-8.61,38.745,25.8825
1405,338743,-0.404796,-0.036356,-0.167872,-20.0025,59.9725,22.2075
1406,338841,0.120048,0.395768,-0.5653481,-26.6875,87.53501,15.1025
1407,338939,0.734684,0.738344,-1.029436,-22.2075,101.3075,5.1625
1408,339037,1.084092,0.534116,-1.380796,-11.06,93.9225,-13.195
1409,339135,1.7336200000000002,0.687104,-2.779404,-0.6475,69.72,-25.585
1410,339234,1.305888,-0.634156,-1.068476,49.42,20.755,-1.05
1411,339332,0.411628,-0.133468,-1.02724,6.02,-11.9525,-1.96
1412,339430,0.289628,0.223748,-0.8666879999999999,0.7175,-11.2175,-6.3175
1413,339528,0.666852,-0.296216,-0.966728,11.445,-6.51,-1.4175
1414,339626,0.46921199999999996,-0.022203999999999998,-0.9010921000000001,1.4175,-11.305,-6.265
1415,339724,0.411384,0.064172,-0.869616,-2.4675,-13.2475,-9.6775
1416,339822,0.45383999999999997,-0.04392,-0.8881600000000001,1.8025,-10.0275,-5.7925
1417,339920,0.427976,0.023424,-0.874252,-0.525,-9.0125,-6.7375
1418,340018,0.43944399999999995,-0.05002,-0.8796200000000001,0.2625,-7.42,-6.6325
1419,340116,0.449692,-0.045384,-0.8762040000000001,-0.665,-6.3175,-6.685
1420,340214,0.447008,-0.030256,-0.8820601,-2.3625,-6.7375,-7.5425
1421,340312,0.462624,-0.038551999999999996,-0.8940161,-3.115,-6.5275,-7.875
1422,340410,0.44554399999999994,-0.037332,-0.892064,-3.605,-6.3525,-6.825
1423,340508,0.459208,-0.030744,-0.8893800999999999,-3.57,-5.8625,-7.14
1424,340606,0.45261999999999997,-0.027572000000000003,-0.889136,-3.15,-5.46,-6.5975
1425,340704,0.456768,-0.027572000000000003,-0.883524,-3.3075,-5.81,-7.6475
1426,340802,0.4575,-0.010248,-0.8796200000000001,-3.2025,-5.8275,-7.2975
1427,340900,0.456768,-0.01098,-0.8788879999999999,-3.01,-6.2125,-7.21
1428,340998,0.45286400000000004,-0.015128,-0.8791321,-3.045,-6.58,-6.825
1429,341096,0.447984,-0.020252000000000003,-0.87474,-3.535,-6.965,-7.525
1430,341194,0.443104,-0.026351999999999997,-0.870592,-3.85,-7.21,-7.8925
1431,341292,0.43798000000000004,-0.020252000000000003,-0.868884,-3.99,-7.49,-8.365
1432,341390,0.41992399999999996,-0.02806,-0.8664440000000001,-3.8325,-7.875,-8.8375
1433,341488,0.431392,-0.029768,-0.869128,-2.94,-7.98,-8.2425
1434,341587,0.42578,-0.022448,-0.8613200000000001,-2.625,-8.19,-9.0825
1435,341685,0.416996,-0.019032,-0.8666879999999999,-1.6975,-8.3475,-8.715
1436,341783,0.425292,-0.01952,-0.8652241,-0.5425,-8.085,-7.84
1437,341881,0.423828,-0.013908000000000002,-0.8676640999999999,0.35,-8.015,-7.665
1438,341979,0.423584,-0.029036000000000003,-0.865956,1.6975,-7.7875,-7.0875
1439,342077,0.419192,-0.018788,-0.8676640999999999,2.9225,-7.63,-6.545
1440,342175,0.410408,-0.015128,-0.868152,4.305,-7.385,-6.1075
1441,342273,0.416264,-0.014396,-0.868152,5.845,-6.5975,-5.4425
1442,342371,0.42114399999999996,-0.019764,-0.8674200000000001,6.685,-6.16,-4.97
1443,342469,0.406748,-0.02562,-0.861808,7.4375,-5.95,-4.5325
1444,342567,0.407236,-0.00122,-0.8664440000000001,7.875,-5.04,-4.2175
1445,342665,0.410896,-0.022936,-0.8608319999999999,9.45,-3.675,-3.71
1446,342763,0.4087,0.00122,-0.8669319999999999,10.9725,-2.3625,-3.045
1447,342861,0.406748,-0.008296000999999999,-0.8693719999999999,12.915,-0.7875,-2.275
1448,342959,0.39161999999999997,-0.010736,-0.8740081000000001,15.225,1.015,-0.98
1449,343057,0.395524,-0.014396,-0.8788879999999999,17.15,3.4475,-0.245
1450,343155,0.396256,-0.006587999999999999,-0.8786440999999999,18.8475,6.125,0.7875
1451,343253,0.368684,-0.033672,-0.873764,21.3675,9.485,2.2225
1452,343351,0.379176,-0.02562,-0.8813280000000001,23.6775,13.72,3.255
1453,343449,0.358192,-0.05172801,-0.880352,26.215,18.795,4.3575
1454,343547,0.378688,-0.09150001,-0.8781559999999999,28.175,24.8675,5.3375
1455,343646,0.438224,-0.054167999999999994,-0.8935280999999999,28.28,31.115,5.705
1456,343744,0.387472,-0.06661201,-0.9006040999999999,29.365,36.155,5.285
1457,343842,0.396256,-0.01098,-0.9137799999999999,31.0625,42.875,5.1275
1458,343940,0.337696,0.14493599999999998,-1.042124,35.5075,52.045,2.7825
1459,344038,0.277428,-0.108824,-0.9198799999999999,51.2575,58.3275,-8.4175
1460,344136,0.276208,-0.261812,-0.874984,47.32,73.745,-8.9425
1461,344234,0.29036,0.036112,-0.9791719999999999,36.54,95.1475,-4.48
1462,344332,0.284748,0.01586,-1.023824,45.9725,112.4375,-5.075
1463,344430,0.3599,-0.339892,-1.037488,55.1775,133.7175,-11.305
1464,344528,0.31964000000000004,0.110776,-1.119472,53.0075,156.4675,-20.16
1465,344626,0.41260399999999997,0.018788,-1.317356,60.4625,183.54,-24.43
1466,344724,0.329888,-0.23472800000000002,-1.328336,94.74501,207.1825,-30.5375
1467,344822,0.644404,-0.331108,-1.37616,99.05001,242.445,-43.4
1468,344920,0.749568,-0.227652,-1.512312,99.64499,274.085,-63.1575
1469,345018,1.282708,1.218048,-2.330444,104.755,305.305,-64.6975
1470,345116,0.33013200000000004,0.401868,-2.043256,231.0,358.7325,-15.8725
1471,345214,0.8422879999999999,-0.558516,-0.8730319999999999,274.995,399.6125,-14.63
1472,345312,0.315004,-0.8020281,-1.4515559999999998,248.9375,493.7975,-33.3025
1473,345410,0.33061999999999997,-0.788852,-1.297104,168.91,542.9375,-30.5375
1474,345509,0.114924,-0.774456,-1.473028,77.35,513.2575,-13.6325
1475,345607,2.13988,-0.788852,-3.7822440000000004,-18.97,449.33,-52.99
1476,345705,2.507588,0.208132,-5.187684,-92.41751,333.6025,-87.4475
1477,345803,1.562332,0.8261841000000001,-4.9451480000000005,-80.97251,157.99,-78.12
1478,345901,0.305976,0.830332,-3.5272639999999997,-10.3425,-7.735,-66.9025
1479,345999,-0.696864,0.49434399999999995,-2.033252,61.46,-108.08,-60.9525
1480,346097,-1.092144,0.21008400000000002,-1.161196,94.67501,-143.535,-65.835
1481,346195,-1.052616,0.07588400000000001,-0.86498,87.95501,-143.5175,-77.6125
1482,346293,-0.7812880999999999,0.117852,-0.924516,61.46,-135.555,-89.67
1483,346391,-0.480192,0.223992,-1.112396,38.29,-135.135,-97.4925
1484,346489,-0.189832,0.32256799999999997,-1.291248,32.2,-146.685,-98.2975
1485,346587,0.008296000999999999,0.31012399999999996,-1.3527360000000002,42.945,-169.1025,-93.3275
1486,346685,0.14884,0.233508,-1.335412,58.065,-196.4725,-85.05
1487,346783,0.281088,0.11736400000000001,-1.241472,65.275,-223.9825,-76.4575
1488,346881,0.40967600000000004,0.07417601,-1.1934040000000001,59.605,-248.3775,-70.3325
1489,346979,0.5543680000000001,0.09589201,-1.172176,47.81,-269.7625,-65.1175
1490,347077,0.665876,0.161528,-1.141676,36.33,-289.5375,-59.815
1491,347175,0.757864,0.211792,-1.090924,30.3625,-307.265,-54.25
1492,347273,0.8193521,0.229604,-1.034316,28.805,-321.1075,-48.825
1493,347371,0.8679081,0.21838000000000002,-0.9967401,27.4225,-330.5575,-44.135
1494,347470,0.9067040000000001,0.19959200000000002,-0.9974719999999999,23.485,-335.825,-40.8625
1495,347568,0.9730721,0.192028,-1.053836,16.8175,-337.365,-38.4825
1496,347666,1.0255319999999999,0.155184,-1.092388,9.5725,-337.33,-36.7325
1497,347764,1.0384639999999998,0.11834000000000001,-1.0906799999999999,2.555,-335.6325,-34.3175
1498,347862,1.0765280000000002,0.10004,-1.10776,-1.855,-329.5775,-29.855
1499,347960,1.21146,0.086864,-1.265628,-2.2575,-318.5175,-22.1025
1500,348058,1.452776,0.058803999999999995,-1.547936,-0.56,-307.58,-12.0225
1501,348156,1.651148,-0.041236,-1.804136,-1.575,-303.695,-2.765
1502,348254,1.8221919999999998,-0.157136,-1.937848,-11.6725,-305.41,2.1525
1503,348352,2.074488,-0.141276,-1.9266240000000001,-27.8425,-307.825,3.64
1504,348450,2.41438,-0.063196,-1.913936,-37.835,-309.4,5.285
1505,348548,2.803316,-0.211304,-1.777784,-33.2325,-313.53,2.6425
1506,348646,3.0924560000000003,-0.296704,-1.477176,-31.6225,-320.2675,-4.3925
1507,348744,3.113684,-0.45603599999999994,-0.921344,-31.15,-327.25,-15.89
1508,348842,2.983876,-0.487512,-0.1769,-25.8475,-326.83,-28.8925
1509,348940,2.706692,-0.371856,0.724436,-7.49,-310.975,-37.7825
1510,349038,2.678388,-0.188368,1.4715639999999999,35.595,-270.3225,-35.0
1511,349136,2.879444,-0.254004,2.000068,95.725,-211.89,-17.57
1512,349234,3.067324,-0.48433999999999994,2.3197080000000003,134.295,-148.9425,6.1425
1513,349332,2.762568,-0.8662001,2.492216,127.085,-82.285,17.3425
1514,349430,1.573556,-2.440732,5.65592,46.4275,40.005,32.235
1515,349529,0.153476,0.007076001,4.758732,-198.73,252.91,51.1
1516,349627,1.344196,-0.007320001,-3.371104,-252.5075,400.3125,-27.0725
1517,349725,3.065128,0.7217521,-3.055368,-176.365,398.58,32.48
1518,349823,1.600884,0.219112,-0.381372,-57.995,295.645,157.5
1519,349921,1.457168,1.468148,-1.626016,-23.415,275.135,193.6375
1520,350019,2.148176,2.545896,-2.019588,-7.5075,271.1625,170.9575
1521,350117,1.564284,2.584448,-1.3888479999999999,20.93,225.82,118.3875
1522,350215,1.683356,2.161596,-1.8849,62.3175,202.2475,46.4975
1523,350313,1.75558,-0.17738800000000002,-1.9951880000000002,90.89499,171.395,-11.34
1524,350411,1.1392360000000001,-2.069852,-1.186816,84.42,128.6775,-22.3825
1525,350509,0.9089001,-0.674172,-1.230492,20.16,108.1675,-9.1875
1526,350607,2.960208,0.41236000000000006,-2.261148,15.785,72.3625,15.12
1527,350705,0.363072,-1.361764,-0.8025161,4.27,-13.3875,3.01
1528,350803,0.193248,0.8910879999999999,-0.9874681000000001,-30.905,-3.1325,-9.1525
1529,350901,0.74542,-0.461404,-0.9652639999999999,3.395,3.605,-11.935
1530,350999,0.462624,0.092964,-0.9347639999999999,-11.1125,-6.1775,-10.08
1531,351098,0.44066400000000006,0.01098,-0.9381801,-8.925,-7.0,-10.9725
1532,351196,0.48263199999999995,-0.09052401,-0.90402,-2.3625,-4.76,-8.995
1533,351294,0.44090799999999997,0.001952,-0.897432,-4.83,-5.425,-9.1
1534,351392,0.441884,-0.012444,-0.8949921000000001,-2.8525,-5.1625,-8.82
1535,351490,0.397964,-0.03538,-0.8845,-1.225,-5.355,-8.0675
1536,351588,0.413092,-0.015616,-0.8801081000000001,0.07,-4.2175,-7.7525
1537,351686,0.44212799999999997,-0.0122,-0.891576,1.0325,-2.905,-6.9825
1538,351784,0.41602,-0.028304000000000003,-0.8752280000000001,2.5725,-2.5025,-5.9675
1539,351882,0.43066000000000004,-0.01708,-0.883036,2.87,-1.575,-6.055
1540,351980,0.45432799999999995,-0.02562,-0.8874280999999999,3.7975,-0.8925,-5.53
1541,352078,0.447008,-0.034648000000000005,-0.877668,4.41,-0.91,-5.2325
1542,352176,0.449692,-0.029768,-0.8818159999999999,4.4625,-0.9625,-5.1625
1543,352274,0.45018,-0.013663999999999999,-0.885476,5.0225,-0.945,-4.935
1544,352372,0.444812,-0.018056,-0.8827921000000001,6.265,-0.7175,-4.06
1545,352470,0.434076,-0.011224,-0.8823040000000001,7.84,-0.63,-3.1675
1546,352568,0.43236800000000003,-0.012444,-0.8788879999999999,9.38,-0.1225,-2.345
1547,352666,0.4087,-0.01708,-0.8676640999999999,9.5025,-0.28,-1.68
1548,352765,0.396256,-0.013663999999999999,-0.861808,10.045,0.385,-1.1725
1549,352863,0.42163199999999995,-0.041724000000000004,-0.8569280999999999,11.41,1.785,-1.19
1550,352961,0.42822,-0.049288,-0.855708,11.865,2.415,-1.435
1551,353059,0.43554,-0.011468,-0.869128,12.25,2.7475,-1.225
1552,353157,0.44554399999999994,-0.010004,-0.8730319999999999,13.265,3.36,-0.1225
1553,353255,0.433832,-0.021716,-0.8664440000000001,14.28,4.0425,1.1025
1554,353353,0.42187600000000003,-0.025131999999999998,-0.8652241,15.015,4.9175,1.8025
1555,353451,0.416996,-0.034648000000000005,-0.8625401,15.75,6.545,2.1875
1556,353549,0.42944,-0.03782,-0.8574161,16.625,8.085,2.24
1557,353647,0.432856,-0.030256,-0.860344,17.1675,9.1875,1.9075
1558,353745,0.411628,-0.0427,-0.8596120999999999,18.025,10.22,1.435
1559,353843,0.392352,-0.062952,-0.8647360000000001,19.4075,12.8275,1.225
1560,353941,0.416264,-0.0671,-0.853756,19.95,16.5725,1.61
1561,354039,0.424072,-0.059048,-0.8674200000000001,21.2275,19.705,1.7325
1562,354137,0.429196,-0.081984,-0.862784,22.645,23.1175,2.5025
1563,354235,0.387716,-0.06929600000000001,-0.87718,24.1325,27.4225,2.45
1564,354333,0.33013200000000004,0.077348,-0.9442801,27.23,34.4225,0.315
1565,354431,0.24034,-0.188856,-0.8571719999999999,39.27,41.965,-6.965
1566,354529,0.30353600000000003,-0.18422,-0.8479,40.285,56.9275,-10.325
1567,354627,0.50508,-0.00122,-0.966728,32.27,75.3025,-6.09
1568,354725,0.446276,-0.037332,-0.9118280000000001,36.5925,82.1275,-3.57
1569,354823,0.43627200000000005,-0.0671,-0.9362280000000001,36.8025,93.3975,-2.625
1570,354921,0.393572,-0.168604,-0.950868,44.3625,103.8625,-5.7575
1571,355019,0.35868,-0.135908,-1.034804,48.2125,121.205,-12.6525
1572,355118,0.232776,-0.05368,-1.1392360000000001,48.055,142.0125,-17.6225
1573,355216,0.291824,-0.15054800000000002,-1.2014559999999999,59.255,167.02,-26.74
1574,355314,0.400648,-0.207156,-1.1892559999999999,75.495,190.82,-40.5825
1575,355412,0.384056,-0.130296,-1.2902719999999999,82.4425,220.29,-50.0325
1576,355510,0.477996,-0.24668400000000001,-1.260016,80.675,249.69,-61.6525
1577,355608,1.2343959999999998,0.6919841,-2.572492,82.425,271.915,-75.0225
1578,355706,0.7285841,0.5516840000000001,-2.227964,166.4775,348.0575,-48.2825
1579,355804,0.9994241,0.02928,-1.1709559999999999,276.6925,418.2675,-41.51
1580,355902,0.08003201,-1.2190239999999999,-1.62748,334.1625,516.8625,-38.2725
1581,356000,0.10614000000000001,-1.6674959999999999,-1.08092,231.3325,572.53,-39.0075
1582,356098,0.194712,-1.018456,-1.5906360000000002,44.625,565.9325,-33.32
1583,356196,2.101572,-0.780068,-2.834548,-100.52,512.1025,-94.1325
1584,356294,2.430972,-0.104432,-5.0378680000000005,-173.67,425.0575,-150.29
1585,356392,2.115236,0.627568,-5.605412,-148.505,273.7525,-133.105
1586,356490,0.9464761,0.632448,-4.620872,-49.805,100.6075,-103.95
1587,356588,-0.13298,0.09613601,-3.103436,52.9025,-34.3875,-84.315
1588,356686,-0.8042239999999999,-0.390888,-1.9483400000000002,98.28,-105.9625,-80.3775
1589,356784,-0.9745360000000001,-0.6075600999999999,-1.3644479999999999,84.9275,-129.22,-84.8925
1590,356882,-0.8081281,-0.5663239999999999,-1.286612,41.0375,-131.11,-88.23501
1591,356980,-0.5124001,-0.355508,-1.436672,0.5425,-134.925,-85.19
1592,357078,-0.23009200000000002,-0.129564,-1.58844,-16.6425,-151.48,-75.7575
1593,357176,0.007320001,0.022203999999999998,-1.6479759999999999,-9.38,-180.1625,-61.88
1594,357274,0.12566,0.044164,-1.542324,12.32,-215.285,-46.9525
1595,357372,0.191052,-0.0034159999999999998,-1.3449280000000001,30.135,-248.2725,-34.58
1596,357470,0.25058800000000003,-0.012688,-1.1599760000000001,33.46,-273.6475,-27.405
1597,357569,0.370392,0.03416,-1.062132,26.3025,-290.9375,-24.43
1598,357667,0.529724,0.10248,-1.041636,17.8325,-303.66,-22.6275
1599,357765,0.642696,0.153476,-1.0230920000000001,13.4925,-315.945,-19.9325
1600,357863,0.7378560000000001,0.190564,-1.017236,13.44,-326.9525,-16.52
1601,357961,0.8332601000000001,0.21447600000000003,-1.054324,14.4375,-335.9475,-13.72
1602,358059,0.9386681,0.217404,-1.101172,14.2275,-343.8925,-12.565
1603,358157,1.048468,0.22082,-1.1507040000000002,11.2875,-351.2425,-13.335
1604,358255,1.117764,0.209352,-1.1529,7.595,-358.015,-15.3825
1605,358353,1.125084,0.121024,-1.102636,4.9175,-362.565,-16.4325
1606,358451,1.162172,0.0244,-1.109712,1.82,-361.06,-13.4575
1607,358549,1.282952,-0.112728,-1.18828,-2.0475,-354.095,-5.915
1608,358647,1.464732,-0.15420799999999998,-1.390068,-8.715,-344.61,6.1775
1609,358745,1.704584,-0.11736400000000001,-1.6328479999999999,-15.26,-336.8925,21.035
1610,358843,1.8927080000000003,-0.17519200000000001,-1.7821759999999998,-19.4425,-334.775,35.0175
1611,358941,2.126216,-0.296216,-1.9032,-27.8075,-334.915,42.8575
1612,359039,2.518568,-0.44408000000000003,-1.913936,-41.2475,-335.23,44.8175
1613,359137,2.89506,-0.290848,-1.8409799999999998,-53.935,-338.065,48.4575
1614,359235,3.190544,-0.35624,-1.625528,-47.3375,-344.5575,56.21
1615,359333,3.256912,-0.340136,-1.1636360000000001,-39.27,-349.65,61.355
1616,359431,3.1280799999999997,-0.5023960999999999,-0.511424,-33.1275,-348.005,62.86
1617,359529,2.895548,-0.5655920999999999,0.23058,-35.28,-329.9625,62.2475
1618,359628,2.764764,-0.41358,0.8042239999999999,-37.66,-295.61,62.1425
1619,359726,2.9262919999999997,-0.155428,1.216584,-22.47,-250.81,63.2275
1620,359824,3.20128,-0.077592,1.603324,12.005,-204.61,64.3825
1621,359922,3.3074199999999996,-0.07612801,1.9661520000000001,45.22,-158.2525,60.69
1622,360020,2.917264,-0.164212,2.232112,63.2975,-103.3375,47.915
1623,360118,2.242604,-0.3294,2.221864,61.4775,-32.865,25.5325
1624,360216,1.8463479999999999,-1.143384,3.321572,43.6975,55.545,8.085
1625,360314,-3.575332,-0.675148,6.540176,-44.905,259.28,66.53501
1626,360412,-0.090768,-0.8847440999999999,-0.782752,-134.995,467.1625,-10.6925
1627,360510,5.5451440000000005,0.5577840000000001,-2.891644,-145.6175,525.5775,-14.84
1628,360608,3.0453639999999997,-0.03294,-1.8180439999999998,-45.22,369.2675,127.4875
1629,360706,1.541836,0.9703879999999999,-1.738012,-31.85,296.52,114.0125
1630,360804,2.5876200000000003,2.163304,-2.136708,-7.4725,306.18,110.425
1631,360902,2.315804,2.406816,-1.969324,41.3,260.155,91.805
1632,361000,1.892464,1.4757120000000001,-2.195268,76.65,211.365,40.1275
1633,361098,1.387384,-0.6790520999999999,-1.6801840000000001,96.145,170.1525,-11.2525
1634,361196,2.163548,0.128588,-3.11344,75.0575,135.1,-14.77
1635,361294,2.830644,-2.101084,-0.77104,108.2025,72.695,40.11
1636,361392,0.13859200000000002,0.030256,-1.048956,-35.3325,-25.41,22.6275
1637,361490,0.734684,0.178608,-1.048712,-28.63,4.2,-7.21
1638,361588,0.5987760999999999,-0.442616,-0.898164,26.3375,7.1925,-5.04
1639,361687,0.36941599999999997,0.160308,-0.8959681,-7.875,-5.67,-5.7575
1640,361785,0.50874,-0.07808001,-0.9191481,1.89,-2.73,-5.95
1641,361883,0.429196,-0.077348,-0.8903561,3.6225,-2.625,-4.095
1642,361981,0.4404201,-0.025863999999999998,-0.8910879999999999,1.75,-1.4525,-4.5325
1643,362079,0.42895200000000006,-0.046360000000000005,-0.8788879999999999,3.0975,-0.28,-4.3575
1644,362177,0.424072,-0.008540001,-0.8954801,3.4825,0.8225,-3.71
1645,362275,0.422608,-0.025131999999999998,-0.8893800999999999,5.845,2.205,-2.66
1646,362373,0.40626,-0.01708,-0.883768,7.7525,2.905,-1.645
1647,362471,0.413092,-0.015616,-0.8791321,8.12,2.4325,-0.98
1648,362569,0.42333999999999994,-0.029768,-0.870592,6.2475,0.7175,-0.7
1649,362667,0.43724799999999997,-0.044896,-0.8642481,6.51,1.0325,-0.3675
1650,362765,0.448716,-0.053436000000000004,-0.868396,6.02,0.8925,-0.595
1651,362863,0.458476,-0.047336,-0.874984,4.7075,0.245,-1.3125
1652,362961,0.446276,-0.062220000000000004,-0.8744960999999999,3.7975,-0.665,-1.8375
1653,363059,0.46164799999999995,-0.076616,-0.869616,3.2725,-1.155,-2.6425
1654,363157,0.454816,-0.07808001,-0.868152,2.695,-2.205,-3.9025
1655,363255,0.439932,-0.066856,-0.859368,2.24,-3.5525,-5.1275
1656,363353,0.44286000000000003,-0.05636401,-0.8547319999999999,1.6975,-4.4625,-6.1775
1657,363451,0.43041599999999997,-0.015616,-0.869128,1.68,-4.9525,-6.5975
1658,363549,0.42822,-0.004148001,-0.873276,3.1675,-4.3225,-5.8275
1659,363647,0.43188000000000004,-0.025376,-0.8679081,5.25,-3.4125,-4.655
1660,363745,0.443104,-0.0366,-0.8610761,6.4925,-2.555,-3.885
1661,363843,0.432612,-0.021716,-0.8642481,7.5775,-2.2575,-3.1675
1662,363941,0.426512,-0.011224,-0.8676640999999999,8.855,-1.4175,-2.5025
1663,364040,0.426756,-0.031476,-0.8601,10.99,0.07,-1.33
1664,364138,0.429196,-0.0427,-0.858392,12.6175,1.2775,-0.6825
1665,364236,0.423096,-0.034648000000000005,-0.858392,13.7725,2.2925,-0.3675
1666,364334,0.4087,-0.031476,-0.8652241,15.68,3.43,0.4375
1667,364432,0.40357600000000005,-0.052703999999999994,-0.8640040000000001,17.5875,5.355,1.1725
1668,364530,0.398696,-0.07637200000000001,-0.863028,19.1275,7.84,1.54
1669,364628,0.396012,-0.05856,-0.8698601,20.4225,11.4625,1.575
1670,364726,0.39284,-0.058072000000000006,-0.8757159999999999,22.2775,15.3825,1.4175
1671,364824,0.393328,-0.06270801,-0.8827921000000001,24.1325,20.125,0.7875
1672,364922,0.374052,-0.067832,-0.9032879999999999,27.685,25.9525,-2.0825
1673,365020,0.26108000000000003,-0.01342,-0.958432,32.48,33.0575,-7.0875
1674,365118,0.26474000000000003,-0.09711201,-0.9247601000000001,41.0375,43.9775,-13.1075
1675,365216,0.320372,-0.150792,-0.8642481,41.9825,60.445,-14.7875
1676,365314,0.392108,0.050508,-0.9711200999999999,39.5325,77.8225,-10.64
1677,365412,0.4575,-0.069784,-0.919392,46.4275,89.1975,-8.295
1678,365510,0.50508,-0.017568,-0.93086,46.1825,96.9675,-7.2625
1679,365608,0.277672,-0.1098,-0.968192,53.655,102.55,-8.295
