,T,ax,ay,az,gx,gy,gz
0,188613,0.427976,0.284504,-0.6675840000000001,19.845,-19.8975,-18.55
1,188768,0.4575,0.296216,-0.772992,67.34000999999999,-90.8775,-10.535
2,188866,0.477508,0.30012,-0.821792,64.05,-130.9,41.545
3,188964,0.478728,0.30134,-0.8222799999999999,45.9025,-109.4275,-14.9275
4,189063,0.477508,0.30182800000000004,-0.8252079999999999,2.3625,-6.4225,-4.1825
5,189161,0.478484,0.30353600000000003,-0.824232,1.575,-4.62,-4.095
6,189259,0.478972,0.30182800000000004,-0.8261841000000001,1.4875,-4.6025,-4.095
7,189357,0.47653199999999996,0.302072,-0.8261841000000001,1.4875,-4.5325,-4.0775
8,189455,0.47823999999999994,0.302804,-0.826428,1.5575,-4.4975,-4.095
9,189553,0.47677600000000003,0.303048,-0.82594,1.505,-4.4625,-4.095
10,189651,0.477508,0.303292,-0.826916,1.575,-4.4975,-4.0425
11,189749,0.478484,0.301584,-0.8274040000000001,1.505,-4.4625,-4.0075
12,189847,0.47775200000000007,0.30134,-0.826428,1.5225,-4.445,-3.99
13,189945,0.47823999999999994,0.30353600000000003,-0.826916,1.505,-4.445,-4.0425
14,190044,0.47775200000000007,0.30353600000000003,-0.8256960999999999,1.47,-4.4625,-4.0425
15,190142,0.478972,0.30353600000000003,-0.82594,1.435,-4.3575,-4.0425
16,190240,0.479216,0.30353600000000003,-0.8256960999999999,1.54,-4.4275,-3.9725
17,190338,0.478728,0.302072,-0.8252079999999999,1.6275,-4.55,-3.99
18,190436,0.480192,0.302316,-0.8239880999999999,1.575,-4.585,-4.0075
19,190534,0.479704,0.303048,-0.8247200000000001,1.61,-4.655,-4.025
20,190632,0.478972,0.30353600000000003,-0.8271601000000001,1.645,-4.655,-4.025
21,190730,0.479216,0.300608,-0.8249639999999999,1.68,-4.655,-4.0075
22,190828,0.478728,0.30036399999999996,-0.8230120999999999,1.75,-4.76,-3.9725
23,190926,0.477508,0.303292,-0.82594,1.7675,-4.865,-3.9375
24,191025,0.47775200000000007,0.30036399999999996,-0.826428,1.6975,-4.83,-3.955
25,191123,0.477264,0.301584,-0.8271601000000001,1.68,-4.6375,-3.9725
26,191221,0.477264,0.30182800000000004,-0.826672,1.5575,-4.585,-4.095
27,191319,0.476288,0.299632,-0.8254520000000001,1.54,-4.5675,-4.095
28,191417,0.477264,0.303048,-0.82594,1.505,-4.4975,-4.13
29,191515,0.47994799999999993,0.304512,-0.8271601000000001,1.4175,-4.4625,-4.1825
30,191613,0.47775200000000007,0.30109600000000003,-0.8261841000000001,1.4525,-4.4975,-4.165
31,191711,0.478972,0.30402399999999996,-0.826428,1.47,-4.515,-4.095
32,191809,0.478972,0.302316,-0.823744,1.3825,-4.4275,-4.1125
33,191908,0.47775200000000007,0.30036399999999996,-0.8276481,1.365,-4.48,-4.095
34,192006,0.47823999999999994,0.30256,-0.826672,1.4175,-4.445,-4.06
35,192104,0.479216,0.30012,-0.8239880999999999,1.4525,-4.48,-4.025
36,192202,0.476288,0.302072,-0.824232,1.3475,-4.55,-4.095
37,192300,0.47775200000000007,0.303048,-0.8271601000000001,1.4,-4.5675,-4.1475
38,192398,0.476288,0.302804,-0.8261841000000001,1.3125,-4.62,-4.1125
39,192496,0.477996,0.302804,-0.8249639999999999,1.3475,-4.6725,-4.165
40,192594,0.479216,0.300852,-0.8235001000000001,1.5225,-4.6375,-4.1475
41,192692,0.478484,0.302804,-0.8254520000000001,1.4,-4.725,-4.2
42,192791,0.47604399999999997,0.302072,-0.8261841000000001,1.4175,-4.7075,-4.1475
43,192889,0.481412,0.30256,-0.8235001000000001,1.4175,-4.69,-4.165
44,192987,0.47775200000000007,0.302804,-0.8249639999999999,1.4,-4.76,-4.13
45,193085,0.478484,0.303292,-0.8252079999999999,1.3475,-4.7775,-4.27
46,193183,0.47775200000000007,0.304512,-0.8256960999999999,1.365,-4.7425,-4.3225
47,193281,0.478728,0.30353600000000003,-0.8254520000000001,1.3475,-4.7075,-4.375
48,193379,0.47823999999999994,0.305,-0.8261841000000001,1.4,-4.7425,-4.2525
49,193477,0.477508,0.306464,-0.8239880999999999,1.4525,-4.8475,-4.34
50,193575,0.477996,0.30475599999999997,-0.8244761,1.4875,-4.725,-4.2525
51,193674,0.47994799999999993,0.30378,-0.8249639999999999,1.6625,-4.8125,-4.1475
52,193772,0.479216,0.306708,-0.82594,1.75,-4.9,-4.06
53,193870,0.47702,0.30256,-0.826916,1.8375,-4.9875,-4.06
54,193968,0.478484,0.30548800000000004,-0.8261841000000001,1.785,-5.005,-4.1825
55,194066,0.47653199999999996,0.303292,-0.826916,1.855,-4.9,-4.1125
56,194164,0.47482399999999997,0.303048,-0.8256960999999999,1.8375,-4.795,-4.13
57,194262,0.475312,0.30353600000000003,-0.824232,1.925,-4.9175,-4.025
58,194360,0.47555600000000003,0.30402399999999996,-0.824232,1.995,-4.935,-4.025
59,194458,0.47336000000000006,0.305244,-0.822524,1.995,-4.8125,-3.9375
60,194556,0.46921199999999996,0.29792399999999997,-0.8210601000000001,2.0125,-4.795,-3.885
61,194655,0.477264,0.302316,-0.8271601000000001,1.82,-4.6025,-3.9375
62,194753,0.47458,0.30109600000000003,-0.8252079999999999,1.68,-4.5325,-3.9375
63,194851,0.4743361,0.299144,-0.8247200000000001,1.6625,-4.55,-3.99
64,194949,0.480192,0.300852,-0.8235001000000001,1.645,-4.585,-4.06
65,195047,0.47775200000000007,0.30353600000000003,-0.8281360999999999,1.505,-4.5325,-4.13
66,195145,0.478484,0.303292,-0.826428,1.4525,-4.5325,-4.1825
67,195243,0.477996,0.304268,-0.826916,1.4525,-4.585,-4.2
68,195341,0.47555600000000003,0.30402399999999996,-0.8249639999999999,1.365,-4.6725,-4.2175
69,195439,0.47823999999999994,0.30548800000000004,-0.8254520000000001,1.2775,-4.655,-4.1475
70,195538,0.47775200000000007,0.305,-0.826916,1.3475,-4.725,-4.2525
71,195636,0.477264,0.305244,-0.8254520000000001,1.3125,-4.7425,-4.2
72,195734,0.47775200000000007,0.30402399999999996,-0.826672,1.435,-4.7775,-4.2175
73,195832,0.47653199999999996,0.30353600000000003,-0.8252079999999999,1.4175,-4.8125,-4.235
74,195930,0.477264,0.302072,-0.8256960999999999,1.4,-4.97,-4.27
75,196028,0.477996,0.30475599999999997,-0.82594,1.365,-4.9875,-4.3225
76,196126,0.47775200000000007,0.301584,-0.8274040000000001,1.505,-5.04,-4.235
77,196224,0.477264,0.304512,-0.8249639999999999,1.47,-5.0575,-4.2525
78,196322,0.47336000000000006,0.305244,-0.8247200000000001,1.575,-5.0925,-4.2175
79,196421,0.471164,0.30036399999999996,-0.8256960999999999,1.75,-5.0925,-4.1825
80,196519,0.47043199999999996,0.30182800000000004,-0.8249639999999999,1.715,-4.795,-4.0775
81,196617,0.47384799999999994,0.306952,-0.822524,1.6625,-4.725,-4.165
82,196715,0.47165200000000007,0.30012,-0.823256,1.715,-4.655,-4.06
83,196813,0.479216,0.30134,-0.8281360999999999,1.575,-4.5325,-4.165
84,196911,0.4743361,0.305244,-0.8244761,1.575,-4.515,-4.1475
85,197009,0.47677600000000003,0.304268,-0.826428,1.5925,-4.48,-3.9025
86,197107,0.47360399999999997,0.302072,-0.8249639999999999,1.6275,-4.515,-3.955
87,197205,0.475312,0.30548800000000004,-0.8249639999999999,1.6975,-4.5325,-4.025
88,197304,0.472384,0.305976,-0.8235001000000001,1.715,-4.4625,-3.92
89,197402,0.47360399999999997,0.30353600000000003,-0.824232,1.7675,-4.4975,-3.9025
90,197500,0.474092,0.30256,-0.8254520000000001,1.8025,-4.515,-3.885
91,197598,0.47506800000000005,0.305244,-0.8254520000000001,1.8725,-4.4975,-3.78
92,197696,0.4758,0.30109600000000003,-0.82594,1.89,-4.515,-3.78
93,197794,0.475312,0.301584,-0.8281360999999999,1.8375,-4.55,-3.85
94,197892,0.472872,0.300852,-0.8254520000000001,1.82,-4.48,-3.9025
95,197990,0.47384799999999994,0.30134,-0.82594,1.7675,-4.34,-3.8325
96,198088,0.47336000000000006,0.302072,-0.824232,1.855,-4.3225,-3.815
97,198187,0.47555600000000003,0.30622,-0.8244761,1.8025,-4.2525,-3.815
98,198285,0.4758,0.30475599999999997,-0.8235001000000001,1.7325,-4.27,-3.7625
99,198383,0.475312,0.30134,-0.82594,1.855,-4.2875,-3.7275
100,198481,0.47555600000000003,0.302316,-0.826672,1.8375,-4.34,-3.7625
101,198579,0.47653199999999996,0.300608,-0.8281360999999999,1.75,-4.3575,-3.8325
102,198677,0.47555600000000003,0.30036399999999996,-0.8252079999999999,1.7325,-4.375,-3.8675
103,198775,0.47677600000000003,0.300852,-0.826672,1.7675,-4.445,-3.9725
104,198873,0.47677600000000003,0.30256,-0.827892,1.645,-4.41,-3.9725
105,198971,0.47336000000000006,0.302316,-0.824232,1.6275,-4.4625,-4.0075
106,199069,0.4743361,0.304268,-0.8239880999999999,1.5575,-4.41,-3.99
107,199168,0.47336000000000006,0.30402399999999996,-0.821304,1.5225,-4.41,-3.99
108,199266,0.47458,0.30182800000000004,-0.826672,1.5575,-4.4275,-3.9375
109,199364,0.47506800000000005,0.302804,-0.826672,1.5225,-4.3225,-3.8325
110,199462,0.477264,0.304268,-0.826916,1.54,-4.3575,-3.885
111,199560,0.477264,0.303292,-0.826916,1.5575,-4.2875,-3.85
112,199658,0.4758,0.30548800000000004,-0.8247200000000001,1.505,-4.27,-3.85
113,199756,0.47555600000000003,0.303048,-0.8249639999999999,1.5925,-4.3575,-3.8675
114,199854,0.47604399999999997,0.302072,-0.8274040000000001,1.5925,-4.3225,-3.85
115,199952,0.47653199999999996,0.303292,-0.826916,1.645,-4.375,-3.92
116,200051,0.47555600000000003,0.30134,-0.8261841000000001,1.61,-4.41,-3.955
117,200149,0.47677600000000003,0.299632,-0.826428,1.6625,-4.4625,-3.92
118,200247,0.474092,0.30109600000000003,-0.8252079999999999,1.5575,-4.3925,-4.025
119,200345,0.476288,0.30134,-0.8261841000000001,1.47,-4.2525,-4.0075
120,200443,0.4758,0.304268,-0.8256960999999999,1.505,-4.2875,-3.9375
121,200541,0.47555600000000003,0.30353600000000003,-0.8247200000000001,1.47,-4.305,-3.99
122,200639,0.477264,0.30475599999999997,-0.8256960999999999,1.47,-4.2525,-3.955
123,200737,0.47604399999999997,0.30475599999999997,-0.8252079999999999,1.4875,-4.2,-3.9375
124,200835,0.47653199999999996,0.300608,-0.8274040000000001,1.61,-4.1825,-3.8675
125,200933,0.472872,0.30134,-0.8247200000000001,1.5925,-4.3225,-3.8325
126,201032,0.472872,0.30548800000000004,-0.8261841000000001,1.575,-4.375,-3.8675
127,201130,0.476288,0.300608,-0.826916,1.715,-4.375,-3.78
128,201228,0.474092,0.30353600000000003,-0.823256,1.5925,-4.2875,-3.745
129,201326,0.471164,0.301584,-0.822524,1.6275,-4.235,-3.6925
130,201424,0.47506800000000005,0.302804,-0.8247200000000001,1.5575,-4.0425,-3.71
131,201522,0.47555600000000003,0.302316,-0.826428,1.4525,-3.9025,-3.745
132,201620,0.47604399999999997,0.301584,-0.8256960999999999,1.47,-3.92,-3.815
133,201718,0.47653199999999996,0.302316,-0.8239880999999999,1.4,-3.92,-3.7975
134,201816,0.47506800000000005,0.305244,-0.8230120999999999,1.3475,-3.9375,-3.85
135,201915,0.479704,0.305244,-0.8247200000000001,1.365,-3.9725,-3.8325
136,202013,0.475312,0.30182800000000004,-0.823744,1.4175,-4.0425,-3.85
137,202111,0.47702,0.30475599999999997,-0.8254520000000001,1.4,-3.955,-3.85
138,202209,0.473116,0.30134,-0.8252079999999999,1.3475,-4.06,-3.885
139,202307,0.481412,0.304268,-0.824232,1.3125,-4.025,-3.9025
140,202405,0.475312,0.305,-0.823744,1.3475,-4.0775,-3.885
141,202503,0.47994799999999993,0.305244,-0.8256960999999999,1.3825,-4.0075,-3.9375
142,202601,0.479704,0.303048,-0.823744,1.4525,-4.1125,-3.8675
143,202699,0.477264,0.30353600000000003,-0.8244761,1.54,-4.2,-3.815
144,202798,0.47653199999999996,0.303292,-0.8247200000000001,1.575,-4.235,-3.85
145,202896,0.478484,0.303048,-0.8252079999999999,1.5225,-4.2175,-3.8675
146,202994,0.478484,0.30378,-0.82594,1.6975,-4.3575,-3.7625
147,203092,0.47702,0.30353600000000003,-0.824232,1.7675,-4.41,-3.7275
148,203190,0.47653199999999996,0.300852,-0.826672,1.7325,-4.375,-3.815
149,203288,0.47604399999999997,0.299632,-0.826672,1.7675,-4.41,-3.745
150,203386,0.47702,0.302316,-0.8249639999999999,1.82,-4.375,-3.7625
151,203484,0.475312,0.302316,-0.826428,1.6975,-4.3575,-3.7625
152,203583,0.477508,0.300852,-0.8235001000000001,1.785,-4.3925,-3.815
153,203681,0.4758,0.302316,-0.82594,1.6975,-4.48,-3.815
154,203779,0.477264,0.30182800000000004,-0.8239880999999999,1.7675,-4.4625,-3.8325
155,203877,0.476288,0.302804,-0.8252079999999999,1.75,-4.4975,-3.7625
156,203975,0.476288,0.302072,-0.8249639999999999,1.6625,-4.375,-3.85
157,204073,0.47677600000000003,0.30402399999999996,-0.8230120999999999,1.5575,-4.27,-3.9375
158,204171,0.4743361,0.30134,-0.8252079999999999,1.54,-4.2875,-3.8675
159,204269,0.47506800000000005,0.305732,-0.822524,1.5575,-4.27,-3.8325
160,204368,0.47555600000000003,0.302804,-0.8254520000000001,1.61,-4.1475,-3.7975
161,204466,0.47677600000000003,0.30353600000000003,-0.8230120999999999,1.5925,-4.1475,-3.7275
162,204564,0.47823999999999994,0.302804,-0.82594,1.5925,-4.095,-3.745
163,204662,0.478484,0.304268,-0.8261841000000001,1.5925,-4.0775,-3.7625
164,204760,0.478972,0.304512,-0.8244761,1.645,-4.0775,-3.6925
165,204858,0.47775200000000007,0.302804,-0.826428,1.6275,-4.165,-3.71
166,204956,0.47555600000000003,0.30378,-0.8220360000000001,1.75,-4.2175,-3.6925
167,205054,0.47823999999999994,0.303292,-0.826672,1.6625,-4.2175,-3.6575
168,205152,0.477264,0.30622,-0.8235001000000001,1.68,-4.165,-3.605
169,205251,0.477264,0.303292,-0.8254520000000001,1.785,-4.2525,-3.535
170,205349,0.47653199999999996,0.30402399999999996,-0.8249639999999999,1.715,-4.2175,-3.5875
171,205447,0.47823999999999994,0.302316,-0.8256960999999999,1.75,-4.2175,-3.57
172,205545,0.47702,0.30109600000000003,-0.8244761,1.8375,-4.305,-3.6575
173,205643,0.47555600000000003,0.298168,-0.821792,1.8025,-4.3575,-3.7625
174,205741,0.4743361,0.30109600000000003,-0.824232,1.5925,-4.3225,-3.815
175,205839,0.47653199999999996,0.30182800000000004,-0.8249639999999999,1.61,-4.3225,-3.955
176,205937,0.477996,0.30256,-0.824232,1.5575,-4.375,-4.0775
177,206035,0.47775200000000007,0.30256,-0.8230120999999999,1.61,-4.305,-3.99
178,206134,0.479704,0.302316,-0.822768,1.54,-4.2525,-3.92
179,206232,0.477264,0.30109600000000003,-0.8235001000000001,1.5925,-4.2525,-3.92
180,206330,0.47702,0.30182800000000004,-0.824232,1.5575,-4.4625,-3.9725
181,206428,0.477264,0.30134,-0.8252079999999999,1.6275,-4.4275,-3.9375
182,206526,0.47775200000000007,0.30182800000000004,-0.8235001000000001,1.6625,-4.305,-3.9375
183,206624,0.47775200000000007,0.303292,-0.8249639999999999,1.68,-4.375,-3.8675
184,206722,0.477508,0.30256,-0.82594,1.645,-4.445,-3.9025
185,206820,0.47775200000000007,0.30182800000000004,-0.824232,1.645,-4.445,-3.9025
186,206918,0.476288,0.304512,-0.8235001000000001,1.7325,-4.445,-3.9025
187,207016,0.478728,0.30256,-0.823256,1.6975,-4.4625,-3.92
188,207115,0.477508,0.302316,-0.8247200000000001,1.75,-4.445,-3.885
189,207213,0.47653199999999996,0.302316,-0.8247200000000001,1.8025,-4.515,-3.85
190,207311,0.47775200000000007,0.30036399999999996,-0.822768,1.75,-4.48,-3.8675
191,207409,0.477996,0.300608,-0.823256,1.6625,-4.4275,-3.9725
192,207507,0.477996,0.30134,-0.822768,1.645,-4.34,-4.0075
193,207605,0.477264,0.29987600000000003,-0.8222799999999999,1.54,-4.27,-4.06
194,207703,0.47653199999999996,0.302072,-0.8244761,1.4525,-4.3225,-4.025
195,207801,0.477508,0.303292,-0.8254520000000001,1.435,-4.2175,-3.9375
196,207899,0.478972,0.303292,-0.8244761,1.4525,-4.2175,-3.955
197,207998,0.477508,0.30353600000000003,-0.8247200000000001,1.54,-4.2175,-3.955
198,208096,0.47677600000000003,0.30256,-0.821792,1.61,-4.27,-3.92
199,208194,0.478972,0.30402399999999996,-0.8249639999999999,1.645,-4.2875,-3.9025
200,208292,0.477508,0.30256,-0.8247200000000001,1.645,-4.2175,-3.8325
201,208390,0.476288,0.30134,-0.8247200000000001,1.61,-4.2525,-3.815
202,208488,0.47823999999999994,0.302316,-0.826428,1.645,-4.2175,-3.885
203,208586,0.477508,0.302316,-0.824232,1.575,-4.1475,-3.7975
204,208684,0.477264,0.298412,-0.822524,1.645,-4.2175,-3.92
205,208782,0.476288,0.30134,-0.823256,1.6625,-4.1825,-3.885
206,208881,0.477264,0.303048,-0.8252079999999999,1.6275,-4.2175,-3.85
207,208979,0.479216,0.303292,-0.8252079999999999,1.5925,-4.2175,-3.8325
208,209077,0.478728,0.30134,-0.8235001000000001,1.54,-4.3225,-3.8675
209,209175,0.47946000000000005,0.30109600000000003,-0.822524,1.575,-4.305,-3.955
210,209273,0.478972,0.30109600000000003,-0.8220360000000001,1.5575,-4.305,-4.0075
211,209371,0.479216,0.30182800000000004,-0.8215481,1.61,-4.3575,-3.9375
212,209469,0.47823999999999994,0.302804,-0.823744,1.645,-4.4275,-3.9025
213,209567,0.477508,0.30036399999999996,-0.823256,1.6625,-4.4975,-3.9025
214,209666,0.47702,0.29987600000000003,-0.8220360000000001,1.7325,-4.445,-3.85
215,209764,0.47653199999999996,0.30353600000000003,-0.8244761,1.7675,-4.375,-3.85
216,209862,0.47823999999999994,0.300852,-0.823744,1.7675,-4.48,-3.7975
217,209960,0.4758,0.299632,-0.8222799999999999,1.8025,-4.55,-3.815
218,210058,0.47677600000000003,0.29987600000000003,-0.821304,1.75,-4.5325,-3.815
219,210156,0.47653199999999996,0.30036399999999996,-0.822768,1.785,-4.585,-3.9375
220,210254,0.47677600000000003,0.299632,-0.8235001000000001,1.645,-4.445,-3.9375
221,210352,0.47823999999999994,0.30109600000000003,-0.823256,1.6975,-4.3925,-3.885
222,210450,0.47653199999999996,0.302316,-0.8249639999999999,1.6625,-4.41,-3.99
223,210549,0.477508,0.30036399999999996,-0.8230120999999999,1.715,-4.48,-3.92
224,210647,0.478728,0.299632,-0.8222799999999999,1.7675,-4.4275,-3.9025
225,210745,0.47677600000000003,0.301584,-0.8239880999999999,1.7675,-4.4275,-3.9375
226,210843,0.47775200000000007,0.300608,-0.8244761,1.645,-4.41,-3.9375
227,210941,0.478972,0.300608,-0.8215481,1.6975,-4.445,-3.9375
228,211039,0.47702,0.30012,-0.8235001000000001,1.645,-4.515,-3.9025
229,211137,0.47775200000000007,0.30256,-0.8247200000000001,1.575,-4.4975,-3.9725
230,211235,0.47823999999999994,0.29987600000000003,-0.8235001000000001,1.6275,-4.445,-3.9375
231,211333,0.477264,0.300852,-0.8239880999999999,1.5575,-4.3925,-3.9725
232,211431,0.47702,0.30036399999999996,-0.8220360000000001,1.505,-4.3925,-3.955
233,211530,0.47677600000000003,0.299632,-0.821792,1.5925,-4.3925,-3.9375
234,211628,0.47702,0.300852,-0.8235001000000001,1.5575,-4.41,-3.92
235,211726,0.476288,0.30012,-0.8230120999999999,1.575,-4.34,-3.92
236,211824,0.47775200000000007,0.30182800000000004,-0.823744,1.54,-4.375,-3.955
237,211922,0.47677600000000003,0.299388,-0.8222799999999999,1.61,-4.3575,-3.885
238,212020,0.47775200000000007,0.30182800000000004,-0.8235001000000001,1.6275,-4.4625,-3.92
239,212118,0.477264,0.303048,-0.8249639999999999,1.6975,-4.48,-4.025
240,212216,0.479216,0.300608,-0.821792,1.6625,-4.48,-3.955
241,212314,0.476288,0.30109600000000003,-0.8235001000000001,1.6275,-4.41,-3.9025
242,212413,0.477508,0.300852,-0.823256,1.645,-4.27,-3.9375
243,212511,0.477264,0.30134,-0.824232,1.6975,-4.235,-3.815
244,212609,0.4758,0.301584,-0.8244761,1.5575,-4.2875,-3.92
245,212707,0.477264,0.300852,-0.8244761,1.5575,-4.235,-3.955
246,212805,0.478728,0.29987600000000003,-0.821304,1.54,-4.2175,-3.92
247,212903,0.47702,0.30182800000000004,-0.823744,1.54,-4.2525,-4.0075
248,213001,0.478728,0.30134,-0.824232,1.5575,-4.1825,-3.9375
249,213099,0.47823999999999994,0.29987600000000003,-0.822768,1.645,-4.2525,-3.9375
250,213197,0.478728,0.300852,-0.8230120999999999,1.61,-4.3925,-3.99
251,213296,0.477508,0.301584,-0.824232,1.645,-4.445,-4.0075
252,213394,0.4743361,0.301584,-0.824232,1.6975,-4.48,-3.9725
253,213492,0.47604399999999997,0.301584,-0.8239880999999999,1.61,-4.5325,-3.8675
254,213590,0.477996,0.29792399999999997,-0.822768,1.5925,-4.4275,-3.955
255,213688,0.477508,0.299144,-0.821304,1.5225,-4.41,-4.0075
256,213786,0.479216,0.301584,-0.8222799999999999,1.575,-4.41,-3.99
257,213884,0.48068,0.30109600000000003,-0.8235001000000001,1.5925,-4.3575,-3.955
258,213982,0.476288,0.30012,-0.823256,1.5575,-4.445,-3.99
259,214080,0.477264,0.30182800000000004,-0.822768,1.575,-4.3575,-4.13
260,214179,0.478484,0.30109600000000003,-0.8222799999999999,1.4525,-4.305,-3.99
261,214277,0.477996,0.30036399999999996,-0.8235001000000001,1.47,-4.3575,-4.025
262,214375,0.478484,0.30134,-0.821304,1.4525,-4.34,-4.1125
263,214473,0.47702,0.299388,-0.8210601000000001,1.47,-4.3575,-4.1125
264,214571,0.47702,0.300852,-0.8235001000000001,1.505,-4.3925,-4.0425
265,214669,0.47458,0.299144,-0.823744,1.435,-4.3225,-4.0425
266,214767,0.48214399999999996,0.302804,-0.8235001000000001,1.4,-4.2875,-4.0075
267,214865,0.477996,0.302804,-0.8261841000000001,1.435,-4.27,-4.06
268,214963,0.479216,0.302804,-0.821304,1.4175,-4.305,-3.99
269,215062,0.48092399999999996,0.302804,-0.8215481,1.505,-4.3575,-3.99
270,215160,0.479704,0.303048,-0.8215481,1.505,-4.3925,-4.0075
271,215258,0.480192,0.30256,-0.822524,1.61,-4.41,-3.92
272,215356,0.478728,0.300852,-0.8220360000000001,1.61,-4.445,-3.955
273,215454,0.47458,0.30134,-0.823744,1.5575,-4.4625,-3.9025
274,215552,0.476288,0.302316,-0.8235001000000001,1.54,-4.3925,-3.9375
275,215650,0.477996,0.302804,-0.8252079999999999,1.54,-4.41,-3.9375
276,215748,0.47653199999999996,0.301584,-0.824232,1.54,-4.305,-3.955
277,215847,0.478484,0.300852,-0.821792,1.5575,-4.27,-3.9025
278,215945,0.48165600000000003,0.303292,-0.822524,1.4875,-4.305,-3.9375
279,216043,0.47775200000000007,0.302072,-0.8222799999999999,1.4875,-4.41,-3.9725
280,216141,0.48116800000000004,0.302072,-0.8222799999999999,1.5925,-4.4275,-3.9725
281,216239,0.48116800000000004,0.302804,-0.822524,1.6275,-4.55,-3.9725
282,216337,0.477508,0.30182800000000004,-0.823744,1.5925,-4.5325,-3.99
283,216435,0.477996,0.30036399999999996,-0.821792,1.6275,-4.445,-3.9725
284,216533,0.477996,0.29987600000000003,-0.8210601000000001,1.61,-4.305,-3.955
285,216632,0.478484,0.299632,-0.8220360000000001,1.5225,-4.2875,-3.9375
286,216730,0.478972,0.300608,-0.820572,1.47,-4.2175,-3.955
287,216828,0.477996,0.299144,-0.8235001000000001,1.5225,-4.2,-3.9725
288,216926,0.47994799999999993,0.30182800000000004,-0.8220360000000001,1.505,-4.1825,-3.885
289,217024,0.47775200000000007,0.2989,-0.8222799999999999,1.4,-4.13,-3.8325
290,217122,0.478728,0.299388,-0.8230120999999999,1.4175,-4.0425,-3.92
291,217220,0.477996,0.300608,-0.8220360000000001,1.4525,-4.1825,-3.9725
292,217318,0.479704,0.30475599999999997,-0.8244761,1.435,-4.1825,-3.92
293,217417,0.48068,0.30036399999999996,-0.823744,1.4525,-4.235,-3.99
294,217515,0.48116800000000004,0.303048,-0.8239880999999999,1.4875,-4.305,-3.92
295,217613,0.47946000000000005,0.304268,-0.8222799999999999,1.5225,-4.41,-3.92
296,217711,0.476288,0.30134,-0.823744,1.5225,-4.4275,-3.8675
297,217809,0.478484,0.30256,-0.822524,1.505,-4.3225,-3.9025
298,217907,0.47994799999999993,0.302072,-0.822768,1.505,-4.235,-3.85
299,218005,0.478972,0.299632,-0.823256,1.47,-4.2175,-3.85
300,218104,0.478728,0.301584,-0.822768,1.435,-4.235,-3.9375
301,218202,0.47994799999999993,0.302316,-0.8235001000000001,1.4875,-4.235,-3.885
302,218300,0.47946000000000005,0.303292,-0.8215481,1.5225,-4.1825,-3.8675
303,218398,0.47775200000000007,0.303292,-0.8254520000000001,1.645,-4.2175,-3.8675
304,218496,0.477996,0.29987600000000003,-0.8230120999999999,1.7325,-4.27,-3.8325
305,218594,0.47994799999999993,0.30012,-0.823744,1.645,-4.2175,-3.815
306,218692,0.477264,0.30036399999999996,-0.823744,1.575,-4.235,-3.85
307,218790,0.48263199999999995,0.303292,-0.8222799999999999,1.61,-4.2,-3.85
308,218888,0.48068,0.302804,-0.821792,1.61,-4.235,-3.92
309,218987,0.478972,0.299632,-0.824232,1.61,-4.3575,-3.885
310,219085,0.48092399999999996,0.303292,-0.823256,1.575,-4.34,-3.92
311,219183,0.480436,0.302072,-0.8210601000000001,1.575,-4.3225,-3.92
312,219281,0.48092399999999996,0.30109600000000003,-0.820572,1.61,-4.34,-3.9375
313,219379,0.479216,0.302072,-0.820572,1.61,-4.34,-3.99
314,219477,0.478972,0.302804,-0.820084,1.6275,-4.34,-3.9025
315,219575,0.477508,0.301584,-0.824232,1.6975,-4.3575,-3.85
316,219673,0.478728,0.300608,-0.8222799999999999,1.68,-4.235,-3.815
317,219772,0.47775200000000007,0.301584,-0.8230120999999999,1.715,-4.34,-3.8325
318,219870,0.479216,0.300608,-0.8247200000000001,1.6275,-4.34,-3.9025
319,219968,0.47946000000000005,0.301584,-0.822524,1.54,-4.305,-3.8675
320,220066,0.47946000000000005,0.300852,-0.822768,1.575,-4.4625,-3.9375
321,220164,0.48068,0.30378,-0.823256,1.54,-4.48,-4.0075
322,220262,0.48165600000000003,0.30402399999999996,-0.8222799999999999,1.5575,-4.4275,-3.9725
323,220360,0.48068,0.30182800000000004,-0.8215481,1.54,-4.55,-4.0075
324,220458,0.48116800000000004,0.303048,-0.8215481,1.5575,-4.4625,-3.9725
325,220556,0.47946000000000005,0.30134,-0.8215481,1.575,-4.445,-4.025
326,220655,0.48092399999999996,0.30256,-0.8215481,1.575,-4.5325,-4.06
327,220753,0.47994799999999993,0.300852,-0.8210601000000001,1.6275,-4.62,-4.0775
328,220851,0.479704,0.303048,-0.821792,1.5575,-4.62,-4.0425
329,220949,0.480436,0.30353600000000003,-0.822768,1.5575,-4.6025,-4.0425
330,221047,0.477508,0.301584,-0.823256,1.575,-4.6725,-4.13
331,221145,0.47994799999999993,0.30182800000000004,-0.821304,1.575,-4.5675,-4.13
332,221243,0.478484,0.303048,-0.8222799999999999,1.47,-4.375,-4.0075
333,221341,0.479704,0.30256,-0.821792,1.4875,-4.515,-4.06
334,221440,0.479704,0.302804,-0.8220360000000001,1.4875,-4.5675,-4.06
335,221538,0.479216,0.301584,-0.8203280000000001,1.4875,-4.4975,-4.0075
336,221636,0.47823999999999994,0.30036399999999996,-0.8220360000000001,1.435,-4.515,-4.025
337,221734,0.47653199999999996,0.302804,-0.8252079999999999,1.4175,-4.445,-4.13
338,221832,0.48068,0.30036399999999996,-0.8235001000000001,1.4525,-4.515,-4.06
339,221930,0.478484,0.30182800000000004,-0.823744,1.4525,-4.4625,-4.1825
340,222028,0.480192,0.30378,-0.8220360000000001,1.4875,-4.445,-4.1475
341,222127,0.480436,0.303048,-0.821792,1.47,-4.4975,-4.06
342,222225,0.480192,0.30182800000000004,-0.821792,1.5575,-4.515,-4.095
343,222323,0.480436,0.30378,-0.8222799999999999,1.6275,-4.62,-4.06
344,222421,0.479216,0.300852,-0.822524,1.575,-4.655,-3.99
345,222519,0.478728,0.300608,-0.821792,1.575,-4.585,-4.0075
346,222617,0.480436,0.30182800000000004,-0.8230120999999999,1.61,-4.655,-4.095
347,222715,0.478728,0.301584,-0.8222799999999999,1.54,-4.55,-4.095
348,222813,0.479216,0.30109600000000003,-0.8220360000000001,1.54,-4.5325,-4.0075
349,222912,0.478972,0.302072,-0.822524,1.4875,-4.5325,-4.095
350,223010,0.47604399999999997,0.301584,-0.822768,1.54,-4.515,-4.1125
351,223108,0.477996,0.300852,-0.8215481,1.5225,-4.48,-4.1475
352,223206,0.478972,0.302316,-0.821792,1.54,-4.48,-4.06
353,223304,0.47775200000000007,0.30256,-0.8254520000000001,1.47,-4.4975,-4.0775
354,223402,0.477508,0.300608,-0.822524,1.4175,-4.48,-4.095
355,223500,0.479216,0.302072,-0.8220360000000001,1.365,-4.4625,-4.095
356,223599,0.478728,0.30134,-0.8222799999999999,1.3475,-4.515,-4.0775
357,223697,0.478972,0.303048,-0.8222799999999999,1.435,-4.55,-4.025
358,223795,0.47677600000000003,0.300852,-0.8230120999999999,1.4525,-4.515,-4.0075
359,223893,0.478972,0.30036399999999996,-0.8222799999999999,1.505,-4.515,-4.0075
360,223991,0.478484,0.30402399999999996,-0.823744,1.435,-4.4975,-4.06
361,224089,0.47994799999999993,0.299388,-0.8239880999999999,1.4,-4.3225,-3.99
362,224187,0.479704,0.301584,-0.821304,1.4525,-4.3925,-3.99
363,224285,0.479704,0.302072,-0.8222799999999999,1.435,-4.445,-4.0775
364,224383,0.479704,0.30353600000000003,-0.823256,1.4175,-4.445,-4.1125
365,224482,0.478972,0.305,-0.8249639999999999,1.435,-4.5325,-4.0775
366,224580,0.47823999999999994,0.30548800000000004,-0.8220360000000001,1.6275,-4.445,-3.9725
367,224678,0.477264,0.30353600000000003,-0.8239880999999999,1.75,-4.4975,-3.92
368,224776,0.480436,0.30256,-0.822524,1.785,-4.55,-3.7975
369,224874,0.479216,0.30475599999999997,-0.823256,1.8025,-4.5325,-3.815
370,224972,0.478728,0.302804,-0.8239880999999999,1.7675,-4.515,-3.7625
371,225070,0.48068,0.303292,-0.8235001000000001,1.82,-4.48,-3.7625
372,225168,0.47994799999999993,0.30475599999999997,-0.8230120999999999,1.82,-4.445,-3.815
373,225267,0.47946000000000005,0.299632,-0.8235001000000001,1.96,-4.445,-3.7275
374,225365,0.48214399999999996,0.302804,-0.822768,1.925,-4.6375,-3.85
375,225463,0.478728,0.30109600000000003,-0.8239880999999999,1.82,-4.6375,-3.92
376,225561,0.477508,0.300608,-0.821792,1.82,-4.69,-3.9375
377,225659,0.480436,0.30475599999999997,-0.826672,1.715,-4.6725,-4.0075
378,225757,0.486292,0.305976,-0.833992,1.5925,-4.6025,-3.9725
379,225855,0.484584,0.306708,-0.8332601000000001,1.0325,-4.3225,-4.025
380,225953,0.489708,0.3111,-0.830576,0.525,-4.165,-4.1125
381,226052,0.487756,0.30353600000000003,-0.8252079999999999,0.245,-4.305,-4.1475
382,226150,0.480192,0.30841599999999997,-0.819108,0.42,-4.76,-4.1825
383,226248,0.48433999999999994,0.307684,-0.8195960999999999,1.015,-4.795,-3.955
384,226346,0.478484,0.304512,-0.8222799999999999,1.5925,-5.04,-3.885
385,226444,0.477264,0.307684,-0.8178880999999999,1.96,-5.1625,-3.6925
386,226542,0.47458,0.300608,-0.822768,2.38,-5.215,-3.5875
387,226640,0.47165200000000007,0.304268,-0.820572,2.52,-5.25,-3.6575
388,226738,0.47677600000000003,0.29743600000000003,-0.8178880999999999,2.8,-5.32,-3.6225
389,226837,0.471408,0.295484,-0.815936,2.8175,-5.32,-3.605
390,226935,0.45432799999999995,0.28767600000000004,-0.813984,2.765,-5.3025,-3.5875
391,227033,0.462136,0.293044,-0.812032,2.3275,-4.8475,-3.6225
392,227131,0.458476,0.296948,-0.81374,2.1875,-4.515,-3.5875
393,227229,0.4758,0.284504,-0.820084,1.9775,-3.99,-3.57
394,227327,0.48165600000000003,0.29743600000000003,-0.8210601000000001,1.4,-3.7625,-3.9025
395,227425,0.484584,0.29524,-0.8247200000000001,1.155,-3.8325,-4.235
396,227523,0.477996,0.2989,-0.8230120999999999,0.8400001,-4.0775,-4.585
397,227622,0.478484,0.30402399999999996,-0.8235001000000001,0.7525,-4.095,-4.6375
398,227720,0.480436,0.305244,-0.8239880999999999,0.945,-4.095,-4.5675
399,227818,0.48433999999999994,0.308172,-0.8256960999999999,1.1375,-4.2,-4.4275
400,227916,0.484584,0.309148,-0.8254520000000001,1.2775,-4.4275,-4.3575
401,228014,0.482876,0.30622,-0.8239880999999999,1.26,-4.6025,-4.445
402,228112,0.477996,0.306952,-0.824232,1.19,-4.7075,-4.4625
403,228210,0.481412,0.305976,-0.823744,1.19,-4.7775,-4.3575
404,228308,0.48165600000000003,0.304268,-0.823256,1.155,-4.8125,-4.3225
405,228407,0.47653199999999996,0.30353600000000003,-0.822768,1.2075,-4.83,-4.4275
406,228505,0.477264,0.30402399999999996,-0.8244761,1.2775,-4.725,-4.41
407,228603,0.478728,0.305,-0.8222799999999999,1.3125,-4.7425,-4.305
408,228701,0.47702,0.305244,-0.824232,1.47,-4.83,-4.2875
409,228799,0.475312,0.30744,-0.821792,1.5225,-4.865,-4.2175
410,228897,0.477264,0.30378,-0.8220360000000001,1.6975,-4.83,-4.0775
411,228995,0.48214399999999996,0.30402399999999996,-0.829356,1.645,-4.8825,-3.9375
412,229094,0.482876,0.307684,-0.8291120999999999,1.3475,-4.8475,-4.06
413,229192,0.479216,0.30744,-0.8256960999999999,1.2775,-4.865,-4.0075
414,229290,0.482388,0.30841599999999997,-0.8300879999999999,1.365,-4.97,-3.885
415,229388,0.489708,0.312564,-0.8300879999999999,1.2075,-5.04,-3.92
416,229486,0.490196,0.312076,-0.835456,1.0675,-5.075,-3.7975
417,229584,0.4933681,0.309392,-0.8317960999999999,0.9275,-5.25,-3.85
418,229682,0.48531599999999997,0.3111,-0.832528,1.0325,-5.46,-3.955
419,229781,0.488976,0.30988000000000004,-0.8315520000000001,1.4525,-5.39,-4.06
420,229879,0.486048,0.313296,-0.829356,2.1175,-5.5125,-3.9375
421,229977,0.49312399999999995,0.309636,-0.8332601000000001,2.38,-5.845,-3.7275
422,230075,0.48726800000000003,0.314272,-0.8364321,3.115,-6.475,-3.4825
423,230173,0.49166000000000004,0.310856,-0.844972,3.605,-7.105,-3.2725
424,230271,0.48556000000000005,0.3111,-0.828868,3.8675,-7.91,-3.22
425,230369,0.474092,0.30182800000000004,-0.8252079999999999,4.1125,-8.68,-3.0275
426,230467,0.481412,0.289628,-0.822524,4.1125,-9.0825,-3.1325
427,230565,0.466772,0.290604,-0.819108,3.6575,-9.5025,-3.43
428,230664,0.466772,0.29133600000000004,-0.8113001,3.64,-9.625,-3.5525
429,230762,0.465552,0.29646,-0.81374,3.8675,-9.4325,-3.5875
430,230860,0.45335200000000003,0.29524,-0.807884,4.4625,-9.4325,-3.57
431,230958,0.4636,0.293044,-0.8164239999999999,4.6025,-8.9775,-3.57
432,231056,0.46506400000000003,0.29158,-0.8215481,4.515,-8.8375,-3.8325
433,231154,0.460672,0.288652,-0.81252,4.0425,-8.855,-4.3225
434,231252,0.452376,0.283528,-0.806908,3.4125,-8.785,-4.9525
435,231351,0.461892,0.27889200000000003,-0.824232,2.3275,-8.26,-5.9325
436,231449,0.48092399999999996,0.276452,-0.827892,1.2425,-7.945,-6.7025
437,231547,0.47506800000000005,0.279624,-0.8352120000000001,0.5075,-8.61,-7.175
438,231645,0.478484,0.299388,-0.8357,-0.28,-9.17,-7.63
439,231743,0.457988,0.315736,-0.8188641,-0.2975,-9.695,-7.6825
440,231841,0.44896,0.319152,-0.8142281,0.35,-9.5375,-7.7175
441,231939,0.44334799999999996,0.321348,-0.813984,1.3825,-9.0125,-7.4375
442,232038,0.44505600000000006,0.31890799999999997,-0.8086161000000001,2.5375,-8.295,-6.965
443,232136,0.4331,0.30988000000000004,-0.815692,4.0075,-7.665,-6.4575
444,232234,0.44773999999999997,0.30134,-0.831308,5.0575,-6.7725,-5.8625
445,232332,0.46433199999999997,0.316224,-0.843508,5.53,-6.265,-5.0925
446,232430,0.45286400000000004,0.313296,-0.8310639999999999,6.0025,-6.1075,-4.6725
447,232528,0.441396,0.29402,-0.829356,6.37,-5.8625,-4.515
448,232626,0.447496,0.289628,-0.8298440999999999,6.0375,-5.0575,-4.235
449,232724,0.45286400000000004,0.280356,-0.829356,5.32,-4.48,-4.2175
450,232823,0.45261999999999997,0.28621199999999997,-0.8317960999999999,4.76,-4.13,-4.4625
451,232921,0.44773999999999997,0.299388,-0.828624,4.48,-3.8325,-4.4975
452,233019,0.444568,0.300608,-0.8298440999999999,5.0225,-3.4825,-4.2525
453,233117,0.460672,0.311344,-0.841556,5.6,-2.975,-3.85
454,233215,0.478728,0.29768,-0.8554641,6.055,-2.765,-3.4125
455,233313,0.47946000000000005,0.28767600000000004,-0.8488761,5.8275,-3.22,-3.3775
456,233411,0.45554799999999995,0.296948,-0.8459479999999999,5.0925,-3.85,-3.43
457,233510,0.45603599999999994,0.2989,-0.840824,4.9525,-3.7275,-3.29
458,233608,0.45725600000000005,0.299144,-0.8361879999999999,5.3375,-3.3775,-3.115
459,233706,0.45383999999999997,0.300608,-0.8332601000000001,5.6525,-3.3075,-2.835
460,233804,0.451888,0.303048,-0.8317960999999999,6.1075,-3.08,-2.5725
461,233902,0.45579200000000003,0.30012,-0.8291120999999999,6.6675,-2.8,-2.2575
462,234000,0.456768,0.283528,-0.8317960999999999,7.245,-2.765,-2.0475
463,234098,0.451888,0.27718400000000004,-0.8276481,7.455,-2.765,-1.82
464,234197,0.454816,0.276452,-0.822768,7.1925,-2.695,-1.75
465,234295,0.461404,0.273768,-0.8296,6.7725,-2.6775,-1.9425
466,234393,0.46481999999999996,0.273768,-0.8371639999999999,6.09,-2.975,-2.135
467,234491,0.46042799999999995,0.27816,-0.82594,5.53,-3.325,-2.31
468,234589,0.471408,0.27205999999999997,-0.849608,4.83,-3.5175,-2.52
469,234687,0.456768,0.27523200000000003,-0.835456,4.2525,-3.5875,-2.66
470,234785,0.454084,0.27816,-0.8337481,3.5,-3.7625,-2.66
471,234883,0.467992,0.275476,-0.83936,3.0625,-3.7275,-2.73
472,234982,0.444812,0.26961999999999997,-0.829356,2.695,-3.9725,-2.8525
473,235080,0.45457200000000003,0.26718000000000003,-0.830576,1.96,-3.2725,-2.94
474,235178,0.454816,0.27523200000000003,-0.830332,1.1025,-2.7825,-3.15
475,235276,0.4392,0.25864000000000004,-0.8274040000000001,0.735,-2.38,-3.15
476,235374,0.437004,0.248148,-0.8220360000000001,-0.2975,-1.365,-3.465
477,235472,0.42773199999999995,0.23741199999999998,-0.819108,-2.0825,-0.2975,-4.0075
478,235570,0.42895200000000006,0.243756,-0.826428,-4.4275,1.155,-4.5325
479,235669,0.42724399999999996,0.25351599999999996,-0.8256960999999999,-6.545,2.8175,-4.9175
480,235767,0.439932,0.246196,-0.8335040000000001,-8.3125,5.0925,-5.145
481,235865,0.461404,0.281088,-0.8491200000000001,-10.5175,7.63,-5.705
482,235963,0.47823999999999994,0.276452,-0.8520479999999999,-11.7425,9.59,-6.1775
483,236061,0.468724,0.268156,-0.85034,-12.7575,11.2525,-6.37
484,236159,0.483364,0.262788,-0.8388721,-15.05,13.4225,-7.1575
485,236257,0.4594521,0.27938,-0.8359440999999999,-17.325,15.33,-8.5225
486,236356,0.44066400000000006,0.27889200000000003,-0.8281360999999999,-18.095,17.395,-8.575
487,236454,0.474092,0.29036,-0.820572,-19.4075,21.0525,-8.9425
488,236552,0.48873199999999994,0.28426,-0.8215481,-21.0525,25.2875,-10.115
489,236650,0.43505200000000005,0.316956,-0.819108,-22.61,29.3825,-10.3425
490,236748,0.42431599999999997,0.308904,-0.83204,-24.36,34.2125,-9.45
491,236846,0.44334799999999996,0.293044,-0.823256,-25.2,39.7775,-7.2625
492,236944,0.435296,0.345992,-0.8791321,-28.315,48.1075,-4.8475
493,237043,0.33379200000000003,0.4941,-0.814472,-29.5925,53.1125,1.96
494,237141,0.5072760000000001,0.366732,-0.8166680000000001,-27.9825,67.5325,5.3375
495,237239,0.4697,0.332816,-0.8252079999999999,-26.705,72.3275,10.3775
496,237337,0.498004,0.325252,-0.7993439999999999,-30.9225,83.685,10.3425
497,237435,0.465796,0.367708,-0.813496,-35.2625,93.1,12.5475
498,237533,0.54778,0.40381999999999996,-0.9555040000000001,-38.3075,104.9825,14.63
499,237631,0.5314321,0.307196,-0.800808,-26.635,105.7875,20.58
500,237729,0.5743761,0.28767600000000004,-0.8544879999999999,-26.705,110.8975,26.845
501,237828,0.589992,0.36941599999999997,-0.8239880999999999,-28.14,120.5575,28.7175
502,237926,0.620004,0.354044,-0.8149601,-28.0875,129.85,32.2525
503,238024,0.654408,0.35160399999999997,-0.8276481,-25.795,140.63,36.7675
504,238122,0.6675840000000001,0.437004,-0.8483879999999999,-29.0675,152.0225,40.95
505,238220,0.649284,0.502884,-0.9479401,-30.5725,166.6525,47.9675
506,238318,0.778604,0.49580799999999997,-0.800808,-27.195,186.0425,59.185
507,238416,0.7027201,0.514352,-0.9598959999999999,-36.925,206.3425,70.2625
508,238515,0.906216,0.6380600000000001,-1.131428,-41.86,229.39,77.8575
509,238613,0.935008,0.525576,-1.14314,-25.375,255.64,86.22251
510,238711,0.936472,0.634644,-1.115324,-41.0025,282.7825,87.5
511,238809,0.8447280999999999,0.687104,-1.214632,-53.305,307.1075,99.27750999999999
512,238907,0.798124,0.9113399999999999,-1.256844,-42.2275,316.435,115.185
513,239005,0.9006040999999999,0.8256960999999999,-1.08702,-26.81,337.6625,100.7825
514,239103,0.960384,0.8261841000000001,-1.17486,-26.4075,360.8325,82.355
515,239201,1.002108,0.864492,-1.218292,-32.865,373.6075,88.11251
516,239300,1.0262639999999998,0.8840120000000001,-1.687016,-26.6,363.8775,122.325
517,239398,0.532896,0.6470880999999999,-1.267824,33.81,312.585,174.93
518,239496,1.756068,1.160952,-2.980216,34.475,297.6575,170.555
519,239594,1.9056400000000002,1.2190239999999999,-3.4752919999999996,17.01,208.985,121.8525
520,239692,1.140212,1.292468,-3.258132,-6.4225,59.5875,70.28
521,239790,0.359656,1.1892559999999999,-2.4319479999999998,-25.095,-55.685,16.0825
522,239888,-0.162992,0.9989360999999999,-1.71898,-17.115,-120.7675,-12.565
523,239986,-0.379664,0.7283400999999999,-1.281244,4.375,-146.8425,-21.8575
524,240085,-0.397964,0.518256,-1.076284,20.7375,-154.9975,-23.94
525,240183,-0.316956,0.355508,-1.004548,26.2325,-159.075,-26.2325
526,240281,-0.152256,0.260348,-1.031388,20.2475,-165.55,-31.605
527,240379,0.00976,0.238144,-1.0711600000000001,7.56,-178.43,-39.34
528,240477,0.149328,0.248148,-1.1211799999999998,-4.795,-196.77,-46.55
529,240575,0.291092,0.27694,-1.1594879999999999,-12.985,-217.6825,-52.5875
530,240673,0.394548,0.299388,-1.152168,-15.715,-240.0125,-57.785
531,240772,0.485072,0.295484,-1.117764,-13.125,-261.275,-61.9325
532,240870,0.5441199999999999,0.282308,-1.065548,-7.6825,-279.7725,-65.205
533,240968,0.604144,0.259128,-1.0208959999999998,-1.2775,-294.3675,-67.76
534,241066,0.670268,0.24034,-0.9928360999999999,4.2,-304.85,-70.0875
535,241164,0.7473721,0.23741199999999998,-1.0025959999999998,7.875,-312.585,-72.8175
536,241262,0.8322841000000001,0.237168,-1.0589600000000001,10.255,-319.13,-75.985
537,241360,0.9325680000000001,0.25351599999999996,-1.133868,11.2875,-325.2025,-79.695
538,241459,1.01138,0.273768,-1.203652,12.46,-331.9925,-83.52750999999999
539,241557,1.052616,0.278648,-1.23708,14.5075,-338.695,-86.7475
540,241655,1.056032,0.26156799999999997,-1.22854,16.17,-342.9475,-88.935
541,241753,1.059936,0.24424400000000002,-1.206824,15.575,-342.0025,-89.88
542,241851,1.1394799999999998,0.250344,-1.2465959999999998,12.04,-334.5825,-89.93251
543,241949,1.199016,0.26718000000000003,-1.286124,7.2275,-322.98,-88.27
544,242047,1.312476,0.43236800000000003,-1.481568,1.05,-306.7575,-84.03501
545,242145,1.6689599999999998,0.7190681,-1.8541560000000001,-1.54,-287.6475,-77.1575
546,242244,2.128412,0.976,-2.105476,3.7275,-277.27,-72.5375
547,242342,2.63032,0.616588,-1.973228,10.29,-280.5425,-79.4675
548,242440,3.083916,0.654652,-1.770952,-8.6275,-299.5475,-104.965
549,242538,3.149064,0.9181720999999999,-1.2073120000000002,-26.88,-324.485,-123.8475
550,242636,2.98656,1.0060120000000001,-0.49556400000000006,-10.115,-333.3925,-127.0325
551,242734,2.81576,0.620004,0.30036399999999996,28.2975,-319.655,-117.04
552,242832,2.775012,0.086864,1.012356,42.455,-290.2375,-106.295
553,242930,3.013888,-0.323788,1.53598,18.165,-253.855,-102.83
554,243029,3.3752519999999997,-0.7366361,2.1596439999999997,-27.7725,-213.7275,-103.8275
555,243127,3.148576,-0.764696,2.623732,-83.685,-170.1,-101.5875
556,243225,2.360456,-0.41992399999999996,2.5583400000000003,-113.4525,-106.75,-78.995
557,243323,1.671156,0.165676,2.015196,-84.175,-12.635,-32.9
558,243421,-0.859368,-0.48702399999999996,3.213236,22.8725,136.22,3.99
559,243519,-0.9511120000000001,-1.325408,-2.0825400000000003,95.2175,319.0075,67.865
560,243617,1.541104,0.030012,-0.796172,-23.205,396.9875,50.155
561,243715,3.4840760000000004,-0.156648,-0.9589200999999999,-23.52,406.7,30.9575
562,243814,2.370948,-0.295484,-2.3912,-41.055,314.335,10.22
563,243912,2.390956,-0.240096,-2.1252400000000002,-46.9875,269.92,9.45
564,244010,2.327028,0.50508,-2.313364,-28.6475,231.35,59.64
565,244108,1.949804,1.259772,-1.729228,-21.0875,177.6425,59.815
566,244206,1.181936,1.0121120000000001,-1.4762,-4.375,131.2325,44.94
567,244304,0.7046720999999999,0.6661201,-1.0126,12.11,113.015,35.6125
568,244402,1.47864,1.43838,-1.434964,27.16,102.69,34.0025
569,244501,1.001132,0.5368,-1.085556,70.0525,72.73,27.755
570,244599,0.844972,-0.12029200000000001,-1.204628,76.86,56.0875,27.7375
571,244697,0.8813280000000001,0.38503200000000004,-1.128012,59.08,41.7025,29.3125
572,244795,0.61732,0.288164,-0.9911281,51.0125,28.07,22.7325
573,244893,0.6588,0.0183,-1.037,46.025,21.175,16.73
574,244991,0.5602239999999999,0.111752,-0.9557479999999999,28.3675,13.23,9.415
575,245089,0.441884,0.260104,-0.88328,14.2975,7.6125,2.73
576,245188,0.517524,0.28767600000000004,-0.9201241,7.9625,6.93,0.35
577,245286,0.502152,0.21276799999999998,-0.8805960999999999,4.095,5.075,-1.505
578,245384,0.45018,0.24570799999999998,-0.854244,-2.8525,3.395,-5.1275
579,245482,0.462868,0.309636,-0.8725440999999999,-8.3475,4.3225,-7.5075
580,245580,0.457988,0.307684,-0.849852,-10.15,4.7425,-7.945
581,245678,0.49044,0.28938400000000003,-0.8464360000000001,-10.815,5.215,-8.05
582,245776,0.48433999999999994,0.324276,-0.855708,-11.9175,4.7075,-8.61
583,245874,0.46506400000000003,0.339892,-0.8483879999999999,-11.1475,3.9725,-8.435
584,245973,0.46335600000000005,0.346724,-0.8322841000000001,-9.625,3.8325,-7.6125
585,246071,0.472628,0.31598000000000004,-0.8332601000000001,-8.1725,3.6925,-6.65
586,246169,0.443104,0.334524,-0.8361879999999999,-7.42,3.0975,-5.635
587,246267,0.443592,0.363072,-0.8166680000000001,-6.195,2.9575,-4.165
588,246365,0.45554799999999995,0.323544,-0.806176,-3.57,2.7125,-2.4675
589,246463,0.45261999999999997,0.288896,-0.8108121,-2.905,2.7125,-2.24
590,246561,0.44676400000000005,0.249856,-0.820572,-4.1475,3.185,-3.4125
591,246660,0.43212399999999995,0.260836,-0.80886,-6.9475,4.445,-5.0575
592,246758,0.438468,0.302316,-0.8042239999999999,-9.8175,6.055,-6.58
593,246856,0.441884,0.3233,-0.8047121,-10.8675,7.2625,-7.175
594,246954,0.4553041,0.312564,-0.8049561,-10.8675,8.5225,-7.21
595,247052,0.46164799999999995,0.34281999999999996,-0.803492,-11.235,9.1,-7.14
596,247150,0.468724,0.339892,-0.805688,-10.885,9.205,-6.965
597,247248,0.48068,0.31012399999999996,-0.8039801,-10.8325,9.31,-7.175
598,247347,0.480192,0.2867,-0.8030041,-11.97,9.8,-7.91
599,247445,0.4514,0.31964000000000004,-0.8047121,-14.0,10.4125,-9.24
600,247543,0.434564,0.338916,-0.8244761,-14.77,12.32,-9.0825
601,247641,0.466772,0.33818400000000004,-0.8359440999999999,-14.7,15.7325,-7.84
602,247739,0.45554799999999995,0.331596,-0.81984,-14.805,18.305,-6.23
603,247837,0.446276,0.347456,-0.822768,-16.5725,21.77,-4.9525
604,247935,0.45115600000000006,0.327936,-0.8235001000000001,-17.1675,25.865,-3.5525
605,248034,0.447984,0.29768,-0.808372,-18.095,31.5525,-3.15
606,248132,0.4404201,0.315492,-0.840824,-22.8025,39.4275,-1.435
607,248230,0.391376,0.434076,-0.835456,-29.6275,45.6925,5.3025
608,248328,0.480192,0.37698000000000004,-0.8432639999999999,-26.705,56.805,6.6325
609,248426,0.42212,0.36844,-0.8100801,-23.8875,65.6425,9.3275
610,248524,0.530212,0.363804,-0.87108,-30.5725,76.125,11.2525
611,248622,0.5058121,0.342332,-0.7808001,-23.485,76.44001,16.0475
612,248721,0.49044,0.33184,-0.803492,-21.8575,78.61,19.04
613,248819,0.553636,0.335744,-0.8076399999999999,-23.7125,86.18751,19.355
614,248917,0.477508,0.37332,-0.818132,-25.7775,94.53501,20.44
615,249015,0.484584,0.40528400000000003,-0.8342360000000001,-29.1375,104.1075,22.33
616,249113,0.571204,0.44822799999999996,-0.798124,-25.2875,116.83,27.7725
617,249211,0.536556,0.45383999999999997,-0.8108121,-23.31,124.8275,36.47
618,249309,0.67588,0.42187600000000003,-0.7795801,-17.01,136.4475,46.76
619,249408,0.5734,0.430904,-0.899384,-18.41,149.59,54.1975
620,249506,0.591212,0.48678,-0.9079241,-23.66,169.855,61.215
621,249604,0.83814,0.577548,-0.81374,-26.8975,195.615,73.4125
622,249702,0.8483879999999999,0.41992399999999996,-0.9028,-28.56,239.225,84.91
623,249800,0.786656,0.372344,-1.123376,-55.9125,290.255,78.435
624,249898,0.795928,0.465796,-1.684332,-80.4475,328.4575,70.105
625,249996,0.9472079999999999,0.5692520000000001,-1.387872,-97.05501,353.5175,67.725
626,250094,0.7881199999999999,0.587796,-1.4335,-115.9025,383.705,78.33
627,250193,0.85034,0.750788,-1.739232,-135.205,404.215,90.3175
628,250291,0.9091440000000001,0.8010520000000001,-1.61284,-96.86251,419.7025,104.615
629,250389,1.087752,1.2585520000000001,-1.56892,-62.825,453.95,91.63
630,250487,1.0528600000000001,1.010892,-1.7807119999999999,-76.0025,510.0025,30.5375
631,250585,1.601372,1.4661959999999998,-2.905064,-74.795,491.12,52.8675
632,250683,1.419348,0.47946000000000005,-1.32736,33.7925,364.4725,142.205
633,250781,2.911408,1.57746,-4.967596,-19.2675,311.3075,179.13
634,250880,1.9673720000000001,1.573312,-4.132384,-21.8575,137.1125,112.4025
635,250978,0.733464,1.452776,-3.032432,-21.9625,-26.0225,68.67
636,251076,0.023668,1.181936,-2.088396,-3.8325,-111.2475,34.37
637,251174,-0.207156,0.8884040000000001,-1.529148,22.68,-143.7275,25.1825
638,251272,-0.223992,0.656116,-1.24684,42.1925,-155.3825,24.535
639,251370,-0.135908,0.5170359999999999,-1.1468,48.09,-164.29,21.91
640,251468,0.017324000000000003,0.466528,-1.150216,43.12,-176.33,14.6475
641,251567,0.188368,0.47994799999999993,-1.190476,34.055,-195.195,4.0075
642,251665,0.315492,0.494832,-1.18218,28.2275,-220.465,-8.4175
643,251763,0.380396,0.49434399999999995,-1.11264,28.42,-248.0275,-20.685
644,251861,0.42822,0.46018400000000004,-1.012844,33.4075,-273.0175,-31.4825
645,251959,0.488,0.43627200000000005,-0.93696,39.8475,-293.72,-41.5275
646,252057,0.5614439999999999,0.388692,-0.885476,47.215,-310.2925,-50.505
647,252155,0.6441600000000001,0.320616,-0.84424,54.005,-323.925,-58.2225
648,252254,0.727364,0.27328,-0.8344801,57.5925,-336.1225,-65.5725
649,252352,0.81374,0.25742,-0.8430200999999999,59.045,-347.515,-71.96
650,252450,0.90402,0.265228,-0.8935280999999999,59.465,-358.33,-76.2475
651,252548,0.9964959999999999,0.279624,-0.955016,59.36,-368.655,-79.5375
652,252646,1.061644,0.28548,-1.0018639999999999,58.695,-378.805,-82.0925
653,252744,1.102392,0.287432,-1.0377319999999999,56.105,-387.52,-83.9825
654,252842,1.110932,0.281088,-1.019188,50.4875,-392.14,-85.05
655,252940,1.1716879999999998,0.28694400000000003,-1.019188,39.97,-389.9,-86.06501
656,253039,1.331752,0.30475599999999997,-1.127524,25.7775,-381.36,-87.1675
657,253137,1.485472,0.390156,-1.346392,10.71,-371.665,-85.96
658,253235,1.753628,0.547292,-1.62016,-4.8125,-360.7625,-80.115
659,253333,2.112552,0.794952,-1.862452,-18.165,-352.52,-73.64
660,253431,2.5817639999999997,1.104344,-2.000556,-27.2125,-348.7225,-68.3375
661,253529,3.051708,1.299788,-1.839516,-29.5925,-354.6375,-68.0225
662,253627,3.3567080000000002,0.691008,-1.219268,-28.4025,-367.745,-78.6625
663,253725,3.185664,0.756644,-0.756156,-53.7425,-379.995,-96.28501
664,253824,2.989732,0.697108,-0.232044,-56.245,-368.095,-99.26001
665,253922,2.9697240000000003,0.595116,0.190564,-39.4275,-336.49,-99.575
666,254020,2.961916,0.417972,0.694912,-10.5875,-298.6025,-93.52
667,254118,2.976556,0.155428,1.242448,14.0875,-258.0725,-81.935
668,254216,3.111,-0.24936799999999998,1.7450880000000002,19.8625,-213.2725,-65.31
669,254314,3.236416,-0.548268,2.27408,-3.2375,-162.785,-46.2875
670,254412,2.661552,-0.39528,2.4563479999999998,-49.5425,-109.55,-26.8625
671,254511,2.166476,0.120048,1.9890880000000002,-74.2,-35.735,-7.91
672,254609,1.9900639999999998,0.6329359999999999,1.129232,-49.7,45.3425,7.6825
673,254707,0.539972,1.94468,0.9864921,3.7275,111.2475,8.1025
674,254805,-1.827072,-1.6845759999999999,2.458056,153.51,239.8725,4.48
675,254903,-1.297104,-0.294508,-0.142496,51.52,393.645,43.26
676,255001,4.515219999999999,-0.5604680000000001,-1.143872,15.0325,510.7025,-10.08
677,255099,3.7227080000000004,-0.9384239999999999,-2.3799759999999996,-50.3125,400.365,-63.5425
678,255197,2.42414,-1.690432,-2.379732,-53.0425,283.9375,-39.27
679,255296,2.909944,-0.5887720000000001,-2.477088,-68.4075,285.6,27.51
680,255394,2.562976,1.325408,-2.155252,-84.98,212.135,60.725
681,255492,1.254892,1.826096,-1.478884,-73.29,144.935,37.065
682,255590,0.548024,1.304912,-0.9225639999999999,-42.6125,124.215,16.6775
683,255688,0.84424,1.331752,-1.3893360000000001,-21.8925,123.8825,4.13
684,255786,1.8900240000000001,1.209264,-1.119472,25.6025,112.0525,13.965
685,255884,1.419348,-0.054655999999999996,-1.545984,67.2875,56.875,22.6625
686,255983,0.472384,0.006587999999999999,-0.7015,52.1325,25.655,23.1175
687,256081,0.667828,0.376736,-1.054324,19.1975,22.3825,8.785
688,256179,0.518256,0.23741199999999998,-0.9025559999999999,18.3575,16.2925,4.7775
689,256277,0.36234,0.490928,-0.8103239999999999,10.815,11.55,4.2525
690,256375,0.599996,0.28548,-0.919636,15.0325,13.685,5.53
691,256473,0.599996,0.20984,-0.899384,11.3225,10.08,3.3075
692,256571,0.38552,0.41016400000000003,-0.8371639999999999,2.7825,4.5675,-0.595
693,256669,0.49288000000000004,0.331108,-0.8540000000000001,4.445,6.5975,0.105
694,256768,0.525332,0.338672,-0.8357,4.6375,6.58,0.1225
695,256866,0.437492,0.452132,-0.8176439999999999,4.48,3.675,0.77
696,256964,0.484096,0.37502800000000003,-0.844484,9.8875,3.2375,3.57
697,257062,0.512644,0.359656,-0.836676,12.67,2.835,5.005
698,257160,0.477264,0.374784,-0.8261841000000001,13.72,1.085,5.74
699,257258,0.48873199999999994,0.36234,-0.828868,16.1875,-0.7525,7.4725
700,257356,0.49288000000000004,0.3599,-0.8249639999999999,18.3225,-2.6775,9.135
701,257454,0.48214399999999996,0.337208,-0.8230120999999999,20.0725,-4.7425,10.4825
702,257553,0.47994799999999993,0.326228,-0.8274040000000001,20.5275,-5.6875,10.8325
703,257651,0.472628,0.312808,-0.8254520000000001,20.09,-6.3,10.4825
704,257749,0.48116800000000004,0.275476,-0.826428,19.0575,-6.4225,10.0975
705,257847,0.47482399999999997,0.239364,-0.8166680000000001,16.3625,-6.0725,7.91
706,257945,0.4636,0.229848,-0.8166680000000001,11.7075,-5.3725,4.6375
707,258043,0.465796,0.23911999999999997,-0.819108,6.86,-4.165,1.505
708,258141,0.45628,0.248148,-0.8166680000000001,2.17,-3.045,-1.4
709,258240,0.449204,0.256932,-0.818132,-2.24,-1.75,-3.57
710,258338,0.44652,0.260592,-0.815448,-5.8625,-0.2625,-5.0225
711,258436,0.444812,0.271816,-0.8044680999999999,-9.17,0.77,-6.3875
712,258534,0.44505600000000006,0.30134,-0.80276,-12.075,2.03,-7.525
713,258632,0.42944,0.31964000000000004,-0.8054439999999999,-12.985,2.9925,-7.49
714,258730,0.440176,0.31842,-0.80642,-13.195,4.69,-6.685
715,258828,0.439932,0.28621199999999997,-0.8220360000000001,-13.2825,6.7025,-6.0725
716,258927,0.452132,0.326228,-0.830332,-14.6475,9.38,-5.8975
717,259025,0.41284799999999994,0.33671999999999996,-0.828868,-14.9625,12.145,-4.41
718,259123,0.424072,0.28767600000000004,-0.8291120999999999,-15.295,17.395,-2.765
719,259221,0.42333999999999994,0.255956,-0.8344801,-18.7775,24.465,-1.47
720,259319,0.472872,0.148108,-0.78446,-25.2525,32.8125,0.5775
721,259417,0.31402800000000003,0.5978,-0.9691681000000001,-41.825,40.88,7.84
722,259515,0.419436,0.19154000000000002,-0.783728,-31.4825,53.69,8.8025
723,259613,0.424804,0.42944,-0.8988959999999999,-34.23,68.81,10.0975
724,259712,0.38308000000000003,0.285724,-0.7983680000000001,-38.185,82.915,12.215
725,259810,0.46945600000000004,0.355996,-0.834724,-43.3125,99.295,12.3725
726,259908,0.4514,0.325008,-0.8039801,-47.1975,114.8,12.355
727,260006,0.499468,0.43676000000000004,-0.893284,-53.725,130.13,13.4225
728,260104,0.477264,0.413092,-0.768356,-36.365,129.115,19.7575
729,260202,0.519476,0.438468,-0.8625401,-22.015,131.565,34.09
730,260300,0.5353359999999999,0.40577199999999997,-0.8608319999999999,-26.18,144.0775,44.4325
731,260399,0.6541640000000001,0.5653481,-0.839116,-28.6125,157.395,55.2475
732,260497,0.515572,0.488,-0.9691681000000001,-20.16,171.9725,66.7625
733,260595,0.769576,0.6039,-0.9315921,-16.415,195.825,77.7875
734,260693,0.75884,0.41675200000000007,-0.8671761,-18.69,226.625,93.345
735,260791,0.72468,0.6514800000000001,-1.136064,-36.5925,258.195,105.2625
736,260889,1.146556,0.812276,-1.354932,-47.4425,302.925,111.5275
737,260987,0.913048,0.6292760000000001,-1.7428919999999999,-50.7325,360.0975,119.91
738,261086,0.8788879999999999,0.8591241,-1.67628,-69.3175,396.9875,133.42
739,261184,0.587064,0.708576,-1.7294720000000001,-65.29251,432.32,156.66
740,261282,0.9154880999999999,1.335412,-1.80072,-35.5075,447.4225,158.4625
741,261380,0.9801479999999999,1.035292,-1.8031599999999999,-28.0875,489.51,100.5025
742,261478,1.14802,1.15656,-2.142808,-39.795,519.68,96.67
743,261576,1.3729879999999999,0.8554641,-1.9337,24.43,458.745,158.445
744,261675,2.077172,0.8713241,-3.017792,79.45,378.525,220.255
745,261773,2.8416240000000004,1.563308,-4.451536,-4.13,291.5325,148.8375
746,261871,1.508896,1.7521639999999998,-4.096516,-19.9325,88.8125,90.8775
747,261969,0.31524800000000003,1.562088,-2.794288,-28.1575,-53.83,24.6925
748,262067,-0.27523200000000003,1.191452,-1.845616,-1.2775,-122.92,-7.3675
749,262165,-0.470188,0.8042239999999999,-1.2993,31.9375,-146.8425,-15.61
750,262263,-0.457744,0.525088,-1.037488,49.42,-154.035,-18.0075
751,262362,-0.356484,0.3477,-0.9354959999999999,47.985,-158.655,-24.4125
752,262460,-0.19032000000000002,0.2745,-0.9455,32.55,-166.4775,-35.0525
753,262558,0.022692,0.30548800000000004,-1.026996,13.8425,-179.7425,-46.6725
754,262656,0.21374400000000002,0.385764,-1.109712,2.065,-199.01,-56.5075
755,262754,0.388448,0.461404,-1.158268,1.47,-222.9675,-63.8925
756,262852,0.51362,0.485804,-1.1331360000000001,10.745,-249.305,-69.79
757,262950,0.5663239999999999,0.44115200000000004,-1.029436,23.8525,-275.065,-75.985
758,263049,0.6109760000000001,0.381128,-0.9298841,34.1775,-296.1875,-82.5475
759,263147,0.660752,0.332572,-0.8608319999999999,39.9175,-311.7625,-89.11
760,263245,0.740052,0.308904,-0.856196,41.5625,-323.3125,-95.305
761,263343,0.8547319999999999,0.312564,-0.9089001,41.405,-333.0075,-100.73
762,263441,0.9494040000000001,0.320616,-0.9535521,42.455,-343.91,-104.3875
763,263539,1.028948,0.306464,-1.0079639999999999,44.555,-354.935,-105.9275
764,263637,1.116544,0.29524,-1.091656,45.605,-364.9625,-105.7525
765,263735,1.206336,0.27571999999999997,-1.19804,44.695,-374.395,-104.6325
766,263834,1.301252,0.24497600000000003,-1.2749,40.1625,-383.2675,-103.705
767,263932,1.333948,0.19885999999999998,-1.273192,31.01,-391.2475,-103.8625
768,264030,1.378112,0.17763199999999998,-1.2932,16.4675,-394.065,-105.525
769,264128,1.497428,0.195932,-1.42008,0.42,-388.9725,-105.91
770,264226,1.741428,0.339404,-1.651636,-14.035,-379.2075,-100.135
771,264324,2.155496,0.5543680000000001,-1.971032,-23.765,-369.075,-88.795
772,264423,2.7410959999999998,0.6749041,-2.2518759999999998,-27.3,-365.82,-78.89
773,264521,3.3232800000000005,0.649284,-2.174284,-30.0475,-376.5125,-78.47
774,264619,3.5014,0.821304,-1.7985240000000002,-35.9275,-399.735,-82.0225
775,264717,3.282532,0.999668,-0.9567241,-21.9275,-412.055,-81.46251
776,264815,3.032432,0.9955200000000001,-0.13151600000000002,8.155,-399.2275,-76.6675
777,264913,2.946544,0.571204,0.668316,41.6675,-360.3075,-68.6175
778,265012,2.943616,-0.148596,1.48474,43.12,-310.38,-63.49
779,265110,3.202256,-0.567056,2.140368,-4.9875,-255.535,-64.19
780,265208,3.593144,-0.499468,2.5827400000000003,-70.8225,-198.765,-67.8475
781,265306,3.262768,-0.29987600000000003,2.680584,-104.44,-138.0575,-59.5175
782,265404,2.570296,0.05172801,2.286036,-88.69,-57.68,-31.78
783,265502,2.256268,0.386252,1.4598520000000001,-27.475,38.7975,6.895
784,265600,2.246752,0.488976,0.505568,45.15,115.0625,35.875
785,265699,-0.5058121,0.325496,-0.285724,83.66751,151.7425,38.71
786,265797,-1.7550919999999999,-0.47458,0.6170760000000001,127.365,240.205,44.975
787,265895,-2.0413040000000002,-0.10248,0.594384,109.305,338.87,91.5425
788,265993,3.3410919999999997,-0.666608,-0.43188000000000004,92.78501,501.1475,65.59
789,266091,4.242672,-0.424804,-2.6217799999999998,-37.9575,456.5575,-51.17
790,266189,2.7816,-1.70068,-2.096936,-31.7975,324.7125,-57.365
791,266287,3.202744,-0.9762440999999998,-2.5049040000000002,-49.3325,313.95,1.2075
792,266386,2.690832,0.9994241,-2.3907119999999997,-65.9575,226.8875,51.8525
793,266484,1.458876,1.802672,-1.5845360000000002,-57.47,157.1325,35.9625
794,266582,0.833016,1.127768,-1.186572,-27.1775,127.7325,17.325
795,266680,1.4691239999999999,1.627724,-2.1291439999999997,-6.545,116.41,6.475
796,266778,1.583072,0.815936,-1.129964,50.505,87.0275,18.585
797,266876,0.662704,-0.169336,-1.18218,75.5125,36.4175,28.0525
798,266974,0.7300479999999999,0.239852,-0.9113399999999999,45.36,26.845,19.425
799,267073,0.7761640999999999,0.250344,-1.06628,26.88,17.465,11.585
800,267171,0.5690081,-0.045627999999999995,-0.9857600000000001,25.795,6.9475,7.0175
801,267269,0.44115200000000004,0.335744,-0.837408,4.97,1.855,-1.4525
802,267367,0.388448,0.478484,-0.841556,-0.245,2.1525,-3.64
803,267465,0.449692,0.30475599999999997,-0.864492,7.6125,4.655,0.98
804,267563,0.5260640000000001,0.196664,-0.876692,7.91,5.8625,1.435
805,267661,0.489464,0.299144,-0.8510719999999999,1.6625,4.375,-1.7325
806,267760,0.452132,0.36282800000000004,-0.837408,0.7,3.8675,-2.6075
807,267858,0.477264,0.315736,-0.83936,3.7625,4.1125,-1.1725
808,267956,0.48678,0.282308,-0.846924,5.425,3.99,-0.4025
809,268054,0.435784,0.355752,-0.822524,5.25,3.4125,-0.42
810,268152,0.44676400000000005,0.327692,-0.8296,7.525,4.4275,0.7875
811,268250,0.45725600000000005,0.27938,-0.831308,8.54,5.1625,1.5225
812,268349,0.45506,0.295484,-0.8342360000000001,6.44,5.5125,1.365
813,268447,0.444324,0.28377199999999997,-0.826916,4.5325,5.8975,1.5575
814,268545,0.45579200000000003,0.256444,-0.834968,2.625,6.23,1.6275
815,268643,0.46774799999999994,0.28987199999999996,-0.826672,-0.28,6.23,1.4
816,268741,0.450912,0.247416,-0.8261841000000001,-2.0125,6.6325,0.8575
817,268839,0.457744,0.223992,-0.827892,-5.25,7.8925,-0.63
818,268937,0.47067600000000004,0.232044,-0.8149601,-10.6225,9.1,-2.94
819,269036,0.467016,0.25424800000000003,-0.8252079999999999,-15.61,10.08,-5.88
820,269134,0.466772,0.260836,-0.813984,-19.81,11.55,-8.4525
821,269232,0.476288,0.266692,-0.818132,-22.715,13.2475,-10.6925
822,269330,0.480436,0.32208000000000003,-0.8115439999999999,-24.9025,15.365,-11.9875
823,269428,0.49580799999999997,0.328424,-0.8108121,-24.6225,16.625,-11.69
824,269526,0.511668,0.31158800000000003,-0.7903161,-22.785,16.38,-11.2525
825,269624,0.484584,0.337208,-0.798124,-22.9775,16.45,-10.535
826,269723,0.434808,0.34477199999999997,-0.8086161000000001,-22.3125,17.0275,-9.065
827,269821,0.425292,0.307684,-0.820084,-20.965,20.195,-5.355
828,269919,0.385276,0.353312,-0.855708,-24.2375,25.4625,0.6475
829,270017,0.36502399999999996,0.36209600000000003,-0.8418,-27.895,31.9025,6.9475
830,270115,0.428464,0.285968,-0.859368,-25.235,42.77,9.31
831,270213,0.4392,0.307196,-0.8371639999999999,-25.3925,53.865,9.7825
832,270311,0.447008,0.262788,-0.7978801,-31.2375,63.8925,10.1325
833,270409,0.542168,0.38356799999999996,-0.783972,-37.065,75.3375,7.91
834,270508,0.514352,0.39284,-0.7571321,-41.51,87.045,6.545
835,270606,0.5170359999999999,0.477264,-0.8413120000000001,-46.4625,99.82,10.2375
836,270704,0.48702399999999996,0.345504,-0.7105279999999999,-40.04,111.79,12.4425
837,270802,0.71004,0.419436,-0.9818561,-47.46,125.0725,11.55
838,270900,0.582428,0.3294,-0.72712,-28.1575,117.775,20.545
839,270998,0.624396,0.36478,-0.7659161,-21.245,117.4425,26.2325
840,271096,0.6117081,0.400892,-0.7986121,-20.37,125.23,25.83
841,271195,0.635376,0.434564,-0.8400921,-19.4425,135.7125,29.0675
842,271293,0.64294,0.4819,-0.826428,-15.575,147.6475,37.38
843,271391,0.705404,0.565104,-0.826672,-16.1525,165.9175,48.335
844,271489,0.69296,0.464088,-0.9767321,-26.215,191.5375,63.315
845,271587,0.930616,0.6373281,-1.093608,-41.7725,225.2775,69.80751
846,271685,0.8586360000000001,0.5697399999999999,-1.051152,-58.8525,288.3125,66.6925
847,271783,0.8015399999999999,0.530212,-1.3388280000000001,-83.4925,337.61,64.34751
848,271881,0.91012,0.409188,-1.610644,-90.1775,368.375,74.34
849,271980,0.89426,0.7510321,-1.353956,-102.445,394.975,84.735
850,272078,0.7229720000000001,0.6661201,-1.7284959999999998,-109.5675,425.005,101.92
851,272176,0.772016,0.697596,-1.4818120000000001,-91.805,443.66,111.615
852,272274,1.235128,1.418372,-1.692384,-64.4525,471.24,101.745
853,272372,1.273436,1.108492,-1.9473639999999999,-85.4525,529.7425,29.47
854,272470,2.031544,1.524024,-3.349388,-81.84751,507.3775,60.2875
855,272568,1.896856,0.46116,-1.854644,46.3225,358.33,184.2575
856,272666,3.5197,1.7519200000000001,-5.368976,-22.1025,291.9175,203.5075
857,272765,1.6684720000000002,1.5906360000000002,-4.271952,-14.07,70.77,129.1675
858,272863,0.35526399999999997,1.375916,-2.7715959999999997,-30.73,-79.66001,75.915
859,272961,-0.169824,1.1270360000000001,-1.9063720000000002,-18.235,-142.835,48.7025
860,273059,-0.273036,0.883524,-1.4905959999999998,6.055,-161.56,43.995
861,273157,-0.198128,0.715164,-1.339072,22.4175,-170.0125,41.0725
862,273255,-0.063196,0.624152,-1.287344,26.5125,-182.385,31.7275
863,273353,0.06466001,0.6029241,-1.280756,23.2225,-201.4425,16.2925
864,273452,0.197884,0.602436,-1.271728,19.5125,-225.12,-1.5575
865,273550,0.30378,0.581696,-1.216828,20.0725,-251.545,-19.495
866,273648,0.38674000000000003,0.532896,-1.1272799999999998,25.3575,-277.935,-35.8925
867,273746,0.449692,0.472872,-1.0279719999999999,32.41,-301.2975,-50.3475
868,273844,0.508984,0.38674000000000003,-0.922076,39.375,-320.1275,-63.0525
869,273942,0.570472,0.289628,-0.832528,43.75,-334.5475,-74.655
870,274040,0.642452,0.22252800000000003,-0.782508,44.8875,-345.1,-85.155
871,274138,0.72102,0.160308,-0.756888,44.8,-353.4825,-92.96
872,274237,0.7903161,0.144204,-0.80276,44.73,-360.0975,-97.7025
873,274335,0.91622,0.139812,-0.9006040999999999,46.7775,-364.7525,-98.42
874,274433,1.04554,0.135176,-1.0169920000000001,50.295,-370.965,-96.3025
875,274531,1.1594879999999999,0.128344,-1.134844,52.3075,-379.4175,-92.76751
876,274629,1.266848,0.120048,-1.23708,50.47,-388.6225,-88.51501
877,274727,1.358592,0.150304,-1.307108,43.085,-396.9175,-84.4725
878,274825,1.44814,0.183976,-1.338584,30.8,-401.5025,-81.04251
879,274923,1.59576,0.239364,-1.453752,14.8575,-401.0125,-78.9075
880,275022,1.850984,0.411384,-1.692384,-4.0775,-396.375,-74.165
881,275120,2.183312,0.6505041,-1.961516,-22.4175,-391.02,-67.69001
882,275218,2.693516,0.9106081,-2.172576,-36.3825,-389.4975,-63.3325
883,275316,3.1817599999999997,1.297836,-2.1411,-41.7725,-398.9825,-59.8675
884,275414,3.511892,1.348344,-1.630408,-32.585,-416.7275,-55.8425
885,275512,3.384036,0.8754719999999999,-0.6785640000000001,-23.9925,-428.47,-62.615
886,275610,3.079768,0.658556,-0.010248,-45.9725,-420.0875,-74.3575
887,275708,2.98778,0.6029241,0.536556,-57.855,-379.33,-85.3825
888,275807,3.10002,0.463844,1.09312,-53.935,-322.91,-93.8525
889,275905,3.30376,0.212524,1.735816,-35.4025,-262.5875,-96.28501
890,276003,3.515796,-0.085888,2.327516,-21.4375,-199.92,-92.89001
891,276101,3.59168,-0.264984,2.627636,-20.3175,-131.6875,-83.0375
892,276199,3.031456,-0.33379200000000003,2.5339400000000003,-24.675,-56.4025,-62.0725
893,276297,2.611776,-0.061488,1.8153599999999999,-28.7,24.955,-36.33
894,276395,2.393884,0.384788,0.835456,-15.3475,94.93751,-19.565
895,276493,-1.677012,0.465552,-0.125416,26.6875,147.4725,-26.0225
896,276592,-2.9153119999999997,-2.2113720000000003,0.284016,163.625,301.9625,5.0225
897,276690,1.2136559999999998,-0.9669721,0.9086559999999999,27.125,440.3875,46.4975
898,276788,6.17442,-0.6390359999999999,-2.5071,-10.9375,539.2275,-15.365
899,276886,2.873832,-1.3261399999999999,-2.83528,-52.2025,349.09,-37.4675
900,276984,3.113684,-1.235372,-2.120116,-44.3625,293.5975,17.0275
901,277082,2.8906680000000002,0.7156520000000001,-2.693516,-72.7125,265.5625,72.1525
902,277180,2.2955520000000003,1.9002720000000002,-2.050088,-73.465,191.415,49.805
903,277279,1.148264,1.5135319999999999,-1.522804,-34.72,126.8225,33.705
904,277377,0.478484,0.9067040000000001,-0.8103239999999999,-4.095,112.1925,19.2325
905,277475,1.820972,1.7775400000000001,-1.8178,17.36,111.1425,20.6675
906,277573,1.0675,0.153476,-1.094096,87.3075,70.595,29.61
907,277671,1.023824,-0.317932,-1.347856,78.155,46.6725,29.7675
908,277769,0.7324881,0.5594920999999999,-0.9777081,42.0,24.43,22.435
909,277867,0.48385200000000006,0.149084,-0.9591639999999999,41.2475,11.7425,16.485
910,277965,0.644648,0.10638399999999999,-1.0077200000000002,33.005,10.1675,11.6725
911,278064,0.512644,0.295484,-0.91622,17.5875,3.9025,4.725
912,278162,0.378444,0.366976,-0.855708,13.685,0.385,2.1875
913,278260,0.45432799999999995,0.290848,-0.8930401,14.5425,2.73,3.43
914,278358,0.487512,0.23058,-0.8762040000000001,13.79,3.08,3.43
915,278456,0.472872,0.259128,-0.8642481,10.2375,1.9425,1.3825
916,278554,0.437492,0.313052,-0.8425321,8.8375,1.7325,0.1925
917,278652,0.438224,0.314272,-0.8437520000000001,10.3425,2.555,0.805
918,278751,0.44896,0.31890799999999997,-0.844484,12.1975,2.87,1.855
919,278849,0.44993599999999995,0.306708,-0.844972,14.4025,2.625,3.045
920,278947,0.44066400000000006,0.305244,-0.8357,15.855,2.695,3.7625
921,279045,0.440176,0.282064,-0.839116,17.395,2.9575,4.3575
922,279143,0.452132,0.258396,-0.854244,17.815,3.045,4.585
923,279241,0.45286400000000004,0.277672,-0.8664440000000001,16.0125,2.52,4.515
924,279339,0.471408,0.27816,-0.8547319999999999,14.07,2.2575,4.76
925,279437,0.45506,0.259128,-0.836676,12.5825,1.6275,5.0925
926,279536,0.44090799999999997,0.23668000000000003,-0.8357,10.955,1.435,4.4625
927,279634,0.44066400000000006,0.22448,-0.835456,8.6275,2.17,2.7825
928,279732,0.43651599999999996,0.204716,-0.8376520000000001,5.74,3.0625,1.085
929,279830,0.44383599999999995,0.193736,-0.827892,2.2575,4.375,-0.385
930,279928,0.44408000000000003,0.22691999999999998,-0.826916,-2.485,5.8275,-2.205
931,280026,0.450668,0.22277199999999997,-0.8271601000000001,-5.9325,6.825,-3.4475
932,280124,0.44773999999999997,0.221552,-0.8344801,-8.68,7.56,-4.1125
933,280223,0.451888,0.226188,-0.83204,-11.8825,8.5225,-4.795
934,280321,0.445788,0.24863600000000002,-0.8352120000000001,-14.98,9.7825,-5.6525
935,280419,0.42016800000000004,0.265228,-0.839116,-17.2725,11.62,-5.845
936,280517,0.42626800000000004,0.25424800000000003,-0.8342360000000001,-19.425,14.385,-5.495
937,280615,0.418216,0.26474000000000003,-0.8525360000000001,-22.505,17.4825,-4.62
938,280713,0.44115200000000004,0.25351599999999996,-0.8315520000000001,-25.69,22.33,-3.745
939,280811,0.4026,0.251076,-0.854244,-30.4325,29.0675,-1.6625
940,280909,0.325252,0.20008,-0.823256,-38.01,37.9225,3.3425
941,281008,0.45261999999999997,0.48165600000000003,-0.9982040000000001,-51.205,49.175,11.305
942,281106,0.42285200000000006,0.215452,-0.802272,-35.49,61.9325,8.1025
943,281204,0.42724399999999996,0.38674000000000003,-0.895236,-50.435,74.6375,9.1875
944,281302,0.4453,0.298168,-0.820084,-45.745,88.32251,10.465
945,281400,0.430904,0.337696,-0.8357,-48.895,104.3525,10.15
946,281498,0.4743361,0.31354,-0.79422,-52.4825,121.59,9.5025
947,281596,0.485804,0.341356,-0.819108,-56.63,137.5675,10.99
948,281695,0.8235001000000001,0.45871999999999996,-1.118496,-60.235,153.0725,11.1125
949,281793,0.6283,0.39405999999999997,-0.8081281,-34.09,143.57,23.8175
950,281891,0.5873079999999999,0.49044,-0.8698601,-29.155,147.4725,39.5675
951,281989,0.624884,0.444812,-0.826916,-21.525,159.95,51.065
952,282087,0.601704,0.416996,-0.954528,-17.78,174.4575,59.9025
953,282185,0.711992,0.47994799999999993,-0.9396440999999999,-20.7725,195.545,69.0025
954,282283,0.6939361,0.5233800000000001,-1.0467600000000001,-30.485,225.785,82.4425
955,282381,0.8222799999999999,0.609024,-1.143628,-42.28,260.855,97.65
956,282480,1.191208,0.854244,-1.430084,-54.7575,304.9375,108.2375
957,282578,0.8430200999999999,0.7141881,-1.9117400000000002,-58.625,360.9025,114.9225
958,282676,0.892308,0.785924,-1.7328880000000002,-68.1975,399.84,131.075
959,282774,0.644404,0.759572,-1.826096,-66.745,427.6825,149.2925
960,282872,1.0645719999999999,1.4095879999999998,-1.707756,-48.8075,449.8025,142.4325
961,282970,1.001132,1.050176,-1.795596,-34.93,499.485,103.3375
962,283068,1.230736,1.256844,-2.3018959999999997,-29.96,525.0875,114.9925
963,283166,1.3176,1.036756,-2.175992,32.5675,458.465,168.91
964,283265,1.991772,1.087508,-3.239588,94.43,379.8725,226.38
965,283363,2.737436,1.53964,-4.488136,34.7725,291.655,148.5925
966,283461,1.4295959999999999,1.613816,-4.138484,12.32,84.875,84.5425
967,283559,0.233508,1.40788,-2.811612,-10.115,-59.395,15.75
968,283657,-0.354532,1.083604,-1.86172,4.3925,-128.1175,-15.015
969,283755,-0.48824399999999996,0.777628,-1.3786,29.5575,-150.8675,-21.735
970,283853,-0.41894799999999993,0.540704,-1.170468,46.9175,-158.3925,-22.26
971,283951,-0.24766,0.391864,-1.128744,48.7375,-167.055,-27.0725
972,284050,-0.02684,0.329888,-1.180472,38.57,-182.0525,-36.995
973,284148,0.17616800000000002,0.3294,-1.22244,25.55,-204.9075,-48.7725
974,284246,0.30792800000000004,0.342332,-1.2056040000000001,17.815,-233.2225,-59.325
975,284344,0.396744,0.341356,-1.1346,18.0425,-262.2025,-67.5675
976,284442,0.483364,0.30012,-1.057252,23.87,-287.5075,-73.5875
977,284540,0.5504641,0.24790399999999999,-0.965752,31.535,-308.5075,-78.75
978,284638,0.6375721,0.188124,-0.8964561,37.6425,-325.22,-83.5625
979,284737,0.7007680000000001,0.132248,-0.845216,41.965,-338.24,-87.29
980,284835,0.772016,0.100772,-0.8388721,44.345,-347.6375,-89.075
981,284933,0.8647360000000001,0.08466801,-0.903532,46.9875,-354.725,-88.2875
982,285031,1.00894,0.07515201,-1.017236,48.44,-361.69,-85.68
983,285129,1.169736,0.08637601,-1.164124,47.5825,-371.07,-82.39
984,285227,1.3329719999999998,0.100284,-1.315892,44.52,-383.705,-78.27750999999999
985,285325,1.471808,0.11834000000000001,-1.431548,38.0275,-398.6675,-74.06
986,285423,1.52378,0.124196,-1.44814,27.4225,-413.49,-70.875
987,285522,1.523292,0.124928,-1.40422,11.305,-423.0275,-69.3175
988,285620,1.630652,0.21301199999999998,-1.46034,-9.87,-421.96,-68.18
989,285718,1.819264,0.34257600000000005,-1.608692,-29.89,-411.4775,-64.3125
990,285816,2.151104,0.538996,-1.8988080000000003,-49.4375,-396.6725,-58.905
991,285914,2.7703759999999997,0.826428,-2.236748,-66.0975,-384.1075,-54.495
992,286012,3.33914,1.2038959999999999,-2.2323560000000002,-71.6625,-387.905,-53.865
993,286110,3.7048959999999997,0.6822239999999999,-1.6592,-61.53,-404.6525,-59.43
994,286209,3.4382040000000003,0.646844,-0.8820601,-69.6325,-419.0375,-77.0
995,286307,3.126616,0.720288,-0.004392,-70.5075,-406.2625,-90.72001
996,286405,3.123932,0.6939361,0.7861680999999999,-41.9125,-363.9825,-97.5625
997,286503,3.339872,0.100284,1.7672919999999999,5.46,-305.165,-89.2325
998,286601,3.5567879999999996,-0.427976,2.784284,17.745,-242.3925,-82.5475
999,286699,3.288388,-0.282308,3.0951400000000002,-13.405,-171.465,-81.13
1000,286797,2.8970119999999997,-0.26108000000000003,2.7886759999999997,-24.3075,-78.715,-65.625
1001,286896,2.5527279999999997,-0.11760799999999999,1.8541560000000001,-11.9525,19.0925,-37.17
1002,286994,2.485872,0.193736,0.671488,11.06,95.585,-16.1525
1003,287092,1.9366279999999998,0.668316,0.142252,40.74,130.165,-11.655
1004,287190,-2.663016,-1.004548,1.0309,109.6375,184.52,-7.7
1005,287288,-2.972896,-1.4095879999999998,-0.01342,137.5325,334.635,63.07
1006,287386,3.24032,-1.647488,0.259128,81.9875,484.47,87.255
1007,287484,4.594276,-0.8679081,-2.566392,-21.9975,471.24,18.0425
1008,287583,1.9893319999999999,-1.3888479999999999,-1.7450880000000002,-51.3975,302.3825,-8.6275
1009,287681,2.489776,-0.697108,-2.000068,-87.95501,318.36,22.645
1010,287779,2.256024,0.6373281,-1.809748,-103.3725,268.625,59.115
1011,287877,2.398764,2.2189360000000002,-1.921988,-112.63,218.295,28.3675
1012,287975,2.406572,3.661952,-3.297904,-75.7225,166.1975,14.8575
1013,288073,2.463668,0.8910879999999999,-0.903532,59.08,119.14,7.4025
1014,288171,0.653432,-0.59902,-1.342244,111.16,37.1175,45.0275
1015,288270,0.9572120999999999,0.054655999999999996,-1.0084520000000001,57.5575,39.9175,26.6525
1016,288368,0.8937719999999999,0.205692,-1.10166,20.09,26.775,9.1
1017,288466,0.46457600000000004,0.300608,-0.883524,23.3975,5.4075,7.5775
1018,288564,0.681492,0.13785999999999998,-1.015284,15.8375,5.705,3.6575
1019,288662,0.47092,0.298656,-0.856684,6.0725,-0.665,-1.085
1020,288760,0.468236,0.42602399999999996,-0.8708360999999999,2.0825,-0.8925,-3.0975
1021,288858,0.47506800000000005,0.31012399999999996,-0.8559521000000001,6.8075,-0.8225,-0.455
1022,288957,0.49117200000000005,0.240096,-0.8701040000000001,7.665,-0.8925,0.1575
1023,289055,0.484096,0.257176,-0.855708,4.3225,-0.5775,-1.82
1024,289153,0.46603999999999995,0.284016,-0.8427761,2.3975,-0.105,-3.4475
1025,289251,0.45896400000000004,0.330864,-0.8432639999999999,2.59,0.315,-3.5875
1026,289349,0.47677600000000003,0.316956,-0.8344801,4.97,0.7175,-2.4675
1027,289447,0.4575,0.304268,-0.8357,7.315,0.385,-1.26
1028,289545,0.4594521,0.313784,-0.836676,9.1,0.0525,-0.35
1029,289644,0.444568,0.31012399999999996,-0.8166680000000001,10.7625,-0.175,1.0325
1030,289742,0.459208,0.25986,-0.8261841000000001,12.0575,-0.105,2.03
1031,289840,0.441884,0.268888,-0.8244761,10.535,-0.28,1.8025
1032,289938,0.43554,0.270596,-0.8210601000000001,9.135,-0.175,1.68
1033,290036,0.41406800000000005,0.25132,-0.820572,8.1025,0.4025,1.995
1034,290134,0.44408000000000003,0.254004,-0.8142281,6.3,1.7325,2.205
1035,290232,0.46481999999999996,0.242292,-0.822524,4.2875,2.345,1.96
1036,290330,0.46164799999999995,0.21008400000000002,-0.835456,0.9275,2.6075,0.525
1037,290429,0.46848,0.23472800000000002,-0.836676,-3.8675,3.29,-1.2775
1038,290527,0.482388,0.23741199999999998,-0.8357,-7.8575,4.305,-2.94
1039,290625,0.47775200000000007,0.24644000000000002,-0.83814,-11.41,4.7775,-4.515
1040,290723,0.49312399999999995,0.23692399999999997,-0.8247200000000001,-15.1375,5.2325,-6.0375
1041,290821,0.46896800000000005,0.28304,-0.819108,-17.7275,5.0925,-7.0525
1042,290919,0.441396,0.35160399999999997,-0.8252079999999999,-17.0275,5.32,-5.7575
1043,291017,0.442616,0.339648,-0.8308200000000001,-13.72,6.5275,-2.94
1044,291115,0.460672,0.345992,-0.8430200999999999,-10.4125,7.77,0.1225
1045,291214,0.450668,0.31646799999999997,-0.8425321,-7.525,8.4525,3.4125
1046,291312,0.431392,0.281088,-0.8400921,-6.1425,10.7275,6.4925
1047,291410,0.48312,0.155184,-0.8164239999999999,-8.6275,16.5025,8.3825
1048,291508,0.379664,0.321104,-0.901336,-21.7525,23.835,12.4425
1049,291606,0.386252,0.3111,-0.9042641,-26.565,34.3525,12.775
1050,291704,0.41723999999999994,0.23082399999999997,-0.8081281,-20.895,46.375,7.1575
1051,291802,0.432612,0.25424800000000003,-0.8398479999999999,-31.08,59.675,5.5475
1052,291900,0.443104,0.2806,-0.81618,-34.65,71.68,5.7925
1053,291999,0.44237200000000004,0.319152,-0.83204,-42.1925,84.945,7.805
1054,292097,0.43358800000000003,0.35014,-0.8466800999999999,-44.9575,97.405,10.4825
1055,292195,0.5038600000000001,0.284992,-0.777384,-44.4675,111.1775,9.835
1056,292293,0.505568,0.314272,-0.786412,-48.055,123.165,9.695
1057,292391,0.524112,0.332572,-0.824232,-40.81,123.9,12.495
1058,292489,0.486292,0.355508,-0.9086559999999999,-26.2325,121.4675,22.645
1059,292588,0.514596,0.353556,-0.9054840000000001,-28.1225,136.99,27.7025
1060,292686,0.6646561,0.479704,-0.9203680000000001,-29.0675,152.88,36.4175
1061,292784,0.54656,0.430904,-0.9333,-29.715,166.775,52.9025
1062,292882,0.6634359999999999,0.557052,-1.0206520000000001,-32.9525,188.5625,67.27
1063,292980,0.769332,0.43773599999999996,-0.9396440999999999,-26.0925,221.095,81.795
1064,293078,0.8413120000000001,0.718092,-1.1155680000000001,-31.395,251.755,99.75
1065,293176,1.005768,0.576572,-1.393972,-40.285,304.955,111.02
1066,293274,0.783728,0.359412,-2.150128,-53.6375,370.4225,108.5875
1067,293373,0.826428,0.690032,-1.342976,-107.7475,398.6325,96.18
1068,293471,0.8049561,0.612196,-1.796328,-126.35,430.745,112.0
1069,293569,0.9557479999999999,1.20048,-1.6433400000000002,-110.0925,444.57,118.3175
1070,293667,1.1716879999999998,1.148996,-1.7970599999999999,-76.895,487.7075,86.31
1071,293765,1.299788,1.1714440000000002,-1.94102,-67.6025,525.6649,74.655
1072,293863,1.615524,1.295152,-2.614216,-33.2675,484.6275,121.9225
1073,293961,1.7226400000000002,0.8762040000000001,-2.108892,64.7675,368.9175,204.9425
1074,294060,2.699616,1.62504,-4.338076,2.87,309.995,170.2575
1075,294158,1.535736,1.569408,-4.024292,5.32,126.8925,110.3725
1076,294256,0.422364,1.353224,-2.925072,-12.6,-13.3,50.0675
1077,294354,-0.213988,1.065792,-2.038864,-6.5275,-92.085,12.915
1078,294452,-0.43798000000000004,0.8105680000000001,-1.532076,10.15,-125.825,-0.7875
1079,294550,-0.43773599999999996,0.61122,-1.267092,25.27,-140.595,-5.3025
1080,294648,-0.35282399999999997,0.484096,-1.1448479999999999,32.865,-151.3575,-10.43
1081,294746,-0.19397999999999999,0.42724399999999996,-1.110688,32.4275,-163.9575,-19.0575
1082,294845,-0.026595999999999998,0.417484,-1.113372,28.945,-180.81,-29.505
1083,294943,0.127856,0.438224,-1.11752,27.23,-201.775,-39.7775
1084,295041,0.28767600000000004,0.45018,-1.121668,29.8025,-224.8225,-48.3525
1085,295139,0.426512,0.438468,-1.0858,35.6475,-249.2525,-55.86
1086,295237,0.5165481,0.411872,-1.0145520000000001,42.5425,-273.91,-63.1575
1087,295335,0.6039,0.370392,-0.94306,48.0725,-296.24,-69.66751
1088,295433,0.6980841,0.345992,-0.90402,50.645,-314.6675,-75.4425
1089,295532,0.7944641,0.337696,-0.8913321,51.555,-330.0325,-80.0275
1090,295630,0.915732,0.354532,-0.915732,52.2725,-343.2275,-83.73751
1091,295728,1.006744,0.363804,-0.93696,54.6525,-356.72,-85.97751
1092,295826,1.097024,0.35160399999999997,-0.984296,56.84,-369.6,-86.32751
1093,295924,1.203652,0.35868,-1.055788,56.245,-380.6425,-85.9425
1094,296022,1.286612,0.369904,-1.1263040000000002,51.9575,-391.5275,-85.82
1095,296120,1.330776,0.381372,-1.158268,44.485,-400.9075,-86.6075
1096,296218,1.346148,0.343308,-1.1028799999999999,33.3725,-405.3,-88.30501
1097,296317,1.431548,0.333304,-1.1155680000000001,16.5375,-401.3625,-90.44001
1098,296415,1.553304,0.324276,-1.220244,-2.1525,-390.145,-90.3875
1099,296513,1.7714400000000001,0.462624,-1.476932,-22.365,-375.235,-84.28
1100,296611,2.153788,0.7068681,-1.7936439999999998,-40.985,-359.8875,-74.27
1101,296709,2.674728,1.044076,-1.992504,-52.885,-352.205,-67.1475
1102,296807,3.042192,1.330776,-1.7873,-52.465,-356.44,-65.835
1103,296905,3.327428,0.870592,-1.1958440000000001,-41.86,-364.9625,-74.2875
1104,297003,3.21104,0.9315921,-0.70394,-49.0175,-370.4225,-92.19001
1105,297102,2.91214,0.8193521,-0.100284,-43.8025,-357.4725,-101.185
1106,297200,2.7608599999999996,0.6980841,0.339648,-23.8525,-324.6775,-110.53
1107,297298,2.708888,0.563884,0.74542,4.095,-282.485,-115.29
1108,297396,2.769156,0.37942,1.125084,29.5925,-239.5575,-114.065
1109,297494,3.046584,-0.050263999999999996,1.51158,38.85,-196.735,-108.15
1110,297592,3.1234439999999997,-0.44383599999999995,2.120116,17.6925,-154.805,-100.345
1111,297690,2.4817240000000003,-0.3538,2.364116,-34.1075,-109.6025,-87.64
1112,297789,1.971032,0.116876,1.945168,-66.08,-35.9625,-72.0125
1113,297887,1.865868,0.5914560000000001,1.109224,-50.3825,45.465,-57.82
1114,297985,0.274988,1.945168,1.7550919999999999,-3.08,123.9,-64.995
1115,298083,-2.252364,-2.626172,3.2278759999999997,189.8925,287.7175,-59.9025
1116,298181,0.488976,-0.57828,-0.9777081,-35.455,468.5625,-44.7475
1117,298279,5.77182,-0.894748,-1.419836,-43.7675,547.0325,-116.27
1118,298378,3.024624,-2.051308,-2.465864,-77.5075,393.96,-122.7275
1119,298476,3.103924,-2.181848,-2.37412,-84.08751,313.11,-12.775
1120,298574,2.7837959999999997,-0.152988,-2.169892,-114.8175,307.9825,63.245
1121,298672,2.1408560000000003,1.5845360000000002,-1.85684,-125.615,227.2725,82.14499
1122,298770,1.9215,4.582808,-3.3245,-104.23,175.0175,70.805
1123,298868,2.0051919999999996,2.8286919999999998,-0.643428,13.2125,141.4175,-10.6575
1124,298966,1.345904,-0.090768,-1.8304880000000001,133.9625,95.305,54.1975
1125,299064,0.8740081000000001,-0.055388,-0.758108,128.975,60.7425,69.23
1126,299163,1.38714,-0.40748,-1.6460240000000002,62.755,38.465,41.44
1127,299261,0.26913200000000004,0.643184,-1.067988,39.0075,-5.8275,26.3375
1128,299359,0.5546121,0.319884,-0.9918600000000001,24.955,3.92,18.4975
1129,299457,0.406992,0.06270801,-0.758596,24.535,0.42,19.355
1130,299555,0.633668,0.24082800000000001,-0.856196,12.705,3.8325,10.64
1131,299653,0.407236,0.327692,-0.87108,3.71,3.22,2.555
1132,299751,0.4758,0.349652,-0.887916,7.525,5.6,3.6225
1133,299850,0.540704,0.37502800000000003,-0.85888,8.1725,5.705,4.2
1134,299948,0.4453,0.35477600000000004,-0.838628,10.1675,1.8025,5.355
1135,300046,0.508984,0.21447600000000003,-0.849608,12.9675,1.6975,5.8975
1136,300144,0.49141599999999996,0.335256,-0.8552200000000001,7.98,2.66,2.1175
1137,300242,0.472384,0.319152,-0.8527800999999999,7.6475,2.3275,1.645
1138,300340,0.48165600000000003,0.293532,-0.829356,8.6975,1.33,2.415
1139,300438,0.47043199999999996,0.291092,-0.834724,7.175,1.2425,1.085
1140,300536,0.4697,0.331352,-0.8413120000000001,6.0025,1.085,0.595
1141,300635,0.47360399999999997,0.339892,-0.8210601000000001,6.335,-0.175,0.945
1142,300733,0.47555600000000003,0.28792,-0.814472,7.7175,-1.6975,1.82
1143,300831,0.46164799999999995,0.25498000000000004,-0.8315520000000001,6.58,-2.7825,1.33
1144,300929,0.45871999999999996,0.23887600000000003,-0.836676,3.9025,-2.275,0.28
1145,301027,0.46042799999999995,0.266936,-0.8398479999999999,0.5775,-0.8225,-0.805
1146,301125,0.46921199999999996,0.26718000000000003,-0.828868,-1.435,0.5425,-1.4875
1147,301223,0.45896400000000004,0.26474000000000003,-0.8193521,-2.73,0.875,-2.03
1148,301322,0.46457600000000004,0.283528,-0.8235001000000001,-4.305,0.6125,-3.01
1149,301420,0.46481999999999996,0.291092,-0.8249639999999999,-5.4775,-0.21,-2.835
1150,301518,0.461892,0.305976,-0.81618,-6.4925,-1.3125,-2.4675
1151,301616,0.4636,0.29426399999999997,-0.813496,-7.175,-2.2225,-2.17
1152,301714,0.4594521,0.29743600000000003,-0.8081281,-8.365,-2.6425,-0.9625
1153,301812,0.458232,0.299632,-0.815204,-10.2375,-2.52,0.315
1154,301910,0.446032,0.288164,-0.81984,-12.0225,-1.8725,1.9425
1155,302008,0.448716,0.223748,-0.7956840999999999,-15.2775,-0.1225,3.36
1156,302107,0.46164799999999995,0.350628,-0.8725440999999999,-22.575,2.24,5.705
1157,302205,0.43066000000000004,0.222284,-0.820572,-21.035,4.55,2.905
1158,302303,0.376248,0.24912399999999998,-0.8547319999999999,-28.7875,10.0275,-2.4675
1159,302401,0.3599,0.23668000000000003,-0.8432639999999999,-32.8825,19.39,-8.33
1160,302499,0.3538,0.297192,-0.8579041,-39.1125,32.3225,-12.495
1161,302597,0.36209600000000003,0.28621199999999997,-0.8518040000000001,-42.6475,46.62,-12.775
1162,302695,0.37502800000000003,0.332328,-0.8332601000000001,-46.6025,61.635,-10.7975
1163,302794,0.40577199999999997,0.379176,-0.8525360000000001,-50.4,76.5975,-9.205
1164,302892,0.418216,0.36722,-0.8291120999999999,-50.505,89.65250999999999,-5.3725
1165,302990,0.43773599999999996,0.373564,-0.8652241,-53.375,102.4975,-1.5925
1166,303088,0.441396,0.32696,-0.8188641,-55.0375,115.8325,1.2075
1167,303186,0.47994799999999993,0.307196,-0.79666,-61.8275,134.2775,-0.6475
1168,303284,0.331108,0.428464,-0.8964561,-75.915,154.245,3.2375
1169,303382,0.5443640000000001,0.638792,-1.172908,-71.5225,169.6625,6.3
1170,303480,0.395768,0.506544,-1.112396,-33.0575,160.685,36.085
1171,303579,0.42065600000000003,0.5724239999999999,-1.198528,-35.1925,198.8175,56.105
1172,303677,0.6463561,0.763476,-1.343952,-33.95,238.6475,77.14
1173,303775,0.7705521,0.6985720999999999,-1.425936,-13.4225,292.705,99.9075
1174,303873,0.9330560999999999,0.8727879999999999,-1.987136,-26.39,347.3225,104.1425
1175,303971,1.0340719999999999,0.66856,-1.5647719999999998,-30.1875,403.7425,102.7775
1176,304069,0.71858,0.58804,-1.642852,-23.7825,446.8625,107.6425
1177,304167,0.819108,1.131428,-1.8785560000000001,-37.17,476.245,72.415
1178,304266,0.8447280999999999,1.233176,-1.7328880000000002,-25.2,500.7625,41.685
1179,304364,0.9398880999999999,1.56282,-2.266028,27.8775,513.4325,66.185
1180,304462,0.326716,1.152656,-1.249036,164.6225,442.2425,135.6775
1181,304560,1.9427279999999998,0.5631520000000001,-3.23422,204.0325,408.6075,136.22
1182,304658,2.1533,0.673196,-3.9349879999999997,187.1625,292.1275,70.665
1183,304756,1.053104,0.4087,-3.311568,180.285,102.83,45.7975
1184,304855,0.09247601,0.27718400000000004,-2.129876,149.2925,-14.6825,21.0
1185,304953,-0.44164,0.308172,-1.328824,133.8575,-70.77,26.4075
1186,305051,-0.53314,0.478728,-1.017724,141.085,-83.23001,54.2675
1187,305149,-0.411872,0.7117479999999999,-0.9943001,163.695,-81.46251,88.04251
1188,305247,-0.20008,0.937448,-1.092876,190.715,-83.9825,113.8025
1189,305345,0.053436000000000004,1.131428,-1.216828,214.0425,-98.14,126.5775
1190,305443,0.266692,1.303448,-1.3237,229.775,-125.3525,125.8775
1191,305542,0.43188000000000004,1.4459440000000001,-1.342976,237.2125,-161.6475,113.645
1192,305640,0.546804,1.605032,-1.299788,237.8425,-202.4925,93.6075
1193,305738,0.565104,1.777784,-1.168028,236.8975,-243.4775,69.195
1194,305836,0.518012,1.9114959999999999,-0.9564799999999999,240.5375,-277.7425,42.21
1195,305934,0.466528,2.01788,-0.748836,249.4275,-300.4225,13.44
1196,306032,0.496296,2.063996,-0.6036560999999999,261.7475,-312.3575,-15.6975
1197,306130,0.565104,2.010316,-0.51972,272.335,-318.255,-44.4325
1198,306229,0.65514,1.917352,-0.46481999999999996,272.4575,-322.07,-74.5675
1199,306327,0.6919841,1.913448,-0.42578,258.0725,-325.85,-107.1
1200,306425,0.687348,1.94712,-0.383324,239.3125,-326.305,-137.865
1201,306523,0.6993041,1.998116,-0.396744,222.8975,-321.23,-164.115
1202,306621,0.794708,2.0252,-0.505568,209.58,-311.3075,-185.2375
1203,306719,0.9699,1.9890880000000002,-0.71004,196.42,-301.7525,-202.09
1204,306817,1.170468,1.931504,-0.9725841000000001,176.785,-297.6575,-216.02
1205,306915,1.3322399999999999,1.914668,-1.21024,149.87,-299.915,-227.955
1206,307014,1.426424,1.86904,-1.3388280000000001,120.5575,-304.71,-239.89
1207,307112,1.606496,1.8646479999999999,-1.4435040000000001,88.655,-306.1275,-254.0125
1208,307210,1.8839240000000002,1.9900639999999998,-1.567944,59.3425,-303.8875,-268.555
1209,307308,2.179896,2.254804,-1.6169879999999999,45.3425,-301.7175,-279.8075
1210,307406,2.484652,2.506368,-1.471808,54.88,-300.3175,-284.0075
1211,307504,2.661064,2.663016,-1.030656,83.1075,-298.795,-280.175
1212,307602,2.590548,2.608604,-0.43188000000000004,109.7425,-293.0025,-271.1975
1213,307701,2.453664,2.409744,0.087352,112.3325,-274.6975,-268.4675
1214,307799,2.358504,2.154032,0.42138809999999993,78.7325,-245.175,-278.81
1215,307897,2.3138520000000002,2.053992,0.553148,16.625,-211.0325,-298.9175
1216,307995,2.248704,2.054724,0.6141479999999999,-43.575,-176.33,-320.88
1217,308093,2.513688,0.8108121,0.731024,-74.9525,-137.865,-340.795
1218,308191,2.513932,0.8823040000000001,0.9147559999999999,-121.59,-105.5775,-370.7025
1219,308289,2.6993720000000003,1.4156879999999998,1.109712,-131.0225,-70.35,-375.3575
1220,308388,2.833084,0.7617681,1.3651799999999998,-43.365,-11.305,-335.93
1221,308486,2.765984,-0.117852,1.50426,28.1925,36.33,-278.81
1222,308584,2.4395119999999997,-0.271328,1.387872,17.4125,67.2525,-228.9525
1223,308682,1.860988,0.776896,1.300764,-28.6475,91.42,-182.6125
1224,308780,-0.5002,-0.435784,3.012912,12.215,177.625,-181.1775
1225,308878,1.2373239999999999,-0.8066641,-3.218848,11.935,344.6625,-204.8025
1226,308976,2.6583799999999997,-0.9018241,-1.505236,-135.9925,327.81,-301.8925
1227,309075,2.989,-1.605764,-1.33712,-134.68,299.25,-267.3125
1228,309173,2.767692,-2.4988040000000002,-2.899452,-132.055,238.945,-158.13
1229,309271,2.645936,-2.1703799999999998,-2.627636,-132.1425,179.62,-42.805
1230,309369,2.00568,0.139324,-1.915644,-163.6775,111.02,29.505
1231,309467,0.689056,1.81292,-0.92232,-178.815,50.6625,24.5
1232,309565,-0.315736,1.4010479999999998,-0.243756,-147.6125,36.995,6.86
1233,309663,0.771772,2.501732,-1.926868,-121.66,68.0225,3.815
1234,309762,1.3856760000000001,1.7985240000000002,-0.624884,-59.0625,66.60501,-27.265
1235,309860,0.267912,0.5309441,-1.303448,-0.7175,20.895,-17.1675
1236,309958,0.16348,0.9725841000000001,-0.49117200000000005,9.205,24.7975,8.365
1237,310056,0.5892601,0.984296,-0.9598959999999999,25.935,36.1375,19.8275
1238,310154,0.381616,0.503372,-0.8664440000000001,61.6,30.905,36.54
1239,310252,0.351116,0.571448,-0.694912,70.77,29.82,46.795
1240,310350,0.468236,0.44773999999999997,-0.8488761,81.025,34.7025,50.68
1241,310449,0.809836,0.139568,-1.1387479999999999,86.4325,34.475,52.045
1242,310547,0.555588,0.09272000000000001,-0.9530641,74.76,19.215,45.7625
1243,310645,0.5897479999999999,0.128588,-1.0206520000000001,56.4375,13.8425,34.79
1244,310743,0.576084,0.134932,-0.919392,40.4425,11.4975,25.235
1245,310841,0.5219159999999999,0.156892,-0.8954801,27.5975,7.49,16.0125
1246,310939,0.52094,0.240096,-0.8823040000000001,18.445,6.1075,9.0475
1247,311037,0.5119121,0.234972,-0.8813280000000001,13.37,4.2875,4.9175
1248,311135,0.5121560000000001,0.23424,-0.8664440000000001,8.645,2.345,1.645
1249,311234,0.4758,0.24351199999999998,-0.856196,4.1475,0.2625,-1.5925
1250,311332,0.489708,0.259372,-0.8662001,0.2625,-0.7875,-4.06
1251,311430,0.48531599999999997,0.254492,-0.864492,-2.765,-1.365,-5.985
1252,311528,0.46603999999999995,0.25986,-0.8491200000000001,-5.7575,-2.24,-8.1025
1253,311626,0.46164799999999995,0.27571999999999997,-0.854244,-8.715,-2.5725,-9.8875
1254,311724,0.483364,0.263764,-0.8532681000000001,-11.2175,-2.905,-11.2875
1255,311823,0.4331,0.276696,-0.8249639999999999,-14.1925,-3.8675,-13.1425
1256,311921,0.434808,0.287432,-0.8398479999999999,-16.4675,-3.605,-14.35
1257,312019,0.426512,0.290604,-0.814472,-17.99,-3.01,-14.91
1258,312117,0.404308,0.30109600000000003,-0.8003201,-18.8125,-3.01,-15.225
1259,312215,0.42944,0.335988,-0.8108121,-19.215,-2.0825,-15.5575
1260,312313,0.422608,0.353068,-0.8142281,-18.095,-1.645,-15.4175
1261,312411,0.425292,0.36966,-0.803492,-15.47,-1.155,-14.3675
1262,312510,0.40626,0.40016,-0.812276,-12.18,-0.28,-12.425
1263,312608,0.396988,0.433832,-0.8010520000000001,-7.4725,0.735,-9.345
1264,312706,0.42456000000000005,0.38918,-0.801296,-1.5925,2.1175,-5.565
1265,312804,0.44944799999999996,0.313052,-0.815204,2.24,3.3425,-3.01
1266,312902,0.441884,0.29987600000000003,-0.8479,1.715,4.06,-2.7125
1267,313000,0.429684,0.28987199999999996,-0.8342360000000001,-0.175,5.4775,-3.6925
1268,313098,0.413336,0.25351599999999996,-0.829356,-2.87,7.4375,-5.215
1269,313197,0.41284799999999994,0.26303200000000004,-0.8176439999999999,-7.0525,10.9025,-7.245
1270,313295,0.396988,0.28181999999999996,-0.805932,-10.465,14.0525,-9.31
1271,313393,0.384544,0.31158800000000003,-0.8030041,-12.6875,18.3225,-11.0775
1272,313491,0.350628,0.400404,-0.77836,-13.055,23.38,-11.375
1273,313589,0.36234,0.387716,-0.7883640000000001,-8.9775,30.31,-10.85
1274,313687,0.36282800000000004,0.475312,-0.8115439999999999,-4.0775,38.255,-9.1875
1275,313785,0.346968,0.62464,-0.79422,3.9025,46.9175,-7.21
1276,313883,0.381128,0.659776,-0.7951961,18.0425,61.355,-12.2325
1277,313982,0.492392,-0.29036,-0.966728,35.8925,70.35,-20.2825
1278,314080,0.384788,0.42578,-1.0260200000000002,0.8575,70.1925,-9.03
1279,314178,0.47946000000000005,0.34477199999999997,-0.907436,-3.185,83.1075,-0.525
1280,314276,0.41846000000000005,0.418704,-0.8352120000000001,-2.9925,92.54001,-1.6625
1281,314374,0.48068,0.360388,-0.876692,1.855,104.4925,-3.395
1282,314472,0.504592,0.342088,-0.8801081000000001,0.56,114.2925,0.91
1283,314570,0.45432799999999995,0.438712,-0.8315520000000001,-4.8475,123.41,8.6975
1284,314669,0.614636,0.5282600000000001,-0.969412,-6.79,139.16,17.4825
1285,314767,0.573156,0.47604399999999997,-0.898164,7.0525,137.9875,36.0675
1286,314865,0.6514800000000001,0.428464,-0.8510719999999999,14.91,150.99,51.415
1287,314963,0.550708,0.579256,-1.1651,13.615,163.45,64.3125
1288,315061,0.702232,0.563396,-0.9999121,18.2875,185.9725,81.95251
1289,315159,0.7705521,0.653676,-1.230736,29.9775,211.1375,100.17
1290,315257,0.774456,0.9203680000000001,-1.342976,43.7325,239.295,113.7675
1291,315356,1.125816,0.9054840000000001,-1.25416,78.9775,271.4425,134.3825
1292,315454,1.229516,1.214388,-1.598444,109.1125,289.5025,155.89
1293,315552,0.8549761,1.191452,-1.6152799999999998,171.5875,293.125,166.67
1294,315650,0.8054439999999999,1.309792,-1.43472,212.7475,305.165,146.055
1295,315748,0.759328,1.489132,-1.44692,238.7525,316.3825,170.0125
1296,315846,0.6895439999999999,1.4696120000000001,-1.511824,305.3925,309.8025,212.4675
1297,315944,0.750788,1.782664,-1.700924,383.775,280.805,213.7975
1298,316043,1.7943759999999997,2.50588,-2.86822,396.795,243.845,117.6
1299,316141,0.9850280999999999,1.9373599999999997,-2.655452,352.555,136.29,-28.455
1300,316239,0.13639600000000002,1.641632,-1.8724560000000001,293.7025,26.425,-136.6225
1301,316337,-0.48922,1.250988,-1.056764,266.0525,-29.8375,-196.35
1302,316435,-0.748592,0.686372,-0.6075600999999999,271.6175,-37.1175,-209.475
1303,316533,-0.714432,0.242292,-0.562664,273.5075,-25.0425,-199.185
1304,316631,-0.5131319999999999,0.008784,-0.780312,254.345,-18.8125,-182.7875
1305,316729,-0.282552,-0.061488,-1.0499319999999999,221.235,-29.1025,-166.355
1306,316828,-0.11712,0.047824,-1.24806,183.54,-54.67,-149.415
1307,316926,-0.002928,0.247416,-1.3419999999999999,154.8925,-88.8825,-130.7425
1308,317024,0.07442,0.430904,-1.350052,140.7875,-125.4925,-111.825
1309,317122,0.16811600000000002,0.553148,-1.292468,136.675,-160.8075,-95.585
1310,317220,0.237656,0.625616,-1.181692,134.8725,-193.7075,-84.5425
1311,317318,0.296704,0.6695361,-1.075552,130.4625,-223.09,-78.9075
1312,317416,0.389424,0.720288,-0.9962521000000001,122.6575,-247.2925,-76.93
1313,317514,0.506544,0.7734800000000001,-0.9633120999999999,112.84,-267.12,-77.35
1314,317613,0.6109760000000001,0.8274040000000001,-0.930616,103.6875,-283.64,-79.45
1315,317711,0.681248,0.8527800999999999,-0.8910879999999999,96.1275,-297.115,-81.91751
1316,317809,0.7315119999999999,0.858392,-0.8586360000000001,88.18251,-305.6725,-84.315
1317,317907,0.788852,0.845216,-0.8481440999999998,77.315,-309.505,-87.36
1318,318005,0.8815719999999999,0.8344801,-0.9025559999999999,62.8425,-310.0125,-91.595
1319,318103,1.016504,0.856684,-1.007232,45.3425,-309.82,-96.1625
1320,318201,1.110688,0.9167081,-1.0972680000000001,27.545,-310.3975,-99.925
1321,318300,1.17608,1.001132,-1.153632,11.235,-308.6475,-102.34
1322,318398,1.27734,1.1568040000000002,-1.1770559999999999,-3.6925,-302.05,-106.26
1323,318496,1.541104,1.352004,-1.221708,-16.9575,-289.835,-115.535
1324,318594,1.946388,1.594784,-1.2465959999999998,-28.6825,-276.745,-134.085
1325,318692,2.268468,1.796816,-1.040416,-33.1275,-266.14,-161.9975
1326,318790,2.499048,1.7453319999999999,-0.6317159999999999,-26.845,-252.14,-193.0775
1327,318888,2.684732,1.124596,-0.227652,-17.15,-230.86,-221.4975
1328,318986,2.9548400000000004,0.279868,0.070516,-27.9825,-204.5575,-252.385
1329,319085,2.927756,0.144204,0.139568,-73.4825,-187.8625,-264.7575
1330,319183,2.83284,0.243756,0.328912,-73.7625,-163.5725,-248.92
1331,319281,2.698152,0.334768,0.56852,-29.575,-135.38,-209.3
1332,319379,2.682048,0.121024,0.8113001,33.7225,-105.2275,-154.0525
1333,319477,2.6937599999999997,-0.25058800000000003,1.026752,68.72251,-79.1525,-98.61251
1334,319575,2.434388,-0.39967199999999997,1.2014559999999999,46.5325,-63.56,-54.775
1335,319673,1.9720080000000002,0.131272,1.74948,-10.7975,-46.06,-26.11
1336,319771,0.942084,1.150216,4.12116,-26.7925,51.0475,-29.47
1337,319870,0.390644,-0.5038600000000001,2.90116,34.8775,234.08,-38.955
1338,319968,1.200724,-0.150304,-4.26146,-48.3525,298.97,-64.61
1339,320066,1.93248,-0.9286639999999999,-0.93696,-70.49,302.9425,-129.4475
1340,320164,2.573712,-1.248304,-1.7575319999999999,-79.6075,283.115,-80.465
1341,320262,2.4490279999999998,-0.73078,-2.89262,-84.6825,230.4575,-8.8025
1342,320360,2.155252,0.321836,-1.7043400000000002,-79.7125,166.81,22.925
1343,320458,1.392264,1.49206,-1.7219080000000002,-83.685,113.6625,37.73
1344,320556,0.677344,1.3327280000000001,-0.8906,-60.9875,83.58001,17.9025
1345,320655,0.80886,1.780468,-1.666032,-43.0325,75.7575,0.5775
1346,320753,1.295884,1.1631479999999998,-0.8581479999999999,15.1025,63.1925,0.2625
1347,320851,0.356484,0.404064,-0.8671761,54.53,25.9175,15.225
1348,320949,0.259372,0.5917,-0.6070720000000001,63.8225,26.32,28.7
1349,321047,0.652944,0.6895439999999999,-0.983564,70.0875,35.175,33.25
1350,321145,0.628788,0.11541199999999999,-0.964044,87.9375,31.2025,38.5875
1351,321243,0.6539201,0.082472,-0.999668,79.17,23.275,35.9275
1352,321341,0.9272,-0.19276,-1.36396,60.1825,15.3825,26.845
1353,321440,0.396256,0.11541199999999999,-0.734196,30.38,-2.5375,14.595
1354,321538,0.466772,0.24082800000000001,-0.88328,13.125,-3.9375,6.125
1355,321636,0.521672,0.160064,-0.8810841,12.32,-0.035,2.94
1356,321734,0.420412,0.215696,-0.8486319999999999,3.4825,-0.315,-1.9075
1357,321832,0.412116,0.313784,-0.8410681000000001,-3.1675,2.1875,-4.8825
1358,321930,0.4331,0.291092,-0.820084,-4.865,4.9175,-4.97
1359,322028,0.4404201,0.24326799999999998,-0.8235001000000001,-5.8625,6.545,-5.39
1360,322127,0.43798000000000004,0.263276,-0.8364321,-9.2925,8.33,-7.105
1361,322225,0.459696,0.2867,-0.8459479999999999,-12.5825,10.535,-8.995
1362,322323,0.46116,0.29524,-0.8466800999999999,-14.5425,11.4625,-10.0625
1363,322421,0.47092,0.34257600000000005,-0.8461921,-16.5025,11.1475,-10.0975
1364,322519,0.47653199999999996,0.36722,-0.8271601000000001,-16.59,10.7275,-8.8725
1365,322617,0.492392,0.336964,-0.8327720999999999,-14.9975,9.8175,-7.7175
1366,322715,0.48068,0.29743600000000003,-0.8291120999999999,-14.455,9.0475,-7.5775
1367,322814,0.46603999999999995,0.273768,-0.8298440999999999,-15.3825,9.5725,-8.4525
1368,322912,0.4594521,0.3355,-0.817156,-17.745,10.6925,-10.0625
1369,323010,0.474092,0.340624,-0.818376,-17.6575,12.215,-10.22
1370,323108,0.457012,0.35233600000000004,-0.8071520000000001,-15.9075,12.25,-8.9425
1371,323206,0.4819,0.349896,-0.80642,-14.14,12.6,-7.77
1372,323304,0.46921199999999996,0.343308,-0.7978801,-12.425,12.1975,-6.755
1373,323402,0.479704,0.337208,-0.8039801,-11.9875,11.9875,-5.915
1374,323501,0.476288,0.30548800000000004,-0.805688,-12.4775,12.88,-5.5825
1375,323599,0.472628,0.31842,-0.8025161,-14.14,14.3325,-5.705
1376,323697,0.467992,0.318176,-0.8091041,-16.2925,16.8175,-6.16
1377,323795,0.45628,0.313052,-0.793976,-17.5,18.9,-6.5625
1378,323893,0.45335200000000003,0.347456,-0.7954399999999999,-19.2675,22.505,-6.2125
1379,323991,0.47653199999999996,0.354044,-0.795928,-19.775,26.67,-5.3725
1380,324089,0.513864,0.3599,-0.764452,-19.3375,30.7825,-4.305
1381,324188,0.432856,0.33794,-0.862784,-19.6525,35.56,-3.4475
1382,324286,0.379176,0.37551599999999996,-0.806908,-20.195,37.45,0.665
1383,324384,0.43236800000000003,0.5070319999999999,-0.80276,-24.15,46.06,6.0375
1384,324482,0.47677600000000003,0.341844,-0.809348,-18.025,55.6325,11.6025
1385,324580,0.522892,0.413092,-0.9091440000000001,-21.8225,62.615,14.9975
1386,324678,0.471408,0.366976,-0.7822640000000001,-15.8025,63.2625,21.0175
1387,324776,0.477996,0.37112399999999995,-0.7937320999999999,-15.8375,67.62001,26.32
1388,324874,0.5038600000000001,0.32256799999999997,-0.8364321,-15.4,76.3875,27.8775
1389,324973,0.504836,0.341844,-0.8376520000000001,-17.605,87.74501,28.4725
1390,325071,0.510692,0.30744,-0.8281360999999999,-18.1125,100.275,28.945
1391,325169,0.5736441,0.272548,-0.8400921,-19.9675,112.9275,27.6675
1392,325267,0.628788,0.349896,-0.8127641,-23.135,123.6025,26.46
1393,325365,0.662704,0.370636,-0.846924,-23.5025,134.155,26.075
1394,325463,0.58194,0.44822799999999996,-0.8632719999999999,-22.3475,145.635,30.555
1395,325561,0.654652,0.467504,-0.8405800999999999,-24.325,161.3325,40.215
1396,325660,0.748592,0.538752,-0.8220360000000001,-30.275,181.2475,52.1675
1397,325758,0.7571321,0.6392800000000001,-0.9333,-39.5675,210.7175,62.0025
1398,325856,0.8874280999999999,0.527772,-0.9269561,-41.1075,260.6275,67.585
1399,325954,0.7883640000000001,0.555588,-1.087508,-53.9,302.9425,72.6775
1400,326052,0.9450120000000001,0.721508,-1.424716,-74.04251,331.6075,80.815
1401,326150,1.0079639999999999,0.6161,-1.532564,-61.04,352.94,97.16001
1402,326248,0.683932,0.8371639999999999,-1.511824,-54.25,379.295,111.7375
1403,326347,0.788852,0.567056,-1.350784,-41.86,411.32,127.4525
1404,326445,0.8276481,0.662704,-1.814872,-26.285,439.32,131.5125
1405,326543,0.9989360999999999,1.4339879999999998,-1.44692,-3.2025,449.9775,113.8375
1406,326641,1.2763639999999998,1.041148,-1.77876,-0.2975,501.1125,33.6
1407,326739,1.6975080000000002,1.525488,-3.243492,-14.7875,507.22,48.3
1408,326837,1.367132,0.490928,-1.381772,91.455,375.0075,141.9775
1409,326935,2.9872919999999996,1.5845360000000002,-5.4041120000000005,53.5675,328.755,170.0125
1410,327033,2.003972,1.424228,-4.369796,31.29,147.5775,86.835
1411,327132,0.654652,1.259772,-3.157116,10.4475,-24.0275,36.47
1412,327230,-0.064416,0.956968,-2.194292,17.4475,-109.41,7.385
1413,327328,-0.21106,0.662948,-1.7036080000000002,35.9975,-140.4025,8.26
1414,327426,-0.12395199999999999,0.447496,-1.504748,45.43,-156.065,14.2975
1415,327524,0.028548,0.35502,-1.44692,39.62,-175.1225,14.77
1416,327622,0.187148,0.329888,-1.437648,23.8875,-200.83,8.47
1417,327720,0.346236,0.365268,-1.423252,6.055,-231.5425,-2.03
1418,327819,0.46164799999999995,0.42700000000000005,-1.377868,-5.6875,-265.2825,-13.5975
1419,327917,0.5355800999999999,0.46628400000000003,-1.2900280000000002,-6.79,-297.7625,-24.8325
1420,328015,0.6009720000000001,0.45164399999999993,-1.1709559999999999,0.3675,-325.4825,-35.14
1421,328113,0.6392800000000001,0.406016,-1.029436,10.64,-346.955,-45.6575
1422,328211,0.654896,0.328424,-0.891576,20.02,-361.7425,-56.6125
1423,328309,0.7046720999999999,0.274256,-0.820572,26.2675,-370.3,-67.48001
1424,328407,0.768356,0.22496799999999997,-0.798124,31.185,-375.2175,-77.63
1425,328506,0.8520479999999999,0.206668,-0.8310639999999999,34.93,-377.615,-86.415
1426,328604,0.9474520000000001,0.206668,-0.9269561,38.57,-379.2775,-93.275
1427,328702,1.074088,0.21228000000000002,-1.071404,42.525,-381.255,-97.23001
1428,328800,1.2700200000000001,0.233508,-1.249036,45.64,-385.4725,-98.945
1429,328898,1.432768,0.242536,-1.369328,47.39,-394.4325,-99.64499
1430,328996,1.522316,0.233996,-1.432524,46.235,-405.405,-99.1375
1431,329094,1.58844,0.23911999999999997,-1.47864,40.145,-413.245,-96.63501
1432,329192,1.7563119999999999,0.373808,-1.620892,28.7175,-414.3825,-92.225
1433,329291,1.9717639999999999,0.49580799999999997,-1.7446,17.9025,-411.46,-85.05
1434,329389,2.27042,0.586576,-1.867332,5.705,-408.1,-78.6975
1435,329487,2.679852,0.46164799999999995,-1.8224360000000002,-11.725,-405.1425,-75.53
1436,329585,3.224948,0.59048,-1.719712,-37.345,-406.8925,-81.60251
1437,329683,3.4626040000000002,0.84424,-1.4032440000000002,-55.685,-415.6425,-80.1675
1438,329781,3.4096559999999996,1.0321200000000001,-0.7285841,-39.445,-414.505,-74.725
1439,329879,3.283264,0.9486720999999999,0.059048,-4.4975,-392.8925,-70.3675
1440,329978,3.24764,0.54778,0.964776,29.4,-350.21,-68.635
1441,330076,3.267404,0.0051240009999999996,1.9300400000000002,34.8075,-295.9075,-70.0
1442,330174,3.342068,-0.132248,2.592988,1.96,-230.965,-74.585
1443,330272,3.512868,0.02074,2.696444,-34.5275,-155.925,-78.435
1444,330370,3.522872,0.057584,2.4912400000000003,-38.325,-74.7075,-72.6075
1445,330468,3.115148,0.232044,1.960784,-22.47,2.6775,-57.6625
1446,330566,2.639836,0.11760799999999999,2.576396,10.0275,80.6225,-40.81
1447,330664,-2.095716,-1.181936,3.5589839999999997,58.03,222.6875,-18.2175
1448,330763,-1.01016,-0.154696,-3.005836,-53.7775,383.18,37.1525
1449,330861,3.666588,-0.494832,-0.07832401,-19.0575,486.4825,32.935
1450,330959,3.9201040000000003,-0.5441199999999999,-2.23504,-69.37,436.205,8.085
1451,331057,2.483188,-1.009916,-2.2140560000000002,-76.4925,299.7925,15.505
1452,331155,2.733044,0.3721,-2.2021,-91.35,293.9825,40.67
1453,331253,2.5817639999999997,1.9954319999999999,-2.3424,-82.14499,230.65,67.3925
1454,331351,1.63114,1.880508,-1.614792,-42.805,169.9775,42.8575
1455,331450,1.047004,0.9201241,-1.304668,2.0825,134.785,33.5475
1456,331548,0.56242,0.38795999999999997,-0.917684,25.0775,117.7925,33.3725
1457,331646,1.1477760000000001,1.056276,-1.186572,35.1225,108.955,40.915
1458,331744,1.771196,1.1192280000000001,-1.488156,65.135,85.4525,38.78
1459,331842,0.74298,-0.083936,-1.078724,99.31251,47.9325,41.93
1460,331940,0.734684,0.022203999999999998,-1.072136,78.05,34.615,38.1675
1461,332038,1.093608,-0.11736400000000001,-1.351272,46.34,22.5925,24.2025
1462,332136,0.282064,0.181292,-0.8044680999999999,26.18,-2.73,13.3
1463,332235,0.464088,0.35697199999999996,-0.892064,8.7325,1.19,6.195
1464,332333,0.527772,0.260104,-0.8862081,9.9925,3.36,6.475
1465,332431,0.5160600000000001,0.166408,-0.873764,7.2625,3.185,3.255
1466,332529,0.48385200000000006,0.31646799999999997,-0.8657120999999999,-0.7,4.06,-1.61
1467,332627,0.46945600000000004,0.355508,-0.8620521000000001,-0.5775,4.795,-2.205
1468,332725,0.5231359999999999,0.265228,-0.855708,2.7825,5.285,-0.7
1469,332823,0.49580799999999997,0.305244,-0.85034,2.24,4.3575,-1.4875
1470,332922,0.46311199999999997,0.30012,-0.8483879999999999,2.415,3.6225,-2.275
1471,333020,0.483364,0.256444,-0.849852,2.7125,4.7075,-2.87
1472,333118,0.48263199999999995,0.294996,-0.8418,0.525,5.145,-3.92
1473,333216,0.48092399999999996,0.285724,-0.8400921,-0.4375,4.9,-4.2525
1474,333314,0.466528,0.288896,-0.836676,-1.12,4.4275,-4.095
1475,333412,0.4636,0.295484,-0.8315520000000001,-1.7675,4.4975,-3.4125
1476,333510,0.4743361,0.293044,-0.8254520000000001,-2.0125,4.6375,-2.59
1477,333609,0.460916,0.290116,-0.8195960999999999,-1.96,4.83,-2.4675
1478,333707,0.447008,0.28914,-0.8230120999999999,-2.2925,5.2675,-2.485
1479,333805,0.45335200000000003,0.280844,-0.8230120999999999,-3.2375,6.965,-2.5025
1480,333903,0.454816,0.2806,-0.8215481,-4.585,8.575,-2.7825
1481,334001,0.47506800000000005,0.252784,-0.8235001000000001,-6.125,9.765,-3.0975
1482,334099,0.484096,0.216428,-0.8147161,-8.61,10.5875,-4.0425
1483,334197,0.47482399999999997,0.24668400000000001,-0.814472,-13.23,11.585,-6.37
1484,334296,0.471896,0.25864000000000004,-0.8176439999999999,-17.5175,13.23,-8.47
1485,334394,0.485072,0.25522399999999995,-0.805688,-21.56,14.98,-9.8175
1486,334492,0.48165600000000003,0.25376,-0.803492,-25.55,16.485,-11.2525
1487,334590,0.472872,0.2867,-0.796416,-28.35,18.06,-12.145
1488,334688,0.452376,0.346968,-0.8105680000000001,-28.77,20.0025,-11.095
1489,334786,0.42553599999999997,0.364536,-0.801296,-27.6325,22.995,-6.5275
1490,334884,0.44115200000000004,0.35843600000000003,-0.8388721,-28.28,26.7925,0.63
1491,334982,0.45018,0.366732,-0.8525360000000001,-27.4925,32.83,3.815
1492,335081,0.430172,0.31012399999999996,-0.800076,-25.9175,40.495,3.8325
1493,335179,0.458232,0.332328,-0.826916,-30.5025,50.12,4.3925
1494,335277,0.45018,0.32208000000000003,-0.803736,-31.6575,60.8825,4.6375
1495,335375,0.453108,0.358192,-0.8105680000000001,-36.33,73.90250999999999,6.0725
1496,335473,0.419192,0.40504,-0.8322841000000001,-40.1275,87.325,11.1125
1497,335571,0.43627200000000005,0.4087,-0.8483879999999999,-41.6325,101.43,15.9075
1498,335669,0.459696,0.362584,-0.757376,-39.83,116.76,18.0775
1499,335768,0.6029241,0.385276,-0.941108,-39.795,124.74,19.39
1500,335866,0.570716,0.293044,-0.8559521000000001,-19.2675,119.14,31.745
1501,335964,0.64172,0.45457200000000003,-0.8291120999999999,-24.0625,130.13,35.1225
1502,336062,0.5343600000000001,0.367952,-0.8893800999999999,-21.105,141.7675,41.475
1503,336160,0.621224,0.482876,-0.8847440999999999,-20.3175,158.1125,49.84
1504,336258,0.6505041,0.5948720000000001,-0.8988959999999999,-19.9325,176.4875,61.46
1505,336356,0.8769360999999999,0.6068279999999999,-0.809836,-17.255,200.48,78.55751
1506,336454,0.80886,0.48678,-0.8357,-21.7,234.5875,95.69
1507,336553,0.815204,0.6219561,-1.145824,-42.21,286.58,97.3525
1508,336651,0.942572,0.35282399999999997,-1.318576,-50.015,343.9275,95.4625
1509,336749,0.887916,0.49849209999999994,-1.398852,-75.9325,372.505,95.41
1510,336847,0.964044,1.063596,-1.79584,-116.69,398.5975,106.9075
1511,336945,0.8025161,0.863028,-1.6582240000000001,-85.3825,420.035,141.855
1512,337043,0.655628,0.6753920999999999,-1.752896,-16.6425,441.4725,163.7125
1513,337141,1.180472,1.174128,-1.532564,-3.57,469.5075,131.3025
1514,337240,1.3005200000000001,1.075552,-1.916132,-48.23,522.305,54.6875
1515,337338,1.7514319999999999,1.4630239999999999,-2.928732,-51.835,495.8625,100.73
1516,337436,1.5852680000000001,1.146068,-1.91662,61.215,373.5725,204.75
1517,337534,3.324012,2.191364,-4.995168,19.5475,330.575,174.5625
1518,337632,1.705804,1.9007599999999998,-4.36394,44.5725,122.8675,96.1975
1519,337730,0.426512,1.4515559999999998,-2.958012,30.5725,-33.53,21.2625
1520,337828,-0.26596,1.030168,-1.921744,36.785,-110.2675,-20.825
1521,337927,-0.434808,0.6954,-1.382992,49.49,-133.175,-30.8175
1522,338025,-0.30866,0.472628,-1.197308,55.825,-139.125,-29.96
1523,338123,-0.135664,0.348188,-1.1631479999999998,50.9425,-147.63,-31.57
1524,338221,0.072712,0.340624,-1.210728,37.7475,-163.8,-37.7475
1525,338319,0.276452,0.387716,-1.2641639999999998,26.0575,-188.0375,-45.2025
1526,338417,0.396744,0.44090799999999997,-1.245376,22.5225,-217.8575,-51.3275
1527,338515,0.48726800000000003,0.46116,-1.175592,27.9475,-248.045,-54.74
1528,338614,0.597312,0.438712,-1.105808,37.87,-275.0825,-56.3675
1529,338712,0.696376,0.398452,-1.026508,47.18,-299.6,-57.9075
1530,338810,0.803248,0.328424,-0.968924,52.4825,-321.685,-60.095
1531,338908,0.879376,0.26303200000000004,-0.8988959999999999,52.36,-342.37,-63.7
1532,339006,0.9049959999999999,0.203008,-0.8322841000000001,47.0225,-360.0625,-68.11
1533,339104,0.9484280999999999,0.190564,-0.8095920999999999,38.5,-373.17,-72.52
1534,339202,0.989176,0.204228,-0.8283799999999999,30.765,-383.1625,-75.8975
1535,339301,1.0584719999999999,0.242292,-0.9232961,25.445,-389.9875,-78.19
1536,339399,1.179252,0.277672,-1.0889719999999998,23.1175,-395.0275,-79.4325
1537,339497,1.347612,0.302072,-1.2627,22.4175,-401.7825,-80.7275
1538,339595,1.480104,0.29158,-1.3771360000000001,21.21,-411.9675,-83.0725
1539,339693,1.532076,0.24058400000000002,-1.398852,17.185,-423.1325,-86.06501
1540,339791,1.5584280000000001,0.200324,-1.411052,7.35,-429.205,-88.09501
1541,339889,1.6989720000000001,0.24034,-1.52378,-7.2975,-426.8425,-87.0625
1542,339987,2.003484,0.353312,-1.779736,-22.6625,-418.985,-81.2
1543,340086,2.393884,0.490196,-2.0356919999999996,-35.91,-413.7,-75.0225
1544,340184,2.894572,0.39405999999999997,-2.093276,-46.62,-414.855,-74.3925
1545,340282,3.2717959999999997,0.6039,-1.971032,-59.36,-423.535,-81.795
1546,340380,3.392332,0.7515201,-1.444968,-56.7,-431.515,-85.41751
1547,340478,3.246664,0.9994241,-0.726388,-31.6925,-424.095,-87.255
1548,340576,3.15492,0.940132,0.125904,13.405,-391.335,-84.805
1549,340674,3.2391,0.44334799999999996,1.11752,53.2525,-340.06,-82.0225
1550,340773,3.534096,-0.490196,2.219668,55.1775,-280.1575,-77.1925
1551,340871,3.8144519999999997,-0.838628,3.125396,-11.06,-215.5825,-75.5125
1552,340969,3.43186,-0.299632,3.121248,-92.995,-146.0725,-76.5625
1553,341067,3.060492,0.10248,2.5100279999999997,-97.5975,-53.1825,-55.3175
1554,341165,2.865048,0.396012,1.5318319999999999,-45.92,42.8225,-21.3675
1555,341263,2.7181599999999997,0.5077640999999999,0.5873079999999999,20.2825,110.5475,5.145
1556,341361,-0.662216,0.15176800000000001,0.19983599999999999,57.19,144.725,8.4875
1557,341460,-2.417552,-1.7223959999999998,0.769332,99.575,251.2125,23.6775
1558,341558,-0.500444,-0.364536,1.093364,4.0775,396.41,56.175
1559,341656,5.920416,-0.077348,-2.137196,-48.825,542.6925,-5.6525
1560,341754,3.102948,-0.7195560000000001,-2.5156400000000003,-81.60251,380.8525,-50.1725
1561,341852,2.6181200000000002,-0.685396,-2.1899,-78.9075,286.2475,-23.45
1562,341950,2.9575240000000003,0.8881600000000001,-2.638372,-76.3875,300.2475,51.8525
1563,342048,2.27164,1.8126759999999997,-1.8763599999999998,-52.22,216.86,52.71
1564,342146,1.210728,1.99348,-1.8160919999999998,-18.13,155.785,38.1675
1565,342245,2.152568,1.748748,-1.504504,40.1625,135.9575,25.69
1566,342343,0.8918200000000001,0.44993599999999995,-1.14924,128.31,78.3825,52.395
1567,342441,0.412116,-0.016836,-0.7224841,129.1675,62.3875,65.205
1568,342539,1.241472,0.232776,-1.454728,104.3175,61.95,56.1925
1569,342637,1.2019440000000001,-0.39918400000000004,-1.382016,81.1475,31.92,40.74
1570,342735,0.44408000000000003,0.1525,-1.0016200000000002,48.6675,-5.2325,24.3775
1571,342833,0.582428,0.211548,-0.941108,24.955,0.8225,9.415
1572,342931,0.47946000000000005,0.331352,-0.8662001,19.3375,-1.1725,5.74
1573,343030,0.45603599999999994,0.319884,-0.8744960999999999,18.76,-1.505,4.76
1574,343128,0.462136,0.26352,-0.8662001,19.18,-0.9275,5.3725
1575,343226,0.43602799999999997,0.26303200000000004,-0.8525360000000001,17.3775,-0.8400001,4.76
1576,343324,0.422364,0.273036,-0.8479,15.2075,-0.6125,3.8325
1577,343422,0.435784,0.255468,-0.8522921,13.405,0.315,3.0275
1578,343520,0.42212,0.273524,-0.845216,10.8325,0.5775,1.9075
1579,343618,0.440176,0.28157600000000005,-0.8483879999999999,8.82,1.3125,0.945
1580,343717,0.43066000000000004,0.25424800000000003,-0.8403360000000001,7.9625,1.505,0.7175
1581,343815,0.450424,0.255712,-0.8425321,6.3525,1.785,0.21
1582,343913,0.43676000000000004,0.25522399999999995,-0.8361879999999999,4.76,1.6625,-0.455
1583,344011,0.429684,0.24644000000000002,-0.8425321,3.29,2.0125,-0.98
1584,344109,0.432856,0.23546,-0.83814,0.49,2.73,-1.75
1585,344207,0.457988,0.24278000000000002,-0.8422879999999999,-4.1825,2.905,-2.835
1586,344305,0.46335600000000005,0.209596,-0.8332601000000001,-8.4525,2.6775,-4.3575
1587,344404,0.42333999999999994,0.21472,-0.8410681000000001,-12.53,2.905,-6.5975
1588,344502,0.43627200000000005,0.205204,-0.8400921,-16.065,4.76,-8.6975
1589,344600,0.44334799999999996,0.19983599999999999,-0.8361879999999999,-19.915,7.315,-10.99
1590,344698,0.426512,0.25498000000000004,-0.841556,-23.765,9.03,-13.3
1591,344796,0.44993599999999995,0.30012,-0.841556,-25.34,10.5875,-13.335
1592,344894,0.47775200000000007,0.289628,-0.835456,-24.3425,11.375,-11.8475
1593,344993,0.46628400000000003,0.299388,-0.83204,-23.7125,11.2525,-10.57
1594,345091,0.4553041,0.30182800000000004,-0.8247200000000001,-22.435,11.06,-9.3975
1595,345189,0.47653199999999996,0.279624,-0.8296,-21.8225,12.3025,-8.4525
1596,345287,0.45261999999999997,0.288164,-0.8276481,-22.505,14.0525,-8.085
1597,345385,0.440176,0.305732,-0.834968,-23.38,17.2025,-7.07
1598,345483,0.405528,0.312564,-0.822524,-23.3975,21.1925,-5.5475
1599,345581,0.409432,0.28914,-0.836676,-23.8875,27.5625,-3.115
1600,345679,0.397964,0.20691199999999998,-0.803248,-26.6875,35.3675,2.485
1601,345778,0.34892,0.520452,-0.9208561,-37.415,45.185,10.64
1602,345876,0.44066400000000006,0.247416,-0.8283799999999999,-27.5625,57.3125,11.9525
1603,345974,0.416996,0.396256,-0.863516,-30.6075,68.7575,12.88
1604,346072,0.41358,0.28792,-0.81374,-34.86,81.69001,15.33
1605,346170,0.43724799999999997,0.328912,-0.8671761,-40.5125,95.865,18.5675
1606,346268,0.467504,0.288164,-0.793488,-45.5525,112.175,21.1225
1607,346366,0.586332,0.395768,-0.9828321,-53.8475,126.805,20.86
1608,346465,0.51484,0.29597199999999996,-0.758108,-33.565,126.28,23.6775
1609,346563,0.49776000000000004,0.361608,-0.846924,-30.2575,131.32,29.7325
1610,346661,0.53192,0.48653599999999997,-0.787632,-30.7825,141.26,35.805
1611,346759,0.574864,0.511424,-0.8601,-24.9025,152.7925,45.465
1612,346857,0.638548,0.518012,-0.8876719999999999,-18.69,167.9125,56.07
1613,346955,0.8044680999999999,0.5702281,-0.9977159999999999,-13.3875,184.275,71.9775
1614,347053,0.827892,0.48922,-0.9091440000000001,-12.075,209.8425,92.4525
1615,347152,0.8042239999999999,0.51118,-0.981124,-28.5075,246.1025,103.005
1616,347250,0.653188,0.521184,-1.617232,-61.3025,301.7175,99.225
1617,347348,0.9833200000000001,0.392108,-1.2900280000000002,-85.05,350.4025,94.08
1618,347446,0.7978801,0.70028,-1.68482,-115.92,385.5775,103.04
1619,347544,0.7166279999999999,0.6771,-1.581608,-131.1275,415.3975,124.81
1620,347642,0.801784,0.9042641,-1.948584,-97.07251,439.0925,142.7825
1621,347740,1.190476,1.3790879999999999,-1.770952,-51.8525,465.92,131.145
1622,347838,1.15412,1.194868,-1.885144,-54.74,517.8775,76.265
1623,347937,1.516704,1.480104,-2.865048,-42.21,499.9225,110.74
1624,348035,1.379576,1.064816,-1.5518399999999999,72.24,390.9675,206.78
1625,348133,2.82796,1.961028,-4.643808,30.0825,349.79,191.8875
1626,348231,1.798036,1.7629,-4.311724,36.155,171.6575,115.115
1627,348329,0.599264,1.5189,-3.276432,11.97,10.36,38.3075
1628,348427,-0.21301199999999998,1.203652,-2.230892,10.8675,-86.29251,-16.24
1629,348525,-0.5060560000000001,0.8791321,-1.597956,27.8775,-125.5275,-36.1375
1630,348624,-0.503372,0.608536,-1.304424,47.4075,-138.46,-38.2725
1631,348722,-0.35014,0.40357600000000005,-1.205116,57.05,-146.5275,-38.0275
1632,348820,-0.14518,0.27938,-1.20902,52.78,-159.6875,-42.0175
1633,348918,0.054167999999999994,0.24522,-1.2190239999999999,39.3225,-180.6525,-49.2275
1634,349016,0.20788800000000002,0.25254,-1.2139,25.585,-207.2175,-56.6125
1635,349114,0.345748,0.288652,-1.17974,17.01,-235.06,-61.88
1636,349212,0.46238,0.312076,-1.131672,15.9425,-261.94,-64.4875
1637,349310,0.562664,0.310856,-1.056032,20.65,-286.475,-65.43251
1638,349409,0.650748,0.284504,-0.9767321,26.6,-308.1225,-66.53501
1639,349507,0.71248,0.252052,-0.8937719999999999,31.08,-326.2,-68.075
1640,349605,0.761524,0.22448,-0.8400921,32.97,-340.3225,-69.9125
1641,349703,0.828624,0.215696,-0.8176439999999999,32.5325,-350.7525,-71.645
1642,349801,0.877668,0.2257,-0.8420440999999999,31.5175,-359.2575,-72.765
1643,349899,0.9706319999999999,0.258152,-0.9315921,29.8725,-365.54,-73.6225
1644,349997,1.101416,0.29987600000000003,-1.073844,28.42,-371.49,-74.41
1645,350095,1.24684,0.335012,-1.2395200000000002,27.44,-379.715,-75.74
1646,350194,1.370792,0.35136,-1.35664,26.355,-390.425,-77.8575
1647,350292,1.4400879999999998,0.33061999999999997,-1.4271559999999999,23.695,-401.2225,-80.4475
1648,350390,1.479372,0.273768,-1.4783959999999998,16.7825,-407.26,-82.3375
1649,350488,1.6689599999999998,0.323544,-1.611864,3.5,-405.8075,-82.8975
1650,350586,1.942484,0.44090799999999997,-1.7641200000000001,-11.585,-400.54,-79.3275
1651,350684,2.268224,0.505568,-1.906616,-27.3875,-394.7475,-74.655
1652,350782,2.7711080000000003,0.423096,-1.9083240000000001,-47.9675,-389.7075,-74.235
1653,350880,3.322304,0.60634,-1.814628,-72.2925,-389.935,-82.915
1654,350979,3.643408,0.8757159999999999,-1.485472,-84.15751,-396.6025,-85.085
1655,351077,3.6612199999999997,1.117276,-0.850096,-61.11,-393.68,-83.6325
1656,351175,3.5375120000000004,1.009916,-0.02684,-15.365,-375.4975,-83.59751
1657,351273,3.449184,0.5368,1.0004,29.1725,-340.4625,-86.9575
1658,351371,3.34646,-0.09711201,2.058872,41.51,-292.1625,-91.2275
1659,351469,3.425272,-0.393572,2.7730599999999996,10.71,-229.4075,-99.19001
1660,351567,3.479196,-0.285968,2.9492279999999997,-29.6975,-157.115,-106.1725
1661,351666,3.144672,-0.20691199999999998,2.684976,-38.3425,-74.55,-97.19501
1662,351764,2.745244,-0.05612,2.0374,-16.0825,13.475,-71.8025
1663,351862,2.076196,0.302804,2.809416,22.5925,107.1,-46.5325
1664,351960,-2.106452,-1.037976,2.459276,120.5575,262.885,6.895
1665,352058,-1.085556,0.069784,-2.4334119999999997,49.4375,409.57,86.06501
1666,352156,4.022828,-1.24928,0.03782,130.27,487.34,105.6125
1667,352254,3.349876,-0.863516,-2.316292,37.695,398.7025,59.3425
1668,352352,2.578104,-1.103124,-2.2762759999999997,-13.1425,294.5425,19.285
1669,352451,2.93654,-0.6480640000000001,-2.390468,-42.3675,289.38,28.8925
1670,352549,2.603236,0.655384,-2.488312,-69.66751,220.71,43.4175
1671,352647,1.334924,1.240984,-1.4884,-65.22251,152.8625,28.98
1672,352745,0.331352,1.338584,-0.8337481,-47.075,124.1275,21.4725
1673,352843,2.0403279999999997,2.400472,-1.617232,-13.3175,122.605,11.69
