,T,ax,ay,az,gx,gy,gz
0,9381021,0.9036540000000001,-0.040016,0.11394800000000001,10.255,-9.1875,-10.0625
1,9381165,0.9337880999999999,-0.038796,0.04392,35.4725,-90.125,-122.29
2,9381261,1.005768,-0.04148,0.041724000000000004,-51.1,-72.6775,-130.69
3,9381358,1.0147959999999998,-0.03782,0.029036000000000003,23.8,-94.74501,-51.765
4,9381455,1.01199,-0.036478,0.031354,-3.2025,-4.515,-5.775
5,9381552,1.0121120000000001,-0.035013999999999997,0.02623,-7.525,-5.74,-4.48
6,9381648,1.013332,-0.03477,0.029036000000000003,-11.935,-9.17,-4.2875
7,9381745,1.00955,-0.038918,0.039528,-17.4475,-13.02,-3.8325
8,9381842,1.004792,-0.037942000000000004,0.07112601,-23.765,-18.2875,-3.6225
9,9381938,1.000156,-0.030622000000000003,-0.056974000000000004,-27.195,-24.6925,-3.815
10,9382035,1.023946,-0.049532,0.000488,-29.925,-26.845,-4.1125
11,9382132,1.0168700000000002,-0.044774,0.00061,-34.9475,-29.7325,-4.3225
12,9382229,1.0140639999999999,-0.037088,-0.007686,-33.32,-35.1575,-4.34
13,9382325,1.019798,-0.02928,-0.025131999999999998,-31.36,-37.7475,-4.2
14,9382422,1.033828,-0.029646,-0.028792,-28.84,-39.83,-3.4125
15,9382519,1.017236,-0.031476,-0.022813999999999997,-26.285,-41.72,-2.5725
16,9382616,1.00101,-0.033916,0.000488,-23.345,-43.1375,-2.7125
17,9382712,0.9822219999999999,-0.035136,0.008662000999999999,-22.2425,-43.19,-3.8675
18,9382809,0.984784,-0.039772,0.0017079999999999999,-22.68,-40.88,-6.1775
19,9382906,0.9894200000000001,-0.046116000000000004,-0.0035380000000000003,-23.7475,-37.45,-8.8375
20,9383003,0.9684360999999999,-0.029401999999999998,-0.015493999999999999,-21.8225,-35.8925,-10.78
21,9383099,0.967094,0.02684,-0.00183,-11.7425,-34.1075,-10.955
22,9383196,1.018456,-0.06466001,-0.002074,1.5225,-29.9775,-8.68
23,9383293,1.024556,-0.022813999999999997,-0.027327999999999998,2.38,-27.265,-11.69
24,9383390,1.0345600000000001,-0.0305,0.031232,4.9175,-27.1075,-11.865
25,9383486,1.372012,0.017568,-0.01769,1.9075,-21.4725,-6.475
26,9383583,0.950868,-0.0366,0.041236,11.4625,-6.475,22.365
27,9383680,0.7893399999999999,-0.06649,-0.042944,-0.9275,-1.8375,7.1225
28,9383777,0.9913719999999999,-0.00549,-0.037942000000000004,-2.0125,-4.2175,-1.2775
29,9383873,0.99369,-0.032574,-0.030378,3.71,-6.1075,-3.3075
30,9383970,0.9873460999999999,-0.025863999999999998,-0.043188,-0.91,-9.9925,-2.6425
31,9384067,0.9977159999999999,-0.032086,-0.025254,2.835,-6.6325,-2.9225
32,9384164,0.9947881,-0.025742,-0.039528,0.2275,-5.67,-3.0275
33,9384260,1.001132,-0.031598,-0.024156,2.24,-4.2875,-3.29
34,9384357,1.003816,-0.030378,-0.01342,-0.14,-5.6,-3.255
35,9384454,0.9971059999999999,-0.030866,-0.030133999999999998,0.0,-7.56,-3.0975
36,9384551,1.0004,-0.027938,-0.038674,-0.4375,-6.3,-3.22
37,9384647,0.9978379999999999,-0.028914,-0.034038,-0.0875,-6.3875,-3.185
38,9384744,0.998692,-0.027206,-0.032330000000000005,-0.07,-6.7025,-3.1675
39,9384841,0.998814,-0.02623,-0.03172,0.28,-6.72,-3.15
40,9384874,1.000766,-0.026962,-0.030866,0.5775,-6.9125,-3.08
41,9385034,1.000888,-0.02501,-0.031476,1.0675,-6.895,-3.01
42,9385131,0.9994241,-0.029401999999999998,-0.031354,1.47,-6.93,-3.045
43,9385228,0.995764,-0.029768,-0.029524,1.435,-6.895,-3.045
44,9385324,0.995398,-0.030622000000000003,-0.031842,1.225,-6.405,-3.1325
45,9385421,0.996374,-0.032695999999999996,-0.033794,0.9625,-5.7925,-3.2025
46,9385518,0.996008,-0.033794,-0.036478,0.56,-5.2675,-3.3075
47,9385615,0.9980821,-0.034892,-0.037942000000000004,0.1575,-4.97,-3.325
48,9385711,0.9995460999999999,-0.03416,-0.040016,0.0,-5.2675,-3.3075
49,9385808,0.9980821,-0.034282,-0.033794,0.1225,-5.67,-3.2375
50,9385905,0.99979,-0.03294,-0.030378,-0.0525,-6.125,-3.1675
51,9386001,1.000644,-0.030378,-0.029889999999999996,-0.105,-6.4225,-3.2025
52,9386098,0.9999121,-0.030744,-0.032086,0.175,-6.265,-3.0625
53,9386195,1.00101,-0.030256,-0.032574,0.665,-6.195,-3.01
54,9386292,1.000522,-0.031964,-0.029401999999999998,0.595,-6.055,-3.045
55,9386388,0.996862,-0.031232,-0.029036000000000003,0.175,-5.9675,-2.9925
56,9386485,0.996862,-0.0305,-0.031232,-0.07,-5.6,-3.0275
57,9386582,0.9978379999999999,-0.029768,-0.03477,-0.1925,-5.18,-3.115
58,9386679,0.9994241,-0.028792,-0.039894,-0.175,-4.9525,-3.22
59,9386775,1.00101,-0.027816000000000004,-0.041968,-0.035,-4.8475,-3.1675
60,9386872,0.99918,-0.027572000000000003,-0.04331,0.2275,-4.8825,-3.15
61,9386969,0.996862,-0.028304000000000003,-0.04148,0.4025,-5.1275,-3.2025
62,9387066,0.9975940999999999,-0.029401999999999998,-0.040504000000000005,0.3325,-5.2325,-3.3075
63,9387162,0.9974719999999999,-0.030256,-0.038796,0.245,-5.25,-3.255
64,9387259,0.9971059999999999,-0.031232,-0.035624,0.1925,-5.1975,-3.43
65,9387356,0.9994241,-0.031964,-0.036356,-0.0525,-5.0225,-3.5525
66,9387453,1.0049139999999999,-0.033916,-0.034526,-0.07,-5.075,-3.64
67,9387549,1.0065,-0.032086,-0.03782,-0.2275,-5.2675,-3.64
68,9387646,1.0056459999999998,-0.031964,-0.03904,0.1225,-5.2675,-3.535
69,9387743,1.00406,-0.032086,-0.037942000000000004,0.28,-5.2675,-3.4125
70,9387839,1.000888,-0.030256,-0.037088,0.525,-5.5125,-3.29
71,9387936,1.000156,-0.0305,-0.034282,0.77,-5.8625,-3.1675
72,9388033,1.001254,-0.030622000000000003,-0.033184,0.665,-6.195,-3.08
73,9388130,1.000888,-0.025986000000000002,-0.036233999999999995,0.595,-6.895,-3.0975
74,9388226,1.003572,-0.018056,-0.04148,0.9975,-7.8575,-3.29
75,9388323,1.004548,-0.018422,-0.030133999999999998,1.8725,-9.0125,-3.64
76,9388420,1.007354,-0.021472,-0.01281,0.875,-9.8,-4.025
77,9388517,1.006622,-0.022448,-0.008296000999999999,-1.0675,-10.2375,-4.305
78,9388613,1.00711,-0.021106,-0.026351999999999997,-2.555,-8.8725,-4.375
79,9388710,1.00955,-0.017812,-0.043066,-2.765,-6.545,-4.48
80,9388807,1.0084520000000001,-0.01708,-0.049288,-2.1175,-5.6525,-4.3575
81,9388904,1.0049139999999999,-0.013786000000000001,-0.047458,-1.7675,-6.37,-4.165
82,9389000,0.9972281,-0.011956,-0.03599,-2.2225,-7.735,-3.9725
83,9389097,0.99308,-0.01098,-0.030256,-2.66,-8.645,-3.955
84,9389194,0.9890540000000001,-0.015128,-0.017812,-2.555,-8.54,-3.815
85,9389291,0.984906,-0.014762,-0.01037,-2.5725,-7.63,-3.57
86,9389387,0.984174,-0.010004,-0.003172,-2.1875,-6.335,-3.22
87,9389484,0.9883221,-0.007198,-0.002074,-0.7175,-5.005,-2.8175
88,9389581,0.9945440000000001,-0.009150001,-0.012565999999999999,0.2975,-4.095,-2.7825
89,9389678,1.000156,-0.011468,-0.019764,0.525,-3.465,-2.7825
90,9389774,1.007476,-0.013297999999999999,-0.008296000999999999,1.1375,-4.0075,-2.7475
91,9389871,1.010404,-0.013786000000000001,-0.008174001,1.715,-5.1625,-2.7125
92,9389968,1.014186,-0.020862000000000002,-0.013297999999999999,2.205,-5.5475,-2.73
93,9390065,1.015284,-0.029524,-0.020496,1.8725,-5.25,-2.695
94,9390161,1.011868,-0.034038,-0.025863999999999998,1.1375,-5.145,-2.6425
95,9390258,1.011868,-0.036112,-0.028304000000000003,0.525,-5.1975,-2.7475
96,9390355,1.009306,-0.036112,-0.032330000000000005,0.2275,-5.425,-2.695
97,9390451,1.008086,-0.035502,-0.041846,-0.07,-5.6875,-2.6075
98,9390548,1.008086,-0.035013999999999997,-0.049776,-0.6825,-6.0025,-2.5725
99,9390645,1.005036,-0.03477,-0.052703999999999994,-1.33,-6.2825,-2.59
100,9390742,1.000278,-0.032451999999999995,-0.05453401,-1.785,-7.0,-2.59
101,9390838,0.9967401,-0.031232,-0.04867801,-1.9075,-7.7525,-2.415
102,9390935,0.99125,-0.02806,-0.04331,-1.89,-8.12,-2.3975
103,9391032,0.9894200000000001,-0.022813999999999997,-0.041358,-2.03,-8.015,-2.1525
104,9391129,0.9894200000000001,-0.020984,-0.036844,-1.715,-7.7175,-2.0825
105,9391225,0.99308,-0.013786000000000001,-0.028182,-1.0325,-7.63,-1.995
106,9391322,0.996374,-0.016225999999999997,-0.027206,-0.665,-7.7875,-1.9775
107,9391419,0.9990581000000001,-0.010858,-0.027206,-0.315,-7.9975,-2.135
108,9391516,1.0077200000000002,-0.01281,-0.027083999999999997,0.245,-8.26,-2.275
109,9391612,1.012234,-0.010614,-0.02501,0.4025,-8.995,-2.31
110,9391709,1.01626,-0.010492,-0.027694,0.63,-9.5725,-2.6425
111,9391806,1.0145520000000001,-0.010492,-0.030622000000000003,0.77,-9.73,-2.8875
112,9391902,1.0086959999999998,-0.013054,-0.025742,0.77,-9.695,-3.1325
113,9391999,1.00223,-0.015372,-0.027938,-0.105,-9.765,-3.465
114,9392096,0.9978379999999999,-0.016714,-0.036844,-1.2775,-9.695,-3.78
115,9392193,0.9964959999999999,-0.016347999999999998,-0.0366,-2.1,-9.4325,-3.85
116,9392289,0.995886,-0.018056,-0.024644,-1.8375,-9.765,-3.6575
117,9392386,0.990274,-0.01647,-0.012688,-1.1725,-10.4125,-3.3075
118,9392483,0.9831981,-0.015372,-0.008784,-1.05,-10.0625,-2.835
119,9392580,0.9724620999999999,-0.011834,0.004148001,-1.4,-8.8025,-2.4325
120,9392676,0.964532,-0.011834,0.016958,-1.2075,-7.49,-2.1
121,9392773,0.9589200999999999,-0.013175999999999998,0.02074,-0.7175,-6.9475,-1.7675
122,9392870,0.9586761,-0.015006,0.03172,-0.3325,-6.58,-1.75
123,9392967,0.9701440999999998,-0.013541999999999998,0.027327999999999998,-0.63,-6.16,-1.68
124,9393063,0.9785620999999999,-0.014274,0.042578,0.245,-5.95,-1.4525
125,9393160,0.984296,-0.018788,0.050142,1.0325,-5.7225,-1.085
126,9393257,0.9933241,-0.019275999999999998,0.044652,2.345,-5.495,-0.7875
127,9393354,1.000156,-0.016347999999999998,0.040260000000000004,3.9375,-4.97,-0.5775
128,9393450,1.0056459999999998,-0.01769,0.026351999999999997,6.335,-3.9375,-0.5075
129,9393547,1.012478,-0.016714,-0.000732,8.8375,-3.0625,-0.63
130,9393644,1.013576,-0.016958,-0.029158,11.5325,-2.0475,-1.0325
131,9393741,1.014918,-0.00671,-0.048922,14.21,-1.365,-1.82
132,9393837,1.019066,0.003904,-0.06600201,17.57,-1.61,-2.905
133,9393934,1.021018,0.022813999999999997,-0.081252,20.615,-3.3075,-4.48
134,9394031,1.007232,0.026108,-0.09320801,23.66,-5.32,-6.265
135,9394128,0.996374,0.029768,-0.10553,26.075,-7.0875,-8.785
136,9394224,0.9663620999999999,0.031964,-0.091012,28.98,-7.9625,-11.4275
137,9394321,0.94001,0.031110000000000002,-0.085156,31.465,-9.1875,-15.2075
138,9394418,0.960384,0.023546,-0.074298,32.62,-8.2075,-19.355
139,9394515,0.9777081,-0.00183,-0.076738,31.4475,-3.15,-21.875
140,9394611,1.027484,-0.019764,-0.07381001,29.4525,2.2225,-22.8375
141,9394708,1.060912,-0.020374,-0.048068,27.23,4.0425,-21.105
142,9394805,1.0468819999999999,-0.032695999999999996,0.011834,27.58,-0.385,-18.0425
143,9394902,1.014918,-0.04404201,0.04514,27.02,-8.2075,-16.555
144,9394998,0.9753901,-0.040748,0.1159,26.9675,-15.5225,-15.4525
145,9395095,0.9703879999999999,-0.049776,0.14713199999999999,23.1525,-16.8,-16.2925
146,9395192,1.00223,-0.07137001,0.15006,18.515,-14.315,-17.395
147,9395289,1.017724,-0.097966,0.14396,17.185,-11.41,-17.01
148,9395385,1.058106,-0.10309000000000001,0.151402,15.3125,-7.805,-16.695
149,9395482,1.0937299999999999,-0.10797000000000001,0.09845401,12.7925,-3.5175,-14.35
150,9395579,1.154242,-0.07442,0.173362,13.44,-7.2275,-9.9225
151,9395675,1.106052,-0.074054,0.165432,9.1525,-6.16,-7.84
152,9395772,1.122644,-0.037454,0.13237000000000002,11.095,-0.91,-5.39
153,9395869,1.073112,-0.05160601,0.06600201,8.89,-2.205,-3.7975
154,9395966,1.046638,-0.05941401,-0.003904,13.755,-13.58,-1.365
155,9396062,1.037366,-0.05209400000000001,0.032695999999999996,12.7925,-22.925,0.4375
156,9396159,1.02724,-0.04867801,0.048556,10.5,-26.985,2.695
157,9396256,1.003328,-0.059658,0.088328,10.885,-32.0075,2.275
158,9396353,0.993202,-0.10638399999999999,0.122,12.53,-30.3625,3.29
159,9396449,0.9951540000000001,-0.07978801,0.10065,10.1675,-28.805,5.495
160,9396546,0.9895421,-0.089304,0.09589201,9.45,-27.72,6.0725
161,9396643,0.976,-0.07527400000000001,0.081374,5.775,-24.955,6.5275
162,9396740,0.9500139999999999,-0.067588,0.079422,2.9575,-23.5025,6.5625
163,9396836,0.9463540000000001,-0.08174001,0.061732,2.3975,-22.4525,6.1425
164,9396933,0.9526979999999999,-0.068686,0.05819401,0.875,-21.98,6.4925
165,9397030,0.9501360999999999,-0.06661201,0.08417999999999999,1.435,-21.7525,5.5825
166,9397126,0.9375700000000001,-0.06527000000000001,0.10553,1.4175,-21.805,5.1275
167,9397223,0.9370821,-0.049532,0.10723800000000001,0.14,-20.58,4.6725
168,9397320,0.9358620999999999,-0.031964,0.106628,0.7525,-19.915,3.395
169,9397417,0.94306,-0.058926,0.108824,0.1575,-19.8275,1.33
170,9397513,0.9534301,-0.039772,0.11895,-0.2975,-19.985,1.9425
171,9397610,0.9901521000000001,-0.046482,0.123464,-1.3475,-20.265,1.3475
172,9397707,1.0086959999999998,-0.060024,0.137738,-1.645,-21.945,1.19
173,9397803,1.00284,-0.05648601,0.12383,-3.7625,-23.94,1.5925
174,9397900,0.993812,-0.077958,0.11126400000000002,-6.02,-26.705,0.595
175,9397997,0.9762440999999998,-0.09162200000000001,0.10638399999999999,-9.9575,-28.1925,-0.665
176,9398094,0.9796600000000001,-0.090036,0.112972,-13.6675,-27.7375,-2.415
177,9398190,0.999668,-0.09821001,0.12053599999999999,-16.4325,-26.6,-3.605
178,9398287,0.99735,-0.09625801,0.12053599999999999,-18.725,-27.0375,-3.64
179,9398384,0.9906401,-0.089792,0.114924,-21.2625,-27.615,-3.815
180,9398481,0.9753901,-0.09162200000000001,0.110776,-24.4125,-27.965,-4.025
181,9398577,0.9605060999999999,-0.09028,0.113704,-25.34,-26.6,-5.3375
182,9398674,0.986614,-0.082106,0.09442801,-25.27,-21.98,-6.125
183,9398771,1.0018639999999999,-0.076494,0.078202,-25.2875,-19.145,-5.8625
184,9398867,0.9950319999999999,-0.10797000000000001,0.039894,-21.98,-20.685,-4.5325
185,9398964,0.981978,-0.108946,0.025254,-19.32,-21.6825,-3.395
186,9399061,0.9677040000000001,-0.07978801,0.044164,-21.735,-19.4075,-5.145
187,9399158,0.974292,-0.074298,0.066124,-24.325,-16.8,-7.805
188,9399254,1.045174,-0.107116,0.033184,-25.62,-12.39,-9.695
189,9399351,1.128012,-0.08479,0.010736,-26.74,-2.6425,-9.6425
190,9399448,1.141676,-0.032574,0.08906,-26.495,3.7625,-10.4475
191,9399545,1.140944,-0.052582000000000004,0.1525,-24.045,-1.225,-9.45
192,9399641,1.208776,-0.061488,0.063074,-27.965,-8.925,-8.1725
193,9399738,1.2664819999999999,-0.004148001,-0.039894,-26.2675,-9.1525,-6.86
194,9399835,1.244766,0.069662,-0.03172,-21.14,-6.5975,-3.5175
195,9399932,1.180228,0.044164,0.02684,-17.5875,-11.69,-1.715
196,9400028,1.180472,-0.013908000000000002,0.021472,-17.08,-19.425,-3.9725
197,9400125,1.19926,0.038918,-0.10052799999999999,-22.4875,-18.725,-7.4025
198,9400222,1.175348,0.067588,-0.170312,-14.42,-15.365,-9.0125
199,9400318,1.130452,0.063318,-0.144204,-6.5975,-17.4825,-11.2875
200,9400415,1.0675,0.056974000000000004,-0.089304,-7.8225,-23.45,-14.28
201,9400512,1.04798,0.03294,-0.08893801,-14.035,-29.5225,-18.375
202,9400609,1.031876,0.0366,-0.142496,-20.7375,-29.155,-20.1075
203,9400705,1.019188,0.047702,-0.179584,-26.635,-21.5425,-17.885
204,9400802,1.042856,-0.07381001,-0.22167399999999998,-31.85,-12.53,-14.7875
205,9400899,1.042612,-0.115168,-0.279868,-34.0025,-1.9075,-8.5225
206,9400996,1.073356,-0.057339999999999995,-0.349896,-31.9375,5.9675,-6.4575
207,9401092,1.014186,0.016592,-0.38552,-30.9925,2.835,-1.575
208,9401189,1.0178459999999998,0.20752199999999998,-0.373442,-26.11,10.045,7.3325
209,9401286,1.097512,0.099552,-0.33623200000000003,-19.5475,11.9525,1.8025
210,9401383,1.008208,0.087352,-0.249734,-5.04,-1.4525,3.29
211,9401479,0.946842,0.10430999999999999,-0.22277199999999997,-12.8625,-11.4275,4.5675
212,9401576,0.9391560999999999,0.110654,-0.16811600000000002,-9.485,-1.9075,5.67
213,9401673,0.9568459999999999,0.036844,-0.27205999999999997,-12.7225,-1.2075,5.7225
214,9401770,0.9479401,0.052338,-0.265472,-8.575,-12.88,5.67
215,9401866,0.9429379999999999,0.029524,-0.15945399999999998,0.98,-16.0125,1.7675
216,9401963,0.8937719999999999,0.003172,-0.234118,-1.0325,-16.3975,0.385
217,9402060,0.9150001,0.024766,-0.255712,-2.8525,-15.645,0.9975
218,9402156,0.90402,0.035502,-0.244732,2.0825,-10.6575,2.2925
219,9402253,0.9219540999999999,0.048312,-0.223992,-1.2075,-15.785,1.12
220,9402350,0.873398,0.046848,-0.18629400000000002,-1.19,-22.1725,0.665
221,9402447,0.8668100000000001,0.06649,-0.23167800000000002,-6.86,-26.6525,3.2025
222,9402543,0.865468,0.07625,-0.160552,-4.06,-28.1925,5.075
223,9402640,0.8253299999999999,0.081496,-0.101504,-3.22,-29.33,4.655
224,9402737,0.7628659999999999,0.055265999999999996,-0.21716,-7.8925,-32.725,1.82
225,9402834,0.8164239999999999,0.07356601,-0.21228000000000002,-13.965,-36.505,5.425
226,9402930,0.78263,0.06795401,-0.094916,-6.5275,-32.2175,8.575
227,9403027,0.853146,0.077958,-0.12712400000000001,-12.25,-31.9725,13.1075
228,9403124,0.862662,0.074786,0.080886,5.2325,-20.3175,7.9275
229,9403220,0.9125601000000001,0.07234600000000001,0.04514,3.395,-10.9725,5.74
230,9403317,0.912316,0.040992,-0.010614,2.905,-5.6175,0.0875
231,9403414,0.9158540999999999,0.047336,-0.128832,6.79,-4.76,-3.0975
232,9403511,0.8784,0.05843801,-0.164212,4.515,-9.59,-2.8175
233,9403607,0.839482,0.069662,-0.12334200000000001,4.7775,-6.79,1.015
234,9403704,0.815692,0.08820599999999999,-0.07686,-0.805,-5.1625,1.295
235,9403801,0.825574,0.1037,-0.051362,-6.1075,-3.15,-0.1575
236,9403897,0.8375299999999999,0.08052000000000001,-0.048312,-8.3825,2.59,0.455
237,9403994,0.8486319999999999,0.100406,-0.058316,-10.85,4.4975,-1.68
238,9404091,0.8810841,0.10504200000000001,-0.08466801,-12.145,2.7825,-5.6175
239,9404188,0.9198799999999999,0.12078,-0.06112201,-13.055,1.225,-7.35
240,9404284,0.9046301,0.136518,0.0034159999999999998,-9.275,0.1225,-7.0
241,9404381,0.8596120999999999,0.158478,0.022692,-3.7275,-5.005,-6.16
242,9404478,0.8516819999999999,0.21472,0.01769,3.92,-7.0875,-2.66
243,9404574,0.91927,0.233508,0.009028000999999999,10.2375,-3.4125,-0.9625
244,9404671,0.8730319999999999,0.11407,0.029646,17.3775,-7.7,0.5425
245,9404768,0.8855980999999999,0.111874,0.23546,23.625,-6.58,3.08
246,9404865,0.8964561,-0.001464,0.129442,30.7475,-0.56,0.63
247,9404961,0.8791321,0.021106,0.008784,20.4925,-13.51,1.3475
248,9405058,0.8714459999999999,-0.010736,0.012322,26.1975,-8.2075,2.3975
249,9405155,0.917684,-0.040504000000000005,0.043066,21.4725,-2.6075,5.215
250,9405252,0.942084,-0.09821001,0.12980799999999998,15.6625,1.435,11.795
251,9405348,1.100684,-0.230458,0.181902,11.7075,12.285,14.2275
252,9405445,1.110566,-0.226798,0.190686,10.3425,22.19,8.575
253,9405542,1.003328,-0.0671,0.10687200000000001,5.32,15.9425,1.1725
254,9405639,1.066036,0.097234,-0.189832,0.1225,15.2425,0.245
255,9405735,1.282708,0.067344,-0.135664,11.06,23.5025,-1.0675
256,9405832,1.481934,0.07710399999999999,-0.094306,17.675,18.6725,-6.5275
257,9405929,1.46339,0.175314,-0.329156,2.38,10.8675,-9.765
258,9406026,1.467904,0.09272000000000001,-0.576816,-17.185,14.7525,-10.605
259,9406122,1.447652,-0.05624199999999999,-0.577426,-24.675,18.655,-17.57
260,9406219,1.393118,-0.12627,-0.59109,-37.2925,17.71,-34.93
261,9406316,1.2641639999999998,-0.074786,-0.676612,-48.51,25.27,-45.745
262,9406412,1.195478,-0.019886,-0.544242,-43.015,26.81,-49.035
263,9406509,1.187548,0.012565999999999999,-0.416142,-28.4725,29.995,-50.3125
264,9406606,1.2763639999999998,0.062952,-0.375272,-16.1875,35.3325,-44.2575
265,9406703,1.261724,0.181902,-0.31012399999999996,2.2575,36.085,-23.9575
266,9406799,1.2500120000000001,0.21166999999999997,-0.361608,16.17,27.895,-9.17
267,9406896,1.146556,0.24351199999999998,-0.42517,17.1675,12.0225,-3.85
268,9406993,1.105076,0.170678,-0.32879,21.1925,-2.1,-7.735
269,9407089,1.131916,0.13859200000000002,-0.204228,24.92,2.345,-12.18
270,9407186,1.16022,0.118584,-0.185074,21.5075,5.495,-16.1
271,9407283,1.114958,0.07856801,-0.214964,19.7225,-5.74,-18.9
272,9407380,1.051884,-0.001586,-0.178852,22.1025,-10.64,-21.6125
273,9407476,1.028216,-0.08601,-0.22277199999999997,17.7275,-2.0125,-21.105
274,9407573,1.062132,-0.145302,-0.158966,15.995,-1.6625,-19.705
275,9407670,1.0290700000000002,-0.144204,-0.177754,12.7575,-9.2925,-14.5075
276,9407767,0.9512341000000001,-0.090646,-0.24936799999999998,1.47,-19.635,-8.1375
277,9407863,0.8425321,-0.08637601,-0.27938,0.0175,-27.51,-6.4575
278,9407960,0.8160581,-0.11224,-0.22423600000000002,1.0325,-27.72,-6.195
279,9408057,0.7972701,-0.041236,-0.15506199999999998,5.6525,-25.3575,-6.405
280,9408153,0.7315119999999999,-0.07747001,-0.20691199999999998,4.0425,-30.66,-7.56
281,9408250,0.679906,-0.054655999999999996,-0.273036,6.2475,-34.5275,-4.515
282,9408347,0.861808,-0.061488,-0.02745,-0.2625,-43.3475,-10.325
283,9408444,0.7278521,-0.128466,0.204228,8.75,-25.7075,-6.0725
284,9408540,0.7046720999999999,-0.112606,-0.159088,0.8925,-8.9425,3.2725
285,9408637,0.700646,-0.10540799999999999,-0.165676,0.105,-17.1675,6.93
286,9408734,0.694546,-0.12175599999999999,-0.080398,-5.5825,-15.75,9.24
287,9408830,0.72102,-0.098332,-0.024888,-5.74,-10.15,10.0625
288,9408927,0.7329760000000001,-0.078446,-0.07588400000000001,-5.2325,-9.5375,7.5425
289,9409024,0.727608,-0.108946,-0.08503401,-3.9725,-8.995,4.935
290,9409121,0.720166,-0.102602,-0.068442,-0.0875,-2.94,4.76
291,9409217,0.740296,-0.055265999999999996,-0.047092,3.36,3.99,2.485
292,9409314,0.7506659999999999,-0.05587601,-0.03416,6.3175,9.485,0.4025
293,9409411,0.774334,-0.042456,-0.045262000000000004,6.0375,12.8975,-1.47
294,9409507,0.820816,-0.046604,-0.016104,4.5325,14.9275,-2.345
295,9409604,0.8754719999999999,-0.025254,0.019032,2.625,11.48,-2.625
296,9409701,0.9110959999999999,-0.01037,0.05002,-2.5725,6.09,-4.0775
297,9409798,0.9152440000000001,-0.000366,0.082472,-6.8775,1.19,-7.6475
298,9409894,0.9086559999999999,-0.018788,0.12456199999999999,-10.3775,-2.065,-12.0225
299,9409991,0.892552,-0.008784,0.177144,-13.0725,-3.3425,-15.575
300,9410088,0.9200021,-0.013908000000000002,0.16043,-16.555,-4.0075,-18.4625
301,9410185,0.936106,-0.005978,0.17641199999999999,-19.215,-6.3525,-18.62
302,9410281,0.934642,0.04867801,0.15372,-18.9175,-9.1,-17.5525
303,9410378,0.9828321,0.054655999999999996,0.11577799999999999,-19.5825,-13.9125,-17.7625
304,9410475,1.1034899999999999,0.041358,0.066246,-23.8175,-15.6275,-18.9175
305,9410572,1.1605860000000001,0.036966000000000006,-0.023912,-23.5375,-15.2075,-20.0375
306,9410668,1.1472879999999999,-0.016104,-0.126392,-20.7025,-18.55,-23.1
307,9410765,1.1163,0.069906,-0.162504,-23.2575,-22.785,-25.165
308,9410862,1.027484,0.197152,-0.07332201,-26.18,-17.1325,-26.3725
309,9410959,0.9552601000000001,0.27510999999999997,0.047580000000000004,-23.0825,0.1575,-26.6
310,9411055,0.934642,0.242536,0.147742,-19.11,18.1825,-23.3625
311,9411152,0.942694,0.076616,0.23363,-15.89,19.6175,-16.5375
312,9411249,1.000644,-0.128222,0.31476,-17.2375,9.5725,-9.45
313,9411346,1.16327,-0.314882,0.21215799999999999,-31.4825,-10.3425,-7.49
314,9411442,1.47193,-0.48836599999999997,-0.05856,-46.1125,-27.23,-14.805
315,9411539,1.599664,-0.138104,-0.061975999999999996,-43.1725,-11.48,-8.96
316,9411636,1.44692,0.152134,-0.16592,-37.695,12.7225,-4.1475
317,9411733,1.209142,0.254736,-0.367342,-14.7,24.4475,-3.535
318,9411829,1.202676,0.34099,-0.674294,-1.2775,37.555,0.49
319,9411926,1.333948,0.37088000000000004,-0.462258,13.825,36.68,8.575
320,9412023,1.242082,0.446642,-0.474214,9.4325,25.13,16.8525
321,9412120,1.141432,0.377956,-0.478972,18.4275,26.845,22.8025
322,9412216,1.189378,0.246928,-0.380396,16.205,33.6875,23.765
323,9412313,1.222684,0.069906,-0.388692,14.595,39.27,27.02
324,9412410,1.264042,-0.03172,-0.47909399999999996,7.105,26.7575,30.6425
325,9412506,1.242936,0.05929201,-0.44639799999999996,1.6975,10.0975,31.5175
326,9412603,1.248426,-0.09320801,-0.43041599999999997,10.6225,15.96,15.0325
327,9412700,1.220976,-0.08369201,-0.33428,8.9075,24.6575,9.415
328,9412797,1.158268,-0.00183,-0.427976,-0.2275,25.5675,14.91
329,9412894,1.24196,-0.023058000000000002,-0.40589400000000003,5.53,13.4575,18.97
330,9412990,1.276852,-0.011834,-0.22728600000000002,9.52,10.92,21.5775
331,9413087,1.2184139999999999,0.028548,-0.10430999999999999,11.8125,4.235,21.2625
332,9413184,1.105442,0.087108,-0.15982000000000002,13.125,-3.3425,20.7725
333,9413280,0.9903959999999999,0.093574,-0.257664,7.98,-4.76,18.9525
334,9413377,0.939522,0.15091400000000002,-0.305854,9.7825,-1.8375,17.01
335,9413474,0.8949921000000001,0.048556,-0.296216,4.2175,-11.6725,9.5725
336,9413571,0.8741300999999999,0.005856,-0.21313400000000002,10.6225,-26.3375,9.0125
337,9413667,0.8838901,0.019764,-0.095648,14.6475,-33.2675,4.305
338,9413764,0.844606,0.0061,-0.061975999999999996,15.1725,-35.1925,2.3275
339,9413861,0.7881199999999999,0.024888,-0.10492,10.01,-33.145,2.2925
340,9413958,0.7067460999999999,0.049898000000000005,-0.058803999999999995,10.7275,-30.59,3.3775
341,9414054,0.699914,0.06929600000000001,0.023424,11.76,-27.9475,6.79
342,9414151,0.652212,0.08857201,-0.04941,7.5775,-21.525,10.2025
343,9414248,0.7013781,0.083936,-0.09418401,-1.1375,-19.6875,13.9475
344,9414345,0.6489180999999999,0.08784,-0.060024,10.885,-16.73,12.81
345,9414441,0.677222,0.07698201,-0.07381001,7.4375,-21.8575,7.0525
346,9414538,0.7278521,0.09552601,0.004026,9.415,-18.48,1.5225
347,9414635,0.7086979999999999,0.07381001,0.05795,10.0625,-14.035,-4.165
348,9414731,0.702476,0.10797000000000001,0.036966000000000006,7.49,-10.57,-6.02
349,9414828,0.7184581,0.094306,-0.013663999999999999,7.945,-2.0475,-5.1625
350,9414925,0.761158,0.08113001,-0.020862000000000002,10.3075,2.3975,-4.8825
351,9415022,0.770918,0.08918200000000001,-0.005612,9.835,-0.5075,-3.185
352,9415118,0.791536,0.060024,0.034526,10.99,-4.76,-1.1375
353,9415215,0.782508,0.058072000000000006,0.078446,10.71,-8.1025,2.625
354,9415312,0.772626,0.050386,0.14310599999999998,13.125,-12.355,6.545
355,9415409,0.731146,0.065026,0.17385,16.975,-15.505,9.3275
356,9415505,0.7150420999999999,0.071248,0.11333800000000001,18.2,-18.3925,7.9625
357,9415602,0.768844,0.053801999999999996,0.040382,19.9675,-20.5275,4.97
358,9415699,0.796782,0.081252,-0.072712,20.895,-22.4175,5.705
359,9415796,0.883524,0.079178,-0.07234600000000001,21.805,-28.91,6.86
360,9415892,0.9267120000000001,0.111508,0.074298,32.1125,-29.6975,7.8225
361,9415989,0.9409860999999999,0.139568,0.026474,40.1625,-27.125,10.255
362,9416086,0.99308,0.11333800000000001,0.050142,59.4475,-28.1575,11.9875
363,9416183,0.8685181000000001,0.015006,0.006832001,70.035,-23.87,13.545
364,9416279,0.823622,-0.03538,-0.049776,55.8775,-15.5225,14.42
365,9416376,0.9267120000000001,-0.12053599999999999,0.11358199999999999,35.56,-0.8925,14.0
366,9416473,1.142408,-0.343674,0.307684,26.705,21.63,11.165
367,9416570,1.104222,-0.446642,0.176656,6.5275,27.685,0.7525
368,9416666,1.1605860000000001,-0.25424800000000003,0.174094,-4.34,24.0975,-10.815
369,9416763,1.20353,-0.081618,0.24326799999999998,7.735,16.2925,-6.79
370,9416860,1.18462,0.039894,0.065148,26.2325,-3.15,6.0025
371,9416957,1.476444,-0.08845001,-0.202154,27.7025,-5.04,15.225
372,9417053,1.677988,-0.157502,-0.06636801,21.385,6.72,6.6325
373,9417150,1.54635,-0.10248,-0.169824,1.6975,6.86,-7.07
374,9417247,1.349808,-0.1098,-0.521794,-33.915,16.87,-18.7075
375,9417344,1.356884,-0.24912399999999998,-0.409432,-35.7525,33.775,-33.88
376,9417440,1.323944,-0.22630999999999998,-0.497638,-48.7375,29.995,-55.055
377,9417537,1.215242,-0.00549,-0.718214,-65.4675,28.7525,-70.5425
378,9417634,1.223782,0.10650599999999999,-0.44542200000000004,-41.4925,37.7475,-80.2375
379,9417730,1.189622,0.011956,-0.38795999999999997,-20.4925,40.495,-83.02
380,9417827,1.087386,0.182268,-0.377834,-9.8175,27.23,-66.36
381,9417924,1.2428139999999999,0.342454,-0.40528400000000003,2.1175,25.6725,-49.315
382,9418021,1.324432,0.24095,-0.324154,13.1075,26.075,-33.9325
383,9418117,1.290394,0.07991000000000001,-0.270474,16.345,8.4,-31.08
384,9418214,1.134844,0.091378,-0.27279200000000003,12.495,-5.5125,-29.33
385,9418311,1.206458,0.004636001,-0.212646,5.8625,-9.9225,-29.8025
386,9418408,1.262944,-0.035624,-0.137372,-0.665,-11.6025,-27.9825
387,9418504,1.2073120000000002,-0.08662001,-0.11577799999999999,0.4375,-16.8175,-24.6225
388,9418601,1.122034,-0.183488,-0.137982,-0.8400001,-26.425,-19.215
389,9418698,1.026386,-0.192882,-0.181292,-4.13,-24.5875,-12.8275
390,9418795,0.9812460999999999,-0.194468,-0.160186,-8.54,-24.22,-8.435
391,9418891,0.9368380999999999,-0.187026,-0.134078,-13.02,-26.67,-4.55
392,9418988,0.8662001,-0.12041400000000001,-0.141276,-17.0275,-29.855,-1.2425
393,9419085,0.793488,-0.077714,-0.1891,-16.31,-28.98,0.1575
394,9419182,0.7928781,-0.08052000000000001,-0.101016,-16.205,-25.305,-0.7
395,9419278,0.765672,-0.01708,-0.130296,-22.995,-22.085,-0.35
396,9419375,0.75457,-0.014518000000000001,-0.10309000000000001,-22.19,-25.725,0.945
397,9419472,0.7670140000000001,-0.010858,-0.069784,-21.5075,-24.4475,-0.2275
398,9419569,0.718824,-0.000244,-0.110776,-23.3625,-24.85,2.4325
399,9419665,0.686738,-0.018788,-0.022813999999999997,-18.445,-21.5075,4.8125
400,9419762,0.67405,-0.080276,0.031110000000000002,-13.3875,-14.84,6.2825
401,9419859,0.7199220000000001,-0.079544,-0.025131999999999998,-14.175,-12.145,10.99
402,9419956,0.7556681,-0.056608000000000006,-0.011956,-11.515,-11.4275,12.74
403,9420052,0.69845,-0.031964,-0.059536,-8.68,-11.2875,10.9725
404,9420149,0.7056479999999999,-0.050263999999999996,-0.05929201,-10.4125,-11.62,8.12
405,9420246,0.727242,-0.009882,0.002318,-8.6275,-7.4375,5.81
406,9420342,0.70516,-0.019764,-0.09284201,-5.915,-9.5025,3.08
407,9420439,0.7237041,0.00488,-0.028669999999999998,-1.295,-13.4225,-0.035
408,9420536,0.7483479999999999,0.011834,-0.001586,-1.225,-12.8975,-3.3425
409,9420633,0.7755541,0.030378,0.03721,4.6725,-15.225,-6.1425
410,9420729,0.8095920999999999,0.019642,0.06880801,3.71,-16.3275,-8.3475
411,9420826,0.829722,0.038674,0.132126,4.3575,-18.3225,-10.3775
412,9420923,0.812032,0.0244,0.127246,1.89,-18.9175,-13.1775
413,9421020,0.8115439999999999,-0.024766,0.09711201,-1.2775,-18.4625,-16.3975
414,9421116,0.8615640999999999,-0.006832001,0.137982,-6.895,-16.24,-20.2825
415,9421213,0.9142680000000001,0.0064659999999999995,0.19337000000000001,-14.1225,-16.2225,-22.295
416,9421310,0.9263459999999999,0.038674,0.205204,-15.5575,-16.8,-22.435
417,9421407,0.9620920000000001,0.01342,0.12627,-15.4875,-17.5,-22.4875
418,9421503,1.069574,-0.005978,-0.049898000000000005,-17.675,-20.615,-22.12
419,9421600,1.157292,-0.058682000000000005,-0.202398,-14.84,-25.2175,-21.525
420,9421697,1.2190239999999999,-0.019886,-0.18605,-7.945,-32.48,-23.0475
421,9421794,1.18035,0.120902,-0.161894,-7.9975,-35.6125,-24.745
422,9421890,1.205726,0.12041400000000001,0.17616800000000002,-6.09,-24.2375,-25.935
423,9421987,1.131672,0.171532,0.435174,-8.33,5.5825,-25.7425
424,9422084,1.094706,0.14213,0.36087600000000003,-12.8625,28.8225,-19.7225
425,9422181,1.1364299999999998,-0.022692,0.23753400000000002,-10.3775,34.895,-9.6775
426,9422277,1.167784,-0.06929600000000001,0.272914,-10.5175,14.875,-0.245
427,9422374,1.1537540000000002,-0.25864000000000004,0.09613601,-27.755,-17.745,0.0
428,9422471,1.4428940000000001,-0.157502,-0.183,-23.205,-13.72,-6.405
429,9422568,1.588074,0.037454,-0.262178,-18.9175,8.61,-4.62
430,9422664,1.395314,0.22326,-0.364536,-3.535,10.0625,-3.6925
431,9422761,1.282952,0.287188,-0.6480640000000001,13.3175,18.865,-2.065
432,9422858,1.280634,0.41602,-0.573156,18.4275,34.4225,6.7375
433,9422955,1.313452,0.5666899999999999,-0.7861680999999999,20.405,33.53,20.93
434,9423051,1.239276,0.42028999999999994,-0.5544899999999999,53.0075,39.0075,32.4625
435,9423148,1.116666,0.20313,-0.391986,40.0925,46.9525,42.245
436,9423245,1.148264,-0.022813999999999997,-0.35782600000000003,32.3225,41.02,50.5225
437,9423342,1.2439120000000001,-0.124074,-0.389058,25.2525,34.51,47.25
438,9423438,1.301252,-0.09930800000000001,-0.44334799999999996,14.665,32.7425,29.575
439,9423535,1.278316,-0.22801799999999997,-0.364048,13.9125,18.6725,22.9425
440,9423632,1.143018,-0.15237799999999999,-0.35014,11.6725,18.3575,24.8325
441,9423728,1.2045059999999999,-0.116022,-0.439932,-4.375,19.5825,27.44
442,9423825,1.3357780000000001,-0.06649,-0.210206,10.8325,21.42,28.1225
443,9423922,1.2397639999999999,-0.008296000999999999,-0.162504,11.3575,5.88,20.2475
444,9424019,1.035902,0.062098,-0.281454,1.155,-29.9425,19.6525
445,9424115,0.9343981,0.11736400000000001,-0.30988000000000004,-0.6825,-38.605,18.935
446,9424212,0.9437921,0.201666,-0.180926,0.42,-29.2425,14.98
447,9424309,0.8703481,0.190442,-0.047824,7.035,-40.145,10.29
448,9424406,0.80642,0.177876,0.01464,6.405,-48.2825,7.7175
449,9424502,0.784338,0.11248399999999999,-0.07234600000000001,5.7575,-38.395,2.7825
450,9424599,0.7399300999999999,0.061366,-0.14383800000000002,10.15,-35.56,-1.6275
451,9424696,0.74054,0.04148,-0.10943399999999999,9.6425,-40.0575,-3.255
452,9424792,0.67405,-0.007076001,-0.023790000000000002,15.2425,-30.73,-5.32
453,9424889,0.591212,0.041724000000000004,-0.131638,6.51,-34.02,-0.245
454,9424986,0.623786,0.07893401,-0.057584,9.275,-24.745,0.2275
455,9425083,0.603168,0.04697001,-0.08052000000000001,6.51,-20.02,5.2675
456,9425179,0.612318,0.063928,-0.036844,5.0225,-21.0,8.68
457,9425276,0.659776,0.08174001,0.006222,6.405,-13.23,6.4925
458,9425373,0.754204,0.05795,-0.05977999999999999,5.705,-7.735,3.675
459,9425470,0.748104,0.057339999999999995,0.007442,5.915,-6.8425,2.73
460,9425566,0.73078,0.063074,0.043188,5.5475,-1.225,0.7525
461,9425663,0.786778,0.033062,-0.019764,2.6425,7.5775,-2.695
462,9425760,0.807396,0.027083999999999997,-0.07881200000000001,2.3275,3.4475,-1.75
463,9425857,0.8026380999999999,0.032086,-0.07490801,2.3275,-6.125,-0.2975
464,9425953,0.803492,0.020618,-0.044407999999999996,5.0575,-13.265,1.96
465,9426050,0.81618,0.018788,0.010614,7.07,-21.035,3.4475
466,9426147,0.8291120999999999,0.038674,0.049044,10.6225,-24.1325,5.81
467,9426244,0.8239880999999999,0.044286,0.08857201,14.9625,-25.9525,8.575
468,9426340,0.81984,0.032208,0.114802,17.5,-25.235,10.0975
469,9426437,0.7983680000000001,0.09650201,0.116998,18.0075,-23.4675,12.985
470,9426534,0.8211821,0.09247601,0.14493599999999998,18.165,-22.7675,12.6175
471,9426630,0.8439959999999999,0.079544,0.171044,23.0475,-23.6075,12.6
472,9426727,0.8256960999999999,0.015128,0.16128399999999998,27.3525,-31.5175,13.825
473,9426824,0.774822,-0.017446,0.119072,29.2425,-39.0075,19.915
474,9426921,0.8718120999999999,-0.026351999999999997,0.16226,28.875,-36.3825,24.1325
475,9427017,0.9772200999999999,0.028792,0.168482,35.525,-17.29,25.305
476,9427114,0.8757159999999999,-0.005368,-0.085522,38.2025,-11.095,24.99
477,9427211,0.8669319999999999,-0.069784,-0.208498,21.665,-17.045,26.775
478,9427308,1.100684,-0.203496,0.023546,12.39,4.7425,27.125
479,9427404,1.284294,-0.38369000000000003,0.20788800000000002,10.325,25.4275,23.485
480,9427501,1.2933219999999999,-0.28157600000000005,-0.001952,-1.995,26.32,12.5825
481,9427598,1.294298,0.006587999999999999,0.009394,-4.9175,23.695,7.21
482,9427694,1.1660760000000001,0.26169000000000003,0.213988,29.4,11.69,10.465
483,9427791,1.117398,0.31171,0.06941801,51.3625,-23.3975,23.975
484,9427888,1.413858,0.188246,-0.08454600000000001,48.545,-28.4025,22.505
485,9427985,1.61101,-0.106018,-0.028914,26.32,-3.7975,0.21
486,9428081,1.408002,-0.20788800000000002,-0.21618400000000002,-19.74,6.44,-24.71
487,9428178,1.36152,-0.34221,-0.49959,-64.715,34.44,-44.905
488,9428275,1.38592,-0.492758,-0.574742,-81.90001,55.0025,-61.1625
489,9428372,1.2733139999999998,-0.288652,-0.7951961,-98.875,37.7475,-75.0575
490,9428468,1.340658,0.0017079999999999999,-0.9261021,-94.255,28.7875,-86.24
491,9428565,1.253184,0.031232,-0.522038,-50.6275,30.695,-87.8675
492,9428662,1.141432,-0.00671,-0.316712,-24.815,24.7625,-85.645
493,9428759,1.254404,0.384666,-0.41455600000000004,-10.605,23.03,-66.8675
494,9428855,1.2763639999999998,0.35197,-0.596092,-4.3225,43.4,-40.95
495,9428952,1.344196,0.160918,-0.338428,15.9775,23.485,-24.675
496,9429049,1.286856,0.24461,-0.39174200000000003,11.095,-2.17,-20.965
497,9429146,1.276242,0.16909200000000002,-0.35587399999999997,12.4075,-12.355,-19.705
498,9429242,1.324432,0.02623,-0.150304,10.4475,-10.6575,-26.915
499,9429339,1.356152,-0.05648601,-0.190198,0.0875,-7.175,-28.7875
500,9429436,1.296494,-0.054778,-0.13298,-0.245,-23.87,-23.59
501,9429533,1.148508,-0.21374400000000002,-0.089792,-1.225,-41.615,-19.8275
502,9429629,0.9889319999999999,-0.222284,-0.115534,-8.6975,-37.5025,-12.74
503,9429726,0.945744,-0.217038,-0.146278,-16.625,-28.9975,-9.5025
504,9429823,0.8720559999999999,-0.226554,-0.11041,-14.9975,-29.68,-8.995
505,9429920,0.780678,-0.144448,-0.156404,-22.0675,-33.4775,-6.125
506,9430016,0.6893,-0.08906,-0.156648,-22.47,-31.85,-3.675
507,9430113,0.633912,-0.044164,-0.166652,-22.295,-30.8525,-5.74
508,9430210,0.624884,-0.06746601,-0.12431800000000001,-20.51,-32.725,-6.23
509,9430307,0.565836,0.006344,-0.08174001,-17.36,-25.2875,-1.855
510,9430403,0.686128,-0.034038,-0.198982,-20.7375,-27.6675,-2.905
511,9430500,0.6350100000000001,-0.026962,-0.020984,-19.775,-43.225,-3.325
512,9430597,0.6378159999999999,-0.11541199999999999,0.022813999999999997,-15.3475,-21.5775,2.3275
513,9430693,0.661118,-0.07515201,-0.002806,-15.47,-9.835,7.1225
514,9430790,0.634278,-0.07832401,-0.031964,-11.5325,-15.19,6.58
515,9430887,0.6206141,-0.08235001,-0.118584,-13.125,-13.79,5.1275
516,9430984,0.640134,-0.047092,-0.156038,-15.0675,-7.3325,3.7275
517,9431080,0.6420859999999999,-0.039406000000000004,-0.082472,-6.58,-6.545,0.875
518,9431177,0.66246,-0.09223200000000001,-0.033062,-4.62,-3.255,-3.325
519,9431274,0.73444,-0.000732,-0.041602,-2.52,4.795,-4.3575
520,9431371,0.7700640999999999,0.015006,-0.01342,-3.465,7.9275,-6.4925
521,9431467,0.7388319999999999,0.019275999999999998,0.030012,-3.29,3.5875,-8.19
522,9431564,0.749934,0.026351999999999997,0.05819401,-5.285,2.7125,-9.345
523,9431661,0.8252079999999999,0.033916,0.07893401,-7.5775,4.445,-10.2725
524,9431758,0.853756,0.026595999999999998,0.119316,-10.1675,2.975,-11.62
525,9431854,0.8846219999999999,0.011712,0.115656,-14.245,2.17,-13.3
526,9431951,0.96014,-0.011956,0.11626600000000001,-20.125,2.135,-15.12
527,9432048,0.9882001,-0.0017079999999999999,0.192272,-20.9125,-0.1225,-17.7275
528,9432144,0.949892,0.029646,0.21886799999999998,-19.845,-4.795,-21.77
529,9432241,0.939522,0.07039400000000001,0.28328400000000004,-16.03,-16.1525,-25.3575
530,9432338,1.03151,0.09784401,0.250954,-13.825,-25.0775,-26.8975
531,9432435,1.20048,0.058926,0.15311,-18.375,-25.1825,-26.8275
532,9432531,1.347734,0.08003201,-0.202154,-23.4325,-27.3,-26.5475
533,9432628,1.2755100000000001,0.09418401,-0.31146599999999997,-23.2925,-53.6375,-30.345
534,9432725,0.9978379999999999,0.24766,-0.028182,-16.555,-42.2625,-32.9875
535,9432822,0.9067040000000001,0.34892,0.16909200000000002,-22.365,0.245,-32.445
536,9432918,0.844118,0.323666,0.241438,-20.5275,30.555,-26.53
537,9433015,0.906216,0.152134,-0.023546,-12.8275,48.965,-19.145
538,9433112,1.173274,-0.067588,-0.36587800000000004,15.8025,51.8175,-7.91
539,9433209,1.4482620000000002,-0.11577799999999999,0.010614,20.16,7.5425,5.2675
540,9433305,1.403732,-0.219234,0.28304,-16.38,-35.0525,9.4325
541,9433402,1.380064,-0.23387399999999997,-0.11919400000000001,-27.86,-9.555,5.32
542,9433499,1.4812020000000001,-0.018544,-0.532408,-12.11,42.14,3.43
543,9433596,1.48169,0.111996,-0.542168,-1.435,42.5075,6.3
544,9433692,1.3496860000000002,0.252906,-0.48531599999999997,6.265,33.6,12.1975
545,9433789,1.38531,0.326472,-0.61488,24.0625,49.3675,22.61
546,9433886,1.275876,0.390766,-0.546926,24.7975,49.2275,33.985
547,9433983,1.130696,0.316346,-0.378688,30.0125,43.61,41.58
548,9434079,1.2197559999999998,0.10858,-0.554978,20.965,31.185,43.3125
549,9434176,1.435818,0.071492,-0.5030060000000001,10.605,23.6425,40.2325
550,9434273,1.413248,0.230702,-0.35892399999999997,-4.2175,17.5175,35.49
551,9434370,1.317844,-0.032208,-0.239486,8.085,-6.09,18.1475
552,9434466,1.136796,-0.12017,-0.26779000000000003,13.1075,-12.32,15.085
553,9434563,1.196942,-0.065026,-0.44822799999999996,-4.7775,0.7,18.3925
554,9434660,1.221708,-0.061,-0.303292,4.655,0.735,19.4775
555,9434756,1.244644,-0.079544,-0.169824,7.9975,-4.27,18.7425
556,9434853,1.092388,0.015616,-0.08893801,11.8475,-10.5875,12.53
557,9434950,0.9702661,0.08466801,-0.162138,12.95,-23.66,11.0425
558,9435047,0.91012,0.11394800000000001,-0.22167399999999998,8.9775,-20.3,7.735
559,9435143,0.89975,0.086132,-0.22509,6.9125,-13.4225,5.705
560,9435240,0.934154,0.05929201,-0.15018199999999998,9.1875,-16.52,7.7875
561,9435337,0.880352,-0.023424,-0.08430201,16.6775,-24.0975,9.2225
562,9435434,0.845094,-0.059536,-0.11041,12.32,-33.9675,7.105
563,9435530,0.8294780999999999,-0.031354,-0.053436000000000004,13.965,-36.5925,3.4125
564,9435627,0.65758,-0.01403,-0.055265999999999996,12.0575,-35.0875,4.9875
565,9435724,0.56852,-0.013175999999999998,-0.174582,2.2225,-35.4725,10.5
566,9435821,0.67527,0.045018,-0.057828,4.97,-36.75,9.4675
567,9435917,0.60451,0.060146000000000005,0.019154,9.6075,-38.29,9.7125
568,9436014,0.5913341,0.08759601,-0.064538,6.1775,-39.795,8.645
569,9436111,0.658068,0.109678,-0.05063,8.085,-32.375,5.74
570,9436208,0.68686,0.120048,0.014518000000000001,12.3375,-24.9375,5.3725
571,9436304,0.686738,0.129076,0.07710399999999999,9.3275,-18.3575,1.82
572,9436401,0.687348,0.133102,0.021106,7.4025,-5.9325,-3.535
573,9436498,0.6512359999999999,0.12065799999999999,-0.047214,6.0725,-2.485,-5.145
574,9436595,0.6573359999999999,0.10638399999999999,-0.062098,6.02,-0.245,-4.0075
575,9436691,0.6855180000000001,0.106262,-0.002074,6.265,2.2225,-1.6275
576,9436788,0.66673,0.100162,0.005612,5.0575,2.2925,2.4675
577,9436885,0.6736840000000001,0.07527400000000001,0.043432,4.6725,-1.8375,5.3725
578,9436982,0.656848,0.09089001,0.124196,5.775,-2.9225,8.3125
579,9437078,0.694546,0.08052000000000001,0.12431800000000001,7.56,-4.0775,7.455
580,9437175,0.7468840999999999,0.07222401,0.039772,10.4825,-7.7,7.42
581,9437272,0.856074,0.05002,0.0183,14.4375,-13.23,8.1725
582,9437369,0.9284200999999999,0.067344,0.011346,18.655,-18.0775,9.6775
583,9437465,0.941108,0.07307801,-0.008296000999999999,21.7,-26.705,10.745
584,9437562,0.993568,0.08820599999999999,0.062586,28.8925,-32.1825,12.67
585,9437659,1.050298,0.08479,0.13054000000000002,47.74,-27.1075,14.07
586,9437756,1.034438,0.074298,0.069784,71.015,-28.42,16.905
587,9437852,0.9301280000000001,-0.07307801,-0.158722,68.11,-33.5825,21.4375
588,9437949,0.8367979999999999,-0.13054000000000002,-0.184586,34.1425,-13.825,22.295
589,9438046,1.151924,-0.314882,0.223138,11.0075,10.01,26.3375
590,9438142,1.219268,-0.5380199999999999,0.407236,16.9575,22.6625,19.67
591,9438239,1.1064180000000001,-0.19337000000000001,0.11467999999999999,-1.715,14.8575,-2.5725
592,9438336,1.1028799999999999,0.089792,0.254858,15.26,13.825,-6.1075
593,9438433,1.017724,0.191174,0.050263999999999996,39.3225,11.9,5.4075
594,9438529,1.456558,0.071248,-0.342332,27.475,6.79,11.2525
595,9438626,1.6801840000000001,-0.08405800000000001,-0.057828,17.29,5.3375,-4.305
596,9438723,1.485472,-0.12175599999999999,-0.263154,-9.8525,6.265,-20.7725
597,9438820,1.425936,-0.20178800000000002,-0.651968,-40.25,26.32,-33.39
598,9438916,1.49816,-0.294996,-0.522648,-41.195,44.6775,-49.2625
599,9439013,1.449238,-0.263886,-0.738466,-59.885,39.095,-70.2625
600,9439110,1.299056,-0.015982,-0.8990181,-79.9225,37.9225,-83.30001
601,9439207,1.103856,0.04392,-0.43505200000000005,-35.8575,38.92,-94.01
602,9439303,1.248792,-0.264374,-0.44371400000000005,-21.91,27.265,-90.0375
603,9439400,1.14924,0.237168,-0.309148,-6.0375,19.285,-55.5975
604,9439497,1.25965,0.414678,-0.279746,1.47,10.955,-38.6575
605,9439594,1.310646,0.276818,-0.254126,22.0325,2.7475,-23.6425
606,9439690,1.267092,0.28731,-0.314882,18.1825,-2.345,-26.1975
607,9439787,1.284538,0.20178800000000002,-0.292678,16.6425,-4.165,-29.4525
608,9439884,1.24806,0.043798000000000004,-0.262178,6.2825,-10.64,-30.2925
609,9439981,1.219878,-0.035136,-0.22801799999999997,2.31,-15.9775,-28.4375
610,9440077,1.210972,-0.093696,-0.160918,3.71,-16.24,-25.655
611,9440174,1.139846,-0.177876,-0.06075601,8.5925,-21.525,-21.5425
612,9440271,0.9946659999999999,-0.23228800000000002,-0.130052,7.56,-26.39,-14.56
613,9440368,0.961726,-0.15420799999999998,-0.133468,-1.1725,-25.97,-10.675
614,9440464,0.9444020000000001,-0.18605,-0.07551801,-2.3275,-24.325,-11.2875
615,9440561,0.8331381,-0.098332,-0.17397200000000002,-5.7225,-28.245,-8.365
616,9440658,0.7829961,-0.046482,-0.146644,-8.4875,-33.075,-4.725
617,9440754,0.724314,-0.035746,-0.055265999999999996,-6.3175,-25.62,-6.195
618,9440851,0.681126,-0.033794,-0.134078,-7.6125,-24.6575,-2.4675
619,9440948,0.659532,-0.018056,-0.019398,-3.7625,-25.4275,-2.73
620,9441045,0.661606,-0.025131999999999998,-0.061,-5.705,-23.0825,-2.4675
621,9441141,0.6886899999999999,-0.0017079999999999999,0.02806,-7.455,-17.01,-1.225
622,9441238,0.6420859999999999,-0.05856,-0.168848,-7.8575,-12.3025,0.8400001
623,9441335,0.680638,-0.089792,-0.062220000000000004,-4.655,-27.1075,2.345
624,9441432,0.694912,-0.09455001,0.028182,-6.055,-21.9625,3.71
625,9441528,0.708332,-0.10638399999999999,0.030622000000000003,-3.3775,-15.82,6.58
626,9441625,0.709064,-0.130906,-0.05002,-5.81,-13.5275,6.3525
627,9441722,0.705038,-0.13078399999999998,-0.04148,-3.2725,-10.675,6.8425
628,9441819,0.70394,-0.0976,-0.033794,-4.83,-8.4175,5.6525
629,9441915,0.701134,-0.086864,-0.005246,-3.535,-11.4625,2.66
630,9442012,0.7105279999999999,-0.092964,0.060877999999999995,-5.6525,-11.13,0.6475
631,9442109,0.739564,-0.07234600000000001,0.09259801,-5.285,-3.815,-1.365
632,9442206,0.773724,-0.046360000000000005,0.062220000000000004,-3.9025,0.35,-2.3625
633,9442302,0.800564,-0.01464,0.082472,-3.5875,1.61,-3.9725
634,9442399,0.8182541,-0.03599,0.087108,-6.9825,0.42,-5.8625
635,9442496,0.8504620999999999,-0.05563200000000001,0.097478,-12.705,-3.3775,-8.995
636,9442593,0.8554641,-0.045018,0.132492,-18.8125,-7.035,-13.7375
637,9442689,0.909998,-0.054167999999999994,0.144448,-22.3125,-7.875,-17.325
638,9442786,1.016748,-0.079422,0.106018,-23.415,-8.9425,-18.445
639,9442883,1.18279,-0.07600599999999999,0.037942000000000004,-21.735,-12.74,-17.6925
640,9442980,1.2719719999999999,-0.02928,-0.08698601,-21.525,-17.92,-17.5875
641,9443076,1.309304,0.027572000000000003,-0.09516001,-19.25,-32.4275,-17.4825
642,9443173,1.247206,0.032451999999999995,0.026962,-25.235,-43.435,-18.34
643,9443270,1.053836,0.06490399999999999,0.20727800000000002,-25.235,-34.72,-20.3525
644,9443367,0.918538,0.08954801,0.246806,-28.7175,-11.2,-19.5825
645,9443463,0.918294,0.134078,0.21276799999999998,-25.375,16.9925,-12.3725
646,9443560,1.018334,0.091744,0.22716399999999998,-16.73,34.2125,-5.0575
647,9443657,1.073234,0.078446,0.200324,-3.92,34.79,-0.0525
648,9443754,1.1392360000000001,-0.0854,-0.0032939999999999996,-1.9775,12.25,3.4125
649,9443850,1.362374,-0.007076001,-0.25132,-4.6025,0.8225,-1.505
650,9443947,1.491206,0.07808001,-0.22728600000000002,0.56,8.9075,-5.145
651,9444044,1.451922,0.243878,-0.363682,-5.6,6.4925,-8.1725
652,9444141,1.2465959999999998,0.38808200000000004,-0.659532,4.3575,6.4225,-10.9725
653,9444237,1.21512,0.401624,-0.5727901,14.35,17.1325,-4.5325
654,9444334,1.184864,0.46921199999999996,-0.649894,12.1625,21.7,9.5375
655,9444431,1.119106,0.29438600000000004,-0.48983000000000004,42.63,22.33,22.6975
656,9444528,1.1155680000000001,0.164456,-0.431148,32.6375,37.8,33.0925
657,9444624,1.276852,-0.012322,-0.30353600000000003,25.6725,52.7275,35.595
658,9444721,1.422886,-0.142496,-0.414312,27.2475,57.4875,35.2975
659,9444818,1.5738,-0.107848,-0.473116,23.9925,49.945,26.355
660,9444914,1.520364,-0.09784401,-0.450058,10.045,29.9075,28.07
661,9445011,1.3115,-0.078446,-0.444934,13.5975,15.8025,30.625
662,9445108,1.30479,-0.152622,-0.521794,7.805,10.01,30.8875
663,9445205,1.328336,0.020984,-0.219234,10.745,6.6675,32.0775
664,9445301,1.246474,0.020130000000000002,-0.082838,19.81,1.89,24.29
665,9445398,1.075796,0.125782,-0.24705,2.8525,-30.0475,20.9825
666,9445495,0.966728,0.17433800000000002,-0.280356,2.695,-46.9175,16.94
667,9445592,0.8991401,0.196054,-0.162382,8.89,-41.4575,12.1625
668,9445688,0.8195960999999999,0.20190999999999998,-0.142984,7.77,-46.9175,8.4525
669,9445785,0.797636,0.13298,-0.106628,8.96,-57.155,5.845
670,9445882,0.8253299999999999,0.053191999999999996,0.024888,14.7175,-51.7825,0.875
671,9445979,0.73017,0.047945999999999996,0.05917000000000001,10.8675,-44.6775,2.7825
672,9446076,0.746396,0.010004,-0.07881200000000001,9.835,-37.1,1.2425
673,9446172,0.69845,-0.00061,-0.068442,10.1675,-35.21,-1.785
674,9446269,0.6084141,-0.009150001,-0.06563601,7.9625,-32.2,0.1575
675,9446366,0.5437541,0.007808001,-0.07503,3.78,-24.465,6.475
676,9446463,0.5206960999999999,0.041846,-0.047945999999999996,7.035,-19.9325,8.295
677,9446559,0.557296,0.10345599999999999,-0.14457,-0.9625,-20.615,10.1325
678,9446656,0.635742,0.067832,-0.08235001,4.2525,-19.6525,7.84
679,9446753,0.7269979999999999,0.07637200000000001,0.04697001,5.4075,-17.1675,1.5925
680,9446850,0.7345619999999999,0.10004,0.06075601,1.33,-11.97,-2.66
681,9446946,0.7427361,0.07246799999999999,0.08564401,-0.665,-7.9975,-5.0925
682,9447043,0.7183361,0.05770599999999999,-0.059048,-5.1625,3.5175,-5.075
683,9447140,0.738466,0.06490399999999999,-0.081374,-4.2175,3.465,-2.2225
684,9447237,0.7259001,0.081496,-0.0305,-3.6225,1.6625,3.0275
685,9447333,0.7539600000000001,0.08649801,-0.015738,-2.205,0.0175,4.6725
686,9447430,0.774456,0.09259801,-0.015982,-1.61,-3.29,6.72
687,9447527,0.8119101,0.09089001,0.033184,1.225,-5.3375,8.6625
688,9447624,0.8252079999999999,0.110654,0.083814,4.2525,-5.8625,11.165
689,9447720,0.837408,0.132858,0.11224,8.19,-8.2775,13.09
690,9447817,0.8713241,0.131882,0.159942,14.385,-10.6225,14.1925
691,9447914,0.86498,0.147742,0.141032,18.0775,-12.25,14.1925
692,9448011,0.898042,0.07978801,0.10797000000000001,16.205,-21.07,13.4225
693,9448107,0.8712021000000001,-0.025742,0.138348,19.635,-23.94,13.58
694,9448204,0.9537959999999999,-0.105652,0.132614,25.8475,-22.1025,14.77
695,9448301,1.0056459999999998,-0.10492,0.057828,41.9125,-35.525,14.875
696,9448398,1.000766,-0.102724,-0.031964,45.2025,-50.6275,19.705
697,9448494,0.934276,-0.12566,-0.07332201,40.215,-21.035,21.9625
698,9448591,1.0065,-0.304634,0.031110000000000002,9.835,20.51,26.6175
699,9448688,1.23159,-0.44237200000000004,0.19959200000000002,-3.64,47.005,27.1075
700,9448785,1.1381379999999999,-0.041846,0.078202,-11.1825,31.15,5.355
701,9448881,1.125084,0.202032,0.29158,12.3025,5.9675,-1.05
702,9448978,0.9525761,0.41113999999999995,0.105896,43.295,3.3075,8.3825
703,9449075,1.26209,0.320494,-0.29377600000000004,36.1725,2.38,23.905
704,9449172,1.566114,0.13785999999999998,-0.12505,29.61,-1.26,10.7975
705,9449268,1.409832,-0.022082,0.008662000999999999,11.55,-4.2175,-13.9475
706,9449365,1.26758,-0.245952,-0.43236800000000003,-33.0225,18.445,-34.09
707,9449462,1.333704,-0.320006,-0.38966799999999996,-43.6975,49.0875,-44.8175
708,9449559,1.341024,-0.278526,-0.5309441,-55.79,47.1625,-58.835
709,9449655,1.324554,-0.11431400000000001,-0.8788879999999999,-73.395,36.26,-72.2225
710,9449752,1.2578200000000002,-0.027206,-0.679906,-55.5625,42.42,-79.5375
711,9449849,1.256722,-0.193248,-0.509228,-28.49,44.2925,-86.87
712,9449946,1.1984059999999999,-0.051118000000000004,-0.6298861,-30.45,42.6125,-78.5925
713,9450042,1.160708,0.13725,-0.37759000000000004,-19.04,25.935,-59.7975
714,9450139,1.269044,0.116022,-0.187026,-1.4,13.2125,-47.355
715,9450236,1.357494,0.239364,-0.223016,12.04,12.4775,-38.22
716,9450332,1.3764040000000002,0.367586,-0.36722,11.34,12.95,-35.7875
717,9450429,1.4313040000000001,0.22411399999999998,-0.329888,13.2475,8.5225,-35.9625
718,9450526,1.43655,0.108702,-0.25803000000000004,4.8825,-3.2025,-32.375
719,9450623,1.310646,-0.023424,-0.20923000000000003,-3.9375,-28.6125,-27.8075
720,9450719,1.15717,-0.167018,-0.061975999999999996,-4.305,-41.9825,-24.15
721,9450816,1.0911680000000001,-0.257786,-0.07869,-10.29,-34.02,-17.325
722,9450913,1.000034,-0.288774,-0.060024,-8.995,-33.145,-11.865
723,9451010,0.9412299999999999,-0.294752,-0.136274,-17.4475,-37.0125,-9.205
724,9451106,0.9018241,-0.235704,-0.08869401,-21.0525,-36.225,-6.16
725,9451203,0.812032,-0.195444,-0.12444000000000001,-23.6425,-38.815,-4.795
726,9451300,0.707234,-0.10614000000000001,-0.069906,-26.3025,-40.215,-1.61
727,9451397,0.6573359999999999,-0.103578,-0.044896,-22.6275,-31.675,-1.2775
728,9451493,0.6466,-0.015372,0.004026,-23.205,-26.145,2.5025
729,9451590,0.653554,0.003904,-0.02623,-27.3,-22.47,1.75
730,9451687,0.609268,0.06636801,-0.072956,-24.0275,-19.8975,4.5325
731,9451784,0.632204,0.028426,-0.06588,-18.375,-12.7225,3.9725
732,9451880,0.6280560000000001,0.013786000000000001,-0.142008,-17.2025,-11.83,6.335
733,9451977,0.60573,0.00671,-0.160918,-14.455,-15.785,5.6875
734,9452074,0.647454,-0.063928,-0.08052000000000001,-8.12,-16.975,4.5325
735,9452171,0.7330979999999999,-0.053436000000000004,0.033794,-8.575,-12.32,4.165
736,9452267,0.7165060000000001,-0.053801999999999996,-0.000122,-6.7725,-3.1675,2.3275
737,9452364,0.6852739999999999,-0.09186601,-0.07198,-4.41,-7.0175,-0.6825
738,9452461,0.7584741,-0.06771001,-0.080764,-7.7,-3.99,-2.8875
739,9452558,0.8066641,-0.055022,-0.05563200000000001,-5.5125,-1.26,-7.42
740,9452654,0.791902,-0.033672,-0.002318,-4.48,-4.725,-11.4625
741,9452751,0.7975140000000001,-0.02196,0.0488,-7.8225,-7.6825,-13.825
742,9452848,0.8304541,0.024156,0.08857201,-10.36,-8.3825,-14.105
743,9452945,0.8447280999999999,0.030866,0.11943800000000002,-11.8825,-12.0225,-14.525
744,9453041,0.858392,0.039528,0.15067,-14.0525,-15.75,-16.6075
745,9453138,0.853146,0.037454,0.158966,-16.415,-18.8475,-18.4625
746,9453235,0.8845,0.06075601,0.260592,-15.575,-24.5875,-20.5275
747,9453332,0.8740081000000001,0.12505,0.305,-18.9,-25.095,-22.9075
748,9453428,0.8838901,0.118828,0.22630999999999998,-18.6375,-27.58,-24.255
749,9453525,1.04859,0.075396,0.172996,-18.34,-32.2875,-24.1325
750,9453622,1.212802,0.079544,0.00183,-19.425,-26.9325,-24.29
751,9453719,1.282708,0.048434,-0.24766,-14.1575,-34.5275,-24.9025
752,9453815,1.0906799999999999,0.14884,-0.19483399999999998,-4.62,-45.7625,-27.8075
753,9453912,0.9934460999999999,0.234972,0.095648,-6.7375,-19.145,-32.095
754,9454009,0.95099,0.2257,0.205448,-14.0525,23.1525,-34.51
755,9454106,0.948184,0.15799000000000002,0.08784,-9.765,42.805,-31.8675
756,9454202,1.1740059999999999,0.056974000000000004,-0.23228800000000002,1.785,46.725,-19.0575
757,9454299,1.396778,0.06575800000000001,-0.134932,6.72,23.695,-3.43
758,9454396,1.348466,-0.083204,0.319152,-2.625,-13.125,5.2675
759,9454493,1.33285,-0.24668400000000001,0.09674601,-14.5425,-12.04,3.325
760,9454589,1.513898,-0.001464,-0.523746,-12.25,18.0075,-2.2225
761,9454686,1.697142,0.18043800000000002,-0.520574,1.505,31.6925,-1.5225
762,9454783,1.514752,0.274134,-0.322202,7.6475,25.27,3.955
763,9454880,1.287588,0.28694400000000003,-0.54961,21.035,29.6975,12.4775
764,9454976,1.18157,0.28767600000000004,-0.464942,21.105,25.62,21.28
765,9455073,1.091412,0.15579400000000002,-0.349652,12.215,24.115,27.1775
766,9455170,1.071404,-0.07137001,-0.25058800000000003,14.805,21.4025,35.9625
767,9455266,1.257698,-0.158356,-0.47177399999999997,-4.025,22.4875,39.62
768,9455363,1.471686,-0.002074,-0.473116,-6.9125,42.3675,36.015
769,9455460,1.42862,0.18043800000000002,-0.46421,1.995,50.645,37.2225
770,9455557,1.353712,0.0064659999999999995,-0.352946,18.9,15.19,29.47
771,9455653,1.1683940000000002,0.046482,-0.282918,16.03,-0.5075,31.9025
772,9455750,1.247938,0.004514,-0.41236000000000006,2.6425,8.1375,30.555
773,9455847,1.2075559999999999,0.053924,-0.2928,-2.275,-2.065,32.7775
774,9455944,1.161318,0.03355,-0.0008540001,17.15,-0.7525,27.86
775,9456040,1.077626,0.07027201,-0.05819401,6.65,-12.2325,18.9525
776,9456137,0.827282,0.050386,-0.304146,0.8400001,-32.4625,16.835
777,9456234,0.780556,0.18666,-0.28486999999999996,4.725,-28.98,17.71
778,9456331,0.791658,0.108458,-0.233264,10.01,-17.535,10.5175
779,9456427,0.787876,0.07698201,-0.01464,15.7325,-32.235,8.3125
780,9456524,0.7740901,0.053314,-0.024522,12.5475,-32.34,2.0475
781,9456621,0.8072741,0.054046000000000004,-0.011590000000000001,12.95,-30.5375,0.945
782,9456718,0.798856,0.071858,-0.07978801,14.42,-24.115,1.54
783,9456814,0.703818,0.042822000000000006,-0.12980799999999998,18.9175,-27.335,2.0825
784,9456911,0.6141479999999999,0.040138,-0.18043800000000002,15.575,-28.0175,2.94
785,9457008,0.547536,0.057096,-0.15701400000000001,10.745,-23.555,7.7
786,9457105,0.566446,0.083936,-0.023302,14.0525,-21.2625,9.8875
787,9457201,0.6067060000000001,0.09442801,-0.014396,10.745,-22.2775,8.61
788,9457298,0.617686,0.08113001,-0.05636401,7.2975,-22.89,6.825
789,9457395,0.667828,0.055510000000000004,0.012931999999999999,7.805,-15.5925,2.4675
790,9457492,0.749202,0.08674201,0.08113001,5.6875,-6.09,1.1375
791,9457588,0.7260220000000001,0.042578,-0.00061,4.4975,0.28,0.8925
792,9457685,0.755546,0.040016,-0.047458,6.2475,2.975,1.9075
793,9457782,0.780922,0.021716,-0.027816000000000004,6.8425,7.3675,2.0125
794,9457879,0.777384,0.00061,-0.03294,4.655,5.425,5.1275
795,9457975,0.758718,0.011834,-0.025131999999999998,4.585,0.8925,8.8025
796,9458072,0.7870221,0.03721,-0.024156,4.27,-2.1,9.3275
797,9458169,0.789706,0.054655999999999996,0.002562,5.74,-5.8625,11.13
798,9458266,0.815326,0.074786,0.052216,9.4325,-10.71,10.745
799,9458362,0.8294780999999999,0.09089001,0.087474,14.7175,-13.58,10.9375
800,9458459,0.815692,0.064782,0.060512,20.8075,-15.5575,11.06
801,9458556,0.8581479999999999,0.046848,0.030622000000000003,26.8275,-17.7625,12.215
802,9458653,0.913292,0.062586,0.08625401,29.155,-18.445,12.775
803,9458749,0.943426,0.012322,0.144204,32.27,-23.4325,12.7925
804,9458846,0.8754719999999999,0.04331,0.1159,30.7125,-34.16,16.66
805,9458943,0.9680700000000001,0.007320001,0.168604,40.0925,-36.2425,19.2325
806,9459040,0.9115840000000001,-0.092964,0.145302,49.7,-29.61,21.0875
807,9459136,0.913048,-0.087474,0.0366,39.6025,-26.705,22.47
808,9459233,1.088362,-0.114558,0.121024,27.3525,-10.5525,23.415
809,9459330,1.224148,-0.206546,0.239852,29.8725,14.7875,18.69
810,9459427,1.196576,-0.195932,0.039162,16.9225,13.7725,6.9125
811,9459523,1.167418,-0.072102,0.019398,7.14,13.825,0.0175
812,9459620,1.104588,0.074786,0.1525,17.71,23.1525,-0.4025
813,9459717,0.9883221,0.223138,0.015006,36.05,4.7075,5.6525
814,9459814,1.129476,0.12688,-0.19093,47.5825,-15.61,14.665
815,9459910,1.470466,0.0035380000000000003,-0.120902,46.4975,-4.83,-0.5075
816,9460007,1.337364,-0.063318,-0.023668,28.28,-0.035,-28.6825
817,9460104,1.1776659999999999,-0.212646,-0.5161819999999999,-18.1825,14.35,-56.07
818,9460201,1.29015,-0.196542,-0.47702,-31.675,41.7725,-73.115
819,9460297,1.314916,-0.183366,-0.565226,-43.575,48.7025,-98.47251
820,9460394,1.4204459999999999,-0.12529400000000002,-0.862174,-54.425,51.485,-112.56
821,9460491,1.3773799999999998,0.000366,-0.7732359999999999,-35.91,56.3675,-102.7075
822,9460587,1.503162,-0.01098,-0.7199220000000001,-5.11,49.7875,-103.2325
823,9460684,1.4929139999999999,-0.045994,-0.50935,4.4275,40.53,-79.8875
824,9460781,1.272338,0.049166,-0.31146599999999997,8.89,17.6575,-52.5
825,9460878,1.205116,0.148352,-0.25058800000000003,24.43,-4.165,-38.885
826,9460974,1.307108,0.17507,-0.347456,37.695,6.0725,-31.815
827,9461071,1.3351680000000001,0.20691199999999998,-0.411384,35.7875,12.81,-28.4025
828,9461168,1.3200399999999999,0.13944600000000001,-0.314882,34.545,-3.5,-26.3375
829,9461265,1.333094,0.007564001,-0.258274,31.395,-13.055,-24.99
830,9461361,1.315526,-0.05587601,-0.2013,24.045,-19.0925,-21.105
831,9461458,1.1873040000000001,-0.0854,-0.129686,24.8325,-26.8275,-17.115
832,9461555,1.107882,-0.201178,-0.066978,22.7325,-29.5225,-16.555
833,9461652,1.038952,-0.17934,-0.08674201,18.34,-25.1125,-13.8775
834,9461748,1.012966,-0.202398,-0.116876,14.385,-24.325,-13.825
835,9461845,0.94489,-0.164456,-0.12041400000000001,14.875,-21.805,-13.86
836,9461942,0.8550979999999999,-0.126026,-0.269742,5.565,-25.585,-12.53
837,9462039,0.8277700000000001,-0.062464,-0.09821001,6.8775,-35.9975,-10.9725
838,9462135,0.758718,-0.025254,-0.000366,10.29,-27.16,-12.215
839,9462232,0.7388319999999999,0.062341999999999995,-0.028304000000000003,8.575,-26.8275,-12.32
840,9462329,0.7169939999999999,0.042944,0.002318,8.4175,-26.0575,-11.095
841,9462426,0.7105279999999999,0.047092,-0.06832001,8.6275,-25.0775,-10.6575
842,9462522,0.677588,-0.0183,-0.07246799999999999,12.145,-26.0225,-10.185
843,9462619,0.7147979999999999,0.014152000000000001,-0.02135,12.6875,-22.0675,-8.1025
844,9462716,0.701134,0.023180000000000003,-0.079056,12.18,-17.5175,-9.485
845,9462813,0.6481859999999999,0.007076001,-0.015493999999999999,21.84,-22.47,-12.8275
846,9462909,0.6263479999999999,-0.000366,-0.082472,16.905,-19.95,-15.61
847,9463006,0.6347661,0.007076001,-0.06283,22.33,-15.855,-15.8375
848,9463103,0.600362,0.001952,-0.06954,25.725,-12.9325,-19.8275
849,9463200,0.638426,-0.002318,-0.029036000000000003,26.32,-15.0325,-21.805
850,9463296,0.6638021,-0.03294,0.030866,29.75,-9.87,-22.505
851,9463393,0.6728301,-0.004148001,0.038796,29.89,-5.53,-22.715
852,9463490,0.6852739999999999,0.025986000000000002,0.04867801,29.6275,-3.36,-24.4825
853,9463587,0.711138,0.014274,0.080764,29.12,-0.4725,-26.0925
854,9463683,0.711016,0.034038,0.09211,30.1875,3.9375,-29.0675
855,9463780,0.711138,0.068564,0.128466,32.9,8.155,-33.4425
856,9463877,0.772748,0.087962,0.171776,31.4475,12.355,-38.815
857,9463974,0.8244761,0.074054,0.17055599999999999,30.3625,14.98,-41.9825
858,9464070,0.8801081000000001,0.010858,0.162382,34.9125,16.8,-42.315
859,9464167,0.9108521,0.11248399999999999,0.09979600000000001,33.775,19.6525,-42.6825
860,9464264,1.004792,0.171166,0.11712,35.42,21.0175,-47.9325
861,9464360,1.0345600000000001,0.260348,0.07002799999999999,37.17,20.7025,-53.3575
862,9464457,1.009672,0.311954,0.012688,40.0925,14.9275,-58.7475
863,9464554,0.9646541,0.320616,-0.022203999999999998,48.23,7.5775,-60.865
864,9464651,0.9947881,0.309514,0.049654000000000004,53.0775,2.59,-62.86
865,9464747,1.020408,0.25803000000000004,0.175558,51.24,0.0,-64.295
866,9464844,1.039684,0.080398,0.15006,47.6,-6.1775,-65.03
867,9464941,1.112396,-0.08723001,0.007808001,44.3275,-4.0775,-65.38
868,9465038,1.207922,-0.194102,-0.165432,38.01,5.215,-56.9275
869,9465134,1.2469620000000001,-0.19739600000000002,-0.298412,34.265,12.915,-45.0625
870,9465231,1.275754,-0.09211,-0.426756,31.92,26.0575,-31.5875
871,9465328,1.373232,-0.066124,-0.646234,43.6975,51.0125,-8.0325
872,9465425,1.565992,0.035746,-0.811666,67.4625,89.0225,13.3
873,9465521,1.7398419999999999,0.135664,-0.8903561,83.37001,116.97,35.0175
874,9465618,1.6327260000000001,0.49227,-0.635254,111.685,104.3875,63.1575
875,9465715,1.422276,0.296582,-0.277794,116.2525,58.975,57.5575
876,9465811,1.142652,-0.153232,-0.037088,107.3625,7.6125,40.075
877,9465908,0.91622,-0.09235399999999999,-0.021594,85.99501,14.28,26.4775
878,9466005,1.075552,0.119316,-0.22948200000000002,64.26,70.28,17.08
879,9466102,1.1422860000000001,0.167262,-0.415288,68.8275,64.3125,3.99
880,9466198,1.089338,0.134444,-0.360754,92.225,24.0275,1.9775
881,9466295,1.112152,0.146156,-0.18788,94.15,9.87,1.6275
882,9466392,1.206092,0.146522,-0.091988,89.72251,4.2525,2.7125
883,9466489,1.24379,0.160796,-0.07710399999999999,89.88,-5.705,4.6025
884,9466585,1.174372,0.174582,-0.191052,94.255,-10.3775,5.04
885,9466682,1.11996,0.23802199999999998,-0.243024,95.1125,-8.0325,7.91
886,9466779,1.10471,0.30036399999999996,-0.220088,95.2,-2.6075,7.63
887,9466876,1.053348,0.313662,-0.12285399999999999,113.785,-0.2275,4.5325
888,9466972,1.045174,0.26413000000000003,-0.151524,119.5075,-3.185,-1.0675
889,9467069,1.0498100000000001,0.1891,-0.16226,128.0475,-2.485,-5.0925
890,9467166,1.060058,0.171044,-0.099552,138.495,0.805,-5.7575
891,9467263,1.024434,0.14469200000000002,-0.132858,141.5575,3.8675,-2.8
892,9467359,0.96014,0.136762,-0.159942,145.775,3.395,-0.8225
893,9467456,0.9450120000000001,0.126026,-0.21106,149.1525,-1.2775,0.9625
894,9467553,0.9320801,0.13115,-0.21081599999999998,148.61,-5.5125,1.3475
895,9467650,0.8876719999999999,0.11846199999999998,-0.14213,149.6775,-14.2625,1.6625
896,9467746,0.8963341,0.165676,-0.06075601,145.705,-19.11,0.7175
897,9467843,0.9128040000000001,0.13944600000000001,-0.03904,141.75,-19.0575,-1.5575
898,9467940,0.9208561,0.106994,-0.045506,140.6825,-22.61,-4.1825
899,9468037,0.912316,0.114924,-0.037698,139.895,-26.215,-6.895
900,9468133,0.9151219999999999,0.111508,-0.020008,138.425,-28.63,-8.5225
901,9468230,0.91012,0.09442801,0.009272001,138.0575,-29.4,-11.375
902,9468327,0.9063379999999999,0.090646,-0.002684,138.39,-28.42,-15.645
903,9468423,0.918294,0.074298,-0.013908000000000002,138.005,-28.7175,-19.7925
904,9468520,0.898408,0.05929201,0.024034,135.485,-28.595,-22.645
905,9468617,0.8792540999999999,0.04392,0.061854,131.1625,-26.5125,-24.325
906,9468714,0.874862,0.002928,0.079422,128.8,-25.8825,-25.06
907,9468810,0.855342,-0.060634,0.07259,126.735,-25.235,-25.41
908,9468907,0.8197180000000001,-0.12456199999999999,0.09320801,124.8625,-23.7825,-25.2875
909,9469004,0.7993439999999999,-0.222162,0.066124,120.4525,-21.1925,-23.975
910,9469101,0.831308,-0.209352,0.05929201,114.905,-17.0975,-19.88
911,9469197,0.8541221,-0.200934,0.091134,112.805,-13.4225,-16.38
912,9469294,0.882914,-0.158478,0.107726,110.3025,-12.0225,-12.1975
913,9469391,0.8988959999999999,-0.09394001,0.09442801,109.97,-8.61,-9.24
914,9469488,0.9070700999999999,-0.05770599999999999,0.05563200000000001,106.19,-4.025,-9.6075
915,9469585,0.961726,-0.040016,0.030866,103.495,1.2425,-9.8
916,9469681,0.957822,0.07015,0.019642,100.5375,0.4725,-9.6075
917,9469778,0.984906,0.140422,0.005368,98.0,-1.715,-8.9075
918,9469875,1.00223,0.06588,0.034038,105.8225,-5.2325,-9.7125
919,9469971,0.932934,-0.042822000000000006,0.10223600000000001,115.36,-6.8425,-11.5675
920,9470068,0.903898,-0.008906,0.030622000000000003,109.7075,-1.505,-6.4225
921,9470165,0.8876719999999999,-0.01708,0.130052,111.3175,1.68,-1.3125
922,9470262,0.853024,0.011834,0.208254,115.4825,3.815,2.8
923,9470359,0.903166,0.11138599999999999,0.038674,110.6875,8.12,9.52
924,9470455,1.0856780000000001,-0.023424,-0.19702999999999998,115.08,14.8575,13.825
925,9470552,1.131062,-0.033306,-0.086132,130.2,11.9175,12.53
926,9470649,1.049078,-0.015128,-0.082838,124.8975,1.925,8.6625
927,9470746,1.039074,-0.013663999999999999,-0.104554,119.8925,11.655,2.59
928,9470842,1.166808,-0.020374,-0.18251199999999998,125.1075,31.7975,-6.0025
929,9470939,1.24501,-0.046482,-0.37454,124.95,38.1325,-16.765
930,9471036,1.1683940000000002,-0.034892,-0.40748,121.3625,29.1725,-27.5975
931,9471132,1.158146,0.071858,-0.298168,123.34,23.485,-35.2975
932,9471229,1.18584,0.198006,-0.155306,129.325,18.3575,-42.9625
933,9471326,1.1886459999999999,0.230336,-0.24949000000000002,129.85,9.4675,-42.42
934,9471423,1.3207719999999998,0.10126,-0.300852,128.31,13.5275,-42.8575
935,9471519,1.310646,-0.0854,-0.241804,132.8775,14.98,-47.0925
936,9471616,1.257332,-0.23729,-0.249612,119.42,3.78,-49.1225
937,9471713,1.1744940000000001,-0.26169000000000003,-0.21679400000000001,114.7475,-1.6975,-44.5025
938,9471810,1.062376,-0.22948200000000002,-0.13359000000000001,107.2925,-11.06,-36.5575
939,9471906,1.083848,-0.246928,-0.048312,104.79,-10.6575,-29.7675
940,9472003,1.1472879999999999,-0.121878,-0.09613601,108.08,-6.615,-22.4875
941,9472100,1.174982,-0.04148,-0.15396400000000002,122.0275,-4.795,-15.2775
942,9472197,1.1659540000000002,-0.010614,-0.203374,134.7675,-3.4825,-10.2725
943,9472294,1.098244,0.025376,-0.180804,143.5175,-4.8825,-6.5975
944,9472390,1.05835,0.000976,-0.10833599999999999,149.835,-8.68,-6.58
945,9472487,0.9558701,-0.010126000000000001,-0.07490801,149.7825,-12.0925,-6.4925
946,9472584,0.9539181000000001,-0.07259,-0.060146000000000005,143.85,-17.465,-8.5925
947,9472681,0.942206,-0.07173600000000001,-0.03843,143.185,-16.0825,-9.2225
948,9472777,0.9586761,-0.12017,-0.024888,141.1025,-16.555,-12.11
949,9472874,0.942816,-0.12334200000000001,-0.053436000000000004,139.7725,-22.96,-12.95
950,9472971,0.916098,-0.156892,0.008540001,135.415,-27.7725,-16.8525
951,9473068,0.8977980999999999,-0.151524,0.058682000000000005,136.325,-23.4675,-18.69
952,9473164,0.8727879999999999,-0.15616,0.04819,134.33,-22.505,-21.28
953,9473261,0.8665661,-0.168238,0.07527400000000001,129.465,-24.535,-23.59
954,9473358,0.8346021,-0.20069,0.07027201,128.1875,-20.545,-24.7275
955,9473455,0.8283799999999999,-0.17140999999999998,0.017446,122.0625,-16.31,-25.095
956,9473551,0.817766,-0.158844,0.012444,120.995,-17.71,-27.65
957,9473648,0.7954399999999999,-0.16592,0.009272001,120.82,-18.725,-30.4325
958,9473745,0.7975140000000001,-0.178852,0.00244,119.56,-15.61,-31.9025
959,9473842,0.8192299999999999,-0.22935999999999998,0.008296000999999999,117.0575,-13.8775,-33.705
960,9473938,0.8536341000000001,-0.255834,0.021106,114.5025,-14.56,-32.585
961,9474035,0.8797421000000001,-0.243878,0.025986000000000002,109.025,-13.4575,-31.15
962,9474132,0.920734,-0.24363400000000002,0.057339999999999995,104.475,-14.315,-31.0975
963,9474229,0.927932,-0.20984,0.07076001,101.5175,-15.5225,-30.6425
964,9474325,0.9404981,-0.213378,0.07332201,100.975,-10.955,-30.3975
965,9474422,0.93391,-0.193736,0.060877999999999995,98.1575,-5.4775,-29.5575
966,9474519,0.9195141,-0.168848,0.058682000000000005,94.2025,-3.5,-29.785
967,9474616,0.91622,-0.161894,0.090646,89.915,-3.08,-30.1525
968,9474712,0.9175620000000001,-0.17519200000000001,0.11870599999999999,85.83751,0.5775,-30.3975
969,9474809,0.9117061,-0.19093,0.15396400000000002,83.685,7.7,-33.1275
970,9474906,0.9290299999999999,-0.246196,0.132492,77.8575,13.7025,-34.6325
971,9475003,0.9394,-0.28767600000000004,0.125782,72.87,16.2575,-35.8575
972,9475099,0.950868,-0.280478,0.14383800000000002,67.2,19.3375,-37.03
973,9475196,0.9713639999999999,-0.25925,0.17360599999999998,60.76,26.3725,-36.9075
974,9475293,0.9706319999999999,-0.214232,0.199714,56.7,34.1075,-36.3825
975,9475390,0.992592,-0.21801399999999999,0.196908,53.865,35.4375,-35.14
976,9475486,1.02358,-0.25254,0.095038,53.4275,30.205,-34.0025
977,9475583,1.095316,-0.277428,0.017812,59.3775,26.7575,-33.495
978,9475680,1.170468,-0.12712400000000001,-0.118218,60.83,29.12,-31.5525
979,9475777,1.300276,0.03843,-0.21667199999999998,67.865,30.975,-29.575
980,9475874,1.35054,0.10858,-0.21752600000000002,78.9425,39.795,-28.7
981,9475970,1.292834,0.140666,-0.018666,84.33249,35.735,-21.875
982,9476067,1.201822,0.078446,0.151524,80.64,17.29,-14.9275
983,9476164,1.167784,-0.10650599999999999,0.126026,73.09751,4.8125,-14.2275
984,9476260,1.2130459999999998,-0.258152,0.02074,68.285,5.6525,-18.13
985,9476357,1.300642,-0.390766,-0.03294,61.845,8.1025,-20.7725
986,9476454,1.275266,-0.321714,-0.026108,50.8725,0.28,-11.97
987,9476551,1.2219520000000001,-0.0854,-0.239852,37.905,-1.6625,-6.615
988,9476648,1.185718,-0.055265999999999996,-0.45164399999999993,35.9275,-0.385,-14.875
989,9476744,1.0704280000000002,0.10528599999999999,-0.41297,59.57,7.6125,-9.7825
990,9476841,1.0323639999999998,0.15677,-0.414922,70.91001,20.0725,-6.93
991,9476938,1.057618,0.11285,-0.285968,76.16001,9.9575,-5.5125
992,9477035,1.034438,0.14164200000000002,-0.241438,64.6275,-1.435,-0.455
993,9477131,1.0249219999999999,0.10052799999999999,-0.273646,62.895,1.26,-0.21
994,9477228,1.0553,0.008784,-0.384056,61.3025,7.035,-2.1875
995,9477325,0.975512,0.10309000000000001,-0.21862399999999999,60.9175,8.9075,5.775
996,9477422,1.0676219999999998,0.072712,-0.19642,59.815,21.1575,4.13
997,9477518,1.003084,0.11541199999999999,-0.10540799999999999,60.2,13.895,2.0125
998,9477615,1.015894,0.144326,-0.193248,67.795,-0.49,-1.96
999,9477712,1.078114,0.081496,-0.122244,79.415,-11.5675,-4.795
1000,9477809,1.0851899999999999,0.024766,-0.168482,84.8925,-10.9725,-6.58
1001,9477905,1.156072,0.06405001,-0.166774,84.2625,-10.85,-9.7125
1002,9478002,1.149118,0.029158,-0.17873,91.7875,-10.1325,-12.845
1003,9478099,1.0876299999999999,0.086864,-0.177266,86.6425,-14.175,-11.305
1004,9478196,1.044808,0.093086,-0.194956,85.1025,-16.0825,-10.43
1005,9478292,0.9403761,0.040382,-0.169824,83.2825,-24.325,-9.695
1006,9478389,0.834968,0.09711201,-0.07356601,80.255,-26.32,-4.4625
1007,9478486,0.83204,0.111508,-0.009272001,78.645,-20.5625,-1.05
1008,9478583,0.741272,0.07856801,-0.082228,76.475,-19.1275,-1.0675
1009,9478679,0.7168720000000001,0.14335,-0.19983599999999999,69.9125,-24.15,1.085
1010,9478776,0.81801,0.168604,-0.16506600000000002,71.225,-26.3375,-2.6075
1011,9478873,0.8527800999999999,0.071614,0.028914,76.9475,-31.78,-5.8625
1012,9478970,0.8203280000000001,0.07002799999999999,0.13480999999999999,75.8975,-29.085,-8.3125
1013,9479066,0.868884,0.05587601,0.097966,69.59751,-17.2725,-16.0475
1014,9479163,0.9282981,-0.007076001,0.10492,70.8925,-4.375,-19.3375
1015,9479260,0.9030440000000001,-0.07856801,0.049044,69.58,-2.1,-21.6125
1016,9479357,0.9059721,-0.08308201,0.012444,64.4875,-1.6625,-21.63
1017,9479453,0.9079241,-0.09345201,-0.017446,61.285,0.2275,-20.3175
1018,9479550,0.903898,-0.09552601,0.012444,57.295,-5.25,-17.745
1019,9479647,0.901214,-0.10309000000000001,0.048312,54.145,-10.3425,-14.7875
1020,9479744,0.9025559999999999,-0.09211,0.05063,47.81,-17.255,-12.32
1021,9479841,0.8945040000000001,-0.080154,0.08662001,43.435,-22.9775,-9.5025
1022,9479937,0.898042,-0.06075601,0.127368,39.8125,-23.7125,-7.56
1023,9480034,0.8940161,-0.030012,0.160064,37.7825,-23.8175,-5.915
1024,9480131,0.8764481,-0.019398,0.168482,36.9075,-24.3075,-4.55
1025,9480228,0.8519260000000001,-0.00061,0.169214,36.435,-23.31,-3.5875
1026,9480324,0.8361879999999999,0.020862000000000002,0.171776,37.485,-23.3625,-3.2375
1027,9480421,0.8420440999999999,0.074664,0.16652999999999998,36.9425,-22.9425,-1.8725
1028,9480518,0.8489979999999999,0.075762,0.09711201,27.1075,-17.115,-0.56
1029,9480615,0.8579041,0.106628,0.134078,31.535,-9.695,-1.995
1030,9480711,0.937326,0.075396,0.148474,38.185,-7.1225,-3.57
1031,9480808,0.9688021000000001,0.050142,0.099674,49.7175,-2.065,-5.11
1032,9480905,0.9888101,0.00244,-0.0305,44.1,1.61,-6.8775
1033,9481002,1.096536,-0.029768,0.024766,47.705,11.9,-10.92
1034,9481098,1.029924,0.012688,0.045018,41.2475,17.08,-15.365
1035,9481195,0.918538,0.08564401,0.0183,34.195,12.145,-18.0075
1036,9481292,0.9092661,0.15762400000000001,-0.09186601,29.855,13.5975,-17.4125
1037,9481389,1.0229700000000002,0.124928,-0.089304,33.53,13.93,-17.115
1038,9481485,1.121546,0.10736,-0.060877999999999995,35.455,4.34,-17.64
1039,9481582,1.312476,-0.045872,-0.14518,29.6625,11.795,-19.495
1040,9481679,1.5414700000000001,-0.17751,-0.288408,15.155,25.9,-23.2575
1041,9481775,1.6394360000000001,-0.282186,-0.40223400000000004,-3.955,26.565,-25.235
1042,9481872,1.639314,-0.34038,-0.435418,-17.255,25.34,-25.9175
1043,9481969,1.5251219999999999,-0.236558,-0.429196,-28.42,23.66,-22.6975
1044,9482066,1.300642,-0.167994,-0.36197399999999996,-20.3,16.31,-17.255
1045,9482163,1.089216,-0.0427,-0.291458,1.33,10.955,-13.58
1046,9482259,0.9977159999999999,0.21752600000000002,-0.36953800000000003,18.69,6.2125,-14.4025
1047,9482356,1.031388,0.37515,-0.355508,36.4875,2.3625,-14.1925
1048,9482453,1.077138,0.31890799999999997,-0.261934,52.0975,3.92,-14.7875
1049,9482550,1.0737219999999998,0.26474000000000003,-0.303048,46.8825,5.6175,-13.58
1050,9482646,1.064938,0.16043,-0.25132,44.6425,1.7325,-14.175
1051,9482743,1.0345600000000001,0.09186601,-0.186538,44.45,-1.295,-11.445
1052,9482840,1.070184,0.010248,-0.15762400000000001,39.795,2.17,-13.6675
1053,9482937,1.10227,-0.035868000000000004,-0.139202,37.31,4.165,-14.0525
1054,9483033,1.110932,-0.08771799999999999,-0.208498,34.195,-3.885,-14.315
1055,9483130,1.083238,-0.063196,-0.21606199999999998,31.185,-10.465,-12.4075
1056,9483227,1.1064180000000001,-0.060634,-0.133956,27.8775,-13.4925,-11.6725
1057,9483324,1.00101,-0.044286,-0.230946,25.4625,-13.825,-10.3425
1058,9483420,0.9092661,-0.032451999999999995,-0.29133600000000004,27.825,-26.425,-9.0475
1059,9483517,0.8777901,-0.050508,-0.31463800000000003,26.0575,-40.1975,-6.6325
1060,9483614,0.9046301,-0.08771799999999999,0.032086,30.415,-39.445,-3.2375
1061,9483711,0.8912100000000001,-0.14566800000000002,-0.014884,23.6775,-18.55,-0.21
1062,9483807,0.803248,-0.062341999999999995,-0.17446,24.955,-22.015,5.25
1063,9483904,0.7056479999999999,-0.09040201,-0.297802,25.305,-31.0625,3.92
1064,9484001,0.686006,-0.142984,-0.172874,26.285,-27.16,1.9425
1065,9484098,0.760182,-0.18483,-0.01464,18.7075,-19.9325,1.4
1066,9484194,0.8282579999999999,-0.169336,-0.0051240009999999996,15.47,-15.3125,2.7825
1067,9484291,0.8422879999999999,-0.190442,-0.08784,11.9525,-16.2225,4.6025
1068,9484388,0.836676,-0.15128,-0.090768,6.72,-18.2,7.77
1069,9484485,0.8520479999999999,-0.188002,-0.026718000000000002,7.7,-10.15,8.68
1070,9484581,0.841922,-0.116876,-0.094672,3.1325,-7.0175,12.88
1071,9484678,0.818132,-0.057462,-0.112606,-0.2975,-11.6025,12.145
1072,9484775,0.8102020000000001,-0.053314,-0.10528599999999999,2.03,-11.62,10.7275
1073,9484872,0.8136180000000001,-0.050142,-0.089426,2.3975,-10.9375,7.9975
1074,9484968,0.813984,-0.07198,-0.03843,6.4225,-11.935,5.7575
1075,9485065,0.817522,-0.080886,-0.028548,8.0325,-8.8375,4.865
1076,9485162,0.8341139999999999,-0.09784401,-0.007564001,9.2225,-5.6525,3.5175
1077,9485259,0.8521700999999999,-0.11773,0.030133999999999998,9.6075,-3.1675,1.4875
1078,9485355,0.8712021000000001,-0.12322000000000001,0.06880801,7.035,-0.6825,-0.035
1079,9485452,0.8773021000000001,-0.131028,0.121878,5.3025,0.595,-2.3625
1080,9485549,0.8625401,-0.144814,0.115656,2.9575,0.6475,-5.3025
1081,9485646,0.8840120000000001,-0.17543599999999998,0.09991799999999999,3.115,-0.1225,-9.2575
1082,9485742,0.8995059999999999,-0.146034,0.060146000000000005,-0.7875,-0.455,-11.8475
1083,9485839,0.8890140999999999,-0.098942,0.050874,-4.83,-6.02,-13.9125
1084,9485936,0.9272,0.031476,0.066246,-8.2775,-13.09,-15.3125
1085,9486033,1.068964,0.038674,0.2501,-11.5325,-6.7725,-18.4975
1086,9486129,1.1392360000000001,0.09882,0.103822,-10.71,4.3925,-19.565
1087,9486226,1.199016,0.00488,-0.15311,-6.6325,-10.955,-16.1875
1088,9486323,1.17852,-0.01403,-0.209352,-8.05,-28.7875,-15.7675
1089,9486420,1.166808,0.04819,-0.197518,-10.43,-30.52,-17.5525
1090,9486516,1.160952,0.14823,-0.036844,-10.9025,-36.12,-19.4425
1091,9486613,1.090436,0.219112,0.14871800000000002,-11.4625,-38.9375,-21.4725
1092,9486710,1.039562,0.074298,0.212402,-6.4225,-28.6475,-19.0925
1093,9486807,1.057008,0.057462,0.133224,-4.13,-0.2975,-12.2325
1094,9486904,1.155706,-0.002928,0.16811600000000002,0.8925,25.6725,-2.135
1095,9487000,1.206214,-0.062098,0.025254,9.1525,34.8425,7.805
1096,9487097,1.31455,-0.12163399999999999,-0.204594,13.7725,30.0825,12.8625
1097,9487194,1.41703,-0.090646,-0.31317399999999995,25.5675,36.12,14.805
1098,9487291,1.608692,0.082594,-0.531554,28.665,46.445,14.56
1099,9487387,1.47498,0.17324,-0.583648,31.43,26.635,12.6875
1100,9487484,1.21085,0.128222,-0.357704,37.1,2.0125,8.3125
1101,9487581,1.128378,0.20508200000000001,-0.345138,9.3625,2.3975,3.9725
1102,9487677,1.030778,0.17848599999999998,-0.418704,2.24,1.2075,2.485
1103,9487774,0.9784401,0.12566,-0.266814,13.7725,3.4825,0.98
1104,9487871,1.056764,0.110044,-0.416386,5.705,22.2425,-2.695
1105,9487968,1.200358,0.091134,-0.465308,6.825,31.22,-2.24
1106,9488064,1.195722,0.0488,-0.476654,3.15,22.4875,3.815
1107,9488161,1.0917780000000001,-0.08430201,-0.392108,7.7,4.5675,11.935
1108,9488258,1.1686379999999998,-0.07698201,-0.36209600000000003,2.9925,23.7125,22.4875
1109,9488355,1.427522,-0.173118,-0.354288,10.9375,38.6225,18.27
1110,9488451,1.267946,-0.14518,-0.23155599999999998,22.96,15.1375,15.6975
1111,9488548,1.172664,-0.136274,-0.320982,10.675,-3.885,17.675
1112,9488645,1.051518,-0.07112601,-0.331474,12.95,5.46,17.85
1113,9488742,1.0309,0.0064659999999999995,-0.372344,8.75,-2.87,14.875
1114,9488838,0.9414741,0.06563601,-0.318786,12.3725,-13.2475,11.165
1115,9488935,0.9469641,0.08906,-0.31415,7.07,-16.1875,3.36
1116,9489032,0.98149,0.083936,-0.21533000000000002,8.5225,-25.0075,-1.0675
1117,9489129,0.966728,0.019398,-0.127978,10.43,-37.59,-6.0375
1118,9489225,0.8870620000000001,-0.010858,-0.126148,10.815,-43.47,-5.8275
1119,9489322,0.7592061,-0.020008,-0.21411,6.335,-44.8875,-4.69
1120,9489419,0.675026,-0.024766,-0.20069,1.715,-45.57,1.3475
1121,9489516,0.6537980999999999,0.042212,-0.122976,-3.885,-38.0625,12.635
1122,9489612,0.6661201,0.045994,0.0244,0.0525,-34.405,12.145
1123,9489709,0.606584,0.053801999999999996,-0.162626,-1.785,-42.2275,10.1325
1124,9489806,0.6781981,0.061732,-0.132858,-2.1875,-45.9025,6.5975
1125,9489902,0.636596,0.065514,0.062586,10.185,-30.0125,7.0525
1126,9489999,0.6396460999999999,0.10809200000000001,0.091988,5.775,-19.74,3.64
1127,9490096,0.761646,0.066734,-0.051118000000000004,1.96,-16.1,-4.13
1128,9490193,0.692106,0.13078399999999998,0.012322,12.18,-4.445,-4.9875
1129,9490289,0.7016220000000001,0.130418,-0.08698601,8.9775,-1.68,-7.875
1130,9490386,0.718214,0.1525,-0.066856,6.09,-5.0575,-8.7325
1131,9490483,0.715896,0.141764,0.024034,7.875,-1.6625,-5.775
1132,9490580,0.68808,0.135908,0.07002799999999999,5.495,2.1175,-1.295
1133,9490676,0.675148,0.12029200000000001,0.101382,5.5475,4.9,3.22
1134,9490773,0.711992,0.11333800000000001,0.132004,4.6375,5.075,4.6725
1135,9490870,0.70333,0.11431400000000001,0.11358199999999999,6.3875,3.43,6.335
1136,9490967,0.758718,0.132126,0.056729999999999996,8.155,-3.6225,4.55
1137,9491063,0.8306979999999999,0.102358,0.10943399999999999,12.425,-7.5075,3.22
1138,9491160,0.8077621,0.086864,0.11345999999999999,17.9025,-4.9,4.4975
1139,9491257,0.7732359999999999,0.053314,0.08296,24.675,-9.205,4.9875
1140,9491353,0.8820601,0.032330000000000005,0.09821001,31.115,-8.3475,7.14
1141,9491450,1.023458,0.121024,0.10723800000000001,51.415,4.655,5.075
1142,9491547,0.9863700000000001,0.09784401,-0.155306,61.915,-8.435,3.325
1143,9491644,0.8306979999999999,0.09577000000000001,-0.395646,48.1775,-30.6775,10.815
1144,9491740,0.9419620999999999,0.058072000000000006,-0.211304,31.15,-12.425,18.7775
1145,9491837,1.360422,-0.284138,0.388448,34.09,20.72,29.2775
1146,9491934,1.22671,-0.411384,0.419314,27.79,31.1325,16.3275
1147,9492031,1.0620100000000001,-0.019642,0.005856,2.065,11.27,-9.73
1148,9492127,1.179984,-0.031354,-0.11626600000000001,8.9775,18.585,-14.0525
1149,9492224,1.520486,-0.174216,-0.16433399999999998,8.61,35.21,-20.4575
1150,9492321,1.693116,-0.261446,-0.27328,-4.585,30.66,-29.9075
1151,9492418,1.6605419999999997,-0.094916,-0.739808,-43.5225,14.28,-32.5675
1152,9492515,1.671034,-0.149084,-0.6852739999999999,-54.3375,14.385,-30.3975
1153,9492611,1.457534,-0.268888,-0.453108,-42.77,21.6825,-31.64
1154,9492708,1.254526,-0.14579,-0.7287060000000001,-62.93,17.745,-35.3675
1155,9492805,1.111054,0.064294,-0.665754,-59.0625,14.105,-40.845
1156,9492901,0.9947881,-0.019275999999999998,-0.274012,-26.355,18.41,-50.715
1157,9492998,0.9686799999999999,-0.134078,-0.24631799999999998,-15.4525,25.305,-50.1375
1158,9493095,0.9376921,0.22691999999999998,-0.374418,-8.2425,27.3875,-33.1275
1159,9493192,1.039928,0.38356799999999996,-0.397964,6.8075,32.2875,-20.9475
1160,9493288,1.1715659999999999,0.22191799999999998,-0.34953,13.5275,30.94,-12.6875
1161,9493385,1.280146,0.21081599999999998,-0.290238,14.0875,16.835,-14.1225
1162,9493482,1.324798,0.184586,-0.296338,17.71,5.0925,-17.3075
1163,9493579,1.371158,0.142862,-0.32025,13.685,-2.73,-21.4025
1164,9493675,1.298446,0.078202,-0.27084,8.855,-10.22,-25.9875
1165,9493772,1.2756319999999999,0.018666,-0.167506,8.3125,-13.825,-28.6125
1166,9493869,1.2256120000000001,-0.125416,-0.193492,8.8025,-12.0575,-24.2725
1167,9493966,1.1655879999999998,-0.187392,-0.21838000000000002,11.795,-20.4925,-19.2675
1168,9494062,1.018578,-0.154696,-0.288896,11.0775,-21.8575,-14.28
1169,9494159,0.8934059999999999,-0.172264,-0.308904,6.5975,-28.6475,-13.9475
1170,9494256,0.80276,-0.153842,-0.24997800000000003,5.0925,-32.6725,-13.6325
1171,9494353,0.769454,-0.09552601,-0.25864000000000004,2.485,-33.4075,-10.045
1172,9494449,0.744322,-0.056852,-0.19702999999999998,3.255,-37.73,-9.4325
1173,9494546,0.7241920000000001,-0.08869401,-0.09028,4.1125,-35.56,-8.225
1174,9494643,0.7361481,-0.071492,-0.091744,0.07,-27.615,-2.94
1175,9494740,0.745054,-0.06941801,-0.10345599999999999,-0.6475,-24.01,-0.4025
1176,9494836,0.702232,-0.09698999999999999,0.016836,0.175,-21.0,-0.56
1177,9494933,0.756278,-0.08906,-0.05172801,-3.8675,-14.9275,1.715
1178,9495030,0.669048,-0.080764,-0.091988,-3.7975,-18.1475,4.27
1179,9495127,0.686372,-0.176534,-0.011834,0.315,-13.6675,3.6225
1180,9495223,0.7138220000000001,-0.125416,-0.013541999999999998,-2.6425,-1.75,10.0625
1181,9495320,0.67588,-0.145912,-0.097234,-0.2275,-4.2875,9.7825
1182,9495417,0.648308,-0.153232,-0.137006,-4.305,-7.77,9.94
1183,9495514,0.6541640000000001,-0.12566,-0.10906800000000001,-4.4625,-5.705,7.2975
1184,9495610,0.705038,-0.12139000000000001,-0.066246,-8.015,-9.7825,2.2925
1185,9495707,0.697108,-0.10418800000000002,0.027694,-7.6125,-13.4925,-1.47
1186,9495804,0.699182,-0.133224,0.031232,-8.0675,-10.045,-5.005
1187,9495901,0.7021101,-0.09711201,0.062464,-10.535,-9.0825,-5.95
1188,9495997,0.712358,-0.104554,0.116754,-14.1925,-9.45,-8.155
1189,9496094,0.741272,-0.08601,0.11650999999999999,-18.585,-8.575,-8.9075
1190,9496191,0.774334,-0.08527801,0.11467999999999999,-21.35,-6.055,-10.7275
1191,9496288,0.8058101,-0.0793,0.132248,-21.7175,-4.76,-13.615
1192,9496384,0.828624,-0.037576,0.09845401,-22.61,-6.825,-16.765
1193,9496481,0.907436,-0.031964,0.16128399999999998,-20.7725,-12.25,-20.195
1194,9496578,1.082384,0.005856,0.230946,-20.6325,-9.59,-23.17
1195,9496675,1.2306139999999999,0.033794,0.1098,-28.6125,-6.51,-25.48
1196,9496772,1.3116219999999998,0.090158,-0.048312,-30.6425,-16.975,-25.935
1197,9496868,1.35237,0.08454600000000001,-0.08454600000000001,-35.98,-33.8625,-26.705
1198,9496965,1.144116,0.138836,-0.05941401,-36.96,-43.5925,-26.985
1199,9497062,1.07055,0.13847,0.13383399999999998,-34.6325,-38.9375,-26.6175
1200,9497159,1.047614,0.202398,0.171044,-34.405,-3.85,-25.585
1201,9497255,0.989908,0.180194,0.142618,-23.415,19.0225,-18.1475
1202,9497352,1.124352,-0.051972000000000004,0.033306,-8.9775,22.925,-8.2075
1203,9497449,1.286978,-0.054046000000000004,-0.17214200000000002,1.015,23.205,-2.3975
1204,9497546,1.417884,0.004636001,0.07222401,-1.96,8.8725,5.3025
1205,9497642,1.449726,-0.05648601,0.129442,-9.5375,1.96,10.64
1206,9497739,1.3888479999999999,0.11163,-0.5221600000000001,-10.605,13.3175,7.525
1207,9497836,1.538176,0.32879,-0.9623360999999999,24.115,37.38,4.2875
1208,9497933,1.4990139999999998,0.359656,-0.503494,36.1025,34.02,8.295
1209,9498029,1.2103620000000002,0.420778,-0.5754739999999999,28.0175,21.42,12.8625
1210,9498126,1.00711,0.33610999999999996,-0.525942,42.805,26.6525,18.935
1211,9498223,0.9840521000000001,0.31964000000000004,-0.4148,26.9675,29.5225,21.5775
1212,9498320,1.012478,0.159698,-0.336598,28.8925,35.63,23.2225
1213,9498416,1.29808,-0.012322,-0.612318,12.1625,38.8325,18.2525
1214,9498513,1.4538739999999999,0.0549,-0.56242,14.3325,45.85,22.9425
1215,9498610,1.463756,-0.03843,-0.545462,16.625,22.61,22.75
1216,9498706,1.22183,-0.126392,-0.379298,17.1675,-9.66,31.15
1217,9498803,1.298324,-0.036844,-0.376614,-1.295,16.9225,40.9675
1218,9498900,1.601128,-0.12980799999999998,-0.208986,4.5325,45.3775,30.9575
1219,9498997,1.459486,-0.066734,-0.10687200000000001,23.415,26.0925,24.85
1220,9499093,1.191086,-0.004026,-0.316346,15.5225,-24.605,20.86
1221,9499190,0.9590420000000001,0.049044,-0.453962,14.0525,-36.8725,19.5475
1222,9499287,0.84424,0.15311,-0.390278,8.9425,-23.975,17.0975
1223,9499384,0.829356,0.15762400000000001,-0.17214200000000002,13.405,-28.28,13.3525
1224,9499480,0.8403360000000001,0.1281,-0.053191999999999996,13.1075,-37.8875,6.7725
1225,9499577,0.8602221,0.094306,-0.022203999999999998,16.8525,-38.815,4.27
1226,9499674,0.8809620000000001,0.033672,-0.08857201,22.8725,-41.23,0.98
1227,9499771,0.795562,0.040260000000000004,-0.117852,24.9375,-47.565,0.665
1228,9499867,0.640134,0.05246,-0.184098,22.645,-46.7775,3.9375
1229,9499964,0.63867,0.061366,-0.119804,21.595,-41.3875,2.975
1230,9500061,0.598654,0.044164,0.01708,24.185,-41.65,1.8375
1231,9500158,0.539972,0.09479401,-0.00976,15.2075,-42.9625,3.43
1232,9500254,0.504836,0.083814,-0.104798,12.985,-40.215,6.7025
1233,9500351,0.544852,0.08637601,-0.071858,15.3825,-36.47,10.1675
1234,9500448,0.6117081,0.069784,-0.050752,12.53,-33.4775,8.785
1235,9500545,0.684054,0.049044,0.054046000000000004,15.6625,-26.0575,6.335
1236,9500641,0.716384,0.044774,0.055998,11.0775,-17.1675,3.745
1237,9500738,0.731268,0.040138,0.013908000000000002,8.4175,-9.3275,-0.5425
1238,9500835,0.717482,0.01098,-0.06588,4.165,-6.0375,-1.05
1239,9500932,0.7356600000000001,0.024644,-0.012688,3.395,-7.35,-2.8
1240,9501028,0.7211420999999999,0.027206,0.013908000000000002,1.4875,-3.29,-1.225
1241,9501125,0.734684,0.016836,0.032086,2.38,-2.45,-0.14
1242,9501222,0.7612800999999999,0.02257,0.042944,1.505,-3.4825,0.665
1243,9501319,0.7704300000000001,0.028426,0.06892999999999999,4.2875,-4.865,2.4675
1244,9501415,0.788852,0.044896,0.10089400000000001,5.565,-7.4025,2.9575
1245,9501512,0.817156,0.06795401,0.09381801,8.1025,-5.8275,2.135
1246,9501609,0.794098,0.103334,0.071614,11.97,-3.395,4.0775
1247,9501706,0.8371639999999999,0.146522,0.080398,14.5775,-3.325,5.53
1248,9501802,0.8461921,0.141154,0.12163399999999999,21.7,0.105,5.985
1249,9501899,0.827526,0.06954,0.054412,23.625,-3.08,9.415
1250,9501996,0.9224421,0.021472,0.0183,20.545,-9.1175,14.7
1251,9502093,0.9734381,-0.02745,-0.076494,26.285,-8.47,15.61
1252,9502189,0.942206,-0.103334,-0.155672,23.8,-21.7175,19.4425
1253,9502286,0.8885261000000001,-0.135664,-0.054655999999999996,19.1275,-22.7675,26.635
1254,9502383,1.145824,-0.28938400000000003,0.28731,17.185,0.6125,34.895
1255,9502480,1.281366,-0.49166000000000004,0.492758,24.8325,34.51,27.4925
1256,9502576,1.149118,-0.262422,0.06356201,-10.4825,36.26,5.4075
1257,9502673,1.09312,-0.008296000999999999,-0.002196,-15.8025,35.7175,-4.76
1258,9502770,1.1947459999999999,0.21142600000000003,-0.11358199999999999,1.4175,29.995,0.8575
1259,9502867,1.484984,0.042944,-0.27889200000000003,13.7375,7.8225,8.5225
1260,9502963,1.63053,-0.09333,-0.205692,7.6825,-1.925,-2.9925
1261,9503060,1.351882,-0.05453401,-0.46152600000000005,-30.975,4.8825,-17.0625
1262,9503157,1.232078,-0.066246,-0.649528,-60.41,21.4375,-30.94
1263,9503254,1.26453,-0.160674,-0.46335600000000005,-64.4875,40.705,-53.48
1264,9503350,1.304424,-0.15799000000000002,-0.702598,-86.66,47.005,-75.495
1265,9503447,1.269044,0.02562,-0.90402,-106.61,55.93,-81.46251
1266,9503544,1.307718,-0.012688,-0.58255,-72.485,52.0275,-96.005
1267,9503641,1.45546,-0.194956,-0.512644,-49.6475,52.395,-85.8025
1268,9503737,1.313574,0.144204,-0.391498,-31.7625,57.9775,-46.9875
1269,9503834,1.25233,0.31537,-0.41297,-24.675,32.0425,-32.2175
1270,9503931,1.279536,0.28157600000000005,-0.41016400000000003,7.595,12.845,-22.5575
1271,9504028,1.336754,0.322934,-0.419436,16.205,12.705,-20.3
1272,9504124,1.470832,0.24095,-0.372832,17.5525,9.6075,-22.9075
1273,9504221,1.4988920000000001,0.160308,-0.290238,10.4475,-8.2075,-25.27
1274,9504318,1.335656,0.08820599999999999,-0.20618000000000003,-0.8400001,-30.94,-23.1175
1275,9504415,1.22488,-0.097722,-0.12444000000000001,-1.26,-43.2775,-21.63
1276,9504511,1.068598,-0.168848,-0.047458,0.7175,-38.7975,-16.8525
1277,9504608,0.9857600000000001,-0.229116,-0.12712400000000001,-2.8875,-36.925,-12.6
1278,9504705,0.870226,-0.198128,-0.15311,-5.67,-39.025,-8.715
1279,9504802,0.7540819999999999,-0.14701,-0.12688,-6.9825,-37.5725,-5.7925
1280,9504898,0.721874,-0.070516,-0.060267999999999995,-6.16,-33.215,-3.15
1281,9504995,0.60817,-0.028914,-0.142008,-5.075,-29.2425,-2.17
1282,9505092,0.651968,-0.04404201,-0.083814,-2.135,-31.6225,-1.05
1283,9505189,0.68076,-0.0064659999999999995,-0.021228,-3.9725,-25.795,-0.8225
1284,9505285,0.7278521,0.05819401,0.09150001,-3.22,-28.35,-0.315
1285,9505382,0.63562,-0.042334,-0.161162,-8.995,-27.8075,-0.0175
1286,9505479,0.659654,-0.05124001,-0.003782,-7.455,-32.515,2.135
1287,9505576,0.695522,-0.1037,0.057218,-6.4575,-11.97,3.675
1288,9505672,0.741272,-0.10797000000000001,-0.020618,-6.23,-7.7525,7.2275
1289,9505769,0.692106,-0.12065799999999999,-0.106994,-6.9125,-17.0625,7.9975
1290,9505866,0.7017439999999999,-0.12065799999999999,-0.039894,-10.395,-14.4725,7.875
1291,9505963,0.72529,-0.116998,-0.014396,-4.725,-5.285,6.545
1292,9506059,0.704916,-0.102724,-0.129686,-12.04,-7.84,3.6575
1293,9506156,0.69662,-0.087352,-0.06039,-11.69,-10.3425,1.0325
1294,9506253,0.698816,-0.06771001,0.005368,-12.075,-8.2425,-2.0125
1295,9506350,0.7078439999999999,-0.06880801,0.05429,-12.95,-9.8,-4.34
1296,9506446,0.726388,-0.052216,0.09784401,-12.355,-12.0925,-4.4625
1297,9506543,0.760426,-0.00488,0.122732,-14.07,-13.055,-5.25
1298,9506640,0.8044680999999999,0.01647,0.14396,-14.175,-14.7,-6.3
1299,9506737,0.817156,0.061732,0.145302,-16.5025,-15.54,-7.4725
1300,9506833,0.8287459999999999,0.028914,0.12993,-18.1475,-16.2225,-8.6975
1301,9506930,0.868762,0.03538,0.118218,-14.14,-13.475,-10.605
1302,9507027,0.967216,0.045262000000000004,0.169946,-14.2975,-5.5825,-14.6125
1303,9507124,1.045174,0.049776,0.117486,-15.1725,-1.1725,-18.1475
1304,9507220,1.229638,0.01952,0.011712,-18.3225,-6.265,-20.7025
1305,9507317,1.334558,0.017202000000000002,-0.18470799999999998,-25.41,-12.215,-23.17
1306,9507414,1.31211,0.062586,-0.282796,-18.3575,-26.4425,-24.465
1307,9507511,1.167784,0.128344,-0.11577799999999999,-16.8875,-42.84,-27.265
1308,9507607,1.048346,0.146156,0.153476,-18.83,-35.9975,-29.47
1309,9507704,0.987956,0.14274,0.312564,-15.33,-8.54,-28.21
1310,9507801,0.9076799999999999,0.071004,0.32561799999999996,-14.63,16.3975,-20.9475
1311,9507898,0.9418401,-0.128222,0.170678,-7.385,16.975,-8.645
1312,9507994,1.198284,-0.1769,-0.08503401,-6.615,-0.28,-2.345
1313,9508091,1.411418,-0.023912,-0.029158,-9.7825,4.1475,2.52
1314,9508188,1.461926,0.02928,-0.095648,3.3075,31.0975,7.175
1315,9508284,1.489254,0.18995399999999998,-0.659166,12.0925,45.465,9.275
1316,9508381,1.513166,0.31049,-0.7417600000000001,24.6575,47.7575,8.2075
1317,9508478,1.474492,0.341966,-0.535092,20.055,37.5725,9.415
1318,9508575,1.286612,0.45688999999999996,-0.8220360000000001,17.045,21.875,16.59
1319,9508671,1.167662,0.340014,-0.5072760000000001,35.98,16.03,24.8675
1320,9508768,1.07421,0.17214200000000002,-0.274134,23.73,26.11,30.765
1321,9508865,1.121912,-0.047214,-0.268278,21.42,28.56,35.56
1322,9508962,1.3285799999999999,-0.258884,-0.481412,16.0825,35.7525,32.6025
1323,9509058,1.420202,0.006832001,-0.43615,17.7625,51.205,33.7575
1324,9509155,1.467782,-0.086132,-0.47946000000000005,8.435,34.195,30.73
1325,9509252,1.246108,-0.045506,-0.45323,18.5675,9.8875,36.33
1326,9509349,1.316868,0.064538,-0.378688,7.665,15.6625,42.105
1327,9509445,1.4459440000000001,-0.033794,-0.19337000000000001,25.375,25.9,33.95
1328,9509542,1.250622,0.042334,-0.13847,24.0625,-7.49,25.165
1329,9509639,0.9883221,0.062952,-0.274378,12.285,-44.2925,22.54
1330,9509736,0.8968221,0.11041,-0.320738,8.925,-34.195,18.0425
1331,9509832,0.901458,0.122976,-0.18605,13.755,-28.2975,11.3925
1332,9509929,0.797636,0.114192,-0.09930800000000001,17.3775,-41.5625,7.105
1333,9510026,0.713212,0.08857201,-0.15823399999999999,13.6325,-47.2325,4.4625
1334,9510122,0.7494460000000001,0.045384,-0.144326,14.77,-42.4375,-0.98
1335,9510219,0.735416,0.011346,-0.087108,18.83,-42.0875,-3.6575
1336,9510316,0.627568,-0.001464,-0.13054000000000002,17.22,-47.67,-1.4175
1337,9510413,0.607438,0.04392,-0.069174,12.565,-44.905,2.9925
1338,9510509,0.558516,0.091744,0.016592,10.64,-27.5275,4.1825
1339,9510606,0.57462,0.043432,-0.034892,7.1575,-27.65,2.9575
1340,9510703,0.5397281,0.05929201,-0.1464,3.71,-28.14,5.985
1341,9510800,0.625494,0.087108,-0.04867801,4.1125,-23.9225,7.1225
1342,9510896,0.666974,0.031598,-0.053436000000000004,5.6175,-14.0525,9.7475
1343,9510993,0.610244,0.05124001,0.022082,6.7025,-15.085,8.61
1344,9511090,0.7032079999999999,0.060877999999999995,-0.058316,5.0225,-9.555,0.455
1345,9511187,0.72407,0.05819401,-0.041602,4.9175,-1.575,-0.56
1346,9511283,0.7239479999999999,0.05612,0.011224,5.145,-0.0175,-2.59
1347,9511380,0.742858,0.06661201,-0.077714,4.27,1.54,-5.3025
1348,9511477,0.758352,0.060634,-0.084912,6.7725,-2.59,-4.3225
1349,9511574,0.773602,0.054778,-0.033184,7.5425,-4.4975,-1.47
1350,9511670,0.796782,0.066734,-0.00671,6.8425,-5.285,1.0675
1351,9511767,0.827526,0.088328,0.014396,7.2625,-4.0775,3.99
1352,9511864,0.86559,0.08332601,0.05941401,7.91,-2.135,7.0
1353,9511961,0.868274,0.083936,0.12029200000000001,9.485,-1.4,10.22
1354,9512057,0.8902341,0.0976,0.13761600000000002,11.6725,-6.335,10.745
1355,9512154,0.92537,0.06356201,0.160308,14.63,-14.8925,10.36
1356,9512251,0.904508,0.019398,0.218746,21.0175,-23.555,10.325
1357,9512348,0.8773021000000001,-0.065148,0.20752199999999998,22.785,-30.975,10.8325
1358,9512444,0.9053620000000001,-0.100406,0.206668,24.85,-31.9725,13.23
1359,9512541,1.05713,-0.021594,0.17128800000000002,29.3825,-26.6525,16.065
1360,9512638,1.086166,-0.029524,0.059902,39.27,-22.75,17.64
1361,9512735,0.9345201,-0.036356,-0.074786,43.2775,-21.77,20.4925
1362,9512831,0.9525761,-0.09052401,-0.069662,25.935,-5.81,24.185
1363,9512928,1.220488,-0.271572,0.18751400000000001,20.9475,26.18,24.92
1364,9513025,1.252574,-0.225334,0.09735601,9.3975,29.54,14.0
1365,9513122,1.175592,0.027327999999999998,-0.07881200000000001,-0.945,18.2525,3.43
1366,9513218,1.179252,0.159332,-0.120048,14.8575,19.3725,4.655
1367,9513315,1.4417959999999999,0.046238,-0.183366,16.6775,8.82,4.865
1368,9513412,1.478884,-0.113826,-0.120048,14.2625,1.3475,-9.31
1369,9513509,1.349564,-0.14213,-0.38613000000000003,-11.41,6.02,-21.77
1370,9513605,1.4459440000000001,-0.24131599999999997,-0.492026,-36.995,16.415,-30.3625
1371,9513702,1.4721739999999999,-0.35782600000000003,-0.40381999999999996,-45.64,28.805,-47.25
1372,9513799,1.381162,-0.27938,-0.62769,-63.6825,43.715,-60.935
1373,9513896,1.32492,0.019642,-0.694546,-75.845,48.86,-69.8425
1374,9513992,1.182058,0.129686,-0.334646,-40.1625,41.1775,-79.7475
1375,9514089,1.143384,0.04087,-0.434808,-27.8775,34.475,-74.27
1376,9514186,1.24806,0.36966,-0.484096,-7.4725,39.0425,-47.8275
1377,9514283,1.352248,0.28011199999999997,-0.510204,-6.51,40.8275,-30.52
1378,9514379,1.417884,0.004514,-0.30353600000000003,9.0125,14.315,-27.8425
1379,9514476,1.292224,0.16226,-0.3416,-2.6775,-8.995,-27.4925
1380,9514573,1.267702,0.071492,-0.277672,1.68,-11.2875,-31.045
1381,9514670,1.255624,-0.0064659999999999995,-0.2318,-2.24,-11.1125,-33.5475
1382,9514766,1.264652,-0.01708,-0.18104800000000001,-3.395,-16.975,-31.535
1383,9514863,1.1958440000000001,-0.114802,-0.14566800000000002,-0.0875,-22.6275,-24.64
1384,9514960,1.1034899999999999,-0.143594,-0.168848,-7.3325,-29.9775,-16.2925
1385,9515056,0.9678261,-0.170434,-0.102602,-10.4125,-34.545,-12.075
1386,9515153,0.8866961,-0.185684,-0.167506,-16.7825,-36.5925,-9.66
1387,9515250,0.795074,-0.166042,-0.187636,-21.63,-39.4625,-7.4375
1388,9515347,0.6802720999999999,-0.12395199999999999,-0.24412199999999998,-24.3075,-39.9175,-6.1425
1389,9515443,0.6822239999999999,-0.10004,-0.22777399999999998,-25.8475,-41.685,-4.5325
1390,9515540,0.6131721,-0.10516400000000001,-0.186782,-21.8925,-44.3625,-4.9
1391,9515637,0.597068,-0.126636,-0.046848,-19.53,-38.2025,-5.9325
1392,9515734,0.6794180000000001,-0.072956,0.01708,-25.41,-25.7775,-3.535
1393,9515830,0.71309,-0.07808001,-0.11333800000000001,-28.42,-17.4475,-4.7425
1394,9515927,0.638304,-0.04404201,-0.037088,-23.3975,-25.445,-3.255
1395,9516024,0.6206141,-0.08759601,-0.08869401,-23.905,-16.5025,0.0175
1396,9516121,0.659776,-0.020618,-0.108824,-24.4825,-10.6925,4.0075
1397,9516217,0.678808,-0.01647,0.021228,-19.4425,-11.1475,4.585
1398,9516314,0.6952781,-0.029158,-0.038918,-9.905,-6.86,3.7975
1399,9516411,0.6902761,-0.051118000000000004,-0.164212,-17.92,-9.555,3.1325
1400,9516508,0.713212,-0.03965,-0.09381801,-12.88,-7.875,1.2425
1401,9516604,0.7229720000000001,-0.017446,-0.064172,-10.535,-4.445,-0.3675
1402,9516701,0.729072,0.005612,-0.002928,-10.6575,-6.405,-2.345
1403,9516798,0.734318,0.020252000000000003,0.0305,-7.5425,-7.42,-5.4775
1404,9516895,0.7671359999999999,0.033428,0.091134,-3.255,-7.35,-5.95
1405,9516992,0.8160581,0.044652,0.12456199999999999,-0.07,-7.315,-7.07
1406,9517088,0.8458261,0.047702,0.14688800000000002,0.665,-11.55,-8.1375
1407,9517185,0.874862,0.046238,0.1464,-2.3625,-14.42,-9.7125
1408,9517282,0.9021899999999999,0.03843,0.119682,-6.7025,-12.355,-10.7975
1409,9517377,0.955992,0.005856,0.08808401,-9.6075,-11.305,-12.775
1410,9517474,0.874862,0.013786000000000001,0.040504000000000005,-12.285,-17.7975,-15.2775
1411,9517570,0.8781559999999999,0.046360000000000005,0.08881599,-11.69,-29.8375,-19.8625
1412,9517667,0.9514780999999999,0.064172,0.064294,-14.595,-34.1425,-23.485
1413,9517764,1.1232540000000002,-0.030987999999999998,0.020862000000000002,-14.28,-33.11,-25.7425
1414,9517861,1.36762,-0.01464,0.059658,-17.885,-29.9075,-25.5675
1415,9517957,1.278804,0.08454600000000001,-0.22265,-20.16,-24.2375,-26.8625
1416,9518054,1.069086,0.182756,-0.19580999999999998,-19.355,-42.2625,-27.65
1417,9518151,0.9464761,0.171532,0.0976,-11.34,-12.985,-27.79
1418,9518248,0.958432,0.215086,0.26900999999999997,-8.68,28.28,-23.835
1419,9518344,1.012966,0.126148,0.31964000000000004,-1.8025,38.57,-14.14
1420,9518441,1.130818,-0.022203999999999998,0.28926199999999996,4.3925,35.77,-4.2525
1421,9518538,1.21268,-0.158478,0.19764,-1.715,10.9725,0.1225
1422,9518635,1.4155659999999999,-0.2074,0.006832001,-16.9225,-6.86,-3.4825
1423,9518731,1.6443159999999999,-0.05368,-0.16287000000000001,-21.7,13.3525,-6.125
1424,9518828,1.5645280000000001,0.061610000000000005,-0.25986,-13.4575,20.055,-4.3575
1425,9518925,1.26636,0.205692,-0.55937,2.4325,15.5575,-6.8075
1426,9519022,1.22671,0.138714,-0.5579061,14.315,24.7275,-8.54
1427,9519118,1.2456200000000002,0.258152,-0.5726680000000001,2.9575,28.91,1.295
1428,9519215,1.176934,0.325496,-0.7407841,8.3475,26.46,18.8825
1429,9519312,1.111054,0.271572,-0.518744,34.1425,37.7475,35.9975
1430,9519409,1.172786,0.163724,-0.340258,26.775,53.7775,48.1425
1431,9519505,1.297836,0.07722601,-0.320372,28.455,58.205,56.6475
1432,9519602,1.516948,0.051362,-0.510814,19.95,54.3725,43.5925
1433,9519699,1.46339,0.000244,-0.555466,17.255,40.4425,40.915
1434,9519796,1.315892,-0.052582000000000004,-0.517402,10.815,15.785,40.9325
1435,9519892,1.330776,-0.05355801,-0.41882600000000003,6.895,12.7225,46.06
1436,9519989,1.4837639999999999,-0.1281,-0.21276799999999998,20.335,21.14,41.09
1437,9520086,1.276974,-0.040260000000000004,-0.1647,14.91,-5.4775,27.86
1438,9520183,1.076162,0.046482,-0.293044,8.54,-39.445,22.3125
1439,9520279,0.948306,0.150304,-0.37246599999999996,8.0325,-39.585,16.835
1440,9520376,0.9060940000000001,0.21142600000000003,-0.287066,15.19,-40.0575,9.7125
1441,9520473,0.8108121,0.199958,-0.128832,25.7075,-54.705,2.4675
1442,9520570,0.749202,0.22509,-0.097234,18.27,-58.2225,-2.3275
1443,9520666,0.7324881,0.16348,-0.06892999999999999,24.5175,-53.865,-4.9525
1444,9520763,0.683932,0.091134,0.011590000000000001,30.345,-52.85,-8.8725
1445,9520860,0.539606,0.029646,-0.16530999999999998,23.0475,-50.6625,-3.045
1446,9520957,0.568764,0.101138,-0.08344800000000001,21.1225,-41.23,-0.735
1447,9521053,0.567666,0.013541999999999998,0.081496,25.3925,-29.82,-2.7475
1448,9521150,0.429928,0.001464,-0.048434,14.6125,-23.625,0.945
1449,9521247,0.479216,0.018056,-0.20508200000000001,1.33,-22.8725,4.2
1450,9521344,0.567788,0.00305,-0.044407999999999996,12.6525,-19.3725,6.3
1451,9521440,0.67588,-0.025376,0.12529400000000002,10.1675,-11.69,6.65
1452,9521537,0.766526,0.010614,0.095038,7.805,3.955,2.2575
1453,9521634,0.7692101,-0.017934000000000002,0.091988,5.04,8.75,-1.4175
1454,9521731,0.7775061,-0.010614,-0.08723001,0.7875,11.41,-4.62
1455,9521827,0.81984,-0.004636001,-0.06746601,4.55,6.335,-7.175
1456,9521924,0.8261841000000001,0.01464,-0.019032,4.235,4.375,-2.6775
1457,9522021,0.8011741,0.01769,0.008784,3.0275,0.385,1.575
1458,9522118,0.7828741,0.019154,0.014396,2.24,-4.375,4.8475
1459,9522214,0.8117880000000001,0.019886,0.020984,1.9775,-6.0025,6.09
1460,9522311,0.81435,0.040504000000000005,0.057584,3.885,-5.2675,9.0825
1461,9522408,0.8418,0.08296,0.05160601,6.475,-7.4725,10.535
1462,9522505,0.844484,0.10919000000000001,-0.0035380000000000003,10.815,-14.0175,11.2
1463,9522601,0.90951,0.152256,0.067832,16.38,-20.8075,12.6525
1464,9522698,0.9034101000000001,0.132736,0.135786,22.0325,-20.3875,13.86
1465,9522795,0.8670540999999999,0.06892999999999999,0.15433,26.1275,-29.925,13.475
1466,9522892,0.890966,0.042334,0.12871,29.8725,-40.11,14.1225
1467,9522988,0.9362280000000001,-0.016592,0.168726,37.52,-44.4675,16.415
1468,9523085,1.047736,-0.012322,0.249612,52.1675,-36.155,17.5525
1469,9523182,0.9683141,-0.08649801,0.011590000000000001,57.47,-20.0725,16.8875
1470,9523279,0.808738,-0.10760399999999999,-0.20374,23.485,-4.2,17.7625
1471,9523375,1.1161780000000001,-0.308904,0.131028,-1.155,32.9525,18.6025
1472,9523472,1.265994,-0.44676400000000005,0.262788,-1.3475,50.505,16.2225
1473,9523569,1.189134,-0.06636801,-0.012931999999999999,-21.0525,30.0125,-2.905
1474,9523666,1.154974,0.12566,-0.022326,-0.8400001,20.0375,-4.305
1475,9523762,1.239398,0.11773,-0.236314,16.7825,16.7825,5.39
1476,9523859,1.592954,0.023790000000000002,-0.21777,21.28,6.615,4.34
1477,9523956,1.520608,0.019642,-0.121268,10.43,-6.685,-8.47
1478,9524053,1.281854,-0.06600201,-0.49568599999999996,-17.745,-0.7,-17.3425
1479,9524149,1.331142,-0.18446400000000002,-0.465308,-37.66,23.905,-30.2225
1480,9524246,1.294298,-0.284748,-0.45554799999999995,-52.9375,35.7875,-53.9175
1481,9524343,1.236592,-0.2074,-0.79483,-84.875,42.5425,-76.405
1482,9524440,1.188768,-0.036478,-0.6777101,-85.12,47.7925,-87.7625
1483,9524536,1.10837,-0.11407,-0.269254,-40.0925,47.18,-92.4525
1484,9524633,1.297104,0.062464,-0.394548,-30.4675,43.6275,-78.2425
1485,9524730,1.392264,0.368684,-0.5221600000000001,-15.19,45.5175,-48.02
1486,9524827,1.354688,0.211914,-0.435418,5.5475,29.5225,-27.3875
1487,9524923,1.351638,0.191174,-0.46176999999999996,9.3625,1.33,-23.38
1488,9525020,1.3298,0.224602,-0.403332,12.2325,-5.88,-22.8025
1489,9525117,1.388116,0.06746601,-0.276086,12.4425,-8.6975,-26.5125
1490,9525214,1.369328,0.091378,-0.17836400000000002,0.5775,-23.625,-27.8075
1491,9525310,1.291614,-0.008540001,-0.14701,-1.47,-34.9125,-28.735
1492,9525407,1.1714440000000002,-0.082838,-0.15091400000000002,0.4375,-38.85,-24.3075
1493,9525504,1.094462,-0.199104,-0.12078,-2.87,-37.7125,-20.6325
1494,9525601,0.959774,-0.25217399999999995,-0.11614400000000001,-7.175,-37.695,-16.1175
1495,9525697,0.871568,-0.26779000000000003,-0.08893801,-13.1775,-37.905,-12.46
1496,9525794,0.84546,-0.25058800000000003,-0.11955999999999999,-19.11,-32.9175,-6.02
1497,9525891,0.735538,-0.14945,-0.22789600000000002,-25.2525,-38.4475,-0.0175
1498,9525988,0.660752,-0.151036,-0.161528,-22.6975,-42.455,-0.42
1499,9526084,0.59658,-0.11394800000000001,-0.18446400000000002,-23.3275,-37.8875,-0.3675
1500,9526181,0.624518,-0.041114,-0.054778,-24.9725,-34.93,-0.9625
1501,9526278,0.636718,-0.107726,-0.041358,-25.305,-28.525,-2.975
1502,9526375,0.661606,-0.045384,0.036844,-23.3975,-25.7425,0.42
1503,9526471,0.6563601,-0.07027201,-0.04148,-21.455,-14.5775,2.1875
1504,9526568,0.64782,-0.053314,-0.079178,-23.2925,-11.935,6.825
1505,9526665,0.633668,-0.03294,-0.10052799999999999,-21.945,-11.2,8.505
1506,9526762,0.651846,-0.061975999999999996,-0.05246,-19.215,-8.05,8.0325
1507,9526858,0.6695361,-0.072712,0.0064659999999999995,-11.7425,-3.85,7.385
1508,9526955,0.7004020000000001,-0.035136,-0.10858,-14.945,-3.745,6.8075
1509,9527052,0.707966,-0.039162,-0.14005599999999999,-11.83,-5.7575,4.2
1510,9527149,0.738588,-0.033306,-0.071248,-6.5625,-6.02,0.9625
1511,9527246,0.765184,0.004148001,-0.011101999999999999,-5.005,-2.6075,-2.1875
1512,9527342,0.80276,0.005734,0.0427,-1.5575,-2.94,-4.3225
1513,9527439,0.8062981,0.002806,0.080154,0.945,-5.5125,-5.67
1514,9527536,0.8148380000000001,0.000244,0.085888,2.3975,-7.0175,-7.42
1515,9527633,0.8188641,0.009272001,0.127246,2.45,-6.4925,-10.325
1516,9527729,0.8355780999999999,0.0,0.167628,1.2775,-5.32,-13.545
1517,9527826,0.829234,0.008052001,0.177266,-1.1725,-7.49,-16.1
1518,9527923,0.871568,-0.022813999999999997,0.178608,-3.99,-12.53,-18.3225
1519,9528020,0.9023121,0.027816000000000004,0.14823,-7.91,-16.3625,-19.7225
1520,9528116,0.913536,0.094916,0.104066,-8.7325,-18.83,-21.4725
1521,9528213,1.0200420000000001,0.10492,0.15128,-4.3925,-19.74,-25.655
1522,9528310,1.194136,0.06892999999999999,-0.027572000000000003,-11.795,-16.625,-30.065
1523,9528407,1.36579,0.041236,-0.106018,-15.4175,-23.8,-31.955
1524,9528503,1.276486,0.14713199999999999,-0.167384,-21.455,-33.88,-34.6325
1525,9528600,1.0168700000000002,0.216306,0.013786000000000001,-19.005,-31.43,-38.045
1526,9528697,0.9691681000000001,0.22789600000000002,0.208986,-16.5375,1.085,-36.0675
1527,9528794,0.9724620999999999,0.13944600000000001,0.215452,-13.965,30.5725,-28.0875
1528,9528890,0.9791719999999999,0.017446,0.198128,1.3475,36.4,-16.6425
1529,9528987,1.09007,-0.13969,0.313662,7.42,17.4475,-6.895
1530,9529084,1.1486299999999998,-0.355508,0.23009200000000002,-15.7675,-22.0325,-4.9525
1531,9529181,1.405196,-0.35172600000000004,0.002684,-26.6875,-34.8075,-12.9325
1532,9529278,1.571238,-0.08759601,-0.26913200000000004,-25.06,-5.4075,-11.2875
1533,9529374,1.525854,0.14469200000000002,-0.284138,-8.8375,22.295,-5.1625
1534,9529471,1.2913700000000001,0.199714,-0.5002,14.2275,44.9575,-1.225
1535,9529568,1.298202,0.288408,-0.593286,6.37,56.5425,5.67
1536,9529665,1.2627,0.392962,-0.760182,3.8675,48.51,18.6375
1537,9529761,1.173518,0.40076999999999996,-0.7062579999999999,24.115,40.53,30.87
1538,9529858,1.18157,0.389546,-0.521306,30.205,51.835,38.9375
1539,9529955,1.204872,0.239608,-0.389058,32.8825,65.415,45.815
1540,9530052,1.332606,0.035136,-0.39613400000000004,30.7825,57.5575,52.57
1541,9530148,1.3705479999999999,0.019032,-0.45298599999999994,17.6225,38.64,47.1275
1542,9530245,1.36091,-0.127368,-0.424804,16.66,22.3825,33.8275
1543,9530342,1.24745,-0.06746601,-0.40833400000000003,-0.5775,22.1025,36.9075
1544,9530439,1.35847,0.004758,-0.251198,-0.175,41.09,39.865
1545,9530535,1.4659520000000001,-0.129686,-0.114924,21.77,45.605,28.2275
1546,9530632,1.256844,-0.08784,-0.159088,13.5625,-1.855,22.715
1547,9530729,1.055666,-0.008052001,-0.305854,9.765,-35.245,20.37
1548,9530826,0.9878341,0.104798,-0.37088000000000004,10.675,-20.7725,17.78
1549,9530922,0.9414741,0.201422,-0.282308,13.6675,-20.09,13.475
1550,9531019,0.8493641,0.248392,-0.121146,23.87,-35.9275,8.5225
1551,9531116,0.81984,0.204594,-0.062586,23.17,-45.2025,0.7875
1552,9531213,0.815814,0.12932000000000002,-0.031476,26.2675,-47.8625,-3.395
1553,9531309,0.787144,0.08442401,-0.044896,31.185,-47.145,-2.8875
1554,9531406,0.7537159999999999,0.065514,-0.024156,33.425,-41.0025,-3.4825
1555,9531503,0.6681941,0.009637999999999999,-0.059536,34.23,-32.6025,-2.31
1556,9531600,0.602314,-0.001342,-0.116388,29.1025,-26.81,1.2775
1557,9531696,0.5734,0.050996,-0.11407,21.84,-19.74,5.46
1558,9531793,0.5857220000000001,0.031354,-0.09979600000000001,24.9725,-19.1975,6.9125
1559,9531890,0.612196,0.062098,-0.04331,21.105,-24.78,8.3475
1560,9531986,0.638304,0.066856,-0.07527400000000001,23.065,-23.4675,5.705
1561,9532083,0.703086,0.07637200000000001,0.036478,18.4975,-20.0725,1.855
1562,9532180,0.74054,0.077592,0.06588,13.51,-4.3575,0.9275
1563,9532277,0.743468,0.02501,0.031476,10.43,6.7375,-1.61
1564,9532373,0.7571321,-0.02196,-0.030012,7.805,12.0925,-3.36
1565,9532470,0.77287,-0.013054,-0.130662,9.6075,8.6975,-2.8875
1566,9532567,0.786046,-0.033794,-0.090036,11.0075,-3.9025,0.21
1567,9532664,0.791658,-0.041968,-0.021716,12.0575,-12.81,5.9325
1568,9532760,0.777018,-0.037942000000000004,-0.000122,11.375,-22.505,11.4975
1569,9532857,0.7628659999999999,-0.020008,0.043188,15.4875,-28.6475,14.875
1570,9532954,0.756034,0.004392,0.077836,18.7775,-30.835,14.84
1571,9533051,0.7914140000000001,0.005246,0.047336,22.82,-31.1325,13.0025
1572,9533147,0.7993439999999999,0.005246,-0.02074,23.9225,-29.085,13.02
1573,9533244,0.8422879999999999,0.08820599999999999,0.042578,30.59,-27.1075,13.125
1574,9533341,0.9141459999999999,0.112972,0.06832001,33.74,-25.2,14.315
1575,9533438,0.918294,0.080886,0.116632,38.5525,-34.79,17.6225
1576,9533534,0.936594,-0.015738,0.144082,43.2425,-46.935,22.4875
1577,9533631,0.8823040000000001,-0.124928,0.186904,49.0875,-48.755,26.145
1578,9533728,0.9916161,-0.187392,0.22021,39.1125,-37.6775,25.48
1579,9533825,0.864492,-0.25437,0.132858,23.17,-6.825,17.85
1580,9533921,0.80886,-0.33976999999999996,0.040748,2.415,5.74,11.5675
1581,9534018,1.191086,-0.548878,0.185318,-8.9775,16.2225,8.995
1582,9534115,1.356762,-0.388936,0.023912,-22.2075,31.3775,1.12
1583,9534212,1.312476,-0.050263999999999996,0.029158,-29.995,20.055,-6.16
1584,9534308,1.315892,0.143228,-0.031842,7.0525,11.0425,0.6125
1585,9534405,1.5281719999999999,0.184952,-0.274378,22.9775,3.0625,7.7875
1586,9534502,1.666764,0.127246,-0.192394,21.525,4.6025,-2.8175
1587,9534599,1.521706,0.091988,-0.228994,-3.99,-2.2225,-17.3425
1588,9534695,1.431548,-0.005612,-0.348188,-31.0275,2.9225,-26.74
1589,9534792,1.4339879999999998,-0.08174001,-0.262666,-38.7625,23.52,-39.2875
1590,9534889,1.357494,-0.135786,-0.482754,-54.915,40.32,-53.6025
1591,9534986,1.258674,0.029768,-0.738466,-74.6375,47.0575,-63.8225
1592,9535082,1.159244,0.185318,-0.5845020000000001,-60.8125,40.985,-70.5425
1593,9535179,1.06628,0.11773,-0.44200600000000007,-29.4875,40.0925,-71.92501
1594,9535276,1.039806,0.027694,-0.44847200000000004,-9.1525,42.35,-67.9175
1595,9535373,1.123742,0.214232,-0.469822,7.6825,30.7825,-52.3075
1596,9535469,1.2378120000000001,0.24656199999999998,-0.400038,20.23,16.8,-37.45
1597,9535566,1.161196,0.181536,-0.295484,24.115,-2.0475,-23.345
1598,9535663,1.121546,0.149328,-0.27828200000000003,23.0825,-21.1575,-24.5
1599,9535760,1.170224,0.07490801,-0.300852,18.97,-17.85,-28.4725
1600,9535856,1.1956,0.004148001,-0.214598,10.4825,-4.725,-31.43
1601,9535953,1.222806,-0.052948,-0.171776,6.545,2.765,-33.4775
1602,9536050,1.199382,-0.067588,-0.123708,8.7675,1.05,-27.545
1603,9536147,1.1192280000000001,-0.12675799999999998,-0.080276,10.29,-4.55,-20.055
1604,9536243,1.059326,-0.18104800000000001,-0.11358199999999999,10.6575,-9.4325,-15.1025
1605,9536340,0.9757561,-0.16409,-0.195444,5.7225,-14.91,-11.2
1606,9536437,0.9348860999999999,-0.145912,-0.136884,1.0675,-18.2,-10.5525
1607,9536534,0.8652241,-0.118828,-0.11394800000000001,-5.4425,-16.135,-11.97
1608,9536630,0.792146,-0.068076,-0.15506199999999998,-11.1475,-17.6225,-12.6
1609,9536727,0.7856801,-0.063684,-0.136152,-7.07,-17.2725,-15.54
1610,9536824,0.8317960999999999,-0.021594,-0.10223600000000001,-7.21,-16.415,-18.34
1611,9536921,0.754692,-0.039284,-0.240096,-7.14,-20.0375,-16.1525
1612,9537017,0.821304,-0.032574,-0.183854,-3.045,-34.3875,-11.2525
1613,9537114,0.8103239999999999,-0.063074,-0.042212,3.6575,-27.44,-13.1075
1614,9537211,0.8174001000000001,-0.03843,0.11394800000000001,-2.87,-23.5025,-12.145
1615,9537308,0.788852,-0.106628,0.063074,-6.79,-22.505,-10.99
1616,9537404,0.748836,-0.14457,-0.122,-10.4475,-27.5975,-6.58
1617,9537501,0.753228,-0.118096,-0.053436000000000004,-10.955,-24.325,-4.515
1618,9537598,0.774578,-0.11285,0.059536,-12.46,-16.345,-3.7625
1619,9537694,0.7978801,-0.107482,0.00488,-10.0275,-10.3075,-2.9925
1620,9537791,0.71919,-0.08808401,-0.108702,-11.655,-18.3925,-4.9
1621,9537888,0.699182,-0.0976,-0.036844,-10.71,-16.5025,-7.665
1622,9537985,0.7047939999999999,-0.069662,0.027694,-10.3425,-8.4525,-9.0125
1623,9538081,0.674538,-0.047458,0.054412,-9.5375,-8.2425,-10.78
1624,9538178,0.660996,-0.029401999999999998,0.080398,-9.765,-8.26,-10.71
1625,9538275,0.668072,-0.001952,0.146156,-9.1525,-3.15,-10.0625
1626,9538372,0.659654,0.032208,0.189344,-7.77,-0.56,-10.325
1627,9538468,0.661728,0.040748,0.203252,-7.035,-1.54,-11.2175
1628,9538565,0.6642899999999999,0.08893801,0.194956,-4.095,1.47,-12.215
1629,9538662,0.68503,0.10931199999999999,0.138714,-4.795,4.6025,-14.8225
1630,9538759,0.742614,0.09333,0.10052799999999999,-3.6575,5.11,-18.1125
1631,9538855,0.832528,0.027694,-0.003782,-5.6525,7.49,-21.9625
1632,9538952,0.9910059999999999,-0.005368,-0.016347999999999998,-4.8825,7.21,-24.6575
1633,9539049,1.069452,-0.01708,-0.192272,-8.47,5.075,-27.545
1634,9539146,1.134478,0.033672,-0.25559,-6.65,-13.335,-30.6775
1635,9539242,1.2052379999999998,0.1281,-0.181658,-9.345,-26.8975,-36.155
1636,9539339,1.049688,0.282186,0.03172,-10.2025,-25.0775,-42.6825
1637,9539436,0.942206,0.34257600000000005,0.17921800000000002,-14.385,-17.6925,-47.25
1638,9539533,0.8914540000000001,0.324642,0.23680199999999998,-15.2425,-1.96,-42.35
1639,9539629,0.9059721,0.205326,0.29902199999999995,-9.2925,11.865,-32.2175
1640,9539726,0.955016,0.089792,0.329278,-0.5425,18.0075,-22.505
1641,9539823,1.0309,-0.12895399999999999,0.24339,2.5375,9.0825,-17.2375
1642,9539920,1.284294,-0.262788,0.17055599999999999,-3.045,-0.3325,-21.035
1643,9540016,1.583682,-0.183122,0.040748,-15.26,6.5275,-22.4875
1644,9540113,1.695312,0.09869801,-0.306952,-24.01,12.3725,-20.02
1645,9540210,1.5431780000000002,0.210206,-0.6189060000000001,-1.855,27.3875,-14.595
1646,9540306,1.473272,0.196664,-0.662338,27.5625,50.365,-7.42
1647,9540403,1.5189,0.33061999999999997,-0.667218,22.05,51.66,5.81
1648,9540500,1.414712,0.38966799999999996,-0.74908,29.5225,43.8375,25.235
1649,9540597,1.181814,0.259006,-0.54168,52.64,48.1075,44.0475
1650,9540693,1.036756,0.062586,-0.255468,47.67,55.3,52.2725
1651,9540790,1.02785,-0.12761199999999998,-0.21838000000000002,33.3025,55.5275,54.3375
1652,9540887,1.272216,-0.323666,-0.431392,17.7975,49.8225,36.015
1653,9540984,1.259406,-0.128466,-0.45603599999999994,10.2725,42.2625,27.9475
1654,9541080,1.199382,0.016592,-0.405528,-3.64,22.3475,26.04
1655,9541177,1.090436,0.030378,-0.360266,13.4225,17.255,23.1875
1656,9541274,1.232078,0.126392,-0.31781,14.9975,26.6525,22.225
1657,9541371,1.36945,0.203008,-0.189588,26.95,25.34,18.3575
1658,9541467,1.291736,0.279746,-0.179096,31.4475,5.5125,15.05
1659,9541564,1.14619,0.328912,-0.168726,30.87,-18.62,14.0525
1660,9541661,1.022116,0.314882,-0.256932,34.9825,-14.49,11.5325
1661,9541758,0.990884,0.331962,-0.312808,41.0025,-11.7425,8.295
1662,9541854,0.96441,0.301706,-0.245952,52.8675,-16.2575,3.6575
1663,9541951,0.9296399999999999,0.270596,-0.215086,62.6675,-19.53,0.98
1664,9542048,0.919026,0.19959200000000002,-0.18995399999999998,64.6625,-23.31,-3.535
1665,9542145,0.9125601000000001,0.15494000000000002,-0.152866,70.315,-20.8075,-4.655
1666,9542241,0.892308,0.08332601,-0.132004,74.8825,-18.1825,-4.655
1667,9542338,0.8987741,0.07893401,-0.11834000000000001,77.105,-16.9575,-2.3275
1668,9542435,0.8664440000000001,0.06661201,-0.05819401,80.325,-15.0325,-1.6625
1669,9542532,0.814472,0.055510000000000004,-0.071492,76.9475,-15.155,-0.0525
1670,9542628,0.77165,0.14188599999999998,-0.192272,69.72,-15.6275,2.4325
1671,9542725,0.783362,0.104066,-0.193126,65.2575,-15.995,5.11
1672,9542822,0.8247200000000001,0.08064199,0.023424,74.9875,-16.8,4.76
1673,9542919,0.80215,0.10797000000000001,-0.042089999999999995,66.6225,-16.5725,1.015
1674,9543015,0.791658,0.069906,-0.08064199,64.575,-19.7225,0.0525
1675,9543112,0.821304,0.05124001,-0.063684,65.6425,-15.9425,-1.5225
1676,9543209,0.844118,0.031598,-0.012078,67.27,-13.755,-3.9725
1677,9543306,0.846558,0.037942000000000004,0.030256,70.49,-13.2825,-4.165
1678,9543402,0.82594,0.031476,-0.012688,71.1725,-15.365,-2.765
1679,9543499,0.8127641,0.060634,-0.062098,73.71,-16.975,-2.275
1680,9543596,0.8080061,0.069174,-0.046604,77.5075,-22.435,-2.17
1681,9543693,0.8003201,0.053070000000000006,0.004636001,81.95251,-28.0875,-1.4175
1682,9543789,0.769576,0.044164,0.038308,83.2475,-31.255,1.0675
1683,9543886,0.762134,0.001098,0.07686,85.47,-31.2375,3.1325
1684,9543983,0.768112,-0.008418,0.11895,91.665,-30.6425,6.265
1685,9544080,0.787144,-0.037576,0.18605,95.5675,-31.99,8.2075
1686,9544176,0.788486,-0.044896,0.257786,97.615,-27.7375,8.6275
1687,9544273,0.750788,-0.020984,0.258762,92.05001,-17.115,6.6325
1688,9544370,0.8119101,0.132492,0.23741199999999998,84.945,-5.11,4.095
1689,9544467,0.9103641,0.27218200000000004,0.028914,71.7675,8.225,1.925
1690,9544563,1.010526,-0.03599,-0.021594,69.1775,13.2125,-3.605
1691,9544660,1.084214,-0.130906,0.09979600000000001,78.7675,7.0525,-6.055
1692,9544757,1.1303299999999998,-0.15420799999999998,0.13151600000000002,77.525,1.0675,-3.3775
1693,9544854,1.1300860000000001,-0.177266,0.10614000000000001,71.89,-1.47,-6.265
1694,9544950,1.048956,-0.202032,0.16714,66.92,-5.04,-10.9375
1695,9545047,0.984784,-0.105652,0.243756,60.8825,-1.9425,-11.7425
1696,9545144,0.966728,0.019764,0.198006,52.955,8.4875,-9.135
1697,9545241,0.9753901,0.098576,0.100406,59.3775,13.545,-3.29
1698,9545337,1.08641,0.011590000000000001,-0.17641199999999999,71.0325,14.1225,0.7875
1699,9545434,1.289906,0.05624199999999999,-0.26095799999999997,86.3625,13.65,-0.035
1700,9545531,1.312598,0.133224,-0.185684,86.8175,5.18,-3.2725
1701,9545628,1.2641639999999998,0.101626,-0.18361,80.4475,-0.735,-9.3625
