,T,ax,ay,az,gx,gy,gz
0,218572,0.50142,0.167384,-0.650748,19.6525,-19.6175,-17.15
1,218725,0.525088,0.16958,-0.75762,51.94,-93.345,-8.33
2,218823,0.553636,0.16909200000000002,-0.811056,65.135,-132.0725,41.1775
3,218921,0.553392,0.170312,-0.809836,48.3175,-115.1325,-15.4
4,219019,0.5546121,0.169824,-0.8105680000000001,2.7825,-7.21,-4.13
5,219117,0.557052,0.172508,-0.8103239999999999,1.6975,-4.55,-3.7275
6,219215,0.5565640000000001,0.171776,-0.8115439999999999,1.6625,-4.41,-3.71
7,219313,0.5575399999999999,0.17055599999999999,-0.8091041,1.645,-4.3225,-3.71
8,219412,0.559004,0.17055599999999999,-0.80886,1.6275,-4.4275,-3.745
9,219510,0.557296,0.171532,-0.8127641,1.6275,-4.55,-3.7275
10,219608,0.557296,0.171776,-0.812276,1.5225,-4.585,-3.6925
11,219706,0.556076,0.171776,-0.8127641,1.6275,-4.6025,-3.71
12,219804,0.555832,0.17055599999999999,-0.814472,1.645,-4.6375,-3.815
13,219902,0.5553441,0.17055599999999999,-0.812276,1.575,-4.6375,-3.8325
14,220000,0.554856,0.16958,-0.81252,1.5925,-4.5325,-3.8325
15,220098,0.5543680000000001,0.171776,-0.8115439999999999,1.575,-4.48,-3.85
16,220196,0.555832,0.169824,-0.8132520999999999,1.6625,-4.585,-3.885
17,220294,0.554124,0.1708,-0.812276,1.54,-4.5325,-3.885
18,220393,0.553636,0.171532,-0.809836,1.5575,-4.55,-3.8325
19,220491,0.553148,0.170312,-0.8115439999999999,1.54,-4.4975,-3.92
20,220589,0.554124,0.170312,-0.8113001,1.5225,-4.4625,-3.7975
21,220687,0.5551,0.170068,-0.8115439999999999,1.4875,-4.445,-3.745
22,220785,0.552416,0.16958,-0.811056,1.47,-4.41,-3.85
23,220883,0.552904,0.170312,-0.8108121,1.4875,-4.305,-3.8675
24,220981,0.55388,0.170312,-0.8117880000000001,1.435,-4.27,-3.815
25,221079,0.5546121,0.16958,-0.8115439999999999,1.54,-4.1125,-3.7625
26,221177,0.554856,0.171044,-0.811056,1.5225,-4.025,-3.78
27,221275,0.555832,0.17128800000000002,-0.8115439999999999,1.54,-3.9375,-3.6225
28,221373,0.55632,0.17128800000000002,-0.812032,1.645,-3.92,-3.6575
29,221472,0.5565640000000001,0.17128800000000002,-0.8105680000000001,1.6275,-3.92,-3.71
30,221570,0.5551,0.17202,-0.8115439999999999,1.575,-3.9025,-3.6925
31,221668,0.55266,0.16958,-0.809348,1.575,-3.815,-3.6925
32,221766,0.553636,0.1708,-0.809348,1.575,-3.7625,-3.6225
33,221864,0.5543680000000001,0.16689600000000002,-0.8115439999999999,1.435,-3.5525,-3.535
34,221962,0.5565640000000001,0.170312,-0.812032,1.4175,-3.465,-3.5175
35,222060,0.556808,0.172996,-0.8103239999999999,1.4175,-3.5,-3.5175
36,222158,0.556076,0.171044,-0.8081281,1.4525,-3.5,-3.5
37,222256,0.555588,0.170068,-0.807396,1.47,-3.465,-3.36
38,222354,0.5587601,0.17128800000000002,-0.8086161000000001,1.4525,-3.395,-3.3075
39,222452,0.557052,0.167872,-0.809348,1.4875,-3.3425,-3.4125
40,222551,0.558272,0.170312,-0.8095920999999999,1.5225,-3.22,-3.3425
41,222649,0.5612,0.171776,-0.8081281,1.4875,-3.3075,-3.4475
42,222747,0.5543680000000001,0.169824,-0.8105680000000001,1.4525,-3.3775,-3.43
43,222845,0.557052,0.168848,-0.8100801,1.5575,-3.29,-3.3775
44,222943,0.55998,0.170312,-0.8113001,1.505,-3.185,-3.3425
45,223041,0.559004,0.17128800000000002,-0.809348,1.4175,-3.2725,-3.3425
46,223139,0.5607121,0.171776,-0.8076399999999999,1.4175,-3.2725,-3.3075
47,223237,0.5604680000000001,0.172264,-0.8081281,1.4525,-3.43,-3.395
48,223335,0.561688,0.168604,-0.8113001,1.505,-3.4125,-3.4125
49,223434,0.558028,0.167628,-0.808372,1.47,-3.255,-3.3775
50,223532,0.5602239999999999,0.172264,-0.80642,1.4525,-3.185,-3.4475
51,223630,0.55998,0.17128800000000002,-0.80886,1.435,-3.2725,-3.395
52,223728,0.55998,0.16909200000000002,-0.8081281,1.4175,-3.3775,-3.43
53,223826,0.5665680000000001,0.170068,-0.806908,1.4,-3.4825,-3.5525
54,223924,0.5602239999999999,0.17128800000000002,-0.807884,1.47,-3.6925,-3.605
55,224022,0.558272,0.171532,-0.806176,1.54,-3.78,-3.535
56,224120,0.558028,0.16909200000000002,-0.8066641,1.5575,-3.745,-3.535
57,224218,0.558028,0.172752,-0.80642,1.47,-3.64,-3.57
58,224316,0.561688,0.1708,-0.8086161000000001,1.54,-3.4825,-3.5175
59,224415,0.5614439999999999,0.170068,-0.8076399999999999,1.5925,-3.4825,-3.5525
60,224513,0.562908,0.16909200000000002,-0.807884,1.5225,-3.5875,-3.57
61,224611,0.564128,0.167384,-0.80642,1.61,-3.71,-3.605
62,224709,0.558516,0.17128800000000002,-0.80642,1.5225,-3.885,-3.6225
63,224807,0.559248,0.167872,-0.8076399999999999,1.5225,-3.7975,-3.5875
64,224905,0.5653481,0.1708,-0.807396,1.4525,-3.85,-3.6225
65,225003,0.5607121,0.168604,-0.807396,1.505,-3.8675,-3.5875
66,225101,0.561688,0.171044,-0.8076399999999999,1.47,-3.885,-3.6575
67,225199,0.562908,0.17055599999999999,-0.8095920999999999,1.61,-3.9375,-3.7275
68,225297,0.5612,0.17128800000000002,-0.806176,1.5575,-3.9725,-3.7625
69,225396,0.5594920999999999,0.1708,-0.8047121,1.54,-4.025,-3.7975
70,225494,0.560956,0.170068,-0.8076399999999999,1.47,-4.06,-3.7275
71,225592,0.5612,0.171532,-0.8052,1.4875,-4.025,-3.6575
72,225690,0.5612,0.17055599999999999,-0.806176,1.5925,-4.0075,-3.64
73,225788,0.562176,0.16811600000000002,-0.8054439999999999,1.5925,-4.095,-3.71
74,225886,0.5655920999999999,0.169824,-0.8039801,1.505,-4.165,-3.78
75,225984,0.5636399999999999,0.16811600000000002,-0.807396,1.5575,-4.1825,-3.78
76,226082,0.562908,0.169336,-0.8076399999999999,1.505,-4.305,-3.7625
77,226180,0.561688,0.169336,-0.8071520000000001,1.54,-4.3575,-3.78
78,226278,0.5594920999999999,0.170068,-0.8052,1.61,-4.3925,-3.7975
79,226377,0.5614439999999999,0.171044,-0.8071520000000001,1.5925,-4.305,-3.7625
80,226475,0.562908,0.17055599999999999,-0.807396,1.5925,-4.305,-3.6925
81,226573,0.563884,0.167628,-0.8071520000000001,1.575,-4.34,-3.745
82,226671,0.5612,0.168848,-0.80642,1.5225,-4.305,-3.7625
83,226769,0.562664,0.16909200000000002,-0.805932,1.575,-4.4625,-3.815
84,226867,0.562176,0.169824,-0.8081281,1.54,-4.5325,-3.7975
85,226965,0.5648601,0.168604,-0.805688,1.5575,-4.585,-3.815
86,227063,0.562908,0.17128800000000002,-0.80886,1.5575,-4.655,-3.815
87,227161,0.56242,0.169336,-0.807396,1.575,-4.7425,-3.92
88,227260,0.561688,0.16835999999999998,-0.80642,1.5575,-4.725,-3.92
89,227358,0.5607121,0.17055599999999999,-0.8066641,1.5575,-4.8825,-3.9025
90,227456,0.559736,0.170312,-0.803736,1.54,-4.8475,-3.885
91,227554,0.561688,0.167872,-0.8054439999999999,1.6275,-4.8475,-3.85
92,227652,0.5604680000000001,0.168848,-0.806908,1.5925,-4.795,-3.815
93,227750,0.560956,0.16909200000000002,-0.8071520000000001,1.5575,-4.7075,-3.85
94,227848,0.5602239999999999,0.170312,-0.805688,1.4875,-4.69,-3.92
95,227946,0.559736,0.16958,-0.8052,1.5575,-4.655,-3.99
96,228044,0.5612,0.17055599999999999,-0.8081281,1.5925,-4.515,-3.92
97,228143,0.560956,0.170312,-0.80642,1.5925,-4.585,-3.8675
98,228241,0.5612,0.17128800000000002,-0.806908,1.5575,-4.515,-3.885
99,228339,0.559248,0.17055599999999999,-0.806176,1.47,-4.3225,-3.9025
100,228437,0.5607121,0.169336,-0.806176,1.4875,-4.2875,-3.9025
101,228535,0.56242,0.16958,-0.8052,1.4875,-4.2175,-3.8675
102,228633,0.559248,0.171044,-0.80642,1.505,-4.1475,-3.85
103,228731,0.56242,0.16958,-0.807396,1.5225,-4.0425,-3.815
104,228829,0.5614439999999999,0.16958,-0.8076399999999999,1.5225,-4.095,-3.7625
105,228928,0.5612,0.16958,-0.8054439999999999,1.47,-4.0775,-3.7275
106,229026,0.558272,0.171532,-0.806176,1.5225,-4.13,-3.85
107,229124,0.560956,0.16958,-0.8071520000000001,1.5575,-4.06,-3.7625
108,229222,0.5607121,0.166652,-0.8052,1.47,-4.06,-3.78
109,229320,0.5612,0.169824,-0.8054439999999999,1.54,-3.9725,-3.6925
110,229418,0.5602239999999999,0.172264,-0.806176,1.4875,-3.9025,-3.7625
111,229516,0.564616,0.169336,-0.805688,1.47,-3.8675,-3.745
112,229614,0.5636399999999999,0.167872,-0.8049561,1.435,-3.9725,-3.675
113,229712,0.559736,0.16909200000000002,-0.8052,1.505,-3.955,-3.6925
114,229810,0.5607121,0.169336,-0.8049561,1.575,-3.955,-3.6925
115,229909,0.561932,0.167872,-0.8052,1.54,-3.92,-3.7275
116,230007,0.560956,0.169336,-0.807884,1.5575,-3.9375,-3.7275
117,230105,0.5614439999999999,0.168604,-0.805932,1.5225,-3.9375,-3.7275
118,230203,0.559248,0.169336,-0.803736,1.54,-3.85,-3.6225
119,230301,0.562176,0.168604,-0.805688,1.505,-3.7625,-3.6925
120,230399,0.561688,0.168604,-0.806176,1.5225,-3.78,-3.675
121,230497,0.561688,0.170068,-0.8049561,1.47,-3.6575,-3.64
122,230595,0.562176,0.170068,-0.8039801,1.435,-3.64,-3.605
123,230693,0.562664,0.169336,-0.806176,1.505,-3.7975,-3.6575
124,230792,0.562908,0.167384,-0.8052,1.47,-3.7625,-3.605
125,230890,0.562908,0.17202,-0.801296,1.505,-3.6225,-3.64
126,230988,0.562908,0.16958,-0.8076399999999999,1.5575,-3.605,-3.64
127,231086,0.562176,0.169824,-0.8076399999999999,1.47,-3.5525,-3.71
128,231184,0.565104,0.16835999999999998,-0.798124,1.47,-3.4825,-3.64
129,231282,0.5636399999999999,0.16958,-0.8015399999999999,1.4525,-3.5,-3.64
130,231380,0.563396,0.170068,-0.803492,1.5575,-3.4825,-3.57
131,231478,0.564128,0.17055599999999999,-0.8039801,1.575,-3.675,-3.5
132,231576,0.564616,0.167628,-0.8020281,1.5925,-3.7275,-3.4825
133,231675,0.5636399999999999,0.171044,-0.8044680999999999,1.5925,-3.85,-3.57
134,231773,0.565104,0.170068,-0.805932,1.6975,-3.8675,-3.57
135,231871,0.5655920999999999,0.16958,-0.8039801,1.715,-4.06,-3.605
136,231969,0.5665680000000001,0.167872,-0.8010520000000001,1.75,-4.1825,-3.5525
137,232067,0.5675439999999999,0.166164,-0.8039801,1.68,-4.2175,-3.6225
138,232165,0.563396,0.16958,-0.8047121,1.68,-4.375,-3.57
139,232263,0.5665680000000001,0.167872,-0.8047121,1.7325,-4.4275,-3.57
140,232361,0.568032,0.168604,-0.8042239999999999,1.61,-4.515,-3.605
141,232459,0.5631520000000001,0.17128800000000002,-0.8044680999999999,1.68,-4.6375,-3.675
142,232557,0.564372,0.170312,-0.8047121,1.8375,-4.6725,-3.5875
143,232656,0.564372,0.170312,-0.80642,1.82,-4.8475,-3.6225
144,232754,0.5653481,0.170312,-0.8052,1.82,-5.005,-3.57
145,232852,0.564372,0.16909200000000002,-0.8039801,1.8725,-5.075,-3.6225
146,232950,0.56608,0.170312,-0.8054439999999999,1.89,-5.0575,-3.57
147,233048,0.566812,0.168604,-0.8047121,1.855,-5.0925,-3.605
148,233146,0.5673,0.168604,-0.8049561,1.8725,-5.18,-3.64
149,233244,0.565836,0.16958,-0.8039801,1.8725,-5.355,-3.71
150,233342,0.5675439999999999,0.167628,-0.805688,1.8375,-5.5475,-3.7975
151,233440,0.566812,0.169336,-0.8047121,1.855,-5.67,-3.815
152,233539,0.566812,0.16835999999999998,-0.8039801,1.855,-5.81,-3.815
153,233637,0.562908,0.16909200000000002,-0.8049561,1.9075,-5.88,-3.78
154,233735,0.5614439999999999,0.167628,-0.8054439999999999,1.8725,-5.9675,-3.8675
155,233833,0.563884,0.166164,-0.8047121,1.9775,-5.9325,-3.78
156,233931,0.55998,0.168604,-0.8066641,1.89,-5.95,-3.7275
157,234029,0.5631520000000001,0.167628,-0.803248,1.9075,-5.8275,-3.885
158,234127,0.5604680000000001,0.167628,-0.80642,1.855,-5.88,-3.92
159,234225,0.563884,0.167628,-0.8049561,1.82,-5.705,-3.99
160,234323,0.56242,0.16714,-0.8044680999999999,1.855,-5.705,-3.9375
161,234422,0.5577840000000001,0.16909200000000002,-0.8054439999999999,1.855,-5.775,-3.9375
162,234520,0.5602239999999999,0.165188,-0.8039801,1.96,-5.4075,-3.745
163,234618,0.5594920999999999,0.166408,-0.8049561,1.855,-5.355,-3.78
164,234716,0.559736,0.169336,-0.806176,1.8025,-5.3725,-3.7975
165,234814,0.5602239999999999,0.16958,-0.8066641,1.785,-5.215,-3.78
166,234912,0.5577840000000001,0.168604,-0.8049561,1.8025,-5.145,-3.7975
167,235010,0.558028,0.165188,-0.8066641,1.82,-5.075,-3.78
168,235108,0.5565640000000001,0.164212,-0.806908,1.855,-4.865,-3.7275
169,235206,0.5543680000000001,0.164456,-0.8049561,1.785,-4.865,-3.6925
170,235305,0.5577840000000001,0.165188,-0.8071520000000001,1.855,-4.7425,-3.7975
171,235403,0.5602239999999999,0.168604,-0.806176,1.6975,-4.585,-3.6925
172,235501,0.558028,0.168848,-0.8052,1.6625,-4.5675,-3.78
173,235599,0.559004,0.168604,-0.8052,1.68,-4.62,-3.6925
174,235697,0.5587601,0.16689600000000002,-0.806176,1.855,-4.4975,-3.675
175,235795,0.5594920999999999,0.167628,-0.8052,1.785,-4.34,-3.675
176,235893,0.5602239999999999,0.16689600000000002,-0.8054439999999999,1.8025,-4.4275,-3.6575
177,235991,0.5587601,0.165676,-0.806176,1.75,-4.34,-3.6575
178,236089,0.555588,0.165676,-0.808372,1.645,-4.375,-3.64
179,236188,0.558516,0.166652,-0.80642,1.6975,-4.2,-3.6225
180,236286,0.55998,0.168604,-0.806908,1.6975,-4.06,-3.6575
181,236384,0.560956,0.168848,-0.8066641,1.6275,-4.06,-3.6925
182,236482,0.560956,0.16689600000000002,-0.806908,1.6625,-4.0775,-3.745
183,236580,0.5594920999999999,0.168604,-0.808372,1.68,-4.1825,-3.6575
184,236678,0.560956,0.16811600000000002,-0.808372,1.785,-4.2175,-3.64
185,236776,0.558028,0.16592,-0.80642,1.6625,-4.305,-3.64
186,236874,0.558516,0.166408,-0.8054439999999999,1.61,-4.305,-3.605
187,236972,0.55998,0.165676,-0.805688,1.6975,-4.235,-3.57
188,237070,0.55998,0.16811600000000002,-0.8054439999999999,1.68,-4.3225,-3.6925
189,237169,0.5594920999999999,0.163968,-0.8047121,1.6275,-4.34,-3.7275
190,237267,0.559248,0.168604,-0.8071520000000001,1.715,-4.4625,-3.745
191,237365,0.563396,0.167628,-0.805932,1.6625,-4.48,-3.78
192,237463,0.5594920999999999,0.166652,-0.8081281,1.6975,-4.6375,-3.78
193,237561,0.559736,0.164944,-0.8081281,1.68,-4.6375,-3.85
194,237659,0.560956,0.16811600000000002,-0.8071520000000001,1.6625,-4.4975,-3.815
195,237757,0.558516,0.16592,-0.8071520000000001,1.5925,-4.6025,-3.7975
196,237855,0.559248,0.165432,-0.8066641,1.645,-4.6025,-3.7625
197,237954,0.559248,0.166408,-0.8071520000000001,1.6975,-4.5675,-3.7975
198,238052,0.5612,0.164944,-0.803736,1.68,-4.5675,-3.7625
199,238150,0.5594920999999999,0.16592,-0.8039801,1.68,-4.55,-3.7975
200,238248,0.5575399999999999,0.165188,-0.807884,1.7675,-4.48,-3.85
201,238346,0.558516,0.164212,-0.807396,1.7325,-4.4975,-3.745
202,238444,0.5607121,0.165188,-0.8049561,1.68,-4.48,-3.745
203,238542,0.5604680000000001,0.166164,-0.8052,1.7325,-4.48,-3.745
204,238640,0.55998,0.165188,-0.8049561,1.7325,-4.515,-3.7975
205,238739,0.559248,0.165188,-0.8039801,1.645,-4.48,-3.8325
206,238837,0.5604680000000001,0.16811600000000002,-0.80642,1.645,-4.48,-3.885
207,238935,0.558028,0.164944,-0.8066641,1.715,-4.4275,-3.8325
208,239033,0.55998,0.168848,-0.805688,1.6975,-4.3225,-3.7625
209,239131,0.557052,0.165188,-0.8076399999999999,1.6975,-4.3575,-3.7975
210,239229,0.5551,0.164456,-0.806176,1.6975,-4.41,-3.7625
211,239327,0.558028,0.16592,-0.80642,1.6275,-4.095,-3.745
212,239425,0.559004,0.167384,-0.8054439999999999,1.5575,-4.1825,-3.7275
213,239523,0.559248,0.16592,-0.807884,1.5925,-4.1475,-3.78
214,239622,0.5607121,0.1647,-0.8042239999999999,1.505,-4.095,-3.8675
215,239720,0.559736,0.16811600000000002,-0.806176,1.47,-4.0425,-3.78
216,239818,0.5594920999999999,0.165432,-0.805688,1.505,-4.095,-3.7975
217,239916,0.559736,0.164944,-0.805932,1.4875,-4.0775,-3.7275
218,240014,0.5602239999999999,0.163724,-0.8052,1.6275,-4.1475,-3.6575
219,240112,0.5692520000000001,0.167628,-0.8100801,1.505,-4.0775,-3.7975
220,240210,0.562664,0.165676,-0.80642,1.575,-4.1475,-3.78
221,240308,0.5587601,0.16714,-0.8052,1.54,-4.3575,-3.7975
222,240406,0.55998,0.1647,-0.803248,1.505,-4.235,-3.7975
223,240504,0.5602239999999999,0.16592,-0.8052,1.54,-4.2,-3.815
224,240603,0.563396,0.166164,-0.8042239999999999,1.5575,-4.2525,-3.8325
225,240701,0.55998,0.16592,-0.805688,1.5575,-4.375,-3.815
226,240799,0.559248,0.165432,-0.809348,1.575,-4.2875,-3.885
227,240897,0.561932,0.165676,-0.803736,1.5925,-4.235,-3.8675
228,240995,0.559004,0.166408,-0.8071520000000001,1.5225,-4.2525,-3.7975
229,241093,0.559248,0.165676,-0.807884,1.5925,-4.2525,-3.7275
230,241191,0.5607121,0.16348,-0.8049561,1.5925,-4.2,-3.7975
231,241289,0.558028,0.16592,-0.8049561,1.54,-4.2525,-3.815
232,241387,0.5594920999999999,0.166408,-0.80642,1.54,-4.2,-3.7975
233,241485,0.562908,0.16592,-0.80276,1.5225,-4.2,-3.7275
234,241584,0.55998,0.162748,-0.8030041,1.575,-4.305,-3.7975
235,241682,0.5607121,0.166164,-0.805688,1.5575,-4.2525,-3.885
236,241780,0.562664,0.1647,-0.803248,1.61,-4.305,-3.92
237,241878,0.5602239999999999,0.163968,-0.8042239999999999,1.5925,-4.375,-3.885
238,241976,0.562176,0.1647,-0.803492,1.5925,-4.585,-3.9375
239,242074,0.559004,0.16592,-0.8066641,1.5575,-4.6025,-3.9375
240,242172,0.5602239999999999,0.166652,-0.8049561,1.54,-4.6025,-3.885
241,242270,0.562176,0.166408,-0.803492,1.5225,-4.585,-3.8325
242,242368,0.558272,0.16714,-0.8066641,1.54,-4.5675,-3.9375
243,242467,0.559736,0.167872,-0.8042239999999999,1.54,-4.445,-3.955
244,242565,0.560956,0.163724,-0.8039801,1.54,-4.515,-3.92
245,242663,0.5607121,0.164456,-0.80276,1.5225,-4.515,-3.9725
246,242761,0.5604680000000001,0.165188,-0.803492,1.505,-4.3925,-3.92
247,242859,0.558516,0.163236,-0.8042239999999999,1.505,-4.62,-3.9725
248,242957,0.560956,0.165188,-0.8039801,1.54,-4.4975,-3.99
249,243055,0.558028,0.1647,-0.8066641,1.5575,-4.48,-3.955
250,243153,0.559248,0.165188,-0.80642,1.435,-4.34,-3.955
251,243251,0.559736,0.166408,-0.80642,1.47,-4.3575,-3.9025
252,243349,0.55998,0.165676,-0.8047121,1.4875,-4.4975,-3.885
253,243448,0.5636399999999999,0.16348,-0.806908,1.47,-4.3925,-3.85
254,243546,0.559736,0.165676,-0.8054439999999999,1.47,-4.4275,-3.955
255,243644,0.55998,0.16689600000000002,-0.8076399999999999,1.5575,-4.4275,-3.99
256,243742,0.560956,0.164456,-0.803492,1.3825,-4.34,-4.0075
257,243840,0.5604680000000001,0.167628,-0.80642,1.4525,-4.41,-3.955
258,243938,0.5594920999999999,0.16592,-0.8054439999999999,1.505,-4.4275,-4.06
259,244036,0.5602239999999999,0.164944,-0.8054439999999999,1.4175,-4.515,-4.0425
260,244134,0.560956,0.1647,-0.803492,1.47,-4.55,-4.0775
261,244232,0.560956,0.16592,-0.8042239999999999,1.47,-4.48,-4.0075
262,244331,0.559736,0.16714,-0.8047121,1.4525,-4.515,-3.99
263,244429,0.562176,0.16592,-0.8030041,1.4525,-4.4275,-4.0075
264,244527,0.5607121,0.164944,-0.803736,1.4,-4.4275,-4.06
265,244625,0.5614439999999999,0.164944,-0.8030041,1.4175,-4.4975,-4.0425
266,244723,0.55998,0.166408,-0.805688,1.4525,-4.4275,-4.025
267,244821,0.5607121,0.16835999999999998,-0.806908,1.3475,-4.5325,-3.99
268,244919,0.558272,0.165188,-0.806176,1.4525,-4.655,-4.0425
269,245017,0.5594920999999999,0.166652,-0.8066641,1.47,-4.655,-3.9725
270,245116,0.559004,0.167384,-0.805932,1.4875,-4.655,-4.0075
271,245214,0.559736,0.16714,-0.807396,1.4525,-4.725,-4.0425
272,245312,0.559248,0.166652,-0.8076399999999999,1.5925,-4.935,-4.0075
273,245410,0.5602239999999999,0.16835999999999998,-0.8066641,1.505,-4.865,-4.025
274,245508,0.560956,0.166652,-0.8054439999999999,1.5575,-4.865,-3.99
275,245606,0.5587601,0.165676,-0.807396,1.61,-4.935,-4.025
276,245704,0.5594920999999999,0.167628,-0.805688,1.575,-4.9,-4.025
277,245802,0.5602239999999999,0.166408,-0.805932,1.5925,-4.8825,-4.025
278,245900,0.55998,0.1647,-0.8049561,1.5925,-4.8825,-4.0425
279,245999,0.559004,0.166408,-0.806176,1.6275,-4.9525,-4.0075
280,246097,0.558272,0.168604,-0.8049561,1.5925,-4.9,-3.9725
281,246195,0.555588,0.16714,-0.807884,1.5575,-4.8125,-3.9725
282,246293,0.5575399999999999,0.164944,-0.8076399999999999,1.6275,-4.6725,-3.92
283,246391,0.5587601,0.164944,-0.806908,1.47,-4.515,-3.9725
284,246489,0.5587601,0.167384,-0.805688,1.54,-4.55,-4.025
285,246587,0.55632,0.16592,-0.806176,1.4875,-4.4975,-3.9725
286,246685,0.5602239999999999,0.16592,-0.8071520000000001,1.4875,-4.5325,-3.9725
287,246783,0.557296,0.165188,-0.805932,1.54,-4.62,-3.99
288,246882,0.559736,0.167872,-0.8071520000000001,1.54,-4.5325,-4.0075
289,246980,0.559004,0.166408,-0.8076399999999999,1.4875,-4.445,-3.92
290,247078,0.556808,0.165432,-0.807396,1.4875,-4.4975,-3.9025
291,247176,0.559004,0.166408,-0.80642,1.435,-4.375,-3.955
292,247274,0.558516,0.167872,-0.8052,1.47,-4.3575,-3.955
293,247372,0.559248,0.16689600000000002,-0.8042239999999999,1.4525,-4.375,-3.955
294,247470,0.556808,0.167628,-0.8047121,1.505,-4.3925,-3.955
295,247568,0.5587601,0.167384,-0.806176,1.505,-4.235,-3.9025
296,247666,0.55998,0.16811600000000002,-0.8076399999999999,1.5225,-4.235,-3.885
297,247765,0.559004,0.165188,-0.807884,1.505,-4.2175,-3.8325
298,247863,0.5602239999999999,0.16714,-0.809348,1.4175,-4.2175,-3.8675
299,247961,0.559248,0.167872,-0.80642,1.4175,-4.27,-3.9375
300,248059,0.558516,0.166164,-0.8076399999999999,1.4525,-4.2525,-3.955
301,248157,0.5594920999999999,0.167872,-0.8076399999999999,1.4175,-4.2175,-3.9725
302,248255,0.558272,0.168604,-0.80642,1.4525,-4.235,-3.9375
303,248353,0.5577840000000001,0.166408,-0.80642,1.4175,-4.3225,-3.9025
304,248451,0.558028,0.168848,-0.806908,1.4,-4.2875,-3.885
305,248549,0.559736,0.16909200000000002,-0.8071520000000001,1.33,-4.235,-3.9375
306,248648,0.558272,0.167384,-0.805688,1.3475,-4.3225,-3.885
307,248746,0.5594920999999999,0.168604,-0.806908,1.4175,-4.34,-3.8675
308,248844,0.5587601,0.16714,-0.806176,1.435,-4.3225,-3.92
309,248942,0.559004,0.16835999999999998,-0.805688,1.4875,-4.3225,-3.9725
310,249040,0.559004,0.164212,-0.8044680999999999,1.4525,-4.3225,-3.92
311,249138,0.5587601,0.166652,-0.80642,1.4175,-4.34,-3.885
312,249236,0.5602239999999999,0.16689600000000002,-0.805688,1.365,-4.34,-3.9375
313,249334,0.5594920999999999,0.16835999999999998,-0.806176,1.435,-4.41,-3.955
314,249432,0.55998,0.164944,-0.8044680999999999,1.4875,-4.445,-3.92
315,249530,0.5602239999999999,0.166652,-0.805688,1.505,-4.445,-4.0075
316,249628,0.5604680000000001,0.16835999999999998,-0.805932,1.54,-4.585,-3.955
317,249727,0.5594920999999999,0.16835999999999998,-0.8052,1.505,-4.6025,-3.9725
318,249825,0.558516,0.166408,-0.80642,1.4875,-4.6375,-4.0075
319,249923,0.559248,0.16714,-0.8086161000000001,1.505,-4.655,-3.99
320,250021,0.5604680000000001,0.168604,-0.807884,1.54,-4.69,-3.9375
321,250119,0.5604680000000001,0.168604,-0.806908,1.435,-4.655,-4.095
322,250217,0.557296,0.166164,-0.808372,1.435,-4.7075,-4.095
323,250315,0.557052,0.166164,-0.80642,1.47,-4.795,-4.06
324,250413,0.558516,0.16714,-0.80642,1.4875,-4.7425,-4.1125
325,250511,0.5587601,0.167384,-0.807396,1.54,-4.795,-4.095
326,250609,0.558272,0.167384,-0.8052,1.505,-4.7775,-4.025
327,250708,0.5587601,0.16835999999999998,-0.80642,1.5575,-4.7775,-4.0075
328,250806,0.5565640000000001,0.166164,-0.806176,1.6275,-4.69,-3.9725
329,250904,0.556076,0.165676,-0.807396,1.5575,-4.7075,-3.955
330,251002,0.558272,0.16811600000000002,-0.80642,1.54,-4.6025,-4.0775
331,251100,0.559248,0.168604,-0.805932,1.54,-4.55,-4.0075
332,251198,0.55998,0.169336,-0.80642,1.4175,-4.62,-3.92
333,251296,0.559248,0.167872,-0.806908,1.4175,-4.62,-3.92
334,251394,0.558272,0.166652,-0.80886,1.505,-4.655,-3.9375
335,251492,0.5594920999999999,0.167384,-0.8066641,1.505,-4.7425,-4.025
336,251591,0.5602239999999999,0.167628,-0.80886,1.4875,-4.655,-4.0425
337,251689,0.5594920999999999,0.168848,-0.80642,1.505,-4.62,-4.0425
338,251787,0.557052,0.16714,-0.8081281,1.505,-4.725,-4.095
339,251885,0.55632,0.16689600000000002,-0.8071520000000001,1.505,-4.8125,-4.0425
340,251983,0.559004,0.16714,-0.8076399999999999,1.47,-4.83,-4.025
341,252081,0.559248,0.167384,-0.8081281,1.4525,-4.795,-4.06
342,252179,0.559736,0.16835999999999998,-0.8066641,1.505,-4.8475,-4.025
343,252277,0.557296,0.16714,-0.80642,1.5225,-4.865,-4.0775
344,252376,0.5575399999999999,0.16714,-0.806908,1.4525,-4.76,-4.0775
345,252474,0.559248,0.167628,-0.806176,1.505,-4.9525,-4.0775
346,252572,0.558272,0.168848,-0.8071520000000001,1.505,-4.935,-4.13
347,252670,0.5575399999999999,0.16714,-0.807396,1.5575,-4.935,-4.1475
348,252768,0.559004,0.16958,-0.8071520000000001,1.575,-5.005,-4.13
349,252866,0.559736,0.168604,-0.807396,1.505,-5.04,-4.235
350,252964,0.558516,0.167628,-0.807884,1.505,-5.1275,-4.2525
351,253062,0.5594920999999999,0.167628,-0.8086161000000001,1.5225,-5.2325,-4.235
352,253160,0.5587601,0.16909200000000002,-0.8076399999999999,1.5225,-5.4075,-4.2525
353,253259,0.5577840000000001,0.16835999999999998,-0.8071520000000001,1.505,-5.425,-4.27
354,253357,0.5594920999999999,0.16714,-0.8091041,1.505,-5.5825,-4.34
355,253455,0.558028,0.166164,-0.807884,1.505,-5.6175,-4.2875
356,253553,0.5553441,0.16592,-0.8071520000000001,1.61,-5.6175,-4.2175
357,253651,0.555588,0.16592,-0.8066641,1.54,-5.635,-4.3225
358,253749,0.553636,0.166164,-0.805932,1.4525,-5.7225,-4.3925
359,253847,0.555588,0.164456,-0.807396,1.295,-5.7225,-4.445
360,253945,0.552904,0.16592,-0.805932,1.2775,-5.67,-4.445
361,254043,0.552416,0.166408,-0.80642,1.2775,-5.635,-4.4275
362,254142,0.553148,0.16811600000000002,-0.8076399999999999,1.3125,-5.635,-4.4625
363,254240,0.555832,0.166164,-0.808372,1.365,-5.6,-4.445
364,254338,0.552904,0.16689600000000002,-0.8100801,1.33,-5.565,-4.4975
365,254436,0.552172,0.1708,-0.807884,1.4175,-5.4425,-4.4975
366,254534,0.5489999999999999,0.168604,-0.807884,1.365,-5.215,-4.3925
367,254632,0.542656,0.170068,-0.8081281,1.4,-5.0575,-4.3225
368,254730,0.543144,0.16958,-0.8076399999999999,1.435,-4.6375,-4.0775
369,254828,0.548268,0.167872,-0.808372,1.4175,-3.885,-3.815
370,254926,0.5516840000000001,0.16958,-0.8054439999999999,1.4525,-3.6925,-3.7275
371,255025,0.554856,0.165432,-0.8081281,1.4175,-3.5525,-3.6575
372,255123,0.557052,0.167384,-0.807884,1.3475,-3.4825,-3.745
373,255221,0.5543680000000001,0.167872,-0.808372,1.2775,-3.5875,-3.6925
374,255319,0.552172,0.167384,-0.808372,1.33,-3.7275,-3.7625
375,255417,0.543876,0.17202,-0.807884,1.365,-3.675,-3.71
376,255515,0.5502199999999999,0.16835999999999998,-0.807396,1.4525,-3.1675,-3.5
377,255613,0.547536,0.167628,-0.8049561,1.4525,-2.7125,-3.3425
378,255711,0.548756,0.177144,-0.8086161000000001,1.295,-2.555,-3.1675
379,255809,0.5604680000000001,0.165188,-0.807884,1.645,-1.9425,-2.8875
380,255908,0.55998,0.170068,-0.808372,1.645,-2.03,-2.9225
381,256006,0.562176,0.1708,-0.807396,1.5925,-2.275,-3.08
382,256104,0.562908,0.1647,-0.805688,1.7325,-2.3275,-3.115
383,256202,0.5602239999999999,0.16811600000000002,-0.80886,1.715,-2.695,-3.1675
384,256300,0.5604680000000001,0.168604,-0.809348,1.61,-2.9575,-3.36
385,256398,0.5631520000000001,0.165676,-0.806908,1.575,-2.9925,-3.465
386,256496,0.562176,0.165188,-0.8054439999999999,1.645,-3.3075,-3.5
387,256594,0.55998,0.165676,-0.8054439999999999,1.6275,-3.5525,-3.5525
388,256692,0.55998,0.16714,-0.809836,1.6625,-3.745,-3.535
389,256791,0.5631520000000001,0.16811600000000002,-0.807884,1.6625,-3.7625,-3.6225
390,256889,0.558516,0.167384,-0.806908,1.61,-3.9375,-3.675
391,256987,0.558028,0.16835999999999998,-0.8054439999999999,1.61,-4.0775,-3.675
392,257085,0.559248,0.16811600000000002,-0.808372,1.61,-3.885,-3.71
393,257183,0.559004,0.16811600000000002,-0.806176,1.505,-3.78,-3.6575
394,257281,0.55632,0.166164,-0.806908,1.4875,-3.885,-3.675
395,257379,0.5612,0.16958,-0.8071520000000001,1.54,-3.745,-3.7275
396,257477,0.55998,0.167872,-0.8071520000000001,1.505,-3.885,-3.78
397,257575,0.558272,0.16909200000000002,-0.806908,1.435,-4.025,-3.745
398,257674,0.559248,0.168848,-0.8052,1.4,-3.885,-3.675
399,257772,0.554856,0.167628,-0.803248,1.365,-3.85,-3.6925
400,257870,0.5502199999999999,0.166408,-0.807396,1.4525,-3.675,-3.5875
401,257968,0.553636,0.16592,-0.807396,1.5925,-3.29,-3.43
402,258066,0.558272,0.168848,-0.8066641,1.5925,-3.1675,-3.36
403,258164,0.5675439999999999,0.167384,-0.8052,1.7325,-2.9575,-3.36
404,258262,0.5631520000000001,0.167384,-0.805932,1.5575,-2.9225,-3.4475
405,258360,0.5614439999999999,0.16811600000000002,-0.8054439999999999,1.5925,-2.9925,-3.535
406,258458,0.563396,0.16592,-0.8039801,1.6275,-2.9575,-3.535
407,258557,0.561688,0.16689600000000002,-0.8047121,1.505,-3.01,-3.465
408,258655,0.558028,0.167384,-0.805932,1.4525,-3.0975,-3.5
409,258753,0.5631520000000001,0.166164,-0.807884,1.6275,-2.975,-3.4475
410,258851,0.5631520000000001,0.16201600000000002,-0.81374,1.6975,-2.9925,-3.3425
411,258949,0.5675439999999999,0.17324,-0.8020281,1.785,-3.325,-3.36
412,259047,0.5655920999999999,0.164944,-0.8049561,1.645,-3.185,-3.395
413,259145,0.562176,0.166164,-0.8049561,1.6975,-3.185,-3.465
414,259243,0.5673,0.164212,-0.803492,1.6275,-3.3075,-3.6225
415,259341,0.562908,0.163968,-0.803736,1.47,-3.36,-3.6225
416,259439,0.5636399999999999,0.166408,-0.8030041,1.505,-3.5175,-3.675
417,259538,0.5655920999999999,0.165432,-0.803736,1.4525,-3.535,-3.6575
418,259636,0.5663239999999999,0.168848,-0.803736,1.4175,-3.605,-3.6575
419,259734,0.562908,0.166164,-0.803736,1.4875,-3.7625,-3.8675
420,259832,0.562664,0.16714,-0.80276,1.4525,-3.7625,-3.7275
421,259930,0.564128,0.16689600000000002,-0.8030041,1.505,-3.535,-3.7275
422,260028,0.5665680000000001,0.16689600000000002,-0.8049561,1.61,-3.5875,-3.815
423,260126,0.566812,0.166164,-0.805932,1.575,-3.745,-3.8325
424,260224,0.566812,0.16909200000000002,-0.8054439999999999,1.5225,-3.64,-3.7275
425,260323,0.565104,0.16689600000000002,-0.8010520000000001,1.4875,-3.675,-3.7275
426,260421,0.568764,0.166164,-0.8044680999999999,1.5225,-3.7275,-3.7975
427,260519,0.569984,0.165676,-0.802272,1.4525,-3.8675,-3.8325
428,260617,0.5690081,0.16592,-0.8039801,1.435,-4.165,-3.85
429,260715,0.5665680000000001,0.16592,-0.803492,1.435,-4.375,-3.885
430,260813,0.5665680000000001,0.16714,-0.8054439999999999,1.4,-4.445,-3.9725
431,260911,0.5663239999999999,0.16714,-0.80276,1.505,-4.4975,-3.92
432,261009,0.56608,0.167384,-0.803736,1.4,-4.6025,-4.0075
433,261107,0.563884,0.169336,-0.8042239999999999,1.4,-4.8125,-3.9725
434,261206,0.5648601,0.168604,-0.803492,1.3825,-4.83,-3.99
435,261304,0.564128,0.16835999999999998,-0.801784,1.4875,-4.9525,-4.025
436,261402,0.567788,0.166164,-0.8030041,1.4525,-5.0925,-4.0075
437,261500,0.5702281,0.16714,-0.802272,1.54,-5.1625,-4.025
438,261598,0.569984,0.166408,-0.803492,1.61,-5.3025,-4.1475
439,261696,0.56852,0.167872,-0.80642,1.5225,-5.565,-4.1125
440,261794,0.57096,0.166164,-0.8042239999999999,1.575,-5.845,-4.2525
441,261892,0.571204,0.167872,-0.8049561,1.575,-6.16,-4.3925
442,261991,0.5694961,0.16835999999999998,-0.806908,1.435,-6.405,-4.4625
443,262089,0.568276,0.168604,-0.8091041,1.5575,-6.37,-4.655
444,262187,0.567056,0.172752,-0.8042239999999999,1.75,-6.02,-5.1625
445,262285,0.565104,0.177876,-0.8052,2.03,-6.4575,-5.25
446,262383,0.5665680000000001,0.17202,-0.8095920999999999,2.485,-6.4225,-5.0925
447,262481,0.56242,0.167872,-0.807396,2.66,-6.2125,-5.2325
448,262579,0.559736,0.16592,-0.8052,2.66,-6.09,-5.3375
449,262677,0.5648601,0.1647,-0.8076399999999999,2.52,-5.9325,-5.46
450,262776,0.56608,0.162748,-0.8108121,2.6425,-5.705,-5.95
451,262874,0.563396,0.17641199999999999,-0.809348,2.5025,-5.8975,-6.1075
452,262972,0.5648601,0.17568,-0.803492,2.59,-5.5825,-5.845
453,263070,0.5546121,0.171532,-0.8081281,2.45,-5.775,-5.5125
454,263168,0.5516840000000001,0.174704,-0.8086161000000001,2.2575,-5.4425,-5.285
455,263266,0.553148,0.172508,-0.807396,1.925,-4.97,-5.1625
456,263364,0.5511961,0.173484,-0.8047121,1.6625,-4.76,-4.9175
457,263462,0.543632,0.16201600000000002,-0.798856,1.6275,-4.9,-4.4975
458,263560,0.552172,0.155184,-0.8142281,1.47,-4.13,-4.2175
459,263659,0.559736,0.161772,-0.803248,0.7525,-3.325,-4.445
460,263757,0.5516840000000001,0.161772,-0.797636,0.595,-3.5875,-4.5325
461,263855,0.528504,0.158112,-0.79666,0.7875,-3.745,-4.48
462,263953,0.5233800000000001,0.15982000000000002,-0.798856,0.7175,-2.8,-4.3575
463,264051,0.552904,0.16348,-0.797148,0.7,-1.0325,-4.3225
464,264149,0.5702281,0.168848,-0.800808,0.7525,-0.6475,-4.235
465,264247,0.5665680000000001,0.164456,-0.801784,0.7875,-1.5925,-4.27
466,264345,0.560956,0.167384,-0.801784,0.805,-2.555,-4.2525
467,264444,0.559004,0.165188,-0.7986121,0.7525,-3.045,-4.2875
468,264542,0.55388,0.162748,-0.8044680999999999,0.5075,-3.2725,-4.4625
469,264640,0.556076,0.167384,-0.79666,0.35,-2.9925,-4.6725
470,264738,0.558516,0.169824,-0.797636,0.385,-2.6775,-4.7425
471,264836,0.5543680000000001,0.166408,-0.805688,0.5425,-2.695,-4.62
472,264934,0.561688,0.16689600000000002,-0.8113001,0.8575,-2.5375,-4.725
473,265032,0.5743761,0.17616800000000002,-0.8039801,1.4,-2.2575,-4.865
474,265130,0.575596,0.17055599999999999,-0.8030041,1.6975,-2.5375,-5.0225
475,265228,0.570472,0.176656,-0.8149601,1.82,-3.1675,-5.0925
476,265326,0.597312,0.18178,-0.809348,1.19,-2.9575,-5.32
477,265425,0.5846241,0.16909200000000002,-0.812276,0.35,-3.4125,-5.3375
478,265523,0.582184,0.18666,-0.8244761,-0.455,-4.585,-5.4425
479,265621,0.60512,0.179828,-0.8127641,-1.89,-3.9025,-5.6875
480,265719,0.586088,0.17616800000000002,-0.801784,-3.2725,-4.935,-6.3175
481,265817,0.555832,0.16348,-0.802272,-3.675,-6.0025,-7.0875
482,265915,0.56608,0.179096,-0.8230120999999999,-3.5525,-6.405,-7.56
483,266013,0.6021920000000001,0.161772,-0.798856,-5.425,-6.09,-8.12
484,266111,0.576572,0.167384,-0.8081281,-7.0875,-8.19,-8.925
485,266209,0.5429,0.185928,-0.787876,-7.2275,-10.08,-9.7125
486,266308,0.5602239999999999,0.172264,-0.7881199999999999,-7.14,-9.765,-9.8525
487,266406,0.548756,0.174704,-0.7795801,-7.21,-9.555,-9.8
488,266504,0.53192,0.19276,-0.8015399999999999,-6.5975,-9.765,-10.045
489,266602,0.5980439999999999,0.168848,-0.796172,-6.9125,-8.6275,-9.9925
490,266700,0.5648601,0.194712,-0.791048,-8.0675,-9.5725,-10.78
491,266798,0.508984,0.19251600000000002,-0.803492,-7.9975,-10.6225,-11.7075
492,266896,0.542412,0.188124,-0.7978801,-7.35,-9.2925,-11.2875
493,266994,0.562176,0.17128800000000002,-0.796172,-7.0175,-8.1025,-11.4625
494,267092,0.566812,0.17934,-0.8105680000000001,-7.4025,-8.6975,-11.9175
495,267191,0.540216,0.205448,-0.803492,-8.5225,-9.0125,-11.9175
496,267289,0.5429,0.214964,-0.8113001,-8.3825,-8.7325,-11.655
497,267387,0.5587601,0.198372,-0.81618,-8.2425,-7.9625,-11.2175
498,267485,0.554124,0.20105599999999998,-0.8222799999999999,-9.2225,-8.05,-10.8675
499,267583,0.556808,0.188368,-0.820084,-10.0975,-8.3475,-11.3925
500,267681,0.5504641,0.195444,-0.8271601000000001,-11.3575,-8.33,-10.9375
501,267779,0.5502199999999999,0.212524,-0.809348,-12.5475,-8.3475,-10.92
502,267877,0.528016,0.229116,-0.803492,-12.5125,-8.3825,-10.7975
503,267975,0.5294800000000001,0.211304,-0.81252,-11.585,-7.7,-10.43
504,268074,0.55632,0.207156,-0.8117880000000001,-11.445,-7.1225,-10.115
505,268172,0.531676,0.214964,-0.806176,-11.97,-7.5775,-9.59
506,268270,0.531676,0.223504,-0.799588,-11.585,-7.595,-9.2575
507,268368,0.543632,0.22496799999999997,-0.7991,-10.9025,-7.4025,-8.89
508,268466,0.5248441,0.2501,-0.795928,-10.15,-7.42,-8.61
509,268564,0.543144,0.239608,-0.8091041,-9.0825,-7.0,-8.2075
510,268662,0.538508,0.22252800000000003,-0.792512,-9.1175,-6.8425,-7.9275
511,268760,0.506788,0.25522399999999995,-0.7854361,-8.8725,-7.4375,-7.4375
512,268858,0.5343600000000001,0.244488,-0.798856,-7.315,-6.6325,-6.8775
513,268957,0.5321640000000001,0.244732,-0.783728,-6.545,-6.335,-6.4575
514,269055,0.49263599999999996,0.2623,-0.786412,-5.04,-6.265,-6.2125
515,269153,0.538996,0.223748,-0.798856,-3.255,-4.7075,-6.0375
516,269251,0.53192,0.24790399999999999,-0.793488,-3.2025,-4.69,-5.7225
517,269349,0.5160600000000001,0.255468,-0.7883640000000001,-1.82,-5.0225,-5.4425
518,269447,0.547048,0.23521599999999998,-0.801784,0.0,-4.4625,-4.8125
519,269545,0.5502199999999999,0.242048,-0.8039801,0.3675,-4.69,-4.515
520,269643,0.549244,0.243024,-0.807396,0.245,-5.6875,-4.1825
521,269741,0.549488,0.225212,-0.805932,0.1575,-6.195,-3.9025
522,269839,0.529968,0.23155599999999998,-0.795928,0.0,-7.0175,-3.8325
523,269938,0.5221600000000001,0.23741199999999998,-0.79666,0.3325,-7.07,-3.6575
524,270036,0.5192319999999999,0.23472800000000002,-0.79178,1.33,-6.545,-3.1675
525,270134,0.47823999999999994,0.253272,-0.779092,2.765,-6.2125,-2.2925
526,270232,0.523868,0.25961599999999996,-0.7922680000000001,4.8825,-4.2175,-1.0325
527,270330,0.513864,0.236436,-0.7829961,6.545,-3.0625,0.2975
528,270428,0.487512,0.257176,-0.7732359999999999,8.68,-2.5025,2.0825
529,270526,0.49702799999999997,0.24888000000000002,-0.767624,12.39,-0.56,4.2
530,270624,0.499224,0.24107199999999998,-0.76494,17.3075,1.225,6.6325
531,270722,0.457744,0.271328,-0.7388319999999999,24.5,2.8175,9.66
532,270821,0.4743361,0.263276,-0.75762,33.075,6.755,12.8625
533,270919,0.50508,0.18544000000000002,-0.798124,38.8675,11.725,14.42
534,271017,0.49141599999999996,0.17397200000000002,-0.8142281,39.9525,14.6125,14.4025
535,271115,0.6224441,0.134688,-0.868396,36.2425,15.715,13.7725
536,271213,0.534116,0.207156,-0.849852,28.8925,12.425,12.635
537,271311,0.655628,0.225456,-0.8281360999999999,24.64,11.795,11.1825
538,271409,0.592432,0.19032000000000002,-0.8652241,24.605,11.9,9.17
539,271507,0.567788,0.199104,-0.837408,23.52,14.525,6.7025
540,271605,0.5980439999999999,0.135176,-0.826672,20.125,16.17,5.0925
541,271703,0.57706,0.17446,-0.815692,14.3675,16.3275,3.5875
542,271802,0.56242,0.172752,-0.8039801,11.585,18.025,2.2575
543,271900,0.591212,0.14152,-0.8164239999999999,9.7125,21.595,1.435
544,271998,0.510936,0.13761600000000002,-0.85034,6.8425,25.655,-0.105
545,272096,0.48653599999999997,0.16201600000000002,-0.8744960999999999,1.4875,33.215,0.4725
546,272194,0.47702,0.153232,-0.8788879999999999,1.295,43.085,2.415
547,272292,0.55632,0.171044,-0.862296,0.385,56.595,3.15
548,272390,0.554124,0.14688800000000002,-0.820084,-2.03,69.1775,4.2525
549,272488,0.522404,0.1586,-0.8488761,-5.1625,83.3525,3.3425
550,272586,0.684176,0.177876,-0.8698601,-6.475,98.8575,1.75
551,272684,0.642452,0.172996,-0.8620521000000001,-8.8025,116.9875,0.14
552,272783,0.577304,0.1708,-0.882548,-10.605,141.1375,-3.01
553,272881,0.7793359999999999,0.223016,-0.9211,-17.92,168.14,-3.045
554,272979,0.782508,0.22204000000000002,-0.9745360000000001,-24.115,198.415,-0.735
555,273077,0.6156119999999999,0.194956,-0.877424,-13.475,236.985,5.4775
556,273175,0.8752280000000001,0.343552,-1.220976,-6.335,284.9525,15.05
557,273273,0.60146,0.3111,-0.8918200000000001,-3.8675,346.465,29.12
558,273371,0.33184,0.26766799999999996,-1.108492,-11.2525,407.3125,46.4625
559,273469,0.424804,0.333548,-1.227808,-24.8325,455.63,62.125
560,273567,1.3949479999999999,0.474092,-1.119716,-35.14,506.6425,76.4225
561,273666,0.9840521000000001,0.30134,-1.135576,-16.7125,540.96,116.3925
562,273764,1.6792080000000003,0.380152,-1.277584,-37.73,551.1275,116.7775
563,273862,1.6865279999999998,0.300852,-1.531344,-58.17,488.6525,82.7925
564,273960,1.232688,0.264496,-1.3786,-59.255,368.235,77.0525
565,274058,1.7638759999999998,0.47336000000000006,-0.5724239999999999,-67.06,321.9125,64.2425
566,274156,1.51158,0.380152,-2.210884,7.1925,381.3425,22.5225
567,274254,2.31922,-0.156648,-2.3833919999999997,-10.8675,99.89,43.4
568,274352,1.54574,-0.377956,-0.919636,-77.0175,35.7175,157.9725
569,274450,2.200148,0.696132,-3.804936,-123.445,189.42,102.515
570,274549,1.056764,1.23464,-3.121736,-152.5475,-28.875,89.075
571,274647,-0.028792,1.32126,-2.2906720000000003,-99.8725,-137.48,82.635
572,274745,-0.382104,1.001376,-1.7272759999999998,-27.055,-174.44,79.7825
573,274843,-0.395036,0.711504,-1.398364,7.455,-181.3175,68.74
574,274941,-0.25351599999999996,0.61732,-1.374452,6.4575,-188.335,45.4475
575,275039,-0.11102000000000001,0.5948720000000001,-1.335412,-9.7475,-201.6,17.64
576,275137,0.00366,0.62952,-1.3510280000000001,-25.27,-221.235,-7.77
577,275235,0.158356,0.668072,-1.321016,-29.68,-242.55,-28.6125
578,275333,0.266204,0.635864,-1.26026,-22.015,-262.2375,-44.87
579,275431,0.38186,0.578036,-1.1934040000000001,-9.1875,-278.6525,-57.68
580,275530,0.512888,0.47677600000000003,-1.170712,1.8375,-291.025,-67.235
581,275628,0.677344,0.407724,-1.14192,7.8225,-302.89,-75.005
582,275726,0.81252,0.357948,-1.11996,9.0125,-314.6325,-80.08
583,275824,0.944768,0.342332,-1.110688,6.8425,-325.7625,-82.5475
584,275922,1.063352,0.350628,-1.108004,3.185,-336.4025,-83.4925
585,276020,1.172908,0.37258800000000003,-1.1192280000000001,0.0525,-344.995,-84.245
586,276118,1.276852,0.3965,-1.131916,-0.77,-352.065,-85.295
587,276216,1.374696,0.42138809999999993,-1.170224,0.0175,-357.6475,-86.485
588,276314,1.4335,0.424804,-1.187548,-0.3325,-359.9925,-88.30501
589,276413,1.5142639999999998,0.462136,-1.2383,-1.9075,-359.6425,-90.86
590,276511,1.601128,0.501908,-1.3090600000000001,-3.815,-358.26,-94.88501
591,276609,1.70556,0.498004,-1.407148,-3.08,-356.93,-102.3925
592,276707,1.7999880000000001,0.46457600000000004,-1.486448,-3.8325,-356.4925,-111.9125
593,276805,1.901736,0.44334799999999996,-1.574776,-4.6725,-355.95,-121.0825
594,276903,2.0461840000000002,0.424804,-1.6906759999999998,-3.4825,-355.705,-126.945
595,277001,2.216008,0.35868,-1.740696,0.8225,-357.1225,-129.1325
596,277099,2.327516,0.20374,-1.64212,5.635,-360.045,-127.6625
597,277197,2.387296,0.058072000000000006,-1.408612,3.9025,-361.375,-121.2225
598,277295,2.415844,-0.08784,-0.9967401,-4.515,-357.1925,-105.7525
599,277394,2.498072,-0.271328,-0.401624,-20.1075,-345.7825,-79.6075
600,277492,2.561756,-0.5743761,0.3904,-47.0225,-325.4475,-45.535
601,277590,2.700104,-0.8967,1.2519639999999999,-92.1725,-291.41,-11.4625
602,277688,2.756468,-0.8420440999999999,1.962492,-150.15,-246.435,11.4975
603,277786,2.804536,-0.43724799999999997,2.2814,-178.1325,-190.4525,18.62
604,277884,2.551996,0.080764,2.1764799999999997,-138.32,-116.9,22.19
605,277982,2.352648,0.08881599,1.8919759999999999,-44.8525,-30.3625,31.6575
606,278080,2.428044,0.027327999999999998,1.2695319999999999,27.3875,41.6675,32.9525
607,278178,2.38144,0.16909200000000002,0.785924,46.97,82.32,19.6525
608,278277,2.150616,0.3965,0.40211199999999997,39.3225,102.97,-6.825
609,278375,1.013576,1.938092,-0.8657120999999999,31.885,120.19,-42.1925
610,278473,-2.8069759999999997,-0.145912,2.798924,184.415,214.7075,-84.77
611,278571,0.6314721,-1.017724,-1.923452,204.085,474.565,-75.3725
612,278669,5.838676,-2.077416,-1.276608,113.6625,509.775,-122.535
613,278767,2.311656,-3.8234800000000004,-1.932236,73.7625,389.83,-102.7775
614,278865,3.221532,-2.885056,-2.106696,15.9775,350.8575,-4.235
615,278963,2.750856,1.0614,-1.9154,-89.67,240.4675,40.39
616,279061,1.94346,2.197708,-1.760704,-115.36,172.2875,10.045
617,279160,1.011868,1.46888,-1.756068,-15.9775,162.2075,-5.425
618,279258,1.5469600000000001,0.194956,-0.9235399999999999,60.0075,148.9775,-8.82
619,279356,1.006256,-0.00366,-1.152412,71.6275,114.1875,15.47
620,279454,1.2756319999999999,-0.13785999999999998,-0.978684,56.63,75.53,21.175
621,279552,0.613416,0.48531599999999997,-0.8788879999999999,29.7325,37.8875,17.6925
622,279650,0.8113001,0.14566800000000002,-0.9147559999999999,33.915,24.885,24.605
623,279748,0.803736,-0.178608,-0.9320801,41.79,21.5425,27.1775
624,279846,0.6653880999999999,0.22423600000000002,-0.819108,23.555,7.9975,13.125
625,279944,0.633668,0.155184,-0.83814,20.93,-0.735,10.255
626,280042,0.61122,0.00366,-0.820816,25.165,-6.965,13.3175
627,280141,0.5443640000000001,0.114924,-0.887916,14.525,-12.2675,10.395
628,280239,0.5692520000000001,0.11053199999999999,-0.8425321,13.6325,-8.54,9.4675
629,280337,0.5892601,0.133956,-0.8169121,10.045,-7.9625,8.3475
630,280435,0.5987760999999999,0.133712,-0.8249639999999999,8.89,-8.645,8.1725
631,280533,0.5892601,0.125172,-0.8254520000000001,8.3825,-9.835,7.9975
632,280631,0.578036,0.115168,-0.8252079999999999,6.6325,-10.6575,6.58
633,280729,0.572912,0.132492,-0.81618,4.515,-10.92,4.865
634,280827,0.566812,0.13298,-0.815448,3.15,-10.8325,4.725
635,280925,0.554856,0.139812,-0.818132,2.87,-10.4825,5.4075
636,281023,0.549244,0.14493599999999998,-0.81252,2.275,-10.36,6.4575
637,281122,0.541192,0.147376,-0.81984,1.785,-9.8875,8.3125
638,281220,0.548268,0.141764,-0.81252,1.4525,-9.1525,10.5875
639,281318,0.548512,0.13859200000000002,-0.8164239999999999,0.315,-9.1175,12.39
640,281416,0.53314,0.1159,-0.8215481,-0.1925,-8.365,13.23
641,281514,0.5158159999999999,0.09272000000000001,-0.8352120000000001,-0.4375,-6.3175,12.6875
642,281612,0.499224,0.084912,-0.8364321,0.0175,-2.625,10.08
643,281710,0.504104,0.11345999999999999,-0.83936,-0.3325,1.9075,8.61
644,281808,0.50508,0.044164,-0.83814,0.0875,6.93,7.5775
645,281906,0.537288,0.07393200000000001,-0.8342360000000001,0.6475,11.3925,4.095
646,282004,0.512644,0.06490399999999999,-0.836676,-4.3225,14.4725,2.7125
647,282103,0.5453399999999999,0.10858,-0.8166680000000001,-5.74,19.1625,2.065
648,282201,0.552172,0.117852,-0.7761640999999999,-5.2675,22.435,0.2975
649,282299,0.563396,0.109556,-0.754448,-5.915,25.515,0.0175
650,282397,0.5926760999999999,0.15006,-0.7893399999999999,-8.645,27.965,1.47
651,282495,0.563884,0.14884,-0.788608,-6.755,29.82,3.7975
652,282593,0.6273241,0.159576,-0.874984,-6.5625,31.57,6.5975
653,282691,0.47677600000000003,0.159576,-0.834724,1.19,32.095,10.4825
654,282789,0.512644,0.122244,-0.8574161,4.1125,39.97,12.67
655,282887,0.5516840000000001,0.042456,-0.8518040000000001,8.3475,52.3075,12.6
656,282986,0.49824799999999997,0.044896,-0.883768,9.5375,66.3425,5.6875
657,283084,0.574132,0.039284,-0.8708360999999999,10.92,88.2875,0.1925
658,283182,0.541192,0.040748,-0.8418,13.23,112.8575,-5.075
659,283280,0.7300479999999999,0.03172,-0.8910879999999999,13.5975,134.575,-11.795
660,283378,0.6985720999999999,0.116632,-0.9252481,4.9,153.58,-17.43
661,283476,0.768356,0.168604,-0.978684,2.6075,185.255,-19.8975
662,283574,0.798856,0.27328,-1.104588,0.7175,230.58,-16.94
663,283672,0.8581479999999999,0.368684,-1.191208,3.01,293.37,-2.73
664,283770,0.8459479999999999,0.266692,-1.253428,7.035,364.0875,23.3625
665,283869,0.9240280000000001,0.366976,-1.274168,6.3875,441.9975,50.0325
666,283967,0.749812,0.5038600000000001,-1.67018,2.1175,510.6325,85.435
667,284065,1.14802,0.546072,-1.572336,15.8725,563.3775,130.655
668,284163,1.7909599999999999,0.9774639999999999,-2.055456,-5.285,573.3525,160.3175
669,284261,2.457568,0.758108,-2.114016,-7.525,572.8275,165.025
670,284359,1.25416,0.5158159999999999,-1.533296,-21.14,550.9525,178.9025
671,284457,1.005036,0.09784401,-2.2118599999999997,-69.0725,440.545,165.7775
672,284555,2.069852,0.8413120000000001,-3.402336,-69.3525,371.1575,99.925
673,284653,2.263344,0.200324,-2.2006360000000003,47.53,311.7275,46.8825
674,284751,1.700924,-0.141032,1.407148,-210.35,10.2375,172.4975
675,284850,3.958168,0.8357,-5.411676,-116.025,320.6875,215.5475
676,284948,1.9825,2.160376,-3.856176,-240.73,18.2,122.045
677,285046,-0.005612,2.4490279999999998,-2.626172,-182.6475,-159.18,47.2675
678,285144,-0.652212,1.8870959999999999,-1.572824,-72.9925,-202.195,7.98
679,285242,-0.6456241,1.3054,-1.056276,11.6375,-181.195,-27.3875
680,285340,-0.41894799999999993,0.853756,-1.06384,35.77,-163.31,-76.1775
681,285438,-0.15006,0.6795401,-1.263676,21.105,-166.6525,-130.305
682,285536,0.08442401,0.5697399999999999,-1.4112959999999999,4.375,-185.3075,-174.44
683,285634,0.270352,0.47604399999999997,-1.48596,5.8625,-214.4625,-200.3925
684,285733,0.398452,0.27816,-1.414712,22.155,-246.575,-210.735
685,285831,0.503372,0.028792,-1.291736,39.0775,-277.095,-212.1
686,285929,0.62464,-0.186416,-1.1890120000000002,47.285,-302.9775,-207.655
687,286027,0.7178479999999999,-0.343064,-1.09312,46.0075,-325.605,-198.31
688,286125,0.8488761,-0.446032,-1.054568,40.25,-343.6825,-184.905
689,286223,0.9125601000000001,-0.5011760000000001,-0.9433041,34.8425,-359.2925,-167.0375
690,286321,0.9774639999999999,-0.496296,-0.931348,26.18,-370.3525,-145.4775
691,286419,1.054812,-0.465308,-0.968192,20.3,-377.51,-122.0625
692,286517,1.1507040000000002,-0.39113200000000004,-1.023824,19.1275,-383.145,-99.505
693,286615,1.2463520000000001,-0.311832,-1.1163,20.0375,-387.7125,-77.805
694,286714,1.360544,-0.252296,-1.212192,22.8025,-391.685,-60.1825
695,286812,1.492792,-0.191296,-1.3285799999999999,22.5575,-396.6375,-47.32
696,286910,1.6501720000000002,-0.079056,-1.49328,18.8825,-403.6725,-39.13
697,287008,1.828048,0.071492,-1.6875040000000001,14.4725,-412.335,-36.155
698,287106,2.00446,0.22033200000000003,-1.87392,13.7725,-423.29,-40.0225
699,287204,2.250656,0.4026,-2.135488,17.325,-433.9825,-49.385
700,287302,2.643252,0.406016,-2.190632,26.6,-443.45,-63.0875
701,287400,2.9609400000000003,0.172996,-2.101816,35.385,-453.0925,-81.97001
702,287498,3.3171800000000005,-0.036356,-1.963224,32.3225,-452.97,-90.475
703,287597,3.596804,-0.07490801,-1.407148,17.1675,-447.615,-82.32
704,287695,3.6458480000000004,0.054655999999999996,-0.2806,1.5575,-438.13,-49.7525
705,287793,3.584604,-0.6380600000000001,1.40178,-4.095,-401.7475,6.2125
706,287891,3.3469480000000003,-1.270508,3.0951400000000002,-69.02,-333.515,51.45
707,287989,2.912384,-0.579012,3.4774879999999997,-189.42,-245.875,53.235
708,288087,3.808596,0.4209,2.7572,-199.3775,-153.9825,22.855
709,288185,3.7027,0.753228,2.184776,-60.9175,-46.795,-4.8825
710,288283,3.5933879999999996,-0.407968,1.9944560000000002,99.89,30.135,-5.32
711,288381,2.965088,-0.5734,1.655784,110.39,69.755,-10.9375
712,288480,2.484652,-0.124196,1.138992,36.3475,110.46,-15.0675
713,288578,-2.444636,1.464,-1.659688,-11.865,120.4525,-26.7225
714,288676,-4.2199800000000005,-0.485072,-0.8752280000000001,52.3075,321.9475,-7.2975
715,288774,5.408992,-1.4898639999999999,0.163968,123.34,555.835,28.5775
716,288872,2.873344,-2.089616,-2.71084,5.32,442.19,-61.6525
717,288970,3.592168,-1.958588,-2.666676,-128.4675,388.2025,-77.9625
718,289068,3.332064,0.024156,-1.943704,-121.5725,356.825,7.945
719,289166,2.1581799999999998,2.511736,-2.2692,-180.6875,231.8575,-3.5525
720,289264,0.9394,1.247816,-0.8239880999999999,-69.965,207.585,5.215
721,289362,0.9001161,1.88978,-2.103036,-23.275,192.1675,-14.07
722,289461,2.703764,0.661484,-0.566812,62.0025,187.1625,-7.7875
723,289559,0.9720960999999999,-0.490684,-1.309304,102.34,120.435,17.815
724,289657,1.063352,0.255712,-0.8479,68.355,60.1475,17.6225
725,289755,1.062132,-0.196664,-1.131916,49.595,42.1575,21.945
726,289853,0.66978,0.10736,-0.812276,48.8075,13.51,18.305
727,289951,0.700036,0.290848,-0.8713241,20.44,1.3825,8.33
728,290049,0.645868,0.117852,-0.8479,29.26,0.4375,9.275
729,290147,0.6170760000000001,0.21862399999999999,-0.8244761,18.9,-5.04,6.23
730,290245,0.552172,0.20008,-0.8244761,15.6275,-6.055,5.04
731,290343,0.61366,0.155428,-0.8281360999999999,12.67,-5.495,5.1625
732,290442,0.5892601,0.15762400000000001,-0.8239880999999999,8.19,-6.3,2.905
733,290540,0.562908,0.187636,-0.8174001000000001,5.2675,-7.595,0.735
734,290638,0.568032,0.1891,-0.7998321,5.32,-7.525,0.7875
735,290736,0.560956,0.169824,-0.790804,7.1225,-7.63,1.9425
736,290834,0.5614439999999999,0.203008,-0.789828,8.75,-8.3475,3.2725
737,290932,0.549732,0.22106399999999998,-0.7998321,8.9775,-9.4675,4.62
738,291030,0.552172,0.227652,-0.8025161,9.4325,-10.29,6.4925
739,291128,0.558272,0.209596,-0.795928,10.43,-9.625,7.8925
740,291226,0.5382640000000001,0.208864,-0.79056,11.55,-9.66,8.33
741,291325,0.52582,0.23009200000000002,-0.790072,12.005,-10.2725,9.7475
742,291423,0.516792,0.214964,-0.784704,12.845,-9.7125,12.18
743,291521,0.50752,0.213256,-0.7834840000000001,12.915,-8.3475,14.595
744,291619,0.513376,0.172508,-0.798856,12.5825,-6.37,15.5225
745,291717,0.53192,0.139812,-0.805688,11.095,-3.8675,15.4
746,291815,0.5655920999999999,0.125904,-0.8222799999999999,9.0125,-0.2625,13.755
747,291913,0.58316,0.114192,-0.7983680000000001,9.2225,2.6075,11.9
748,292011,0.562664,0.13908,-0.820084,7.5425,1.1725,10.8675
749,292109,0.542168,0.17519200000000001,-0.7922680000000001,4.235,-0.0525,10.6225
750,292207,0.526308,0.166652,-0.8195960999999999,2.3975,-0.28,11.97
751,292305,0.5665680000000001,0.137128,-0.8113001,2.0825,1.435,13.44
752,292404,0.563396,0.160796,-0.7983680000000001,0.2975,1.3125,14.875
753,292502,0.538752,0.18470799999999998,-0.8015399999999999,0.14,1.3825,16.835
754,292600,0.513864,0.183732,-0.8044680999999999,1.0325,4.69,19.635
755,292698,0.495076,0.14396,-0.877668,0.35,10.9725,20.7025
756,292796,0.465552,0.137372,-0.892308,-0.56,20.9475,19.145
757,292894,0.44652,0.1098,-0.8927959999999999,-1.5225,36.4525,16.0125
758,292992,0.38918,0.122976,-0.9181720999999999,-1.1025,54.005,10.6575
759,293090,0.621468,0.07246799999999999,-0.8574161,1.715,73.85,5.25
760,293188,0.523868,0.081984,-0.907436,5.705,97.16001,0.14
761,293286,0.604144,0.096868,-0.8703481,9.1175,121.8175,-4.095
762,293385,0.5504641,0.12566,-0.9806360000000001,5.8625,148.5925,-5.145
763,293483,0.701012,0.154696,-0.8940161,0.595,179.3225,-4.3575
764,293581,0.665144,0.24766,-1.045784,-15.785,216.5625,-1.3475
765,293679,0.879376,0.290116,-1.1514360000000001,-16.7475,273.0525,4.9525
766,293777,0.801296,0.391864,-1.338096,-10.85,354.97,17.08
767,293875,0.589992,0.46311199999999997,-1.392264,-11.0425,453.81,40.3725
768,293973,0.8513161,0.428464,-1.508896,-22.3825,531.4575,72.9575
769,294071,0.7427361,0.7019880000000001,-1.781932,-24.29,569.7825,111.8425
770,294169,1.731912,1.1716879999999998,-2.761104,-49.1225,573.405,154.525
771,294268,2.059116,0.49654,-1.815604,-33.0925,573.405,180.0225
772,294366,1.7141,0.711016,-2.013732,-53.3575,570.7274,170.73
773,294464,1.162172,-0.000488,-2.1591560000000003,-63.9975,476.3325,180.7925
774,294562,1.8285360000000002,0.558272,-4.0094080000000005,-100.555,403.725,82.04
775,294660,3.622668,-0.779824,-2.686684,-15.085,317.135,54.9325
776,294758,2.162816,0.12688,0.267424,-262.29,44.5725,230.5975
777,294856,4.622824,1.4278879999999998,-5.405088,-197.5225,339.1675,217.455
778,294954,2.19844,2.503684,-4.129212,-293.3175,-2.2225,146.51
779,295052,0.0061,2.614216,-2.707912,-208.53,-200.34,83.055
780,295150,-0.7612800999999999,1.9868919999999999,-1.544764,-92.015,-255.8325,48.9825
781,295249,-0.73932,1.306864,-0.9994241,4.3225,-222.285,25.935
782,295347,-0.48165600000000003,0.793488,-0.8261841000000001,24.7275,-194.4425,-9.73
783,295445,-0.227652,0.6348881,-0.9059721,-4.3225,-189.5075,-56.56
784,295543,-0.033672,0.576816,-0.9894200000000001,-40.67,-203.4025,-100.6775
785,295641,0.172752,0.672708,-1.121424,-60.83,-226.5725,-133.665
786,295739,0.33428,0.647332,-1.124596,-52.2375,-252.1225,-152.6175
787,295837,0.4636,0.512644,-1.089704,-27.7725,-275.9575,-160.8075
788,295935,0.5738880000000001,0.305976,-1.0201639999999998,-2.485,-298.2,-165.6375
789,296033,0.671488,0.14762,-0.976,9.135,-319.48,-168.665
790,296132,0.7993439999999999,0.042944,-0.975512,10.8675,-337.54,-169.75
791,296230,0.96014,0.008540001,-0.998448,6.44,-353.115,-167.335
792,296328,1.117276,0.04148,-1.029924,1.5575,-369.355,-161.21
793,296426,1.1953559999999999,0.057339999999999995,-1.030656,0.9275,-384.1425,-153.0025
794,296524,1.32126,0.018788,-1.128744,4.34,-396.2,-145.8625
795,296622,1.4112959999999999,0.017568,-1.1714440000000002,4.0425,-406.875,-138.2325
796,296720,1.5433,0.024156,-1.251476,3.71,-415.9575,-131.2675
797,296818,1.689944,0.096624,-1.3712799999999998,-2.695,-424.27,-125.3525
798,296917,1.87148,0.19397999999999999,-1.5469600000000001,-6.195,-432.495,-122.0275
799,297015,2.073512,0.22814,-1.756068,-5.005,-440.7375,-121.9575
800,297113,2.375096,0.256932,-1.987136,-4.7425,-449.8725,-125.5275
801,297211,2.7772080000000003,0.16348,-2.097668,-5.0925,-461.7025,-131.39
802,297309,3.120028,0.08052000000000001,-2.054968,-10.15,-475.16,-140.525
803,297407,3.403068,0.063196,-1.990796,-20.37,-480.34,-147.5425
804,297505,3.743204,0.245464,-1.761436,-25.7075,-473.2175,-145.3375
805,297603,3.814696,0.26156799999999997,-0.9989360999999999,-18.935,-455.2975,-129.955
806,297701,3.81616,-0.063928,0.392108,-12.215,-425.4425,-105.945
807,297800,4.165080000000001,-0.9596520000000001,2.154276,-36.4,-370.5625,-75.18
808,297898,3.745888,-1.477176,3.6490199999999997,-111.9125,-284.0425,-50.4175
809,297996,3.6443839999999996,-0.803248,3.7502800000000005,-201.7575,-187.04,-62.0375
810,298094,3.3264519999999997,0.296948,2.930196,-169.505,-76.7725,-69.1075
811,298192,3.31474,0.063196,2.112308,-4.445,39.305,-43.47
812,298290,3.3684199999999995,-0.33794,1.32492,113.5925,112.3325,-25.3925
813,298388,2.955572,-0.242292,0.784704,106.68,141.5575,-38.43
814,298486,2.461472,-0.055144000000000006,0.385276,59.2025,155.61,-58.0125
815,298585,0.775676,0.6954,-0.7415161,33.1625,170.5725,-81.91751
816,298683,-5.49976,1.038952,-5.207204,58.94,65.03,-119.91
817,298781,-4.456416,-3.164924,2.9758240000000002,152.95,403.5325,-53.4975
818,298879,7.482016000000001,-1.541348,0.388936,35.6475,566.3525,-7.7
819,298977,3.75516,-1.848544,-3.551908,8.0675,427.8225,-15.61
820,299075,1.960784,-1.136796,-1.58722,-12.2325,366.3625,33.95
821,299173,3.149552,1.217316,-1.719224,-48.1425,317.345,44.0825
822,299271,1.9829880000000002,1.120692,-1.635532,-34.1425,253.085,27.3875
823,299369,3.52946,2.391444,-3.2830199999999996,18.2875,201.1975,6.685
824,299467,1.55306,-1.178764,-0.401624,169.015,178.185,28.5775
825,299566,0.990884,-0.5968241,-1.482788,65.695,64.54,35.665
826,299664,1.176568,0.9076799999999999,-0.821304,29.82,43.0675,22.9075
827,299762,0.7256560000000001,0.170068,-0.7659161,35.35,24.7975,20.58
828,299860,0.87108,-0.076616,-0.9106081,39.5675,11.76,27.72
829,299958,0.6661201,0.11102000000000001,-0.9032879999999999,19.6525,-1.6625,14.28
830,300056,0.6470880999999999,0.1708,-0.820572,12.0225,-7.21,6.93
831,300154,0.5734,0.202032,-0.805932,14.9625,-10.2025,7.9625
832,300252,0.517768,0.167628,-0.868152,12.495,-15.8375,10.815
833,300351,0.574132,0.132004,-0.8525360000000001,14.28,-11.48,13.1775
834,300449,0.571448,0.13542,-0.8508280999999999,10.15,-10.85,11.34
835,300547,0.580232,0.13176,-0.8383841000000001,8.0675,-9.17,9.38
836,300645,0.589016,0.132248,-0.820084,7.1225,-8.2775,6.72
837,300743,0.571204,0.151036,-0.8283799999999999,5.25,-9.3275,4.235
838,300841,0.56852,0.15762400000000001,-0.8254520000000001,4.69,-9.555,3.255
839,300939,0.562176,0.15176800000000001,-0.819108,4.0425,-10.0975,2.415
840,301037,0.557296,0.166164,-0.823256,3.395,-10.2025,1.645
841,301135,0.562908,0.16689600000000002,-0.803248,2.835,-10.29,2.0825
842,301234,0.5397281,0.18446400000000002,-0.813496,1.5575,-10.8675,3.29
843,301332,0.522892,0.188368,-0.8105680000000001,1.26,-10.3425,5.39
844,301430,0.5355800999999999,0.180804,-0.8091041,1.1375,-9.205,8.435
845,301528,0.5309441,0.168848,-0.80886,0.6475,-8.3125,11.48
846,301626,0.523868,0.128832,-0.818376,0.175,-6.7725,13.23
847,301724,0.510936,0.077348,-0.828868,-2.135,-3.7975,12.11
848,301822,0.526552,0.09930800000000001,-0.8252079999999999,-5.67,0.63,8.155
849,301920,0.49995600000000007,0.1342,-0.8210601000000001,-3.78,4.4975,6.1075
850,302019,0.526308,0.13176,-0.78446,-2.765,9.065,7.21
851,302117,0.5292359999999999,0.096868,-0.8244761,-1.54,12.81,6.545
852,302215,0.479216,0.133468,-0.823744,-3.9375,14.91,4.6725
853,302313,0.536556,0.142984,-0.8308200000000001,-3.8675,20.825,5.53
854,302411,0.543876,0.13639600000000002,-0.812032,-4.8125,24.4475,5.215
855,302509,0.56242,0.16226,-0.7956840999999999,-6.3175,26.8275,4.8125
856,302607,0.538996,0.188368,-0.8108121,-7.28,30.065,6.58
857,302705,0.555588,0.159576,-0.859856,-7.2625,35.4025,9.5375
858,302803,0.46433199999999997,0.153232,-0.8525360000000001,-3.6575,41.7375,10.3775
859,302901,0.527284,0.11467999999999999,-0.8596120999999999,2.8875,51.38,10.0975
860,303000,0.5368,0.121512,-0.859368,3.745,66.3425,5.565
861,303098,0.5077640999999999,0.10345599999999999,-0.862784,6.545,87.185,2.17
862,303196,0.689056,0.080764,-0.8252079999999999,9.765,110.145,-0.5075
863,303294,0.613904,0.10345599999999999,-0.921588,7.2275,133.595,-5.18
864,303392,0.7539600000000001,0.10736,-0.8488761,7.735,156.7825,-8.995
865,303490,0.6224441,0.193492,-0.9567241,-5.1625,182.42,-11.41
866,303588,0.657092,0.211304,-1.048712,-9.3275,223.195,-8.89
867,303686,0.9264680000000001,0.4392,-1.2907600000000001,-10.15,286.5275,-0.63
868,303784,0.61854,0.457988,-1.22732,0.3325,367.8675,26.005
869,303883,0.45457200000000003,0.37746799999999997,-1.4039760000000001,-8.155,453.6875,61.425
870,303981,0.522648,0.473116,-1.926136,-15.82,529.2175,91.7175
871,304079,1.172176,0.885964,-1.7202,-11.13,570.22,125.2825
872,304177,1.146068,0.24278000000000002,-1.4095879999999998,-5.775,573.405,188.4225
873,304275,2.9331240000000003,1.0828719999999998,-2.957036,-42.35,573.405,173.18
874,304373,1.6265040000000002,0.859368,-1.80804,-57.1725,555.17,155.3125
875,304471,1.16266,0.1586,-1.993236,-90.63251,405.8075,142.8875
876,304569,2.105476,0.446032,-3.339872,-40.495,385.735,83.72001
877,304668,3.207868,-1.220244,-1.01016,-42.4025,197.7325,61.845
878,304766,3.241052,-0.06954,-2.183312,-212.1175,140.8225,234.2025
879,304864,3.5733800000000002,1.31272,-4.52864,-241.6925,268.73,186.8125
880,304962,1.552816,2.180872,-3.726124,-290.2725,-45.325,139.1775
881,305060,-0.227408,2.3028720000000003,-2.3245880000000003,-208.565,-200.7775,92.76751
882,305158,-0.6822239999999999,1.7036080000000002,-1.3832360000000001,-83.545,-219.31,64.5575
883,305256,-0.6517241,1.180472,-0.8805960999999999,-8.26,-191.3625,33.11
884,305354,-0.404552,0.893284,-0.8420440999999999,4.3575,-173.2675,-10.4475
885,305453,-0.201544,0.7771399999999999,-0.9540401,-13.615,-173.39,-61.215
886,305551,-0.02196,0.794952,-1.095072,-34.475,-189.035,-108.605
887,305649,0.15616,0.781532,-1.1895,-33.6525,-211.33,-144.585
888,305747,0.30475599999999997,0.6605081,-1.2221959999999998,-13.685,-235.585,-167.3175
889,305845,0.40967600000000004,0.4636,-1.12362,13.685,-258.8775,-182.8225
890,305943,0.516792,0.261812,-1.053592,35.84,-279.51,-193.2875
891,306041,0.693692,0.115168,-1.04188,47.495,-299.0225,-199.675
892,306139,0.8591241,0.001952,-1.018944,53.2175,-317.275,-200.8825
893,306237,0.9840521000000001,-0.080276,-1.009184,55.7725,-336.245,-197.4
894,306336,1.085556,-0.161528,-0.9950319999999999,57.155,-353.78,-190.015
895,306434,1.16144,-0.2257,-1.010404,56.665,-369.425,-179.2525
896,306532,1.22366,-0.257176,-1.028704,54.8625,-382.9175,-164.71
897,306630,1.3237,-0.256932,-1.087752,53.4275,-393.785,-146.3
898,306728,1.430328,-0.21838000000000002,-1.1773,51.8175,-401.7475,-126.7875
899,306826,1.575264,-0.155916,-1.287344,49.7175,-408.59,-107.835
900,306924,1.7214200000000002,-0.089792,-1.425936,46.9875,-415.205,-90.16001
901,307022,1.867576,0.031964,-1.60552,42.735,-422.52,-76.65
902,307120,2.083272,0.14884,-1.912716,38.22,-429.1175,-68.425
903,307219,2.4390240000000003,0.257664,-2.250168,36.0325,-435.4875,-67.585
904,307317,2.9092119999999997,0.311344,-2.318732,32.6025,-446.285,-73.465
905,307415,3.166144,0.340624,-2.1286560000000003,31.745,-464.065,-85.48751
906,307513,3.384768,0.266936,-1.831464,30.0475,-469.455,-89.18
907,307611,3.5887519999999995,0.34111199999999997,-1.1777879999999998,17.675,-463.9075,-79.3275
908,307709,3.4650440000000002,0.21667199999999998,-0.14469200000000002,-2.7825,-443.0825,-57.9425
909,307807,3.9608519999999996,-0.582428,1.500844,-31.08,-401.135,-22.855
910,307905,3.477732,-1.4149559999999999,3.241052,-118.405,-325.0275,8.9425
911,308003,3.161996,-0.964532,3.553372,-258.37,-237.51,9.0825
912,308102,3.173952,0.308904,2.8853,-280.9975,-146.1075,-6.3875
913,308200,3.015352,0.8769360999999999,2.1286560000000003,-137.0775,-47.5825,14.4375
914,308298,3.17688,-0.18666,1.730448,64.015,48.405,54.3725
915,308396,2.938736,-0.381616,1.361032,102.55,95.4975,59.675
916,308494,2.525888,0.031232,0.9347639999999999,36.2775,123.165,43.015
917,308592,2.2362599999999997,0.6802720999999999,0.32818,-24.955,142.135,21.245
918,308690,-1.863916,3.221044,-5.698864,-23.7475,103.8625,-38.3075
919,308788,-3.8381199999999995,-0.62464,1.682136,232.0325,255.78,-69.9475
920,308887,2.358748,-0.698328,-0.119316,184.03,556.0975,-37.0125
921,308985,5.647868,-3.7761440000000004,-2.09596,123.41,529.3925,-94.5525
922,309083,3.098312,-3.9950120000000005,-2.22284,58.1175,400.0675,-50.5925
923,309181,3.079036,-1.280756,-1.979816,-22.05,312.41,48.02
924,309279,2.152324,2.3589919999999998,-2.035448,-128.5725,193.8475,32.235
925,309377,2.2479720000000003,2.482456,-2.7816,-31.4825,179.55,11.3925
926,309475,2.0703400000000003,-0.451888,-0.20618000000000003,96.2675,161.49,4.83
927,309573,0.275964,0.047336,-1.662616,55.72,65.8875,29.155
928,309671,1.249768,0.19642,-0.63562,48.02,72.905,34.1425
929,309769,1.13582,0.290848,-0.8518040000000001,32.095,49.7525,25.585
930,309868,0.693692,0.09028,-0.9867360999999999,32.4275,9.8175,26.4775
931,309966,0.79178,-0.104432,-0.927932,30.7825,7.455,24.955
932,310064,0.5751081,0.160064,-0.869616,16.625,-4.8825,13.02
933,310162,0.671488,0.10223600000000001,-0.823256,15.5925,-5.7575,10.2375
934,310260,0.610244,0.107848,-0.8532681000000001,14.665,-9.66,9.205
935,310358,0.554856,0.086132,-0.859368,11.1125,-12.355,6.7025
936,310456,0.548024,0.107848,-0.8476561,7.315,-10.325,4.4625
937,310554,0.567788,0.10492,-0.8361879999999999,5.2325,-7.4725,2.9225
938,310652,0.580964,0.12395199999999999,-0.8383841000000001,2.9575,-7.98,2.3975
939,310751,0.553148,0.119804,-0.8100801,2.5725,-9.065,2.0475
940,310849,0.553148,0.13054000000000002,-0.8256960999999999,1.3825,-9.8175,0.945
941,310947,0.558028,0.101748,-0.8344801,0.8575,-9.0125,0.0175
942,311045,0.546804,0.144204,-0.8459479999999999,-0.7,-8.19,-1.575
943,311143,0.5392399999999999,0.167628,-0.8317960999999999,-2.0475,-7.315,-1.3125
944,311241,0.537532,0.170068,-0.802272,-2.415,-6.1425,1.4
945,311339,0.550708,0.188856,-0.8164239999999999,-3.8325,-5.4075,5.67
946,311437,0.5441199999999999,0.14786400000000002,-0.8252079999999999,-3.5875,-4.83,9.9925
947,311535,0.5206960999999999,0.077348,-0.8203280000000001,-4.34,-4.2525,10.7275
948,311634,0.5077640999999999,0.039528,-0.8247200000000001,-5.04,-0.42,7.455
949,311732,0.532896,0.094916,-0.843508,-7.595,3.675,2.52
950,311830,0.504836,0.10321199999999998,-0.8249639999999999,-7.98,7.3675,1.4
951,311928,0.49117200000000005,0.114436,-0.8352120000000001,-7.6825,12.18,1.925
952,312026,0.5124001,0.14347200000000002,-0.8052,-7.3675,16.8525,3.3775
953,312124,0.550952,0.129076,-0.797636,-5.9675,19.3725,4.7075
954,312222,0.5726680000000001,0.14713199999999999,-0.766892,-5.32,19.88,4.1125
955,312320,0.546072,0.15494000000000002,-0.779092,-5.9325,19.0925,4.0775
956,312418,0.571692,0.13078399999999998,-0.7822640000000001,-5.355,19.6875,5.11
957,312516,0.58072,0.13298,-0.8020281,-5.1275,19.3025,4.9525
958,312615,0.57218,0.153232,-0.8117880000000001,-4.515,20.0025,5.32
959,312713,0.580964,0.129564,-0.815692,-5.4425,23.3975,6.2825
960,312811,0.5397281,0.121024,-0.8276481,-6.3525,29.3475,5.8625
961,312909,0.496784,0.119804,-0.8344801,-7.4375,37.555,4.97
962,313007,0.505568,0.09930800000000001,-0.839116,-1.75,44.9575,4.3225
963,313105,0.561688,0.07564,-0.856196,5.9325,53.76,2.3975
964,313203,0.55632,0.10004,-0.8615640999999999,5.075,66.9725,-2.0125
965,313301,0.6380600000000001,0.08417999999999999,-0.8674200000000001,7.3675,84.4375,-5.67
966,313399,0.554124,0.080276,-0.873764,7.9275,104.2475,-8.2425
967,313498,0.670512,0.09125599999999999,-0.8730319999999999,7.0,126.28,-12.2675
968,313596,0.844972,0.147376,-0.8364321,2.6075,147.245,-13.685
969,313694,0.72712,0.24082800000000001,-0.9394,-8.5925,171.43,-11.8475
970,313792,0.710284,0.269376,-0.9874681000000001,-13.02,208.8625,-2.66
971,313890,0.8149601,0.300852,-1.246108,-12.88,265.6675,10.1325
972,313988,0.595604,0.351848,-1.21634,-3.1325,340.7075,30.555
973,314086,0.657824,0.42016800000000004,-1.288808,-7.2975,430.6225,57.1725
974,314184,0.7388319999999999,0.41016400000000003,-1.6089360000000001,-21.315,518.805,89.6
975,314282,0.5077640999999999,0.41894799999999993,-1.7802240000000003,-12.5475,563.6225,124.8275
976,314381,1.187548,0.7107720000000001,-1.7516759999999998,-18.4975,564.095,157.535
977,314479,2.4051080000000002,0.9850280999999999,-2.02032,-44.555,572.3025,140.3675
978,314577,1.554036,0.499468,-1.8646479999999999,-57.8025,553.91,136.2725
979,314675,1.359568,0.42626800000000004,-2.172088,-71.8375,449.295,140.9275
980,314773,1.9180840000000001,0.616588,-3.4713879999999997,-42.455,393.96,99.8725
981,314871,2.3250759999999997,-0.6158561,-1.9703,73.045,322.7525,51.345
982,314969,2.375096,-0.38552,0.7617681,-158.69,37.6775,187.1625
983,315067,3.7114839999999996,0.6795401,-5.13376,-118.685,318.9375,189.2975
984,315165,1.975912,1.672864,-3.569964,-223.23,18.445,139.5275
985,315264,0.038796,1.9429720000000001,-2.506856,-175.07,-155.4,95.655
986,315362,-0.5941401,1.50426,-1.275388,-86.87,-203.525,71.365
987,315460,-0.6095119999999999,1.096536,-0.83204,-22.5225,-187.39,49.4725
988,315558,-0.40577199999999997,0.820572,-0.697596,2.6075,-165.7425,17.115
989,315656,-0.272304,0.718824,-0.720532,-11.13,-163.4325,-25.305
990,315754,-0.066124,0.761524,-0.8620521000000001,-25.5675,-173.775,-69.66751
991,315852,0.07246799999999999,0.75884,-0.9152440000000001,-25.0075,-193.1825,-104.16
992,315950,0.193248,0.6856399999999999,-0.9450120000000001,-8.4175,-214.305,-128.17
993,316049,0.290116,0.49312399999999995,-0.9042641,16.03,-234.1675,-145.3375
994,316147,0.40894400000000003,0.283528,-0.8759601,33.39,-253.015,-158.41
995,316245,0.517524,0.13664,-0.8642481,39.48,-271.8625,-167.755
996,316343,0.661484,0.041724000000000004,-0.8991401,39.1475,-290.115,-172.0075
997,316441,0.796904,-0.033428,-0.90402,37.52,-307.93,-170.31
998,316539,0.9028,-0.07710399999999999,-0.9298841,35.3325,-326.55,-164.1675
999,316637,0.9774639999999999,-0.149084,-0.9296399999999999,35.3325,-344.4875,-154.7175
1000,316735,1.042124,-0.233264,-0.935984,34.265,-361.1125,-142.975
1001,316833,1.142652,-0.270108,-0.9696561,27.93,-374.255,-128.7475
1002,316932,1.25416,-0.31354,-1.02114,18.725,-385.84,-112.7
1003,317030,1.363228,-0.25790799999999997,-1.09922,6.58,-395.5,-97.3175
1004,317128,1.4844959999999998,-0.149816,-1.22488,-3.185,-403.3575,-80.745
1005,317226,1.634312,0.004148001,-1.419348,-6.51,-410.27,-66.85
1006,317324,1.8234119999999998,0.104676,-1.64212,-5.6875,-417.34,-59.605
1007,317422,2.09596,0.195932,-1.927844,-3.6925,-425.4425,-60.8825
1008,317520,2.4766,0.308172,-2.162084,-3.57,-436.3625,-68.5125
1009,317618,2.831864,0.34477199999999997,-2.191852,-2.52,-450.59,-80.2725
1010,317716,3.109048,0.19032000000000002,-2.03496,-1.89,-462.035,-98.455
1011,317815,3.39526,0.15054800000000002,-1.8107240000000002,-7.4375,-461.055,-114.4675
1012,317913,3.6275480000000004,0.22326,-1.17608,-11.6025,-449.6975,-112.0875
1013,318011,3.315228,0.010004,0.0427,-10.955,-426.3175,-91.6825
1014,318109,4.1606879999999995,-0.7044279999999999,1.603812,-30.555,-381.9375,-58.6075
1015,318207,3.5780160000000003,-1.5196319999999999,3.46602,-84.21,-298.27,-24.465
1016,318305,3.6473120000000003,-1.1629040000000002,3.8478800000000004,-178.325,-207.305,-21.07
1017,318403,3.23422,0.016836,3.2769199999999996,-170.17,-105.98,-24.5525
1018,318501,3.015108,0.065148,2.48026,-14.455,12.88,7.0525
1019,318599,3.2025,-0.368684,1.431792,106.75,99.24251,27.02
1020,318698,1.8348799999999998,-0.898652,0.575596,105.665,139.6325,16.7125
1021,318796,-2.180872,1.4393559999999999,0.434564,53.2875,163.3625,-5.635
1022,318894,-1.5799,0.132492,-0.9037761000000001,90.825,391.3175,9.205
1023,318992,4.112132,-0.8039801,-0.024644,65.50251,505.4525,6.4575
1024,319090,2.5039279999999997,-1.235372,-1.7585080000000002,2.975,433.2825,-44.2925
1025,319188,2.117432,-1.524756,-1.730204,-51.8,405.2475,-44.31
1026,319286,2.897256,-0.179096,-1.621868,-65.3975,375.6375,0.035
1027,319384,2.333128,1.2378120000000001,-1.863916,-115.465,291.445,-8.2075
1028,319482,3.088064,2.88408,-3.643164,-72.4325,239.295,-21.0525
1029,319581,2.726456,-0.646844,0.121512,93.7125,185.78,-17.605
1030,319679,0.159088,-0.01342,-1.909544,74.8125,53.6375,26.6
1031,319777,1.055056,0.221796,-0.414312,60.585,60.165,18.2875
1032,319875,1.2561120000000001,-0.10004,-0.968924,38.465,39.6375,14.2975
1033,319973,0.527284,0.152256,-0.9813681000000001,26.9325,9.0475,11.6025
1034,320071,0.7881199999999999,0.173484,-0.7564001,14.7525,12.495,4.9175
1035,320169,0.642696,0.126392,-0.8730319999999999,7.2975,5.67,2.7825
1036,320267,0.73688,0.172264,-0.7700640999999999,9.415,6.1425,0.315
1037,320365,0.605364,0.108824,-0.8459479999999999,4.375,-2.835,-2.66
1038,320464,0.5987760999999999,0.149572,-0.8254520000000001,2.765,-3.3775,-5.915
1039,320562,0.5799880000000001,0.1769,-0.8388721,-1.19,-3.43,-8.1025
1040,320660,0.632448,0.16714,-0.8039801,-1.085,-1.9425,-7.42
1041,320758,0.5948720000000001,0.191052,-0.8020281,-3.1675,-2.3975,-7.735
1042,320856,0.58316,0.198128,-0.799588,-3.395,-2.905,-7.5775
1043,320954,0.5875520000000001,0.195444,-0.79666,-2.5025,-1.96,-6.9825
1044,321052,0.5997520000000001,0.200568,-0.7712840999999999,-0.9625,-1.47,-6.685
1045,321150,0.580964,0.227408,-0.7793359999999999,-0.42,-2.7475,-5.9675
1046,321249,0.5856,0.23424,-0.7734800000000001,0.6475,-3.2725,-3.92
1047,321347,0.568032,0.25058800000000003,-0.776896,1.26,-4.655,-0.5425
1048,321445,0.571448,0.259372,-0.769332,1.7675,-6.265,4.0425
1049,321543,0.583648,0.249612,-0.752496,1.995,-8.19,10.885
1050,321641,0.5785241,0.236436,-0.761524,2.52,-11.3925,17.3425
1051,321739,0.5724239999999999,0.2135,-0.7705521,3.4825,-13.405,21.0875
1052,321837,0.586576,0.14713199999999999,-0.7761640999999999,4.305,-13.5625,21.9625
1053,321935,0.586088,0.139812,-0.793244,3.4825,-13.0725,20.0025
1054,322034,0.578036,0.138836,-0.798124,1.365,-12.3375,17.395
1055,322132,0.569984,0.1525,-0.788608,1.0675,-12.6175,15.225
1056,322230,0.5587601,0.160552,-0.77836,0.98,-12.5125,13.9475
1057,322328,0.543876,0.179828,-0.7625,1.7325,-11.8825,13.1425
1058,322426,0.5614439999999999,0.197152,-0.7610359999999999,4.235,-12.215,13.5975
1059,322524,0.5516840000000001,0.182268,-0.777872,4.97,-12.8975,14.35
1060,322622,0.5343600000000001,0.20984,-0.805932,5.3025,-12.6525,14.5425
1061,322720,0.552904,0.171532,-0.794708,6.23,-10.395,15.75
1062,322818,0.559004,0.159332,-0.812032,5.8625,-7.805,15.4175
1063,322917,0.545096,0.158844,-0.8178880999999999,5.705,-5.04,13.23
1064,323015,0.549244,0.14566800000000002,-0.813008,4.4975,-0.2975,11.0425
1065,323113,0.537044,0.14762,-0.8222799999999999,0.6125,4.725,10.0275
1066,323211,0.5414359999999999,0.214232,-0.8420440999999999,-5.495,11.865,11.025
1067,323309,0.48433999999999994,0.050752,-0.8727879999999999,-7.1925,20.0725,11.795
1068,323407,0.492148,0.156404,-0.907192,-6.51,31.395,5.285
1069,323505,0.414312,0.1281,-0.8866961,-3.8675,42.4375,0.805
1070,323603,0.395524,0.102724,-0.887916,0.4025,56.98,-4.4275
1071,323701,0.6124400999999999,0.11394800000000001,-0.8727879999999999,1.89,72.975,-13.1075
1072,323799,0.6314721,0.118584,-0.8300879999999999,1.015,91.0,-17.045
1073,323898,0.5038600000000001,0.113704,-0.8520479999999999,-1.1725,113.7325,-20.4575
1074,323996,0.6373281,0.195932,-0.8544879999999999,-4.2,136.92,-23.555
1075,324094,0.7747001,0.230336,-0.844972,-12.0925,165.3225,-21.0175
1076,324192,0.821304,0.228384,-0.9650200999999999,-24.29,197.1725,-15.8025
1077,324290,0.768844,0.280844,-1.146312,-41.475,239.7325,-10.2025
1078,324388,0.6605081,0.38918,-1.313452,-38.1325,303.1,2.4675
1079,324486,1.28344,0.45871999999999996,-1.405684,-16.87,391.8425,27.93
1080,324584,0.09711201,0.212524,-1.748748,-21.6825,492.135,64.5575
1081,324682,1.483032,0.482876,-1.7836400000000001,-29.1025,548.59,80.22
1082,324780,1.227808,0.542656,-1.524024,-39.62,572.1975,111.895
1083,324879,2.3419119999999998,0.28987199999999996,-1.567456,-64.855,573.2125,125.895
1084,324977,2.475868,0.600484,-2.887496,-121.66,565.215,99.9425
1085,325075,1.335412,0.467504,-2.0754639999999998,-132.0025,471.9925,75.9675
1086,325173,1.772172,0.7017439999999999,-1.562332,-136.85,391.3525,75.6175
1087,325271,1.803404,0.621712,-3.6875720000000003,-54.11,392.2625,55.755
1088,325369,2.203564,0.21667199999999998,1.3205280000000001,-39.3575,65.6075,135.8875
1089,325467,4.461296,0.536556,-4.500336,-44.52,269.395,211.1025
1090,325565,2.0154400000000003,1.5889280000000001,-3.789564,-197.19,70.945,116.8825
1091,325663,0.19397999999999999,1.747528,-2.965576,-148.6625,-133.7525,63.315
1092,325761,-0.5604680000000001,1.3407799999999999,-1.529636,-83.0375,-220.045,48.1425
1093,325860,-0.6161,0.833016,-1.114592,-5.88,-205.6775,51.905
1094,325958,-0.316712,0.478484,-0.944768,24.6225,-182.595,43.6975
1095,326056,-0.07978801,0.37698000000000004,-0.9323239999999999,5.845,-188.405,19.775
1096,326154,0.034404000000000004,0.44676400000000005,-1.0199200000000002,-21.595,-211.0325,-7.595
1097,326252,0.16835999999999998,0.534116,-1.047736,-36.295,-238.875,-31.255
1098,326350,0.270596,0.5675439999999999,-0.9962521000000001,-30.31,-265.5975,-47.775
1099,326448,0.32403200000000004,0.51484,-0.9145120999999999,-12.6175,-286.3875,-60.55
1100,326546,0.400892,0.395036,-0.8652241,7.1925,-301.21,-71.6975
1101,326644,0.5104479999999999,0.265228,-0.8547319999999999,20.4925,-313.4775,-82.425
1102,326742,0.649284,0.190808,-0.8730319999999999,24.6925,-325.1325,-91.595
1103,326841,0.8113001,0.117852,-0.8874280999999999,24.045,-337.0325,-97.16001
1104,326939,0.919636,0.11614400000000001,-0.9406200000000001,21.1925,-349.93,-98.7
1105,327037,1.05164,0.110776,-0.9769760000000001,19.4775,-361.83,-95.375
1106,327135,1.1807159999999999,0.10614000000000001,-1.051396,17.885,-371.9975,-88.8475
1107,327233,1.3083280000000002,0.122732,-1.141676,14.245,-381.815,-81.88251
1108,327331,1.472784,0.171776,-1.234884,8.715,-392.5775,-75.35501
1109,327429,1.603324,0.266936,-1.3200399999999999,2.135,-404.6875,-70.035
1110,327527,1.717516,0.39894,-1.411052,-4.1125,-415.24,-66.9375
1111,327625,1.818776,0.521672,-1.513044,-7.945,-423.22,-68.3375
1112,327723,1.9593200000000002,0.615124,-1.6918959999999998,-9.8525,-427.175,-76.51
1113,327822,2.24724,0.648796,-1.879044,-12.39,-428.3125,-91.7
1114,327920,2.5500439999999998,0.771528,-1.944924,-18.0425,-433.44,-111.3525
1115,328018,2.86578,0.855708,-1.901248,-22.575,-438.69,-129.43
1116,328116,3.094164,0.8640040000000001,-1.651636,-24.3425,-438.41,-141.855
1117,328214,3.126372,0.574132,-1.16388,-29.1375,-427.2975,-151.48
1118,328312,3.115148,0.209596,-0.401136,-47.39,-399.945,-162.365
1119,328410,3.046584,-0.19885999999999998,0.591212,-77.245,-356.125,-165.4975
1120,328508,3.2778959999999997,-0.43651599999999996,1.62748,-110.7575,-300.65,-161.8225
1121,328606,2.623732,-0.46921199999999996,2.669848,-117.5475,-239.6975,-162.4175
1122,328705,4.473984,-0.37942,2.9980279999999997,-83.23001,-184.2225,-180.46
1123,328803,3.056832,-0.29377600000000004,3.039996,-16.9925,-69.9825,-135.4675
1124,328901,3.025112,-0.44212799999999997,2.169648,46.0775,31.85,-79.0825
1125,328999,2.885544,-0.349164,1.323212,57.6975,103.4425,-46.5675
1126,329097,2.495388,0.225212,0.648796,20.23,134.2075,-40.8975
1127,329195,-0.8559521000000001,1.9266240000000001,-3.040484,5.7225,150.6225,-82.74
1128,329293,-1.931992,-1.432036,1.938824,180.075,306.635,-116.13
1129,329391,1.506212,0.62464,-1.30418,-10.92,489.405,-160.44
1130,329489,5.082276,-2.9441040000000003,-1.001376,51.905,532.6475,-175.28
1131,329587,2.300432,-3.882772,-2.519544,-2.5375,441.9625,-132.16
1132,329686,3.263988,-2.344352,-1.747284,-47.5125,394.31,9.3625
1133,329784,2.7825759999999997,1.424716,-1.8524479999999999,-147.875,296.2575,38.7275
1134,329882,4.7875239999999994,5.84624,-2.889936,-117.3025,193.2175,-13.0375
1135,329980,1.497428,-0.5158159999999999,0.166652,154.3325,178.7625,-8.2425
1136,330078,0.278404,-1.161928,-1.7284959999999998,117.6875,52.955,39.9525
1137,330176,0.229604,1.146312,-0.562664,40.88,50.3125,37.555
1138,330274,1.764364,0.26961999999999997,-0.635376,46.97,65.7475,31.0975
1139,330372,0.401868,0.085888,-1.143872,67.55001,22.435,30.73
1140,330470,0.729072,0.37576,-0.800808,32.865,16.8525,22.68
1141,330569,0.8271601000000001,-0.18446400000000002,-0.8901120000000001,45.465,18.7775,29.155
1142,330667,0.714676,0.07344400000000001,-0.913048,27.825,6.755,19.005
1143,330765,0.640256,0.051484,-0.844972,18.48,-2.765,12.355
1144,330863,0.6202479999999999,0.10345599999999999,-0.8344801,13.0025,-7.49,9.17
1145,330961,0.57584,0.155428,-0.85888,8.2075,-10.605,7.1225
1146,331059,0.5753520000000001,0.13859200000000002,-0.8425321,9.0125,-8.12,7.5775
1147,331157,0.573156,0.125904,-0.8281360999999999,6.9475,-6.545,6.125
1148,331255,0.577304,0.13054000000000002,-0.826672,5.4075,-5.2675,3.4125
1149,331353,0.562664,0.146644,-0.826916,3.6225,-4.9875,1.19
1150,331451,0.5607121,0.165432,-0.815448,3.325,-4.7075,1.085
1151,331550,0.544852,0.159332,-0.814472,2.8875,-4.7075,2.31
1152,331648,0.540948,0.176656,-0.818376,2.275,-4.585,4.0775
1153,331746,0.551928,0.179096,-0.8054439999999999,2.0475,-4.6725,7.77
1154,331844,0.5565640000000001,0.166408,-0.8076399999999999,2.555,-5.145,11.7075
1155,331942,0.5502199999999999,0.15372,-0.815936,3.2025,-6.09,14.1225
1156,332040,0.548024,0.138104,-0.815692,2.1875,-6.6325,15.085
1157,332138,0.532408,0.139568,-0.8256960999999999,2.38,-4.97,14.91
1158,332236,0.5363121,0.128832,-0.8215481,2.7125,-2.7475,13.93
1159,332334,0.5397281,0.11712,-0.8249639999999999,3.325,-0.1925,12.5825
1160,332433,0.544608,0.09345201,-0.821304,3.99,2.415,10.115
1161,332531,0.525088,0.106628,-0.791048,2.1175,4.235,6.1425
1162,332629,0.5697399999999999,0.10516400000000001,-0.7993439999999999,0.2975,5.705,4.375
1163,332727,0.5987760999999999,0.118584,-0.8076399999999999,0.245,5.81,3.6225
1164,332825,0.591212,0.127368,-0.8049561,1.4875,5.005,2.7125
1165,332923,0.576084,0.14152,-0.8015399999999999,0.5425,3.43,2.66
1166,333021,0.5702281,0.14493599999999998,-0.787632,-0.4375,1.89,3.745
1167,333119,0.5612,0.133468,-0.796172,-1.225,0.9625,5.4775
1168,333217,0.573156,0.123708,-0.7944641,-1.155,0.595,6.4925
1169,333316,0.5673,0.126636,-0.7998321,-0.9625,1.05,6.755
1170,333414,0.562176,0.11834000000000001,-0.81252,-0.8925,1.54,6.2125
1171,333512,0.52094,0.120048,-0.8086161000000001,-0.63,3.99,5.7225
1172,333610,0.5009319999999999,0.118828,-0.8271601000000001,-1.7675,8.61,5.6525
1173,333708,0.503616,0.1037,-0.856684,-2.9925,18.41,4.6375
1174,333806,0.45506,0.099552,-0.8640040000000001,-5.565,31.78,1.5575
1175,333904,0.48995200000000005,0.122976,-1.028948,-6.8775,46.585,-2.205
1176,334002,0.642452,0.10638399999999999,-0.8552200000000001,4.9875,56.4725,-2.065
1177,334100,0.580232,0.041236,-0.876692,7.5075,70.3325,-2.94
1178,334198,0.41382399999999997,0.03416,-0.8801081000000001,8.0675,88.2,-7.7875
1179,334297,0.624152,0.09223200000000001,-0.8547319999999999,7.91,102.3925,-15.925
1180,334395,0.687104,0.09247601,-0.935984,3.5875,121.52,-18.3925
1181,334493,0.649528,0.171776,-0.9525761,-6.23,151.69,-19.0225
1182,334591,0.711016,0.249612,-1.034316,-20.09,187.6525,-15.3125
1183,334689,1.006744,0.303292,-1.326384,-30.8,240.5375,-6.4225
1184,334787,0.6541640000000001,0.28987199999999996,-1.259284,-22.12,313.0925,8.995
1185,334885,0.437004,0.306952,-1.514752,-17.4125,412.9825,22.89
1186,334983,0.121512,0.282308,-1.428864,-17.3775,515.4625,41.4575
1187,335081,0.7793359999999999,0.355996,-2.050088,-38.5175,565.3025,72.0475
1188,335180,1.26758,0.58072,-1.802672,-32.8825,567.8925,90.685
1189,335278,1.74216,0.312808,-2.47416,-18.655,572.6525,104.4925
1190,335376,1.2312239999999999,0.300608,-1.90442,-21.805,542.9025,93.0125
1191,335474,1.241228,0.101992,-1.6989720000000001,-6.2825,433.86,111.405
1192,335572,1.36884,0.492392,-3.209088,-20.8425,429.45,72.275
1193,335670,2.388028,0.6070720000000001,-2.573712,92.995,294.14,-17.9725
1194,335768,3.227144,-0.5043479999999999,-0.016836,80.7275,119.805,132.0375
1195,335866,2.8130759999999997,0.889624,-4.9227,-3.5875,247.7125,147.735
1196,335964,1.467904,0.874984,-2.993636,-6.93,13.475,102.8475
1197,336062,0.052216,1.008208,-2.083516,-0.2275,-123.1825,78.435
1198,336161,-0.255468,0.803492,-1.446188,56.6825,-144.9875,86.625
1199,336259,-0.10126,0.537776,-1.0406600000000001,78.995,-137.4975,94.65751
1200,336357,0.07637200000000001,0.640012,-1.072624,77.7525,-142.1,90.685
1201,336455,0.159332,0.7285841,-1.045296,68.8975,-164.2025,78.75
1202,336553,0.183,0.863516,-1.003816,64.785,-193.795,64.19
1203,336651,0.163968,0.9903959999999999,-0.915732,73.3425,-221.1125,50.4875
1204,336749,0.167384,1.047248,-0.822768,91.7175,-242.4625,37.1175
1205,336847,0.195688,1.036512,-0.735416,114.415,-257.7575,22.4525
1206,336945,0.269376,1.022848,-0.6834439999999999,131.39,-271.285,5.04
1207,337043,0.333304,1.039684,-0.634156,139.3525,-284.1125,-15.19
1208,337142,0.39918400000000004,1.102392,-0.619272,140.7875,-295.05,-36.715
1209,337240,0.503372,1.166808,-0.6182960999999999,140.0,-304.885,-59.115
1210,337338,0.636596,1.233908,-0.638792,139.685,-315.0,-79.5025
1211,337436,0.760304,1.2517200000000002,-0.662948,141.365,-325.815,-95.48
1212,337534,0.858392,1.241472,-0.6836880999999999,141.4175,-337.19,-107.31
1213,337632,0.9882001,1.248304,-0.74298,136.395,-348.67,-116.515
1214,337730,1.099708,1.273192,-0.8015399999999999,128.2575,-361.4625,-124.1975
1215,337828,1.205116,1.3024719999999999,-0.8230120999999999,120.47,-372.7325,-131.215
1216,337926,1.348588,1.390068,-0.97478,110.4425,-381.4825,-137.2525
1217,338025,1.521584,1.402268,-1.0492,105.4725,-388.2375,-144.8125
1218,338123,1.6753040000000001,1.493768,-1.2080440000000001,98.5775,-397.565,-154.4025
1219,338221,1.8946599999999998,1.619916,-1.39812,92.4525,-406.0525,-166.4075
1220,338319,2.160132,1.707024,-1.538176,89.65250999999999,-414.8725,-182.98
1221,338417,2.4085240000000003,1.6897,-1.584292,87.71,-423.535,-204.435
1222,338515,2.655452,1.7158080000000002,-1.568432,78.27750999999999,-426.895,-226.5725
1223,338613,2.9514240000000003,1.897588,-1.59942,62.685,-421.1725,-239.8725
1224,338711,3.237392,1.7389880000000002,-1.280024,53.13,-409.29,-244.265
1225,338809,3.2644759999999997,1.562088,-0.7278521,26.3375,-395.115,-245.8575
1226,338908,3.102216,1.3834799999999998,-0.10004,-24.36,-366.0125,-242.27
1227,339006,2.869928,0.62708,0.485804,-87.71,-316.645,-245.28
1228,339104,2.715476,-0.08442401,1.334436,-157.9025,-256.095,-275.555
1229,339202,2.8665119999999997,0.9745360000000001,1.390556,-208.985,-187.46,-324.975
1230,339300,4.242916,1.395192,1.9488279999999998,-74.445,-114.6425,-360.7975
1231,339398,4.416644,-1.059448,3.0951400000000002,159.1275,-45.4825,-310.3275
1232,339496,3.4203919999999997,-1.748016,3.007056,151.13,12.915,-242.7425
1233,339594,2.701568,-0.90402,2.032764,22.8725,98.1575,-182.7175
1234,339692,1.240984,0.388692,-0.24497600000000003,-58.0825,161.49,-129.5525
1235,339791,0.050263999999999996,-2.382904,0.492392,-14.7175,245.7875,-114.8
1236,339889,0.131028,-1.09556,-1.345416,-97.1775,370.02,-179.445
1237,339987,2.80478,-1.185108,-1.25294,-179.3925,449.2775,-179.165
1238,340085,2.48636,-2.406816,-2.261636,-87.36,415.695,-41.265
1239,340183,2.684488,0.268156,-1.869284,-175.2625,353.5,33.425
1240,340281,1.554036,3.099532,-2.478064,-211.6625,290.955,12.9325
1241,340379,6.0756,3.778096,-0.30012,-36.225,199.115,-58.7825
1242,340477,0.28938400000000003,0.8527800999999999,-1.331508,104.755,133.14,-22.7325
1243,340576,-0.5551,0.00488,-0.33794,63.595,79.4325,29.8025
1244,340674,1.7924240000000002,-0.326716,-1.508896,68.88,126.1575,46.7775
1245,340772,0.817156,0.781776,-0.510204,37.8875,73.115,56.105
1246,340870,0.936716,0.177876,-0.950868,25.8475,17.85,55.58
1247,340968,0.6749041,0.23424,-0.8457040000000001,50.0675,10.1675,65.2575
1248,341066,0.684176,-0.05002,-0.942816,37.94,0.8925,53.935
1249,341164,0.6378159999999999,0.060024,-0.9152440000000001,27.44,-1.33,40.39
1250,341262,0.58194,0.102968,-0.9125601000000001,17.115,-2.1175,30.9225
1251,341361,0.665632,0.05002,-0.796172,15.61,-0.0525,27.58
1252,341459,0.601216,0.102968,-0.8337481,9.8525,-3.815,21.8575
1253,341557,0.587064,0.05124001,-0.8335040000000001,12.1275,-3.78,19.075
1254,341655,0.522648,0.083204,-0.876692,12.1975,-3.22,14.5775
1255,341753,0.5397281,0.07686,-0.8457040000000001,13.7375,-0.1575,9.4325
1256,341851,0.5343600000000001,0.09394001,-0.874984,12.67,4.06,5.635
1257,341949,0.562664,0.09906401,-0.86498,13.2825,10.2025,4.3575
1258,342047,0.5553441,0.061488,-0.805932,12.0225,14.5075,4.0775
1259,342145,0.559736,0.11345999999999999,-0.8615640999999999,8.8025,17.3425,3.885
1260,342244,0.546804,0.08857201,-0.8405800999999999,7.0525,20.9125,3.7975
1261,342342,0.5380199999999999,0.06344,-0.8317960999999999,6.545,25.1825,3.3775
1262,342440,0.57096,0.046848,-0.8427761,6.3,29.3125,1.085
1263,342538,0.589992,0.08808401,-0.807884,6.3175,33.425,-2.2575
1264,342636,0.593896,0.116876,-0.80642,6.545,36.4525,-2.94
1265,342734,0.59902,0.10223600000000001,-0.7771399999999999,7.63,38.1675,-0.98
1266,342832,0.627568,0.09882,-0.786412,7.56,38.71,0.945
1267,342930,0.618052,0.110044,-0.787144,7.4025,38.22,2.8175
1268,343028,0.6329359999999999,0.081496,-0.772016,8.47,37.17,4.27
1269,343127,0.619028,0.07808001,-0.760304,9.24,35.3325,4.795
1270,343225,0.621468,0.067588,-0.753228,9.8,34.125,4.13
1271,343323,0.628788,0.05002,-0.7407841,9.6075,32.5675,3.045
1272,343421,0.6182960999999999,0.038551999999999996,-0.7476161,8.96,29.26,0.63
1273,343519,0.6229319999999999,0.044652,-0.738588,8.8375,26.3025,-2.975
1274,343617,0.640744,0.053436000000000004,-0.7332201,8.9775,24.045,-5.9325
1275,343715,0.6439159999999999,0.066856,-0.727364,9.4325,22.155,-7.595
1276,343813,0.639524,0.083204,-0.7378560000000001,9.2925,20.8075,-7.875
1277,343911,0.629764,0.096624,-0.754448,9.695,21.2275,-6.4925
1278,344010,0.6348881,0.085156,-0.7451760000000001,11.41,24.22,-4.41
1279,344108,0.626104,0.07710399999999999,-0.7673800000000001,12.215,27.9475,-2.59
1280,344206,0.6161,0.10052799999999999,-0.775188,13.3525,33.53,-1.2075
1281,344304,0.6348881,0.129076,-0.7929999999999999,14.385,42.9275,1.925
1282,344402,0.627812,0.10418800000000002,-0.7747001,16.695,52.5,7.9625
1283,344500,0.6307401,0.088328,-0.8244761,17.5875,63.245,13.125
1284,344598,0.6182960999999999,0.130296,-0.921588,21.455,77.14,18.13
1285,344696,0.648796,0.166408,-0.922076,31.465,96.35501,26.8625
1286,344795,0.72956,0.203008,-0.9982040000000001,42.4025,118.0375,40.0925
1287,344893,0.828624,0.256688,-1.025776,55.895,145.9325,57.2075
1288,344991,0.81252,0.335012,-1.130696,70.245,181.44,79.555
1289,345089,0.749324,0.298656,-1.250988,98.105,224.7525,108.78
1290,345187,0.7088201,0.451888,-1.455948,128.765,278.9675,129.22
1291,345285,0.792024,0.58194,-1.523048,165.13,336.4725,153.5625
1292,345383,1.308816,1.1751040000000001,-2.204784,208.1275,385.5425,182.42
1293,345481,1.14192,0.9655081,-1.972984,288.155,399.455,209.65
1294,345580,1.078724,1.04188,-2.0242240000000002,304.4475,385.1225,225.7325
1295,345678,1.364692,1.022116,-1.4959639999999998,295.645,362.18,223.965
1296,345776,1.21756,1.228784,-1.691652,342.16,334.81,205.6075
1297,345874,1.8824599999999998,1.442528,-1.92882,423.0975,292.075,132.3175
1298,345972,0.821304,0.6785640000000001,1.0018639999999999,431.025,67.1125,76.2825
1299,346070,4.657716000000001,2.182824,-4.32368,418.0575,196.56,29.82
1300,346168,2.2174720000000003,2.5693200000000003,-2.3424,334.705,73.71,-124.1625
1301,346266,0.71004,1.997384,-1.438868,388.9375,-58.1175,-225.2075
1302,346365,0.3904,0.9943001,-0.681736,441.21,-93.31,-231.665
1303,346463,0.29768,0.193736,-0.505568,445.6025,-84.28,-206.955
1304,346561,0.42163199999999995,-0.160796,-0.759328,391.58,-80.0625,-185.99
1305,346659,0.49751599999999996,-0.17641199999999999,-0.979416,306.1625,-98.8575,-162.8375
1306,346757,0.541192,0.033428,-1.133624,227.3775,-130.9175,-133.4025
1307,346855,0.509716,0.303048,-1.128256,174.02,-166.4075,-96.1975
1308,346953,0.47043199999999996,0.5380199999999999,-1.0614,148.295,-195.3,-57.9425
1309,347051,0.471164,0.757864,-0.9969841,139.6675,-217.1925,-25.585
1310,347150,0.55632,0.949892,-0.9586761,137.305,-234.6925,-2.38
1311,347248,0.689056,1.143628,-0.921588,133.455,-254.03,8.645
1312,347346,0.79422,1.330288,-0.8620521000000001,129.395,-274.47,7.8925
1313,347444,0.892552,1.523048,-0.7712840999999999,126.1225,-294.0875,-3.1675
1314,347542,0.9581881,1.6570040000000001,-0.650992,128.31,-309.2425,-20.65
1315,347640,1.001132,1.6994599999999997,-0.527772,132.405,-320.0575,-41.3
1316,347738,1.0760399999999999,1.6906759999999998,-0.466772,131.53,-326.725,-62.0025
1317,347836,1.1773,1.707756,-0.434076,124.705,-329.8925,-80.1325
1318,347935,1.2456200000000002,1.6384599999999998,-0.35868,114.6425,-330.785,-95.8825
1319,348033,1.271484,1.643584,-0.37332,92.62751,-332.99,-112.6825
1320,348131,1.2944200000000001,1.600152,-0.36136399999999996,73.97251,-328.72,-123.83
1321,348229,1.325896,1.5767280000000001,-0.499712,54.2675,-321.7375,-133.5425
1322,348327,1.443016,1.5542799999999999,-0.620492,33.425,-316.3125,-143.2025
1323,348425,1.575996,1.5401280000000002,-0.794952,16.1875,-314.0725,-152.32
1324,348523,1.702632,1.4905959999999998,-0.9240280000000001,2.2925,-315.2625,-161.945
1325,348621,1.8073080000000001,1.4191040000000001,-1.0243120000000001,-10.465,-319.095,-171.465
1326,348720,1.8824599999999998,1.297836,-1.1009280000000001,-22.015,-322.105,-178.92
1327,348818,1.985672,1.210728,-1.216584,-35.56,-324.415,-184.7125
1328,348916,2.100352,1.249768,-1.3978760000000001,-50.96,-326.2525,-189.0525
1329,349014,2.297992,1.160952,-1.516216,-63.07,-327.8975,-193.6025
1330,349112,2.453176,1.023336,-1.49206,-74.025,-330.4,-202.6675
1331,349210,2.5254,0.9242720999999999,-1.374696,-91.7525,-331.4675,-213.5
1332,349308,2.536624,0.444324,-1.097756,-106.19,-326.655,-225.68
1333,349406,2.61446,-0.119316,-0.5553441,-118.6675,-312.8125,-250.425
1334,349505,2.6776560000000003,0.252052,-0.418704,-150.7975,-295.82,-269.99
1335,349603,3.10612,0.348432,-0.002684,-109.9525,-262.885,-262.8675
1336,349701,3.268868,-0.026351999999999997,0.7983680000000001,-25.27,-227.675,-233.5725
1337,349799,3.3674440000000003,-0.9174399999999999,1.8695279999999999,44.31,-188.9475,-179.5325
1338,349897,3.148332,-1.62992,2.724748,30.905,-145.285,-129.29
1339,349995,2.77062,-1.367864,2.867,-47.565,-79.975,-108.745
1340,350093,2.679608,-0.715896,2.322636,-104.51,4.1475,-78.82
1341,350191,2.7240159999999998,-0.030987999999999998,1.353712,-100.6075,85.575,-49.4725
1342,350290,2.68522,0.329156,0.62464,-49.07,139.3525,-37.625
1343,350388,2.449516,0.46921199999999996,0.101504,15.995,170.38,-50.82
1344,350486,-2.140612,2.489044,-5.983612,75.2325,122.185,-102.235
1345,350584,-2.309704,-3.21958,1.7687560000000002,326.795,317.9225,-110.2325
1346,350682,2.606652,-1.7089759999999998,-0.013908000000000002,72.135,535.29,-104.02
1347,350780,5.688372,-3.549956,-2.019832,21.6825,499.6425,-152.25
1348,350878,3.122468,-4.172644,-3.0985560000000003,-8.12,361.5325,-43.61
1349,350976,3.137596,-0.211792,-2.070096,-111.8075,284.3575,30.2925
1350,351075,1.8051119999999998,2.656672,-1.669448,-163.7475,188.195,19.495
1351,351173,0.806908,3.094896,-1.987136,-68.425,161.49,0.8575
1352,351271,1.6677400000000002,0.46018400000000004,-0.37551599999999996,54.04,151.795,-16.6425
1353,351369,0.550952,-0.054167999999999994,-1.1751040000000001,78.1725,118.37,7.7
1354,351467,1.606496,0.062464,-1.033828,60.235,92.085,9.7825
1355,351565,0.7427361,0.5612,-0.8754719999999999,43.645,41.7375,12.985
1356,351663,0.684664,0.249856,-0.9691681000000001,51.5725,15.5925,20.3875
1357,351761,1.067256,-0.202764,-1.006988,52.045,22.12,23.485
1358,351859,0.49263599999999996,0.180072,-0.841556,20.93,-2.52,8.75
1359,351957,0.6265921,0.344528,-0.8020281,12.0575,-4.5325,0.0525
1360,352056,0.601704,0.136152,-0.863516,19.11,-4.375,3.3425
1361,352154,0.48824399999999996,0.141032,-0.840824,15.61,-7.9275,2.1525
1362,352252,0.561688,0.183488,-0.8203280000000001,11.655,-4.6725,0.2975
1363,352350,0.544852,0.17812,-0.813496,11.7775,-5.0575,-0.105
1364,352448,0.546804,0.215696,-0.813496,14.0175,-7.245,0.595
1365,352546,0.58804,0.23741199999999998,-0.8103239999999999,16.94,-7.9275,2.1
1366,352644,0.580964,0.23741199999999998,-0.8247200000000001,17.955,-11.06,4.2525
1367,352742,0.56242,0.233508,-0.820084,18.1825,-14.7175,6.5625
1368,352841,0.553148,0.18788,-0.826428,17.57,-16.8525,7.8225
1369,352939,0.5392399999999999,0.189344,-0.8271601000000001,15.855,-17.71,7.805
1370,353037,0.528748,0.196664,-0.823744,14.7,-17.2025,7.3325
1371,353135,0.50142,0.211304,-0.8166680000000001,13.6325,-16.1525,7.8225
1372,353233,0.48824399999999996,0.219112,-0.812032,13.0025,-15.1375,9.66
1373,353331,0.487512,0.202764,-0.819108,12.6525,-12.8625,12.6175
1374,353429,0.508008,0.194224,-0.8142281,11.4275,-10.01,14.525
1375,353527,0.5060560000000001,0.166164,-0.8176439999999999,10.15,-8.0675,15.1025
1376,353626,0.48702399999999996,0.171776,-0.826428,9.5725,-6.1075,14.0
1377,353724,0.49849209999999994,0.15372,-0.832528,9.5375,-2.6775,12.32
1378,353822,0.533628,0.14469200000000002,-0.8254520000000001,8.505,0.3325,10.4475
1379,353920,0.5221600000000001,0.14005599999999999,-0.813496,6.685,2.345,8.5925
1380,354018,0.527772,0.14786400000000002,-0.8283799999999999,5.2675,3.15,6.3875
1381,354116,0.515328,0.154452,-0.8113001,4.34,4.06,5.7225
1382,354214,0.536556,0.14786400000000002,-0.8230120999999999,2.1875,4.375,5.88
1383,354312,0.528016,0.12980799999999998,-0.8276481,2.4675,5.075,6.055
1384,354411,0.564128,0.13859200000000002,-0.8100801,1.61,5.95,6.72
1385,354509,0.49898000000000003,0.145912,-0.8413120000000001,0.07,5.5475,8.4175
1386,354607,0.5214281,0.169336,-0.8291120999999999,-0.21,8.645,10.1675
1387,354705,0.473116,0.15982000000000002,-0.8457040000000001,-2.3975,12.075,13.02
1388,354803,0.503372,0.13908,-0.8383841000000001,-4.55,18.27,13.2825
1389,354901,0.485804,0.12761199999999998,-0.8532681000000001,-5.5475,27.195,10.7625
1390,354999,0.459696,0.146156,-0.8730319999999999,-7.0525,38.4125,8.2775
1391,355097,0.5038600000000001,0.12444000000000001,-0.969412,-8.225,51.065,7.98
1392,355196,0.467016,0.119316,-0.913048,-1.645,62.8425,6.8075
1393,355294,0.5121560000000001,0.132004,-0.9023121,1.7325,83.195,4.41
1394,355392,0.471408,0.098332,-0.9208561,5.32,106.5575,4.235
1395,355490,0.6661201,0.154452,-0.8608319999999999,6.5625,132.58,3.1325
1396,355588,0.69662,0.194956,-0.907192,4.0425,163.17,4.095
1397,355686,0.6514800000000001,0.195444,-0.9598959999999999,-7.945,192.8325,7.91
1398,355784,0.792512,0.25424800000000003,-1.093608,-14.945,231.9625,11.0775
1399,355882,0.629764,0.385276,-1.0704280000000002,-8.855,295.4175,19.985
1400,355981,0.819108,0.470188,-1.1733959999999999,1.505,374.4125,43.26
1401,356079,0.936472,0.373076,-1.306376,-2.8875,459.7075,78.575
1402,356177,0.639768,0.24766,-1.335412,-7.735,540.05,105.6475
1403,356275,0.445788,0.8108121,-2.37656,12.075,570.255,137.445
1404,356373,1.4598520000000001,0.5897479999999999,-1.494744,0.35,568.12,152.8275
1405,356471,2.1957560000000003,1.0565200000000001,-1.9602959999999998,6.7375,567.28,177.2925
1406,356569,1.500356,1.105808,-1.550132,1.925,561.54,192.815
1407,356667,0.9684360999999999,0.145424,-1.9415080000000002,-32.6725,474.4775,189.0
1408,356765,1.996164,0.456768,-3.989156,-38.0625,407.6975,142.59
1409,356864,2.3902240000000003,0.145424,-2.229428,77.5775,388.325,55.895
1410,356962,1.550376,-0.522404,1.643584,-136.22,26.04,172.2875
1411,357060,4.871704,0.969412,-5.6476239999999995,-96.2675,324.205,224.07
1412,357158,2.336544,2.174772,-3.843976,-210.49,56.5425,125.37
1413,357256,0.278648,2.31556,-2.85236,-168.8925,-151.4275,49.175
1414,357354,-0.59658,1.8580599999999998,-1.661884,-76.23001,-224.7525,13.2825
1415,357452,-0.663192,1.288564,-1.0565200000000001,12.6,-202.1425,-4.2175
1416,357550,-0.42187600000000003,0.8786440999999999,-0.9211,45.5525,-175.9275,-30.625
1417,357649,-0.133468,0.681492,-0.983808,33.9325,-171.885,-68.8275
1418,357747,0.031232,0.6292760000000001,-1.071892,8.61,-188.335,-107.2925
1419,357845,0.153232,0.64294,-1.1472879999999999,-5.6875,-212.7475,-136.885
1420,357943,0.256688,0.572912,-1.110688,-0.07,-236.95,-154.8925
1421,358041,0.374784,0.435784,-1.071648,14.665,-257.845,-164.0275
1422,358139,0.494832,0.24936799999999998,-1.003084,29.505,-275.905,-168.49
1423,358237,0.60146,0.101016,-0.9540401,34.72,-292.46,-171.0975
1424,358336,0.72712,-0.012688,-0.945744,32.935,-307.86,-170.4675
1425,358434,0.885476,-0.072712,-0.9650200999999999,27.6675,-322.5425,-164.9375
1426,358532,1.035048,-0.095648,-0.9857600000000001,22.82,-338.03,-154.735
1427,358630,1.121912,-0.085156,-0.9947881,19.6875,-353.92,-141.015
1428,358728,1.20048,-0.044164,-1.0169920000000001,19.95,-367.92,-124.7225
1429,358826,1.2251239999999999,-0.069052,-1.029436,22.68,-379.925,-109.7075
1430,358924,1.345416,-0.027572000000000003,-1.104588,20.055,-387.765,-100.835
1431,359022,1.496208,0.067588,-1.230004,14.28,-394.45,-93.0125
1432,359120,1.6689599999999998,0.182756,-1.39934,10.5,-401.5375,-86.73
1433,359219,1.8290240000000002,0.27694,-1.519144,9.975,-411.6525,-84.4725
1434,359317,1.9659080000000002,0.395524,-1.730448,10.22,-421.96,-88.06
1435,359415,2.269932,0.553392,-2.084248,13.3525,-428.365,-95.6375
1436,359513,2.747928,0.7241920000000001,-2.359968,21.21,-435.9775,-107.9925
1437,359611,3.039508,0.480436,-1.7916919999999998,36.855,-453.9675,-127.435
1438,359709,3.256912,0.09735601,-1.681648,38.29,-460.915,-148.05
1439,359807,3.5506879999999996,0.172752,-1.267092,22.96,-453.8625,-146.72
1440,359905,3.72954,0.276696,-0.503128,5.495,-436.7825,-125.1775
1441,360004,3.766872,-0.18056,0.769088,4.025,-401.9575,-85.645
1442,360102,3.509696,-1.0443200000000001,2.478064,-23.87,-351.785,-39.55
1443,360200,2.61446,-1.300276,3.6695160000000002,-121.6075,-283.99,-7.385
1444,360298,3.8920440000000003,-0.6844201,3.52092,-209.125,-199.4125,-7.4025
1445,360396,3.3013199999999996,0.48653599999999997,2.4917279999999997,-165.4975,-76.58,-18.7075
1446,360494,3.44406,0.012688,1.996164,-3.9025,27.3,5.2675
1447,360592,3.3354800000000004,-0.34648,1.4635120000000001,84.14001,81.235,8.7675
1448,360690,2.2631,-0.154452,1.9898200000000001,69.51,114.3275,-2.17
1449,360789,-3.31596,1.47254,2.514664,54.32,172.2175,-14.7175
1450,360887,-2.053504,-1.42862,-1.6745720000000002,141.225,451.1675,16.4325
1451,360985,6.616060000000001,-1.41642,0.45115600000000006,76.16001,558.32,-2.8175
1452,361083,2.797216,-1.933456,-2.8848119999999997,-15.8025,445.97,-41.3175
1453,361181,3.7724839999999995,-1.753872,-2.058384,-43.995,418.1975,-4.9
1454,361279,2.695224,0.31890799999999997,-2.137928,-102.9875,327.81,25.515
1455,361377,2.449516,4.384192,-3.68074,-136.92,234.8325,-9.1875
1456,361475,2.479284,1.338096,-0.331108,27.9825,196.875,-46.27
1457,361574,1.098488,-1.956392,-1.778028,174.195,161.49,42.7175
1458,361672,0.9669721,0.26961999999999997,-0.5016641,40.005,59.955,32.0075
1459,361770,1.214388,0.5607121,-1.083848,7.8575,42.56,12.4425
1460,361868,0.758596,0.10760399999999999,-0.8954801,37.135,16.4325,20.79
1461,361966,0.80642,0.081252,-0.8479,16.8875,5.81,14.84
1462,362064,0.571204,0.239364,-0.8569280999999999,11.2875,0.8225,4.025
1463,362162,0.594384,0.21057199999999998,-0.846924,7.28,-0.945,2.3975
1464,362260,0.65758,0.182268,-0.7951961,8.715,-0.35,4.6375
1465,362359,0.607804,0.157868,-0.8361879999999999,4.935,-4.4625,1.4875
1466,362457,0.540948,0.14005599999999999,-0.8471681000000001,2.7125,-6.51,-1.995
1467,362555,0.5795,0.191052,-0.819108,1.4175,-3.15,-4.2525
1468,362653,0.577548,0.200812,-0.803248,1.3825,-3.2025,-3.64
1469,362751,0.598532,0.196664,-0.79178,2.2925,-4.76,-2.135
1470,362849,0.5777920999999999,0.206668,-0.8174001000000001,2.5025,-6.5275,-0.98
1471,362947,0.570716,0.22789600000000002,-0.8015399999999999,2.5725,-7.6825,-0.56
1472,363045,0.5612,0.21447600000000003,-0.8025161,3.745,-7.5775,0.175
1473,363144,0.5648601,0.228384,-0.784216,4.865,-8.1025,2.0125
1474,363242,0.5551,0.255468,-0.788852,5.6525,-9.73,4.62
1475,363340,0.548268,0.256688,-0.787632,6.3,-10.955,8.19
1476,363438,0.534604,0.227408,-0.815204,6.0375,-9.975,11.3575
1477,363536,0.563396,0.245952,-0.796416,4.3225,-6.3,13.44
1478,363634,0.5575399999999999,0.20837600000000003,-0.800076,2.66,-4.83,16.73
1479,363732,0.510692,0.171532,-0.8254520000000001,1.8375,-2.6425,17.885
1480,363831,0.53192,0.122732,-0.823256,1.9075,2.065,16.5725
1481,363929,0.519476,0.13761600000000002,-0.849852,1.015,7.735,12.8275
1482,364027,0.533628,0.12688,-0.800076,-2.1175,15.155,8.47
1483,364125,0.539972,0.136152,-0.81374,-3.4825,20.3,5.845
1484,364223,0.576084,0.15274400000000002,-0.775676,-2.73,23.66,3.4825
1485,364321,0.601704,0.174704,-0.7515201,-3.675,25.165,2.0125
1486,364419,0.5987760999999999,0.19983599999999999,-0.751276,-4.3575,25.41,1.19
1487,364517,0.59658,0.22277199999999997,-0.749568,-3.675,25.0775,1.645
1488,364615,0.626836,0.223748,-0.735904,-3.745,23.8875,4.5675
1489,364714,0.612928,0.20837600000000003,-0.776408,-1.7675,22.47,7.4725
1490,364812,0.5892601,0.21032800000000001,-0.780068,2.415,20.1075,10.815
1491,364910,0.618052,0.199348,-0.790072,1.33,20.86,14.245
1492,365008,0.5543680000000001,0.18251199999999998,-0.800076,0.56,24.745,15.26
1493,365106,0.528016,0.14688800000000002,-0.8310639999999999,-0.455,33.8275,15.0675
1494,365204,0.514108,0.121024,-0.850096,-0.4025,47.1625,11.34
1495,365302,0.5489999999999999,0.110776,-0.8459479999999999,1.085,64.505,5.845
1496,365401,0.5968241,0.118584,-0.792024,1.9775,85.05,-0.455
1497,365499,0.64172,0.12248800000000001,-0.8361879999999999,-0.525,108.325,-5.3725
1498,365597,0.69662,0.121512,-0.815692,-4.1825,129.8325,-9.9225
1499,365695,0.629764,0.180804,-0.888648,-14.2975,149.9575,-14.945
1500,365793,0.759084,0.22862800000000003,-0.90646,-13.9825,178.115,-15.89
1501,365891,0.913048,0.31524800000000003,-1.066768,-15.435,216.8425,-13.1075
1502,365989,0.62342,0.32208000000000003,-1.029192,-5.845,268.1875,-1.015
1503,366087,0.7510321,0.358192,-1.2282959999999998,-8.155,336.665,16.8525
1504,366186,1.1131280000000001,0.579012,-1.121424,-10.08,429.17,37.0125
1505,366284,0.7869,0.5185,-1.56892,-25.3575,502.845,74.3225
1506,366382,1.14314,0.656116,-1.510604,-31.1675,551.4425,107.4675
1507,366480,1.236348,0.7327321,-2.189168,-42.3675,562.9575,144.5675
1508,366578,1.7284959999999998,0.041724000000000004,-1.88002,-41.895,572.88,160.2475
1509,366676,2.145492,1.104588,-1.8043799999999999,-92.19001,567.49,138.845
1510,366774,1.502796,0.9067040000000001,-2.077172,-144.6375,486.15,111.545
1511,366872,1.6826240000000001,0.9540401,-3.399896,-126.98,375.69,115.0625
1512,366970,2.2518759999999998,0.113704,-2.0691200000000003,48.02,383.0925,85.2425
1513,367069,2.791116,-1.086288,0.394304,-142.555,53.8125,126.0525
1514,367167,4.608184,0.25351599999999996,-4.243648,-137.5325,248.5,241.115
1515,367265,2.726212,1.9197919999999997,-4.04674,-279.4575,144.095,156.2225
1516,367363,0.9291520000000001,2.243092,-3.223484,-245.35,-114.5725,95.5675
1517,367461,-0.239608,2.0461840000000002,-2.002264,-156.065,-240.0825,56.945
1518,367559,-0.509472,1.377624,-1.248548,-35.28,-241.885,44.1525
1519,367657,-0.4209,0.8913321,-0.859856,19.915,-219.765,24.0275
1520,367755,-0.272304,0.620004,-0.7788480999999999,18.62,-208.4075,-10.15
1521,367853,-0.133224,0.547048,-0.8296,-5.7925,-210.0875,-51.205
1522,367952,0.09028,0.607804,-0.9335440999999999,-30.835,-220.815,-89.4075
1523,368050,0.285968,0.648552,-1.038708,-35.35,-238.455,-116.4975
1524,368148,0.442616,0.598532,-1.043588,-18.5325,-259.0525,-134.155
1525,368246,0.5502199999999999,0.45164399999999993,-1.0126,5.0225,-279.7025,-144.795
1526,368344,0.6466,0.28011199999999997,-0.961116,24.745,-298.9175,-152.5475
1527,368442,0.7376119999999999,0.150304,-0.919392,33.2325,-316.1375,-156.8175
1528,368540,0.8884040000000001,0.05612,-0.9147559999999999,33.9675,-330.82,-158.2
1529,368638,1.0147959999999998,0.053924,-0.961116,30.5375,-345.3625,-156.2225
1530,368737,1.1041,0.027816000000000004,-0.9703879999999999,29.4175,-359.555,-151.095
1531,368835,1.18218,0.020008,-0.9828321,29.5575,-373.0825,-143.185
1532,368933,1.2383,-0.00366,-1.011136,29.5925,-383.2675,-134.015
1533,369031,1.355664,0.01098,-1.09312,27.7375,-389.795,-125.1075
1534,369129,1.526952,0.052703999999999994,-1.214388,24.2375,-395.3075,-116.34
1535,369227,1.7143439999999999,0.137372,-1.3947040000000002,20.72,-403.2175,-108.29
1536,369325,1.897344,0.21374400000000002,-1.540616,19.7575,-414.505,-103.005
1537,369423,2.0374,0.293288,-1.716784,18.1475,-427.4375,-102.2175
1538,369522,2.30336,0.349408,-1.9849400000000001,17.4825,-436.0125,-105.5425
1539,369620,2.692784,0.40381999999999996,-1.9834759999999998,17.185,-445.6025,-112.35
1540,369718,2.966308,0.044896,-1.71898,18.48,-458.955,-123.515
1541,369816,3.21348,-0.06563601,-1.640412,5.04,-463.47,-136.115
1542,369914,3.512136,0.06490399999999999,-1.432768,-11.4975,-455.7525,-134.1375
1543,370012,3.7480839999999995,0.272304,-0.8235001000000001,-12.285,-439.5125,-117.25
1544,370110,3.83934,-0.040504000000000005,0.33428,1.6975,-410.7075,-84.735
1545,370208,3.5482480000000005,-0.776896,1.9727400000000002,-2.73,-366.1875,-43.75
1546,370307,2.677168,-1.2404959999999998,3.438448,-68.6875,-302.1375,-21.42
1547,370405,4.1362879999999995,-1.036268,3.637308,-167.615,-227.8675,-21.385
1548,370503,3.113928,0.214964,2.87554,-171.78,-108.045,-25.3225
1549,370601,3.201524,0.299632,2.152812,-45.01,2.3275,-6.51
1550,370699,3.256424,-0.25058800000000003,1.677988,84.5075,77.84,8.925
1551,370797,2.866268,-0.221308,0.9293961,90.63251,107.9225,-2.7475
1552,370895,1.4520440000000001,-0.027572000000000003,0.647332,68.425,140.595,-16.1
1553,370993,-3.212748,1.7882759999999998,-1.4844959999999998,30.6775,116.865,-37.5725
1554,371092,-3.3842800000000004,-0.44237200000000004,0.499712,113.015,404.6,7.6125
1555,371190,3.98696,-2.813564,0.388692,103.705,561.505,67.8125
1556,371288,4.749948000000001,-1.316136,-3.23788,-2.24,483.0525,-46.3225
1557,371386,3.395748,-2.072536,-1.5494,-90.52750999999999,384.545,-5.775
1558,371484,3.643652,1.69092,-2.5986,-109.7075,302.8375,30.87
1559,371582,1.605764,2.374364,-1.353712,-98.385,206.3075,26.005
1560,371680,1.766072,2.10938,-2.1045,22.715,184.31,3.8325
1561,371778,1.20658,-1.254404,-0.543144,163.2575,190.0325,26.32
1562,371876,1.8295119999999998,-0.284992,-1.3290680000000001,59.9375,94.74501,31.4825
1563,371975,0.786656,0.576328,-0.9635560999999999,49.0,38.5875,27.965
1564,372073,0.922076,0.017324000000000003,-0.9171961,52.85,18.795,29.05
1565,372171,0.8276481,-0.08003201,-0.951356,39.2,4.9875,28.665
1566,372269,0.677344,0.22326,-0.8466800999999999,19.53,-2.1525,10.78
1567,372367,0.6539201,0.14005599999999999,-0.843508,13.65,-5.145,4.865
1568,372465,0.623664,0.133956,-0.849852,13.8775,-6.51,3.78
1569,372563,0.5892601,0.156892,-0.81862,9.3275,-7.7175,0.21
1570,372661,0.5777920999999999,0.1586,-0.85644,6.8775,-9.3625,-0.7525
1571,372760,0.573156,0.15396400000000002,-0.831308,6.0025,-8.4175,-0.98
1572,372858,0.584868,0.15762400000000001,-0.8300879999999999,3.5875,-8.4875,-1.89
1573,372956,0.56242,0.160308,-0.8230120999999999,2.59,-9.0125,-2.135
1574,373054,0.5734,0.160064,-0.821304,1.9075,-9.275,-1.575
1575,373152,0.5743761,0.150304,-0.8249639999999999,1.785,-9.1525,-1.05
1576,373250,0.568764,0.141032,-0.8100801,0.945,-9.38,-1.855
1577,373348,0.567788,0.167384,-0.8044680999999999,0.21,-9.695,-2.45
1578,373446,0.5511961,0.167872,-0.8113001,0.21,-10.9025,-1.785
1579,373544,0.54656,0.168848,-0.8047121,0.3675,-11.025,-0.8925
1580,373642,0.547536,0.18251199999999998,-0.801784,0.42,-11.1825,-0.175
1581,373741,0.527284,0.19861600000000001,-0.797148,0.3675,-11.375,0.8400001
1582,373839,0.509716,0.201544,-0.796904,0.9975,-11.41,2.7825
1583,373937,0.5160600000000001,0.180804,-0.797392,1.9075,-10.465,5.215
1584,374035,0.522892,0.174216,-0.797392,2.415,-8.8375,7.315
1585,374133,0.511668,0.153232,-0.8030041,3.4825,-8.015,8.82
1586,374231,0.5221600000000001,0.159576,-0.8132520999999999,4.8125,-6.965,9.5375
1587,374329,0.51484,0.15006,-0.8115439999999999,6.8775,-5.9675,9.625
1588,374427,0.537776,0.10492,-0.793976,7.735,-3.9375,8.645
1589,374526,0.550708,0.12175599999999999,-0.800808,6.16,-1.8375,6.72
1590,374624,0.5414359999999999,0.134444,-0.7998321,4.9525,-0.91,5.8975
1591,374722,0.55388,0.149572,-0.817156,4.34,-0.2625,5.32
1592,374820,0.5455840000000001,0.189588,-0.79666,5.075,-1.54,5.635
1593,374918,0.529968,0.19959200000000002,-0.807396,5.6525,-3.36,8.0675
1594,375016,0.543632,0.17446,-0.80642,5.6875,-2.73,11.795
1595,375114,0.504592,0.156404,-0.8464360000000001,4.6375,-1.5575,13.755
1596,375212,0.48873199999999994,0.17543599999999998,-0.8418,3.85,2.7475,15.225
1597,375310,0.499712,0.128588,-0.8361879999999999,2.17,11.27,16.45
1598,375409,0.4404201,0.067344,-0.976,-0.8400001,22.1025,15.925
1599,375507,0.443592,0.13542,-0.9247601000000001,-1.8375,35.6825,12.3725
1600,375605,0.45896400000000004,0.125904,-0.9635560999999999,-6.965,55.895,8.4875
1601,375703,0.386496,0.068564,-0.885964,-0.2275,73.8325,8.015
1602,375801,0.712724,0.068564,-0.89792,3.6575,89.6,4.4625
1603,375899,0.485072,0.111508,-0.8876719999999999,5.5125,112.8225,-1.2075
1604,375997,0.5846241,0.127368,-0.9706319999999999,2.87,140.6125,-1.5575
1605,376095,0.68686,0.125172,-0.9406200000000001,0.665,176.8375,0.1925
1606,376194,0.677588,0.239852,-1.037,-15.085,222.39,1.505
1607,376292,0.75762,0.33623200000000003,-1.207068,-27.37,280.3325,9.345
1608,376390,0.692716,0.411872,-1.290516,-15.365,370.1425,28.2625
1609,376488,0.792024,0.518012,-1.504748,-6.9825,475.8075,57.5925
1610,376586,0.7476161,0.387228,-1.803648,-22.6975,556.7275,94.99
1611,376684,1.261236,0.6753920999999999,-2.2372360000000002,-15.68,572.565,135.0125
1612,376782,1.7794919999999999,0.9235399999999999,-2.090348,-32.3575,573.3175,163.45
1613,376880,2.73768,1.08702,-2.4634240000000003,-39.165,572.145,183.645
1614,376978,1.148752,0.323056,-1.7153200000000002,-65.59,543.795,177.975
1615,377076,1.482056,0.664412,-1.470588,-103.18,424.725,158.34
1616,377175,2.23992,0.5248441,-3.124664,-31.6925,442.7675,84.665
1617,377273,3.021208,-0.7522521,-1.148508,-78.05,176.54,103.9325
1618,377371,3.514332,0.214232,-2.619096,-110.2325,203.8225,248.92
1619,377469,3.054392,1.6540759999999999,-4.24926,-202.2125,226.1,174.755
1620,377567,1.239032,2.155984,-3.4050199999999995,-211.75,-69.3,104.5625
1621,377665,-0.416264,2.119872,-2.031544,-153.7375,-221.6725,50.435
1622,377763,-0.8113001,1.527684,-1.167296,-38.465,-220.8675,30.0475
1623,377861,-0.620004,0.904752,-0.7610359999999999,28.0525,-179.7775,12.8275
1624,377959,-0.28694400000000003,0.6124400999999999,-0.775676,30.9925,-156.835,-16.24
1625,378058,-0.10858,0.530212,-0.850096,2.03,-161.0,-50.8725
1626,378156,0.06466001,0.6439159999999999,-0.981124,-29.8025,-181.475,-85.0325
1627,378254,0.14762,0.7329760000000001,-1.042368,-37.345,-206.9725,-110.3025
1628,378352,0.25522399999999995,0.7046720999999999,-1.0260200000000002,-21.315,-229.7575,-127.5925
1629,378450,0.344528,0.570716,-0.9455,3.8675,-249.3575,-140.035
1630,378548,0.44652,0.404552,-0.888648,24.5175,-265.965,-150.2025
1631,378646,0.572912,0.264252,-0.8547319999999999,35.07,-281.5925,-159.25
1632,378744,0.696132,0.16689600000000002,-0.850584,37.03,-296.905,-165.0075
1633,378842,0.797636,0.10833599999999999,-0.8620521000000001,35.1925,-310.8,-166.5475
1634,378940,0.9289081,0.07832401,-0.9042641,31.815,-323.9075,-164.3075
1635,379038,1.039196,0.07417601,-0.9408639999999999,30.135,-336.6825,-158.165
1636,379137,1.178032,0.090768,-0.992592,29.75,-349.1425,-148.4525
1637,379235,1.286856,0.08564401,-1.046516,31.2025,-361.8475,-137.13
1638,379333,1.395192,0.11736400000000001,-1.11386,31.85,-375.1125,-126.525
1639,379431,1.524756,0.19276,-1.2214639999999999,29.4875,-387.4325,-116.48
1640,379529,1.675548,0.269376,-1.362252,27.02,-398.6675,-109.6725
1641,379627,1.874408,0.41016400000000003,-1.587708,23.205,-409.5525,-107.345
1642,379725,2.14964,0.531188,-1.8153599999999999,22.8025,-421.2425,-108.08
1643,379823,2.53272,0.5799880000000001,-1.980548,23.485,-434.7875,-112.5775
1644,379922,2.952888,0.53314,-2.007876,18.5675,-450.695,-121.59
1645,380020,3.36354,0.33428,-1.8119439999999998,5.04,-466.62,-135.905
1646,380118,3.672932,0.273524,-1.544032,-12.4775,-475.02,-152.88
1647,380216,3.9186400000000003,0.44822799999999996,-1.102392,-32.2,-470.54,-154.9625
1648,380314,3.8976559999999996,0.320616,-0.194712,-29.015,-448.035,-135.52
1649,380412,3.379888,-0.18104800000000001,1.1895,-24.2375,-410.305,-107.6775
1650,380510,4.098712,-1.1953559999999999,2.692296,-52.5875,-348.565,-83.30001
1651,380608,3.6697599999999997,-1.652856,3.750036,-137.9175,-250.11,-65.1875
1652,380707,3.4301519999999996,-0.74298,3.398676,-211.26,-155.435,-69.09
1653,380805,3.293024,-0.11345999999999999,2.743048,-143.0275,-52.185,-37.6775
1654,380903,3.246664,-0.389424,2.118164,-4.69,47.8275,21.385
1655,381001,3.204452,-0.605364,1.531344,69.0025,117.075,58.485
1656,381099,2.8313759999999997,-0.265228,0.672708,40.3375,148.645,60.5325
1657,381197,-2.545652,2.4939240000000003,-7.985388,12.7925,88.11251,15.5925
1658,381295,-3.8447080000000002,-1.119472,2.8618759999999996,220.9725,241.5525,-7.63
1659,381393,1.706536,-0.8791321,0.48653599999999997,82.95,560.9099,-16.765
1660,381492,5.744004,-3.604856,-2.434144,76.195,544.6,6.0025
1661,381590,3.3989199999999995,-2.5278400000000003,-2.6705799999999997,2.1175,386.1725,18.4275
1662,381688,2.822836,-0.114924,-1.579412,-75.845,311.255,38.6225
1663,381786,2.429264,2.2530959999999998,-2.27164,-109.935,213.9025,39.8125
1664,381884,0.80886,1.477176,-0.8540000000000001,-27.335,186.8475,21.8575
1665,381982,2.740852,1.346392,-1.7019,37.415,160.16,-1.7325
1666,382080,0.693204,-0.49849209999999994,-0.7993439999999999,124.25,144.69,28.1575
1667,382178,1.33102,0.026595999999999998,-1.093608,63.35,56.4025,35.7
1668,382277,0.9703879999999999,0.256688,-0.9479401,62.72,39.2175,34.615
1669,382375,0.8147161,0.057584,-0.8949921000000001,43.54,7.8575,28.595
1670,382473,0.760304,-0.009516001,-0.9030440000000001,34.0375,0.875,22.785
1671,382571,0.596336,0.12468399999999999,-0.869616,19.9325,-5.5125,11.375
1672,382669,0.655628,0.133224,-0.8298440999999999,16.59,-4.1125,6.72
1673,382767,0.630252,0.11712,-0.8357,14.21,-6.9825,4.865
1674,382865,0.544852,0.16128399999999998,-0.834968,9.205,-10.9025,1.295
1675,382963,0.549488,0.14005599999999999,-0.830332,8.6975,-9.7125,0.98
1676,383061,0.564128,0.159088,-0.8337481,6.5275,-7.1225,-0.42
1677,383160,0.565836,0.188368,-0.821304,4.8125,-6.6325,-1.33
1678,383258,0.58072,0.16348,-0.8115439999999999,5.425,-7.1925,0.14
1679,383356,0.581208,0.16226,-0.813984,6.055,-9.9925,0.875
1680,383454,0.5663239999999999,0.17397200000000002,-0.8166680000000001,5.775,-11.9,0.6475
1681,383552,0.55388,0.181292,-0.813496,5.075,-12.8625,0.945
1682,383650,0.553148,0.16835999999999998,-0.8132520999999999,4.8125,-12.4075,1.2425
1683,383748,0.554856,0.19251600000000002,-0.807396,4.375,-12.53,1.995
1684,383846,0.534848,0.200568,-0.8086161000000001,4.1825,-13.055,3.9725
1685,383945,0.5214281,0.202032,-0.8113001,3.5175,-12.67,6.8425
1686,384043,0.5233800000000001,0.194224,-0.8127641,2.975,-11.0425,10.2375
1687,384141,0.54168,0.17812,-0.8103239999999999,2.6425,-9.555,13.0375
1688,384239,0.5343600000000001,0.148108,-0.82594,2.0825,-8.225,13.8075
1689,384337,0.528504,0.11614400000000001,-0.8132520999999999,2.5375,-6.1075,12.215
1690,384435,0.5121560000000001,0.11467999999999999,-0.828868,2.6425,-3.255,8.4525
1691,384533,0.513864,0.133468,-0.822524,2.2225,0.455,5.53
1692,384631,0.547292,0.1403,-0.8091041,1.8025,4.1125,5.3375
1693,384729,0.524112,0.16348,-0.794952,1.05,5.1275,6.685
1694,384827,0.5382640000000001,0.116632,-0.8188641,1.505,5.67,8.33
1695,384926,0.525088,0.168848,-0.8147161,1.155,6.4225,8.715
1696,385024,0.509716,0.155428,-0.8210601000000001,0.2625,8.365,10.885
1697,385122,0.534848,0.1586,-0.8142281,-0.3325,11.48,12.985
1698,385220,0.547292,0.135908,-0.819108,-1.1375,14.28,13.72
1699,385318,0.562908,0.156404,-0.815204,-2.485,17.955,13.4575
1700,385416,0.557296,0.142252,-0.826672,-3.325,25.8825,13.475
1701,385514,0.48653599999999997,0.11321600000000001,-0.8813280000000001,-4.935,32.935,12.2675
1702,385612,0.49166000000000004,0.10760399999999999,-0.89792,-0.735,43.8025,11.095
1703,385711,0.46848,0.121024,-0.9018241,5.32,56.5775,9.975
1704,385809,0.5897479999999999,0.09272000000000001,-0.8888921000000001,5.53,71.96,7.7525
1705,385907,0.5206960999999999,0.09223200000000001,-0.8698601,7.1225,94.72751,4.655
1706,386005,0.5914560000000001,0.1098,-0.88328,8.5575,119.0,0.9275
1707,386103,0.567056,0.12688,-0.8810841,5.4425,144.9875,-0.1225
1708,386201,0.8901120000000001,0.17616800000000002,-0.9059721,-1.6275,168.7175,1.2775
1709,386299,0.7056479999999999,0.23082399999999997,-1.021628,-8.015,198.8525,5.215
1710,386397,0.767624,0.309148,-1.259528,-8.155,255.1325,13.1075
1711,386496,0.815692,0.42065600000000003,-1.15046,-0.7875,333.4625,29.015
1712,386594,0.7673800000000001,0.313052,-1.327116,-2.6775,421.575,60.375
1713,386692,1.226588,0.581696,-1.5664799999999999,-5.1275,509.7575,89.3025
1714,386790,0.662948,0.595116,-2.064484,-7.805,557.2875,129.92
1715,386888,1.4452120000000002,1.0499319999999999,-1.742404,-6.3525,573.23,169.8725
1716,386986,1.897588,0.892552,-1.760948,-22.5925,573.3875,168.7875
1717,387084,2.0923,1.109224,-1.990796,-31.92,570.3075,191.0475
1718,387182,0.9386681,0.05612,-1.7355720000000001,-74.9875,506.7475,200.725
1719,387281,1.83122,0.46896800000000005,-2.605432,-131.1275,383.8975,147.0525
1720,387379,2.107184,-0.018544,-1.86538,0.805,390.1625,71.435
1721,387477,2.393152,-0.9086559999999999,1.047004,-212.3975,39.4275,148.6275
1722,387575,4.565484,0.8488761,-4.978332,-168.91,280.0,248.325
1723,387673,2.391444,2.0525279999999997,-3.6795199999999997,-271.7225,93.1875,164.6575
1724,387771,0.42602399999999996,2.397056,-2.850164,-230.02,-130.3575,93.835
1725,387869,-0.664412,2.1352439999999997,-1.4452120000000002,-141.8025,-213.1675,39.9525
1726,387967,-0.8127641,1.624064,-0.8432639999999999,-39.7075,-185.045,2.6425
1727,388065,-0.537044,1.144116,-0.7327321,10.3775,-147.14,-38.6575
1728,388163,-0.21813600000000002,0.8954801,-0.885476,14.84,-131.81,-89.67
1729,388262,0.013908000000000002,0.800564,-1.07726,-0.2275,-141.715,-138.81
