,T,ax,ay,az,gx,gy,gz
0,546,0.46774799999999994,-0.066856,-0.6439159999999999,19.6175,-19.1275,-16.87
1,696,0.499468,-0.054412,-0.7537159999999999,26.25,-71.3825,-316.12
2,794,0.538752,-0.04514,-0.807396,-12.915,-97.3,-361.8475
3,892,0.5404601,-0.045872,-0.8105680000000001,28.455,-100.59,-83.1425
4,990,0.5392399999999999,-0.047336,-0.8117880000000001,0.9975,-6.8775,-7.42
5,1088,0.539484,-0.04514,-0.8117880000000001,0.665,-5.7575,-6.7725
6,1186,0.540704,-0.045872,-0.8113001,0.63,-5.7925,-6.72
7,1284,0.538996,-0.047336,-0.813984,0.63,-5.8275,-6.79
8,1382,0.5414359999999999,-0.047336,-0.8147161,0.5775,-5.7925,-6.79
9,1480,0.540704,-0.044896,-0.812276,0.5775,-5.8625,-6.7025
10,1578,0.5380199999999999,-0.046848,-0.8115439999999999,0.6475,-5.81,-6.7375
11,1676,0.537288,-0.047580000000000004,-0.81252,0.56,-5.7575,-6.7375
12,1774,0.537044,-0.046360000000000005,-0.8115439999999999,0.595,-5.705,-6.7025
13,1872,0.537532,-0.045627999999999995,-0.8117880000000001,0.525,-5.6525,-6.7725
14,1970,0.5382640000000001,-0.049288,-0.8127641,0.5425,-5.7225,-6.7725
15,2068,0.538996,-0.047336,-0.812276,0.5425,-5.7225,-6.86
16,2166,0.535092,-0.045627999999999995,-0.81374,0.4375,-5.6175,-6.86
17,2265,0.539972,-0.046360000000000005,-0.8113001,0.56,-5.495,-6.895
18,2363,0.538996,-0.047580000000000004,-0.813008,0.4725,-5.425,-6.93
19,2461,0.540704,-0.047824,-0.814472,0.49,-5.4075,-6.8775
20,2559,0.5404601,-0.047092,-0.813496,0.56,-5.39,-6.93
21,2657,0.539972,-0.044652,-0.8095920999999999,0.56,-5.495,-6.9475
22,2755,0.537776,-0.047336,-0.81374,0.5425,-5.4425,-6.8075
23,2853,0.5429,-0.044407999999999996,-0.813008,0.525,-5.32,-6.86
24,2951,0.5382640000000001,-0.046116000000000004,-0.813496,0.5425,-5.3725,-6.825
25,3049,0.540216,-0.046116000000000004,-0.813496,0.49,-5.3375,-6.8425
26,3147,0.5414359999999999,-0.043676,-0.812276,0.56,-5.4075,-6.79
27,3245,0.541924,-0.046116000000000004,-0.8142281,0.665,-5.4775,-6.86
28,3343,0.5429,-0.046604,-0.814472,0.5775,-5.5125,-6.7025
29,3441,0.536068,-0.046604,-0.813984,0.6825,-5.67,-6.8075
30,3539,0.540948,-0.044896,-0.8115439999999999,0.63,-5.46,-6.8075
31,3637,0.541192,-0.046604,-0.8142281,0.5775,-5.425,-6.825
32,3735,0.5404601,-0.045627999999999995,-0.8108121,0.6475,-5.46,-6.825
33,3833,0.541192,-0.045872,-0.813008,0.5425,-5.5125,-6.8075
34,3931,0.540216,-0.045872,-0.81252,0.665,-5.67,-6.6675
35,4029,0.5414359999999999,-0.047580000000000004,-0.8147161,0.6825,-5.7225,-6.6675
36,4127,0.5443640000000001,-0.045627999999999995,-0.809348,0.7,-5.6,-6.65
37,4225,0.539972,-0.045872,-0.8127641,0.735,-5.6875,-6.72
38,4323,0.539484,-0.043676,-0.8149601,0.6825,-5.7225,-6.72
39,4421,0.540216,-0.044896,-0.812032,0.6475,-5.705,-6.7725
40,4519,0.542412,-0.047336,-0.8147161,0.7525,-5.635,-6.755
41,4617,0.541924,-0.044896,-0.81252,0.7525,-5.6,-6.685
42,4716,0.540216,-0.045872,-0.8113001,0.7875,-5.705,-6.72
43,4814,0.539972,-0.046116000000000004,-0.81252,0.805,-5.74,-6.685
44,4912,0.540704,-0.047580000000000004,-0.81374,0.7875,-5.705,-6.72
45,5010,0.541924,-0.04392,-0.812032,0.735,-5.6525,-6.65
46,5108,0.5392399999999999,-0.047336,-0.812276,0.805,-5.74,-6.7025
47,5206,0.5382640000000001,-0.047336,-0.812276,0.7875,-5.6525,-6.7025
48,5304,0.537532,-0.047092,-0.8117880000000001,0.7,-5.635,-6.72
49,5402,0.5392399999999999,-0.046360000000000005,-0.8117880000000001,0.7,-5.6525,-6.685
50,5500,0.541192,-0.046360000000000005,-0.81374,0.7,-5.74,-6.79
51,5598,0.540948,-0.043676,-0.8108121,0.63,-5.7225,-6.895
52,5696,0.540704,-0.045627999999999995,-0.8108121,0.7525,-5.74,-6.79
53,5794,0.5404601,-0.044652,-0.812276,0.6825,-5.6875,-6.7725
54,5892,0.5404601,-0.044652,-0.81252,0.6475,-5.635,-6.7025
55,5990,0.536068,-0.047092,-0.811056,0.6475,-5.6175,-6.6675
56,6088,0.541192,-0.045872,-0.8100801,0.63,-5.5825,-6.7375
57,6186,0.541192,-0.043432,-0.8113001,0.7,-5.5475,-6.8075
58,6284,0.541192,-0.045872,-0.80886,0.7175,-5.635,-6.685
59,6382,0.541192,-0.046116000000000004,-0.8100801,0.63,-5.565,-6.6675
60,6481,0.5414359999999999,-0.046360000000000005,-0.8105680000000001,0.6475,-5.6525,-6.7375
61,6579,0.541924,-0.04514,-0.811056,0.665,-5.635,-6.72
62,6677,0.5392399999999999,-0.044652,-0.8117880000000001,0.6475,-5.6,-6.7375
63,6775,0.539972,-0.04514,-0.812032,0.6825,-5.67,-6.79
64,6873,0.539972,-0.046116000000000004,-0.8132520999999999,0.6475,-5.6,-6.8075
65,6971,0.541192,-0.045872,-0.8108121,0.7175,-5.565,-6.72
66,7069,0.540948,-0.045384,-0.8117880000000001,0.6825,-5.6,-6.72
67,7167,0.541924,-0.043676,-0.8132520999999999,0.6825,-5.5825,-6.79
68,7265,0.541192,-0.04392,-0.811056,0.7525,-5.635,-6.8075
69,7363,0.540216,-0.044407999999999996,-0.8103239999999999,0.7,-5.6,-6.8425
70,7461,0.540948,-0.044896,-0.8100801,0.7,-5.5825,-6.7725
71,7559,0.539484,-0.045627999999999995,-0.8115439999999999,0.7,-5.6875,-6.7725
72,7657,0.5397281,-0.047092,-0.81374,0.7,-5.6,-6.7025
73,7755,0.540704,-0.042944,-0.8108121,0.6125,-5.495,-6.79
74,7853,0.539484,-0.046848,-0.812032,0.735,-5.705,-6.8775
75,7951,0.538996,-0.045627999999999995,-0.8071520000000001,0.7,-5.67,-6.79
76,8049,0.538508,-0.046360000000000005,-0.8100801,0.7875,-5.6525,-6.8075
77,8148,0.537532,-0.047336,-0.811056,0.7,-5.6,-6.7725
78,8246,0.5414359999999999,-0.044407999999999996,-0.8105680000000001,0.6825,-5.565,-6.8075
79,8344,0.540704,-0.044407999999999996,-0.8117880000000001,0.7175,-5.6175,-6.825
80,8442,0.542412,-0.044652,-0.8113001,0.7525,-5.635,-6.755
81,8540,0.539484,-0.042944,-0.811056,0.735,-5.635,-6.7375
82,8638,0.5397281,-0.045872,-0.812032,0.7875,-5.6525,-6.755
83,8736,0.538508,-0.047824,-0.8117880000000001,0.8225,-5.6175,-6.65
84,8834,0.539972,-0.045627999999999995,-0.8117880000000001,0.77,-5.6525,-6.7375
85,8932,0.540948,-0.045384,-0.8100801,0.735,-5.6525,-6.65
86,9030,0.5441199999999999,-0.046116000000000004,-0.8095920999999999,0.7875,-5.6175,-6.685
87,9128,0.542168,-0.04514,-0.8113001,0.805,-5.565,-6.755
88,9226,0.542412,-0.045627999999999995,-0.8086161000000001,0.735,-5.67,-6.8075
89,9324,0.5397281,-0.047336,-0.812032,0.805,-5.7925,-6.7375
90,9422,0.5382640000000001,-0.047580000000000004,-0.8115439999999999,0.805,-5.7575,-6.755
91,9520,0.539972,-0.044896,-0.8117880000000001,0.77,-5.7225,-6.7025
92,9618,0.540216,-0.044164,-0.80886,0.7525,-5.6875,-6.6675
93,9716,0.5414359999999999,-0.045627999999999995,-0.811056,0.7525,-5.6525,-6.6675
94,9814,0.540216,-0.044407999999999996,-0.81252,0.805,-5.5825,-6.65
95,9912,0.5392399999999999,-0.047092,-0.8132520999999999,0.7525,-5.635,-6.6325
96,10011,0.540216,-0.046848,-0.8127641,0.7175,-5.5825,-6.6675
97,10109,0.542656,-0.046848,-0.8091041,0.8225,-5.6875,-6.6675
98,10207,0.5397281,-0.045384,-0.8091041,0.805,-5.635,-6.6325
99,10305,0.540704,-0.044896,-0.809836,0.7875,-5.635,-6.6675
100,10403,0.540704,-0.045384,-0.812032,0.77,-5.74,-6.72
101,10501,0.540948,-0.045384,-0.809836,0.7875,-5.74,-6.685
102,10599,0.54168,-0.045872,-0.8086161000000001,0.8575,-5.635,-6.7375
103,10697,0.5404601,-0.045384,-0.812032,0.7875,-5.635,-6.7375
104,10795,0.541192,-0.044652,-0.8108121,0.7875,-5.67,-6.72
105,10893,0.5404601,-0.044407999999999996,-0.8091041,0.805,-5.6175,-6.72
106,10991,0.5404601,-0.04514,-0.811056,0.8400001,-5.635,-6.72
107,11089,0.542412,-0.044407999999999996,-0.8105680000000001,0.7875,-5.6525,-6.72
108,11187,0.5397281,-0.044896,-0.8113001,0.735,-5.635,-6.685
109,11285,0.540948,-0.04514,-0.809836,0.805,-5.705,-6.7725
110,11383,0.542168,-0.04514,-0.80886,0.77,-5.74,-6.7725
111,11481,0.542168,-0.046360000000000005,-0.8105680000000001,0.7,-5.6875,-6.7725
112,11579,0.54168,-0.04514,-0.8103239999999999,0.7,-5.6525,-6.755
113,11677,0.538996,-0.046848,-0.8115439999999999,0.7525,-5.705,-6.72
114,11775,0.541924,-0.046116000000000004,-0.80886,0.7525,-5.705,-6.7725
115,11873,0.5414359999999999,-0.04514,-0.811056,0.735,-5.7225,-6.7375
116,11971,0.5404601,-0.045627999999999995,-0.8115439999999999,0.7525,-5.6875,-6.79
117,12070,0.538508,-0.044407999999999996,-0.8100801,0.6825,-5.705,-6.7025
118,12168,0.538508,-0.047580000000000004,-0.81252,0.5775,-5.7575,-6.7375
119,12266,0.541192,-0.04514,-0.8117880000000001,0.6475,-5.74,-6.755
120,12364,0.540216,-0.045384,-0.812276,0.595,-5.635,-6.7725
121,12462,0.540948,-0.04514,-0.8108121,0.6475,-5.6875,-6.7025
122,12560,0.537776,-0.04392,-0.809836,0.6475,-5.67,-6.755
123,12658,0.538996,-0.045384,-0.807396,0.7,-5.705,-6.7025
124,12756,0.5404601,-0.04514,-0.8103239999999999,0.63,-5.705,-6.685
125,12854,0.538996,-0.04392,-0.8091041,0.7175,-5.67,-6.79
126,12952,0.541192,-0.04392,-0.8108121,0.7,-5.705,-6.825
127,13050,0.54168,-0.045872,-0.8086161000000001,0.6825,-5.6,-6.72
128,13148,0.542168,-0.046360000000000005,-0.8091041,0.7,-5.635,-6.65
129,13246,0.538508,-0.045384,-0.8108121,0.77,-5.6525,-6.6675
130,13344,0.5392399999999999,-0.046116000000000004,-0.8105680000000001,0.7,-5.5475,-6.7375
131,13442,0.538996,-0.044896,-0.808372,0.6475,-5.53,-6.685
132,13540,0.540704,-0.04392,-0.8105680000000001,0.6125,-5.6525,-6.65
133,13638,0.539972,-0.044652,-0.8091041,0.665,-5.5475,-6.5975
134,13736,0.538508,-0.04392,-0.8091041,0.63,-5.565,-6.685
135,13834,0.539972,-0.044896,-0.809348,0.77,-5.495,-6.5625
136,13932,0.538508,-0.044896,-0.806908,0.77,-5.53,-6.6325
137,14030,0.537532,-0.046604,-0.809348,0.63,-5.495,-6.72
138,14128,0.539484,-0.045627999999999995,-0.8100801,0.56,-5.46,-6.7375
139,14226,0.539484,-0.045627999999999995,-0.80886,0.6125,-5.3725,-6.755
140,14324,0.541192,-0.045627999999999995,-0.8103239999999999,0.63,-5.3725,-6.8775
141,14423,0.5429,-0.046360000000000005,-0.8095920999999999,0.595,-5.285,-6.9125
142,14521,0.543876,-0.045627999999999995,-0.809348,0.525,-5.2675,-6.8775
143,14619,0.538996,-0.046116000000000004,-0.8108121,0.49,-5.355,-6.8425
144,14717,0.5404601,-0.046116000000000004,-0.8091041,0.5075,-5.39,-6.93
145,14815,0.5392399999999999,-0.044164,-0.8081281,0.5425,-5.355,-6.8425
146,14913,0.5368,-0.045627999999999995,-0.808372,0.5775,-5.4075,-6.9475
147,15011,0.537288,-0.046360000000000005,-0.808372,0.525,-5.25,-6.9125
148,15109,0.538508,-0.044652,-0.806908,0.5775,-5.18,-6.895
149,15207,0.5392399999999999,-0.04514,-0.807396,0.595,-5.1625,-6.895
150,15305,0.540704,-0.04514,-0.8108121,0.56,-5.1275,-6.965
151,15403,0.541192,-0.045384,-0.8076399999999999,0.56,-5.04,-6.93
152,15501,0.541192,-0.044652,-0.8103239999999999,0.6475,-5.0575,-6.8775
153,15599,0.5397281,-0.045627999999999995,-0.8081281,0.735,-5.1275,-6.895
154,15697,0.540704,-0.04514,-0.8086161000000001,0.7,-5.2325,-6.8075
155,15795,0.5414359999999999,-0.046116000000000004,-0.8115439999999999,0.595,-5.075,-6.79
156,15893,0.543632,-0.047580000000000004,-0.8095920999999999,0.6475,-5.11,-6.8775
157,15991,0.5404601,-0.046360000000000005,-0.8127641,0.63,-5.1975,-6.86
158,16089,0.543144,-0.04514,-0.8105680000000001,0.63,-5.1625,-6.86
159,16187,0.541924,-0.04514,-0.8086161000000001,0.665,-5.25,-6.79
160,16286,0.5404601,-0.044896,-0.808372,0.6475,-5.32,-6.8075
161,16384,0.537776,-0.045872,-0.805932,0.63,-5.3025,-6.825
162,16482,0.5414359999999999,-0.045384,-0.8100801,0.7,-5.215,-6.965
163,16580,0.5441199999999999,-0.046116000000000004,-0.8081281,0.665,-5.1625,-6.79
164,16678,0.5458281,-0.04514,-0.809348,0.63,-5.04,-6.79
165,16776,0.543388,-0.045384,-0.808372,0.665,-5.1625,-6.825
166,16874,0.5463161,-0.046360000000000005,-0.80886,0.7175,-5.2675,-6.79
167,16972,0.544608,-0.046848,-0.809348,0.7525,-5.3725,-6.7025
168,17070,0.543144,-0.045872,-0.8105680000000001,0.7,-5.39,-6.79
169,17168,0.542656,-0.045384,-0.8115439999999999,0.7175,-5.4075,-6.7725
170,17266,0.54168,-0.044407999999999996,-0.8091041,0.7175,-5.39,-6.7725
171,17364,0.5443640000000001,-0.045872,-0.809836,0.6475,-5.25,-6.755
172,17462,0.545096,-0.046604,-0.809836,0.735,-5.3725,-6.8075
173,17560,0.543876,-0.048068,-0.809836,0.7,-5.46,-6.7375
174,17658,0.542656,-0.047580000000000004,-0.809348,0.6825,-5.495,-6.7025
175,17756,0.538508,-0.044896,-0.8081281,0.6825,-5.5825,-6.8075
176,17854,0.54168,-0.045872,-0.807396,0.6825,-5.4425,-6.755
177,17952,0.542656,-0.046604,-0.8100801,0.6475,-5.5125,-6.7725
178,18050,0.5441199999999999,-0.048068,-0.8105680000000001,0.665,-5.6,-6.7725
179,18148,0.543876,-0.047580000000000004,-0.8095920999999999,0.7,-5.6175,-6.72
180,18246,0.5458281,-0.046604,-0.809348,0.7175,-5.565,-6.7025
181,18345,0.5463161,-0.046604,-0.8086161000000001,0.665,-5.67,-6.755
182,18443,0.542412,-0.046116000000000004,-0.8086161000000001,0.735,-5.67,-6.7725
183,18541,0.54168,-0.046116000000000004,-0.80886,0.6475,-5.67,-6.72
184,18639,0.543144,-0.047824,-0.8091041,0.63,-5.74,-6.755
185,18737,0.5453399999999999,-0.045627999999999995,-0.809348,0.5775,-5.7575,-6.7375
186,18835,0.5455840000000001,-0.045872,-0.8081281,0.6125,-5.74,-6.755
187,18933,0.541924,-0.045872,-0.811056,0.6825,-5.81,-6.685
188,19031,0.543876,-0.044652,-0.8086161000000001,0.735,-5.8975,-6.79
189,19129,0.5441199999999999,-0.046604,-0.808372,0.735,-5.88,-6.7025
190,19227,0.5443640000000001,-0.046604,-0.80886,0.7,-5.8275,-6.6325
191,19325,0.542412,-0.046604,-0.8086161000000001,0.7525,-5.95,-6.685
192,19423,0.539484,-0.042944,-0.8081281,0.6475,-5.95,-6.7375
193,19521,0.543876,-0.045384,-0.808372,0.6475,-5.845,-6.7375
194,19619,0.542412,-0.046604,-0.8081281,0.6825,-5.8975,-6.755
195,19717,0.543388,-0.045384,-0.809348,0.77,-6.0025,-6.7725
196,19815,0.5397281,-0.04514,-0.8071520000000001,0.6825,-6.02,-6.72
197,19913,0.538752,-0.04514,-0.805932,0.665,-6.0025,-6.7725
198,20012,0.5397281,-0.045384,-0.8066641,0.735,-5.9675,-6.7375
199,20110,0.5414359999999999,-0.045627999999999995,-0.8086161000000001,0.7175,-5.9325,-6.7725
200,20208,0.5441199999999999,-0.045872,-0.8086161000000001,0.735,-5.845,-6.7375
201,20306,0.543144,-0.04392,-0.811056,0.77,-5.915,-6.72
202,20404,0.540948,-0.045384,-0.809348,0.805,-5.985,-6.72
203,20502,0.54168,-0.044407999999999996,-0.80886,0.7525,-5.915,-6.6675
204,20600,0.540704,-0.046848,-0.8066641,0.8575,-5.8275,-6.72
205,20698,0.537776,-0.046360000000000005,-0.8054439999999999,0.8225,-5.7575,-6.65
206,20796,0.5380199999999999,-0.045384,-0.8076399999999999,0.77,-5.8275,-6.7375
207,20894,0.5414359999999999,-0.044652,-0.8086161000000001,0.735,-5.7925,-6.7375
208,20992,0.5392399999999999,-0.04514,-0.806176,0.7,-5.67,-6.6325
209,21090,0.540704,-0.046116000000000004,-0.809836,0.6825,-5.6525,-6.6675
210,21188,0.538996,-0.044896,-0.8076399999999999,0.7525,-5.6875,-6.79
211,21286,0.538508,-0.043188,-0.807884,0.7525,-5.7225,-6.8425
212,21384,0.5380199999999999,-0.043676,-0.807884,0.735,-5.6,-6.825
213,21482,0.543388,-0.046116000000000004,-0.808372,0.6825,-5.5125,-6.72
214,21581,0.5392399999999999,-0.045384,-0.805932,0.7,-5.53,-6.7025
215,21679,0.538752,-0.046360000000000005,-0.805688,0.7,-5.4775,-6.825
216,21777,0.543144,-0.047824,-0.80886,0.77,-5.4775,-6.755
217,21875,0.54168,-0.044896,-0.80886,0.6825,-5.425,-6.6325
218,21973,0.541192,-0.045384,-0.8105680000000001,0.6475,-5.5125,-6.685
219,22071,0.543632,-0.045872,-0.8086161000000001,0.6825,-5.5125,-6.7025
220,22169,0.540948,-0.045627999999999995,-0.807396,0.7875,-5.495,-6.7375
221,22267,0.5443640000000001,-0.046360000000000005,-0.8081281,0.665,-5.565,-6.79
222,22365,0.539972,-0.045872,-0.8100801,0.595,-5.5125,-6.8425
223,22463,0.541192,-0.046360000000000005,-0.807884,0.525,-5.4425,-6.8075
224,22561,0.54168,-0.047092,-0.8086161000000001,0.42,-5.46,-6.9475
225,22659,0.540704,-0.046848,-0.807396,0.455,-5.4425,-6.86
226,22757,0.537288,-0.045872,-0.8044680999999999,0.5075,-5.355,-7.0875
227,22855,0.5382640000000001,-0.044164,-0.8095920999999999,0.385,-5.3025,-7.0175
228,22953,0.5404601,-0.044652,-0.806908,0.4025,-5.1275,-7.0175
229,23052,0.54168,-0.045627999999999995,-0.809836,0.2975,-5.0575,-7.0875
230,23150,0.538508,-0.044896,-0.805932,0.315,-5.1625,-7.035
231,23248,0.542656,-0.046848,-0.8091041,0.28,-5.145,-7.07
232,23346,0.542168,-0.045872,-0.8076399999999999,0.1925,-5.04,-7.1225
233,23444,0.5363121,-0.044164,-0.8076399999999999,0.1925,-5.11,-7.21
234,23542,0.540704,-0.046604,-0.8081281,0.1575,-5.0225,-7.1925
235,23640,0.542168,-0.044652,-0.8081281,0.105,-4.9525,-7.21
236,23738,0.54656,-0.046604,-0.8081281,0.035,-4.935,-7.2275
237,23836,0.544608,-0.046848,-0.8095920999999999,0.0525,-5.0925,-7.175
238,23934,0.543632,-0.043676,-0.8086161000000001,0.14,-5.0575,-7.0875
239,24032,0.5443640000000001,-0.043676,-0.80886,0.105,-4.9875,-7.07
240,24130,0.544608,-0.041968,-0.80642,0.2275,-5.005,-6.9475
241,24228,0.546804,-0.04392,-0.8086161000000001,0.2625,-4.9875,-7.035
242,24326,0.5463161,-0.041968,-0.8095920999999999,0.2975,-5.075,-7.0
243,24424,0.54656,-0.043676,-0.805688,0.4725,-5.1975,-6.93
244,24523,0.542656,-0.046116000000000004,-0.809348,0.49,-5.32,-6.755
245,24621,0.5458281,-0.042456,-0.809348,0.595,-5.2675,-6.86
246,24719,0.547292,-0.041968,-0.8076399999999999,0.6475,-5.25,-6.8075
247,24817,0.5458281,-0.040992,-0.80886,0.7,-5.39,-6.615
248,24915,0.5458281,-0.043432,-0.8091041,0.77,-5.425,-6.5975
249,25013,0.545096,-0.044407999999999996,-0.8095920999999999,0.7875,-5.5125,-6.6325
250,25111,0.547292,-0.044652,-0.8052,0.7875,-5.5475,-6.58
251,25209,0.5443640000000001,-0.045872,-0.8081281,0.805,-5.67,-6.58
252,25307,0.5441199999999999,-0.04392,-0.808372,0.7875,-5.74,-6.58
253,25405,0.544852,-0.046116000000000004,-0.8086161000000001,0.77,-5.775,-6.6325
254,25503,0.548024,-0.042212,-0.8081281,0.8400001,-5.7925,-6.58
255,25601,0.5443640000000001,-0.044164,-0.807884,0.91,-5.7925,-6.5625
256,25699,0.5458281,-0.042456,-0.80886,0.945,-5.845,-6.5975
257,25797,0.546072,-0.044407999999999996,-0.8081281,0.945,-5.8275,-6.51
258,25895,0.545096,-0.04514,-0.8049561,0.9975,-5.9325,-6.475
259,25994,0.543144,-0.043432,-0.8066641,0.9275,-6.02,-6.3875
260,26092,0.543388,-0.046116000000000004,-0.8095920999999999,1.015,-6.125,-6.405
261,26190,0.543632,-0.043432,-0.8100801,0.9625,-6.1425,-6.4225
262,26288,0.546072,-0.04514,-0.8071520000000001,0.98,-6.125,-6.475
263,26386,0.544608,-0.045627999999999995,-0.8076399999999999,0.8925,-6.2125,-6.4575
264,26484,0.544608,-0.042944,-0.8095920999999999,1.0325,-6.1775,-6.4225
265,26582,0.544852,-0.044164,-0.808372,1.0675,-6.2125,-6.3
266,26680,0.543876,-0.043432,-0.8095920999999999,1.12,-6.3875,-6.2825
267,26778,0.5397281,-0.04514,-0.8081281,1.05,-6.545,-6.3
268,26876,0.5368,-0.046116000000000004,-0.805688,1.015,-6.4575,-6.3875
269,26974,0.541192,-0.043432,-0.8052,1.015,-6.2825,-6.475
270,27072,0.5397281,-0.048068,-0.8108121,0.8575,-6.1775,-6.615
271,27170,0.545096,-0.04514,-0.807884,0.91,-6.125,-6.5625
272,27268,0.538508,-0.046604,-0.805932,0.77,-6.1075,-6.5975
273,27366,0.542168,-0.043432,-0.806176,0.8575,-6.0725,-6.545
274,27464,0.543876,-0.047092,-0.807884,0.9625,-6.02,-6.4925
275,27562,0.541192,-0.04514,-0.8091041,0.98,-6.1075,-6.44
276,27660,0.540704,-0.045384,-0.8086161000000001,0.9975,-5.985,-6.475
277,27758,0.5414359999999999,-0.046116000000000004,-0.8081281,0.91,-5.88,-6.58
278,27856,0.542412,-0.047580000000000004,-0.8086161000000001,0.875,-5.8625,-6.4925
279,27954,0.539484,-0.046604,-0.809348,0.8575,-5.915,-6.5975
280,28052,0.542412,-0.04514,-0.807884,0.805,-5.9325,-6.615
281,28151,0.541924,-0.04514,-0.8108121,0.8225,-5.74,-6.6325
282,28249,0.5392399999999999,-0.04514,-0.809348,0.77,-5.775,-6.65
283,28347,0.542656,-0.047092,-0.80886,0.77,-5.635,-6.685
284,28445,0.538752,-0.04514,-0.806908,0.805,-5.635,-6.6675
285,28543,0.5414359999999999,-0.045627999999999995,-0.809348,0.7875,-5.6,-6.685
286,28641,0.5414359999999999,-0.044407999999999996,-0.8071520000000001,0.7525,-5.565,-6.65
287,28739,0.542412,-0.04514,-0.807884,0.7875,-5.495,-6.6325
288,28837,0.543876,-0.048556,-0.809348,0.77,-5.4775,-6.685
289,28935,0.543144,-0.045384,-0.811056,0.77,-5.53,-6.615
290,29033,0.544852,-0.046360000000000005,-0.8091041,0.665,-5.635,-6.5625
291,29131,0.543876,-0.047824,-0.80886,0.7175,-5.6175,-6.685
292,29229,0.541924,-0.046848,-0.8095920999999999,0.7525,-5.5825,-6.7025
293,29327,0.543632,-0.048556,-0.807884,0.805,-5.53,-6.72
294,29425,0.540948,-0.046360000000000005,-0.8076399999999999,0.77,-5.6175,-6.7375
295,29523,0.5441199999999999,-0.046848,-0.808372,0.735,-5.6525,-6.72
296,29621,0.546072,-0.045627999999999995,-0.808372,0.7525,-5.5825,-6.7375
297,29719,0.543144,-0.047092,-0.8091041,0.8575,-5.6875,-6.6325
298,29817,0.544608,-0.045384,-0.8081281,0.9275,-5.565,-6.5275
299,29915,0.5414359999999999,-0.04392,-0.80886,0.8925,-5.705,-6.615
300,30014,0.540216,-0.046604,-0.80886,0.8400001,-5.6875,-6.615
301,30112,0.5443640000000001,-0.046360000000000005,-0.8081281,0.8575,-5.635,-6.6675
302,30210,0.545096,-0.047092,-0.8076399999999999,0.875,-5.67,-6.7375
303,30308,0.542656,-0.048312,-0.808372,0.7875,-5.6525,-6.7025
304,30406,0.542656,-0.045872,-0.8076399999999999,0.7875,-5.5825,-6.72
305,30504,0.543632,-0.047580000000000004,-0.8081281,0.77,-5.5475,-6.685
306,30602,0.5455840000000001,-0.04514,-0.8091041,0.8400001,-5.5825,-6.685
307,30700,0.5429,-0.046604,-0.808372,0.77,-5.565,-6.7025
308,30798,0.54168,-0.045627999999999995,-0.8081281,0.8400001,-5.6,-6.7375
309,30896,0.5441199999999999,-0.047824,-0.809348,0.7525,-5.5125,-6.7375
310,30994,0.545096,-0.046604,-0.80886,0.8575,-5.495,-6.6325
311,31092,0.543876,-0.045872,-0.8076399999999999,0.9625,-5.5125,-6.5625
312,31190,0.543144,-0.047092,-0.8076399999999999,0.91,-5.6,-6.5975
313,31288,0.542656,-0.046116000000000004,-0.806908,0.9275,-5.5475,-6.685
314,31386,0.538752,-0.045384,-0.8081281,0.9275,-5.46,-6.615
315,31484,0.540948,-0.046848,-0.8066641,0.8925,-5.215,-6.65
316,31582,0.535824,-0.047824,-0.805932,0.8225,-5.1275,-6.65
317,31680,0.538752,-0.046116000000000004,-0.808372,0.7175,-4.935,-6.685
318,31778,0.5443640000000001,-0.046604,-0.8071520000000001,0.7525,-4.76,-6.7375
319,31876,0.5443640000000001,-0.046848,-0.807396,0.805,-4.725,-6.65
320,31974,0.546072,-0.047580000000000004,-0.807396,0.8400001,-4.76,-6.5275
321,32072,0.542412,-0.047336,-0.808372,0.9975,-4.8475,-6.545
322,32170,0.54168,-0.047580000000000004,-0.8076399999999999,1.05,-4.7775,-6.6325
323,32269,0.544852,-0.045872,-0.807396,1.085,-4.6725,-6.65
324,32367,0.542412,-0.048068,-0.8086161000000001,1.05,-4.7425,-6.6325
325,32465,0.5455840000000001,-0.045872,-0.8049561,1.0325,-4.7075,-6.7025
326,32563,0.544608,-0.046604,-0.8066641,0.8925,-4.865,-6.7375
327,32661,0.5458281,-0.0488,-0.807884,0.805,-4.8825,-6.6675
328,32759,0.543388,-0.046116000000000004,-0.8071520000000001,0.8400001,-4.8825,-6.685
329,32857,0.546804,-0.046604,-0.8071520000000001,1.0325,-4.9525,-6.65
330,32955,0.54656,-0.044896,-0.8054439999999999,0.945,-4.9525,-6.7025
331,33053,0.54778,-0.050263999999999996,-0.805932,0.8925,-5.0225,-6.65
332,33151,0.543144,-0.047092,-0.805932,0.8400001,-5.215,-6.7025
333,33249,0.544852,-0.048556,-0.80886,0.8400001,-5.1625,-6.6675
334,33347,0.5455840000000001,-0.046116000000000004,-0.8044680999999999,0.8400001,-5.11,-6.755
335,33445,0.5453399999999999,-0.049288,-0.80642,0.8575,-5.215,-6.6675
336,33543,0.548756,-0.047092,-0.80886,0.77,-5.285,-6.685
337,33641,0.5441199999999999,-0.047580000000000004,-0.8066641,0.7525,-5.355,-6.685
338,33739,0.540704,-0.046360000000000005,-0.809836,0.7,-5.32,-6.7725
339,33837,0.5458281,-0.05002,-0.806176,0.5775,-5.285,-6.8075
340,33935,0.544852,-0.047824,-0.805688,0.6475,-5.2675,-6.7375
341,34033,0.54778,-0.048312,-0.808372,0.6825,-5.2675,-6.8425
342,34132,0.54778,-0.0488,-0.806176,0.6825,-5.355,-6.79
343,34230,0.549244,-0.046604,-0.807396,0.6825,-5.4425,-6.755
344,34328,0.548024,-0.047092,-0.8052,0.7175,-5.6,-6.8075
345,34426,0.546804,-0.048312,-0.80642,0.595,-5.775,-6.79
346,34524,0.544852,-0.045627999999999995,-0.8054439999999999,0.63,-5.81,-6.685
347,34622,0.5443640000000001,-0.045627999999999995,-0.8044680999999999,0.665,-5.8975,-6.79
348,34720,0.540948,-0.049044,-0.8071520000000001,0.63,-5.95,-6.8775
349,34818,0.544852,-0.047336,-0.806908,0.595,-5.915,-6.755
350,34916,0.5458281,-0.048312,-0.805932,0.6475,-5.775,-6.7725
351,35014,0.543876,-0.048068,-0.8030041,0.6475,-5.8975,-6.7375
352,35112,0.544608,-0.045627999999999995,-0.806908,0.595,-5.845,-6.72
353,35210,0.5455840000000001,-0.047092,-0.8052,0.665,-5.81,-6.72
354,35308,0.5453399999999999,-0.047824,-0.8054439999999999,0.7525,-5.8275,-6.685
355,35406,0.54656,-0.047824,-0.807884,0.7175,-5.88,-6.72
356,35504,0.545096,-0.047336,-0.8049561,0.7175,-5.8275,-6.615
357,35602,0.545096,-0.047580000000000004,-0.8066641,0.7525,-5.845,-6.5975
358,35700,0.5453399999999999,-0.04514,-0.8071520000000001,0.805,-5.8975,-6.615
359,35798,0.5443640000000001,-0.045627999999999995,-0.805932,0.7875,-5.915,-6.7025
360,35896,0.5441199999999999,-0.047336,-0.805688,0.7175,-5.95,-6.7375
361,35994,0.543876,-0.049288,-0.805932,0.63,-5.985,-6.72
362,36092,0.5429,-0.046604,-0.80886,0.665,-5.985,-6.755
363,36190,0.547536,-0.047580000000000004,-0.80642,0.7,-5.7925,-6.755
364,36289,0.544608,-0.045627999999999995,-0.805688,0.7875,-5.81,-6.79
365,36387,0.545096,-0.046360000000000005,-0.805932,0.7525,-5.8275,-6.685
366,36485,0.544852,-0.046848,-0.8066641,0.6825,-5.88,-6.7025
367,36583,0.546804,-0.047336,-0.805932,0.6475,-5.845,-6.8075
368,36681,0.542168,-0.047092,-0.808372,0.56,-5.95,-6.79
369,36779,0.543632,-0.047824,-0.806908,0.5775,-5.95,-6.79
370,36877,0.543876,-0.044407999999999996,-0.80642,0.595,-5.95,-6.8425
371,36975,0.545096,-0.048556,-0.806908,0.5775,-5.95,-6.825
372,37073,0.544852,-0.045627999999999995,-0.8066641,0.6825,-6.125,-6.79
373,37171,0.544608,-0.044652,-0.806908,0.665,-6.0025,-6.7725
374,37269,0.546072,-0.047092,-0.805688,0.7175,-5.985,-6.7025
375,37367,0.5463161,-0.046116000000000004,-0.8076399999999999,0.6825,-6.195,-6.8775
376,37465,0.548268,-0.047580000000000004,-0.8071520000000001,0.63,-6.335,-6.755
377,37563,0.5489999999999999,-0.049288,-0.8076399999999999,0.6475,-6.37,-6.825
378,37661,0.5441199999999999,-0.046848,-0.80642,0.665,-6.405,-6.755
379,37759,0.538752,-0.047092,-0.806908,0.6125,-6.5625,-6.8425
380,37857,0.544608,-0.046360000000000005,-0.8042239999999999,0.56,-6.4225,-6.8425
381,37955,0.54168,-0.047580000000000004,-0.806908,0.56,-6.3525,-6.79
382,38053,0.54168,-0.047336,-0.808372,0.595,-6.3,-6.8775
383,38152,0.543144,-0.049288,-0.80886,0.5775,-6.1425,-6.9475
384,38250,0.5455840000000001,-0.047580000000000004,-0.80642,0.595,-6.125,-6.8075
385,38348,0.543388,-0.046116000000000004,-0.806908,0.63,-6.1075,-6.7725
386,38446,0.5443640000000001,-0.046604,-0.807884,0.595,-6.055,-6.8425
387,38544,0.5429,-0.04514,-0.8066641,0.6475,-6.0725,-6.8075
388,38642,0.541924,-0.046848,-0.809836,0.63,-6.1425,-6.825
389,38740,0.543144,-0.048068,-0.807884,0.6125,-6.055,-6.8075
390,38838,0.542168,-0.047824,-0.80886,0.525,-6.195,-6.8775
391,38936,0.542168,-0.046848,-0.8076399999999999,0.56,-6.16,-6.93
392,39034,0.542168,-0.046848,-0.8066641,0.525,-6.0375,-6.9475
393,39132,0.541192,-0.046848,-0.8086161000000001,0.5075,-5.9675,-6.895
394,39230,0.5404601,-0.045627999999999995,-0.8086161000000001,0.56,-5.95,-6.8775
395,39328,0.541924,-0.047336,-0.8095920999999999,0.6125,-5.8975,-6.93
396,39426,0.540948,-0.047092,-0.8091041,0.595,-5.7225,-6.895
397,39524,0.544608,-0.046360000000000005,-0.807396,0.5775,-5.67,-6.9125
398,39622,0.543876,-0.047824,-0.808372,0.595,-5.7225,-6.8425
399,39720,0.542656,-0.047336,-0.8081281,0.63,-5.6875,-6.895
400,39818,0.543388,-0.046360000000000005,-0.8076399999999999,0.5425,-5.67,-6.9125
401,39917,0.543876,-0.046116000000000004,-0.807884,0.5075,-5.67,-6.825
402,40015,0.540948,-0.046360000000000005,-0.80886,0.56,-5.635,-6.9125
403,40113,0.541192,-0.04392,-0.8066641,0.5425,-5.6,-6.8775
404,40211,0.5429,-0.045627999999999995,-0.80886,0.6125,-5.4425,-6.86
405,40309,0.544852,-0.046848,-0.807884,0.63,-5.425,-6.755
406,40407,0.5441199999999999,-0.047580000000000004,-0.8054439999999999,0.63,-5.46,-6.7725
407,40505,0.538996,-0.046116000000000004,-0.80642,0.7175,-5.6,-6.7025
408,40603,0.542168,-0.047580000000000004,-0.8081281,0.7,-5.53,-6.86
409,40701,0.542412,-0.047092,-0.808372,0.665,-5.565,-6.86
410,40799,0.542412,-0.049288,-0.8081281,0.6125,-5.4425,-6.9125
411,40897,0.5453399999999999,-0.046116000000000004,-0.8081281,0.6125,-5.53,-6.8775
412,40995,0.543144,-0.047580000000000004,-0.807396,0.6475,-5.6,-6.8425
413,41093,0.5441199999999999,-0.046360000000000005,-0.80886,0.7175,-5.5475,-6.8775
414,41191,0.543388,-0.047336,-0.807884,0.7,-5.5825,-6.9125
415,41289,0.543632,-0.045872,-0.80886,0.6825,-5.5125,-6.8775
416,41387,0.5455840000000001,-0.045384,-0.808372,0.665,-5.5125,-6.8425
417,41485,0.543144,-0.046360000000000005,-0.808372,0.6125,-5.565,-6.72
418,41583,0.544608,-0.046604,-0.8081281,0.63,-5.6525,-6.8075
419,41682,0.544608,-0.047092,-0.807884,0.595,-5.6175,-6.825
420,41780,0.5414359999999999,-0.046116000000000004,-0.8100801,0.525,-5.705,-6.86
421,41878,0.5441199999999999,-0.048312,-0.8076399999999999,0.595,-5.67,-6.79
422,41976,0.543876,-0.046360000000000005,-0.8081281,0.6475,-5.635,-6.79
423,42074,0.5441199999999999,-0.046116000000000004,-0.809348,0.6825,-5.7575,-6.7725
424,42172,0.5441199999999999,-0.048556,-0.8081281,0.6475,-5.7575,-6.8775
425,42270,0.543632,-0.047824,-0.8081281,0.6125,-5.8275,-6.9475
426,42368,0.5443640000000001,-0.049288,-0.8047121,0.63,-5.74,-6.8075
427,42466,0.543144,-0.047336,-0.807884,0.49,-5.8625,-6.86
428,42564,0.541924,-0.045627999999999995,-0.80886,0.49,-5.81,-6.9475
429,42662,0.543388,-0.046116000000000004,-0.8076399999999999,0.595,-5.81,-6.86
430,42760,0.5441199999999999,-0.046116000000000004,-0.8086161000000001,0.63,-5.95,-6.79
431,42858,0.542412,-0.046604,-0.8095920999999999,0.665,-5.88,-6.8775
432,42956,0.543144,-0.045872,-0.8076399999999999,0.56,-5.9325,-6.8775
433,43054,0.543632,-0.049044,-0.807884,0.525,-5.9675,-6.825
434,43152,0.54168,-0.04514,-0.808372,0.595,-5.95,-6.8075
435,43250,0.543144,-0.047580000000000004,-0.8081281,0.5775,-5.8975,-6.8425
436,43348,0.542656,-0.045627999999999995,-0.8076399999999999,0.56,-5.9325,-6.8075
437,43446,0.543144,-0.049044,-0.807884,0.6475,-5.8625,-6.7375
438,43545,0.542656,-0.046360000000000005,-0.807396,0.5775,-5.8625,-6.8425
439,43643,0.543632,-0.047824,-0.8076399999999999,0.56,-5.8625,-6.8425
440,43741,0.54168,-0.045627999999999995,-0.8081281,0.525,-5.81,-6.7375
441,43839,0.543876,-0.046848,-0.808372,0.56,-5.8975,-6.7025
442,43937,0.5429,-0.045872,-0.8081281,0.49,-5.8975,-6.7025
443,44035,0.5441199999999999,-0.045872,-0.806908,0.56,-5.95,-6.7725
444,44133,0.544852,-0.045627999999999995,-0.80886,0.49,-5.95,-6.7375
445,44231,0.542656,-0.046604,-0.8095920999999999,0.5075,-5.915,-6.825
446,44329,0.542168,-0.044652,-0.8086161000000001,0.6475,-5.915,-6.8425
447,44427,0.543388,-0.047580000000000004,-0.8086161000000001,0.665,-5.8975,-6.8425
448,44525,0.541924,-0.045627999999999995,-0.8076399999999999,0.595,-5.985,-6.8775
449,44623,0.5443640000000001,-0.045872,-0.809348,0.595,-5.95,-6.895
450,44721,0.542656,-0.045384,-0.8091041,0.6125,-5.9325,-6.86
451,44819,0.546072,-0.045627999999999995,-0.809836,0.63,-6.055,-6.825
452,44917,0.542656,-0.045872,-0.809348,0.5775,-6.0375,-6.79
453,45015,0.543388,-0.046848,-0.8100801,0.6125,-6.1075,-6.8425
454,45113,0.541192,-0.045384,-0.8103239999999999,0.6125,-6.02,-6.7375
455,45211,0.542412,-0.045627999999999995,-0.809348,0.6125,-6.1075,-6.7725
456,45309,0.543144,-0.046360000000000005,-0.8086161000000001,0.7175,-6.16,-6.615
457,45407,0.5429,-0.045384,-0.8108121,0.7525,-6.125,-6.7025
458,45506,0.542412,-0.04514,-0.8091041,0.77,-6.09,-6.6675
459,45604,0.5414359999999999,-0.043676,-0.8086161000000001,0.8400001,-6.1075,-6.685
460,45702,0.5414359999999999,-0.045872,-0.8076399999999999,0.805,-6.1075,-6.7375
461,45800,0.543144,-0.044407999999999996,-0.8108121,0.805,-6.1075,-6.685
462,45898,0.5441199999999999,-0.047092,-0.809836,0.805,-6.1775,-6.685
463,45996,0.542412,-0.046360000000000005,-0.8103239999999999,0.8225,-6.195,-6.6325
464,46094,0.5414359999999999,-0.04514,-0.8108121,0.8575,-6.3525,-6.6675
465,46192,0.540216,-0.044407999999999996,-0.8091041,1.015,-6.475,-6.6675
466,46290,0.542412,-0.046116000000000004,-0.809836,0.945,-6.44,-6.65
467,46388,0.538996,-0.042944,-0.8081281,1.0325,-6.4925,-6.6675
468,46486,0.540216,-0.047092,-0.8076399999999999,0.98,-6.4925,-6.6675
469,46584,0.539972,-0.044407999999999996,-0.8100801,1.0325,-6.405,-6.65
470,46682,0.537776,-0.047824,-0.8095920999999999,1.0325,-6.3525,-6.6325
471,46780,0.537532,-0.045872,-0.8100801,0.945,-6.3175,-6.5975
472,46878,0.5380199999999999,-0.046604,-0.807884,0.875,-6.16,-6.7025
473,46976,0.537532,-0.046604,-0.80886,0.7525,-6.1775,-6.685
474,47074,0.5397281,-0.045872,-0.808372,0.77,-6.16,-6.79
475,47172,0.537776,-0.047824,-0.807396,0.6825,-6.1075,-6.7725
476,47270,0.53314,-0.045872,-0.8115439999999999,0.6125,-6.0025,-6.9825
477,47369,0.5314321,-0.048312,-0.8115439999999999,0.5775,-5.775,-6.9125
478,47467,0.538996,-0.044652,-0.809348,0.385,-5.495,-7.0
479,47565,0.542168,-0.045384,-0.8091041,0.42,-5.3725,-6.86
480,47663,0.542656,-0.046360000000000005,-0.8095920999999999,0.4725,-5.5125,-6.9475
481,47761,0.5392399999999999,-0.043676,-0.8103239999999999,0.5425,-5.5125,-6.93
482,47859,0.539484,-0.04392,-0.8086161000000001,0.5425,-5.4425,-6.86
483,47957,0.5382640000000001,-0.045872,-0.8103239999999999,0.63,-5.5825,-6.895
484,48055,0.538508,-0.044407999999999996,-0.809348,0.5775,-5.6,-6.825
485,48153,0.535824,-0.047824,-0.809348,0.665,-5.5475,-6.9125
486,48251,0.533628,-0.045384,-0.8095920999999999,0.5425,-5.5125,-6.9125
487,48349,0.538996,-0.045627999999999995,-0.80886,0.4025,-5.25,-6.9475
488,48447,0.541924,-0.045627999999999995,-0.8091041,0.49,-5.145,-6.965
489,48545,0.5429,-0.045384,-0.8095920999999999,0.6125,-5.145,-6.93
490,48643,0.542412,-0.045627999999999995,-0.8086161000000001,0.595,-5.285,-6.9475
491,48741,0.537288,-0.043676,-0.809836,0.5425,-5.3025,-6.825
492,48840,0.5397281,-0.04392,-0.8086161000000001,0.5425,-5.285,-6.8425
493,48938,0.543876,-0.045872,-0.80886,0.5425,-5.25,-6.895
494,49036,0.539484,-0.045627999999999995,-0.8054439999999999,0.5425,-5.39,-6.93
495,49134,0.540216,-0.045384,-0.8071520000000001,0.56,-5.4425,-6.965
496,49232,0.5392399999999999,-0.042944,-0.80886,0.5425,-5.4775,-6.93
497,49330,0.541192,-0.044164,-0.809348,0.6125,-5.46,-6.9125
498,49428,0.5382640000000001,-0.04514,-0.8091041,0.6825,-5.5475,-6.895
499,49526,0.5355800999999999,-0.045384,-0.80886,0.665,-5.5475,-6.8425
500,49624,0.540704,-0.043188,-0.807396,0.665,-5.3725,-6.79
501,49722,0.542656,-0.045384,-0.809348,0.665,-5.39,-6.8075
502,49820,0.5397281,-0.042456,-0.8100801,0.6475,-5.4075,-6.7725
503,49918,0.543632,-0.043676,-0.809836,0.665,-5.4775,-6.8075
504,50016,0.542412,-0.046360000000000005,-0.808372,0.6825,-5.495,-6.72
505,50114,0.5380199999999999,-0.047580000000000004,-0.8103239999999999,0.735,-5.5125,-6.7725
506,50212,0.538752,-0.04514,-0.8095920999999999,0.77,-5.39,-6.7725
507,50310,0.54168,-0.044164,-0.8076399999999999,0.7875,-5.1975,-6.685
508,50408,0.5307,-0.045872,-0.8091041,0.805,-5.2325,-6.7375
509,50506,0.5380199999999999,-0.044896,-0.807884,0.7,-4.9875,-6.825
510,50604,0.540948,-0.044652,-0.806176,0.595,-4.8125,-6.965
511,50703,0.543388,-0.043676,-0.8095920999999999,0.6475,-4.76,-6.86
512,50801,0.5458281,-0.044164,-0.8100801,0.6475,-4.655,-6.72
513,50899,0.544608,-0.044652,-0.809836,0.6475,-4.8825,-6.6325
514,50997,0.539484,-0.04514,-0.8081281,0.63,-4.97,-6.7375
515,51095,0.54168,-0.045872,-0.806908,0.7,-5.04,-6.9125
516,51193,0.5404601,-0.048068,-0.807884,0.7175,-5.005,-6.86
517,51291,0.540948,-0.04514,-0.8091041,0.6475,-5.005,-6.9125
518,51389,0.5453399999999999,-0.045627999999999995,-0.8095920999999999,0.6125,-4.8825,-6.93
519,51487,0.543144,-0.047336,-0.8095920999999999,0.6825,-5.075,-6.9475
520,51585,0.5453399999999999,-0.044164,-0.8091041,0.6125,-5.11,-6.895
521,51683,0.543388,-0.042944,-0.8091041,0.63,-5.1275,-6.8075
522,51781,0.542656,-0.045384,-0.807396,0.77,-5.18,-6.6675
523,51879,0.544852,-0.044164,-0.807396,0.7525,-5.3025,-6.8075
524,51977,0.543144,-0.047824,-0.8086161000000001,0.7,-5.2675,-6.7725
525,52075,0.5429,-0.046116000000000004,-0.809348,0.6825,-5.39,-6.86
526,52173,0.5429,-0.043432,-0.807884,0.63,-5.3375,-6.8775
527,52271,0.543388,-0.043676,-0.807884,0.63,-5.46,-6.8075
528,52369,0.538752,-0.044407999999999996,-0.8076399999999999,0.595,-5.565,-6.86
529,52467,0.544852,-0.046116000000000004,-0.808372,0.5425,-5.53,-6.86
530,52566,0.5441199999999999,-0.045872,-0.807396,0.63,-5.495,-6.9125
531,52664,0.5443640000000001,-0.046360000000000005,-0.8076399999999999,0.63,-5.495,-6.8425
532,52762,0.545096,-0.044407999999999996,-0.8086161000000001,0.6125,-5.4775,-6.7725
533,52860,0.545096,-0.046604,-0.809348,0.665,-5.425,-6.8075
534,52958,0.542656,-0.04392,-0.80642,0.6125,-5.5125,-6.86
535,53056,0.5443640000000001,-0.043432,-0.808372,0.5775,-5.5825,-6.755
536,53154,0.543388,-0.044164,-0.8095920999999999,0.5425,-5.6875,-6.8425
537,53252,0.5429,-0.044896,-0.807884,0.63,-5.7575,-6.79
538,53350,0.54168,-0.045872,-0.806908,0.6125,-5.705,-6.825
539,53448,0.544608,-0.04392,-0.8100801,0.63,-5.775,-6.7025
540,53546,0.539972,-0.045872,-0.806176,0.6125,-5.7575,-6.7375
541,53644,0.544852,-0.04514,-0.807396,0.6475,-5.81,-6.72
542,53742,0.543388,-0.044164,-0.806908,0.7,-6.0025,-6.8075
543,53840,0.543144,-0.044896,-0.811056,0.63,-5.915,-6.755
544,53938,0.5443640000000001,-0.044896,-0.8081281,0.56,-5.9675,-6.755
545,54036,0.543876,-0.046848,-0.80886,0.5775,-6.1075,-6.79
546,54135,0.544852,-0.042944,-0.8091041,0.595,-6.0725,-6.7025
547,54233,0.5463161,-0.043432,-0.809348,0.63,-6.16,-6.755
548,54331,0.544608,-0.045384,-0.8086161000000001,0.7875,-6.2125,-6.7025
549,54429,0.544608,-0.041724000000000004,-0.807396,0.77,-6.335,-6.72
550,54527,0.5504641,-0.04392,-0.81862,1.015,-6.23,-6.58
551,54625,0.547536,-0.045872,-0.815448,1.8025,-5.985,-6.545
552,54723,0.5565640000000001,-0.036112,-0.820816,2.59,-5.7575,-6.545
553,54821,0.5499761,-0.043432,-0.8149601,3.9725,-5.6175,-6.2825
554,54919,0.549732,-0.034892,-0.81862,5.0925,-6.0375,-5.915
555,55017,0.547292,-0.039284,-0.806176,5.845,-6.5625,-5.32
556,55115,0.541924,-0.04392,-0.8052,6.195,-7.0875,-4.8475
557,55213,0.541192,-0.05368,-0.8071520000000001,6.1425,-7.455,-4.48
558,55311,0.545096,-0.0549,-0.8127641,6.055,-7.5775,-4.4275
559,55409,0.5429,-0.053436000000000004,-0.8117880000000001,6.055,-7.805,-4.4975
560,55507,0.5404601,-0.05856,-0.815204,6.1775,-7.8225,-4.41
561,55605,0.541924,-0.055388,-0.812032,6.2825,-7.945,-4.3575
562,55703,0.5363121,-0.053924,-0.802272,6.055,-7.315,-4.2
563,55801,0.542656,-0.058803999999999995,-0.805932,5.2675,-6.72,-4.2875
564,55899,0.5397281,-0.06466001,-0.8039801,4.865,-6.9125,-4.48
565,55997,0.531676,-0.061732,-0.7998321,4.3925,-7.2625,-4.865
566,56095,0.537044,-0.06344,-0.806908,3.8675,-7.4025,-5.145
567,56194,0.532408,-0.057096,-0.8030041,3.57,-7.5775,-5.425
568,56292,0.5307,-0.06124401,-0.799588,3.255,-7.6125,-5.5825
569,56390,0.522892,-0.06588,-0.799588,2.73,-7.4025,-5.915
570,56488,0.503128,-0.067832,-0.8003201,2.0125,-7.2625,-6.3
571,56586,0.522892,-0.061,-0.796416,1.015,-6.2825,-6.7375
572,56684,0.526552,-0.06661201,-0.796416,0.21,-5.74,-7.1225
573,56782,0.527772,-0.068076,-0.7956840999999999,-0.665,-5.5125,-7.595
574,56880,0.528504,-0.065148,-0.801784,-1.5225,-5.32,-8.19
575,56978,0.530456,-0.061,-0.8010520000000001,-2.1,-5.1975,-8.5225
576,57076,0.529724,-0.05977999999999999,-0.8010520000000001,-2.59,-5.1275,-8.9075
577,57174,0.529968,-0.06075601,-0.801784,-3.1675,-5.0575,-9.2925
578,57272,0.5355800999999999,-0.057584,-0.801296,-3.6925,-4.97,-9.6425
579,57370,0.532896,-0.057828,-0.8020281,-4.0425,-5.18,-9.8175
580,57468,0.528504,-0.054167999999999994,-0.8039801,-4.6025,-5.145,-9.8525
581,57566,0.5414359999999999,-0.047336,-0.81984,-5.215,-4.515,-9.9225
582,57664,0.549488,-0.040748,-0.8210601000000001,-5.1625,-4.165,-9.765
583,57762,0.548512,-0.045627999999999995,-0.821304,-4.5675,-4.165,-9.2925
584,57860,0.553392,-0.047336,-0.8256960999999999,-3.9025,-4.2875,-8.925
585,57958,0.5499761,-0.046604,-0.8169121,-2.695,-4.6375,-8.5925
586,58056,0.547048,-0.045384,-0.815448,-1.96,-4.9,-8.61
587,58154,0.549732,-0.047580000000000004,-0.815692,-1.4175,-4.935,-8.435
588,58252,0.544608,-0.048312,-0.813008,-0.945,-5.11,-8.435
589,58351,0.537044,-0.043432,-0.8047121,-0.35,-5.1625,-8.365
590,58449,0.518744,-0.05246,-0.8044680999999999,-0.42,-5.32,-8.4875
591,58547,0.52582,-0.04392,-0.8052,-0.8925,-4.795,-8.6625
592,58645,0.5314321,-0.045627999999999995,-0.7983680000000001,-1.0325,-4.1825,-8.82
593,58743,0.5221600000000001,-0.044164,-0.80642,-1.2425,-3.9375,-9.0125
594,58841,0.5231359999999999,-0.04148,-0.8091041,-1.3125,-3.1675,-9.2925
595,58939,0.52582,-0.032451999999999995,-0.8052,-0.9975,-2.205,-9.3975
596,59037,0.515084,-0.05002,-0.813984,-0.3325,-1.4,-9.5025
597,59135,0.5119121,-0.044896,-0.8261841000000001,0.245,0.105,-9.9925
598,59233,0.5077640999999999,-0.05124001,-0.8430200999999999,1.7325,2.7825,-10.4125
599,59331,0.48995200000000005,-0.033672,-0.8447280999999999,4.375,7.455,-10.7275
600,59429,0.466772,-0.038308,-0.856684,7.0,12.9675,-11.235
601,59527,0.353556,-0.052216,-0.904508,10.01,21.0525,-13.5625
602,59625,0.268888,-0.09028,-0.9779521000000001,12.425,35.1925,-19.88
603,59723,0.34257600000000005,0.107848,-1.074088,14.9975,57.9775,-25.48
604,59821,0.4392,-0.020252000000000003,-0.9708760000000001,28.28,83.2125,-28.945
605,59919,0.54168,0.131028,-0.953308,38.4825,105.0,-30.7825
606,60017,0.654896,-0.362584,-0.981612,51.24,124.1275,-34.16
607,60115,0.6107319999999999,-0.510936,-1.0492,38.2025,131.7925,-43.12
608,60213,0.7510321,-0.643428,-1.1155680000000001,10.43,132.44,-50.4
609,60311,0.5084960000000001,-0.46433199999999997,-1.220244,-22.05,125.2825,-48.3525
610,60410,0.757864,0.016347999999999998,-1.968592,-45.3425,105.3325,-45.2025
611,60508,0.23082399999999997,-0.34648,-1.765828,-21.7875,65.36251,-33.215
612,60606,-0.18422,-0.5070319999999999,-1.522316,-5.6875,32.795,-18.7075
613,60704,-0.394548,-0.484584,-1.397632,-9.2925,15.2075,-9.94
614,60802,-0.378932,-0.394304,-1.444968,-10.675,4.2175,0.5775
615,60900,-0.359412,-0.396988,-1.471076,-4.69,-12.005,14.105
616,60998,-0.39405999999999997,-0.400892,-1.416176,-1.7325,-32.655,27.195
617,61096,-0.44847200000000004,-0.319884,-1.298324,-6.2125,-51.345,37.7125
618,61194,-0.466528,-0.239608,-1.206824,-10.535,-63.56,47.3725
619,61292,-0.392352,-0.194956,-1.210972,-12.04,-69.52750999999999,56.035
620,61390,-0.23228800000000002,-0.16348,-1.293688,-13.9125,-74.2,63.2625
621,61488,-0.0366,-0.131028,-1.396656,-17.99,-82.18,68.8625
622,61586,0.13176,-0.094672,-1.480348,-24.1675,-96.04,72.4325
623,61684,0.241804,-0.055144000000000006,-1.5020639999999998,-31.2025,-114.03,73.605
624,61782,0.298168,-0.0122,-1.480592,-37.59,-132.51,72.59
625,61880,0.31842,0.012688,-1.422032,-42.3325,-148.015,69.6325
626,61979,0.3538,0.031232,-1.361764,-45.255,-158.935,64.47
627,62077,0.42065600000000003,0.07002799999999999,-1.331508,-45.955,-165.5675,58.17
628,62175,0.49898000000000003,0.092964,-1.313452,-43.155,-169.9425,50.5575
629,62273,0.5602239999999999,0.08662001,-1.278804,-38.2375,-173.495,40.8275
630,62371,0.59292,0.08784,-1.2282959999999998,-33.0925,-175.455,28.91
631,62469,0.61122,0.09320801,-1.161928,-26.705,-174.51,16.765
632,62567,0.64172,0.098088,-1.091656,-18.4625,-170.94,5.25
633,62665,0.679784,0.09320801,-1.032852,-8.855,-165.2525,-5.215
634,62763,0.735416,0.0732,-0.984784,1.05,-158.55,-15.085
635,62861,0.780068,0.040016,-0.92232,9.7475,-152.32,-23.6075
636,62959,0.787632,-0.0034159999999999998,-0.849852,15.7675,-147.07,-30.2575
637,63057,0.7759199999999999,-0.040016,-0.775188,19.6175,-141.4,-35.2275
638,63155,0.792024,-0.06832001,-0.715164,22.12,-135.03,-38.185
639,63253,0.8003201,-0.07710399999999999,-0.66856,23.73,-129.4125,-39.41
640,63351,0.7856801,-0.094672,-0.5975560000000001,25.34,-124.3375,-39.6025
641,63449,0.756644,-0.112728,-0.514596,25.41,-118.965,-39.3575
642,63547,0.7315119999999999,-0.118828,-0.445788,24.3075,-112.315,-39.41
643,63645,0.7117479999999999,-0.116876,-0.384788,23.4675,-104.335,-38.3075
644,63743,0.6832,-0.11712,-0.320616,23.94,-94.88501,-35.525
645,63841,0.66978,-0.131272,-0.27523200000000003,24.535,-84.2275,-31.675
646,63939,0.6729520999999999,-0.138836,-0.256932,23.8175,-72.8175,-27.4225
647,64038,0.6844201,-0.125172,-0.25132,21.805,-61.6525,-23.03
648,64136,0.702232,-0.107116,-0.264252,19.18,-50.995,-18.515
649,64234,0.7539600000000001,-0.09320801,-0.285968,16.835,-41.3875,-14.035
650,64332,0.796172,-0.081252,-0.276452,14.49,-34.3,-10.57
651,64430,0.783972,-0.05124001,-0.211792,12.2675,-28.84,-8.225
652,64528,0.7820199999999999,-0.036844,-0.122976,11.62,-20.72,-6.7725
653,64626,0.829356,-0.054655999999999996,-0.053191999999999996,12.6,-8.05,-6.51
654,64724,0.948184,-0.08564401,-0.014152000000000001,13.615,7.63,-7.385
655,64822,1.080188,-0.12444000000000001,0.01098,14.5075,22.6975,-7.98
656,64920,1.2017,-0.19861600000000001,0.049532,14.875,36.365,-7.21
657,65018,1.285636,-0.284992,0.10321199999999998,12.705,49.665,-5.6525
658,65116,1.3534680000000001,-0.33623200000000003,0.12444000000000001,7.7,64.27750999999999,-2.975
659,65214,-1.6333360000000001,-1.385432,-1.2256120000000001,-7.1225,77.8925,6.8425
660,65313,-1.611376,-1.318088,-1.939068,-132.37,115.85,5.32
661,65411,-0.18446400000000002,0.3904,0.734928,-146.5625,201.2675,-19.6525
662,65509,1.237568,0.4209,-1.291492,-108.43,258.685,20.615
663,65607,1.577216,0.401868,-1.979328,-58.6075,230.3,56.035
664,65705,1.0687200000000001,1.6226,-1.028948,-76.16001,191.1875,52.8675
665,65803,1.300032,1.909544,-1.535492,-26.53,182.4725,36.0675
666,65901,1.853912,1.1155680000000001,-1.6845759999999999,14.3675,165.4625,-3.85
667,65999,1.361764,-0.208132,-1.51158,48.9825,116.7425,-15.9425
668,66097,1.083116,-0.63318,-1.2695319999999999,50.26,88.46251,-4.2175
669,66195,0.691496,-0.23009200000000002,-1.006988,32.8475,71.26,8.4175
670,66293,0.342088,-0.07027201,-0.8020281,24.395,60.9,7.4375
671,66391,0.280356,-0.262788,-0.73444,24.5175,61.8275,1.505
672,66489,0.4453,-0.307196,-0.788852,20.055,67.41001,-0.98
673,66587,0.6566041,-0.252296,-0.8940161,11.9175,69.8425,-2.73
674,66685,0.7793359999999999,-0.17836400000000002,-0.9535521,3.08,64.5925,-6.335
675,66783,0.780068,-0.105896,-0.968924,-3.92,54.985,-8.82
676,66881,0.706624,0.027083999999999997,-0.955016,-7.2625,44.3625,-10.0625
677,66979,0.640256,0.063196,-0.9311040999999999,-5.6525,36.505,-10.2725
678,67077,0.636596,-0.059048,-0.9142680000000001,-1.5225,31.0625,-10.535
679,67175,0.8322841000000001,-0.21276799999999998,-0.9699,-3.675,25.69,-9.975
680,67274,0.7034521,-0.061488,-0.8752280000000001,-12.7225,14.3675,-9.87
681,67372,0.5785241,0.037576,-0.8786440999999999,-11.2,6.0025,-9.8525
682,67470,0.5934081,-0.04392,-0.8569280999999999,-7.14,3.78,-10.535
683,67568,0.55998,-0.034892,-0.831308,-5.88,0.98,-10.5
684,67666,0.5231359999999999,-0.040260000000000004,-0.826672,-4.9875,-0.9975,-10.255
685,67764,0.5397281,-0.066124,-0.8193521,-4.445,-1.4175,-10.2375
686,67862,0.5429,-0.044407999999999996,-0.8254520000000001,-4.865,-1.855,-10.29
687,67960,0.5321640000000001,-0.044164,-0.822524,-4.6375,-2.625,-10.29
688,68058,0.533384,-0.049288,-0.8195960999999999,-4.3225,-2.975,-10.255
689,68156,0.5246,-0.056852,-0.8188641,-3.955,-3.4825,-10.0625
690,68254,0.518988,-0.07076001,-0.8215481,-3.71,-3.7625,-10.2375
691,68352,0.529724,-0.061975999999999996,-0.8117880000000001,-3.99,-3.815,-10.6225
692,68450,0.527284,-0.058803999999999995,-0.8086161000000001,-4.13,-4.2,-11.27
693,68548,0.527772,-0.054412,-0.8076399999999999,-4.6725,-4.76,-11.865
694,68646,0.521672,-0.037332,-0.820084,-5.25,-4.83,-12.1275
695,68744,0.535824,-0.023180000000000003,-0.8178880999999999,-5.145,-4.48,-11.795
696,68842,0.522404,-0.014152000000000001,-0.817156,-4.2875,-4.13,-10.885
697,68940,0.510204,-0.02562,-0.8195960999999999,-3.255,-3.3425,-9.52
698,69038,0.522404,-0.0366,-0.814472,-2.8,-1.75,-8.33
699,69137,0.5063,-0.034404000000000004,-0.803248,-3.01,-0.9625,-7.7175
700,69235,0.496296,-0.04148,-0.8025161,-3.36,0.21,-7.35
701,69333,0.518744,-0.01586,-0.808372,-4.4975,1.3475,-7.7175
702,69431,0.53192,-0.023912,-0.8108121,-4.48,1.89,-7.8575
703,69529,0.514108,-0.029768,-0.817156,-3.885,2.1,-7.6475
704,69627,0.5099600000000001,-0.01952,-0.823256,-3.1675,3.08,-7.1225
705,69725,0.516792,-0.027816000000000004,-0.8298440999999999,-1.89,4.7425,-6.1075
706,69823,0.5321640000000001,-0.02074,-0.8235001000000001,-0.0875,6.6675,-4.8125
707,69921,0.5104479999999999,-0.042456,-0.813496,1.575,9.2225,-3.3425
708,70019,0.485804,-0.062220000000000004,-0.8164239999999999,2.8875,12.6,-2.3975
709,70117,0.462136,-0.08174001,-0.826428,2.9925,16.8525,-2.6775
710,70215,0.4553041,-0.165676,-0.774212,2.5725,22.19,-3.78
711,70313,0.48092399999999996,-0.07832401,-0.815204,-0.21,29.05,-3.9725
712,70411,0.579256,0.125904,-0.8520479999999999,2.24,34.5975,-5.4775
713,70509,0.492148,0.027083999999999997,-0.918416,13.2825,40.145,-3.535
714,70607,0.48678,0.05368,-0.880352,21.63,53.865,-1.295
715,70705,0.43554,0.03416,-0.9381801,21.0,65.835,2.485
716,70803,0.5023960999999999,0.002928,-0.8571719999999999,21.6825,85.69751,6.825
717,70902,0.57096,-0.034404000000000004,-0.8422879999999999,18.4625,106.47,9.415
718,71000,0.45506,-0.0017079999999999999,-0.9006040999999999,17.9375,129.92,12.915
719,71098,0.569984,-0.024644,-0.906948,20.895,158.935,14.175
720,71196,1.1890120000000002,-0.284504,-0.9230520000000001,23.765,188.5275,14.0
721,71294,0.680028,0.019275999999999998,-1.070184,18.095,215.4075,7.105
722,71392,0.7288279999999999,-0.079056,-1.132892,30.3275,269.7625,10.43
723,71490,0.6380600000000001,-0.054167999999999994,-1.162416,40.705,334.32,11.0075
724,71588,0.561932,-0.193248,-1.3827479999999999,56.1575,415.3275,6.3
725,71686,0.69906,-0.213988,-1.474492,61.67,508.305,-5.18
726,71784,0.904752,0.053191999999999996,-2.234064,70.9975,568.645,-23.695
727,71882,1.170712,-0.194712,-1.7326439999999999,91.7875,573.405,-22.8725
728,71980,2.472696,-1.310524,-2.51198,115.3775,573.405,-8.015
729,72078,1.90442,0.22082,-2.097424,78.0325,565.25,4.27
730,72176,1.3205280000000001,0.23155599999999998,-2.46318,69.37,467.425,5.4425
731,72274,1.7982799999999999,0.164944,-2.193072,76.8425,359.6775,41.23
732,72372,1.7158080000000002,-0.570472,-2.1899,105.6475,323.8025,54.145
733,72470,1.8480560000000001,0.667096,0.18470799999999998,20.9125,251.475,-44.625
734,72568,3.6861080000000004,0.200324,-5.530748,85.69751,415.765,-54.8975
735,72666,2.401936,-0.6007279999999999,-4.60306,118.6675,110.88,-61.1975
736,72765,0.19983599999999999,-0.836676,-2.652524,87.2375,-110.5825,-66.395
737,72863,-0.7617681,-0.474092,-1.700192,19.2325,-183.5225,-69.58
738,72961,-0.727608,-0.130296,-1.351516,-19.39,-172.06,-61.355
739,73059,-0.320372,0.000244,-1.400316,-10.885,-156.0125,-40.6175
740,73157,-0.00366,-0.06124401,-1.466928,18.795,-167.3,-18.2525
741,73255,0.187392,-0.170068,-1.4574120000000002,39.4975,-202.51,-2.9575
742,73353,0.2562,-0.23424,-1.360544,41.1425,-245.4375,5.8275
743,73451,0.299632,-0.22789600000000002,-1.209508,29.2075,-283.045,11.69
744,73549,0.36648800000000004,-0.160796,-1.097512,11.8475,-311.57,16.6775
745,73647,0.49556400000000006,-0.052703999999999994,-1.0121120000000001,-3.43,-332.57,21.525
746,73745,0.625372,0.030256,-0.954284,-11.865,-350.595,25.55
747,73843,0.74664,0.067588,-0.893284,-15.225,-366.4675,27.72
748,73941,0.8513161,0.08881599,-0.85888,-17.885,-379.715,26.6875
749,74039,0.954284,0.096624,-0.8613200000000001,-22.75,-389.2,22.715
750,74137,1.054324,0.14152,-0.8725440999999999,-29.295,-396.0075,16.6775
751,74235,1.18218,0.20447200000000001,-0.9318360000000001,-34.4575,-401.4675,9.7475
752,74333,1.299056,0.280844,-0.9964959999999999,-36.9775,-407.1725,2.5025
753,74431,1.402024,0.35282399999999997,-1.074576,-35.3325,-412.335,-5.8975
754,74529,1.535004,0.39967199999999997,-1.1773,-30.065,-416.0275,-16.1525
755,74627,1.6989720000000001,0.364048,-1.280756,-21.875,-419.5625,-27.9475
756,74726,1.874408,0.22277199999999997,-1.388116,-14.8225,-424.7075,-39.1475
757,74824,2.100108,0.041724000000000004,-1.574288,-16.0125,-431.2875,-45.885
758,74922,2.375828,-0.15006,-1.8226799999999999,-25.2525,-439.46,-45.4475
759,75020,2.785016,-0.30475599999999997,-2.044964,-39.41,-449.6975,-39.165
760,75118,3.291804,-0.2318,-2.082784,-54.495,-461.3525,-27.9125
761,75216,3.547028,-0.254736,-1.9136919999999997,-59.185,-472.4825,-12.2675
762,75314,3.015596,-0.343552,-1.090436,-53.5325,-457.4675,-6.755
763,75412,4.186552,-0.574864,0.500444,-49.2975,-414.8375,-25.865
764,75510,4.322704,-0.5104479999999999,0.59292,-30.45,-422.2225,-34.335
765,75608,3.49652,-0.5941401,2.1533,11.5675,-384.2825,-28.595
766,75706,3.043656,-0.17128800000000002,3.2305599999999997,56.3325,-291.305,-5.635
767,75804,3.3130319999999998,-0.41553199999999996,3.627792,85.78501,-181.9125,29.6275
768,75902,3.515308,-0.662948,3.349632,59.955,-75.7225,42.07
769,76000,3.232268,-0.409188,3.2042080000000004,-10.7975,12.215,28.1575
770,76098,1.9605400000000002,-1.192672,5.365804,-51.1525,183.5225,18.6375
771,76196,-1.16632,-0.12566,-1.315892,-91.5425,358.225,-19.3725
772,76294,3.4157559999999996,1.18706,-2.6959560000000002,-58.1875,495.495,-4.5675
773,76392,3.213968,0.334524,-0.10492,-9.6775,436.0825,99.785
774,76490,1.9000279999999998,2.817224,-2.225768,21.735,357.5075,98.07
775,76588,4.045764,1.9483400000000002,-2.527596,50.9775,365.435,24.395
776,76686,3.004372,-0.7015,-2.085712,105.6125,247.835,-26.075
777,76784,1.690432,-1.99226,-1.3851879999999999,99.995,158.9875,-20.265
778,76882,0.33184,-0.368196,-0.644892,19.6175,134.995,2.275
779,76980,1.730204,-0.8371639999999999,-2.412916,-2.975,135.3975,13.895
780,77079,1.2963719999999999,-0.643428,0.334524,-53.165,86.5725,-22.19
781,77177,0.650016,0.8103239999999999,-1.075064,-51.205,25.515,-35.4725
782,77275,0.9799041,-0.306464,-0.9206120000000001,-19.985,21.105,-31.955
783,77373,0.783972,0.077348,-0.983564,-14.91,14.9975,-24.815
784,77471,0.7134560999999999,0.163724,-0.9198799999999999,-22.61,6.3,-23.485
785,77569,0.5514399999999999,-0.08662001,-0.806908,-12.1625,2.0125,-17.0625
786,77667,0.527528,-0.061,-0.8342360000000001,-16.905,1.3125,-16.8175
787,77765,0.563396,0.080764,-0.8727879999999999,-18.8825,2.5375,-17.15
788,77863,0.520208,-0.024888,-0.8510719999999999,-13.1775,2.3625,-14.49
789,77961,0.5941401,0.010736,-0.8296,-12.145,3.6225,-13.1075
790,78059,0.557052,0.039772,-0.8540000000000001,-10.78,2.975,-11.97
791,78157,0.502884,-0.006344,-0.8317960999999999,-7.385,0.14,-11.235
792,78255,0.521672,-0.012931999999999999,-0.8235001000000001,-5.4425,-1.2425,-10.9375
793,78353,0.5814520000000001,0.0034159999999999998,-0.8239880999999999,-5.1975,-2.0125,-11.2525
794,78451,0.5604680000000001,-0.022448,-0.832528,-3.1675,-3.3075,-10.465
795,78549,0.508252,-0.016347999999999998,-0.8376520000000001,-1.9075,-4.725,-10.64
796,78647,0.525576,-0.008784,-0.8195960999999999,-1.1025,-5.39,-11.375
797,78746,0.5070319999999999,0.0017079999999999999,-0.83204,-0.14,-5.705,-11.7425
798,78844,0.48995200000000005,0.007320001,-0.8149601,1.26,-5.6175,-12.39
799,78942,0.47213999999999995,0.005368,-0.8276481,2.765,-4.865,-13.3175
800,79040,0.490684,0.007808001,-0.8249639999999999,4.9,-3.6925,-14.7525
801,79138,0.524356,-0.004392,-0.8076399999999999,7.245,-2.7125,-15.995
802,79236,0.537532,0.031964,-0.8076399999999999,7.5425,-2.905,-17.15
803,79334,0.5172800999999999,0.032695999999999996,-0.8103239999999999,9.8525,-2.6425,-15.68
804,79432,0.50874,0.044164,-0.81618,11.515,-0.7525,-14.5075
805,79530,0.5368,0.036844,-0.8105680000000001,13.79,2.17,-12.88
806,79628,0.5233800000000001,0.021716,-0.8176439999999999,15.8375,4.76,-10.6225
807,79726,0.552904,0.018544,-0.803248,16.5375,6.8425,-9.8525
808,79824,0.5565640000000001,-0.065148,-0.7808001,17.0275,8.89,-8.3475
809,79922,0.541924,-0.07588400000000001,-0.807884,12.8975,10.605,-7.175
810,80020,0.526308,0.010492,-0.823256,12.775,13.8075,-8.96
811,80118,0.5282600000000001,-0.0017079999999999999,-0.8322841000000001,14.56,17.9725,-10.6575
812,80216,0.501908,-0.036356,-0.818132,16.345,23.135,-9.345
813,80314,0.5038600000000001,-0.026351999999999997,-0.8364321,17.6575,29.365,-10.29
814,80412,0.513864,-0.024156,-0.849608,18.235,35.7,-11.9
815,80510,0.515084,-0.029768,-0.8322841000000001,19.7225,44.835,-11.62
816,80608,0.47482399999999997,-0.021228,-0.832528,18.83,55.1425,-10.885
817,80706,0.5070319999999999,0.032695999999999996,-0.8298440999999999,17.9025,67.935,-8.7675
818,80804,0.5463161,0.055144000000000006,-0.788608,15.1375,84.805,-2.66
819,80903,0.4941,0.039284,-0.8481440999999998,12.075,105.735,5.1275
820,81001,0.503616,0.062464,-0.8388721,8.82,127.8725,11.4975
821,81099,0.5404601,0.023424,-0.892552,6.51,150.01,16.5725
822,81197,1.045296,-0.10760399999999999,-0.8996280999999999,3.115,172.2175,19.1625
823,81295,0.647576,-0.16592,-0.9474520000000001,4.165,199.045,15.015
824,81393,0.763476,-0.140544,-0.990884,5.8625,243.145,-2.8175
825,81491,0.43066000000000004,-0.09930800000000001,-1.1041,1.645,300.475,-17.1675
826,81589,0.688812,-0.284992,-1.26636,7.245,367.5,-28.6125
827,81687,0.5614439999999999,-0.165432,-1.232444,6.825,442.2075,-53.55
828,81785,0.975512,-0.12712400000000001,-1.341512,7.0875,526.4525,-72.8175
829,81883,0.9211,-0.211548,-1.9581,-5.425,570.6575,-86.59
830,81981,1.514508,-0.6902761,-2.072048,-5.915,573.405,-97.7375
831,82079,2.3855880000000003,-0.5636399999999999,-2.966064,18.5325,573.405,-69.9125
832,82177,1.575264,0.030012,-2.139636,-5.04,569.9225,-92.1025
833,82275,1.62504,0.197884,-2.775256,12.04,468.1425,-76.9475
834,82373,2.7520759999999997,-0.28011199999999997,-2.038376,52.99,350.8575,22.225
835,82471,1.785836,-0.257664,-1.9602959999999998,4.8125,261.345,28.98
836,82569,4.60306,-0.165188,-3.264232,-73.01,269.325,-66.64
837,82667,3.864472,-0.481412,-4.975892,23.9225,295.96,-39.2875
838,82766,1.473028,-1.19682,-4.050155999999999,34.37,7.7525,-17.535
839,82864,-0.24888000000000002,-0.8788879999999999,-2.1118200000000003,-11.305,-142.3275,1.6625
840,82962,-0.762012,-0.448716,-1.559648,-48.23,-170.0825,18.55
841,83060,-0.628788,-0.24790399999999999,-1.4039760000000001,-47.1975,-156.8525,42.07
842,83158,-0.284016,-0.129076,-1.482544,-22.435,-153.51,64.33
843,83256,-0.010248,-0.13176,-1.559892,0.1925,-174.6675,79.1175
844,83354,0.14347200000000002,-0.1647,-1.511336,9.4675,-214.2525,84.245
845,83452,0.19983599999999999,-0.133956,-1.387628,2.1525,-257.25,81.55001
846,83550,0.26352,-0.034648000000000005,-1.240984,-13.3875,-294.1575,74.025
847,83648,0.357948,0.105896,-1.107272,-26.25,-322.5075,64.27750999999999
848,83746,0.48556000000000005,0.194712,-1.015772,-28.735,-343.525,54.4775
849,83844,0.635376,0.22691999999999998,-0.951844,-23.8175,-359.3975,44.1
850,83942,0.79178,0.238632,-0.9186601000000001,-17.29,-372.505,32.6725
851,84040,0.9333,0.222284,-0.9018241,-11.725,-383.915,21.5075
852,84138,1.05408,0.193492,-0.90646,-8.33,-393.855,11.2
853,84236,1.168028,0.180072,-0.9323239999999999,-7.7175,-401.8875,2.2575
854,84334,1.285636,0.18104800000000001,-0.999668,-8.1025,-408.17,-3.6925
855,84432,1.435452,0.196908,-1.095072,-8.0325,-413.6475,-7.7525
856,84530,1.553548,0.182268,-1.1892559999999999,-6.5975,-420.7175,-10.71
857,84628,1.6616400000000002,0.131272,-1.279536,-4.7425,-428.5575,-13.5975
858,84726,1.7916919999999998,0.018056,-1.398852,-5.0575,-435.365,-15.3825
859,84825,1.987868,-0.082472,-1.604544,-9.555,-440.09,-13.6675
860,84923,2.26188,-0.128588,-1.9056400000000002,-18.1475,-443.8525,-5.9325
861,85021,2.726212,-0.23155599999999998,-2.209664,-25.8125,-449.89,5.53
862,85119,3.29644,-0.29133600000000004,-2.3546,-37.1175,-463.225,16.7125
863,85217,3.738568,-0.09345201,-2.179652,-49.595,-481.4425,26.075
864,85315,3.98086,0.00366,-1.6811599999999998,-46.4625,-493.815,28.7175
865,85413,3.959632,-0.351848,-0.725412,-35.21,-490.56,22.12
866,85511,3.885212,-0.83936,0.51972,-32.2875,-464.52,-1.12
867,85609,3.8774040000000003,-0.429928,1.7577759999999998,-42.0,-402.5175,-28.9275
868,85707,3.88692,0.161772,3.034872,-5.3375,-318.675,-23.135
869,85805,3.9801279999999997,0.19178399999999998,4.06504,73.2025,-227.7275,9.38
870,85903,3.4284440000000003,-0.4553041,4.109204,118.44,-133.875,33.0925
871,86001,3.381596,-0.74054,3.4086800000000004,53.025,-15.33,23.17
872,86099,3.69538,-0.46433199999999997,2.110112,-50.3825,87.9375,1.1725
873,86197,3.74296,-0.205692,1.03578,-79.905,139.615,-3.535
874,86295,3.149552,-0.33671999999999996,0.418216,-39.445,154.98,11.1125
875,86393,-2.189168,-1.9766439999999998,-3.1934720000000003,7.385,144.7775,44.0825
876,86491,-3.7556480000000003,-1.6933599999999998,-2.552484,-116.27,174.1775,93.065
877,86589,1.012844,2.037156,3.238368,-214.3925,408.7475,59.92
878,86688,4.0545480000000005,1.510116,-2.86822,49.2275,467.705,189.3675
879,86786,3.001688,3.74906,-2.2789599999999997,-30.24,366.17,121.765
880,86884,3.0512200000000003,2.748416,-1.9063720000000002,11.1825,302.4875,8.05
881,86982,2.311412,-1.112152,-1.915156,120.8375,242.97,-31.605
882,87080,1.437892,-2.027884,-1.2219520000000001,88.2,180.4775,-9.415
883,87178,1.137528,-0.753228,-1.0797,16.9925,173.705,11.935
884,87276,0.287188,-0.444324,-1.35664,-15.8725,150.185,17.115
885,87374,2.848944,-0.264252,-1.006744,-55.475,137.06,1.05
886,87472,0.7390760000000001,0.9767321,-1.175592,-45.15,43.6275,-20.9475
887,87570,0.549732,-0.67466,-0.8671761,3.43,19.2325,-11.0425
888,87668,1.0345600000000001,0.323788,-0.9952761,-14.385,24.71,-20.8425
889,87766,0.562664,0.091988,-0.9125601000000001,-10.5175,4.025,-17.9725
890,87864,0.518988,-0.167872,-0.8369200000000001,2.0825,3.7625,-11.865
891,87962,0.5797441,0.034892,-0.8310639999999999,-8.5225,2.0825,-17.115
892,88060,0.70028,-0.009028000999999999,-0.843508,-6.7025,1.4,-17.255
893,88158,0.536556,0.017568,-0.8666879999999999,-4.4625,-1.1025,-12.915
894,88256,0.5692520000000001,0.0671,-0.87474,-3.255,-0.035,-10.6575
895,88354,0.563396,-0.00244,-0.828868,0.525,2.5025,-6.6675
896,88452,0.5260640000000001,-0.044164,-0.803492,3.185,3.08,-4.235
897,88550,0.548024,-0.022448,-0.801784,0.7875,3.5,-4.725
898,88648,0.541192,-0.042212,-0.8378960999999999,0.8575,3.045,-5.215
899,88746,0.57584,-0.022936,-0.8439959999999999,1.1375,1.8025,-5.7575
900,88844,0.562664,-0.0305,-0.831308,3.6575,0.49,-5.0225
901,88942,0.5392399999999999,-0.06563601,-0.8193521,5.67,0.035,-4.34
902,89040,0.532408,-0.06636801,-0.8127641,5.95,0.1925,-5.4425
903,89138,0.52094,-0.058803999999999995,-0.8105680000000001,5.5825,0.3675,-7.3675
904,89237,0.514596,-0.056852,-0.805688,4.2875,0.525,-9.66
905,89335,0.535092,-0.052948,-0.79422,2.7475,0.91,-11.3925
906,89433,0.5463161,-0.03538,-0.805688,2.2575,1.0325,-12.7225
907,89531,0.558516,-0.019032,-0.79178,2.065,1.3825,-12.4775
908,89629,0.5614439999999999,-0.009028000999999999,-0.8117880000000001,2.8,2.3275,-10.92
909,89727,0.566812,0.024644,-0.7998321,3.8325,4.83,-8.155
910,89825,0.532408,0.004148001,-0.8015399999999999,6.825,7.6475,-5.775
911,89923,0.527772,-0.014396,-0.791048,9.765,10.675,-5.8625
912,90021,0.5355800999999999,-0.07442,-0.7625,12.8625,13.405,-7.5425
913,90119,0.505568,-0.029036000000000003,-0.790072,11.83,14.5425,-9.3975
914,90217,0.508008,-0.035136,-0.8108121,11.235,15.9075,-9.835
915,90315,0.5131319999999999,-0.016592,-0.811056,10.4825,19.0225,-10.3075
916,90413,0.518012,-0.008540001,-0.815936,11.1825,24.185,-9.695
917,90511,0.479216,-0.023668,-0.834968,12.25,31.2725,-8.61
918,90609,0.459208,-0.046360000000000005,-0.8625401,13.755,40.53,-8.015
919,90707,0.47775200000000007,-0.021228,-0.87474,15.61,52.185,-7.7175
920,90805,0.488976,0.005856,-0.87108,17.535,66.395,-4.0075
921,90903,0.518744,0.022936,-0.8427761,18.725,82.5125,3.57
922,91001,0.614392,0.10004,-0.7944641,17.9375,99.2075,13.4575
923,91099,0.62952,0.064416,-0.8203280000000001,17.115,117.355,25.3225
924,91197,0.5702281,-0.012444,-0.9037761000000001,18.76,139.265,36.4525
925,91295,1.056032,-0.35526399999999997,-0.8754719999999999,21.9625,162.1725,36.4
926,91393,0.7329760000000001,-0.121024,-1.010648,19.215,187.95,18.235
927,91491,0.5958479999999999,-0.01708,-1.1714440000000002,33.4075,239.61,13.0725
928,91590,0.72224,-0.0122,-1.173884,43.9425,298.9175,12.4775
929,91688,0.517524,-0.181292,-1.330532,59.08,369.5125,12.3725
930,91786,0.633668,-0.296704,-1.45302,73.605,455.35,-1.2775
931,91884,1.1041,-0.155184,-1.3261399999999999,89.985,546.315,-24.5525
932,91982,1.217072,-0.081252,-2.064972,104.545,573.125,-25.6025
933,92080,1.523048,0.016104,-2.24724,118.125,573.405,-13.2825
934,92178,2.591524,0.327692,-2.279936,142.835,573.405,18.62
935,92276,1.438136,0.057828,-2.299212,122.2025,566.16,17.675
936,92374,1.45058,0.47946000000000005,-2.747928,130.4975,454.3525,35.1575
937,92472,2.725724,0.409432,-2.969236,145.915,372.2425,65.6425
938,92570,2.0996200000000003,-0.515328,0.148108,110.81,249.7775,29.4
939,92668,4.378336,0.542412,-4.8983,59.325,375.1825,-83.02
940,92766,3.754428,-0.331108,-4.760196,146.825,268.7125,-95.9525
941,92864,1.62382,-0.9201241,-3.9449919999999996,142.8525,-11.305,-105.105
942,92962,-0.1098,-0.9764879999999999,-2.151592,71.575,-164.22,-106.2075
943,93060,-0.538752,-0.571936,-1.54818,0.385,-196.42,-101.01
944,93158,-0.408456,-0.326472,-1.313208,-26.25,-187.425,-84.63
945,93256,-0.112972,-0.236436,-1.2961280000000002,-12.74,-185.22,-58.17
946,93354,0.12078,-0.2989,-1.297836,15.6275,-203.8225,-30.38
947,93452,0.271084,-0.417972,-1.239276,31.9025,-238.07,-8.645
948,93550,0.340624,-0.45335200000000003,-1.12362,26.74,-275.5025,4.655
949,93648,0.374784,-0.400892,-0.999668,7.56,-306.8625,13.1075
950,93746,0.42626800000000004,-0.284016,-0.9076799999999999,-14.0175,-330.1375,19.53
951,93844,0.500688,-0.164212,-0.841556,-29.6625,-347.6375,25.375
952,93942,0.587796,-0.075396,-0.809348,-37.695,-361.6025,29.855
953,94040,0.6902761,-0.021472,-0.786656,-41.265,-372.7325,32.06
954,94138,0.787876,0.002196,-0.782752,-42.945,-382.1475,30.8175
955,94236,0.882548,0.023180000000000003,-0.803248,-44.9225,-389.165,27.265
956,94335,0.9869800999999999,0.053191999999999996,-0.8752280000000001,-47.4075,-394.205,22.33
957,94433,1.1102,0.104676,-0.949892,-47.8625,-398.3175,16.835
958,94531,1.247084,0.134932,-1.063352,-44.9925,-403.8825,11.13
959,94629,1.413492,0.187148,-1.167052,-41.5625,-410.2175,4.165
960,94727,1.537688,0.181292,-1.26148,-34.3175,-419.125,-3.8675
961,94825,1.713612,0.116388,-1.40178,-26.145,-427.385,-11.9
962,94923,1.9534639999999999,-0.026108,-1.606496,-20.685,-435.12,-17.1675
963,95021,2.270664,-0.163968,-1.87148,-22.3825,-443.6775,-17.43
964,95119,2.72182,-0.299388,-2.1240200000000002,-30.275,-455.6825,-12.7575
965,95217,3.299124,-0.302804,-2.158912,-42.175,-471.94,-4.5325
966,95315,3.7129480000000004,-0.133468,-2.060092,-48.51,-489.8075,8.295
967,95413,4.028196,-0.29597199999999996,-1.627724,-37.1525,-500.92,17.6225
968,95511,4.0545480000000005,-0.6307401,-0.79422,-35.665,-497.77,11.795
969,95609,4.077728,-0.7256560000000001,0.284992,-44.485,-471.205,-6.3
970,95707,3.9064400000000004,-0.34281999999999996,1.583316,-36.19,-414.645,-21.805
971,95805,3.6304760000000003,0.08662001,2.918484,12.5125,-330.4875,-14.0
972,95903,3.707824,0.098332,3.8244559999999996,81.4975,-234.5175,13.8075
973,96001,3.6580480000000004,-0.336476,3.9164440000000003,118.1425,-137.83,24.955
974,96099,3.4221,-0.8679081,3.4752919999999996,81.88251,-36.9775,-0.3675
975,96197,3.615104,-0.5968241,2.3807080000000003,-11.725,58.66,-20.195
976,96296,2.761104,-0.5170359999999999,2.144028,-56.4025,118.7725,-21.035
977,96394,-3.27204,-2.2911599999999996,-0.25498000000000004,-68.04,204.05,10.4825
978,96492,-0.9476959999999999,0.503372,-0.643672,-117.355,389.06,8.505
979,96590,4.442996,0.30353600000000003,0.380884,-59.4475,469.6125,82.9675
980,96688,2.189168,1.4015360000000001,-2.485384,18.97,385.245,167.0375
981,96786,3.370128,3.446256,-2.297504,-19.2675,369.5825,103.3725
982,96884,3.7166080000000004,2.072536,-3.102948,39.48,316.9075,-6.9475
983,96982,2.082784,-0.9620920000000001,-1.4278879999999998,113.4,201.4775,-28.9975
984,97080,0.520452,-1.3851879999999999,-0.760792,88.655,147.385,-1.12
985,97178,-0.07198,-0.30548800000000004,-0.479704,37.9225,159.3725,26.3375
986,97276,2.685708,-2.10816,-2.075708,5.0225,173.0575,20.02
987,97374,2.0291040000000002,0.5104479999999999,-0.808372,-107.3625,113.19,-33.355
988,97472,0.458232,0.8249639999999999,-1.1285,-64.12,20.6325,-41.125
989,97570,1.092632,-0.440176,-0.9189040999999999,-4.095,18.865,-32.235
990,97668,0.6878361,0.44944799999999996,-1.039196,-25.2525,-0.035,-34.4225
991,97766,0.625128,-0.045627999999999995,-0.8283799999999999,-8.6975,-1.0325,-22.5575
992,97864,0.477264,-0.110044,-0.8420440999999999,-7.1575,-0.42,-16.3275
993,97962,0.56608,0.0061,-0.845216,-15.8725,0.0875,-22.47
994,98060,0.677344,0.06588,-0.859368,-13.8775,0.3675,-22.33
995,98158,0.56852,0.033184,-0.8671761,-9.8875,-1.0675,-16.45
996,98256,0.557052,0.05856,-0.8601,-6.23,-0.315,-12.5475
997,98354,0.5575399999999999,-0.011956,-0.831308,-4.6025,1.505,-9.5725
998,98452,0.542656,-0.033184,-0.815936,-3.0275,1.645,-8.7675
999,98551,0.546072,-0.015616,-0.815692,-3.4825,0.49,-9.7475
1000,98649,0.5267960999999999,-0.016347999999999998,-0.830332,-3.4125,-0.7875,-10.43
1001,98747,0.544608,-0.009516001,-0.8437520000000001,-2.6425,-1.6275,-10.325
1002,98845,0.530456,-0.006587999999999999,-0.8274040000000001,-1.3825,-2.0825,-10.01
1003,98943,0.5309441,-0.021228,-0.817156,1.0325,-2.3275,-9.7475
1004,99041,0.530456,-0.013175999999999998,-0.8178880999999999,2.24,-2.5025,-10.185
1005,99139,0.5321640000000001,-0.015372,-0.8195960999999999,2.38,-3.0625,-11.305
1006,99237,0.513376,-0.01952,-0.8274040000000001,2.5025,-3.4475,-12.215
1007,99335,0.5165481,-0.016347999999999998,-0.8174001000000001,2.765,-3.465,-13.475
1008,99433,0.526308,-0.016104,-0.8071520000000001,3.185,-2.9575,-14.4025
1009,99531,0.533628,0.003904,-0.8117880000000001,3.4825,-2.8,-15.015
1010,99629,0.532408,0.027816000000000004,-0.819108,3.99,-2.0825,-14.0175
1011,99727,0.522648,0.046360000000000005,-0.815692,4.865,-0.6125,-12.0225
1012,99825,0.539484,0.012444,-0.799588,7.0875,2.2575,-10.115
1013,99923,0.521672,-0.00976,-0.805932,8.995,4.27,-10.22
1014,100021,0.518012,-0.021716,-0.807396,10.255,5.04,-11.69
1015,100119,0.532652,-0.010004,-0.7986121,9.66,5.67,-13.545
1016,100217,0.547536,0.008052001,-0.80276,10.3075,6.195,-15.0325
1017,100315,0.518988,0.000732,-0.820572,11.165,7.385,-14.315
1018,100413,0.5231359999999999,-0.020008,-0.8210601000000001,11.97,10.4125,-13.195
1019,100511,0.49532,0.013908000000000002,-0.856684,10.4475,13.685,-12.4075
1020,100609,0.4933681,0.019275999999999998,-0.8364321,12.215,19.845,-9.345
1021,100708,0.46848,0.011956,-0.8464360000000001,14.21,28.7,-6.37
1022,100806,0.4758,0.038308,-0.8513161,15.75,39.5325,-2.975
1023,100904,0.480192,0.030012,-0.8579041,18.095,52.9725,3.4475
1024,101002,0.465308,0.009516001,-0.858392,18.55,68.005,9.9575
1025,101100,0.506788,0.02684,-0.8457040000000001,18.305,83.7025,14.1925
1026,101198,0.6131721,0.062220000000000004,-0.7929999999999999,16.7825,100.9225,18.7425
1027,101296,0.52582,0.038796,-0.87718,13.7375,118.5625,25.1125
1028,101394,0.49117200000000005,-0.023912,-0.8903561,13.4925,140.5075,28.7525
1029,101492,0.8235001000000001,-0.10345599999999999,-0.89426,15.6975,168.07,26.39
1030,101590,0.756888,-0.159088,-0.968192,16.31,193.97,20.2125
1031,101688,0.81984,-0.07978801,-0.9943001,18.7425,230.6675,9.5375
1032,101786,0.49898000000000003,0.001464,-1.078236,22.1375,289.0125,7.385
1033,101884,0.87718,-0.238144,-1.090924,34.0725,357.4725,6.405
1034,101982,0.434076,-0.006344,-1.289052,34.615,434.49,-11.0425
1035,102080,0.678808,-0.22033200000000003,-1.374208,46.4975,515.655,-26.32
1036,102178,0.60878,0.031476,-1.436184,52.115,568.3825,-42.6125
1037,102276,1.555988,-0.24522,-2.086932,48.4225,573.3875,-50.2075
1038,102374,2.184532,-0.6539201,-2.213812,69.475,573.405,-19.0575
1039,102472,2.048868,0.35843600000000003,-2.120604,36.1725,567.2275,-25.48
1040,102570,1.334924,0.35477600000000004,-2.612996,27.3175,475.6675,-17.7975
1041,102668,1.524756,0.07710399999999999,-2.2128360000000002,45.0275,357.98,31.64
1042,102766,1.9612720000000001,-0.293288,-2.139392,62.9475,318.0275,65.6775
1043,102864,1.106052,0.6646561,1.490108,-29.4875,192.36,-21.91
1044,102962,3.6368199999999997,0.17324,-5.647868,41.0725,408.9225,-54.2325
1045,103060,2.847236,-0.665632,-4.4878919999999995,87.115,142.9225,-52.185
1046,103159,0.6724640000000001,-0.8091041,-2.959964,61.0925,-89.95,-54.6525
1047,103257,-0.401624,-0.46628400000000003,-1.86904,-2.275,-185.64,-60.7425
1048,103355,-0.541924,-0.105896,-1.3856760000000001,-37.94,-192.185,-56.455
1049,103453,-0.29768,0.016592,-1.327848,-25.83,-182.28,-39.4975
1050,103551,-0.032695999999999996,-0.055144000000000006,-1.3085719999999998,6.93,-187.1275,-20.09
1051,103649,0.1525,-0.190808,-1.2639200000000002,31.605,-212.415,-5.5475
1052,103747,0.240096,-0.282064,-1.16876,35.6475,-246.61,1.9425
1053,103845,0.28304,-0.29768,-1.0645719999999999,22.8025,-278.355,5.005
1054,103943,0.35136,-0.231312,-0.9752681000000001,3.2725,-302.9775,6.86
1055,104041,0.426512,-0.14005599999999999,-0.906216,-12.4075,-322.0525,9.31
1056,104139,0.519964,-0.05929201,-0.853024,-20.3875,-337.0325,12.3725
1057,104237,0.6036560999999999,-0.029036000000000003,-0.817156,-22.085,-349.4925,14.7525
1058,104335,0.698328,-0.016592,-0.7890961,-22.015,-359.6425,14.91
1059,104433,0.801296,-0.009516001,-0.798124,-22.96,-367.57,13.2475
1060,104531,0.9086559999999999,0.005612,-0.8308200000000001,-25.305,-373.625,10.325
1061,104629,1.0248,0.01952,-0.900848,-28.0,-378.7525,6.1775
1062,104727,1.17608,0.052216,-1.001132,-29.61,-385.035,1.47
1063,104825,1.3066200000000001,0.08344800000000001,-1.080676,-29.4175,-394.1875,-3.465
1064,104923,1.41642,0.10492,-1.1636360000000001,-26.215,-404.4425,-8.75
1065,105021,1.535492,0.0671,-1.275144,-20.0725,-412.7375,-13.755
1066,105119,1.688968,-0.02196,-1.453752,-14.7875,-418.8625,-17.045
1067,105217,1.926136,-0.10052799999999999,-1.691164,-14.175,-423.9375,-16.5725
1068,105315,2.273348,-0.24107199999999998,-1.9773759999999998,-16.9225,-430.5525,-11.7775
1069,105414,2.818444,-0.288896,-2.170868,-23.695,-442.085,-4.6025
1070,105512,3.361588,-0.216428,-2.12646,-31.36,-459.2525,6.0725
1071,105610,3.696844,-0.05563200000000001,-1.9122279999999998,-29.3475,-476.8925,17.3425
1072,105708,3.888384,-0.264252,-1.322724,-13.3,-486.08,19.81
1073,105806,3.882284,-0.5231359999999999,-0.434564,-11.0775,-476.6475,6.895
1074,105904,3.931572,-0.526308,0.646844,-15.2775,-443.0475,-11.7425
1075,106002,3.771996,-0.15006,1.850008,-0.6125,-382.585,-20.685
1076,106100,3.676836,0.18422,3.0197439999999998,46.0425,-301.5775,-8.47
1077,106198,3.712216,0.21228000000000002,3.7166080000000004,100.485,-215.355,7.4725
1078,106296,3.41966,-0.35746,3.7839519999999998,126.1575,-124.0575,4.935
1079,106394,3.383304,-0.742492,3.172976,76.755,-19.5125,-21.2275
1080,106492,3.6426760000000002,-0.5594920999999999,2.059116,-3.5175,70.9275,-36.2075
1081,106590,3.5816760000000003,-0.45335200000000003,1.208288,-29.2775,119.49,-24.045
1082,106688,1.1838879999999998,-1.453752,0.616588,-7.2275,135.7125,12.0575
1083,106786,-5.240144,-3.423076,-4.198508,-83.6325,128.345,96.67
1084,106884,-1.916864,2.49368,4.8321760000000005,-207.97,354.06,91.805
1085,106982,4.180208,1.6982400000000002,-0.510692,-79.4675,475.405,166.7225
1086,107080,3.08416,4.012824,-3.309372,54.5125,419.72,154.7875
1087,107178,1.85684,3.156872,-0.9945440000000001,24.7975,342.475,56.805
1088,107276,2.9492279999999997,-0.48312,-2.4151119999999997,156.6075,329.175,-5.075
1089,107374,2.2262560000000002,-2.359236,-1.2195120000000002,172.4975,263.515,4.375
1090,107472,4.018192,-3.531656,-1.48474,49.5425,202.825,26.95
1091,107570,0.8547319999999999,2.091568,-2.123776,-197.4525,95.2,-15.7325
1092,107669,0.5499761,0.769088,-1.147044,-37.205,56.07,-10.36
1093,107767,1.40178,-0.6034121,-0.72346,7.7,48.2825,-6.4925
1094,107865,0.43066000000000004,0.150792,-0.8930401,-22.54,15.785,-10.3075
1095,107963,0.643672,-0.232044,-0.8796200000000001,-4.97,14.56,-10.1675
1096,108061,0.641232,0.003172,-0.9059721,-11.06,10.78,-15.4
1097,108159,0.682712,0.08759601,-0.9098761000000001,-11.34,3.605,-16.5375
1098,108257,0.649528,-0.07393200000000001,-0.8447280999999999,-1.5575,0.07,-13.4925
1099,108355,0.555588,0.049288,-0.9001161,-1.3825,-3.29,-10.7275
1100,108453,0.5738880000000001,-0.0183,-0.85156,3.64,-0.8400001,-7.5775
1101,108551,0.518256,0.003904,-0.847412,5.775,0.3325,-5.495
1102,108649,0.563884,-0.023180000000000003,-0.8230120999999999,6.8775,2.66,-4.7425
1103,108747,0.5292359999999999,-0.021228,-0.7944641,7.4375,3.7625,-4.305
1104,108845,0.559004,-0.063196,-0.800564,6.335,4.8125,-4.5325
1105,108943,0.556076,-0.054167999999999994,-0.8108121,5.145,4.865,-4.6725
1106,109041,0.5294800000000001,-0.066124,-0.806176,4.655,4.0425,-5.005
1107,109139,0.521184,-0.08052000000000001,-0.7832399999999999,3.605,3.7625,-6.755
1108,109237,0.512888,-0.079544,-0.787144,1.05,2.9925,-9.73
1109,109335,0.50142,-0.08759601,-0.797392,-0.6475,1.6275,-13.1425
1110,109433,0.5185,-0.083204,-0.769332,-1.9775,0.35,-17.22
1111,109531,0.5206960999999999,-0.08881599,-0.762988,-2.5725,-2.73,-22.0325
1112,109630,0.517768,-0.072956,-0.77104,-3.3775,-5.74,-26.04
1113,109728,0.5314321,-0.043432,-0.779092,-4.69,-7.84,-28.49
1114,109826,0.55632,-0.01586,-0.808372,-5.3375,-7.98,-29.3475
1115,109924,0.5602239999999999,-0.0244,-0.821792,-4.06,-7.35,-29.05
1116,110022,0.533384,-0.032451999999999995,-0.83814,-2.6425,-6.965,-28.56
1117,110120,0.555832,0.005856,-0.833016,-2.5025,-4.9175,-27.0725
1118,110218,0.547536,-0.008540001,-0.8239880999999999,-0.0525,-2.1875,-22.925
1119,110316,0.554124,0.000244,-0.811056,0.175,-0.5075,-20.2825
1120,110414,0.544608,-0.028304000000000003,-0.803248,1.2075,0.56,-17.6925
1121,110512,0.529968,-0.018788,-0.801784,1.54,0.805,-16.45
1122,110610,0.5170359999999999,-0.020496,-0.8166680000000001,2.0475,1.855,-15.4525
1123,110708,0.529968,-0.011224,-0.818132,4.3575,4.27,-15.4175
1124,110806,0.5011760000000001,-0.020252000000000003,-0.827892,6.755,7.42,-15.8725
1125,110904,0.49727200000000005,-0.009516001,-0.8388721,7.525,11.375,-17.29
1126,111002,0.5070319999999999,-0.0051240009999999996,-0.8596120999999999,8.2075,17.465,-17.71
1127,111100,0.5158159999999999,-0.006832001,-0.8388721,10.4125,23.8175,-15.365
1128,111198,0.47165200000000007,-0.009516001,-0.8569280999999999,12.0575,32.515,-12.425
1129,111296,0.513864,0.025131999999999998,-0.8432639999999999,13.44,43.3125,-6.44
1130,111394,0.484584,0.015616,-0.8342360000000001,15.4175,55.685,2.1525
1131,111493,0.5124001,0.039528,-0.829356,15.6625,69.405,8.8725
1132,111591,0.5355800999999999,0.047092,-0.8376520000000001,14.1575,83.94751,14.0875
1133,111689,0.47165200000000007,0.000732,-0.8996280999999999,12.8625,101.1675,18.375
1134,111787,0.428708,-0.014884,-0.9240280000000001,14.56,124.495,17.7625
1135,111885,0.768112,-0.06832001,-0.9394,18.515,156.2575,14.1925
1136,111983,0.725412,-0.163236,-1.029436,18.9175,188.72,9.5025
1137,112081,0.81374,-0.023180000000000003,-1.0760399999999999,24.4475,233.87,-2.6425
1138,112179,0.327936,0.063196,-1.2566,31.7275,300.9825,-0.525
1139,112277,0.8359440999999999,-0.16128399999999998,-1.41032,41.7025,383.215,1.0325
1140,112375,0.4392,-0.227652,-1.724348,45.9025,473.6375,-11.4275
1141,112473,0.7078439999999999,-0.235948,-1.6674959999999999,67.69001,552.86,-30.8525
1142,112571,1.11996,0.08466801,-2.212104,92.96,573.23,-36.9775
1143,112669,1.4837639999999999,0.09930800000000001,-1.603568,123.445,573.405,-21.5425
1144,112767,2.156472,-0.562664,-2.51076,164.605,570.5349,-10.9725
1145,112865,0.985516,0.056852,-2.033008,180.8275,502.635,27.4575
1146,112963,1.2902719999999999,-0.082228,-1.9890880000000002,149.695,389.235,4.13
1147,113061,2.028372,-0.69418,-2.106208,143.325,348.3725,-12.3375
1148,113159,0.368684,0.5453399999999999,1.033584,41.4225,206.745,-93.3275
1149,113257,3.25862,-0.365512,-4.174352,70.8575,382.8825,-118.23
1150,113355,3.008032,-0.671732,-3.839828,130.8825,196.6825,-87.7625
1151,113454,1.108492,-1.0650600000000001,-2.936296,126.8225,-49.1225,-69.4575
1152,113552,-0.384788,-0.9716081,-1.4966959999999998,74.8825,-174.2825,-58.3625
1153,113650,-0.8039801,-0.636352,-0.9686799999999999,21.07,-187.95,-51.5375
1154,113748,-0.580232,-0.3233,-0.8249639999999999,-5.6,-159.53,-40.04
1155,113846,-0.235948,-0.235704,-0.917684,1.8725,-140.5425,-19.5825
1156,113944,0.0488,-0.28621199999999997,-0.989176,20.335,-146.51,3.4475
1157,114042,0.23424,-0.36941599999999997,-1.0023520000000001,29.68,-172.6375,22.1025
1158,114140,0.265228,-0.428708,-0.9362280000000001,22.96,-205.205,34.86
1159,114238,0.264496,-0.38966799999999996,-0.8559521000000001,2.94,-232.2425,43.1025
1160,114336,0.313784,-0.282552,-0.806908,-19.6175,-251.3875,49.9275
1161,114434,0.400404,-0.17836400000000002,-0.792024,-36.75,-266.455,56.665
1162,114532,0.494832,-0.096868,-0.784704,-46.655,-280.1575,61.9325
1163,114630,0.5958479999999999,-0.045384,-0.785924,-51.8,-293.685,65.17
1164,114728,0.687348,-0.024888,-0.782752,-55.055,-307.7375,65.0825
1165,114826,0.767868,-0.013908000000000002,-0.772992,-58.5025,-320.915,61.67
1166,114924,0.834724,-0.012931999999999999,-0.765672,-63.3325,-332.3425,56.1225
1167,115022,0.9018241,0.012688,-0.7944641,-67.9525,-341.285,49.77
1168,115120,1.005524,0.057828,-0.862296,-70.35,-347.3225,43.855
1169,115219,1.1477760000000001,0.079544,-0.9357401,-68.145,-353.1325,38.64
1170,115317,1.270996,0.06539201,-1.001376,-64.085,-360.78,33.355
1171,115415,1.363716,-0.003904,-1.070916,-61.25,-369.1625,26.25
1172,115513,1.462536,-0.076616,-1.1655879999999998,-62.615,-375.1125,18.585
1173,115611,1.615768,-0.138348,-1.298568,-67.62001,-378.28,13.685
1174,115709,1.7990119999999998,-0.16226,-1.498404,-74.095,-380.5375,14.2625
1175,115807,2.107916,-0.22277199999999997,-1.70312,-77.805,-383.075,17.5525
1176,115905,2.504416,-0.369904,-1.9114959999999999,-81.0075,-389.515,21.91
1177,116003,3.028284,-0.25961599999999996,-1.9398,-87.2725,-400.1725,24.4825
1178,116101,3.2532520000000003,-0.46726,-1.725324,-86.22251,-413.5075,28.1925
1179,116199,3.345728,-0.684664,-1.145824,-81.2,-421.3475,20.615
1180,116297,3.355976,-0.7707961,-0.259128,-77.1925,-412.7375,1.505
1181,116395,3.221288,-0.478728,0.709796,-55.3875,-381.29,-20.02
1182,116493,3.056588,-0.00976,1.727032,6.335,-325.2375,-25.2525
1183,116591,3.285216,0.36844,2.634224,99.10251,-253.4525,-9.7125
1184,116689,3.233244,-0.053191999999999996,3.223728,186.935,-186.4625,9.275
1185,116787,2.8853,-0.8698601,3.342068,190.33,-111.5625,1.54
1186,116885,2.7328,-0.89792,2.847968,92.575,-12.8625,-37.975
1187,116983,2.947276,-0.61488,1.819752,-4.865,78.34751,-65.5375
1188,117082,1.1777879999999998,-2.556388,0.9396440999999999,-34.4925,141.4,-53.6725
1189,117180,-0.03782,-1.464732,-0.9154880999999999,-214.62,222.3375,-13.5275
1190,117278,-0.868884,-0.0183,-0.7237041,-193.34,302.75,39.865
1191,117376,1.816336,-0.141032,0.051972000000000004,-113.3475,361.3575,151.2525
1192,117474,2.607872,2.04472,-1.8236560000000002,-87.60501,367.395,217.5075
1193,117572,2.65594,4.566948,-1.766072,-107.0475,343.5425,173.04
1194,117670,2.7999,3.71124,-2.16062,-32.865,297.0625,36.8025
1195,117768,2.322148,-0.797636,-1.8346360000000002,99.015,216.475,-25.7775
1196,117866,1.0323639999999998,-2.058384,-0.91012,86.415,152.2325,0.735
1197,117964,3.2217759999999998,-0.25742,-1.4295959999999999,-4.865,121.7475,17.5525
1198,118062,0.189344,-0.35038400000000003,-1.223172,-30.9225,25.8825,-15.6625
1199,118160,0.590968,0.32208000000000003,-0.8317960999999999,-10.395,32.655,-19.2675
1200,118258,1.3886040000000002,-0.187148,-0.877668,-1.9425,27.1425,-24.01
1201,118356,0.5397281,0.129076,-0.909632,-12.6525,1.855,-15.7675
1202,118454,0.6231760999999999,-0.11712,-0.8662001,-5.215,2.5725,-14.7875
1203,118552,0.570472,0.134444,-0.898408,-10.0275,-0.8575,-17.185
1204,118650,0.508008,-0.025131999999999998,-0.834968,-4.1125,-0.6125,-13.475
1205,118748,0.650748,0.029524,-0.820816,-4.3225,0.2975,-12.705
1206,118846,0.579256,0.015372,-0.8410681000000001,-2.695,-1.3475,-10.0625
1207,118944,0.522648,0.026351999999999997,-0.8671761,-0.595,-1.75,-7.4725
1208,119043,0.549244,0.043188,-0.847412,0.315,0.42,-6.8075
1209,119141,0.557296,-0.002196,-0.8252079999999999,3.1325,2.345,-4.795
1210,119239,0.5504641,-0.015616,-0.819108,4.4625,2.2925,-3.7625
1211,119337,0.549488,-0.023180000000000003,-0.8254520000000001,4.4275,1.61,-4.2
1212,119435,0.555588,0.009028000999999999,-0.8247200000000001,4.2875,1.12,-3.955
1213,119533,0.538996,-0.011712,-0.822524,5.4775,1.33,-2.66
1214,119631,0.535092,-0.042944,-0.8095920999999999,6.37,2.065,-2.52
1215,119729,0.532896,-0.029768,-0.8169121,5.8275,2.0125,-3.9375
1216,119827,0.5292359999999999,-0.030012,-0.813984,5.985,1.645,-4.76
1217,119925,0.518256,-0.047336,-0.8220360000000001,7.21,1.4875,-5.5475
1218,120023,0.541924,-0.045384,-0.8100801,8.1725,1.575,-6.685
1219,120121,0.5575399999999999,-0.024644,-0.806176,9.0125,1.1025,-7.5775
1220,120219,0.5602239999999999,0.002684,-0.797636,9.5025,0.42,-7.14
1221,120317,0.5343600000000001,0.012444,-0.8113001,8.295,0.1925,-6.195
1222,120415,0.534848,0.002196,-0.808372,6.7725,1.3825,-5.2325
1223,120513,0.5514399999999999,-0.013908000000000002,-0.800808,6.3,2.87,-3.955
1224,120611,0.541192,-0.027327999999999998,-0.80642,7.175,4.0775,-3.78
1225,120709,0.538752,-0.017324000000000003,-0.800076,7.8575,4.4975,-4.5675
1226,120807,0.540704,-0.022448,-0.791536,8.6275,4.865,-5.565
1227,120905,0.5260640000000001,-0.03172,-0.791048,9.94,4.9525,-7.07
1228,121004,0.517524,-0.028548,-0.800076,10.08,5.215,-9.1875
1229,121102,0.538508,-0.031476,-0.7893399999999999,9.9925,5.8275,-10.9025
1230,121200,0.523624,-0.019032,-0.814472,9.7125,6.4225,-10.85
1231,121298,0.548268,-0.015372,-0.811056,10.4125,8.4,-9.7825
1232,121396,0.487512,-0.018788,-0.8276481,10.2725,11.7075,-8.0325
1233,121494,0.47994799999999993,-0.022936,-0.844484,10.5875,17.605,-5.95
1234,121592,0.487512,-0.012688,-0.8457040000000001,11.2175,26.11,-3.36
1235,121690,0.470188,-0.014152000000000001,-0.8361879999999999,12.565,36.05,-0.0175
1236,121788,0.48678,-0.010492,-0.8322841000000001,13.055,46.3575,3.8325
1237,121886,0.537288,0.016592,-0.818376,13.475,56.665,8.575
1238,121984,0.523624,0.032208,-0.8254520000000001,13.4225,67.55001,14.14
1239,122082,0.548024,0.013175999999999998,-0.8371639999999999,14.28,80.90250999999999,20.0375
1240,122180,0.463844,-0.023668,-0.898408,15.1725,98.7175,21.2275
1241,122278,0.43798000000000004,-0.040748,-0.959408,20.545,123.9525,17.4475
1242,122376,0.9701440999999998,-0.188368,-0.9406200000000001,28.2625,154.8925,11.97
1243,122474,0.586576,-0.058316,-1.041148,21.8925,184.6075,2.275
1244,122572,0.8464360000000001,0.000488,-0.96624,32.025,231.595,-1.6275
1245,122670,0.468724,0.0976,-1.203164,38.85,294.0175,5.25
1246,122768,0.733952,-0.07978801,-1.314916,57.75,371.5075,16.5725
1247,122866,0.5814520000000001,-0.23838800000000002,-1.746552,66.4825,460.5825,15.2075
1248,122964,0.570472,-0.149572,-1.8397599999999998,91.84000999999999,549.1325,-0.0175
1249,123062,1.1775440000000001,0.251564,-2.7240159999999998,112.9975,573.265,-11.2875
1250,123160,1.6506599999999998,0.18422,-2.201124,142.485,573.405,10.92
1251,123259,2.112796,-0.003172,-2.8957919999999997,161.1575,572.5475,29.75
1252,123357,0.803736,0.508008,-2.556876,157.3075,513.3625,47.74
1253,123455,1.560136,0.30109600000000003,-2.146468,148.085,390.1625,41.8425
1254,123553,2.179164,-0.262788,-1.808528,186.83,378.7525,45.85
1255,123651,0.9530641,0.443104,0.646112,105.2625,240.415,-44.8
1256,123749,3.207868,-0.134444,-5.110824,139.7025,380.45,-68.72251
1257,123847,2.656672,-0.61732,-4.073092,153.9825,135.66,-86.73
1258,123945,0.5885281,-0.7256560000000001,-2.848944,122.2375,-93.8875,-91.0875
1259,124043,-0.625372,-0.491904,-1.5006,73.22,-194.9325,-85.89
1260,124141,-0.780068,-0.21008400000000002,-1.0736,47.32,-199.5525,-74.0775
1261,124239,-0.43724799999999997,-0.10809200000000001,-0.9850280999999999,53.0425,-175.2275,-56.945
1262,124337,-0.047092,-0.16592,-1.0584719999999999,74.445,-169.715,-36.8725
1263,124435,0.22082,-0.312564,-1.107516,89.8275,-193.235,-21.7175
1264,124533,0.30353600000000003,-0.386252,-1.07726,89.215,-231.07,-10.64
1265,124631,0.278404,-0.392352,-0.974292,76.37001,-265.2125,2.765
1266,124729,0.31402800000000003,-0.345748,-0.9032879999999999,58.5025,-287.77,19.6
1267,124827,0.437004,-0.242292,-0.889624,40.3375,-303.065,36.8025
1268,124925,0.5914560000000001,-0.14274,-0.9110959999999999,25.48,-317.6775,51.87
1269,125023,0.720288,-0.039772,-0.936472,14.07,-334.7925,62.65
1270,125121,0.8322841000000001,0.045872,-0.9142680000000001,4.865,-352.94,69.2125
1271,125219,0.9137799999999999,0.11028800000000001,-0.8881600000000001,-4.235,-369.7225,72.1175
1272,125317,0.9806360000000001,0.196664,-0.8642481,-13.755,-382.41,71.365
1273,125415,1.095072,0.329644,-0.918416,-21.3325,-390.495,68.0575
1274,125514,1.220976,0.439932,-0.9911281,-23.905,-396.655,62.2125
1275,125612,1.362496,0.538508,-1.061888,-22.575,-403.0075,51.94
1276,125710,1.481568,0.633424,-1.136796,-17.9375,-410.2,36.365
1277,125808,1.563552,0.691008,-1.218536,-10.6225,-415.6775,16.52
1278,125906,1.674084,0.7027201,-1.316868,-0.35,-417.76,-5.46
1279,126004,1.8292680000000001,0.691008,-1.453752,9.905,-417.48,-25.2875
1280,126102,2.063752,0.6885680999999999,-1.64578,19.705,-416.8675,-40.145
1281,126200,2.428776,0.559248,-1.862208,29.75,-419.0375,-50.5575
1282,126298,2.96216,0.593896,-1.9707880000000002,32.7075,-425.46,-58.5375
1283,126396,3.226412,0.43334399999999995,-1.9205240000000001,33.6525,-437.78,-61.6
1284,126494,3.4962760000000004,0.5673,-1.6509040000000001,35.035,-442.6275,-65.415
1285,126592,3.65268,0.693204,-1.04188,40.005,-436.415,-69.0375
1286,126690,3.6841559999999998,0.850096,0.049532,48.4925,-415.8,-78.12
1287,126788,3.5877760000000003,0.9476959999999999,1.43106,51.2575,-375.4975,-95.9875
1288,126886,3.418684,0.9137799999999999,2.76574,39.935,-308.4375,-118.1775
1289,126984,3.1595560000000003,0.29377600000000004,3.909368,10.605,-223.4575,-137.2175
1290,127082,3.4630919999999996,0.518012,3.902048,-31.0625,-131.285,-176.855
1291,127180,3.1534560000000003,1.29198,2.978264,0.3325,-21.14,-234.8675
1292,127278,2.8626080000000003,-0.478728,2.357528,148.54,69.265,-201.285
1293,127376,0.11394800000000001,-2.749148,0.2074,116.9175,142.6425,-177.9925
1294,127474,0.58316,-1.878068,-1.31028,-130.3575,241.7625,-175.3675
1295,127573,0.6280560000000001,-1.726056,0.12395199999999999,-126.2975,304.1675,-186.06
1296,127671,1.1224,-0.153476,-0.643428,-186.1825,356.44,-95.5325
1297,127769,1.755824,0.498004,-2.123776,-62.9125,339.3075,28.7
1298,127867,3.950848,2.7406080000000004,-1.922232,-126.2275,365.0675,37.0125
1299,127965,3.2849720000000002,1.392996,-2.580788,-46.0425,281.1725,-10.5525
1300,128063,1.736792,-0.685884,-1.4459440000000001,11.8475,181.2825,-10.6575
1301,128161,0.323056,-0.32696,-0.863516,-17.255,133.7525,14.0875
1302,128259,1.0821399999999999,-1.119472,-1.242448,-29.75,137.0075,31.29
1303,128357,0.8239880999999999,-0.256932,-0.151036,-99.03251,131.635,1.575
1304,128455,1.754848,1.155096,-1.3466360000000002,-70.5775,65.2575,-23.485
1305,128553,0.904508,0.137372,-1.1629040000000002,-29.1725,8.2075,-37.2925
1306,128651,0.5455840000000001,0.22106399999999998,-0.9655081,-13.4225,5.565,-25.4275
1307,128749,0.657824,0.038796,-0.874984,-11.4625,5.3725,-22.4525
1308,128847,0.6709999999999999,0.07612801,-0.841556,-10.045,4.62,-18.4625
1309,128945,0.666852,-0.11345999999999999,-0.81984,-4.3575,3.57,-14.175
1310,129043,0.530456,0.06466001,-0.8842561,-6.6325,-1.015,-13.7025
1311,129141,0.593164,0.03782,-0.8461921,-4.7075,0.91,-10.675
1312,129239,0.559004,-0.037576,-0.8427761,1.0675,3.2725,-5.46
1313,129337,0.585112,-0.028548,-0.8315520000000001,0.0875,3.605,-4.97
1314,129435,0.568276,-0.012931999999999999,-0.828868,0.9275,3.9025,-4.4625
1315,129533,0.5785241,-0.01708,-0.813496,0.9975,4.5325,-2.94
1316,129632,0.556808,-0.049044,-0.8239880999999999,2.17,4.935,-1.1025
1317,129730,0.5726680000000001,-0.038796,-0.811056,1.155,4.7425,-1.645
1318,129828,0.548268,-0.04148,-0.81984,1.015,4.165,-1.7675
1319,129926,0.548756,-0.05856,-0.8147161,1.5925,4.235,-2.17
1320,130024,0.543876,-0.053924,-0.8095920999999999,1.225,4.095,-3.29
1321,130122,0.535824,-0.060512,-0.809348,1.015,4.095,-4.445
1322,130220,0.543876,-0.046848,-0.8076399999999999,0.3675,4.5325,-5.8625
1323,130318,0.5565640000000001,-0.029524,-0.803736,0.2975,4.865,-6.5625
1324,130416,0.5587601,-0.027572000000000003,-0.7991,0.8575,5.32,-6.02
1325,130514,0.562176,-0.035624,-0.796416,1.225,5.5125,-5.565
1326,130612,0.5653481,-0.03416,-0.79422,1.5925,5.285,-5.6
1327,130710,0.555832,-0.037576,-0.7986121,2.0125,4.6725,-5.4425
1328,130808,0.553148,-0.047824,-0.800564,3.045,4.4625,-5.8625
1329,130906,0.549732,-0.034892,-0.8025161,3.78,4.69,-6.265
1330,131004,0.556808,-0.02928,-0.792024,4.6725,5.145,-6.615
1331,131102,0.535824,-0.046848,-0.796172,5.005,5.8275,-6.545
1332,131200,0.553392,-0.03294,-0.797392,5.0575,6.965,-7.035
1333,131299,0.5594920999999999,-0.026108,-0.7951961,5.3375,8.4175,-6.7025
1334,131397,0.557052,-0.030012,-0.791536,5.8975,10.29,-5.88
1335,131495,0.574132,-0.028792,-0.77836,6.3175,11.48,-4.97
1336,131593,0.57706,-0.03416,-0.774944,6.5275,11.865,-4.2875
1337,131691,0.57828,-0.041968,-0.773968,6.9125,11.5675,-4.1125
1338,131789,0.5873079999999999,-0.039284,-0.771528,7.0875,10.8675,-4.41
1339,131887,0.5631520000000001,-0.0488,-0.7747001,6.895,10.22,-4.7425
1340,131985,0.567788,-0.043188,-0.7788480999999999,7.385,11.3925,-5.67
1341,132083,0.553148,-0.032208,-0.7869,7.9275,13.1075,-6.125
1342,132181,0.544608,-0.01464,-0.7808001,8.68,16.065,-5.0575
1343,132279,0.5648601,-0.010248,-0.790804,9.5375,20.1075,-2.6075
1344,132377,0.48653599999999997,-0.011224,-0.841556,10.08,25.97,0.805
1345,132475,0.50142,-0.030256,-0.85156,11.6025,37.3975,3.5
1346,132573,0.450424,-0.011712,-0.8601,12.845,51.485,3.0625
1347,132671,0.471408,-0.020496,-0.877912,15.0325,67.725,2.3975
1348,132769,0.423584,-0.017812,-0.918416,19.7925,88.4975,0.9975
1349,132867,0.6392800000000001,-0.0488,-0.9706319999999999,27.8425,117.6,-1.3825
1350,132965,0.5843801,-0.05612,-1.051884,31.15,150.22,-6.58
1351,133063,0.763232,-0.041236,-1.119472,40.775,200.83,-10.08
1352,133161,0.5653481,0.008540001,-1.250256,56.175,271.075,-11.06
1353,133259,0.606096,-0.274012,-1.582096,97.3,359.2575,-13.0375
1354,133357,0.358192,-0.09320801,-2.2235720000000003,145.1275,449.2075,-33.0925
1355,133455,0.42724399999999996,-0.5607121,-2.66814,216.055,523.6175,-39.2175
1356,133554,0.7229720000000001,-0.49580799999999997,-1.6389479999999998,270.06,558.2325,-46.095
1357,133652,2.844796,0.788608,-3.168828,286.8775,535.6575,-47.7925
1358,133750,0.8786440999999999,0.06539201,-1.324188,421.435,402.325,-0.9275
1359,133848,0.762012,0.180072,-1.7751,439.215,261.17,-30.9225
1360,133946,0.9745360000000001,0.764208,-1.202432,437.0975,183.1375,-88.11251
1361,134044,1.5579399999999999,1.663836,-1.545496,407.8025,102.8825,-144.0775
1362,134142,1.252208,0.41553199999999996,-3.679276,489.405,74.76,-248.29
1363,134240,-0.643184,-0.9825879999999999,-1.380552,497.0525,-53.76,-310.205
1364,134338,-0.6736840000000001,-1.268068,-1.281244,413.0875,-63.56,-261.17
1365,134436,-0.19764,-1.3825040000000002,-1.583804,352.695,-56.14,-152.635
1366,134534,0.121512,-1.138992,-2.100352,309.715,-81.74251,-34.4925
1367,134632,0.08417999999999999,-0.528992,-2.21064,257.4425,-136.0975,66.85
1368,134730,0.072956,0.442616,-2.117676,203.4025,-191.3625,138.88
1369,134828,0.161772,1.295152,-1.963468,171.43,-237.9825,173.39
1370,134926,0.326716,1.9654200000000002,-1.821216,162.435,-276.1325,170.7825
1371,135024,0.4743361,2.482944,-1.6384599999999998,163.625,-308.9975,141.05
1372,135122,0.612196,2.763056,-1.431792,171.78,-335.1425,90.9475
1373,135220,0.7854361,2.888228,-1.291492,182.245,-351.6625,28.4725
1374,135318,0.9650200999999999,2.7908720000000002,-1.1995040000000001,198.3625,-361.13,-32.165
1375,135416,1.142164,2.541504,-1.151924,209.23,-366.135,-83.65001
1376,135515,1.291004,2.291892,-1.130208,207.83,-368.655,-125.4225
1377,135613,1.42008,2.093276,-1.1009280000000001,196.9625,-369.2675,-159.005
1378,135711,1.534516,1.9764,-1.073112,185.255,-367.29,-185.1325
1379,135809,1.61162,1.800232,-1.042124,181.7375,-364.665,-202.3875
1380,135907,1.667252,1.594296,-1.039684,179.445,-360.115,-212.275
1381,136005,1.7160520000000001,1.430328,-1.071648,173.04,-355.8275,-216.7375
1382,136103,1.7458200000000001,1.279292,-1.0565200000000001,164.535,-353.395,-215.3025
1383,136201,1.712392,1.18828,-0.999668,153.3,-350.56,-208.5475
1384,136299,1.6213799999999998,1.1960879999999998,-0.9635560999999999,139.7025,-344.085,-200.6375
1385,136397,1.589172,1.226344,-0.960384,130.8475,-334.005,-197.4175
1386,136495,1.7165400000000002,1.24318,-1.0255319999999999,130.095,-323.155,-198.8
1387,136593,1.924916,1.26758,-1.077016,134.8725,-313.88,-204.8025
1388,136691,2.032276,1.169248,-0.9616040000000001,147.21,-311.675,-216.16
1389,136789,2.085468,1.067744,-0.6634359999999999,157.5875,-308.2275,-227.92
1390,136887,2.204784,0.899384,-0.27328,158.795,-295.12,-231.4375
1391,136985,2.4260919999999997,0.66368,0.173728,144.6025,-272.51,-225.995
1392,137083,2.527596,0.521184,0.6280560000000001,113.3125,-241.2375,-212.765
1393,137181,2.498316,0.475312,1.069208,68.79251,-203.455,-191.0825
1394,137279,2.39242,0.568032,1.375184,21.77,-158.27,-173.3025
1395,137377,2.2323560000000002,0.28914,1.8119439999999998,-11.3575,-109.9175,-160.265
1396,137475,2.247728,-0.8310639999999999,2.150128,-22.33,-73.745,-160.195
1397,137573,2.4644,0.7478600000000001,1.3163799999999999,-47.7225,8.26,-198.2925
1398,137671,0.7517640999999999,-2.4439040000000003,3.160776,68.495,65.4675,-139.0025
1399,137769,1.461072,-0.57462,-3.250568,-139.1075,174.86,-89.1975
1400,137867,0.238144,-2.125972,-1.248548,-36.0325,139.9825,-73.2725
1401,137965,0.559004,0.08808401,-0.401624,-132.405,197.05,-54.0575
1402,138063,1.225856,0.457744,-1.65798,-76.7725,205.52,-5.04
1403,138161,1.7287400000000002,1.362496,-1.844152,-59.0975,193.41,10.5525
1404,138260,1.286368,0.8405800999999999,-1.257332,-27.4225,149.87,-12.8625
1405,138358,0.71614,-0.273768,-1.1224,5.81,122.2025,-15.05
1406,138456,0.339404,-0.663924,-0.7734800000000001,5.3725,116.9175,-2.38
1407,138554,0.339892,-0.570716,-0.73688,-0.875,127.7325,12.0225
1408,138652,0.534116,-0.005368,-0.805688,-12.5125,140.7,18.7425
1409,138750,0.9703879999999999,0.19154000000000002,-1.013088,-8.75,140.77,17.7625
1410,138848,3.9664639999999998,-0.072712,-2.293844,-17.2725,113.295,9.205
1411,138946,0.23692399999999997,0.85644,-0.9232961,-60.13,11.55,-19.0225
1412,139044,0.549244,0.197152,-1.055544,2.765,14.1225,-7.8225
1413,139142,0.967216,-0.23521599999999998,-0.9362280000000001,-5.0225,11.2525,-10.29
1414,139240,0.5131319999999999,0.15274400000000002,-0.836676,-7.56,1.225,-7.805
1415,139338,0.599264,-0.164212,-0.829356,1.2075,-1.2075,-8.015
1416,139436,0.5797441,0.008784,-0.8569280999999999,-3.3075,-2.0825,-9.1525
1417,139534,0.581696,-0.000732,-0.859856,-1.225,-2.0475,-8.33
1418,139632,0.581696,-0.077348,-0.834968,4.1475,-2.2925,-5.95
1419,139730,0.57462,-0.061488,-0.8308200000000001,4.7425,-3.15,-5.0925
1420,139828,0.5897479999999999,-0.05587601,-0.8254520000000001,6.3875,-3.7625,-4.27
1421,139926,0.5724239999999999,-0.075396,-0.8147161,8.2075,-4.8475,-3.255
1422,140024,0.5489999999999999,-0.07832401,-0.8149601,8.715,-5.67,-2.765
1423,140122,0.56242,-0.063928,-0.8249639999999999,9.1,-5.39,-2.275
1424,140220,0.567056,-0.06880801,-0.8378960999999999,10.5175,-5.565,-1.365
1425,140318,0.558272,-0.08003201,-0.8261841000000001,12.215,-6.2125,-0.6125
1426,140416,0.55266,-0.08003201,-0.826916,13.2475,-7.07,-0.2625
1427,140515,0.550708,-0.09394001,-0.8178880999999999,13.8425,-7.5425,-0.035
1428,140613,0.5499761,-0.10126,-0.8091041,14.105,-7.9625,0.0
1429,140711,0.5292359999999999,-0.11345999999999999,-0.795928,13.8425,-8.4175,-0.1575
1430,140809,0.522648,-0.116632,-0.7856801,12.8975,-8.4175,-0.9275
1431,140907,0.5219159999999999,-0.11955999999999999,-0.787144,11.585,-8.1025,-1.82
1432,141005,0.49995600000000007,-0.128832,-0.775676,9.9925,-7.665,-2.6775
1433,141103,0.490684,-0.142252,-0.777384,7.77,-6.1775,-3.6225
1434,141201,0.511668,-0.128344,-0.7883640000000001,5.4425,-4.2175,-4.7775
1435,141299,0.500688,-0.133956,-0.7808001,3.7625,-2.94,-5.495
1436,141397,0.5043479999999999,-0.14078800000000002,-0.7761640999999999,2.3625,-1.9075,-5.88
1437,141495,0.495076,-0.1342,-0.763476,0.21,-0.735,-7.0525
1438,141593,0.484096,-0.134932,-0.75274,-2.5025,0.4025,-7.9275
1439,141691,0.48433999999999994,-0.12248800000000001,-0.7664041,-5.6,2.0125,-9.0825
1440,141789,0.515084,-0.09320801,-0.797148,-7.6825,3.8325,-9.7125
1441,141887,0.5221600000000001,-0.082228,-0.7937320999999999,-7.0875,4.585,-9.8175
1442,141985,0.5321640000000001,-0.06563601,-0.7956840999999999,-4.865,5.075,-9.17
1443,142083,0.5192319999999999,-0.068076,-0.803736,-2.9225,6.3875,-7.8925
1444,142181,0.51972,-0.07588400000000001,-0.812276,-0.665,7.595,-6.6675
1445,142279,0.527284,-0.07076001,-0.8249639999999999,1.6975,8.6975,-6.3175
1446,142377,0.5214281,-0.114192,-0.8256960999999999,4.8475,10.5175,-5.39
1447,142475,0.576328,-0.242536,-0.806908,6.9125,13.23,-3.535
1448,142573,0.490196,-0.13054000000000002,-0.8308200000000001,4.935,15.2425,-1.7325
1449,142671,0.5043479999999999,-0.13908,-0.8376520000000001,6.685,19.7575,-1.225
1450,142769,0.48824399999999996,-0.114436,-0.7937320999999999,7.105,24.78,-1.47
1451,142867,0.506788,-0.09516001,-0.8315520000000001,9.905,30.1525,-2.1175
1452,142965,0.47336000000000006,-0.138104,-0.7890961,12.2325,35.42,-4.4625
1453,143063,0.40138,-0.116876,-0.8725440999999999,17.8325,43.505,-7.7525
1454,143162,0.5843801,-0.057339999999999995,-0.8708360999999999,29.3475,56.735,-9.31
1455,143260,0.651968,-0.002928,-0.8647360000000001,28.9625,67.76,-2.52
1456,143358,0.5734,-0.0305,-0.8383841000000001,37.5375,78.785,10.43
1457,143456,0.566812,0.00244,-0.924516,33.0925,91.5775,20.37
1458,143554,0.52094,-0.08052000000000001,-0.9152440000000001,39.4625,109.97,30.8
1459,143652,0.49849209999999994,-0.02074,-0.8847440999999999,44.6425,128.625,35.035
1460,143750,0.585356,-0.039284,-0.8849879999999999,49.9625,149.9575,39.4275
1461,143848,0.7944641,-0.193004,-0.834724,47.4775,166.53,38.2375
1462,143946,0.791292,-0.225456,-1.047004,39.55,191.205,25.8825
1463,144044,0.71004,-0.028792,-1.104344,61.7925,236.495,28.7
1464,144142,0.7993439999999999,0.056852,-1.207068,87.5175,286.7375,33.1275
1465,144240,0.662704,0.014396,-1.496208,127.82,346.045,54.6875
1466,144338,0.561932,0.5978,-2.112308,161.4025,420.3675,78.0675
1467,144436,1.25416,0.203496,-1.8056,206.57,490.175,104.3
1468,144534,2.1352439999999997,0.642696,-2.7764759999999997,273.315,537.88,151.7775
1469,144632,1.208288,1.1690040000000002,-2.739632,262.1675,497.4025,148.8725
1470,144730,0.163724,0.553392,-2.259684,330.5225,429.73,156.73
1471,144828,0.85156,0.424072,-1.221708,381.115,414.4875,119.63
1472,144926,1.9724959999999998,-0.011224,-3.082696,438.0075,458.045,88.2175
1473,145024,2.259684,-0.37502800000000003,0.643184,228.8825,250.495,25.4975
1474,145123,3.2046959999999998,0.7415161,-5.330668,255.5175,347.0425,-70.245
1475,145221,2.477088,0.07808001,-3.9955,217.3325,130.0425,-142.765
1476,145319,0.737124,-0.128832,-3.063176,186.5675,-74.865,-156.45
1477,145417,-0.047336,-0.196664,-2.029348,142.975,-176.8025,-160.4925
1478,145515,-0.20861999999999997,-0.16128399999999998,-1.605032,105.91,-200.7075,-156.5725
1479,145613,0.0244,-0.133956,-1.505724,85.3125,-204.3475,-144.06
1480,145711,0.239852,-0.118584,-1.502308,75.6525,-219.2575,-126.56
1481,145809,0.40894400000000003,-0.13664,-1.4659520000000001,71.4,-250.2325,-108.92
1482,145907,0.44237200000000004,-0.160308,-1.3139399999999999,62.93,-289.5375,-93.2575
1483,146005,0.41675200000000007,-0.142008,-1.129232,46.2175,-323.785,-79.73001
1484,146103,0.42016800000000004,-0.059536,-1.0023520000000001,24.1325,-346.01,-69.3525
1485,146201,0.49263599999999996,0.06270801,-0.9501360999999999,4.69,-358.05,-60.27
1486,146299,0.621468,0.174948,-0.91622,-7.455,-366.2575,-50.9425
1487,146397,0.7610359999999999,0.22326,-0.9042641,-13.825,-374.4125,-42.7
1488,146495,0.907436,0.301584,-0.8754719999999999,-18.7425,-382.0075,-37.0475
1489,146593,0.948184,0.30988000000000004,-0.8652241,-23.1525,-389.375,-33.4425
1490,146691,1.057008,0.34404,-0.8388721,-28.385,-392.7525,-32.655
1491,146789,1.14314,0.369904,-0.8857200999999999,-36.8725,-393.7325,-33.705
1492,146888,1.24806,0.44944799999999996,-0.984784,-44.7125,-394.555,-36.2425
1493,146986,1.333704,0.505324,-1.0384639999999998,-47.845,-395.3775,-40.8975
1494,147084,1.42496,0.5099600000000001,-1.083116,-48.1075,-396.375,-48.3
1495,147182,1.505236,0.45335200000000003,-1.169248,-48.37,-396.9,-57.5575
1496,147280,1.643584,0.35672800000000005,-1.285392,-50.6975,-395.7975,-66.71
1497,147378,1.801452,0.2928,-1.45546,-55.615,-393.6975,-72.5025
1498,147476,2.046672,0.198128,-1.6921400000000002,-59.01,-394.4325,-73.2725
1499,147574,2.41316,0.0366,-1.929064,-62.2475,-400.05,-69.125
1500,147672,2.8557759999999996,-0.072712,-2.056432,-70.3325,-408.7825,-62.65
1501,147770,3.2107959999999998,0.046604,-2.003972,-79.03,-418.4425,-56.42
1502,147868,3.509696,0.21081599999999998,-1.6792080000000003,-70.7,-423.8675,-55.0725
1503,147966,3.6773239999999996,0.284992,-0.9674601,-52.7975,-419.7375,-61.4075
1504,148064,3.73564,0.091744,0.157868,-25.27,-403.5675,-71.5925
1505,148162,3.2122599999999997,-1.178032,1.535004,0.035,-372.0325,-80.8675
1506,148260,3.427468,-0.304268,2.3650919999999998,-23.8,-296.5725,-117.32
1507,148358,3.62218,0.558028,2.79868,7.77,-205.59,-158.2525
1508,148456,3.4189279999999997,-0.320616,3.35866,153.09,-126.9975,-119.455
1509,148554,3.315472,-1.405196,3.273016,184.73,-43.4,-93.625
1510,148652,3.3874519999999997,-1.334436,2.6105560000000003,86.27501,43.645,-108.2375
1511,148750,3.4892,-1.0147959999999998,1.627724,-10.29,108.7975,-111.125
1512,148848,2.369972,-1.139968,0.647332,-35.91,149.135,-86.3625
1513,148946,-2.860168,-2.6193400000000002,-5.782556,-52.325,142.3975,-23.4675
1514,149044,-2.05936,-0.6075600999999999,0.6405,-62.51,268.8875,18.6375
1515,149142,2.16794,-0.426756,1.712636,-29.5225,375.4625,102.2875
1516,149240,3.3989199999999995,1.270996,-3.435764,62.265,408.695,196.63
1517,149338,1.38104,2.378756,-1.617232,28.21,313.6175,181.9125
1518,149436,2.900184,2.93288,-2.2372360000000002,20.0025,292.5475,46.97
1519,149534,2.544676,-0.75884,-2.0037279999999997,121.3625,243.88,-30.3975
1520,149632,1.387628,-1.730204,-1.135576,105.42,170.9575,-9.345
1521,149730,0.655384,-0.737124,-0.892308,29.26,144.235,13.02
1522,149828,0.32818,-0.667828,-1.37372,-0.9625,136.15,17.2375
1523,149926,2.4034,-0.58194,-0.814472,-48.755,128.1175,-3.08
1524,150025,1.004792,0.7278521,-1.3542,-85.1025,51.8,-24.7275
1525,150123,0.5858439999999999,0.10004,-0.8820601,-40.18,28.42,-21.1575
1526,150221,0.809836,-0.305,-0.8664440000000001,-17.745,23.9575,-22.47
1527,150319,0.754692,0.340868,-1.059204,-36.8025,12.5125,-25.4975
1528,150417,0.62952,-0.07978801,-0.8610761,-12.565,5.635,-19.32
1529,150515,0.5587601,-0.09345201,-0.8547319999999999,-9.485,2.4325,-15.1025
1530,150613,0.5543680000000001,-0.049532,-0.8574161,-11.3225,-0.2275,-16.3275
1531,150711,0.525576,-0.036356,-0.856196,-9.0125,-1.1725,-16.6775
1532,150809,0.544852,0.004148001,-0.8540000000000001,-8.0675,-2.0825,-16.275
1533,150907,0.557296,0.007076001,-0.837408,-5.67,-2.1525,-14.9275
1534,151005,0.48824399999999996,-0.038308,-0.788608,-4.025,-2.31,-13.3175
1535,151103,0.49434399999999995,-0.064416,-0.769576,-5.25,-1.6625,-13.65
1536,151201,0.5070319999999999,-0.055388,-0.780068,-8.505,-1.3125,-15.3475
1537,151299,0.50752,-0.053191999999999996,-0.797148,-10.7275,-1.19,-16.5725
1538,151397,0.517768,-0.037332,-0.83936,-13.2475,-1.19,-17.43
1539,151495,0.542168,-0.013663999999999999,-0.8703481,-13.3175,-1.47,-17.64
1540,151593,0.538508,-0.005368,-0.8518040000000001,-10.535,-3.115,-17.0275
1541,151691,0.511668,-0.034892,-0.853512,-6.9125,-4.1475,-15.6625
1542,151789,0.5060560000000001,-0.025376,-0.8230120999999999,-5.7925,-3.3425,-15.015
1543,151887,0.489708,-0.05368,-0.8166680000000001,-4.83,-2.38,-15.05
1544,151985,0.49751599999999996,-0.05636401,-0.8239880999999999,-4.865,-1.1375,-16.2575
1545,152083,0.5084960000000001,-0.046360000000000005,-0.821792,-4.76,0.0525,-17.2375
1546,152181,0.48848800000000003,-0.013908000000000002,-0.8249639999999999,-4.165,0.98,-17.6225
1547,152279,0.533628,0.039528,-0.8310639999999999,-3.99,3.29,-17.255
1548,152377,0.7105279999999999,0.09418401,-0.8364321,-1.505,6.125,-15.505
1549,152475,0.5612,-0.008296000999999999,-0.809348,5.25,4.3225,-12.3025
1550,152573,0.5077640999999999,-0.007320001,-0.824232,7.3675,3.4475,-11.8825
1551,152671,0.543876,-0.032451999999999995,-0.812276,8.33,5.3025,-12.6175
1552,152769,0.5267960999999999,-0.058803999999999995,-0.800076,10.115,7.0875,-14.0
1553,152867,0.49044,-0.058072000000000006,-0.820084,9.5725,8.2775,-16.45
1554,152965,0.52582,-0.010492,-0.819108,10.71,12.39,-17.465
1555,153064,0.508252,-0.05172801,-0.8378960999999999,13.965,18.6375,-17.8675
1556,153162,0.424072,0.017568,-0.8976761000000001,12.705,23.66,-18.095
1557,153260,0.492392,-0.016836,-0.8552200000000001,15.9075,35.4025,-14.9975
1558,153358,0.472628,-0.012688,-0.8759601,17.3425,47.18,-10.8325
1559,153456,0.500444,0.031964,-0.860344,18.69,62.16,-3.7275
1560,153554,0.504104,0.052703999999999994,-0.862296,17.1675,78.5225,6.6675
1561,153652,0.5043479999999999,0.028792,-0.835456,16.6075,97.0375,16.6075
1562,153750,0.539972,0.060024,-0.828868,14.315,114.4325,24.0625
1563,153848,0.576816,0.018544,-0.850584,10.605,130.7425,30.415
1564,153946,1.02358,-0.091012,-0.832528,10.2375,149.135,35.56
1565,154044,0.681248,-0.108824,-0.9738041,8.5575,169.89,33.25
1566,154142,0.81374,-0.04514,-0.9911281,10.535,206.325,24.115
1567,154240,0.4331,-0.07881200000000001,-1.12362,8.96,259.105,21.77
1568,154338,0.503372,-0.181292,-1.52134,24.395,319.69,16.5025
1569,154436,0.4514,-0.146644,-1.2312239999999999,31.9375,380.5725,0.4375
1570,154534,0.806176,-0.122976,-1.3542,35.6825,464.8175,-18.375
1571,154632,0.763232,-0.082228,-1.476444,38.0975,552.2825,-31.605
1572,154730,1.209752,-0.383812,-2.423896,45.325,573.37,-41.79
1573,154828,1.13094,-0.302072,-2.325564,72.7475,573.405,-19.635
1574,154926,2.476112,-0.07710399999999999,-2.078148,73.745,573.23,-22.645
1575,155024,1.141432,0.07710399999999999,-2.32532,49.805,529.6725,-31.0975
1576,155122,1.520608,0.5072760000000001,-2.651548,55.51,403.235,-9.8525
1577,155221,2.4085240000000003,-0.005856,-2.284084,88.9175,340.9175,44.9225
1578,155319,0.575596,0.23741199999999998,1.51768,46.8825,212.31,8.54
1579,155417,4.006968,0.14005599999999999,-4.517416000000001,60.375,423.2025,-69.125
1580,155515,3.782,-0.418704,-4.625996,139.0375,271.1625,-52.1675
1581,155613,1.568676,-1.0523719999999999,-3.712704,127.6625,-10.01,-52.7625
1582,155711,-0.15128,-0.8791321,-2.0581400000000003,49.1225,-164.6575,-58.8875
1583,155809,-0.620492,-0.39405999999999997,-1.448872,-19.565,-196.14,-59.3075
1584,155907,-0.54656,-0.080764,-1.237568,-37.45,-181.8075,-46.7075
1585,156005,-0.231312,0.008296000999999999,-1.266848,-12.495,-169.6275,-24.7625
1586,156103,0.048556,-0.07612801,-1.2846600000000001,25.1825,-179.7425,-2.6075
1587,156201,0.215696,-0.222284,-1.253672,47.5475,-209.0025,12.5825
1588,156299,0.2928,-0.327936,-1.1568040000000002,46.5675,-244.65,19.4425
1589,156397,0.32574000000000003,-0.312808,-1.0467600000000001,26.53,-275.5025,22.5225
1590,156495,0.40381999999999996,-0.23887600000000003,-0.974292,1.7675,-298.3225,26.25
1591,156593,0.5158159999999999,-0.135664,-0.9333,-18.1125,-316.1375,31.22
1592,156691,0.648552,-0.05563200000000001,-0.9028,-30.38,-331.87,37.0825
1593,156789,0.755912,-0.01342,-0.879864,-37.2225,-347.7775,40.6875
1594,156887,0.8420440999999999,0.010736,-0.847412,-41.755,-362.3725,40.705
1595,156985,0.900848,0.021716,-0.827892,-46.2525,-374.29,38.255
1596,157084,0.978684,0.040992,-0.8420440999999999,-50.8375,-382.375,34.125
1597,157182,1.0887280000000001,0.077592,-0.89426,-55.2825,-388.1325,29.295
1598,157280,1.213168,0.094916,-0.9720960999999999,-58.065,-394.205,22.9775
1599,157378,1.320284,0.112972,-1.053104,-59.6575,-401.9925,14.63
1600,157476,1.44082,0.11834000000000001,-1.1594879999999999,-59.22,-410.1825,5.25
1601,157574,1.569896,0.09442801,-1.2907600000000001,-57.1025,-417.585,-3.8325
1602,157672,1.746796,0.028548,-1.5189,-54.8275,-423.5525,-10.9725
1603,157770,2.013976,0.005368,-1.791448,-55.5275,-429.345,-14.525
1604,157868,2.414136,-0.087108,-2.028616,-55.4925,-438.27,-15.12
1605,157966,2.951668,-0.163236,-2.1642799999999998,-56.1575,-453.3025,-14.35
1606,158064,3.5206760000000004,0.042456,-2.10938,-57.5575,-471.6075,-12.0225
1607,158162,3.821528,-0.09711201,-1.7733919999999999,-43.33,-488.285,-11.8475
1608,158260,3.874964,-0.428708,-1.041636,-28.21,-492.1525,-22.0675
1609,158358,3.857396,-0.680028,-0.08174001,-23.5725,-473.935,-43.6275
1610,158456,3.82226,-0.49556400000000006,1.13826,-14.4025,-426.4575,-67.7075
1611,158554,3.6468239999999996,0.085156,2.334104,25.4625,-351.0675,-73.745
1612,158652,3.6092480000000005,0.21057199999999998,3.371836,107.8,-260.995,-48.6325
1613,158750,3.6543879999999995,-0.30036399999999996,3.782,170.205,-173.9325,-17.5
1614,158848,3.3684199999999995,-0.9711200999999999,3.5894839999999997,149.1175,-80.08,-23.6425
1615,158946,3.536536,-0.9284200999999999,2.7816,45.3425,17.3425,-47.8975
1616,159044,3.674152,-0.6170760000000001,1.783396,-37.03,88.655,-47.4775
1617,159143,1.7509439999999998,-1.381284,1.3346799999999999,-41.5275,124.74,-20.9125
1618,159241,-4.228032,-2.625684,-2.573956,-104.2125,161.35,59.43
1619,159339,-1.266116,1.592832,2.2545599999999997,-207.6725,370.615,90.00251
1620,159437,4.00404,0.076616,0.343064,-30.59,469.77,207.55
1621,159535,2.935564,2.80112,-2.690344,-2.625,427.2625,246.54
1622,159633,2.0417919999999996,4.663816000000001,-1.425692,-37.1525,365.4525,126.8925
1623,159731,4.101152,1.9136919999999997,-2.899452,61.9325,342.8425,-16.3625
1624,159829,2.22528,-2.529548,-1.4215440000000001,141.96,227.045,-30.765
1625,159927,1.118008,-1.512068,-1.1448479999999999,52.605,176.12,4.445
1626,160025,1.821704,-0.9801479999999999,-2.3245880000000003,-11.6375,169.085,19.95
1627,160123,1.383724,0.305976,0.23155599999999998,-83.6325,106.155,-20.755
1628,160221,0.7076001000000001,0.24766,-1.072868,-26.67,24.9375,-29.575
1629,160319,0.9686799999999999,-0.262056,-0.850584,-19.005,27.5275,-25.795
1630,160417,0.859368,0.0,-0.9769760000000001,-15.085,15.0325,-24.9375
1631,160515,0.79422,0.255712,-0.9489161,-16.17,-0.14,-26.8975
1632,160613,0.566812,-0.030012,-0.838628,-5.4425,-2.9925,-16.1525
1633,160711,0.550952,-0.111508,-0.8169121,-6.2475,-1.3475,-14.0
1634,160809,0.56608,-0.004636001,-0.8522921,-11.62,-2.415,-18.41
1635,160908,0.623908,0.016347999999999998,-0.8425321,-9.31,-2.975,-18.6375
1636,161006,0.5777920999999999,0.034648000000000005,-0.84546,-6.44,-2.8875,-15.2075
1637,161104,0.5392399999999999,0.036112,-0.8508280999999999,-3.3425,-2.24,-11.55
1638,161202,0.5343600000000001,0.001464,-0.813984,-0.6475,0.0175,-8.82
1639,161300,0.5380199999999999,-0.015616,-0.8044680999999999,0.8575,1.435,-7.7
1640,161398,0.562908,-0.01708,-0.800076,0.525,1.0325,-7.9275
1641,161496,0.5577840000000001,-0.019275999999999998,-0.8222799999999999,0.945,-0.6825,-8.05
1642,161594,0.5543680000000001,-0.037576,-0.8291120999999999,1.435,-2.065,-7.98
1643,161692,0.547536,-0.013663999999999999,-0.823744,2.3625,-2.8175,-8.0675
1644,161790,0.52582,-0.029036000000000003,-0.819108,3.71,-2.9925,-7.5425
1645,161888,0.511668,-0.040748,-0.8230120999999999,3.99,-3.0975,-8.155
1646,161986,0.499468,-0.03904,-0.81862,3.3775,-3.115,-9.6075
1647,162084,0.5246,-0.035868000000000004,-0.7954399999999999,2.6775,-3.1325,-11.55
1648,162182,0.5248441,-0.035868000000000004,-0.8071520000000001,2.3625,-3.15,-13.79
1649,162280,0.5353359999999999,-0.024156,-0.81252,2.9225,-3.325,-15.19
1650,162378,0.528992,0.007808001,-0.8105680000000001,3.115,-2.975,-14.9625
1651,162476,0.5499761,0.034648000000000005,-0.8025161,3.885,-1.26,-13.0375
1652,162574,0.543388,0.041236,-0.806176,4.48,1.365,-10.3775
1653,162672,0.564372,0.011712,-0.785192,5.915,4.375,-8.61
1654,162770,0.548756,-0.030256,-0.7829961,7.84,5.7225,-8.365
1655,162868,0.532652,-0.038064,-0.7998321,8.8375,5.67,-10.115
1656,162967,0.5170359999999999,-0.056852,-0.80276,9.0825,5.4075,-13.125
1657,163065,0.527284,-0.033672,-0.8147161,9.1175,6.3,-16.59
1658,163163,0.518744,-0.031232,-0.8108121,9.5375,8.855,-18.165
1659,163261,0.510936,0.000244,-0.8317960999999999,10.01,12.6,-17.7275
1660,163359,0.472872,-0.00244,-0.8361879999999999,10.465,18.13,-16.1175
1661,163457,0.534848,0.009272001,-0.835456,11.69,26.845,-12.6175
1662,163555,0.46457600000000004,0.02562,-0.8493641,13.3875,36.295,-8.2425
1663,163653,0.473116,0.018788,-0.850096,14.735,48.4925,-3.57
1664,163751,0.527528,0.029036000000000003,-0.8508280999999999,16.0125,62.335,3.465
1665,163849,0.5392399999999999,0.0366,-0.8086161000000001,16.45,77.07,10.5
1666,163947,0.5219159999999999,0.05636401,-0.797392,16.1,91.91001,16.0475
1667,164045,0.513864,0.0244,-0.8552200000000001,15.2075,106.9425,20.895
1668,164143,0.490684,-0.010004,-0.8718120999999999,14.5425,125.335,25.025
1669,164241,0.787388,-0.0854,-0.8908440999999999,16.6425,150.01,24.2375
1670,164339,0.7227279999999999,-0.13859200000000002,-0.965996,17.78,176.2425,19.25
1671,164437,0.754204,-0.08564401,-1.059448,14.875,213.6575,8.89
1672,164535,0.4209,-0.089792,-1.1446040000000002,17.5,273.3675,5.74
1673,164633,0.6675840000000001,-0.17812,-1.186328,30.135,346.0975,-0.8400001
1674,164731,0.405528,-0.08369201,-1.33102,32.445,428.3475,-18.025
1675,164829,0.693204,-0.181292,-1.8988080000000003,36.155,513.6425,-29.4875
1676,164927,1.019676,-0.169336,-1.280512,49.0525,568.68,-43.8025
1677,165026,1.46156,-0.096868,-1.719956,52.3775,573.405,-66.01
1678,165124,2.0459400000000003,-0.44090799999999997,-2.821372,88.83,573.3875,-37.7125
1679,165222,1.8012080000000001,-0.5099600000000001,-1.432524,79.66001,568.05,-20.65
1680,165320,1.233176,0.356484,-2.39974,79.2925,469.385,-13.8775
1681,165418,2.035448,0.018056,-2.551752,71.96,355.915,24.5
1682,165516,1.5791680000000001,-0.558028,-2.3197080000000003,80.7275,301.6125,54.0925
1683,165614,1.83732,0.8769360999999999,0.02806,-19.1275,253.505,-53.3925
1684,165712,3.7949319999999997,0.215696,-5.6791,71.89,410.06,-51.3275
1685,165810,2.6642360000000003,-0.803492,-4.551819999999999,107.73,98.875,-42.735
1686,165908,0.320372,-0.919636,-2.674972,70.6825,-133.6475,-39.7425
1687,166006,-0.705404,-0.47823999999999994,-1.60796,4.27,-212.94,-39.655
1688,166104,-0.710284,-0.125416,-1.19804,-27.475,-200.9525,-29.365
1689,166202,-0.33184,-0.014152000000000001,-1.214632,-13.6675,-178.8675,-9.7825
1690,166300,0.018544,-0.074664,-1.255868,17.675,-180.7575,9.415
1691,166398,0.24522,-0.191052,-1.264408,38.0975,-208.355,20.7725
1692,166496,0.333304,-0.29792399999999997,-1.200724,39.0775,-246.925,24.71
1693,166594,0.359412,-0.293532,-1.0826280000000001,22.995,-281.47,25.9525
1694,166692,0.43334399999999995,-0.223016,-0.989176,1.12,-306.95,28.42
1695,166790,0.508984,-0.129076,-0.9125601000000001,-15.295,-326.6375,32.165
1696,166888,0.61854,-0.05636401,-0.8657120999999999,-24.9025,-341.95,37.1
1697,166986,0.749324,-0.01098,-0.830576,-29.12,-355.04,40.3725
1698,167085,0.843508,0.007808001,-0.80886,-31.4475,-367.08,41.44
1699,167183,0.9357401,0.01098,-0.8115439999999999,-34.475,-377.1075,40.1275
1700,167281,1.0279719999999999,0.020008,-0.832528,-39.3925,-385.175,36.4875
1701,167379,1.131672,0.060024,-0.9054840000000001,-45.64,-391.2125,31.4125
1702,167477,1.2585520000000001,0.124196,-1.0016200000000002,-50.89,-396.4975,25.34
1703,167575,1.380796,0.18056,-1.09556,-51.9925,-402.9025,17.5875
1704,167673,1.508408,0.223992,-1.1953559999999999,-48.6675,-410.2525,7.2625
1705,167771,1.6391919999999998,0.23155599999999998,-1.300032,-41.615,-417.13,-4.795
1706,167869,1.795352,0.179584,-1.4356959999999999,-32.445,-422.52,-16.52
1707,167967,2.03252,0.09223200000000001,-1.6267479999999999,-24.4475,-426.825,-25.4975
1708,168065,2.407304,-0.022203999999999998,-1.881484,-20.51,-432.1975,-29.5925
1709,168163,2.974848,-0.118584,-2.011536,-21.805,-442.505,-30.4675
1710,168261,3.4279559999999996,-0.104432,-1.9820119999999999,-28.455,-460.915,-27.9475
1711,168359,3.7353959999999997,-0.071492,-1.683844,-24.64,-477.0675,-25.1475
1712,168457,3.797372,-0.24424400000000002,-1.028704,-17.745,-480.0425,-24.43
1713,168555,3.6219360000000003,-0.7044279999999999,-0.066856,-14.0175,-464.2225,-33.4075
1714,168653,3.6458480000000004,-0.652212,1.0650600000000001,-22.155,-420.4375,-56.4725
1715,168751,3.5948519999999995,-0.129564,2.085712,-9.9925,-353.15,-70.98001
1716,168849,3.562156,0.20861999999999997,3.134424,54.915,-271.67,-57.47
