,T,ax,ay,az,gx,gy,gz
0,9976808,0.870592,0.010248,-0.176534,20.545,-19.8275,-18.375
1,9976950,0.90646,0.006832001,-0.23777800000000002,-17.6575,-39.6375,-103.53
2,9977047,0.9823440999999999,0.004148001,-0.256688,-57.3825,-74.04251,-125.6325
3,9977144,0.9775860000000001,0.01037,-0.24888000000000002,24.64,-103.4425,-51.38
4,9977240,0.9653860000000001,0.019275999999999998,-0.264008,1.4525,-8.2775,-4.3225
5,9977337,0.95709,0.030987999999999998,-0.279258,2.695,-3.955,-2.9225
6,9977434,0.9384239999999999,0.027206,-0.28181999999999996,6.615,-2.1,-2.975
7,9977531,0.9469641,0.035013999999999997,-0.273036,9.2225,2.52,-2.8525
8,9977627,0.9612379999999999,0.07490801,-0.159088,14.245,7.0175,-2.8875
9,9977724,0.9470860000000001,0.016104,-0.285602,19.88,9.3625,-2.66
10,9977821,0.9683141,0.01891,-0.245342,14.8225,16.94,-2.52
11,9977918,0.986614,0.013908000000000002,-0.212036,19.6175,20.5625,-2.415
12,9978014,0.9913719999999999,0.012565999999999999,-0.22191799999999998,20.51,20.7375,-2.9925
13,9978111,0.9962521000000001,0.006954000000000001,-0.23301999999999998,19.6875,18.4275,-3.4475
14,9978208,0.995886,-0.00183,-0.22801799999999997,15.3825,13.195,-3.9025
15,9978304,0.9862479999999999,0.022448,-0.242414,9.94,7.2275,-4.655
16,9978401,0.989908,0.015372,-0.22716399999999998,11.235,3.5,-5.005
17,9978498,0.979416,0.020130000000000002,-0.2257,12.88,0.9625,-5.4775
18,9978595,0.9703879999999999,0.015982,-0.22630999999999998,14.6125,0.6475,-6.3
19,9978691,0.9558701,0.010736,-0.229604,15.365,0.805,-6.72
20,9978788,0.9519661,0.009028000999999999,-0.24058400000000002,13.5275,2.24,-6.7725
21,9978885,0.951356,0.004026,-0.24668400000000001,10.9375,4.375,-6.685
22,9978982,0.9480620000000001,0.009150001,-0.257054,8.085,7.105,-6.265
23,9979078,0.9433041,0.012078,-0.269254,5.6,11.34,-6.6325
24,9979175,0.94916,0.014762,-0.24802600000000002,4.4275,18.655,-7.63
25,9979272,0.973316,0.030622000000000003,-0.230702,3.15,23.205,-8.61
26,9979369,0.9806360000000001,0.031232,0.026595999999999998,5.1975,18.2175,-9.4325
27,9979465,1.101416,-0.002928,-0.064294,11.55,22.575,-11.6025
28,9979562,0.9702661,0.005612,-0.201544,-1.8725,-2.3625,-13.895
29,9979659,0.9441579999999999,0.003782,-0.188978,0.2625,-15.6975,-4.4275
30,9979756,0.9744141,0.015982,-0.21093800000000001,1.3125,-4.6375,-3.7625
31,9979852,0.981124,0.01342,-0.19276,0.8225,-2.205,-3.5525
32,9979949,0.9813681000000001,0.017324000000000003,-0.18666,0.665,-3.92,-3.36
33,9980046,0.9749021000000001,0.015616,-0.192028,0.8925,-5.285,-3.29
34,9980143,0.978928,0.016714,-0.199958,0.8400001,-4.7075,-3.29
35,9980239,0.981124,0.017568,-0.19397999999999999,0.8925,-3.9375,-3.36
36,9980336,0.978684,0.017812,-0.189344,0.8575,-4.2525,-3.3775
37,9980433,0.9779521000000001,0.017202000000000002,-0.19093,0.98,-4.375,-3.3425
38,9980529,0.9785620999999999,0.015006,-0.19251600000000002,1.0675,-4.0425,-3.4825
39,9980626,0.979416,0.014152000000000001,-0.19276,0.9975,-3.6925,-3.605
40,9980723,0.978806,0.013297999999999999,-0.188002,1.05,-3.815,-3.57
41,9980820,0.9802700000000001,0.012931999999999999,-0.18849000000000002,0.9975,-3.7275,-3.5175
42,9980916,0.979294,0.013054,-0.188368,0.8925,-3.5175,-3.4475
43,9981013,0.979416,0.013054,-0.186172,0.805,-3.6225,-3.3775
44,9981110,0.9823440999999999,0.012931999999999999,-0.186538,0.77,-3.325,-3.43
45,9981207,0.98393,0.012322,-0.183854,0.6825,-3.045,-3.3425
46,9981303,0.984906,0.013663999999999999,-0.182146,0.6825,-2.9925,-3.3075
47,9981400,0.9834421,0.01342,-0.183122,0.805,-2.94,-3.2375
48,9981497,0.981002,0.013175999999999998,-0.186172,0.8225,-2.9225,-3.29
49,9981594,0.979416,0.013175999999999998,-0.18775799999999998,0.77,-2.8525,-3.325
50,9981690,0.979416,0.01464,-0.18446400000000002,0.805,-2.59,-3.4475
51,9981787,0.981002,0.014762,-0.18605,0.8225,-2.52,-3.5875
52,9981884,0.9813681000000001,0.012688,-0.185806,0.7,-2.31,-3.6575
53,9981981,0.983564,0.016104,-0.18422,0.7525,-1.995,-3.6575
54,9982077,0.9831981,0.014762,-0.17921800000000002,0.7875,-2.135,-3.675
55,9982174,0.9822219999999999,0.01464,-0.17836400000000002,0.6475,-2.3275,-3.5875
56,9982271,0.983808,0.01342,-0.178608,0.7175,-2.4675,-3.5
57,9982368,0.984296,0.011956,-0.178242,0.735,-2.38,-3.4825
58,9982464,0.9822219999999999,0.012322,-0.18056,0.665,-2.345,-3.4125
59,9982561,0.9825879999999999,0.012322,-0.183,0.665,-2.3275,-3.325
60,9982658,0.9834421,0.011712,-0.18251199999999998,0.56,-2.695,-3.36
61,9982755,0.983808,0.011346,-0.183854,0.595,-2.7825,-3.3425
62,9982851,0.9846620999999999,0.013054,-0.182756,0.735,-2.765,-3.22
63,9982948,0.983808,0.012688,-0.181902,0.7875,-2.6425,-3.1675
64,9983045,0.9831981,0.013541999999999998,-0.180926,0.805,-2.5725,-3.255
65,9983142,0.9836860999999999,0.013908000000000002,-0.17873,0.77,-2.4675,-3.185
66,9983238,0.984418,0.012931999999999999,-0.17995,0.6825,-2.625,-3.2725
67,9983335,0.9833200000000001,0.013175999999999998,-0.179706,0.7175,-2.7825,-3.22
68,9983432,0.9823440999999999,0.014274,-0.180194,0.665,-2.975,-3.22
69,9983528,0.9823440999999999,0.012931999999999999,-0.177998,0.7525,-2.9575,-3.185
70,9983625,0.9825879999999999,0.013541999999999998,-0.179706,0.735,-2.8,-3.1675
71,9983722,0.9817341,0.01342,-0.179584,0.875,-2.7125,-3.1675
72,9983819,0.9831981,0.01342,-0.17873,0.875,-2.73,-3.1325
73,9983915,0.983564,0.012688,-0.176778,0.805,-2.87,-3.15
74,9984012,0.983808,0.012322,-0.176778,0.6475,-2.73,-3.15
75,9984109,0.9863700000000001,0.01342,-0.17446,0.6825,-2.8875,-3.185
76,9984206,0.9861260000000001,0.01281,-0.174094,0.6125,-2.9575,-3.185
77,9984302,0.9852719999999999,0.011834,-0.175558,0.455,-3.0275,-3.0975
78,9984399,0.9833200000000001,0.013297999999999999,-0.17263,0.4025,-3.0625,-3.0975
79,9984496,0.9831981,0.012565999999999999,-0.171654,0.3325,-2.8875,-3.0975
80,9984592,0.9829540000000001,0.013786000000000001,-0.171532,0.21,-2.73,-3.1675
81,9984689,0.9836860999999999,0.016714,-0.171044,0.1225,-2.87,-3.185
82,9984786,0.9821,0.016836,-0.174094,0.0875,-2.905,-3.185
83,9984883,0.9829540000000001,0.017812,-0.17397200000000002,0.0875,-2.905,-3.2025
84,9984979,0.9856379999999999,0.017446,-0.171532,0.0875,-2.73,-3.22
85,9985076,0.9858819999999999,0.016592,-0.168726,0.315,-2.66,-3.255
86,9985173,0.9864921,0.014518000000000001,-0.166164,0.525,-2.73,-3.29
87,9985270,0.9878341,0.011834,-0.165554,0.4725,-2.9225,-3.3425
88,9985366,0.985516,0.012078,-0.162382,0.5425,-3.115,-3.4475
89,9985463,0.9867360999999999,0.012688,-0.162504,0.35,-3.185,-3.465
90,9985560,0.9830760000000001,0.011101999999999999,-0.164212,0.21,-3.2375,-3.535
91,9985657,0.983564,0.01098,-0.16530999999999998,0.175,-3.3075,-3.4125
92,9985753,0.98393,0.011468,-0.163968,0.2275,-3.3075,-3.2725
93,9985850,0.9858819999999999,0.011956,-0.162504,0.1225,-3.465,-3.2375
94,9985947,0.984784,0.01281,-0.163114,0.245,-3.4825,-3.0625
95,9986044,0.9861260000000001,0.013541999999999998,-0.163968,0.2275,-3.325,-3.01
96,9986140,0.984906,0.014762,-0.16433399999999998,0.2625,-3.2375,-3.01
97,9986237,0.984174,0.014396,-0.163968,0.315,-3.3075,-3.0975
98,9986334,0.9846620999999999,0.015493999999999999,-0.1647,0.42,-3.2375,-3.115
99,9986430,0.9858819999999999,0.014518000000000001,-0.163358,0.35,-3.0625,-3.2025
100,9986527,0.9884440000000001,0.014762,-0.16043,0.35,-2.975,-3.22
101,9986624,0.9874681000000001,0.015128,-0.15921,0.28,-3.115,-3.1325
102,9986721,0.9869800999999999,0.015493999999999999,-0.158722,0.2975,-3.3075,-3.115
103,9986817,0.984906,0.014518000000000001,-0.15982000000000002,0.42,-3.3075,-3.1675
104,9986914,0.9852719999999999,0.013663999999999999,-0.160796,0.385,-3.255,-3.185
105,9987011,0.9864921,0.015006,-0.16128399999999998,0.4375,-3.36,-3.1675
106,9987108,0.9861260000000001,0.016104,-0.161406,0.49,-3.6225,-3.0625
107,9987204,0.988566,0.015372,-0.158844,0.5425,-3.5175,-3.15
108,9987301,0.987224,0.01586,-0.15799000000000002,0.6125,-3.57,-3.0975
109,9987398,0.9852719999999999,0.015616,-0.15762400000000001,0.595,-3.745,-3.15
110,9987494,0.9882001,0.014396,-0.156648,0.6125,-3.7625,-3.0975
111,9987591,0.98759,0.013541999999999998,-0.155916,0.6125,-3.6575,-3.1325
112,9987688,0.988566,0.012565999999999999,-0.156526,0.49,-3.78,-3.15
113,9987785,0.987102,0.014396,-0.157136,0.5075,-4.0075,-3.185
114,9987881,0.9873460999999999,0.011834,-0.15677,0.595,-4.0075,-3.15
115,9987978,0.9889319999999999,0.012931999999999999,-0.156526,0.6475,-3.955,-3.0275
116,9988075,0.989908,0.015128,-0.155916,0.595,-4.1475,-3.08
117,9988172,0.9910059999999999,0.01647,-0.154574,0.6125,-4.375,-3.0625
118,9988268,0.9928360999999999,0.01647,-0.151036,0.595,-4.5675,-3.01
119,9988365,0.9921040999999999,0.016225999999999997,-0.14993800000000002,0.7525,-5.005,-2.9925
120,9988462,0.9914940999999999,0.015616,-0.15067,0.8225,-5.1275,-2.9225
121,9988558,0.99125,0.01525,-0.149206,0.8400001,-5.2675,-2.8525
122,9988655,0.9911281,0.016104,-0.15128,0.875,-5.5475,-2.8525
123,9988752,0.9921040999999999,0.015616,-0.154696,0.91,-6.0025,-2.87
124,9988849,0.9892981,0.016958,-0.15201199999999998,0.9625,-6.44,-2.9225
125,9988945,0.9903959999999999,0.017812,-0.15372,1.12,-6.44,-2.9575
126,9989042,0.9889319999999999,0.01647,-0.15396400000000002,1.26,-6.2825,-3.045
127,9989139,0.9861260000000001,0.016104,-0.154696,1.435,-6.3525,-3.115
128,9989236,0.9861260000000001,0.014396,-0.15311,1.5575,-6.3525,-3.1325
129,9989332,0.9853940999999999,0.014884,-0.152988,1.505,-6.3875,-3.115
130,9989429,0.9852719999999999,0.013663999999999999,-0.151036,1.435,-6.3875,-3.0975
131,9989526,0.9836860999999999,0.01464,-0.146766,1.4175,-6.7375,-3.185
132,9989622,0.9853940999999999,0.012322,-0.14688800000000002,1.4875,-6.475,-3.0975
133,9989719,0.9869800999999999,0.01281,-0.144448,1.54,-6.3525,-3.1675
134,9989816,0.987224,0.013175999999999998,-0.141398,1.5225,-6.265,-3.2025
135,9989913,0.9863700000000001,0.016347999999999998,-0.142618,1.4875,-6.195,-3.2025
136,9990009,0.98759,0.014152000000000001,-0.142374,1.4525,-6.1425,-3.22
137,9990106,0.9878341,0.012322,-0.143716,1.365,-6.125,-3.2375
138,9990203,0.9867360999999999,0.009882,-0.14871800000000002,1.4,-6.23,-3.255
139,9990300,0.98759,0.008906,-0.14762,1.3125,-6.4225,-3.255
140,9990396,0.9894200000000001,0.007320001,-0.15018199999999998,1.19,-6.615,-3.325
141,9990493,0.9911281,0.0064659999999999995,-0.15176800000000001,1.085,-6.475,-3.3075
142,9990590,0.9916161,0.007320001,-0.153842,1.085,-6.4575,-3.15
143,9990687,0.9917379999999999,0.008662000999999999,-0.154818,1.1025,-6.7375,-3.1325
144,9990783,0.9873460999999999,0.009028000999999999,-0.158722,0.98,-6.8075,-3.0275
145,9990880,0.9857600000000001,0.008052001,-0.16287000000000001,0.945,-6.7025,-3.01
146,9990977,0.9856379999999999,0.005002,-0.166164,0.8225,-6.7025,-3.0275
147,9991074,0.986858,0.005002,-0.16409,0.6825,-6.6675,-3.08
148,9991170,0.986858,0.005002,-0.16226,0.595,-6.7375,-3.08
149,9991267,0.9862479999999999,0.004636001,-0.15982000000000002,0.7,-6.615,-3.0275
150,9991364,0.98759,0.006954000000000001,-0.157746,0.735,-6.4225,-2.9925
151,9991460,0.984784,0.00793,-0.155428,0.805,-6.44,-2.9225
152,9991557,0.98393,0.009272001,-0.15555,0.875,-6.3525,-2.8175
153,9991654,0.9853940999999999,0.011590000000000001,-0.15555,0.9275,-6.23,-2.7825
154,9991751,0.9851501,0.011468,-0.154574,0.9975,-6.3175,-2.7475
155,9991847,0.9862479999999999,0.010858,-0.15396400000000002,1.0675,-6.4925,-2.8
156,9991944,0.9853940999999999,0.011712,-0.157502,1.155,-6.58,-2.73
157,9992041,0.9869800999999999,0.012322,-0.15799000000000002,1.2425,-6.58,-2.7825
158,9992138,0.987712,0.012931999999999999,-0.160552,1.26,-6.4925,-2.7475
159,9992234,0.989908,0.013541999999999998,-0.16128399999999998,1.2425,-6.7725,-2.7475
160,9992331,0.9895421,0.010492,-0.161772,1.295,-6.9825,-2.9225
161,9992428,0.9878341,0.007442,-0.163846,1.26,-6.965,-3.045
162,9992525,0.9860040999999999,0.005002,-0.165554,1.155,-7.035,-3.185
163,9992621,0.984906,0.005856,-0.164822,0.98,-7.14,-3.2025
164,9992718,0.986858,0.005246,-0.164944,0.8225,-7.21,-3.15
165,9992815,0.9861260000000001,0.005856,-0.16506600000000002,0.6825,-7.315,-3.01
166,9992912,0.9852719999999999,0.005978,-0.16592,0.665,-7.245,-2.8
167,9993008,0.984906,0.007686,-0.1708,0.525,-7.175,-2.6425
168,9993105,0.9852719999999999,0.00793,-0.174094,0.5425,-7.385,-2.66
169,9993202,0.9846620999999999,0.008174001,-0.17433800000000002,0.4025,-7.56,-2.765
170,9993298,0.9857600000000001,0.007442,-0.173118,0.2625,-7.6475,-2.765
171,9993395,0.9851501,0.006954000000000001,-0.172874,0.315,-7.35,-2.7825
172,9993492,0.9851501,0.008540001,-0.172508,0.1925,-7.1225,-2.8175
173,9993589,0.982466,0.009882,-0.169946,0.245,-6.9825,-2.87
174,9993685,0.9822219999999999,0.008540001,-0.167506,0.175,-6.93,-2.9225
175,9993782,0.981978,0.007076001,-0.171776,0.1575,-6.7725,-2.9225
176,9993879,0.9830760000000001,0.005978,-0.171654,0.0525,-6.8775,-2.8875
177,9993976,0.984174,0.0064659999999999995,-0.170922,0.0875,-6.93,-2.9925
178,9994072,0.9823440999999999,0.0061,-0.169458,-0.035,-6.9475,-3.01
179,9994169,0.982466,0.005612,-0.171654,-0.1225,-6.895,-2.905
180,9994266,0.9818561,0.005246,-0.17507,-0.1225,-6.9825,-2.9575
181,9994363,0.980758,0.005856,-0.175314,-0.0525,-6.8425,-2.8875
182,9994459,0.9825879999999999,0.006222,-0.176534,-0.105,-6.7725,-2.87
183,9994556,0.9821,0.00549,-0.17812,-0.0875,-6.8775,-2.8875
184,9994653,0.9822219999999999,0.0061,-0.17836400000000002,-0.14,-6.93,-2.975
185,9994750,0.981978,0.004514,-0.177022,-0.0525,-6.825,-2.8875
186,9994846,0.9817341,0.002196,-0.174948,-0.1575,-6.685,-2.9225
187,9994943,0.9828321,0.002562,-0.176534,-0.3325,-6.51,-2.8875
188,9995040,0.9829540000000001,0.002318,-0.17519200000000001,-0.28,-6.4225,-2.835
189,9995136,0.981978,0.002074,-0.17324,-0.4025,-6.3875,-2.87
190,9995233,0.981002,0.0017079999999999999,-0.17446,-0.5075,-6.37,-2.835
191,9995330,0.9791719999999999,0.0035380000000000003,-0.177022,-0.6475,-6.2825,-2.765
192,9995427,0.9797819999999999,0.0051240009999999996,-0.177754,-0.595,-6.37,-2.7825
193,9995523,0.979294,0.0051240009999999996,-0.177266,-0.7175,-6.51,-2.87
194,9995620,0.9800261,0.003904,-0.1769,-0.6825,-6.3875,-2.835
195,9995717,0.9821,0.005368,-0.177144,-0.525,-6.16,-2.8525
196,9995814,0.9840521000000001,0.008418,-0.177754,-0.2975,-6.1425,-2.8175
197,9995910,0.984418,0.007320001,-0.176046,-0.315,-6.3,-2.7825
198,9996007,0.982466,0.007076001,-0.17446,-0.2275,-6.37,-2.7825
199,9996104,0.9790501,0.006222,-0.17934,-0.0875,-6.335,-2.87
200,9996201,0.978318,0.006344,-0.18056,-0.105,-6.1775,-2.9575
201,9996297,0.9784401,0.0051240009999999996,-0.181658,-0.1225,-6.0375,-3.0625
202,9996394,0.9812460999999999,0.00488,-0.17921800000000002,-0.175,-6.16,-3.0975
203,9996491,0.9802700000000001,0.006344,-0.17934,-0.2975,-6.16,-3.2025
204,9996587,0.9769760000000001,0.00793,-0.180072,-0.245,-6.0025,-3.185
205,9996684,0.978928,0.008052001,-0.180804,-0.07,-5.6875,-3.1325
206,9996781,0.9797819999999999,0.008052001,-0.17921800000000002,0.0175,-5.355,-3.1675
207,9996878,0.9830760000000001,0.009394,-0.17934,0.1925,-5.2675,-3.1675
208,9996974,0.9830760000000001,0.00976,-0.179096,0.595,-5.0925,-3.1325
209,9997071,0.981002,0.013663999999999999,-0.177876,1.1025,-5.215,-3.255
210,9997168,0.9791719999999999,0.014762,-0.177266,1.7325,-5.2675,-3.43
211,9997265,0.9764879999999999,0.01586,-0.160552,2.2575,-5.46,-3.71
212,9997361,0.9740479999999999,0.014396,-0.137738,1.5925,-5.32,-3.8675
213,9997458,0.975878,0.01891,-0.137006,1.085,-4.3575,-4.1125
214,9997555,0.9831981,0.030256,-0.156526,0.7875,-3.045,-4.445
215,9997652,0.988566,0.03477,-0.170434,0.7,-2.625,-5.075
216,9997748,0.9888101,0.028669999999999998,-0.157502,-0.4725,-3.185,-5.8275
217,9997845,0.9857600000000001,0.025986000000000002,-0.14213,-2.73,-4.41,-6.4925
218,9997942,0.9862479999999999,0.031232,-0.1525,-4.2525,-4.6375,-6.8075
219,9998039,0.990762,0.036112,-0.154696,-4.6375,-4.3925,-6.895
220,9998135,0.993812,0.04148,-0.151402,-5.1975,-5.39,-6.685
221,9998232,0.9947881,0.042578,-0.1403,-5.6875,-6.09,-6.2475
222,9998329,0.9979600000000001,0.044407999999999996,-0.135664,-6.37,-5.67,-5.915
223,9998425,0.996008,0.050263999999999996,-0.131272,-6.3525,-5.005,-5.635
224,9998522,0.9864921,0.055510000000000004,-0.129198,-6.44,-4.55,-5.3375
225,9998619,0.980758,0.060024,-0.132492,-6.2825,-4.1825,-4.97
226,9998716,0.978318,0.06356201,-0.13639600000000002,-5.915,-4.025,-4.6375
227,9998812,0.9745360000000001,0.069906,-0.138836,-5.81,-4.0775,-4.27
228,9998909,0.9741700000000001,0.071858,-0.138836,-6.125,-4.3225,-3.9725
229,9999006,0.9736819999999999,0.067832,-0.135786,-6.4225,-4.4975,-3.4825
230,9999103,0.974292,0.05563200000000001,-0.139202,-6.5625,-4.9175,-3.2025
231,9999199,0.976,0.046238,-0.139324,-6.51,-5.04,-2.87
232,9999296,0.9777081,0.045627999999999995,-0.142496,-6.37,-4.48,-2.5725
233,9999393,0.984906,0.049288,-0.14518,-5.565,-3.7275,-2.205
234,9999490,0.99308,0.049166,-0.147498,-5.005,-3.255,-1.7325
235,9999586,0.996862,0.036356,-0.147254,-4.9,-3.29,-1.645
236,9999683,0.99735,0.032695999999999996,-0.147498,-5.705,-3.36,-1.6275
237,9999780,0.9911281,0.041114,-0.142252,-6.3525,-3.2725,-1.3475
238,9999876,0.989664,0.048922,-0.135176,-6.3875,-2.7825,-0.98
239,9999973,0.99369,0.050874,-0.129442,-6.545,-1.96,-0.63
240,10000070,0.9939341,0.053191999999999996,-0.12627,-7.2275,-1.54,-0.21
241,10000167,0.9906401,0.056608000000000006,-0.12980799999999998,-8.225,-1.8025,0.175
242,10000263,0.9897860999999999,0.055144000000000006,-0.13151600000000002,-9.03,-2.8875,0.49
243,10000360,0.989664,0.05453401,-0.127246,-9.8525,-4.095,0.6825
244,10000457,0.9911281,0.05246,-0.127002,-10.535,-4.305,0.945
245,10000554,0.9878341,0.048434,-0.126026,-10.955,-4.0425,1.0675
246,10000650,0.9830760000000001,0.042822000000000006,-0.12212200000000001,-11.27,-3.4475,1.0675
247,10000747,0.978318,0.036356,-0.126026,-11.5325,-2.45,0.91
248,10000844,0.9764879999999999,0.036356,-0.12993,-11.97,-1.33,0.7875
249,10000941,0.9761219999999999,0.035502,-0.127734,-12.1275,-0.49,0.42
250,10001037,0.9761219999999999,0.03538,-0.125782,-12.53,0.35,0.0875
251,10001134,0.976,0.036966000000000006,-0.128344,-12.705,1.2425,-0.35
252,10001231,0.9749021000000001,0.035746,-0.127246,-12.32,1.925,-0.805
253,10001328,0.9713639999999999,0.035136,-0.126392,-11.3575,2.0825,-0.8925
254,10001424,0.972828,0.037576,-0.130662,-9.905,1.75,-0.9975
255,10001521,0.9791719999999999,0.036966000000000006,-0.13639600000000002,-8.295,0.875,-1.085
256,10001618,0.9779521000000001,0.038064,-0.133468,-6.5975,-0.6825,-1.365
257,10001715,0.965996,0.043432,-0.14566800000000002,-4.4625,-1.9075,-2.1525
258,10001811,0.949526,0.046238,-0.145302,-1.715,-3.3075,-3.5175
259,10001908,0.930494,0.045384,-0.14823,0.5425,-4.6725,-5.495
260,10002005,0.920734,0.03538,-0.143716,2.9225,-5.6175,-8.5575
261,10002102,0.9247601000000001,0.021594,-0.140666,4.865,-6.0025,-11.7425
262,10002198,0.9566020000000001,0.01769,-0.125904,6.195,-6.125,-14.3325
263,10002295,1.014918,0.02257,-0.100772,5.5475,-6.1425,-15.6625
264,10002392,1.074576,0.01769,-0.060267999999999995,4.13,-6.16,-15.7325
265,10002489,1.09312,0.004392,-0.032695999999999996,2.45,-6.16,-15.05
266,10002585,1.089338,-0.023058000000000002,-0.018544,0.665,-6.02,-14.2275
267,10002682,1.08092,-0.05063,-0.02135,-2.415,-6.1775,-13.1425
268,10002779,1.073844,-0.06661201,-0.027572000000000003,-6.0025,-8.1025,-11.62
269,10002875,1.080188,-0.073688,-0.033672,-8.0675,-9.94,-10.0275
270,10002972,1.08946,-0.07027201,-0.05185,-8.925,-10.6925,-8.3125
271,10003069,1.1028799999999999,-0.051362,-0.05453401,-10.08,-12.0575,-6.1425
272,10003166,1.097024,-0.026351999999999997,-0.0549,-11.795,-12.74,-2.9575
273,10003262,1.084092,-0.026595999999999998,-0.058682000000000005,-12.3375,-14.4725,0.5775
274,10003359,1.057008,-0.030256,-0.069784,-12.39,-16.8875,3.955
275,10003456,1.017236,-0.045506,-0.066978,-12.3725,-17.7275,6.5275
276,10003553,0.9901521000000001,-0.053436000000000004,-0.06563601,-12.04,-16.73,8.015
277,10003649,0.9697780999999999,-0.052826,-0.057828,-11.445,-15.3825,8.6275
278,10003746,0.9713639999999999,-0.055265999999999996,-0.044896,-10.605,-14.875,8.155
279,10003843,0.9609940999999999,-0.05563200000000001,-0.043432,-9.17,-14.665,7.3325
280,10003940,0.9385460999999999,-0.040504000000000005,-0.047824,-8.0675,-15.89,6.195
281,10004036,0.9269561,-0.040260000000000004,-0.048068,-6.79,-17.0975,3.92
282,10004133,0.9286639999999999,-0.039528,-0.039528,-5.2675,-17.115,2.485
283,10004230,0.9267120000000001,-0.023058000000000002,-0.042822000000000006,-5.915,-15.4525,1.61
284,10004327,0.9287861,-0.015493999999999999,-0.038308,-5.5475,-15.015,0.385
285,10004423,0.9202459999999999,-0.011346,-0.029401999999999998,-5.145,-14.945,-1.085
286,10004520,0.933666,-0.006344,-0.019886,-6.2125,-14.56,-1.995
287,10004617,0.9379360000000001,-0.002318,-0.01342,-7.14,-13.16,-2.6075
288,10004714,0.945744,0.004514,-0.01098,-8.2075,-13.2825,-3.64
289,10004810,0.9628241,-0.0017079999999999999,-0.006954000000000001,-8.9775,-13.86,-4.8825
290,10004907,0.986858,-0.005978,-0.004026,-10.115,-14.1575,-5.95
291,10005004,0.9812460999999999,-0.009272001,-0.0032939999999999996,-10.36,-14.4375,-6.37
292,10005101,0.9736819999999999,-0.016714,-0.003172,-11.025,-15.4875,-6.51
293,10005197,0.971242,-0.027327999999999998,0.006954000000000001,-11.7775,-16.135,-6.2475
294,10005294,0.9772200999999999,-0.032451999999999995,0.018178,-13.125,-15.8725,-5.81
295,10005391,0.968558,-0.025131999999999998,0.026962,-14.3325,-14.7875,-4.6375
296,10005488,0.9701440999999998,-0.02623,0.05160601,-14.9975,-13.7025,-3.465
297,10005584,0.9511120000000001,-0.020984,0.050386,-16.31,-11.6725,-2.2575
298,10005681,0.9514780999999999,-0.013054,0.054412,-18.1125,-11.4625,-0.8925
299,10005778,0.927932,-0.013541999999999998,0.042944,-18.305,-11.3925,-0.6475
300,10005874,0.928054,-0.020130000000000002,0.057096,-18.3925,-12.88,-0.49
301,10005971,0.9467200000000001,-0.022326,0.065514,-19.81,-10.5525,-0.175
302,10006068,0.94611,-0.012444,0.047702,-20.895,-9.38,-0.42
303,10006165,0.954284,-0.021106,0.049654000000000004,-20.195,-11.655,-1.5225
304,10006261,0.9744141,-0.033428,0.057339999999999995,-20.5975,-12.4075,-2.66
305,10006358,0.9940559999999999,-0.040748,0.065026,-21.595,-12.495,-3.7275
306,10006455,1.003694,-0.040382,0.060512,-22.3475,-14.4025,-4.6025
307,10006552,1.020286,-0.047945999999999996,0.05587601,-22.365,-17.6225,-5.32
308,10006648,1.035902,-0.048434,0.03843,-22.715,-21.9625,-4.97
309,10006745,1.04615,-0.05172801,0.014518000000000001,-23.3275,-26.635,-4.34
310,10006842,1.04615,-0.05770599999999999,-0.012931999999999999,-23.9225,-31.4475,-3.64
311,10006939,1.062132,-0.07112601,-0.039406000000000004,-24.605,-35.49,-2.9925
312,10007035,1.081896,-0.07600599999999999,-0.061732,-25.8125,-36.8725,-1.89
313,10007132,1.1100780000000001,-0.08857201,-0.052582000000000004,-27.5625,-36.19,-1.085
314,10007229,1.143872,-0.09186601,-0.029401999999999998,-29.8375,-32.1125,-0.735
315,10007325,1.17303,-0.099552,0.02623,-31.08,-25.375,-1.085
316,10007422,1.189378,-0.09320801,0.08174001,-32.41,-16.8175,-2.24
317,10007519,1.1930379999999998,-0.07027201,0.096624,-32.865,-9.2225,-3.3075
318,10007616,1.235128,-0.095282,-0.20691199999999998,-28.9975,-8.8375,-3.6575
319,10007712,1.30235,-0.05124001,-0.25193000000000004,-16.0125,-18.445,-0.8400001
320,10007809,1.280146,0.126148,-0.20483800000000002,-12.6175,-14.0875,5.215
321,10007906,1.340414,0.236314,-0.191906,-7.5075,-5.4775,8.3475
322,10008003,1.455826,0.325374,-0.26913200000000004,-2.1,-4.8125,10.2025
323,10008099,1.452532,0.363072,-0.37576,6.3525,-15.26,13.195
324,10008196,1.4343540000000001,0.410042,-0.465552,11.13,-29.8725,13.6325
325,10008293,1.38714,0.456158,-0.49995600000000007,15.7325,-29.4,15.0325
326,10008390,1.286246,0.33171799999999996,-0.321836,27.0375,-21.385,14.735
327,10008486,1.107272,0.197152,-0.214598,28.0,-12.5825,11.8475
328,10008583,1.001742,0.045384,-0.144814,29.225,0.105,5.88
329,10008680,0.973316,-0.057584,-0.119926,20.9475,15.61,-1.54
330,10008777,0.948306,-0.181658,-0.16689600000000002,12.635,21.2625,-7.42
331,10008873,0.8674200000000001,-0.2562,-0.277794,4.41,11.9,-9.9575
332,10008970,0.762744,-0.22496799999999997,-0.367708,-6.86,-0.945,-9.625
333,10009067,0.709796,-0.15677,-0.36587800000000004,-11.34,-6.7375,-7.2975
334,10009164,0.736392,-0.09942999999999999,-0.355996,-10.5,-9.52,-4.4625
335,10009260,0.849242,-0.043188,-0.30988000000000004,-5.3725,-14.3325,-1.5225
336,10009357,0.9486720999999999,0.016592,-0.236436,0.7175,-15.05,1.05
337,10009454,0.9929581000000001,0.06112201,-0.202764,6.825,-14.8575,2.7475
338,10009551,0.9591639999999999,0.089304,-0.269864,10.675,-18.725,4.7075
339,10009647,0.8862081,0.130052,-0.328424,14.5425,-26.67,6.1075
340,10009744,0.8910879999999999,0.164944,-0.315004,14.3675,-25.06,2.905
341,10009841,0.8907221,0.140178,-0.27389,13.895,-10.92,-5.4425
342,10009937,0.886452,0.118828,-0.21533000000000002,10.43,-2.66,-13.9825
343,10010034,0.891942,0.105896,-0.183976,6.755,2.1175,-19.3025
344,10010131,0.8367979999999999,0.09333,-0.21045,5.32,1.365,-21.8575
345,10010228,0.794952,0.099674,-0.217648,4.2875,-1.5925,-23.275
346,10010324,0.7922680000000001,0.108702,-0.18178,7.0525,0.21,-22.7675
347,10010421,0.806908,0.13859200000000002,-0.164212,8.54,1.365,-21.63
348,10010518,0.796172,0.14871800000000002,-0.15701400000000001,10.3775,-0.7875,-20.5975
349,10010615,0.8014180000000001,0.146644,-0.147254,11.165,-3.5525,-18.55
350,10010711,0.817156,0.12431800000000001,-0.12285399999999999,13.4925,-2.4675,-17.9025
351,10010808,0.79178,0.11016600000000001,-0.120902,16.3275,-2.1,-17.7625
352,10010905,0.777018,0.096014,-0.11736400000000001,18.095,-4.9,-17.01
353,10011002,0.7625,0.09125599999999999,-0.100772,19.355,-7.0875,-14.5775
354,10011098,0.756644,0.093086,-0.096624,19.635,-8.3475,-11.97
355,10011195,0.774822,0.07832401,-0.08662001,20.0025,-9.94,-9.2225
356,10011292,0.7922680000000001,0.059536,-0.08357,19.4075,-11.76,-4.935
357,10011389,0.7704300000000001,0.057339999999999995,-0.079422,19.1625,-12.4075,-1.1725
358,10011485,0.767502,0.050996,-0.05185,20.545,-11.6375,0.595
359,10011582,0.7612800999999999,0.05917000000000001,-0.018666,20.8425,-9.625,2.625
360,10011679,0.771772,0.07027201,0.0,20.195,-7.6475,4.4275
361,10011776,0.765428,0.06795401,-0.001342,20.5975,-4.6375,5.2325
362,10011872,0.758718,0.062586,0.000732,21.0525,-4.48,5.7575
363,10011969,0.681126,0.066978,-0.02684,21.315,-3.99,7.7175
364,10012066,0.7373681,0.09394001,0.021106,22.61,-0.875,9.8
365,10012163,0.7734800000000001,0.087474,0.020984,24.4125,11.725,7.2975
366,10012259,0.77836,0.09784401,-0.0061,23.52,15.225,5.7575
367,10012356,0.8581479999999999,0.09735601,0.010492,25.6025,17.85,4.025
368,10012453,0.865102,0.06892999999999999,-0.049288,30.975,24.255,-0.1575
369,10012550,0.80215,0.05819401,-0.15799000000000002,30.17,18.6375,-3.7625
370,10012646,0.8436299999999999,0.060634,-0.20313,27.5625,10.745,-4.6725
371,10012743,0.930006,0.08918200000000001,-0.180194,24.6925,6.7375,-5.95
372,10012840,1.026996,0.08674201,-0.099186,20.5275,6.7725,-6.4925
373,10012937,1.1631479999999998,0.063318,0.012444,18.62,15.365,-7.035
374,10013033,1.324676,-0.00305,0.180194,17.99,30.625,-8.3125
375,10013130,1.412028,-0.07551801,0.262544,18.4625,44.6075,-8.505
376,10013227,1.354932,-0.06270801,0.250954,19.3725,49.42,-8.8375
377,10013324,1.297958,0.052703999999999994,0.219112,21.105,47.5825,-7.8225
378,10013420,1.319186,0.24095,-0.24705,29.1375,36.7675,-7.1575
379,10013517,1.4208120000000002,0.216306,-0.451766,32.0775,-0.6825,-7.035
380,10013614,1.6468779999999998,-0.027206,-0.284138,38.815,-10.8325,-13.055
381,10013711,1.717516,-0.023180000000000003,-0.55083,26.9325,-4.5675,-22.0675
382,10013807,1.827316,-0.13151600000000002,-0.639158,-1.4875,-15.1375,-28.14
383,10013904,1.7844939999999998,-0.344894,-0.531554,-12.565,-4.2525,-39.9525
384,10014001,1.4539959999999998,-0.41711800000000004,-0.35197,-23.065,5.39,-50.47
385,10014098,1.133624,-0.21166999999999997,-0.219478,-22.9425,15.1025,-48.0725
386,10014194,0.992714,0.11760799999999999,-0.199104,-19.1275,26.1975,-38.9375
387,10014291,0.978684,0.328058,-0.429806,-1.2425,36.8725,-34.4925
388,10014388,0.9744141,0.361608,-0.648674,16.625,28.91,-33.2325
389,10014485,0.9669721,0.280478,-0.5281380999999999,40.5825,14.4375,-36.855
390,10014581,1.0798219999999998,0.327326,-0.34221,52.745,8.6625,-42.49
391,10014678,1.265384,0.34648,-0.300608,47.4425,6.755,-43.645
392,10014775,1.325164,0.145424,-0.22021,37.1525,0.1925,-39.4275
393,10014872,1.3029600000000001,-0.022082,-0.21752600000000002,27.7025,-8.6625,-33.81
394,10014968,1.22122,-0.08601,-0.309758,17.815,-16.1,-29.8025
395,10015065,1.138382,-0.163602,-0.36661,12.7225,-25.2175,-26.8625
396,10015162,1.113738,-0.17836400000000002,-0.326838,5.7925,-23.9925,-20.65
397,10015259,1.087874,-0.125782,-0.286456,-1.855,-12.04,-9.5725
398,10015355,1.002474,-0.082106,-0.282186,-4.2,-10.92,1.6625
399,10015452,0.8870620000000001,-0.0671,-0.29731399999999997,-2.275,-17.2375,7.945
400,10015549,0.8203280000000001,-0.089426,-0.254004,0.035,-17.4825,10.22
401,10015646,0.7881199999999999,-0.135786,-0.189466,0.35,-12.39,9.66
402,10015742,0.8041020000000001,-0.15579400000000002,-0.15579400000000002,-3.465,-7.245,9.5725
403,10015839,0.785924,-0.15237799999999999,-0.126026,-5.8625,-7.105,11.1475
404,10015936,0.74847,-0.152622,-0.111508,-8.6625,-13.055,9.8875
405,10016033,0.705404,-0.17055599999999999,-0.082838,-9.2925,-17.4125,7.7175
406,10016129,0.696132,-0.183976,-0.07881200000000001,-10.4475,-17.675,7.8225
407,10016226,0.6993041,-0.172752,-0.07832401,-13.16,-16.485,7.8925
408,10016323,0.7248020000000001,-0.149816,-0.053314,-13.16,-14.3325,9.2225
409,10016420,0.69357,-0.10065,-0.05160601,-14.805,-11.5325,10.0975
410,10016516,0.625616,-0.07344400000000001,-0.045506,-13.8075,-12.145,9.135
411,10016613,0.58499,-0.031964,-0.03599,-14.1925,-14.5075,5.705
412,10016710,0.5795,0.02135,-0.04514,-14.49,-12.705,2.03
413,10016807,0.588162,0.049654000000000004,-0.057218,-13.8775,-9.065,-2.2575
414,10016903,0.573156,0.05648601,-0.06112201,-13.5275,-8.96,-6.7025
415,10017000,0.572546,0.05587601,-0.052703999999999994,-16.38,-11.1475,-10.2025
416,10017097,0.603168,0.030744,-0.032818,-20.8425,-12.1625,-13.2125
417,10017194,0.650382,-0.001342,-0.003782,-24.0975,-11.6725,-14.5775
418,10017290,0.715408,-0.036966000000000006,0.010614,-27.405,-9.835,-15.3125
419,10017387,0.74664,-0.07222401,0.037942000000000004,-30.625,-7.8925,-15.2775
420,10017484,0.727974,-0.09247601,-0.023790000000000002,-35.56,-4.5325,-15.1025
421,10017581,0.7722600000000001,-0.119682,-0.0671,-39.7075,-3.57,-14.5425
422,10017677,0.781166,-0.09211,-0.037454,-45.9375,0.8225,-11.655
423,10017774,0.927688,-0.12529400000000002,-0.011468,-50.8725,9.625,-8.5925
424,10017871,1.088606,-0.14152,-0.032818,-48.4225,18.9525,-3.2375
425,10017968,1.119594,-0.064782,-0.07978801,-43.4525,13.055,3.0275
426,10018064,1.099098,0.010248,-0.040382,-32.1125,-3.5,4.62
427,10018161,1.095804,0.062098,0.04404201,-19.075,-7.84,1.3125
428,10018258,1.14497,0.144448,-0.135298,-6.0725,1.2425,-0.8925
429,10018355,1.284904,0.18422,-0.42822,14.9275,1.9775,1.9425
430,10018451,1.49999,0.35282399999999997,-0.391254,33.88,1.155,10.22
431,10018548,1.7020220000000001,0.689666,-0.334524,23.905,15.1725,21.9625
432,10018645,1.81902,0.8294780999999999,-0.608536,19.7575,21.5425,32.4975
433,10018742,1.7432580000000002,0.7139439999999999,-0.490806,35.2975,0.315,40.4775
434,10018838,1.560502,0.518744,-0.322324,39.2175,-6.4225,42.4725
435,10018935,1.4654639999999999,0.36295,-0.17214200000000002,38.815,7.7525,44.1525
436,10019032,1.33712,0.026595999999999998,-0.083936,42.42,33.6525,38.57
437,10019129,1.211948,-0.23997399999999997,-0.0244,43.9075,44.8525,27.44
438,10019225,1.259284,-0.37258800000000003,-0.405528,30.485,38.9375,16.8
439,10019322,1.2364700000000002,-0.408578,-0.5444859999999999,18.2175,1.0325,13.37
440,10019419,1.148264,-0.264252,-0.5504641,-9.0125,-33.1975,17.5
441,10019516,1.1529,-0.217404,-0.522282,-22.1725,-33.0575,21.07
442,10019612,1.2251239999999999,-0.082472,-0.386008,-20.7025,-21.42,21.2275
443,10019709,1.294786,0.050508,-0.22411399999999998,-16.8175,-13.5625,19.39
444,10019806,1.344196,0.09650201,-0.19483399999999998,-6.9475,-17.2725,18.3925
445,10019903,1.1720540000000002,0.13115,-0.258274,0.28,-35.9975,18.48
446,10019999,0.9497701,0.165188,-0.365268,6.4575,-53.515,15.8725
447,10020096,0.8746181000000001,0.132858,-0.363072,13.58,-44.24,7.49
448,10020193,0.9261021,0.10650599999999999,-0.266692,14.6125,-17.43,-3.4475
449,10020290,0.9467200000000001,0.081496,-0.177754,10.955,-5.67,-15.5225
450,10020386,0.856196,0.068686,-0.165554,7.6475,-15.26,-21.0875
451,10020483,0.733952,0.106994,-0.17019,2.66,-29.715,-20.3525
452,10020580,0.66856,0.132004,-0.147254,3.3775,-29.575,-18.69
453,10020677,0.619516,0.17446,-0.13969,6.37,-27.475,-17.045
454,10020773,0.632814,0.196176,-0.102724,7.735,-30.4675,-15.9425
455,10020870,0.6150021,0.23216599999999998,-0.10760399999999999,9.205,-27.895,-13.265
456,10020967,0.6317159999999999,0.23521599999999998,-0.117486,6.9125,-26.39,-14.21
457,10021064,0.604754,0.231312,-0.10797000000000001,5.2675,-25.8475,-13.6325
458,10021160,0.5644939999999999,0.20618000000000003,-0.12029200000000001,5.3725,-22.33,-12.7225
459,10021257,0.5547340000000001,0.152622,-0.12468399999999999,8.12,-18.4625,-10.9025
460,10021354,0.540216,0.11053199999999999,-0.119072,11.0775,-15.9075,-8.435
461,10021451,0.5547340000000001,0.069174,-0.11504600000000001,13.9825,-14.56,-6.3175
462,10021547,0.555832,0.056608000000000006,-0.09930800000000001,16.94,-13.125,-3.5525
463,10021644,0.558638,0.01891,-0.08808401,20.195,-11.3575,-0.525
464,10021741,0.5663239999999999,-0.002684,-0.07881200000000001,23.8525,-11.3575,3.3075
465,10021837,0.58194,0.00305,-0.05795,23.8875,-13.4225,7.665
466,10021934,0.6082920999999999,0.005978,-0.01342,23.9575,-11.935,12.4775
467,10022031,0.646844,0.037698,0.050263999999999996,23.345,-6.1775,15.4525
468,10022128,0.686006,0.06795401,0.11467999999999999,20.65,4.2525,15.9425
469,10022224,0.711504,0.121512,0.103334,15.505,16.1875,15.54
470,10022321,0.67527,0.132004,0.0854,10.9725,24.64,13.265
471,10022418,0.784216,0.15311,0.06661201,9.625,32.1475,11.9525
472,10022515,0.8045899999999999,0.1159,-0.058803999999999995,10.325,33.915,9.9925
473,10022612,0.8729100000000001,0.066734,-0.07027201,11.445,21.5775,11.3575
474,10022708,1.006134,0.039406000000000004,-0.013786000000000001,18.55,20.58,12.355
475,10022805,1.21085,0.10430999999999999,-0.00488,28.49,23.59,9.4325
476,10022902,1.1951120000000002,0.142984,-0.136884,31.5,6.4575,4.3225
477,10022998,1.0626200000000001,0.127002,-0.184586,28.0875,-22.225,5.67
478,10023095,1.01199,0.10187,-0.038064,23.52,-29.6275,12.74
479,10023192,1.128744,0.06795401,0.189344,18.795,-6.4575,16.1
480,10023289,1.297226,-0.08637601,0.317688,16.2225,32.8125,8.995
481,10023385,1.269898,-0.174216,0.26461799999999996,8.365,63.7,-4.41
482,10023482,1.221098,-0.158844,-0.25363800000000003,7.875,64.4875,-12.6175
483,10023579,1.249036,-0.0034159999999999998,-0.5352140000000001,3.9725,13.545,-13.475
484,10023676,1.4034879999999998,-0.10516400000000001,-0.34343,7.875,-16.1175,-11.97
485,10023772,1.564894,-0.24522,-0.6663640000000001,11.585,-16.52,-14.875
486,10023869,1.7943759999999997,-0.185074,-0.6128060000000001,-9.625,-19.1975,-25.2
487,10023966,2.014952,-0.282674,-0.48495,-29.785,6.615,-51.4675
488,10024063,1.553182,-0.278404,-0.407724,-57.33,16.38,-80.115
489,10024159,1.13155,-0.276574,-0.17934,-58.345,14.735,-83.37001
490,10024256,1.0187,0.001586,-0.277062,-47.74,28.6825,-76.685
491,10024353,0.91927,0.31598000000000004,-0.7929999999999999,-38.815,-2.2575,-67.3925
492,10024450,1.050664,0.319274,-0.7914140000000001,-12.67,-25.9175,-63.525
493,10024546,1.250378,0.324886,-0.529724,10.22,3.15,-66.2375
494,10024643,1.4391120000000002,0.438956,-0.371734,16.205,26.6175,-62.0375
495,10024740,1.52988,0.3599,-0.311344,18.8125,26.2325,-47.2325
496,10024837,1.5020639999999998,0.20374,-0.312198,19.74,7.8225,-33.7925
497,10024934,1.34871,0.027694,-0.297802,13.195,-6.65,-27.055
498,10025030,1.249036,-0.073688,-0.275476,2.8875,-6.37,-19.5825
499,10025127,1.215242,-0.08442401,-0.238144,-9.7825,-0.1925,-8.82
500,10025224,1.151924,-0.07551801,-0.223504,-16.415,-0.175,2.2925
501,10025320,1.030046,-0.091012,-0.201422,-20.5275,-7.7525,11.8125
502,10025417,0.9153661,-0.12285399999999999,-0.19556600000000002,-22.7325,-14.42,16.94
503,10025514,0.85888,-0.142862,-0.14871800000000002,-23.4675,-12.9325,17.85
504,10025611,0.716384,-0.143228,-0.156892,-26.6525,-6.7725,15.7675
505,10025707,0.709064,-0.16226,-0.08967,-27.72,-7.0525,11.13
506,10025804,0.71797,-0.16909200000000002,-0.07832401,-29.7675,-3.325,8.155
507,10025901,0.630862,-0.146156,-0.07234600000000001,-31.4825,-7.945,9.205
508,10025998,0.6197600000000001,-0.15945399999999998,-0.037088,-31.6225,-15.96,7.77
509,10026094,0.578158,-0.1464,-0.02745,-31.8325,-15.6275,9.6775
510,10026191,0.571326,-0.17397200000000002,-0.02562,-31.325,-14.3325,11.27
511,10026288,0.569862,-0.144326,-0.045262000000000004,-32.76,-16.485,13.0025
512,10026385,0.587796,-0.111752,-0.02257,-32.9875,-15.155,12.4075
513,10026481,0.552538,-0.058803999999999995,-0.030133999999999998,-30.2575,-11.4625,9.03
514,10026578,0.546072,-0.01952,-0.044774,-29.2425,-11.6375,4.725
515,10026675,0.556686,0.030744,-0.033184,-27.895,-9.135,0.8575
516,10026772,0.51545,0.05636401,-0.033916,-26.2325,-7.385,-2.5025
517,10026868,0.5139859999999999,0.06466001,-0.007198,-26.1975,-9.6775,-6.055
518,10026965,0.525332,0.055388,0.05124001,-28.945,-10.5175,-9.7825
519,10027062,0.5690081,0.037088,0.064782,-33.4075,-11.865,-12.425
520,10027159,0.619638,-0.011834,0.072712,-34.3525,-11.3225,-14.1925
521,10027255,0.673196,-0.051362,0.105774,-34.545,-9.0125,-15.0675
522,10027352,0.716018,-0.045384,0.10638399999999999,-36.575,-4.2175,-14.4725
523,10027449,0.7317560000000001,-0.026595999999999998,0.012444,-40.495,0.945,-12.39
524,10027545,0.742614,0.020862000000000002,-0.045627999999999995,-46.0775,2.135,-8.82
525,10027642,0.8786440999999999,-0.0051240009999999996,-0.062586,-50.82,4.97,-5.145
526,10027739,1.084458,-0.011712,-0.13237000000000002,-49.9625,8.54,-2.1525
527,10027836,1.364814,-0.002318,-0.094062,-44.415,5.18,-2.8875
528,10027932,1.458876,0.037454,-0.01647,-33.2675,-0.595,-2.555
529,10028029,1.4125159999999999,0.119072,0.057339999999999995,-25.7075,-11.76,-6.09
530,10028126,1.305888,0.16835999999999998,0.132492,-19.7225,-11.375,-8.54
531,10028223,1.277218,0.241804,0.25790799999999997,-11.8825,7.77,-4.3225
532,10028319,1.206702,0.238754,0.366976,-8.3825,38.9725,3.7975
533,10028416,1.1486299999999998,0.16433399999999998,0.219844,-11.8125,53.34,6.3875
534,10028513,1.19438,-0.07625,-0.386252,-15.4525,22.89,5.845
535,10028610,1.4713200000000002,-0.023180000000000003,-0.306464,-11.6725,-22.5225,10.5
536,10028706,1.555012,0.163236,-0.371368,-24.6575,-24.605,21.385
537,10028803,1.593076,0.167872,-0.72163,-15.855,-29.085,29.5225
538,10028900,1.8001099999999999,0.27218200000000004,-0.79971,12.285,-42.7875,34.615
539,10028997,1.620526,0.39955,-0.630008,23.905,-34.2825,46.5675
540,10029093,1.334924,0.5653481,-0.273402,29.26,-21.7,53.4625
541,10029190,1.115202,0.5648601,-0.09638,21.8575,1.82,49.6125
542,10029287,0.829722,0.26779000000000003,-0.260714,17.3775,18.97,41.3875
543,10029384,0.7415161,-0.140178,-0.522404,12.1975,-6.615,38.465
544,10029480,0.9470860000000001,-0.243878,-0.44773999999999997,0.5775,-10.22,40.46
545,10029577,1.1773,-0.178608,-0.328302,-15.715,22.855,38.605
546,10029674,1.278438,-0.234118,-0.288896,-15.0675,25.515,36.9775
547,10029771,1.3005200000000001,-0.231434,-0.332206,-9.87,5.775,31.3775
548,10029867,1.3705479999999999,-0.07515201,-0.225944,-7.91,2.4325,19.9675
549,10029964,1.304302,0.018178,-0.211792,-1.05,16.2925,5.1975
550,10030061,1.178886,0.08479,-0.211548,11.725,7.0875,-6.825
551,10030157,1.126426,0.200812,-0.20008,18.76,-9.0125,-16.975
552,10030254,1.032242,0.233752,-0.18995399999999998,22.12,-18.655,-24.29
553,10030351,0.931348,0.263398,-0.198372,22.54,-28.84,-25.0075
554,10030448,0.8341139999999999,0.292434,-0.18470799999999998,23.345,-27.8775,-25.025
555,10030544,0.743468,0.257542,-0.132858,25.62,-20.1775,-22.3125
556,10030641,0.7117479999999999,0.305976,-0.151402,27.3525,-16.065,-17.185
557,10030738,0.699548,0.22386999999999999,-0.11467999999999999,34.6325,-18.9,-16.625
558,10030835,0.709186,0.225944,-0.11224,37.8,-22.995,-13.37
559,10030931,0.6897880999999999,0.23777800000000002,-0.100284,39.1825,-21.9975,-15.085
560,10031028,0.62098,0.22338200000000002,-0.116876,41.6325,-22.505,-14.945
561,10031125,0.7067460999999999,0.202032,-0.040748,42.875,-25.55,-14.56
562,10031222,0.686006,0.159088,-0.043432,42.805,-18.62,-12.9675
563,10031318,0.6414761,0.127856,-0.025254,42.4725,-18.445,-9.3625
564,10031415,0.63867,0.081984,-0.010614,42.7,-18.7425,-6.93
565,10031512,0.60817,0.04392,-0.026108,42.735,-15.9075,-4.305
566,10031609,0.580476,0.012565999999999999,-0.02623,40.25,-15.715,-1.6275
567,10031705,0.576084,-0.037942000000000004,-0.002928,38.395,-14.0525,1.1375
568,10031802,0.562664,-0.07246799999999999,0.013054,37.9575,-9.415,2.8875
569,10031899,0.5753520000000001,-0.079422,0.022692,38.535,-7.49,3.115
570,10031995,0.5605899999999999,-0.041114,0.0305,40.67,-6.3,4.4625
571,10032092,0.554856,-0.011346,0.036722000000000005,41.4225,-5.005,5.11
572,10032189,0.5875520000000001,0.060267999999999995,0.020252000000000003,42.8925,-2.275,4.69
573,10032286,0.603534,0.05977999999999999,-0.05160601,47.4075,0.945,0.8225
574,10032382,0.633058,0.048312,-0.102114,54.285,-1.2425,-0.8225
575,10032479,0.7168720000000001,0.057584,-0.07625,59.2025,-1.9775,0.0525
576,10032576,0.8294780999999999,0.09979600000000001,-0.034038,64.41751,7.6125,0.9275
577,10032673,0.9591639999999999,0.160186,-0.054778,63.77,16.17,-1.9075
578,10032769,1.0876299999999999,0.08845001,-0.045506,55.09,11.6025,-6.475
579,10032866,1.11081,-0.004392,0.015982,39.4975,2.065,-6.37
580,10032963,1.19133,-0.062586,0.140422,21.98,-3.8325,-1.925
581,10033060,1.416664,-0.14383800000000002,0.316224,5.6,1.925,2.6775
582,10033156,1.470588,-0.399428,0.42639,-0.7525,25.725,1.995
583,10033253,1.2761200000000001,-0.407846,0.32635,-5.635,46.4975,-9.835
584,10033350,1.21573,-0.2989,0.27279200000000003,-5.46,52.2375,-17.5
585,10033447,1.230126,-0.13859200000000002,-0.07173600000000001,7.875,44.7475,-16.5375
586,10033543,1.2791700000000001,0.10833599999999999,-0.44212799999999997,16.38,-2.905,-8.2775
587,10033640,1.425326,0.133346,-0.12627,23.7825,-45.85,2.1
588,10033737,1.590514,0.05770599999999999,-0.25315,37.03,-32.6025,-4.48
589,10033834,1.606496,0.185318,-0.59231,10.5175,-22.435,-23.45
590,10033930,1.637606,0.06527000000000001,-0.839482,-28.245,-35.7175,-39.48
591,10034027,1.45119,-0.25351599999999996,-0.6563601,-40.11,-32.13,-56.245
592,10034124,1.248792,-0.409188,-0.524478,-46.76,-4.865,-62.93
593,10034221,1.0431,-0.37454,-0.39345,-30.345,20.72,-63.1225
594,10034317,0.90585,0.114802,-0.500078,-33.215,0.56,-62.265
595,10034414,0.912438,0.18043800000000002,-0.45323,-9.6775,-13.965,-63.9275
596,10034511,1.10776,0.223016,-0.43163599999999996,11.97,14.8225,-66.53501
597,10034608,1.376526,0.371612,-0.381128,16.205,39.76,-65.975
598,10034704,1.5616,0.398452,-0.283894,19.7225,44.1525,-56.4375
599,10034801,1.6384599999999998,0.31659,-0.21142600000000003,16.3625,26.6,-41.8775
600,10034898,1.4457,0.142618,-0.190076,15.4175,4.4975,-28.805
601,10034995,1.300886,-0.002684,-0.2135,6.615,-9.24,-18.06
602,10035091,1.23403,-0.081618,-0.232044,-7.07,-3.395,-3.9725
603,10035188,1.1651,-0.14310599999999998,-0.21313400000000002,-17.955,-0.3325,8.4525
604,10035285,1.087874,-0.183976,-0.174582,-25.445,-9.45,16.5725
605,10035382,1.013088,-0.18117,-0.15921,-30.7475,-15.1725,22.1375
606,10035478,0.890966,-0.144204,-0.159698,-32.795,-17.3425,23.31
607,10035575,0.79483,-0.165432,-0.14383800000000002,-32.13,-19.4425,19.46
608,10035672,0.76067,-0.1586,-0.121268,-31.675,-16.8,15.2775
609,10035768,0.73932,-0.143594,-0.09125599999999999,-34.3175,-16.6425,13.0025
610,10035865,0.7126020000000001,-0.166042,-0.06466001,-33.53,-19.4075,11.06
611,10035962,0.655994,-0.131882,-0.077714,-34.895,-24.675,10.0625
612,10036059,0.6240300999999999,-0.104066,-0.057584,-31.6925,-28.735,8.9775
613,10036155,0.626714,-0.11431400000000001,-0.055510000000000004,-31.08,-28.21,13.37
614,10036252,0.611586,-0.11577799999999999,-0.05453401,-32.9,-28.84,12.8625
615,10036349,0.636474,-0.069906,0.01464,-33.425,-29.995,10.9375
616,10036446,0.603534,-0.025742,-0.012444,-32.445,-24.64,9.59
617,10036542,0.6068279999999999,0.013297999999999999,-0.014152000000000001,-29.645,-22.3475,7.0175
618,10036639,0.577914,0.06039,-0.030866,-29.715,-20.51,4.305
619,10036736,0.55083,0.069174,-0.03416,-29.4,-21.84,1.05
620,10036833,0.525332,0.068686,-0.0488,-31.9725,-23.5025,-1.9425
621,10036929,0.506422,0.044896,-0.033428,-34.5975,-23.9575,-4.9875
622,10037026,0.5343600000000001,0.016836,0.005002,-36.6975,-24.5875,-8.4525
623,10037123,0.5892601,-0.01769,0.027938,-37.59,-22.19,-11.235
624,10037220,0.6414761,-0.050996,0.08564401,-38.185,-14.7525,-12.81
625,10037316,0.704916,-0.034038,0.08637601,-40.7925,-3.0275,-13.0025
626,10037413,0.72102,0.008540001,0.042944,-44.38,5.005,-11.8125
627,10037510,0.74847,0.019275999999999998,0.018056,-46.305,7.5775,-9.765
628,10037607,0.791048,0.008296000999999999,-0.006222,-46.9,13.5975,-7.5775
629,10037703,0.978196,0.045262000000000004,-0.07991000000000001,-42.9625,19.0225,-4.865
630,10037800,1.181326,0.11224,-0.044896,-32.55,17.57,-2.1525
631,10037897,1.253916,0.169214,0.034404000000000004,-16.975,10.955,-0.5075
632,10037994,1.304058,0.22448,0.12139000000000001,-5.705,0.7525,-0.805
633,10038090,1.231834,0.26352,0.168482,2.6425,-0.2975,-0.7
634,10038187,1.216218,0.31756599999999996,0.147498,10.57,11.655,0.3675
635,10038284,1.1777879999999998,0.23606999999999997,-0.396378,14.0,19.25,2.9575
636,10038380,1.224758,0.152134,-0.239364,25.27,0.49,4.83
637,10038477,1.482178,0.28975,-0.258762,7.175,7.035,10.6575
638,10038574,1.619306,0.224358,-0.7204100999999999,6.16,7.63,17.15
639,10038671,1.894538,0.19861600000000001,-0.7589621,23.6775,-25.55,21.42
640,10038767,2.031544,0.423096,-0.60512,30.1175,-14.14,37.835
641,10038864,1.4269120000000002,0.555832,-0.08576601,36.925,15.33,58.03
642,10038961,0.984784,0.297192,0.037576,44.205,19.32,49.595
643,10039058,0.9975940999999999,0.000122,0.06380599999999999,48.37,21.6825,32.55
644,10039154,1.054934,-0.156282,-0.355508,14.63,40.1275,22.715
645,10039251,1.072868,-0.49044,-0.469944,14.8575,19.67,22.435
646,10039348,1.109224,-0.330498,-0.396378,-8.8025,2.38,24.7625
647,10039444,1.149118,-0.24888000000000002,-0.389912,-22.96,5.5825,23.8525
648,10039541,1.282098,-0.165188,-0.363926,-15.4525,-1.0675,21.7875
649,10039638,1.4009260000000001,0.00793,-0.264252,-13.7375,7.315,17.5525
650,10039735,1.49023,0.111508,-0.128466,-7.5425,13.0025,12.915
651,10039831,1.371768,0.184098,-0.18422,0.735,-0.2975,8.82
652,10039928,1.160952,0.22496799999999997,-0.271206,14.5775,-23.94,4.305
653,10040025,1.0584719999999999,0.252784,-0.292434,25.1125,-26.215,-4.13
654,10040122,1.072746,0.22472399999999998,-0.20923000000000003,30.0475,-10.1325,-14.665
655,10040218,0.9897860999999999,0.205204,-0.157746,26.2325,-8.5225,-21.35
656,10040315,0.879986,0.21215799999999999,-0.158966,20.86,-20.8775,-22.33
657,10040412,0.784094,0.21008400000000002,-0.169214,19.1625,-27.0375,-20.825
658,10040509,0.717238,0.236436,-0.15420799999999998,21.2625,-25.515,-17.5175
659,10040605,0.704062,0.228262,-0.132736,26.4425,-23.3275,-17.115
660,10040702,0.6944241,0.186172,-0.09284201,32.69,-25.3925,-17.325
661,10040799,0.676124,0.187392,-0.081496,30.5025,-29.05,-16.2225
662,10040895,0.658312,0.219966,-0.068686,28.28,-26.67,-16.3625
663,10040992,0.6679501,0.155672,-0.07198,29.1725,-19.6,-18.27
664,10041089,0.627568,0.09040201,-0.09418401,29.5925,-17.5175,-17.955
665,10041186,0.6157341,0.055144000000000006,-0.079056,29.4,-19.985,-16.73
666,10041282,0.6311060000000001,0.041114,-0.060634,31.3775,-18.305,-13.44
667,10041379,0.6439159999999999,0.024034,-0.038064,33.145,-14.875,-9.9925
668,10041476,0.5987760999999999,0.025254,-0.043798000000000004,33.005,-12.8625,-5.8975
669,10041573,0.560346,-0.00122,-0.03843,32.865,-13.1775,-2.52
670,10041669,0.547292,-0.01891,-0.020862000000000002,33.5125,-14.035,0.77
671,10041766,0.547292,-0.012078,0.017446,33.46,-15.19,3.4125
672,10041863,0.5602239999999999,0.009394,0.079544,32.8475,-15.0675,5.8275
673,10041960,0.5614439999999999,0.039894,0.10760399999999999,30.7125,-11.4625,7.455
674,10042056,0.573522,0.08723001,0.055754,27.72,-6.6675,8.54
675,10042153,0.5842579999999999,0.12053599999999999,0.056852,23.24,-4.41,8.5925
676,10042250,0.5551,0.110044,-0.0064659999999999995,22.1725,0.1925,8.7675
677,10042347,0.6258600000000001,0.053314,-0.016836,24.1325,-2.45,9.8525
678,10042443,0.702232,-0.009882,-0.03416,26.215,1.3475,10.745
679,10042540,0.924882,-0.004636001,0.008540001,26.145,7.0,7.9975
680,10042637,1.071892,0.0549,-0.07344400000000001,19.7575,11.6725,2.6075
681,10042734,1.13765,0.05246,-0.16287000000000001,7.665,1.5575,-0.245
682,10042830,1.2580639999999998,-0.017568,-0.099674,-1.225,-11.235,0.6125
683,10042927,1.294786,-0.078446,0.046360000000000005,-2.2925,-13.79,3.0625
684,10043024,1.3443180000000001,-0.040992,0.19276,-7.105,-9.8175,5.2675
685,10043120,1.36884,-0.12456199999999999,0.33671999999999996,-5.1975,10.185,1.365
686,10043217,1.235372,-0.167994,0.307562,-3.465,33.88,-6.3525
687,10043314,1.244156,-0.12248800000000001,0.277916,-7.5775,46.8825,-10.0625
688,10043411,1.289906,0.003782,0.00244,-5.25,43.6975,-10.535
689,10043507,1.17669,0.163846,-0.374784,-3.0625,0.8225,-5.18
690,10043604,1.2220739999999999,0.149084,-0.220088,-0.3675,-38.3075,4.34
691,10043701,1.477542,0.114436,-0.326838,11.2175,-33.25,-1.155
692,10043798,1.587098,0.135908,-0.571204,-5.6525,-30.9225,-13.1425
693,10043894,1.7345959999999998,0.007198,-0.592066,-30.1175,-22.7325,-29.1375
694,10043991,1.7561900000000001,-0.232898,-0.426756,-44.0475,0.8575,-49.6475
695,10044088,1.3857979999999999,-0.309148,-0.237656,-47.81,16.205,-61.3025
696,10044185,1.11935,-0.167018,-0.27999,-41.6675,15.715,-60.0775
697,10044281,0.9729501,0.134932,-0.4697,-28.805,10.0975,-55.44
698,10044378,0.8852321,0.25071,-0.627446,-6.7725,-0.0175,-52.71
699,10044475,1.0406600000000001,0.218502,-0.55571,21.77,-6.09,-54.4775
700,10044572,1.28344,0.36539,-0.438224,29.505,9.3275,-58.45
701,10044668,1.526098,0.43724799999999997,-0.267302,24.3075,25.0775,-54.145
702,10044765,1.6468779999999998,0.256444,-0.167384,22.9425,24.745,-41.3
703,10044862,1.519754,0.077958,-0.18324400000000002,16.2575,-4.3225,-32.1825
704,10044959,1.300642,-0.024522,-0.2684,5.0575,-33.6,-24.255
705,10045055,1.2458639999999999,-0.080886,-0.309148,-1.1375,-32.13,-14.735
706,10045152,1.230492,-0.106994,-0.282552,-12.7925,-13.7375,-3.5875
707,10045249,1.102026,-0.139202,-0.253882,-17.92,-15.435,6.965
708,10045346,1.050054,-0.157502,-0.175558,-20.825,-25.83,14.4725
709,10045442,0.919636,-0.130052,-0.168726,-24.5175,-26.8275,18.5325
710,10045539,0.823622,-0.124074,-0.14871800000000002,-24.01,-25.06,18.76
711,10045636,0.705892,-0.086864,-0.16592,-27.195,-19.2675,16.6075
712,10045733,0.6771,-0.15091400000000002,-0.081252,-25.095,-18.6725,10.99
713,10045829,0.643306,-0.15176800000000001,-0.110776,-28.5775,-14.0875,8.8725
714,10045926,0.59719,-0.215086,-0.079666,-24.8325,-14.0,8.995
715,10046023,0.574986,-0.220698,-0.080886,-24.15,-19.845,10.9375
716,10046120,0.5673,-0.18995399999999998,-0.054046000000000004,-25.935,-23.52,9.1875
717,10046216,0.55815,-0.123464,-0.019764,-25.2525,-22.5575,12.6875
718,10046313,0.5785241,-0.1037,-0.015982,-21.98,-17.71,12.8975
719,10046410,0.580598,-0.05612,-0.049776,-21.7525,-16.3975,7.98
720,10046507,0.5353359999999999,0.028304000000000003,-0.09028,-26.4075,-17.6225,4.0425
721,10046603,0.49605200000000005,0.08064199,-0.10943399999999999,-28.42,-17.6225,1.2425
722,10046700,0.47763,0.110654,-0.12175599999999999,-28.805,-17.57,-1.8725
723,10046797,0.48726800000000003,0.116754,-0.129564,-29.0675,-18.655,-6.0025
724,10046893,0.5288701,0.08967,-0.12065799999999999,-29.365,-20.5975,-10.185
725,10046990,0.576206,0.046238,-0.070638,-29.015,-21.525,-14.56
726,10047087,0.651846,0.01464,-0.035136,-29.295,-21.91,-17.4475
727,10047184,0.7373681,-0.027327999999999998,0.04453,-27.4575,-19.32,-18.1825
728,10047280,0.84241,-0.043188,0.136152,-25.585,-10.3425,-16.4675
729,10047377,0.8918200000000001,-0.046604,0.174826,-24.1325,5.1625,-13.09
730,10047474,0.8893800999999999,-0.015006,0.134688,-25.55,13.9825,-9.1
731,10047571,0.8471681000000001,0.028426,0.071858,-29.5225,13.51,-5.3025
732,10047667,0.810934,0.031476,0.024156,-31.1325,11.725,-2.905
733,10047764,0.93086,0.039528,-0.038186000000000005,-28.35,11.6025,-1.3475
734,10047861,1.066768,0.104066,-0.127368,-21.455,11.97,-0.4375
735,10047958,1.178276,0.139202,-0.053436000000000004,-9.485,4.7425,-0.5425
736,10048054,1.20048,0.21679400000000001,0.037576,-1.9775,-2.0825,-0.5075
737,10048151,1.18706,0.227042,0.09381801,2.8,-2.135,-3.115
738,10048248,1.236226,0.237656,0.202398,5.7225,11.375,-4.0075
739,10048345,1.217682,0.261202,0.320738,-2.8,29.435,-2.205
740,10048441,1.1599760000000001,0.11834000000000001,-0.000122,-11.2,37.3625,-2.555
741,10048538,1.167174,-0.207644,-0.5579061,-8.3825,4.27,-4.6375
742,10048635,1.41215,-0.089914,-0.38979,-6.37,-24.0275,-2.275
743,10048732,1.47376,0.08698601,-0.450668,-19.5125,-8.3125,10.36
744,10048828,1.4691239999999999,0.19337000000000001,-0.620858,-0.1925,-11.8125,23.345
745,10048925,1.63907,0.34733400000000003,-0.7183361,22.7325,-28.4375,35.0
746,10049022,1.6104,0.434442,-0.655994,38.185,-24.6925,51.1875
747,10049119,1.472906,0.493978,-0.516792,49.8225,-27.6325,58.0825
748,10049215,1.263066,0.519598,-0.6537980999999999,51.065,-21.4025,54.8275
749,10049312,0.9519661,0.330254,-0.381372,49.14,-10.115,51.17
750,10049409,0.870592,0.05795,-0.248148,29.89,-1.33,44.2225
751,10049506,1.107882,-0.17324,-0.268888,18.1125,15.155,37.9225
752,10049602,1.264774,-0.279014,-0.306342,2.24,24.885,31.465
753,10049699,1.4245940000000001,-0.3355,-0.361852,-5.775,17.675,22.995
754,10049796,1.393362,-0.254126,-0.33818400000000004,-5.705,11.3575,15.2075
755,10049893,1.26453,-0.09552601,-0.318298,-5.8975,8.4175,6.3
756,10049989,1.203408,0.05185,-0.318786,0.385,3.8675,-1.365
757,10050086,1.160464,0.195322,-0.262544,10.535,-3.1325,-7.245
758,10050183,1.118984,0.24949000000000002,-0.230946,21.6125,-13.055,-12.5125
759,10050279,1.007598,0.274012,-0.228384,28.3325,-24.7975,-15.0325
760,10050376,0.9024341,0.29585,-0.22496799999999997,30.38,-33.9675,-16.8
761,10050473,0.8422879999999999,0.229726,-0.184098,35.875,-32.585,-19.6525
762,10050570,0.7740901,0.226066,-0.17848599999999998,36.05,-29.015,-19.4075
763,10050666,0.686128,0.213988,-0.161772,37.8175,-30.31,-17.5525
764,10050763,0.6649,0.189588,-0.13237000000000002,41.9475,-30.8175,-15.3825
765,10050860,0.651846,0.20178800000000002,-0.129442,42.1575,-25.7425,-13.5625
766,10050957,0.648796,0.18178,-0.100284,43.7675,-21.63,-14.98
767,10051053,0.602558,0.17214200000000002,-0.09333,42.5425,-20.1775,-14.9625
768,10051150,0.584014,0.146278,-0.065148,42.595,-18.83,-15.435
769,10051247,0.614758,0.103822,-0.038551999999999996,41.86,-14.3325,-16.205
770,10051344,0.6202479999999999,0.05917000000000001,-0.037332,38.955,-11.2,-15.5225
771,10051440,0.616344,0.0061,-0.05587601,35.945,-8.6275,-14.315
772,10051537,0.5854779999999999,-0.040016,-0.061488,34.5275,-7.42,-12.5125
773,10051634,0.564372,-0.050874,-0.053070000000000006,31.4825,-9.38,-10.0275
774,10051731,0.5852341,-0.056852,-0.049776,29.33,-9.7825,-7.07
775,10051827,0.6097560000000001,-0.054412,-0.060024,26.705,-8.8725,-4.375
776,10051924,0.653188,-0.039772,-0.020984,23.6775,-9.345,-0.6825
777,10052021,0.69662,-0.012565999999999999,0.03477,21.0,-8.2775,3.92
778,10052118,0.7332201,0.024766,0.07002799999999999,18.445,-5.04,8.3125
779,10052214,0.7643300000000001,0.049532,0.081862,16.905,-0.245,11.3225
780,10052311,0.7537159999999999,0.065148,0.066246,16.24,5.2325,12.3725
781,10052408,0.75274,0.085522,0.06636801,15.9425,11.48,11.9875
782,10052504,0.771772,0.064538,0.042822000000000006,17.4825,18.1475,12.215
783,10052601,0.784582,0.03599,0.038064,18.97,23.835,13.7025
784,10052698,0.787144,-0.003782,0.05063,20.615,29.1025,15.0325
785,10052795,0.9990581000000001,0.024888,-0.020374,19.4775,31.0625,14.385
786,10052891,1.088606,0.02257,-0.165188,13.545,21.6825,9.4675
787,10052988,1.129842,-0.018544,-0.138104,1.68,0.105,8.0325
788,10053085,1.189622,-0.07173600000000001,-0.01769,-6.7725,-5.7575,10.9725
789,10053182,1.167296,-0.09735601,0.1159,-10.0275,5.915,13.09
790,10053278,1.217682,-0.10858,0.233752,-14.105,23.765,7.455
791,10053375,1.250988,-0.09442801,-0.039894,-11.2875,39.06,-4.13
792,10053472,1.2159739999999999,-0.024034,-0.374296,-8.0675,30.52,-10.71
793,10053569,1.308694,-0.074542,-0.14518,-0.7875,12.8975,-13.51
794,10053665,1.5281719999999999,-0.15725799999999998,-0.123098,13.195,13.3,-17.36
795,10053762,1.604056,0.012688,-0.364902,2.24,6.4575,-19.88
796,10053859,1.600396,0.06039,-0.33916,-11.3925,-2.625,-23.9225
797,10053956,1.6644459999999999,0.133224,-0.28682199999999997,-17.57,-0.49,-35.9975
798,10054052,1.514874,0.171532,-0.24339,-25.1825,6.23,-46.9525
799,10054149,1.394094,0.167506,-0.316834,-25.97,9.3275,-46.27
800,10054246,1.3352899999999999,0.23838800000000002,-0.453962,-26.4775,6.3,-43.0325
801,10054343,1.2755100000000001,0.089304,-0.404186,-8.0675,1.8725,-44.8
802,10054439,1.155828,0.013297999999999999,-0.45115600000000006,13.265,-5.1625,-46.5675
803,10054536,1.16327,0.05355801,-0.421754,24.675,-13.7375,-48.72
804,10054633,1.224636,0.057218,-0.35172600000000004,33.9675,-7.35,-48.1075
805,10054730,1.358714,0.038796,-0.24912399999999998,33.53,2.7825,-43.995
806,10054826,1.399828,-0.013054,-0.140666,22.995,3.605,-35.245
807,10054923,1.329434,-0.08369201,-0.129076,9.2925,-7.3325,-24.4825
808,10055020,1.206092,-0.11321600000000001,-0.200202,-4.4975,-22.365,-14.8225
809,10055117,1.13216,-0.190442,-0.22496799999999997,-15.47,-28.5425,-6.5975
810,10055213,1.061034,-0.232654,-0.260348,-27.0025,-25.34,1.365
811,10055310,1.056886,-0.21752600000000002,-0.26303200000000004,-37.5025,-22.855,9.8
812,10055407,1.0018639999999999,-0.202764,-0.234118,-42.735,-19.74,16.2225
813,10055504,0.9351299999999999,-0.1891,-0.214232,-43.5925,-20.5975,19.53
814,10055600,0.869616,-0.186416,-0.162138,-41.2475,-22.0325,19.3725
815,10055697,0.8331381,-0.190076,-0.091988,-40.425,-21.245,16.8
816,10055794,0.7360260000000001,-0.177266,-0.10650599999999999,-40.8975,-18.06,15.7675
817,10055891,0.709186,-0.160918,-0.08235001,-41.195,-20.2125,14.91
818,10055987,0.652334,-0.139934,-0.07991000000000001,-42.9975,-19.285,15.82
819,10056084,0.624152,-0.136152,-0.07417601,-41.7375,-21.525,15.68
820,10056181,0.5814520000000001,-0.131394,-0.071492,-42.2625,-22.645,14.2975
821,10056278,0.5455840000000001,-0.114436,-0.054778,-42.5075,-22.575,11.3575
822,10056374,0.5785241,-0.082838,-0.03599,-43.365,-19.6175,9.7825
823,10056471,0.6097560000000001,-0.027694,-0.041846,-45.815,-15.7675,10.955
824,10056568,0.573278,0.024888,-0.078202,-47.39,-17.7275,11.6375
825,10056665,0.542046,0.055998,-0.08064199,-48.5275,-24.045,9.905
826,10056761,0.545462,0.08662001,-0.0793,-51.38,-25.6025,6.965
827,10056858,0.551074,0.082838,-0.07551801,-51.695,-24.64,3.99
828,10056955,0.579378,0.07198,-0.081374,-50.9075,-26.2675,0.665
829,10057052,0.608658,0.047336,-0.088328,-49.91,-29.2425,-2.87
830,10057148,0.634278,0.018666,-0.08466801,-48.4575,-31.8675,-6.44
831,10057245,0.696986,0.0064659999999999995,-0.057218,-47.5125,-30.0825,-8.8025
832,10057342,0.775188,-0.007076001,-0.009272001,-45.71,-21.9275,-9.765
833,10057439,0.858392,-0.005734,0.037332,-43.4,-12.3375,-9.7475
834,10057535,0.9125601000000001,-0.004758,0.07625,-41.1425,-4.13,-8.995
835,10057632,0.9392780000000001,-0.008540001,0.12932000000000002,-39.795,1.2775,-8.365
836,10057729,0.9439139999999999,0.009272001,0.130906,-39.725,7.2625,-7.28
837,10057826,0.924882,0.06771001,0.090646,-39.27,10.22,-5.705
838,10057922,0.8943821,0.117852,0.008418,-35.7,7.875,-4.4625
839,10058019,0.9566020000000001,0.12175599999999999,-0.135908,-27.965,0.7525,-4.935
840,10058116,1.106662,0.09589201,-0.202154,-16.905,-7.7175,-6.7725
841,10058213,1.208776,0.10675,-0.130052,-8.96,-12.775,-8.96
842,10058309,1.2725819999999999,0.14396,-0.064416,-5.3375,-14.0175,-9.9925
843,10058406,1.19865,0.14347200000000002,-0.023668,0.49,-10.115,-9.6075
844,10058503,1.157292,0.161772,0.070882,4.9175,0.5425,-7.5075
845,10058600,1.2045059999999999,0.195932,0.203496,0.665,23.1525,-3.6925
846,10058696,1.18889,0.118828,-0.010736,0.0525,39.6725,-1.0675
847,10058793,1.15412,-0.009272001,-0.199104,5.6175,25.2,-1.82
848,10058890,1.253794,-0.035746,-0.238144,-1.2425,12.4075,-1.295
849,10058986,1.338462,-0.037332,-0.36295,-7.4375,11.585,2.9225
850,10059083,1.372134,-0.027572000000000003,-0.556686,-0.9975,0.42,6.8775
851,10059180,1.489254,0.036233999999999995,-0.596946,11.6725,-7.21,13.825
852,10059277,1.5195100000000001,0.15054800000000002,-0.430782,21.9625,3.2375,27.4925
853,10059373,1.351516,0.305122,-0.242902,20.58,8.925,38.22
854,10059470,1.061888,0.34953,-0.23838800000000002,22.855,1.54,39.62
855,10059567,0.8483879999999999,0.2196,-0.318664,21.525,-1.995,33.67
856,10059664,0.8491200000000001,0.146278,-0.288408,0.1925,12.705,29.33
857,10059760,1.012722,-0.042212,-0.331596,-14.21,34.195,28.6125
858,10059857,1.242326,-0.131638,-0.271572,-17.8325,42.14,30.6425
859,10059954,1.348466,-0.163236,-0.22033200000000003,-24.535,44.485,28.7525
860,10060051,1.37799,-0.193126,-0.225456,-16.0125,29.8375,22.4
861,10060147,1.319064,-0.11650999999999999,-0.249612,-10.92,8.575,15.75
862,10060244,1.25904,0.029524,-0.20410599999999998,-1.8375,2.5375,9.3275
863,10060341,1.2106059999999998,0.14993800000000002,-0.20703400000000002,13.2825,-0.1225,-0.21
864,10060438,1.14619,0.284992,-0.20190999999999998,25.69,-9.7125,-10.2025
865,10060534,1.063108,0.312198,-0.22082,30.73,-14.805,-18.1125
866,10060631,1.051396,0.288286,-0.204716,33.0225,-14.84,-23.0825
867,10060728,0.9293961,0.24339,-0.14823,36.26,-4.515,-29.6275
868,10060825,0.868396,0.233508,-0.148108,35.6475,-7.63,-30.1
869,10060921,0.847412,0.22362600000000002,-0.145912,35.0525,-8.05,-26.915
870,10061018,0.814472,0.18483,-0.09211,38.01,-6.4925,-23.52
871,10061115,0.806054,0.19032000000000002,-0.08332601,36.19,-4.4975,-19.8275
872,10061211,0.823622,0.14579,-0.02928,40.705,-4.5325,-21.1225
873,10061308,0.811178,0.1281,-0.042334,41.195,-9.1525,-20.5975
874,10061405,0.7823859999999999,0.10650599999999999,-0.03477,42.3675,-17.78,-19.0575
875,10061502,0.760182,0.090036,-0.024278,41.0725,-24.955,-16.555
876,10061598,0.726754,0.065514,-0.013054,38.6575,-27.4925,-12.775
877,10061695,0.7141881,0.040992,-0.013663999999999999,35.42,-26.7925,-9.4325
878,10061792,0.690032,0.00976,-0.025254,32.375,-24.57,-7.1925
879,10061889,0.682956,-0.011224,-0.023546,29.8725,-22.3825,-4.375
880,10061985,0.66673,-0.034526,-0.010858,27.7375,-18.3575,-1.855
881,10062082,0.6439159999999999,-0.05977999999999999,-0.003904,25.2175,-14.6475,0.0
882,10062179,0.627934,-0.063928,0.008174001,22.085,-12.5475,1.1025
883,10062276,0.648674,-0.069662,0.041114,20.0725,-10.4825,1.7675
884,10062372,0.638792,-0.039406000000000004,0.0366,17.815,-6.825,1.925
885,10062469,0.6252501,0.00366,0.019764,16.45,-5.53,2.0125
886,10062566,0.61732,0.041114,-0.008662000999999999,17.2025,-6.4925,1.26
887,10062663,0.619516,0.054412,-0.03599,21.4375,-8.61,-0.35
888,10062759,0.6347661,0.07869,-0.06746601,28.8225,-10.885,-1.925
889,10062856,0.607926,0.11163,-0.115656,36.1025,-12.845,-2.7125
890,10062953,0.735538,0.187026,-0.08174001,40.3725,-15.8725,-2.135
891,10063050,0.8977980999999999,0.229604,-0.180926,43.4,-12.5825,-2.4675
892,10063146,1.06933,0.20508200000000001,-0.11333800000000001,40.8975,-9.17,-6.195
893,10063243,1.052616,0.10430999999999999,-0.113094,33.39,1.7325,-7.595
894,10063340,1.054202,0.025986000000000002,0.009028000999999999,21.56,4.795,-4.095
895,10063437,1.102026,-0.062586,0.226798,11.6025,13.2125,-0.7
896,10063533,1.2191459999999998,-0.133956,0.388692,3.4825,30.6075,-3.325
897,10063630,1.2256120000000001,-0.199958,0.403332,5.9325,48.9125,-14.1925
898,10063727,1.2021879999999998,-0.186172,0.174216,11.5325,54.39,-23.205
899,10063824,1.209752,-0.143228,-0.24339,14.4375,35.5075,-26.04
900,10063920,1.3542,-0.08052000000000001,-0.07808001,20.3525,1.12,-22.5225
901,10064017,1.570384,-0.046116000000000004,-0.064782,39.445,-8.225,-21.735
902,10064114,1.664202,0.03904,-0.38064000000000003,38.3425,-15.61,-25.34
903,10064211,1.738378,0.07588400000000001,-0.5188659999999999,13.4925,-27.5275,-34.685
904,10064307,1.7575319999999999,0.030622000000000003,-0.458842,-3.4475,-20.825,-48.5275
905,10064404,1.617964,-0.00793,-0.435296,-9.2225,-2.8525,-57.54
906,10064501,1.5469600000000001,0.09418401,-0.49776000000000004,-12.915,4.34,-58.7125
907,10064598,1.2750219999999999,0.041358,-0.304268,-4.0425,6.475,-60.2175
908,10064694,1.042246,0.058316,-0.332694,21.5075,8.5925,-55.8425
909,10064791,1.048834,0.280966,-0.570472,40.0925,0.875,-52.5
910,10064888,1.1392360000000001,0.334768,-0.512644,65.0825,-5.495,-53.76
911,10064985,1.214022,0.318054,-0.324154,81.7075,2.345,-56.9975
912,10065081,1.296738,0.340014,-0.24558600000000003,79.7475,9.8,-56.4025
913,10065178,1.399584,0.182268,-0.165188,75.4775,7.805,-47.8275
914,10065275,1.441918,0.007320001,-0.15201199999999998,63.5075,-2.835,-37.6425
915,10065371,1.3496860000000002,-0.142618,-0.125782,50.5575,-14.4025,-31.36
916,10065468,1.207068,-0.254126,-0.18849000000000002,37.38,-22.4875,-25.62
917,10065565,1.101538,-0.270352,-0.259128,20.4925,-26.8975,-14.245
918,10065662,1.010892,-0.206668,-0.271938,8.12,-27.23,-0.4725
919,10065758,0.9956421,-0.17446,-0.228872,5.39,-20.965,9.205
920,10065855,0.91561,-0.130418,-0.18556199999999998,6.3,-16.66,13.6675
921,10065952,0.8413120000000001,-0.116998,-0.137738,7.35,-16.765,12.8975
922,10066049,0.779702,-0.15201199999999998,-0.12212200000000001,5.25,-16.5725,10.43
923,10066145,0.7241920000000001,-0.178974,-0.128222,0.6475,-17.8325,8.0325
924,10066242,0.669048,-0.226798,-0.128222,0.21,-16.66,5.635
925,10066339,0.658556,-0.215452,-0.100162,1.47,-15.4175,5.0575
926,10066436,0.640744,-0.21825799999999998,-0.08808401,3.6225,-15.19,2.31
927,10066532,0.662216,-0.223138,-0.064294,6.65,-16.765,3.01
928,10066629,0.6911301,-0.146156,-0.06832001,3.0275,-15.3825,5.075
929,10066726,0.70699,-0.09613601,-0.022326,2.31,-13.895,5.1975
930,10066823,0.7005239999999999,-0.000366,-0.016225999999999997,-0.3325,-14.0525,4.025
931,10066919,0.669048,0.06600201,-0.013054,-1.5225,-15.5925,1.6275
932,10067016,0.643428,0.098942,-0.009394,-1.5575,-16.5025,-1.7325
933,10067113,0.616588,0.126148,-0.023424,-1.5225,-16.03,-6.475
934,10067210,0.5948720000000001,0.145302,-0.0366,-1.085,-16.205,-11.2175
935,10067306,0.593286,0.136762,-0.035502,-0.3675,-17.2025,-15.9075
936,10067403,0.6189060000000001,0.11211800000000001,-0.016225999999999997,0.945,-16.2225,-19.0225
937,10067500,0.6396460999999999,0.073688,0.000976,2.835,-13.615,-20.9125
938,10067597,0.6790520999999999,0.039772,0.051362,3.2725,-11.6025,-21.6475
939,10067693,0.701134,0.006344,0.06270801,2.24,-8.1025,-22.015
940,10067790,0.726266,-0.025742,0.097722,0.945,-5.8275,-21.6475
941,10067887,0.751642,-0.04941,0.093696,-2.24,-0.77,-20.6675
942,10067984,0.7473721,-0.079666,0.04404201,-6.545,1.6625,-20.3525
943,10068080,0.7626221,-0.139934,-0.050996,-10.36,0.2975,-20.615
944,10068177,0.776774,-0.196054,-0.15555,-13.0375,-2.905,-21.07
945,10068274,0.862662,-0.201422,-0.166164,-12.67,-7.98,-22.3125
946,10068371,1.0249219999999999,-0.052826,-0.163236,-14.385,-9.7475,-23.1
947,10068467,1.1794959999999999,0.15945399999999998,-0.02196,-17.9375,-11.375,-25.4275
948,10068564,1.208898,0.229238,0.011590000000000001,-12.6,-12.0925,-28.5425
949,10068661,1.155584,0.23997399999999997,0.08503401,-2.975,-12.775,-30.3275
950,10068758,1.111542,0.258884,0.041602,-3.3425,3.1325,-29.8725
951,10068854,1.154852,0.20252,-0.335256,5.1625,15.085,-26.705
952,10068951,1.212924,0.15506199999999998,-0.251686,24.255,13.44,-20.9125
953,10069048,1.319064,0.167994,-0.31146599999999997,30.38,12.0575,-12.8625
954,10069145,1.520974,0.177266,-0.69479,28.595,-5.3375,-4.5325
955,10069241,1.912838,0.222162,-0.8203280000000001,38.9025,-24.745,4.62
956,10069338,2.152446,0.487634,-0.662826,43.33,-12.915,22.61
957,10069435,1.6211360000000001,0.4743361,-0.228506,56.035,20.1075,44.3275
958,10069532,1.053958,0.204228,0.042212,67.7425,41.0725,41.545
959,10069628,1.043466,-0.08564401,0.034892,62.545,42.1575,16.52
960,10069725,1.072868,-0.401746,-0.279624,55.0725,41.0725,-0.595
961,10069822,1.0309,-0.619638,-0.5368,44.1525,25.9525,-7.875
962,10069919,0.9450120000000001,-0.457988,-0.533018,19.425,11.55,-8.785
963,10070015,0.919392,-0.175924,-0.47482399999999997,-4.655,9.9925,-0.805
964,10070112,0.9945440000000001,-0.019764,-0.451888,-5.6,7.525,6.93
965,10070209,1.173884,0.15128,-0.352458,1.785,-3.4825,12.11
966,10070306,1.387384,0.352092,-0.226066,12.25,-6.3,15.925
967,10070402,1.4173959999999999,0.449204,-0.20923000000000003,25.4975,-6.72,17.0275
968,10070499,1.198772,0.4209,-0.29158,45.99,-23.0125,16.2575
969,10070596,0.9945440000000001,0.41785,-0.362218,63.84,-36.9425,12.565
970,10070693,0.8964561,0.38356799999999996,-0.391498,77.98,-20.79,1.05
971,10070789,0.9298841,0.339526,-0.34221,82.985,-5.1625,-13.5975
972,10070886,0.9609940999999999,0.273524,-0.259128,83.93001,-4.9525,-24.2025
973,10070983,0.916098,0.248392,-0.273768,84.6475,-11.4625,-29.1375
974,10071080,0.9139021,0.251564,-0.230946,86.7825,-14.8575,-33.1975
975,10071176,0.8773021000000001,0.28023400000000004,-0.20496,91.42,-9.87,-34.0025
976,10071273,0.88328,0.28548,-0.177022,97.965,-10.815,-33.0225
977,10071370,0.9153661,0.261446,-0.13602999999999998,103.3025,-10.08,-34.685
978,10071467,0.8786440999999999,0.250954,-0.122366,104.5275,-8.89,-35.5425
979,10071563,0.8338700000000001,0.25058800000000003,-0.11943800000000002,104.335,-12.67,-35.035
980,10071660,0.845094,0.228872,-0.10394400000000001,106.2775,-14.91,-34.86
981,10071757,0.846924,0.18849000000000002,-0.08649801,108.99,-10.8675,-35.945
982,10071854,0.823256,0.13542,-0.08759601,113.4875,-9.38,-36.89
983,10071950,0.7862901,0.106994,-0.097234,117.0225,-11.865,-37.135
984,10072047,0.7829961,0.089914,-0.08808401,119.8925,-11.8125,-36.61
985,10072144,0.75335,0.068076,-0.097966,122.0625,-9.1,-35.595
986,10072241,0.7357821,0.057828,-0.11321600000000001,121.9575,-9.17,-34.5625
987,10072337,0.74603,0.046238,-0.10516400000000001,121.3975,-8.9775,-34.1075
988,10072434,0.7501781,0.038674,-0.07198,120.155,-7.84,-33.4775
989,10072531,0.761524,0.029158,-0.058926,119.4025,-5.53,-32.6375
990,10072628,0.771528,0.011224,-0.033428,119.6825,-3.5,-31.8325
991,10072724,0.779458,0.006832001,0.0032939999999999996,121.0825,0.805,-30.695
992,10072821,0.7836061,0.018178,0.036356,123.34,6.9825,-29.155
993,10072918,0.784704,0.036722000000000005,0.072956,126.665,12.3025,-27.2125
994,10073015,0.775798,0.047214,0.101504,130.27,16.1175,-24.5875
995,10073111,0.7622561,0.051972000000000004,0.101992,133.8575,17.78,-21.07
996,10073208,0.746274,0.052338,0.089426,137.76,17.71,-17.8675
997,10073305,0.69052,0.050874,0.05429,141.5925,17.2375,-14.735
998,10073402,0.672342,0.07356601,0.018544,143.3075,15.8025,-10.815
999,10073498,0.717726,0.162992,-0.041602,140.0525,17.535,-7.735
1000,10073595,0.797148,0.21447600000000003,-0.17995,130.725,16.905,-7.315
1001,10073692,0.9076799999999999,0.157746,-0.24265799999999998,122.6925,8.995,-9.765
1002,10073789,0.9711200999999999,0.06356201,-0.22057600000000002,122.815,3.115,-13.5975
1003,10073885,1.00894,-0.002074,-0.06466001,120.4175,4.725,-16.8175
1004,10073982,1.097024,-0.08698601,0.10760399999999999,123.0775,20.8425,-19.67
1005,10074079,1.1690040000000002,-0.143716,0.193614,131.9675,38.7625,-24.6225
1006,10074175,1.10837,-0.0305,-0.01281,144.41,45.465,-28.805
1007,10074272,0.951844,0.052216,-0.20508200000000001,162.0675,21.77,-29.19
1008,10074369,0.9450120000000001,0.014152000000000001,-0.158478,182.0,6.405,-31.465
1009,10074466,1.0438319999999999,0.11211800000000001,-0.30561,182.49,16.5025,-39.76
1010,10074562,1.175958,0.159332,-0.5612,171.36,4.06,-55.055
1011,10074659,1.293444,-0.007564001,-0.559736,163.45,-16.275,-73.90250999999999
1012,10074756,1.411662,-0.217892,-0.457988,152.8625,-16.4675,-91.4725
1013,10074853,1.564284,-0.189466,-0.7047939999999999,138.7575,-15.3475,-103.95
1014,10074949,1.58905,-0.41236000000000006,-0.290604,135.5725,-27.65,-114.695
1015,10075046,1.32675,-0.472384,0.09455001,139.09,-5.95,-119.21
1016,10075143,1.3388280000000001,0.109678,-0.275964,121.1175,9.66,-100.59
1017,10075239,1.279048,0.25742,-0.363072,130.445,14.6125,-73.185
1018,10075336,1.199016,0.23851,-0.318786,132.5275,21.9625,-45.815
1019,10075433,1.310036,0.157746,-0.206546,136.99,35.8575,-25.5325
1020,10075530,1.413736,-0.009637999999999999,-0.181658,146.265,40.5825,-12.915
1021,10075626,1.434964,-0.179096,-0.228994,159.915,21.77,-6.09
1022,10075723,1.41947,-0.238144,-0.291458,165.4975,2.3975,-2.5725
1023,10075820,1.296494,-0.214964,-0.223748,166.0225,-7.665,-5.0225
1024,10075917,1.278804,-0.187392,-0.146034,166.81,-10.8325,-15.295
1025,10076013,1.28588,-0.205326,-0.137128,168.7175,-14.2275,-28.175
1026,10076110,1.236226,-0.23838800000000002,-0.145912,168.7,-23.415,-39.165
1027,10076207,1.209264,-0.164212,-0.17519200000000001,161.5425,-33.88,-46.1475
1028,10076304,1.14375,-0.0793,-0.163846,154.8925,-33.425,-48.93
1029,10076400,1.053104,-0.07588400000000001,-0.14798599999999998,152.1625,-27.055,-50.575
1030,10076497,1.01138,-0.102846,-0.10394400000000001,149.8875,-24.5,-52.605
1031,10076594,1.004304,-0.11236199999999999,-0.052703999999999994,144.4275,-21.49,-51.975
1032,10076691,0.9740479999999999,-0.150792,-0.058316,140.1225,-19.1275,-49.035
1033,10076787,0.9650200999999999,-0.23155599999999998,-0.03538,137.8475,-22.96,-45.15
1034,10076884,0.952942,-0.29072600000000004,-0.020008,133.14,-25.795,-40.7575
1035,10076981,0.9091440000000001,-0.31463800000000003,-0.041114,128.135,-24.2375,-36.19
1036,10077078,0.844606,-0.31415,-0.077836,122.22,-22.855,-32.305
1037,10077174,0.8106899999999999,-0.314882,-0.072712,116.7775,-22.3475,-30.3275
1038,10077271,0.805688,-0.28548,-0.063684,110.0225,-18.2,-29.2075
1039,10077368,0.766038,-0.27584200000000003,-0.07002799999999999,105.0,-13.6675,-30.135
1040,10077464,0.7187020000000001,-0.273524,-0.055754,100.52,-14.6475,-31.57
1041,10077561,0.6649,-0.281088,-0.036722000000000005,94.7625,-16.7475,-34.055
1042,10077658,0.6191501,-0.27718400000000004,-0.021228,88.655,-18.1825,-36.89
1043,10077755,0.545462,-0.267912,-0.032086,82.6525,-18.2175,-40.495
1044,10077851,0.593164,-0.285602,0.016104,77.28,-18.305,-44.7825
1045,10077948,0.665144,-0.2562,-0.003904,65.975,-14.42,-45.8675
1046,10078045,0.703818,-0.254858,-0.02501,57.1375,-16.695,-45.7975
1047,10078142,0.7171161,-0.263764,-0.04392,49.8225,-19.2325,-44.1175
1048,10078239,0.7086979999999999,-0.234118,-0.06112201,40.1625,-17.3075,-40.8975
1049,10078335,0.752618,-0.22643200000000002,-0.022203999999999998,30.8875,-11.4625,-38.0625
1050,10078432,0.7317560000000001,-0.20178800000000002,-0.040016,21.1225,-4.4975,-35.84
1051,10078529,0.756888,-0.23155599999999998,-0.054778,15.575,-3.5525,-36.47
1052,10078626,0.838628,-0.20679,-0.09638,10.08,-1.54,-36.855
1053,10078722,0.898042,-0.049532,0.115656,-1.2425,4.865,-36.2775
1054,10078819,0.95709,-0.028548,0.12651400000000002,-7.56,22.4,-35.665
1055,10078916,0.9476959999999999,-0.111752,-0.142496,0.8400001,26.425,-35.665
1056,10079013,0.951722,-0.258274,-0.37576,21.8225,15.0675,-37.1
1057,10079109,1.036146,-0.32391,-0.463966,39.6025,9.24,-35.56
1058,10079206,1.2994219999999999,-0.288896,-0.43907799999999997,54.9675,14.0,-31.7275
1059,10079303,1.581974,-0.160796,-0.451766,64.89,24.9725,-24.15
1060,10079400,1.7718060000000002,0.022203999999999998,-0.392962,73.4825,31.045,-12.6
1061,10079496,1.704462,0.24461,-0.281698,70.21,36.5925,0.105
1062,10079593,1.383968,0.36051,-0.11041,59.8325,39.025,8.505
1063,10079690,1.1186180000000001,0.34221,-0.10089400000000001,53.655,36.33,10.6575
1064,10079787,1.021018,0.13725,-0.216428,56.4375,33.9675,6.965
1065,10079883,0.9744141,-0.041846,-0.349286,61.7925,37.1,0.6475
1066,10079980,0.918294,-0.072102,-0.48251000000000005,54.845,36.4525,-4.3925
1067,10080077,0.876814,-0.014884,-0.56242,50.54,28.2625,-6.475
1068,10080174,0.910974,0.113826,-0.555832,51.66,15.8725,-6.37
1069,10080270,0.967216,0.198494,-0.490562,59.885,6.545,-5.95
1070,10080367,1.01443,0.223748,-0.407236,71.5925,1.0325,-6.58
1071,10080464,1.042856,0.28938400000000003,-0.379298,80.90250999999999,1.8025,-8.4875
1072,10080561,1.034316,0.338916,-0.401502,89.635,4.3225,-9.38
1073,10080657,0.9519661,0.35136,-0.43505200000000005,96.25,1.54,-8.6975
1074,10080754,0.9882001,0.315004,-0.46116,101.5875,6.265,-11.34
1075,10080851,1.22854,0.197274,-0.390034,111.7725,27.6675,-26.6
1076,10080948,1.293444,0.114192,-0.302438,119.455,39.7425,-45.2375
1077,10081044,1.254892,0.1037,-0.27510999999999997,119.875,25.41,-51.1525
1078,10081141,1.1392360000000001,0.156648,-0.29438600000000004,118.37,13.2125,-49.2625
1079,10081238,1.0736,0.18775799999999998,-0.28304,118.4225,10.045,-45.885
1080,10081335,1.0229700000000002,0.228994,-0.260104,120.4525,7.175,-44.065
1081,10081431,0.992348,0.21081599999999998,-0.236558,123.9,1.7675,-45.92
1082,10081528,0.9706319999999999,0.176534,-0.22691999999999998,125.5275,-0.105,-46.235
1083,10081625,0.9636780999999999,0.129686,-0.205814,125.79,1.365,-44.9225
1084,10081722,0.9605060999999999,0.08674201,-0.170068,126.9275,2.6425,-43.47
1085,10081818,0.9148780000000001,0.054778,-0.146522,129.0275,3.465,-42.3325
1086,10081915,0.8497299999999999,0.038551999999999996,-0.149572,131.775,3.0975,-40.9675
1087,10082012,0.8422879999999999,0.043432,-0.11504600000000001,132.8775,3.1325,-39.1825
1088,10082109,0.8640040000000001,0.059902,-0.08845001,132.8075,8.82,-38.3075
1089,10082205,0.8516819999999999,0.054778,-0.0854,132.44,4.8125,-37.38
1090,10082302,0.841678,0.0427,-0.070638,131.565,1.5575,-37.4325
1091,10082399,0.823622,0.036233999999999995,-0.059048,128.975,4.1825,-37.66
1092,10082495,0.820572,0.014762,-0.026718000000000002,126.1225,5.88,-37.975
1093,10082592,0.761402,0.007076001,-0.025498,121.275,6.4225,-37.59
1094,10082689,0.735538,-0.011101999999999999,-0.003172,115.99,6.79,-37.59
1095,10082786,0.7327321,-0.008418,0.019886,107.59,12.1625,-37.1
1096,10082882,0.727974,-0.010858,0.014884,98.89251,16.625,-36.3125
1097,10082979,0.7241920000000001,-0.023180000000000003,0.024766,93.065,17.1675,-34.5975
1098,10083076,0.725534,-0.047336,0.037088,88.51501,19.46,-32.0075
1099,10083173,0.734196,-0.078202,0.061610000000000005,85.225,21.385,-28.14
1100,10083269,0.751154,-0.100406,0.10126,81.4975,21.6475,-24.3775
1101,10083366,0.7522521,-0.131394,0.12688,79.135,22.925,-20.3
1102,10083463,0.7762859999999999,-0.15433,0.121878,76.9475,23.8,-15.68
1103,10083560,0.7550581000000001,-0.180316,0.093696,76.79,23.8875,-12.1975
1104,10083656,0.7387100000000001,-0.160064,0.026962,74.25251,16.6775,-8.5925
1105,10083753,0.8337481,-0.11285,0.059048,70.0525,15.75,-6.1075
1106,10083850,0.895114,-0.063074,0.08442401,63.9975,25.69,-7.105
1107,10083946,0.9237841,-0.065514,0.071492,59.7975,29.995,-9.3275
1108,10084043,0.9087780000000001,-0.103822,0.013054,62.0025,30.66,-10.7625
1109,10084140,0.910242,-0.112606,-0.059902,60.2525,22.715,-11.0075
1110,10084237,0.9318360000000001,-0.08881599,-0.08235001,57.9075,17.29,-12.0575
1111,10084333,1.0115020000000001,-0.09333,-0.032451999999999995,54.565,17.5,-13.23
1112,10084430,1.128622,-0.111752,0.098332,51.3975,22.47,-13.44
1113,10084527,1.297104,-0.091378,0.230336,44.94,32.2,-11.7425
1114,10084624,1.387262,-0.072102,0.337818,40.075,41.8425,-9.5025
1115,10084720,1.384822,-0.006832001,0.375882,35.98,41.16,-5.25
1116,10084817,1.368596,0.10906800000000001,0.188978,39.305,34.5625,-1.0325
1117,10084914,1.4010479999999998,0.18287799999999999,-0.37576,45.2375,6.9125,3.29
1118,10085011,1.5142639999999998,-0.001952,-0.287066,43.9425,-22.75,6.335
1119,10085107,1.6662759999999999,-0.159698,-0.152256,47.7925,1.6625,0.42
1120,10085204,1.703974,-0.17873,-0.43212399999999995,35.035,3.5875,-7.035
1121,10085301,1.7504560000000002,-0.228506,-0.608658,20.195,-26.915,-10.745
1122,10085398,1.575142,-0.18178,-0.6068279999999999,10.15,-29.925,-18.48
1123,10085494,1.294786,-0.139568,-0.401136,8.2775,-8.155,-25.375
1124,10085591,1.120204,0.0034159999999999998,-0.258884,16.9575,14.1225,-24.2725
1125,10085688,1.1272799999999998,0.334158,-0.323056,15.54,23.1875,-20.58
1126,10085785,1.088606,0.47787399999999997,-0.5489999999999999,25.8125,21.42,-21.42
1127,10085881,1.07726,0.400038,-0.6292760000000001,40.25,9.1875,-25.9525
1128,10085978,1.07055,0.330742,-0.55266,60.4625,3.2725,-33.2675
1129,10086075,1.0797,0.306342,-0.50935,66.5,-7.0,-38.185
1130,10086172,1.1920620000000002,0.20923000000000003,-0.349652,64.5225,-9.6075,-41.3175
1131,10086268,1.342366,0.061610000000000005,-0.23009200000000002,56.4375,0.8925,-42.0875
1132,10086365,1.400072,-0.035624,-0.240218,48.6675,0.0875,-37.205
1133,10086462,1.267702,-0.09284201,-0.290482,38.745,-18.3925,-31.36
1134,10086559,1.1070280000000001,-0.151158,-0.33184,32.3225,-32.8475,-25.8475
1135,10086655,1.027484,-0.117852,-0.35624,25.235,-28.1225,-17.0275
1136,10086752,0.98759,-0.064538,-0.318664,22.015,-13.9475,-7.07
1137,10086849,0.90036,-0.02745,-0.306586,22.82,-8.9075,1.05
1138,10086946,0.886574,-0.024156,-0.235948,26.53,-13.3525,6.58
1139,10087042,0.8575379999999999,-0.05636401,-0.18239,30.3625,-8.0675,8.785
1140,10087139,0.794586,-0.08845001,-0.162626,31.2375,-5.8975,9.9575
1141,10087236,0.727608,-0.122,-0.134932,31.045,-9.975,9.135
1142,10087333,0.706136,-0.136274,-0.103578,30.905,-10.4825,7.6125
1143,10087429,0.7005239999999999,-0.14823,-0.07515201,31.885,-8.155,5.0575
1144,10087526,0.693814,-0.145058,-0.059902,33.67,-7.735,3.8325
1145,10087623,0.633058,-0.134444,-0.065148,33.9325,-10.0275,2.9575
1146,10087720,0.6396460999999999,-0.111508,-0.025498,32.7425,-14.0,1.3825
1147,10087816,0.6273241,-0.06039,-0.055754,28.9625,-8.225,1.4175
1148,10087913,0.633302,-0.040748,-0.035624,27.79,-6.16,1.9775
1149,10088010,0.571448,-0.038186000000000005,-0.025254,25.34,-6.02,2.9225
1150,10088107,0.5827939999999999,-0.018422,-0.009028000999999999,22.1025,-4.76,1.82
1151,10088203,0.563762,-0.010858,-0.016347999999999998,18.7425,-2.03,0.0875
1152,10088300,0.5587601,-0.008174001,-0.030378,15.4875,-4.4275,-1.5925
1153,10088397,0.558272,-0.017934000000000002,-0.03172,12.285,-6.4225,-3.5525
1154,10088494,0.5914560000000001,-0.040138,-0.007442,9.1875,-5.5125,-6.545
1155,10088590,0.643672,-0.05770599999999999,0.021228,5.005,-0.2275,-8.75
1156,10088687,0.6954,-0.09028,0.06636801,0.63,4.62,-10.1675
1157,10088784,0.7200439999999999,-0.119072,0.081984,-3.6575,6.825,-10.9375
1158,10088881,0.7266321,-0.150792,0.09613601,-8.19,7.98,-11.4275
1159,10088977,0.679906,-0.18251199999999998,0.012688,-11.6375,10.465,-12.005
1160,10089074,0.787388,-0.236558,-0.050142,-13.58,9.5725,-12.9325
1161,10089171,0.91012,-0.236192,-0.17921800000000002,-16.2925,12.775,-11.3575
1162,10089268,1.022604,-0.158966,-0.127978,-20.5625,13.7025,-8.26
1163,10089364,1.187182,-0.11333800000000001,-0.058316,-23.31,18.9,-5.67
1164,10089461,1.355176,-0.045018,-0.058682000000000005,-24.3775,21.805,-3.3775
1165,10089558,1.36396,0.031232,-0.059658,-21.91,5.1625,-0.5775
1166,10089655,1.307962,0.061610000000000005,0.015493999999999999,-15.3475,-19.915,-1.4525
1167,10089751,1.325896,0.08857201,0.077348,-11.4625,-19.5125,-4.1475
1168,10089848,1.316136,0.15396400000000002,0.141154,-7.5075,2.0125,-3.29
1169,10089945,1.297714,0.191174,0.170434,-0.5775,26.285,0.98
1170,10090042,1.294786,0.13359000000000001,-0.339526,5.495,32.2875,4.0425
1171,10090138,1.406172,0.149572,-0.32696,12.81,12.5125,8.085
1172,10090235,1.506212,0.299266,-0.263154,-0.28,22.645,15.82
1173,10090332,1.499746,0.282186,-0.388204,1.6625,25.55,21.5775
1174,10090429,1.5845360000000002,0.233386,-0.649528,13.1075,-2.6425,22.365
1175,10090525,1.6905540000000001,0.170068,-0.682712,28.385,-19.81,25.025
1176,10090622,1.5434219999999998,0.191174,-0.488,33.5125,-12.11,35.2975
1177,10090719,1.319674,0.273036,-0.291824,32.4275,-7.385,40.0925
1178,10090816,1.1228879999999999,0.21289,-0.183732,36.9075,-0.665,36.68
1179,10090912,0.9590420000000001,0.046604,-0.327326,29.295,4.3225,30.6075
1180,10091009,0.8524139999999999,-0.16201600000000002,-0.6034121,21.4725,-6.8775,28.2275
1181,10091106,0.9476959999999999,-0.167018,-0.544608,11.34,-6.4925,30.345
1182,10091203,1.0797,-0.104554,-0.404796,-10.3075,15.2425,29.995
1183,10091299,1.1655879999999998,-0.14871800000000002,-0.296338,-12.11,14.5775,27.2825
1184,10091396,1.220244,-0.107848,-0.329034,-11.0425,1.1025,21.0
1185,10091493,1.19377,-0.06539201,-0.30475599999999997,-4.585,-6.825,14.455
1186,10091590,1.1163,0.02806,-0.302194,-2.9575,-9.4325,9.835
1187,10091686,1.128744,0.128832,-0.24863600000000002,0.7,-6.5275,5.3375
1188,10091783,1.105564,0.171898,-0.226554,10.2725,0.0175,-3.185
1189,10091880,1.021018,0.17934,-0.205448,16.8525,-7.3325,-12.285
1190,10091977,0.912316,0.165798,-0.20923000000000003,16.31,-13.8075,-18.13
1191,10092073,0.8026380999999999,0.151524,-0.18775799999999998,15.82,-18.34,-20.0725
1192,10092170,0.7004020000000001,0.174948,-0.18788,13.5975,-20.7375,-18.235
1193,10092267,0.5936520000000001,0.183488,-0.202032,15.3475,-22.225,-14.8575
1194,10092364,0.568032,0.20190999999999998,-0.168726,17.1675,-22.9775,-11.83
1195,10092460,0.583404,0.204228,-0.161162,19.1625,-21.42,-10.325
1196,10092557,0.650748,0.197518,-0.10223600000000001,21.4725,-23.03,-12.4775
1197,10092654,0.629642,0.242536,-0.053191999999999996,20.685,-23.8875,-10.9375
1198,10092751,0.6581899999999999,0.23911999999999997,-0.01403,21.9625,-21.595,-9.03
1199,10092847,0.6600201,0.193492,-0.06539201,25.1125,-17.08,-8.1375
1200,10092944,0.6348881,0.149694,-0.072712,26.74,-21.9625,-6.055
1201,10093041,0.623908,0.124074,-0.06405001,27.4225,-24.675,-4.585
1202,10093137,0.612684,0.080154,-0.06832001,28.8925,-21.1925,-2.66
1203,10093234,0.6348881,0.03904,-0.071248,29.855,-16.59,-0.5425
1204,10093331,0.637206,0.01586,-0.062220000000000004,28.7875,-12.6525,1.3475
1205,10093428,0.633668,-0.005246,-0.041114,29.12,-11.5325,4.0075
1206,10093524,0.6480640000000001,-0.02562,-0.0244,28.84,-11.48,7.0175
1207,10093621,0.647332,-0.024522,0.026718000000000002,27.6675,-8.6275,9.555
1208,10093718,0.63867,-0.004758,0.093574,25.2525,-0.4725,10.6925
1209,10093814,0.607804,0.043432,0.02135,21.35,9.0125,10.92
1210,10093911,0.607804,0.08808401,0.048068,13.44,10.6575,10.4825
1211,10094008,0.604754,0.101748,0.09211,8.155,22.015,9.59
1212,10094105,0.6828341,0.05368,0.07173600000000001,6.6325,33.075,7.3325
1213,10094201,0.747494,-0.031232,0.042578,6.475,37.205,5.6
1214,10094298,0.8414341000000001,-0.056974000000000004,0.014152000000000001,7.4375,37.0825,4.2525
1215,10094395,0.9718521000000001,0.004026,-0.02928,6.02,39.69,3.71
1216,10094492,1.13887,0.048312,-0.09516001,5.39,35.8225,3.535
1217,10094588,1.217926,0.052826,-0.10223600000000001,6.5975,21.0875,3.71
1218,10094685,1.241594,0.080886,-0.035136,5.3375,3.605,8.295
1219,10094782,1.316868,0.169824,0.08857201,4.725,-1.8025,13.8425
1220,10094879,1.3969,0.136152,0.212402,5.74,6.1775,12.4775
1221,10094975,1.332484,-0.018178,0.18629400000000002,12.6875,21.6475,5.4075
1222,10095072,1.287954,-0.049898000000000005,-0.42212,16.6775,24.2375,-2.2925
1223,10095169,1.294298,-0.127368,-0.48983000000000004,9.94,1.225,-5.46
1224,10095266,1.378722,-0.260836,-0.282552,21.3675,7.315,-11.34
1225,10095362,1.465098,-0.136274,-0.533018,15.6975,10.85,-17.6575
1226,10095459,1.6443159999999999,-0.154696,-0.407602,-7.7,1.7325,-22.9775
1227,10095556,1.853668,-0.18544000000000002,-0.163114,-15.0675,26.7225,-36.3125
1228,10095652,1.569774,-0.088328,-0.160552,-24.99,44.205,-52.185
1229,10095749,1.363106,0.115168,-0.26169000000000003,-25.1475,17.045,-53.7075
1230,10095846,1.26636,0.273402,-0.350628,-22.4525,2.24,-48.5625
1231,10095943,1.22122,0.266448,-0.5845020000000001,-4.6025,10.4825,-46.935
1232,10096039,1.224026,0.244854,-0.652334,13.8425,-0.91,-49.91
1233,10096136,1.301862,0.252662,-0.492148,31.185,-12.005,-56.21
1234,10096233,1.32492,0.274378,-0.40979799999999994,31.01,-6.09,-59.5
1235,10096330,1.382016,0.11955999999999999,-0.30780599999999997,32.8125,0.8400001,-53.235
1236,10096426,1.4299620000000002,-0.0305,-0.196542,27.9125,-0.1225,-43.0325
1237,10096523,1.355908,-0.07076001,-0.175924,14.14,-10.4475,-32.585
1238,10096620,1.2378120000000001,-0.112606,-0.22691999999999998,5.88,-25.9175,-23.03
1239,10096717,1.12301,-0.13078399999999998,-0.295118,-3.9025,-33.9325,-13.37
1240,10096813,1.068842,-0.135298,-0.30707399999999996,-14.0875,-25.62,-2.765
1241,10096910,1.048834,-0.14688800000000002,-0.25790799999999997,-20.72,-16.31,7.5075
1242,10097007,1.004304,-0.12749000000000002,-0.22167399999999998,-26.775,-14.7175,15.1375
1243,10097103,0.91927,-0.11321600000000001,-0.189344,-28.945,-18.6725,18.48
1244,10097200,0.8026380999999999,-0.129686,-0.209352,-28.6475,-20.1425,17.885
1245,10097297,0.730414,-0.18043800000000002,-0.19032000000000002,-27.5625,-21.2625,14.77
1246,10097394,0.7126020000000001,-0.200568,-0.131028,-28.315,-21.1225,10.5
1247,10097490,0.7143101,-0.2135,-0.091378,-28.3325,-16.695,7.175
1248,10097587,0.680882,-0.19337000000000001,-0.100406,-27.965,-15.8725,7.0875
1249,10097684,0.653432,-0.188246,-0.074542,-25.8125,-23.1175,7.6475
1250,10097781,0.619028,-0.172264,-0.08332601,-26.3725,-23.8525,8.4175
1251,10097877,0.597434,-0.151524,-0.07490801,-25.4625,-22.295,8.5575
1252,10097974,0.63135,-0.11736400000000001,-0.03965,-25.5325,-20.1425,10.08
1253,10098071,0.631594,-0.047702,-0.038796,-25.41,-12.6875,9.485
1254,10098168,0.5873079999999999,0.007564001,-0.05002,-26.9325,-11.2525,7.3675
1255,10098264,0.554002,0.052216,-0.04148,-28.91,-13.3,4.515
1256,10098361,0.51423,0.07893401,-0.054167999999999994,-30.8175,-12.705,0.4375
1257,10098458,0.55083,0.08869401,-0.06344,-32.27,-14.105,-3.99
1258,10098554,0.609268,0.081252,-0.05172801,-35.0875,-15.2775,-7.4375
1259,10098651,0.617442,0.06283,-0.047214,-37.415,-17.5525,-10.535
1260,10098748,0.6414761,0.013908000000000002,-0.016836,-38.3075,-21.525,-13.4925
1261,10098845,0.710284,-0.032695999999999996,-0.007564001,-38.3425,-21.245,-14.525
1262,10098941,0.7639640999999999,-0.06661201,0.02501,-37.555,-18.6725,-13.125
1263,10099038,0.795562,-0.08637601,0.104554,-37.3625,-12.2325,-10.4125
1264,10099135,0.80215,-0.07991000000000001,0.11541199999999999,-39.8475,-0.98,-7.385
1265,10099232,0.7755541,-0.046116000000000004,0.061854,-43.12,6.3875,-4.9175
1266,10099328,0.729316,-0.047702,0.013663999999999999,-44.5725,8.505,-3.1675
1267,10099425,0.802272,-0.045018,-0.0017079999999999999,-42.7,11.4975,-1.7325
1268,10099522,1.019188,-0.024034,-0.015493999999999999,-39.1475,20.9475,0.6825
1269,10099619,1.1468,0.048068,-0.028304000000000003,-31.4825,19.0225,3.92
1270,10099715,1.15595,0.10797000000000001,0.016592,-20.0025,6.2825,4.1475
1271,10099812,1.1636360000000001,0.17751,0.093086,-11.2175,-5.7575,1.0325
1272,10099909,1.169858,0.22045399999999998,0.138104,-7.175,-6.9475,-4.06
1273,10100006,1.220976,0.238754,0.26156799999999997,-3.2375,4.2175,-7.035
1274,10100102,1.24684,0.242292,0.026474,-3.2725,24.4125,-5.845
1275,10100199,1.249158,0.113826,-0.4933681,1.155,11.235,-5.3375
1276,10100296,1.413736,0.18324400000000002,-0.26291,4.41,-13.685,-1.3125
1277,10100393,1.491938,0.298534,-0.39418200000000003,-13.195,0.7,7.77
1278,10100489,1.4569239999999999,0.225456,-0.530212,-1.505,-3.885,13.895
1279,10100586,1.551596,0.255346,-0.740052,14.77,-21.28,18.0775
1280,10100683,1.6091799999999998,0.28609,-0.60146,28.7525,-11.3225,31.92
1281,10100780,1.454972,0.3233,-0.331962,35.315,10.4825,46.62
1282,10100876,1.171932,0.353678,-0.14274,35.9275,11.5675,48.0375
1283,10100973,0.9911281,0.183488,-0.309026,29.5225,14.9975,41.7025
1284,10101070,0.9775860000000001,-0.09162200000000001,-0.533384,16.0475,10.71,37.6775
1285,10101167,1.138626,-0.22496799999999997,-0.42639,0.0525,8.4,41.65
1286,10101263,1.3664,-0.21374400000000002,-0.3172,-21.6125,32.725,39.375
1287,10101360,1.4299620000000002,-0.276086,-0.282674,-21.245,34.0025,31.185
1288,10101457,1.350296,-0.193126,-0.364902,-18.9175,10.605,20.16
1289,10101553,1.381284,-0.059048,-0.266814,-16.7825,2.8175,13.1425
1290,10101650,1.319064,0.077958,-0.206546,-8.645,9.6775,7.8225
1291,10101747,1.2225620000000001,0.20703400000000002,-0.23546,1.47,-2.205,3.4125
1292,10101844,1.148508,0.280478,-0.23021399999999997,12.4775,-11.55,-3.745
1293,10101940,1.062254,0.302072,-0.207156,20.8775,-14.6125,-14.245
1294,10102037,0.999302,0.264008,-0.195322,23.695,-19.74,-23.8875
1295,10102134,0.8857200999999999,0.221552,-0.154696,21.35,-20.9825,-27.58
1296,10102231,0.739686,0.21142600000000003,-0.14884,19.285,-27.02,-26.005
1297,10102328,0.678076,0.22643200000000002,-0.139324,22.2775,-28.0175,-22.33
1298,10102424,0.687104,0.23911999999999997,-0.116632,26.81,-23.6075,-19.005
1299,10102521,0.6925941,0.200446,-0.08064199,32.095,-24.395,-17.64
1300,10102618,0.661606,0.199958,-0.0854,31.9725,-31.4125,-13.6675
1301,10102715,0.607926,0.22045399999999998,-0.08674201,31.325,-35.9975,-11.4625
1302,10102811,0.60817,0.191174,-0.049044,32.0425,-35.2275,-13.9125
1303,10102908,0.684054,0.165798,0.010858,32.76,-26.53,-14.21
1304,10103005,0.644404,0.116998,-0.034038,32.4275,-17.6225,-11.69
1305,10103102,0.61549,0.061610000000000005,-0.060267999999999995,32.2525,-22.8725,-9.275
1306,10103198,0.5958479999999999,0.01708,-0.059658,31.675,-24.535,-6.755
1307,10103295,0.56181,0.005978,-0.060634,30.835,-22.0325,-3.01
1308,10103392,0.548268,-0.00976,-0.046360000000000005,30.8525,-19.005,-0.0525
1309,10103488,0.5489999999999999,-0.040016,-0.031598,31.7975,-16.8525,2.59
1310,10103585,0.557296,-0.035868000000000004,0.005612,31.78,-14.2275,5.5125
1311,10103682,0.567666,-0.032574,0.054046000000000004,31.815,-9.1875,7.4025
1312,10103779,0.5769380999999999,0.012322,0.05795,30.5025,-1.785,9.1875
1313,10103875,0.58194,0.047214,0.06941801,27.125,5.04,8.925
1314,10103972,0.546682,0.08674201,0.08784,22.5575,14.1925,7.98
1315,10104069,0.5437541,0.08576601,0.06039,21.5075,22.26,7.14
1316,10104166,0.597312,0.069662,-0.003172,22.645,25.4275,6.9475
1317,10104262,0.688812,0.014518000000000001,-0.01281,23.1875,23.6775,6.1775
1318,10104359,0.772504,-0.01037,-0.0061,23.765,26.8625,7.245
1319,10104456,0.9967401,0.047336,-0.030866,23.1,30.695,7.63
1320,10104553,1.188768,0.07869,-0.03477,23.485,24.045,4.7775
1321,10104649,1.265506,0.05612,-0.004148001,22.2775,6.23,4.2875
1322,10104746,1.228418,0.035013999999999997,0.051484,18.4275,-8.3125,7.805
1323,10104843,1.2489139999999999,0.057584,0.147498,11.69,-13.1425,11.9875
1324,10104939,1.3327280000000001,-0.03416,0.279258,8.015,3.57,8.785
1325,10105036,1.21573,-0.125172,0.28853,8.6275,29.12,-1.575
1326,10105133,1.18035,-0.13725,0.042089999999999995,11.0775,40.5825,-8.715
1327,10105230,1.148996,-0.06941801,-0.42285200000000006,15.155,22.2075,-10.4825
1328,10105327,1.251232,-0.032818,-0.407358,9.3625,-9.1875,-8.085
1329,10105423,1.49084,-0.17580199999999999,-0.385764,20.37,-12.46,-8.505
1330,10105520,1.6529779999999998,-0.174948,-0.477508,9.9225,-4.865,-17.3075
1331,10105617,1.959198,-0.200812,-0.381738,-16.1525,8.785,-34.6325
1332,10105713,1.8869740000000002,-0.258762,-0.36575599999999997,-35.8925,18.4975,-57.9775
1333,10105810,1.369206,-0.226798,-0.155916,-53.6725,6.335,-72.3625
1334,10105907,1.179374,0.007808001,-0.150792,-40.915,5.8625,-67.9175
1335,10106004,1.108004,0.320982,-0.571448,-34.37,9.94,-58.4675
1336,10106100,1.133868,0.332328,-0.780678,-5.6,-5.7925,-52.78
1337,10106197,1.270142,0.33171799999999996,-0.5873079999999999,24.0975,-10.57,-57.61
1338,10106294,1.363228,0.439688,-0.3965,33.6875,1.7325,-62.02
1339,10106391,1.45119,0.383202,-0.349164,37.8,10.4475,-53.6375
1340,10106487,1.549888,0.18483,-0.24339,40.565,11.7775,-39.83
1341,10106584,1.517436,0.056729999999999996,-0.181658,29.54,4.6025,-30.8175
1342,10106681,1.35664,-0.06954,-0.18446400000000002,21.665,-8.645,-24.5875
1343,10106778,1.200724,-0.12456199999999999,-0.251198,11.7425,-19.8975,-18.725
1344,10106874,1.202432,-0.144082,-0.235704,0.0525,-17.0625,-10.01
1345,10106971,1.127646,-0.14310599999999998,-0.2501,-10.815,-5.285,2.695
1346,10107068,1.055544,-0.17019,-0.19702999999999998,-11.935,-11.9175,11.7075
1347,10107165,1.022116,-0.17629,-0.12627,-14.63,-13.4225,17.045
1348,10107261,0.9125601000000001,-0.160796,-0.087962,-18.935,-12.2675,19.32
1349,10107358,0.737124,-0.170068,-0.11053199999999999,-21.5425,-16.3275,17.5525
1350,10107455,0.70516,-0.170068,-0.075396,-23.7125,-18.9875,13.265
1351,10107552,0.6605081,-0.17836400000000002,-0.062220000000000004,-28.0175,-16.1875,8.4525
1352,10107648,0.641598,-0.19483399999999998,-0.031598,-27.3175,-17.045,5.5125
1353,10107745,0.628788,-0.161406,-0.037454,-29.8725,-19.635,5.11
1354,10107842,0.6481859999999999,-0.15201199999999998,-0.0008540001,-29.7675,-21.875,5.11
1355,10107939,0.5976779999999999,-0.13969,-0.038674,-31.7975,-22.575,5.3375
1356,10108035,0.5535140000000001,-0.12761199999999998,-0.07246799999999999,-32.7425,-30.2925,7.6825
1357,10108132,0.547048,-0.11955999999999999,-0.034648000000000005,-33.355,-34.8775,5.5125
1358,10108229,0.584014,-0.05929201,-0.00183,-35.4375,-30.24,3.92
1359,10108326,0.549122,-0.008174001,-0.031232,-32.34,-21.49,0.91
1360,10108423,0.538996,0.026351999999999997,-0.03355,-28.7,-20.2475,-1.96
1361,10108519,0.529846,0.07198,-0.019398,-26.6525,-17.8675,-4.4275
1362,10108616,0.549732,0.112606,-0.001952,-25.69,-16.8875,-6.5975
1363,10108713,0.524478,0.11955999999999999,0.006344,-25.7425,-16.4325,-8.7325
1364,10108810,0.5264300000000001,0.09625801,0.039528,-26.1625,-16.3275,-12.46
1365,10108906,0.568642,0.044774,0.05636401,-27.965,-14.315,-16.4325
1366,10109003,0.634156,0.00427,0.082472,-29.015,-10.2375,-18.1475
1367,10109100,0.686128,-0.045872,0.131272,-29.2425,-0.6475,-18.3225
1368,10109197,0.745908,-0.079544,0.11650999999999999,-29.5575,8.26,-16.625
1369,10109293,0.756644,-0.06563601,0.040504000000000005,-30.1525,10.2025,-13.4225
1370,10109390,0.771772,-0.020984,-0.023546,-33.425,7.9625,-9.3275
1371,10109487,0.8443620999999999,-0.005368,-0.05160601,-36.1375,8.855,-5.355
1372,10109583,1.0859219999999998,0.018422,-0.05843801,-35.91,13.195,-2.1
1373,10109680,1.3321180000000001,0.071492,-0.04697001,-33.285,14.245,2.38
1374,10109777,1.469734,0.07515201,0.053801999999999996,-22.925,1.75,3.15
1375,10109874,1.483642,0.107726,0.080764,-16.2225,-14.805,-1.085
1376,10109970,1.317966,0.14798599999999998,0.055265999999999996,-13.1775,-20.685,-5.5125
1377,10110067,1.222318,0.17397200000000002,0.123464,-4.9175,-5.2325,-5.705
1378,10110164,1.200968,0.116022,-0.174582,3.2025,21.7525,-1.9425
1379,10110261,1.2587959999999998,0.048312,-0.211182,13.09,16.3975,0.6475
1380,10110357,1.4776639999999999,0.141276,-0.312686,9.3975,11.445,6.5625
1381,10110454,1.576972,0.236558,-0.374052,-0.5075,11.305,16.3275
1382,10110551,1.7078779999999998,0.310856,-0.5016641,-1.1725,-1.8725,23.135
1383,10110647,1.8950259999999999,0.400404,-0.523624,15.4,-14.245,29.505
1384,10110744,1.631872,0.393572,-0.286456,30.065,-0.4725,40.705
1385,10110841,1.268068,0.30341399999999996,-0.016225999999999997,38.08,7.0875,43.61
1386,10110938,1.175714,0.155428,0.015738,40.775,5.8625,36.3825
1387,10111034,1.0498100000000001,-0.039772,-0.167506,27.895,18.69,29.785
1388,10111131,0.927322,-0.265472,-0.594018,11.9875,10.99,26.9675
1389,10111228,0.9195141,-0.317688,-0.543144,8.1375,-16.0125,30.03
1390,10111324,1.076284,-0.10504200000000001,-0.4209,-14.175,-6.895,32.4625
1391,10111421,1.197674,-0.08576601,-0.334768,-13.86,4.3575,33.1975
1392,10111518,1.30784,-0.03355,-0.263276,-7.5775,0.455,32.095
1393,10111615,1.35542,0.056974000000000004,-0.199348,-4.62,2.73,27.58
1394,10111711,1.2991780000000002,0.07259,-0.197762,1.4525,-1.8375,21.84
1395,10111808,1.172176,0.126026,-0.236192,13.51,-9.9925,13.6675
1396,10111905,1.104954,0.20508200000000001,-0.23387399999999997,23.66,-12.39,4.3925
1397,10112002,0.96014,0.241682,-0.23058,32.2175,-9.4675,-8.54
1398,10112098,0.9437921,0.190442,-0.200324,33.81,-13.93,-19.915
1399,10112195,0.9153661,0.17128800000000002,-0.15506199999999998,27.6325,-9.5375,-27.4225
1400,10112292,0.8271601000000001,0.17641199999999999,-0.097722,23.2225,-9.24,-29.96
1401,10112388,0.747494,0.183732,-0.08893801,22.1375,-11.8125,-29.155
1402,10112485,0.6836880999999999,0.20264200000000002,-0.110776,27.8425,-15.925,-25.655
1403,10112582,0.661606,0.22777399999999998,-0.085156,32.3925,-20.1075,-22.9775
1404,10112679,0.6329359999999999,0.23753400000000002,-0.07503,35.0525,-23.765,-20.1775
1405,10112775,0.666852,0.22143000000000002,-0.033672,35.0175,-27.475,-18.55
1406,10112872,0.63562,0.18361,-0.05063,34.615,-24.7275,-17.71
1407,10112969,0.654896,0.15823399999999999,-0.039528,34.0025,-26.8975,-15.9775
1408,10113066,0.6612401,0.110044,-0.04697001,34.8425,-23.8175,-13.6675
1409,10113162,0.662826,0.076494,-0.03904,37.0125,-22.645,-9.275
1410,10113259,0.638426,0.041724000000000004,-0.05160601,37.6075,-22.61,-6.23
1411,10113356,0.6326921,0.019642,-0.044407999999999996,38.045,-22.785,-2.835
1412,10113452,0.625616,0.003172,-0.030378,36.995,-19.2675,0.2275
1413,10113549,0.62769,-0.02684,-0.022203999999999998,36.26,-17.465,2.7475
1414,10113646,0.6450140000000001,-0.046604,0.003904,34.7025,-18.515,5.1975
1415,10113743,0.661118,-0.033672,0.0488,33.0225,-17.9025,7.595
1416,10113839,0.684176,-0.012565999999999999,0.08601,31.3775,-13.37,9.205
1417,10113936,0.675026,0.009150001,0.09711201,28.7875,-6.0375,10.115
1418,10114033,0.652944,0.029768,0.09625801,24.955,-0.98,9.6775
1419,10114129,0.636962,0.04453,0.082838,22.925,3.15,7.315
1420,10114226,0.7237041,0.049166,0.11724200000000001,22.505,8.9775,3.9725
1421,10114323,0.70516,0.010858,0.06819800000000001,25.62,17.99,0.35
1422,10114420,0.790194,-0.019275999999999998,0.01464,26.25,15.085,-1.47
1423,10114516,0.936472,0.013908000000000002,0.061732,28.0,16.2225,-3.1675
1424,10114613,1.028826,0.07832401,-0.07027201,30.0825,20.51,-6.2475
1425,10114710,1.13094,0.092964,-0.111996,25.7075,3.9025,-8.505
1426,10114807,1.2021879999999998,0.06124401,-0.056729999999999996,19.11,-10.2725,-7.0
1427,10114903,1.2395200000000002,0.008174001,0.011468,9.2225,-13.09,-1.505
1428,10115000,1.336388,0.003904,0.17446,1.05,-6.4575,3.6925
1429,10115097,1.343708,-0.10760399999999999,0.285846,-0.7875,9.625,2.03
1430,10115193,1.2847819999999999,-0.16530999999999998,0.297192,0.0875,23.975,-4.375
1431,10115290,1.25843,-0.124196,-0.054046000000000004,3.885,33.25,-7.9975
1432,10115387,1.225734,-0.081984,-0.407358,8.6275,12.145,-6.3875
1433,10115484,1.281854,-0.102968,-0.24570799999999998,9.2575,-12.8275,-2.695
1434,10115580,1.4654639999999999,-0.07698201,-0.291092,16.6425,-14.1575,-5.6
1435,10115677,1.558916,-0.023546,-0.441518,1.5225,-15.7325,-13.195
1436,10115774,1.76595,-0.059902,-0.375394,-19.4425,-8.96,-25.305
1437,10115870,1.737036,-0.112972,-0.29597199999999996,-35.875,9.7825,-43.1375
1438,10115967,1.354322,-0.15701400000000001,-0.124074,-44.3975,13.965,-53.4625
1439,10116064,1.0851899999999999,0.0122,-0.197884,-38.535,5.25,-50.47
1440,10116161,1.00528,0.281332,-0.513742,-29.1375,4.2525,-45.535
1441,10116257,0.9648979999999999,0.323178,-0.697596,-6.125,3.01,-43.015
1442,10116354,1.099952,0.282186,-0.580354,21.1925,-4.62,-45.5
1443,10116451,1.22122,0.357704,-0.39174200000000003,31.9025,-0.5775,-51.1175
1444,10116548,1.336022,0.34343,-0.32269000000000003,32.0425,8.785,-50.8375
1445,10116644,1.4513120000000002,0.174216,-0.250222,33.6875,14.21,-44.695
1446,10116741,1.481324,0.018544,-0.13664,25.9525,10.0275,-39.9175
1447,10116838,1.3764040000000002,-0.047702,-0.13383399999999998,14.385,-4.305,-34.4575
1448,10116934,1.238788,-0.101626,-0.18788,6.44,-20.79,-27.3175
1449,10117031,1.186328,-0.14798599999999998,-0.217648,-4.795,-23.2575,-17.115
1450,10117128,1.095194,-0.136152,-0.244854,-17.3075,-19.8975,-2.415
1451,10117225,1.034194,-0.14798599999999998,-0.21301199999999998,-21.4025,-24.5175,10.01
1452,10117321,0.9562360999999999,-0.14213,-0.16201600000000002,-22.6975,-25.0425,17.0975
1453,10117418,0.8638819999999999,-0.134932,-0.123464,-24.5175,-21.7875,20.02
1454,10117515,0.788852,-0.13115,-0.114436,-26.1975,-19.3725,19.4075
1455,10117612,0.708332,-0.15396400000000002,-0.121878,-28.2975,-19.39,17.0275
1456,10117708,0.6653880999999999,-0.178608,-0.110898,-28.735,-21.8925,13.0025
1457,10117805,0.664778,-0.197518,-0.103822,-28.9275,-23.87,11.025
1458,10117902,0.667828,-0.177022,-0.079544,-28.35,-24.08,13.055
1459,10117998,0.6707561,-0.169824,-0.04575,-26.6875,-24.6925,11.7425
1460,10118095,0.693326,-0.17446,-0.019398,-26.285,-25.13,11.3225
1461,10118192,0.679784,-0.119926,-0.023912,-29.0675,-24.9375,10.8675
1462,10118289,0.648308,-0.066734,-0.015372,-28.6825,-25.6375,9.6425
1463,10118385,0.6573359999999999,-0.027572000000000003,-0.01098,-28.42,-21.07,7.3675
1464,10118482,0.60146,0.02928,-0.02501,-27.8075,-15.5925,4.585
1465,10118579,0.5692520000000001,0.08064199,-0.022692,-28.6125,-17.3425,1.505
1466,10118676,0.530456,0.121024,-0.032695999999999996,-29.61,-16.975,-0.8925
1467,10118772,0.5070319999999999,0.137738,-0.038796,-29.6625,-17.9725,-3.15
1468,10118869,0.5296021,0.1342,-0.02623,-31.6225,-19.565,-5.355
1469,10118966,0.562542,0.09906401,0.002196,-32.375,-18.6725,-7.6825
1470,10119063,0.5987760999999999,0.062586,-0.015006,-32.3225,-17.8325,-9.625
1471,10119159,0.67161,0.0064659999999999995,0.012444,-31.01,-16.3975,-10.3775
1472,10119256,0.7330979999999999,-0.0305,0.071858,-29.3825,-7.4025,-10.0975
1473,10119353,0.787388,-0.043798000000000004,0.068686,-28.2625,4.6725,-9.1175
1474,10119449,0.8239880999999999,-0.056729999999999996,0.025742,-28.7875,10.5175,-7.4025
1475,10119546,0.846802,-0.07893401,-0.001952,-31.2025,12.2675,-5.2675
1476,10119643,0.9219540999999999,-0.081862,-0.034648000000000005,-34.58,15.7675,-3.045
1477,10119740,1.077382,-0.036478,-0.064782,-33.9325,19.3725,-0.6475
1478,10119836,1.2306139999999999,0.045262000000000004,-0.031598,-27.6325,18.5325,1.8725
1479,10119933,1.248426,0.12871,0.035013999999999997,-16.835,10.8675,1.26
1480,10120030,1.25538,0.16775,0.11724200000000001,-6.125,-3.08,-0.9625
1481,10120127,1.2164620000000002,0.18470799999999998,0.188246,0.105,-5.4425,-2.2575
1482,10120223,1.19865,0.266448,0.260104,2.975,12.285,0.2625
1483,10120320,1.186572,0.23228800000000002,-0.232898,-0.4725,28.3675,2.9225
1484,10120417,1.267458,0.06880801,-0.367098,4.69,7.6125,4.41
1485,10120513,1.4569239999999999,0.211914,-0.28914,-5.215,6.79,10.7275
1486,10120610,1.49389,0.263642,-0.42578,-10.64,14.9275,16.4325
1487,10120707,1.633702,0.26913200000000004,-0.5648601,0.9275,-8.505,20.755
1488,10120804,1.742648,0.34709,-0.512644,18.34,-12.6,30.555
1489,10120900,1.495232,0.31146599999999997,-0.29902199999999995,27.6675,0.105,43.26
1490,10120997,1.272338,0.270596,-0.113094,33.565,-7.4725,43.26
1491,10121094,1.181448,0.118096,-0.119682,31.22,-1.5575,34.545
1492,10121191,1.12789,-0.08845001,-0.44896,16.0125,8.2075,30.205
1493,10121287,1.1303299999999998,-0.28548,-0.45628,11.13,-13.16,32.7775
1494,10121384,1.21268,-0.223138,-0.46848,-11.165,-7.5425,33.95
1495,10121481,1.2750219999999999,-0.137494,-0.389058,-19.88,-0.07,31.78
1496,10121577,1.282098,-0.060267999999999995,-0.359534,-21.4375,0.2625,26.81
1497,10121674,1.374208,0.002562,-0.282796,-20.3875,2.5025,21.2625
1498,10121771,1.418128,0.07246799999999999,-0.181902,-17.5875,4.62,16.625
1499,10121868,1.270142,0.137372,-0.21581799999999998,-7.77,-4.5675,12.1275
1500,10121964,1.149118,0.189222,-0.245098,6.5625,-20.2125,6.545
1501,10122061,1.039684,0.25058800000000003,-0.24778200000000003,17.71,-19.3725,-2.5375
1502,10122158,0.9653860000000001,0.226188,-0.20069,21.7175,-17.0975,-13.5625
1503,10122254,0.893284,0.205448,-0.17751,19.25,-16.9225,-18.9
1504,10122351,0.812276,0.208864,-0.172996,14.35,-21.7525,-19.11
1505,10122448,0.7224841,0.21899000000000002,-0.134078,13.5275,-22.33,-18.3575
1506,10122545,0.6825899999999999,0.22265,-0.083936,17.43,-20.0025,-17.6225
1507,10122641,0.60939,0.203252,-0.108946,22.4175,-20.65,-15.9075
1508,10122738,0.577548,0.21838000000000002,-0.101504,25.235,-28.28,-12.53
1509,10122835,0.5479021,0.204594,-0.11163,25.165,-30.9575,-11.0775
1510,10122932,0.575962,0.17995,-0.058316,25.0075,-31.01,-11.3225
1511,10123028,0.607804,0.172264,-0.035746,22.05,-24.4475,-10.1675
1512,10123125,0.635254,0.111508,-0.034282,22.7325,-18.4975,-9.765
1513,10123222,0.606584,0.068076,-0.06746601,23.5725,-19.6175,-8.575
1514,10123319,0.5753520000000001,0.030133999999999998,-0.069052,25.2525,-23.5375,-6.6675
1515,10123415,0.55937,0.016225999999999997,-0.083204,26.565,-22.54,-3.955
1516,10123512,0.542046,0.014396,-0.08064199,26.1625,-19.5825,-1.8725
1517,10123609,0.530456,0.01586,-0.06746601,24.7625,-17.0975,0.7525
1518,10123705,0.5502199999999999,0.004148001,-0.058072000000000006,23.7825,-15.4875,2.905
1519,10123802,0.58255,0.012444,-0.014518000000000001,22.89,-15.3475,5.3025
1520,10123899,0.653188,0.05172801,0.06405001,20.65,-13.9825,6.965
1521,10123996,0.7004020000000001,0.071858,0.134688,18.305,-8.6625,8.295
1522,10124092,0.7406621,0.102968,0.117852,14.4025,-2.1,8.6275
1523,10124189,0.768966,0.13176,0.06795401,8.4175,2.4325,8.5925
1524,10124286,0.790194,0.123464,0.068686,3.99,6.4575,8.1725
1525,10124382,0.772992,0.053314,0.038551999999999996,6.6325,12.845,7.2625
1526,10124479,0.8294780999999999,-0.017812,0.06600201,8.4175,14.3675,6.755
1527,10124576,0.8992620000000001,-0.101504,0.135176,12.0575,23.17,5.5125
1528,10124673,1.009306,-0.104432,0.038796,8.96,31.3775,3.78
1529,10124769,1.220366,-0.023912,-0.058926,-2.2575,23.6075,1.715
1530,10124866,1.348832,-0.016958,-0.061732,-8.4175,11.375,1.4
1531,10124963,1.320284,-0.016836,0.018178,-11.095,-2.8175,4.4275
1532,10125059,1.2999100000000001,0.011346,0.115168,-13.755,-7.8225,9.38
1533,10125156,1.3146719999999998,-0.019275999999999998,0.233386,-10.1675,5.8625,7.7
1534,10125253,1.307108,-0.08466801,0.298168,-2.905,26.845,-0.805
1535,10125350,1.302716,-0.103334,0.08808401,3.36,41.7725,-6.58
1536,10125446,1.244766,-0.00671,-0.461038,11.1825,22.6975,-5.8625
1537,10125543,1.2069459999999999,0.034892,-0.35014,6.0025,-17.2025,-2.1875
1538,10125640,1.356152,0.028914,-0.186782,16.695,-16.555,-5.215
1539,10125737,1.4692459999999998,0.139812,-0.41248199999999996,5.9675,-11.235,-13.405
1540,10125833,1.660664,0.10687200000000001,-0.47518999999999995,-11.8475,-8.575,-23.485
1541,10125930,1.690798,-0.00488,-0.471896,-35.945,0.3325,-41.755
1542,10126027,1.4130040000000001,-0.124806,-0.359534,-45.92,8.4175,-58.2225
1543,10126123,1.16815,-0.121512,-0.300608,-47.32,4.27,-60.5325
1544,10126220,0.9974719999999999,0.041358,-0.3965,-35.63,3.5,-58.31
1545,10126317,0.9414741,0.254736,-0.636352,-18.48,-0.8225,-55.895
1546,10126414,1.1192280000000001,0.271084,-0.5666899999999999,7.07,2.8175,-53.2875
1547,10126510,1.352248,0.337208,-0.36783000000000005,23.52,25.13,-51.555
1548,10126607,1.524512,0.4087,-0.27145,22.5575,31.92,-46.1825
1549,10126704,1.5609899999999999,0.25058800000000003,-0.20630199999999999,26.4075,18.9175,-34.93
1550,10126801,1.401414,0.067222,-0.211914,23.24,-3.5875,-26.8625
1551,10126897,1.2334200000000002,-0.048922,-0.254126,12.8625,-24.2725,-20.405
1552,10126994,1.214022,-0.13725,-0.274988,0.77,-28.3325,-13.475
1553,10127091,1.1869379999999998,-0.162504,-0.284382,-13.825,-20.3,-4.9
1554,10127188,1.158756,-0.171898,-0.23753400000000002,-24.3075,-20.5625,3.885
1555,10127284,1.0554219999999999,-0.15945399999999998,-0.22362600000000002,-30.03,-24.57,10.9025
1556,10127381,0.9370821,-0.151036,-0.226554,-32.1475,-27.125,15.155
1557,10127478,0.8724219999999999,-0.14152,-0.17763199999999998,-32.585,-24.3075,16.625
1558,10127575,0.795074,-0.136762,-0.161528,-34.4575,-17.57,15.12
1559,10127671,0.685762,-0.156648,-0.18788,-35.3325,-17.3425,12.4425
1560,10127768,0.686738,-0.220942,-0.12431800000000001,-33.9325,-23.4675,9.555
1561,10127865,0.6771,-0.20374,-0.09882,-34.3175,-20.265,10.675
1562,10127961,0.638304,-0.168726,-0.095038,-35.0,-18.8125,11.165
1563,10128058,0.5978,-0.155184,-0.082228,-33.81,-22.0325,11.4275
1564,10128155,0.633668,-0.155428,-0.017934000000000002,-34.265,-23.7125,11.1825
1565,10128252,0.666852,-0.10126,-0.009882,-35.5075,-19.215,12.845
1566,10128348,0.62647,-0.041236,-0.0305,-36.6975,-17.1675,11.7075
1567,10128445,0.6062181,0.036112,-0.057584,-38.745,-18.9175,9.415
1568,10128542,0.544852,0.08662001,-0.09272000000000001,-39.83,-16.0475,5.95
1569,10128639,0.5516840000000001,0.09479401,-0.093696,-38.9375,-15.68,1.82
1570,10128735,0.522892,0.10809200000000001,-0.100406,-39.2175,-15.54,-1.645
1571,10128832,0.5058121,0.09540401,-0.09589201,-38.8675,-18.165,-6.09
1572,10128929,0.528504,0.07307801,-0.073688,-40.25,-21.91,-9.485
1573,10129026,0.579012,0.051972000000000004,-0.04697001,-41.02,-21.4025,-11.795
1574,10129122,0.647942,0.023302,-0.011101999999999999,-41.7725,-18.34,-12.705
1575,10129219,0.711016,0.015006,0.045872,-41.755,-10.6575,-11.235
1576,10129316,0.7582300000000001,-0.012565999999999999,0.08759601,-40.425,0.8575,-8.96
1577,10129412,0.7801899999999999,0.0034159999999999998,0.08369201,-39.515,11.585,-6.0725
1578,10129509,0.7622561,0.016225999999999997,0.041724000000000004,-39.865,16.835,-3.8325
1579,10129606,0.7390760000000001,-0.007686,-0.00976,-37.2925,19.1275,-2.5375
1580,10129703,0.8245979999999999,-0.013054,-0.106262,-31.78,20.3875,-1.6625
1581,10129799,1.01321,0.07112601,-0.10638399999999999,-23.66,17.7625,-0.77
1582,10129896,1.2147540000000001,0.208864,-0.037332,-13.58,17.1325,-0.56
1583,10129993,1.306986,0.319274,0.098332,-0.8225,16.6075,-1.0675
1584,10130089,1.319552,0.370026,0.18446400000000002,7.7175,9.31,-2.6775
1585,10130186,1.263188,0.267424,0.233386,11.9,4.7075,-3.92
1586,10130283,1.245498,0.24046199999999998,0.274378,6.3,12.18,-3.605
1587,10130380,1.229638,0.208864,0.300242,-6.9825,27.895,-2.66
1588,10130476,1.197674,0.010248,-0.18544000000000002,-17.185,22.6975,-4.445
1589,10130573,1.318576,-0.202276,-0.374418,-18.3575,-14.665,-6.125
1590,10130670,1.433134,-0.055510000000000004,-0.349896,-27.23,-22.8725,-1.6625
1591,10130767,1.339194,0.005612,-0.46921199999999996,-33.7225,-19.355,7.0525
1592,10130863,1.41703,-0.001464,-0.7013781,-11.935,-23.2575,13.9475
1593,10130960,1.6662759999999999,0.142862,-0.590724,14.35,-22.5925,25.83
1594,10131057,1.5403719999999999,0.377712,-0.309026,18.7775,-8.9075,43.4875
1595,10131153,1.280268,0.477264,-0.21166999999999997,28.035,-13.51,46.8825
1596,10131250,1.010282,0.325496,-0.302438,28.105,-22.6625,41.2475
1597,10131347,0.8991401,0.07600599999999999,-0.411628,11.3575,-21.77,38.3075
1598,10131444,0.9901521000000001,-0.155428,-0.39418200000000003,-2.7825,-8.6975,40.74
1599,10131540,1.10715,-0.15945399999999998,-0.25864000000000004,-18.0775,14.9975,41.44
1600,10131637,1.21878,-0.159332,-0.24522,-31.78,26.7925,40.04
1601,10131734,1.313086,-0.21886799999999998,-0.329644,-28.21,21.8575,35.4375
1602,10131830,1.2658719999999999,-0.141398,-0.310612,-29.435,12.285,26.4775
1603,10131927,1.294664,-0.010004,-0.245952,-30.6075,13.37,15.365
1604,10132024,1.26758,0.09345201,-0.168848,-17.1325,19.2675,4.935
1605,10132120,1.2373239999999999,0.26461799999999996,-0.137494,-8.6625,11.1125,-1.3825
1606,10132217,1.101416,0.36173,-0.153598,2.31,-4.935,-8.365
1607,10132314,1.019432,0.317322,-0.18788,11.375,-21.0525,-14.35
1608,10132411,0.936472,0.28157600000000005,-0.188246,11.515,-22.12,-18.83
1609,10132507,0.8117880000000001,0.22204000000000002,-0.14335,11.3575,-19.565,-21.2275
1610,10132604,0.7332201,0.242292,-0.146644,10.4125,-21.4725,-18.97
1611,10132701,0.724924,0.215452,-0.111874,13.265,-22.96,-16.38
1612,10132797,0.723094,0.206668,-0.08869401,15.715,-22.05,-11.9875
1613,10132894,0.7478600000000001,0.174704,-0.081374,18.3575,-21.1225,-12.145
1614,10132991,0.6977180000000001,0.182024,-0.066856,19.6,-24.815,-9.695
1615,10133088,0.655384,0.165798,-0.057828,19.6875,-26.5825,-8.2075
1616,10133184,0.678442,0.14945,-0.00488,20.7025,-24.5175,-7.56
1617,10133281,0.5975560000000001,0.119316,-0.037454,18.83,-20.93,-7.455
1618,10133378,0.63562,0.081252,-0.008296000999999999,18.0425,-22.89,-6.685
1619,10133475,0.612928,0.038186000000000005,-0.015006,16.2575,-20.1425,-5.8975
1620,10133571,0.5980439999999999,0.005856,-0.012931999999999999,14.175,-21.105,-3.57
1621,10133668,0.5692520000000001,-0.001952,-0.02257,11.1125,-19.6875,-1.785
1622,10133765,0.576084,-0.010614,-0.032818,9.17,-16.1175,0.5075
1623,10133861,0.58987,-0.009028000999999999,-0.016592,8.89,-13.475,2.3625
1624,10133958,0.598288,0.004758,-0.008784,7.525,-14.105,3.5
1625,10134055,0.623542,0.007686,0.00976,8.5225,-13.8075,4.3575
1626,10134152,0.6335460999999999,0.039894,0.00488,9.5725,-12.6,4.6725
1627,10134248,0.653554,0.071614,-0.061854,11.3225,-12.775,4.9875
1628,10134345,0.6795401,0.123464,-0.07442,15.2425,-13.545,4.165
1629,10134442,0.688934,0.18544000000000002,-0.083204,20.58,-11.795,3.6225
1630,10134538,0.72102,0.242414,-0.066246,28.1225,-10.535,4.305
1631,10134635,0.79971,0.24766,-0.007320001,35.1575,-4.0775,5.7225
1632,10134732,0.8199620000000001,0.190564,0.036966000000000006,40.5125,10.15,4.375
1633,10134829,0.9052401,0.173362,0.095282,36.3125,20.9825,2.17
1634,10134925,1.08885,0.188002,0.07442,27.2125,31.4125,-2.205
1635,10135022,1.1538760000000001,0.08296,0.031232,15.8025,31.7625,-7.245
1636,10135119,1.1509479999999999,-0.07015,0.034282,2.1,15.96,-6.0375
1637,10135216,1.2395200000000002,-0.16689600000000002,0.189344,-9.485,-0.5775,-1.7675
1638,10135312,1.367864,-0.25351599999999996,0.330986,-13.7725,0.105,-1.9075
1639,10135409,1.337974,-0.261812,0.161406,-10.71,15.3475,-9.0825
1640,10135506,1.340048,-0.22691999999999998,-0.447374,-6.0725,18.375,-14.7525
1641,10135602,1.5074319999999999,-0.265594,-0.389424,-4.2525,-3.6225,-15.61
1642,10135699,1.6356540000000002,-0.29426399999999997,-0.273524,12.3025,-11.6725,-20.615
1643,10135796,1.6419979999999998,-0.132004,-0.549366,9.625,-16.2575,-27.335
1644,10135893,1.6804279999999998,-0.135298,-0.493978,-10.8675,-25.655,-35.5775
1645,10135989,1.75436,-0.11224,-0.328058,-31.1675,-10.8325,-52.57
1646,10136086,1.572336,-0.14579,-0.075396,-41.3875,17.8325,-66.7275
1647,10136183,1.315526,0.034892,-0.069906,-47.39,27.51,-68.985
1648,10136280,1.133502,0.342454,-0.31781,-46.6725,14.7875,-60.655
1649,10136376,1.141432,0.423584,-0.577182,-29.82,5.845,-50.1725
1650,10136473,1.1636360000000001,0.34526,-0.6832,0.8575,-2.24,-46.8825
1651,10136570,1.185474,0.39284,-0.586576,27.755,-18.62,-52.8325
1652,10136667,1.2608700000000002,0.444934,-0.47555600000000003,34.6325,-24.22,-55.125
1653,10136763,1.419592,0.303292,-0.39955,39.83,-3.395,-50.085
1654,10136860,1.486936,0.08113001,-0.281088,38.2375,6.0375,-43.4525
1655,10136957,1.4422840000000001,-0.08564401,-0.183732,31.7975,-2.0475,-36.1025
1656,10137053,1.316624,-0.146766,-0.22935999999999998,23.275,-12.32,-28.91
1657,10137150,1.188768,-0.174704,-0.272548,19.6,-21.8575,-21.7525
1658,10137247,1.164246,-0.149816,-0.25522399999999995,10.9725,-23.38,-13.1775
1659,10137344,1.076284,-0.14188599999999998,-0.252296,2.1175,-17.045,-1.995
1660,10137440,0.973316,-0.124806,-0.239608,-4.48,-22.19,8.5225
1661,10137537,0.9340321,-0.100162,-0.169702,-8.155,-24.5525,14.5775
1662,10137634,0.8283799999999999,-0.08674201,-0.169702,-10.0625,-19.3725,17.08
1663,10137730,0.7417600000000001,-0.10345599999999999,-0.15237799999999999,-10.045,-20.9125,16.7125
1664,10137827,0.66978,-0.12749000000000002,-0.136884,-9.0825,-20.51,12.775
1665,10137924,0.6980841,-0.158966,-0.11834000000000001,-9.275,-20.51,7.6125
1666,10138021,0.6653880999999999,-0.153354,-0.11650999999999999,-8.995,-19.355,5.5475
1667,10138117,0.6124400999999999,-0.145058,-0.105652,-4.8825,-20.405,1.89
1668,10138214,0.661972,-0.129442,-0.03355,-2.3975,-20.6325,1.4175
1669,10138311,0.649528,-0.128832,-0.052703999999999994,-3.01,-15.925,2.45
1670,10138408,0.67466,-0.053924,-0.009394,-1.645,-16.485,2.2925
1671,10138504,0.698816,0.076616,0.004148001,-4.9525,-13.1775,3.57
1672,10138601,0.556686,0.08064199,-0.033428,-0.98,-12.04,2.66
1673,10138698,0.5352140000000001,0.11211800000000001,-0.023668,1.68,-11.69,-1.2425
1674,10138794,0.508618,0.171044,-0.034526,-2.695,-9.1,-4.3225
1675,10138891,0.476288,0.19702999999999998,-0.062098,-3.22,-9.625,-6.7725
1676,10138988,0.46055,0.14688800000000002,-0.079056,-1.6625,-12.18,-9.24
1677,10139085,0.48848800000000003,0.08479,-0.074664,0.1925,-15.4525,-11.97
1678,10139181,0.521184,0.040016,-0.032818,1.015,-16.03,-14.8225
1679,10139278,0.566812,-0.022203999999999998,0.02928,1.4525,-14.2275,-18.725
