,T,ax,ay,az,gx,gy,gz
0,81710,0.465308,0.06490399999999999,-0.639768,20.1425,-19.775,-12.145
1,81859,0.49898000000000003,0.077836,-0.74908,-81.2,38.15,-214.8475
2,81957,0.5404601,0.09442801,-0.799588,-13.055,-98.1225,-355.285
3,82055,0.541924,0.09613601,-0.8044680999999999,29.6975,-104.405,-85.68
4,82153,0.542656,0.094672,-0.8071520000000001,1.3125,-7.14,-7.4725
5,82251,0.543388,0.09516001,-0.806908,0.875,-5.6875,-6.4225
6,82349,0.544608,0.09711201,-0.806908,0.9975,-5.6175,-6.3875
7,82447,0.5441199999999999,0.09516001,-0.8054439999999999,1.05,-5.565,-6.3175
8,82545,0.543144,0.09442801,-0.8044680999999999,0.9975,-5.565,-6.37
9,82643,0.543876,0.09418401,-0.8076399999999999,0.9275,-5.5125,-6.3875
10,82742,0.543388,0.094916,-0.807396,0.98,-5.53,-6.4925
11,82840,0.544852,0.09784401,-0.808372,0.875,-5.46,-6.51
12,82938,0.543632,0.09735601,-0.8066641,0.9975,-5.3375,-6.37
13,83036,0.543876,0.094916,-0.8071520000000001,1.1025,-5.215,-6.2125
14,83134,0.539972,0.09345201,-0.805688,1.26,-5.18,-6.23
15,83232,0.542656,0.092964,-0.805932,1.1375,-5.1275,-6.335
16,83330,0.543144,0.08954801,-0.807396,1.05,-5.1975,-6.37
17,83428,0.544852,0.092964,-0.8054439999999999,0.8925,-5.215,-6.4225
18,83526,0.543876,0.09418401,-0.8066641,0.8925,-5.1975,-6.5625
19,83624,0.5455840000000001,0.091012,-0.8052,0.8225,-5.145,-6.4225
20,83722,0.54778,0.093696,-0.80642,0.8225,-5.25,-6.4575
21,83820,0.543876,0.09272000000000001,-0.8039801,0.7525,-5.2325,-6.58
22,83918,0.5443640000000001,0.09516001,-0.8047121,0.6825,-5.4075,-6.6325
23,84016,0.547048,0.09442801,-0.805932,0.7175,-5.3375,-6.65
24,84114,0.5443640000000001,0.09638,-0.806908,0.6825,-5.355,-6.755
25,84212,0.543388,0.09247601,-0.8042239999999999,0.735,-5.355,-6.7375
26,84310,0.547536,0.09345201,-0.805688,0.63,-5.39,-6.685
27,84408,0.544852,0.094916,-0.8049561,0.5775,-5.3375,-6.7375
28,84506,0.543388,0.092964,-0.8044680999999999,0.7,-5.355,-6.72
29,84604,0.543388,0.094672,-0.805688,0.6825,-5.285,-6.685
30,84702,0.5453399999999999,0.09418401,-0.8047121,0.6825,-5.3375,-6.685
31,84800,0.546804,0.09540401,-0.8030041,0.665,-5.285,-6.755
32,84899,0.544608,0.09272000000000001,-0.8049561,0.63,-5.355,-6.7725
33,84997,0.5443640000000001,0.09272000000000001,-0.8042239999999999,0.6125,-5.3725,-6.6675
34,85095,0.5463161,0.093696,-0.80276,0.63,-5.285,-6.7025
35,85193,0.5453399999999999,0.09272000000000001,-0.8047121,0.525,-5.4075,-6.8425
36,85291,0.5455840000000001,0.093696,-0.8039801,0.42,-5.4775,-6.9825
37,85389,0.548756,0.09711201,-0.8042239999999999,0.4025,-5.5125,-7.0
38,85487,0.5441199999999999,0.09345201,-0.806176,0.455,-5.5825,-6.8775
39,85585,0.547536,0.09540401,-0.8042239999999999,0.35,-5.6525,-6.9825
40,85683,0.547536,0.09784401,-0.8052,0.4025,-5.6525,-6.965
41,85781,0.5443640000000001,0.0976,-0.805932,0.4025,-5.6525,-6.9825
42,85879,0.5455840000000001,0.096624,-0.8039801,0.5075,-5.7225,-6.93
43,85977,0.548024,0.09784401,-0.8030041,0.49,-5.6,-6.8075
44,86075,0.546072,0.09272000000000001,-0.803492,0.63,-5.635,-6.755
45,86173,0.545096,0.09272000000000001,-0.803492,0.5775,-5.7575,-6.7725
46,86271,0.54656,0.093696,-0.8047121,0.595,-5.845,-6.755
47,86369,0.54778,0.095648,-0.8030041,0.5425,-5.845,-6.79
48,86467,0.5453399999999999,0.09589201,-0.8025161,0.455,-5.9325,-6.965
49,86565,0.5455840000000001,0.093696,-0.801296,0.3675,-6.1775,-7.07
50,86663,0.54778,0.09735601,-0.803248,0.2275,-6.23,-7.035
51,86761,0.5453399999999999,0.095648,-0.803736,0.245,-6.3,-7.1225
52,86860,0.543144,0.09589201,-0.8052,0.21,-6.3,-7.14
53,86958,0.545096,0.0976,-0.805932,0.175,-6.195,-7.07
54,87056,0.546804,0.09638,-0.803492,0.245,-6.2475,-7.0175
55,87154,0.543876,0.09711201,-0.8049561,0.35,-6.1775,-6.965
56,87252,0.5458281,0.09418401,-0.803248,0.315,-6.3,-6.93
57,87350,0.546072,0.09735601,-0.806176,0.35,-6.2125,-6.895
58,87448,0.546072,0.098576,-0.8052,0.42,-6.2825,-6.86
59,87546,0.545096,0.09906401,-0.8025161,0.5075,-6.2125,-6.895
60,87644,0.546072,0.098576,-0.8066641,0.6125,-6.09,-6.7025
61,87742,0.5443640000000001,0.09930800000000001,-0.8039801,0.6475,-6.125,-6.545
62,87840,0.5414359999999999,0.09638,-0.8044680999999999,0.735,-6.0375,-6.6325
63,87938,0.5443640000000001,0.09516001,-0.806176,0.735,-5.95,-6.5275
64,88036,0.542656,0.09613601,-0.8049561,0.735,-6.0375,-6.5275
65,88134,0.542656,0.09784401,-0.8039801,0.63,-6.1775,-6.6325
66,88232,0.540216,0.09345201,-0.8047121,0.5425,-6.335,-6.7025
67,88330,0.540948,0.098332,-0.8020281,0.35,-6.2825,-6.93
68,88428,0.543144,0.100284,-0.805688,0.56,-6.1075,-6.825
69,88526,0.542412,0.09906401,-0.803736,0.6825,-5.915,-6.6675
70,88624,0.54168,0.096868,-0.802272,0.7,-5.88,-6.6325
71,88722,0.5429,0.096868,-0.806908,0.7,-5.9325,-6.5275
72,88820,0.542656,0.09784401,-0.803492,0.6825,-5.845,-6.44
73,88918,0.541924,0.09979600000000001,-0.8042239999999999,0.7875,-5.7575,-6.545
74,89016,0.5441199999999999,0.099552,-0.8052,0.77,-5.67,-6.5275
75,89114,0.543876,0.0976,-0.8054439999999999,0.8925,-5.67,-6.4925
76,89212,0.543144,0.098576,-0.8047121,0.8575,-5.6175,-6.4575
77,89310,0.544608,0.09540401,-0.805688,0.8925,-5.6525,-6.4925
78,89409,0.5455840000000001,0.096868,-0.8054439999999999,0.8925,-5.74,-6.51
79,89507,0.5443640000000001,0.09711201,-0.8049561,0.805,-5.775,-6.405
80,89605,0.5397281,0.09442801,-0.8054439999999999,0.8400001,-5.7225,-6.44
81,89703,0.543388,0.095648,-0.80642,0.8575,-5.74,-6.5625
82,89801,0.542656,0.098332,-0.803248,0.7175,-5.7225,-6.4925
83,89899,0.5441199999999999,0.09711201,-0.80642,0.7875,-5.5825,-6.545
84,89997,0.543144,0.09735601,-0.80276,0.77,-5.6,-6.5275
85,90095,0.5429,0.096868,-0.805688,0.8225,-5.6,-6.3875
86,90193,0.542656,0.09638,-0.805688,0.8400001,-5.635,-6.44
87,90291,0.543388,0.09613601,-0.8052,0.77,-5.5125,-6.545
88,90389,0.546072,0.096868,-0.8049561,0.805,-5.46,-6.4925
89,90487,0.544608,0.0976,-0.80642,0.77,-5.4775,-6.5975
90,90585,0.544852,0.09735601,-0.8042239999999999,0.735,-5.46,-6.5275
91,90683,0.542412,0.098576,-0.8042239999999999,0.805,-5.39,-6.51
92,90781,0.543388,0.096624,-0.8047121,0.8225,-5.3375,-6.545
93,90879,0.544852,0.096624,-0.8047121,0.8400001,-5.355,-6.5625
94,90977,0.543144,0.09442801,-0.806908,0.8575,-5.3725,-6.5275
95,91075,0.545096,0.098332,-0.8047121,0.8575,-5.3375,-6.44
96,91173,0.542412,0.09906401,-0.8047121,0.8925,-5.285,-6.37
97,91271,0.542412,0.096868,-0.803492,1.05,-5.355,-6.3525
98,91369,0.543632,0.09516001,-0.8066641,1.0675,-5.1975,-6.2825
99,91467,0.543876,0.09882,-0.8015399999999999,0.9975,-5.1975,-6.265
100,91566,0.543632,0.09638,-0.806176,1.085,-5.215,-6.2825
101,91664,0.544852,0.100772,-0.801784,1.0675,-5.0925,-6.16
102,91762,0.542656,0.09882,-0.8025161,1.19,-5.0575,-6.1425
103,91860,0.544852,0.09784401,-0.8044680999999999,1.365,-4.9525,-6.09
104,91958,0.548268,0.09540401,-0.801784,1.4,-4.83,-5.9325
105,92056,0.545096,0.09711201,-0.8042239999999999,1.5225,-4.9875,-5.88
106,92154,0.544852,0.098576,-0.8030041,1.5225,-4.9175,-5.8625
107,92252,0.54656,0.09638,-0.7998321,1.645,-4.865,-5.7925
108,92350,0.546804,0.096868,-0.8030041,1.6625,-4.8825,-5.74
109,92448,0.546804,0.09711201,-0.8042239999999999,1.505,-4.935,-5.81
110,92546,0.5463161,0.09882,-0.8030041,1.505,-5.075,-5.7575
111,92644,0.547048,0.094672,-0.800564,1.6275,-5.11,-5.6525
112,92742,0.5463161,0.094916,-0.803248,1.75,-5.1975,-5.6875
113,92840,0.5453399999999999,0.09272000000000001,-0.8010520000000001,1.68,-5.11,-5.6175
114,92938,0.543876,0.091744,-0.802272,1.6625,-5.18,-5.6875
115,93036,0.546804,0.09540401,-0.801296,1.4,-5.2325,-5.8275
116,93135,0.547048,0.09394001,-0.8015399999999999,1.365,-5.285,-5.88
117,93233,0.546804,0.09272000000000001,-0.8025161,1.225,-5.3375,-6.055
118,93331,0.546804,0.09345201,-0.800564,1.05,-5.4425,-6.09
119,93429,0.544608,0.091012,-0.803492,0.945,-5.6175,-6.23
120,93527,0.5453399999999999,0.09272000000000001,-0.8030041,0.8400001,-5.6175,-6.405
121,93625,0.5458281,0.091744,-0.801296,0.7525,-5.6525,-6.475
122,93723,0.546804,0.09418401,-0.8015399999999999,0.805,-5.74,-6.5625
123,93821,0.5463161,0.094672,-0.8020281,0.77,-5.7575,-6.65
124,93919,0.545096,0.092964,-0.800808,0.8225,-5.635,-6.615
125,94017,0.5463161,0.099552,-0.8010520000000001,0.665,-5.6525,-6.58
126,94115,0.54778,0.09516001,-0.800808,0.7875,-5.6,-6.4925
127,94213,0.54656,0.094916,-0.799588,0.8225,-5.705,-6.545
128,94311,0.548756,0.09442801,-0.801784,0.735,-5.845,-6.58
129,94409,0.549244,0.09784401,-0.803492,0.665,-5.8975,-6.545
130,94507,0.546804,0.09784401,-0.8042239999999999,0.7,-5.8975,-6.58
131,94605,0.548756,0.094916,-0.8020281,0.945,-5.8975,-6.3525
132,94703,0.548512,0.094672,-0.800808,0.9975,-5.8975,-6.2475
133,94801,0.548512,0.096624,-0.80276,1.085,-5.8975,-6.2475
134,94899,0.54656,0.09418401,-0.80276,1.1375,-5.81,-6.2125
135,94997,0.546804,0.093696,-0.8049561,1.0675,-5.74,-6.16
136,95095,0.5489999999999999,0.09784401,-0.8049561,1.05,-5.7225,-6.1775
137,95194,0.5453399999999999,0.094672,-0.8039801,1.155,-5.6175,-6.1775
138,95292,0.5455840000000001,0.09125599999999999,-0.801784,1.12,-5.635,-6.09
139,95390,0.546804,0.09516001,-0.8020281,1.0325,-5.7925,-6.23
140,95488,0.544608,0.091744,-0.803248,1.085,-5.8975,-6.2475
141,95586,0.547536,0.09418401,-0.800808,1.015,-5.8625,-6.265
142,95684,0.548024,0.09442801,-0.802272,0.9975,-6.09,-6.23
143,95782,0.547292,0.09394001,-0.801296,1.015,-6.0725,-6.3175
144,95880,0.546072,0.09345201,-0.8010520000000001,0.91,-6.0725,-6.335
145,95978,0.548756,0.093696,-0.8015399999999999,0.98,-6.125,-6.4925
146,96076,0.547292,0.09613601,-0.8030041,0.8575,-6.1775,-6.405
147,96174,0.547536,0.094916,-0.801784,0.9625,-6.2125,-6.2125
148,96272,0.546072,0.09394001,-0.8020281,1.085,-6.2125,-6.0725
149,96370,0.543632,0.09345201,-0.803492,1.19,-6.1775,-6.0025
150,96468,0.5443640000000001,0.09223200000000001,-0.8025161,1.295,-5.9325,-5.9675
151,96566,0.545096,0.09247601,-0.8003201,1.365,-5.915,-5.95
152,96664,0.547048,0.09272000000000001,-0.8010520000000001,1.3825,-5.9325,-6.02
153,96762,0.5441199999999999,0.091744,-0.8025161,1.19,-5.8975,-6.0025
154,96860,0.5429,0.090768,-0.803248,1.26,-5.9675,-5.95
155,96958,0.5404601,0.09150001,-0.8049561,1.2075,-6.055,-6.0725
156,97057,0.54168,0.089792,-0.803736,1.19,-5.8625,-6.195
157,97155,0.5441199999999999,0.08857201,-0.802272,0.875,-5.845,-6.37
158,97253,0.541924,0.09272000000000001,-0.803248,0.7175,-5.7925,-6.475
159,97351,0.541924,0.09150001,-0.8020281,0.9275,-5.705,-6.4225
160,97449,0.541924,0.091012,-0.8025161,0.805,-5.705,-6.44
161,97547,0.544608,0.09028,-0.8025161,0.8225,-5.6525,-6.4925
162,97645,0.544852,0.09052401,-0.8039801,0.77,-5.6525,-6.51
163,97743,0.543144,0.08857201,-0.803492,0.8400001,-5.705,-6.4925
164,97841,0.541192,0.09247601,-0.803248,0.735,-5.705,-6.58
165,97939,0.542656,0.090768,-0.80276,0.6475,-5.6175,-6.51
166,98037,0.5453399999999999,0.093696,-0.8025161,0.595,-5.6,-6.615
167,98135,0.545096,0.091744,-0.8030041,0.63,-5.4775,-6.58
168,98233,0.5443640000000001,0.09223200000000001,-0.80276,0.6825,-5.67,-6.5275
169,98331,0.544852,0.090036,-0.8052,0.805,-5.5825,-6.5625
170,98429,0.5455840000000001,0.09223200000000001,-0.8020281,0.6825,-5.495,-6.5975
171,98527,0.5429,0.094672,-0.8049561,0.7175,-5.5475,-6.615
172,98625,0.545096,0.093696,-0.800564,0.7175,-5.4775,-6.5275
173,98723,0.5429,0.095648,-0.8030041,0.805,-5.565,-6.4925
174,98821,0.544608,0.09223200000000001,-0.802272,0.875,-5.495,-6.4925
175,98919,0.547048,0.09442801,-0.8030041,0.9975,-5.355,-6.3875
176,99017,0.545096,0.09394001,-0.8020281,1.12,-5.3725,-6.3525
177,99115,0.543632,0.09125599999999999,-0.8015399999999999,1.2775,-5.4075,-6.3175
178,99214,0.543632,0.08954801,-0.80276,1.155,-5.4075,-6.2825
179,99312,0.543876,0.092964,-0.8030041,1.225,-5.3025,-6.2475
180,99410,0.543144,0.09028,-0.802272,1.26,-5.3025,-6.2125
181,99508,0.544608,0.09272000000000001,-0.801296,1.225,-5.32,-6.0725
182,99606,0.54656,0.08662001,-0.80276,1.4525,-5.1625,-5.9675
183,99704,0.5443640000000001,0.08906,-0.80276,1.435,-5.1625,-5.985
184,99802,0.543876,0.09028,-0.803248,1.3825,-5.04,-6.0375
185,99900,0.5455840000000001,0.089304,-0.802272,1.295,-5.075,-6.195
186,99998,0.543876,0.086864,-0.80276,1.2425,-5.145,-6.2475
187,100096,0.543144,0.087352,-0.8044680999999999,1.085,-5.0925,-6.265
188,100194,0.545096,0.08906,-0.802272,0.8575,-5.1275,-6.405
189,100292,0.547292,0.09150001,-0.8044680999999999,0.7875,-5.11,-6.475
190,100390,0.54778,0.09272000000000001,-0.801784,0.8400001,-5.005,-6.44
191,100488,0.54656,0.08881599,-0.8025161,1.015,-4.9875,-6.4225
192,100586,0.547292,0.090768,-0.802272,0.945,-5.0925,-6.51
193,100684,0.548512,0.092964,-0.8003201,0.8575,-5.0225,-6.475
194,100782,0.5514399999999999,0.08857201,-0.801784,0.8925,-5.04,-6.475
195,100880,0.5458281,0.091988,-0.8044680999999999,0.945,-5.075,-6.4925
196,100978,0.547292,0.09150001,-0.803248,0.945,-5.005,-6.4925
197,101076,0.547536,0.08954801,-0.800808,0.945,-5.0225,-6.4225
198,101174,0.549244,0.091988,-0.8003201,0.8925,-5.11,-6.4225
199,101272,0.547536,0.08759601,-0.7991,0.9275,-5.0225,-6.44
200,101371,0.54778,0.086864,-0.8010520000000001,0.8225,-5.1625,-6.545
201,101469,0.548756,0.087352,-0.801296,0.6475,-5.25,-6.755
202,101567,0.5463161,0.09052401,-0.8020281,0.6125,-5.4075,-6.8425
203,101665,0.547292,0.08954801,-0.800564,0.5075,-5.2675,-6.86
204,101763,0.548512,0.09125599999999999,-0.801296,0.5425,-5.18,-6.7025
205,101861,0.549732,0.08857201,-0.800808,0.5075,-5.215,-6.9125
206,101959,0.550952,0.09247601,-0.8010520000000001,0.4375,-5.4075,-6.8425
207,102057,0.549244,0.088328,-0.800076,0.385,-5.425,-6.755
208,102155,0.546072,0.08954801,-0.8020281,0.4025,-5.46,-6.93
209,102253,0.548268,0.08954801,-0.801296,0.2975,-5.53,-7.0525
210,102351,0.548756,0.08784,-0.799588,0.2275,-5.705,-7.1225
211,102449,0.55266,0.09223200000000001,-0.800076,0.1925,-5.6175,-7.105
212,102547,0.548756,0.092964,-0.7986121,0.2625,-5.7225,-7.0875
213,102645,0.5489999999999999,0.09125599999999999,-0.8010520000000001,0.2975,-5.775,-6.965
214,102743,0.547048,0.08857201,-0.7978801,0.3325,-5.81,-7.0
215,102841,0.548756,0.09345201,-0.801296,0.2975,-5.81,-6.965
216,102939,0.54778,0.09345201,-0.8003201,0.3675,-5.88,-6.965
217,103037,0.549732,0.091012,-0.7983680000000001,0.315,-5.7575,-6.8775
218,103135,0.544608,0.091988,-0.800564,0.4025,-5.7925,-6.9825
219,103233,0.550708,0.092964,-0.7991,0.35,-5.88,-7.0525
220,103331,0.549488,0.09247601,-0.8010520000000001,0.3325,-5.8625,-7.0525
221,103429,0.552416,0.092964,-0.7993439999999999,0.315,-5.95,-7.035
222,103528,0.547536,0.08808401,-0.7991,0.35,-5.985,-6.9825
223,103626,0.5489999999999999,0.091012,-0.800076,0.3675,-6.1075,-7.0525
224,103724,0.549244,0.093696,-0.798124,0.2275,-6.16,-7.1225
225,103822,0.549244,0.092964,-0.801784,0.21,-6.1425,-7.14
226,103920,0.548512,0.09442801,-0.8010520000000001,0.245,-6.1775,-6.9125
227,104018,0.5502199999999999,0.09418401,-0.7998321,0.35,-6.2825,-6.9125
228,104116,0.5502199999999999,0.09247601,-0.800808,0.4725,-6.3175,-6.7725
229,104214,0.5455840000000001,0.09442801,-0.7993439999999999,0.5075,-6.37,-6.615
230,104312,0.5458281,0.090768,-0.80276,0.5075,-6.3175,-6.5975
231,104410,0.548268,0.09540401,-0.800564,0.455,-6.3,-6.7025
232,104508,0.548268,0.09272000000000001,-0.8003201,0.595,-6.3175,-6.72
233,104606,0.5441199999999999,0.09320801,-0.8030041,0.6825,-6.2825,-6.545
234,104704,0.546072,0.09418401,-0.8003201,0.7875,-6.1775,-6.58
235,104802,0.548756,0.094916,-0.802272,0.6825,-6.0375,-6.475
236,104900,0.5455840000000001,0.09247601,-0.800808,0.7,-5.9675,-6.615
237,104998,0.547292,0.09394001,-0.8015399999999999,0.6125,-5.915,-6.65
238,105096,0.545096,0.092964,-0.8020281,0.63,-5.8625,-6.5625
239,105194,0.5458281,0.091988,-0.802272,0.665,-5.81,-6.51
240,105292,0.548024,0.093696,-0.8010520000000001,0.7525,-5.705,-6.5275
241,105390,0.547536,0.09418401,-0.801296,0.77,-5.7575,-6.51
242,105488,0.546804,0.091988,-0.803492,0.7525,-5.7225,-6.58
243,105586,0.546804,0.09320801,-0.8015399999999999,0.7525,-5.705,-6.545
244,105684,0.54656,0.091744,-0.801296,0.77,-5.705,-6.6675
245,105782,0.548268,0.09418401,-0.800808,0.56,-5.81,-6.6325
246,105880,0.547048,0.09272000000000001,-0.7991,0.595,-5.74,-6.7025
247,105978,0.54656,0.09394001,-0.799588,0.7,-5.81,-6.6325
248,106076,0.547048,0.094916,-0.800076,0.5425,-5.705,-6.6325
249,106174,0.544608,0.092964,-0.8030041,0.6125,-5.7575,-6.6325
250,106273,0.547048,0.09345201,-0.800808,0.665,-5.6875,-6.685
251,106371,0.5453399999999999,0.09247601,-0.800564,0.7175,-5.705,-6.685
252,106469,0.547536,0.09638,-0.8020281,0.63,-5.5825,-6.685
253,106567,0.547292,0.093696,-0.800076,0.735,-5.67,-6.65
254,106665,0.5463161,0.091012,-0.8025161,0.735,-5.5475,-6.7375
255,106763,0.548024,0.092964,-0.801784,0.6475,-5.53,-6.7725
256,106861,0.547292,0.09442801,-0.8015399999999999,0.56,-5.6,-6.79
257,106959,0.547292,0.094672,-0.801296,0.5425,-5.6175,-6.86
258,107057,0.543876,0.09735601,-0.8015399999999999,0.525,-5.4775,-6.755
259,107155,0.5455840000000001,0.091988,-0.801296,0.665,-5.46,-6.7375
260,107253,0.548268,0.09418401,-0.8010520000000001,0.595,-5.39,-6.7725
261,107351,0.548512,0.094916,-0.801784,0.665,-5.4775,-6.79
262,107449,0.5463161,0.09418401,-0.7993439999999999,0.7175,-5.425,-6.685
263,107547,0.547048,0.09613601,-0.8010520000000001,0.6825,-5.4775,-6.7725
264,107645,0.546804,0.096624,-0.8020281,0.6475,-5.46,-6.755
265,107743,0.547292,0.096868,-0.800076,0.63,-5.39,-6.72
266,107841,0.546804,0.095648,-0.8003201,0.735,-5.5125,-6.685
267,107939,0.5463161,0.091744,-0.80276,0.77,-5.4775,-6.6675
268,108037,0.548756,0.09540401,-0.8025161,0.6825,-5.4075,-6.7375
269,108135,0.5455840000000001,0.09613601,-0.800808,0.5775,-5.4775,-6.7725
270,108233,0.548268,0.094672,-0.803248,0.6825,-5.5475,-6.825
271,108331,0.54656,0.092964,-0.8010520000000001,0.63,-5.5475,-6.72
272,108430,0.550708,0.09247601,-0.7993439999999999,0.665,-5.5475,-6.7375
273,108528,0.546072,0.09638,-0.8020281,0.6125,-5.495,-6.685
274,108626,0.5489999999999999,0.09418401,-0.800808,0.63,-5.4775,-6.7025
275,108724,0.54656,0.09735601,-0.8010520000000001,0.6825,-5.5825,-6.7025
276,108822,0.5502199999999999,0.09516001,-0.800808,0.77,-5.495,-6.7025
277,108920,0.549488,0.09418401,-0.8020281,0.8575,-5.5125,-6.5975
278,109018,0.5504641,0.094672,-0.801784,0.77,-5.5475,-6.545
279,109116,0.5504641,0.09418401,-0.7998321,0.805,-5.5125,-6.4925
280,109214,0.5489999999999999,0.09394001,-0.802272,0.7875,-5.7225,-6.615
281,109312,0.5504641,0.09394001,-0.801296,0.805,-5.8275,-6.5275
282,109410,0.5511961,0.09125599999999999,-0.7983680000000001,0.7175,-5.88,-6.5625
283,109508,0.5455840000000001,0.09540401,-0.799588,0.735,-5.915,-6.7025
284,109606,0.548268,0.093696,-0.8003201,0.63,-5.8625,-6.6675
285,109704,0.54656,0.09247601,-0.802272,0.595,-5.95,-6.685
286,109802,0.546804,0.094916,-0.800076,0.525,-5.95,-6.7725
287,109900,0.549488,0.093696,-0.8003201,0.525,-6.0375,-6.755
288,109998,0.5502199999999999,0.09345201,-0.7983680000000001,0.42,-6.195,-6.8425
289,110096,0.546804,0.09418401,-0.801784,0.315,-6.2125,-6.825
290,110194,0.547292,0.09638,-0.8003201,0.3325,-6.23,-6.86
291,110292,0.5489999999999999,0.094916,-0.8010520000000001,0.385,-6.23,-6.8425
292,110390,0.546804,0.098088,-0.8015399999999999,0.42,-6.3175,-6.825
293,110488,0.54656,0.09418401,-0.7991,0.4375,-6.2825,-6.6675
294,110586,0.54778,0.096624,-0.7991,0.49,-6.23,-6.65
295,110684,0.5502199999999999,0.09418401,-0.7998321,0.5775,-6.2825,-6.58
296,110782,0.548756,0.09442801,-0.800564,0.665,-6.3175,-6.51
297,110880,0.5489999999999999,0.09589201,-0.80276,0.5775,-6.3875,-6.5975
298,110979,0.548268,0.094916,-0.8015399999999999,0.5425,-6.405,-6.58
299,111077,0.546804,0.09735601,-0.8020281,0.5075,-6.405,-6.5625
300,111175,0.547292,0.096624,-0.8010520000000001,0.6125,-6.51,-6.5275
301,111273,0.5458281,0.09784401,-0.8020281,0.525,-6.6325,-6.5625
302,111371,0.546804,0.09638,-0.8015399999999999,0.5775,-6.685,-6.4925
303,111469,0.5441199999999999,0.0976,-0.80276,0.5425,-6.65,-6.4925
304,111567,0.5453399999999999,0.096624,-0.803248,0.665,-6.6675,-6.3875
305,111665,0.54656,0.09735601,-0.8044680999999999,0.7,-6.6675,-6.1775
306,111763,0.547048,0.09638,-0.801784,0.77,-6.685,-6.1075
307,111861,0.543388,0.09540401,-0.803248,0.8400001,-6.755,-6.16
308,111959,0.5404601,0.091988,-0.803492,0.9625,-6.65,-6.1775
309,112057,0.538752,0.092964,-0.803492,0.77,-6.65,-6.3
310,112155,0.538752,0.09394001,-0.803492,0.805,-6.3875,-6.2825
311,112253,0.538996,0.09247601,-0.803248,0.8575,-6.3,-6.2475
312,112351,0.5443640000000001,0.095648,-0.8020281,0.735,-6.1425,-6.2825
313,112449,0.543388,0.09638,-0.8044680999999999,0.875,-6.055,-6.3175
314,112547,0.540704,0.094916,-0.8039801,0.945,-6.0025,-6.2825
315,112645,0.542168,0.09345201,-0.8025161,0.875,-6.02,-6.2475
316,112743,0.54168,0.095648,-0.8039801,0.8400001,-5.8975,-6.23
317,112841,0.544608,0.09345201,-0.801784,0.91,-5.95,-6.265
318,112940,0.546072,0.094916,-0.8020281,0.9975,-5.8975,-6.2125
319,113038,0.5458281,0.09418401,-0.8015399999999999,1.0675,-5.9675,-6.265
320,113136,0.5441199999999999,0.09345201,-0.802272,1.0325,-5.9675,-6.23
321,113234,0.54168,0.09442801,-0.8030041,1.015,-5.9675,-6.2125
322,113332,0.5404601,0.09150001,-0.803736,0.9975,-6.0375,-6.3875
323,113430,0.542168,0.092964,-0.8025161,0.735,-5.915,-6.51
324,113528,0.5414359999999999,0.094672,-0.8039801,0.7875,-5.88,-6.44
325,113626,0.54168,0.09442801,-0.803736,0.6825,-5.81,-6.5275
326,113724,0.541924,0.09442801,-0.803248,0.595,-5.8625,-6.615
327,113822,0.541192,0.09418401,-0.805932,0.6475,-5.88,-6.545
328,113920,0.540704,0.09345201,-0.8049561,0.6825,-5.81,-6.545
329,114018,0.542168,0.094672,-0.803492,0.6125,-5.705,-6.65
330,114116,0.543632,0.09223200000000001,-0.8020281,0.63,-5.7925,-6.58
331,114214,0.543388,0.09345201,-0.8030041,0.56,-5.705,-6.6325
332,114312,0.541924,0.09638,-0.80276,0.6125,-5.635,-6.615
333,114410,0.540948,0.092964,-0.8010520000000001,0.7175,-5.6,-6.58
334,114508,0.543388,0.09442801,-0.8030041,0.6825,-5.4425,-6.72
335,114606,0.544608,0.09247601,-0.8030041,0.8225,-5.46,-6.65
336,114704,0.542656,0.09345201,-0.8025161,0.7175,-5.425,-6.65
337,114802,0.537532,0.08857201,-0.803492,0.7175,-5.4075,-6.755
338,114900,0.540948,0.08954801,-0.8020281,0.63,-5.4075,-6.965
339,114999,0.544608,0.09979600000000001,-0.80276,0.1575,-5.2325,-7.0525
340,115097,0.5441199999999999,0.096868,-0.8054439999999999,0.2625,-5.3375,-7.0
341,115195,0.5429,0.09613601,-0.8049561,0.49,-5.32,-6.8425
342,115293,0.541192,0.09320801,-0.80276,0.525,-5.2325,-6.86
343,115391,0.544852,0.09418401,-0.801784,0.385,-5.215,-6.9825
344,115489,0.5463161,0.09638,-0.8025161,0.455,-5.3025,-7.0875
345,115587,0.544852,0.09882,-0.8015399999999999,0.4725,-5.25,-6.9125
346,115685,0.543876,0.09394001,-0.8003201,0.63,-5.2675,-6.8775
347,115783,0.544608,0.091988,-0.8015399999999999,0.6125,-5.25,-6.86
348,115881,0.546072,0.09613601,-0.798124,0.455,-5.25,-6.9475
349,115979,0.5463161,0.09638,-0.80276,0.525,-5.355,-6.825
350,116077,0.546804,0.09516001,-0.8025161,0.7175,-5.425,-6.755
351,116175,0.546072,0.09979600000000001,-0.8015399999999999,0.6475,-5.3025,-6.79
352,116273,0.546072,0.098332,-0.803492,0.595,-5.3375,-6.7025
353,116371,0.545096,0.094916,-0.801296,0.735,-5.355,-6.685
354,116469,0.543144,0.09540401,-0.8052,0.7,-5.39,-6.5625
355,116567,0.5455840000000001,0.09320801,-0.800076,0.7875,-5.3725,-6.5625
356,116665,0.546072,0.09882,-0.801784,0.6825,-5.355,-6.6325
357,116763,0.545096,0.089304,-0.803248,0.7875,-5.425,-6.615
358,116861,0.5441199999999999,0.09735601,-0.800564,0.6825,-5.4425,-6.65
359,116960,0.548024,0.095648,-0.800808,0.5425,-5.355,-6.8775
360,117058,0.545096,0.09589201,-0.8030041,0.49,-5.425,-6.79
361,117156,0.5489999999999999,0.09394001,-0.800808,0.6125,-5.4075,-6.755
362,117254,0.545096,0.098088,-0.8025161,0.56,-5.5125,-6.8075
363,117352,0.547048,0.09784401,-0.8015399999999999,0.56,-5.5475,-6.79
364,117450,0.548268,0.09638,-0.800808,0.595,-5.635,-6.72
365,117548,0.5453399999999999,0.09784401,-0.8025161,0.6475,-5.7575,-6.7725
366,117646,0.5453399999999999,0.09735601,-0.800564,0.6475,-5.8275,-6.79
367,117744,0.5455840000000001,0.0976,-0.803248,0.665,-5.8975,-6.72
368,117842,0.5463161,0.096624,-0.800808,0.6475,-5.985,-6.7025
369,117940,0.547292,0.09638,-0.801784,0.5425,-6.02,-6.825
370,118038,0.543632,0.09735601,-0.8015399999999999,0.5425,-6.055,-6.79
371,118136,0.545096,0.09735601,-0.80276,0.455,-6.125,-6.6325
372,118234,0.5458281,0.096624,-0.802272,0.595,-6.1775,-6.65
373,118332,0.546072,0.09638,-0.800808,0.6825,-6.02,-6.58
374,118430,0.54656,0.098088,-0.800808,0.6125,-6.125,-6.6325
375,118528,0.5443640000000001,0.0976,-0.801784,0.5425,-6.2475,-6.7375
376,118626,0.54656,0.096868,-0.8010520000000001,0.4025,-6.3875,-6.7725
377,118724,0.54778,0.09711201,-0.8020281,0.2975,-6.6675,-6.9125
378,118822,0.547048,0.09711201,-0.8010520000000001,0.2275,-6.8075,-6.895
379,118920,0.5463161,0.10492,-0.801296,0.4025,-6.8775,-6.7025
380,119018,0.547292,0.100772,-0.801784,0.8575,-6.825,-6.44
381,119116,0.546804,0.10248,-0.8020281,0.98,-6.825,-6.1425
382,119214,0.544608,0.09613601,-0.8039801,1.3125,-6.615,-5.8975
383,119312,0.5314321,0.09223200000000001,-0.8052,1.4175,-6.65,-5.775
384,119411,0.522404,0.074664,-0.809348,1.435,-6.5625,-6.0025
385,119509,0.544852,0.10052799999999999,-0.800076,0.315,-6.0375,-6.615
386,119607,0.5404601,0.09979600000000001,-0.80276,0.6125,-5.88,-6.6675
387,119705,0.542412,0.09345201,-0.803736,0.9975,-5.775,-6.405
388,119803,0.5392399999999999,0.09735601,-0.800076,0.9275,-5.67,-6.37
389,119901,0.540948,0.098576,-0.80276,1.05,-5.67,-6.4225
390,119999,0.540216,0.101504,-0.803736,1.295,-5.495,-6.3
391,120097,0.5392399999999999,0.09906401,-0.8030041,1.4875,-5.285,-6.09
392,120195,0.540948,0.09442801,-0.8030041,1.575,-5.11,-5.8275
393,120293,0.5453399999999999,0.094672,-0.8025161,1.645,-4.935,-5.845
394,120391,0.543632,0.091988,-0.800808,1.6625,-4.83,-5.705
395,120489,0.5443640000000001,0.09028,-0.8010520000000001,1.61,-4.9,-5.7925
396,120587,0.5453399999999999,0.094916,-0.8010520000000001,1.4,-5.11,-5.985
397,120685,0.5463161,0.09540401,-0.801784,1.4,-5.1275,-5.9325
398,120783,0.5458281,0.092964,-0.800808,1.47,-5.1275,-5.9675
399,120881,0.5455840000000001,0.09345201,-0.7998321,1.2425,-5.3725,-6.0725
400,120979,0.5463161,0.09394001,-0.8003201,1.085,-5.495,-6.055
401,121077,0.547292,0.09394001,-0.801296,0.9975,-5.67,-6.23
402,121175,0.546072,0.09320801,-0.8010520000000001,0.875,-5.7925,-6.3875
403,121273,0.543144,0.09272000000000001,-0.8030041,0.8925,-5.88,-6.4575
404,121371,0.545096,0.092964,-0.8010520000000001,0.6825,-5.88,-6.4575
405,121469,0.5453399999999999,0.094672,-0.8010520000000001,0.7175,-5.8275,-6.5275
406,121567,0.5441199999999999,0.09320801,-0.8020281,0.665,-5.88,-6.58
407,121665,0.544608,0.09345201,-0.801784,0.6475,-5.9675,-6.58
408,121763,0.544852,0.093696,-0.8020281,0.6475,-5.9325,-6.5275
409,121861,0.544852,0.094672,-0.8003201,0.6825,-6.02,-6.5275
410,121960,0.543388,0.09418401,-0.803492,0.525,-5.9675,-6.5975
411,122058,0.5463161,0.09320801,-0.802272,0.5775,-5.915,-6.545
412,122156,0.5463161,0.095648,-0.8020281,0.63,-5.915,-6.5975
413,122254,0.54656,0.095648,-0.8015399999999999,0.595,-5.985,-6.65
414,122352,0.547048,0.094916,-0.8020281,0.49,-6.09,-6.685
415,122450,0.544608,0.094672,-0.802272,0.4375,-6.23,-6.7725
416,122548,0.546072,0.094672,-0.800076,0.4025,-6.3875,-6.72
417,122646,0.5458281,0.095648,-0.80276,0.3325,-6.335,-6.5975
418,122744,0.544608,0.093696,-0.8030041,0.3325,-6.44,-6.7725
419,122842,0.543632,0.092964,-0.7983680000000001,0.1225,-6.685,-6.9125
420,122940,0.5441199999999999,0.088328,-0.8020281,0.035,-6.7375,-7.0525
421,123038,0.540704,0.08881599,-0.7991,-0.1925,-6.93,-7.2625
422,123136,0.541192,0.09028,-0.803248,-0.63,-7.1225,-7.735
423,123234,0.5392399999999999,0.089304,-0.803248,-0.945,-7.455,-8.05
424,123332,0.535824,0.08808401,-0.807884,-1.3125,-7.8225,-8.47
425,123430,0.5363121,0.09272000000000001,-0.8042239999999999,-1.75,-7.8925,-8.9775
426,123528,0.540948,0.09345201,-0.80642,-2.065,-7.8925,-9.2925
427,123626,0.5382640000000001,0.10223600000000001,-0.80276,-2.1525,-7.77,-9.17
428,123724,0.5404601,0.108824,-0.8076399999999999,-1.82,-7.245,-8.8725
429,123822,0.544608,0.10687200000000001,-0.80642,-1.2775,-6.8425,-8.26
430,123920,0.537532,0.107116,-0.8039801,-0.8575,-6.58,-7.98
431,124018,0.5429,0.10833599999999999,-0.806176,-0.42,-6.23,-7.6475
432,124116,0.5404601,0.10516400000000001,-0.8049561,-0.1225,-5.9325,-7.315
433,124215,0.536068,0.10052799999999999,-0.8044680999999999,0.21,-5.845,-6.9125
434,124313,0.5392399999999999,0.100772,-0.806908,0.4025,-5.74,-6.86
435,124411,0.542168,0.1037,-0.80276,0.3675,-5.67,-6.8075
436,124509,0.533872,0.10004,-0.8039801,0.49,-5.6525,-6.685
437,124607,0.5397281,0.101748,-0.8015399999999999,0.595,-5.425,-6.6675
438,124705,0.536556,0.098088,-0.803248,0.525,-5.3725,-6.79
439,124803,0.529968,0.098332,-0.8042239999999999,0.6125,-5.4075,-6.8775
440,124901,0.535824,0.094672,-0.807884,0.5775,-5.1975,-7.035
441,124999,0.540216,0.114924,-0.806176,0.2625,-5.1625,-7.035
442,125097,0.534848,0.0976,-0.8081281,0.9975,-5.11,-6.7375
443,125195,0.541924,0.101504,-0.8020281,1.0675,-4.9525,-6.615
444,125293,0.544608,0.110044,-0.8047121,1.155,-4.62,-6.3875
445,125391,0.546072,0.10345599999999999,-0.8042239999999999,1.5925,-4.5675,-6.0375
446,125489,0.5455840000000001,0.10492,-0.8054439999999999,1.54,-4.5675,-5.8275
447,125587,0.5382640000000001,0.100284,-0.8052,1.8025,-4.6375,-5.6875
448,125685,0.537288,0.101992,-0.801784,2.24,-4.655,-5.495
449,125783,0.5355800999999999,0.100284,-0.8052,2.31,-4.6725,-5.53
450,125881,0.532652,0.09613601,-0.8044680999999999,2.3975,-4.3925,-5.5125
451,125979,0.528992,0.09735601,-0.8132520999999999,2.415,-4.2875,-5.6525
452,126077,0.5414359999999999,0.098576,-0.8071520000000001,2.24,-4.165,-5.9325
453,126175,0.5414359999999999,0.101748,-0.8039801,2.3625,-3.78,-6.055
454,126273,0.548512,0.09589201,-0.8010520000000001,2.345,-3.5875,-5.95
455,126371,0.5514399999999999,0.094672,-0.8010520000000001,2.0475,-3.465,-5.9325
456,126469,0.548024,0.09638,-0.8003201,1.8025,-3.57,-6.09
457,126567,0.549732,0.094672,-0.7993439999999999,1.6275,-3.57,-6.125
458,126665,0.549488,0.094916,-0.800808,1.2425,-3.7625,-6.23
459,126764,0.5502199999999999,0.095648,-0.7991,1.0675,-3.955,-6.475
460,126862,0.5511961,0.096868,-0.7983680000000001,0.875,-4.3225,-6.65
461,126960,0.550952,0.09516001,-0.799588,0.805,-4.725,-6.7725
462,127058,0.55388,0.096868,-0.8010520000000001,0.5425,-5.0225,-6.8075
463,127156,0.549244,0.09613601,-0.800076,0.3675,-5.32,-6.965
464,127254,0.548268,0.09516001,-0.8003201,0.4725,-5.705,-6.895
465,127352,0.547292,0.09882,-0.800808,0.3675,-5.88,-6.8425
466,127450,0.546072,0.099552,-0.803248,0.4375,-5.8275,-6.8075
467,127548,0.547292,0.101504,-0.8010520000000001,0.525,-5.705,-6.5975
468,127646,0.5489999999999999,0.10345599999999999,-0.8010520000000001,0.7525,-5.53,-6.4225
469,127744,0.5502199999999999,0.10492,-0.8042239999999999,0.91,-5.53,-6.2125
470,127842,0.554124,0.10809200000000001,-0.801784,1.085,-5.3725,-5.81
471,127940,0.5543680000000001,0.1037,-0.7983680000000001,1.4175,-5.5125,-5.32
472,128038,0.552416,0.10248,-0.7983680000000001,1.6975,-5.5475,-4.83
473,128136,0.552172,0.10492,-0.7993439999999999,1.995,-5.6875,-4.4625
474,128234,0.5504641,0.09882,-0.800564,2.205,-5.8275,-4.2
475,128332,0.547292,0.09638,-0.798124,2.45,-5.915,-3.9725
476,128430,0.546804,0.098088,-0.8030041,2.5725,-6.0025,-3.675
477,128528,0.5453399999999999,0.094916,-0.8039801,2.765,-6.055,-3.465
478,128626,0.543388,0.09638,-0.803492,2.87,-5.8275,-3.535
479,128724,0.545096,0.09394001,-0.8010520000000001,3.0275,-5.6,-3.3075
480,128823,0.543388,0.095648,-0.8052,3.3075,-5.285,-3.2025
481,128921,0.5441199999999999,0.09150001,-0.803492,3.4475,-5.1975,-3.045
482,129019,0.543876,0.08857201,-0.803492,3.43,-5.04,-2.8875
483,129117,0.5441199999999999,0.08784,-0.8030041,3.2025,-5.1275,-2.8
484,129215,0.543632,0.09345201,-0.8020281,3.115,-5.11,-2.6075
485,129313,0.5463161,0.091988,-0.8010520000000001,3.2025,-4.97,-2.275
486,129411,0.544852,0.08662001,-0.798856,3.3425,-4.865,-2.2575
487,129509,0.546804,0.083204,-0.8010520000000001,3.3075,-4.7775,-2.2225
488,129607,0.5429,0.08857201,-0.801296,3.1325,-4.76,-2.3275
489,129705,0.547048,0.082472,-0.7986121,3.1675,-4.8475,-2.485
490,129803,0.548024,0.08174001,-0.797148,2.9925,-5.005,-2.3625
491,129901,0.547536,0.07442,-0.796172,2.7475,-5.285,-2.52
492,129999,0.5499761,0.07832401,-0.7978801,2.2925,-5.67,-2.66
493,130097,0.547292,0.08344800000000001,-0.797392,2.1,-6.0025,-2.8
494,130195,0.5489999999999999,0.073688,-0.794952,2.0125,-6.4575,-2.9225
495,130293,0.548268,0.07222401,-0.799588,1.6275,-6.9125,-2.695
496,130391,0.540704,0.08052000000000001,-0.794952,1.085,-7.525,-2.7825
497,130489,0.527284,0.063684,-0.803736,1.0325,-8.1375,-3.5
498,130587,0.547292,0.07588400000000001,-0.797636,0.2275,-8.085,-4.095
499,130685,0.5511961,0.089304,-0.79666,-0.035,-8.68,-4.76
500,130783,0.5502199999999999,0.081252,-0.79422,0.2625,-9.5025,-4.8825
501,130881,0.542168,0.08052000000000001,-0.797392,0.7,-10.0275,-4.2875
502,130980,0.538996,0.07344400000000001,-0.7983680000000001,0.5775,-10.7625,-4.8475
503,131078,0.534848,0.079056,-0.8108121,0.21,-10.92,-5.565
504,131176,0.5441199999999999,0.084912,-0.8095920999999999,0.0,-11.095,-5.845
505,131274,0.543388,0.06954,-0.800808,0.14,-11.27,-6.125
506,131372,0.539972,0.07637200000000001,-0.805932,-0.175,-11.375,-6.405
507,131470,0.534848,0.082472,-0.803492,-0.42,-11.7075,-6.755
508,131568,0.5309441,0.08296,-0.805932,-0.3325,-12.0225,-6.9825
509,131666,0.542168,0.094916,-0.81252,-0.7875,-12.215,-7.315
510,131764,0.5414359999999999,0.100772,-0.813984,-0.665,-12.145,-7.21
511,131862,0.5282600000000001,0.085156,-0.8149601,0.1925,-11.5675,-6.895
512,131960,0.5292359999999999,0.082472,-0.819108,0.42,-10.78,-6.8775
513,132058,0.535824,0.09540401,-0.818376,0.175,-9.66,-6.6675
514,132156,0.5343600000000001,0.08662001,-0.818132,0.8225,-8.3125,-6.37
515,132254,0.5343600000000001,0.0854,-0.81618,1.435,-7.07,-6.0025
516,132352,0.5267960999999999,0.08637601,-0.8127641,1.785,-6.4225,-5.845
517,132450,0.527528,0.08784,-0.8166680000000001,2.065,-5.5825,-5.7225
518,132548,0.525332,0.0854,-0.8174001000000001,2.5725,-4.76,-5.32
519,132646,0.5267960999999999,0.07686,-0.8127641,2.7825,-3.85,-5.1625
520,132745,0.5231359999999999,0.07515201,-0.812032,2.6775,-2.9925,-5.495
521,132843,0.522892,0.07222401,-0.8103239999999999,2.695,-1.89,-5.7925
522,132941,0.5246,0.071492,-0.8081281,2.4675,-1.12,-6.2825
523,133039,0.52582,0.07393200000000001,-0.8091041,1.925,-0.49,-6.9825
524,133137,0.528748,0.0793,-0.807884,1.4,-0.1225,-7.525
525,133235,0.527528,0.0732,-0.807884,0.8925,0.1575,-8.05
526,133333,0.522648,0.06344,-0.8052,0.105,0.4725,-8.68
527,133431,0.533628,0.067588,-0.80642,-1.19,0.5425,-9.6425
528,133529,0.533628,0.072956,-0.8042239999999999,-2.3275,0.6125,-10.5875
529,133627,0.533628,0.07515201,-0.805932,-2.9225,0.735,-11.2875
530,133725,0.543144,0.08954801,-0.8047121,-3.6575,1.085,-11.83
531,133823,0.543632,0.09150001,-0.800564,-3.71,0.98,-12.565
532,133921,0.541192,0.080276,-0.7937320999999999,-3.85,1.2075,-12.8275
533,134019,0.549244,0.089304,-0.797392,-3.5525,1.435,-12.7225
534,134117,0.538996,0.09442801,-0.800076,-3.6925,1.645,-12.81
535,134215,0.540216,0.09882,-0.807884,-3.2725,2.6075,-12.7925
536,134313,0.540704,0.09394001,-0.8117880000000001,-3.01,4.1125,-13.2825
537,134411,0.538996,0.119316,-0.809348,-2.5725,5.8625,-13.23
538,134509,0.5355800999999999,0.114924,-0.8049561,-1.1375,7.875,-13.0725
539,134607,0.536556,0.108824,-0.7978801,-0.665,10.395,-13.51
540,134705,0.544852,0.10321199999999998,-0.7956840999999999,0.2275,13.2475,-13.79
541,134803,0.524112,0.082472,-0.8049561,1.1375,16.3975,-14.6825
542,134901,0.53314,0.06075601,-0.8095920999999999,1.47,19.8275,-16.345
543,135000,0.503128,0.0732,-0.8188641,0.2275,23.2225,-19.39
544,135098,0.522648,0.040260000000000004,-0.821304,1.435,28.3675,-23.2575
545,135196,0.514596,0.094672,-0.835456,-0.8225,34.02,-26.2675
546,135294,0.533628,0.07515201,-0.8317960999999999,1.225,42.77,-26.705
547,135392,0.526308,0.11760799999999999,-0.8461921,0.1925,51.45,-27.405
548,135490,0.548512,0.123708,-0.8193521,1.2075,60.7425,-26.355
549,135588,0.5453399999999999,0.142496,-0.8117880000000001,3.7275,71.5225,-23.8525
550,135686,0.574132,0.144448,-0.790072,3.3425,83.195,-18.4275
551,135784,0.571936,0.144204,-0.7788480999999999,2.45,95.1825,-13.0725
552,135882,0.565104,0.095648,-0.7759199999999999,1.96,108.2725,-8.4875
553,135980,0.57706,0.095648,-0.755912,-5.1275,121.8,-5.3375
554,136078,0.564372,0.09418401,-0.744688,-10.5,136.4475,-2.52
555,136176,0.589992,0.10004,-0.7478600000000001,-15.645,152.705,-0.14
556,136274,0.663192,0.141276,-0.795928,-25.095,168.35,3.185
557,136372,0.692228,0.08466801,-0.655384,-30.5025,184.9575,6.9825
558,136470,0.5919439999999999,0.11541199999999999,-0.6856399999999999,-40.355,203.14,11.6025
559,136568,0.815204,0.105652,-0.7388319999999999,-35.5775,239.3475,15.6275
560,136666,0.639768,0.16226,-0.74908,-50.715,265.65,23.17
561,136764,0.779092,0.12395199999999999,-0.6878361,-56.84,296.8525,35.1575
562,136862,0.729804,0.057339999999999995,-0.788852,-53.4975,330.0675,43.8025
563,136960,0.779824,0.059536,-0.754692,-46.69,350.07,41.895
564,137058,1.384456,0.083204,-0.506788,-36.68,367.2725,39.0425
565,137156,1.15778,0.187636,-0.733952,-31.7625,415.275,39.9875
566,137255,1.301984,0.275964,-1.106052,-14.315,459.585,36.6275
567,137353,1.741672,0.035136,-1.0948280000000001,7.9275,466.795,32.76
568,137451,1.7082439999999999,0.08344800000000001,-0.7068681,7.2275,449.33,11.62
569,137549,1.932724,0.387228,-1.35786,9.4325,441.07,-14.84
570,137647,2.256024,0.424072,-1.227808,44.7125,444.3075,-18.7425
571,137745,2.09718,-0.087352,-1.409832,87.0625,488.985,-17.22
572,137843,1.9236959999999999,0.047580000000000004,-1.9041759999999999,117.2325,468.2825,-30.345
573,137941,1.647732,-0.150792,-1.118984,158.6375,357.4375,-46.9175
574,138039,1.78974,0.5104479999999999,-2.1069400000000003,165.655,270.0075,-38.675
575,138137,3.667564,-0.5072760000000001,-3.233244,168.1225,145.11,-43.5925
576,138235,1.7082439999999999,-0.8969440000000001,-2.3306880000000003,114.0125,-45.0275,-57.505
577,138333,0.6082920999999999,-0.644648,-1.380552,-12.67,-181.9825,-88.44501
578,138431,0.482876,-0.313052,-1.255136,-51.555,-203.6825,-94.72751
579,138529,0.216428,0.000244,-0.8632719999999999,-63.3325,-225.5925,-93.1875
580,138627,0.11541199999999999,0.047336,-0.746152,-27.0025,-212.555,-80.885
581,138725,0.27938,0.06929600000000001,-0.8420440999999999,17.115,-199.675,-66.3425
582,138823,0.579256,-0.064416,-0.9886881,58.975,-195.93,-52.7275
583,138921,0.6392800000000001,-0.31476,-1.015772,81.3575,-209.79,-43.19
584,139019,0.618784,-0.49898000000000003,-1.00894,70.945,-231.0525,-38.64
585,139117,0.5914560000000001,-0.47823999999999994,-1.000888,37.695,-254.8875,-36.365
586,139215,0.571692,-0.346236,-1.0345600000000001,8.0675,-276.8325,-31.745
587,139313,0.6414761,-0.160796,-1.063352,-1.5575,-294.7175,-20.51
588,139411,0.6653880999999999,-0.014884,-1.010892,11.865,-311.9025,-2.6425
589,139509,0.640744,0.007808001,-0.9337880999999999,39.6375,-323.0675,20.02
590,139607,0.6709999999999999,-0.021228,-0.877424,64.995,-327.145,42.1575
591,139705,0.7378560000000001,-0.026595999999999998,-0.889136,75.3025,-328.8775,60.4625
592,139803,0.850584,0.051484,-0.9633120999999999,71.96,-332.325,72.94
593,139902,0.9450120000000001,0.18788,-1.045296,63.5775,-339.605,80.2025
594,140000,1.010648,0.32696,-1.091412,58.6075,-349.0025,83.825
595,140098,1.067988,0.398696,-1.134356,61.3375,-357.14,83.475
596,140196,1.152412,0.46921199999999996,-1.204628,65.6425,-364.105,80.5175
597,140294,1.2197559999999998,0.5084960000000001,-1.260748,70.28,-371.4725,75.8975
598,140392,1.322968,0.5414359999999999,-1.364692,74.7425,-377.8425,69.755
599,140490,1.40666,0.58072,-1.44448,77.14,-385.315,62.405
600,140588,1.48474,0.581696,-1.545252,80.85,-392.8925,54.3025
601,140686,1.593076,0.511668,-1.601128,85.365,-399.14,46.4625
602,140784,1.7934,0.40894400000000003,-1.653344,85.435,-403.305,41.0725
603,140882,2.0276400000000003,0.39479200000000003,-1.667984,76.685,-407.0675,40.845
604,140980,2.322392,0.50142,-1.606008,67.76,-410.2875,46.515
605,141078,2.582496,0.6902761,-1.4835200000000002,65.7125,-411.4075,54.285
606,141176,2.906772,0.827892,-1.1629040000000002,75.5475,-406.21,57.9075
607,141274,3.085136,0.7324881,-0.5873079999999999,89.075,-394.5375,51.24
608,141372,3.1290560000000003,0.5260640000000001,0.09979600000000001,79.9225,-372.575,31.115
609,141470,3.145892,0.3599,0.791292,42.8575,-337.2075,0.6125
610,141568,3.253984,0.34867600000000004,1.27978,-3.8675,-287.385,-28.28
611,141666,3.3706160000000005,0.394304,1.7170279999999998,-34.4925,-230.545,-47.2675
612,141764,3.48676,0.519964,2.0984,-37.345,-170.73,-55.44
613,141862,3.618032,0.546804,2.414136,-12.1625,-105.0525,-51.275
614,141960,3.5709400000000002,0.349408,2.564196,21.2625,-37.1875,-32.3225
615,142059,3.436496,0.20837600000000003,2.3138520000000002,18.585,28.7,-3.3425
616,142157,3.3506080000000003,0.37990799999999997,1.694336,-23.38,84.28,20.825
617,142255,-1.103856,1.18706,-1.7094639999999999,-65.3975,107.9925,28.0
618,142353,-0.72102,-1.121912,-5.354336,35.07,98.035,12.4775
619,142451,-2.454152,-0.774212,0.217648,-115.7625,53.795,-60.165
620,142549,-1.378844,1.596492,1.02968,-347.7425,47.425,-147.175
621,142647,2.5232040000000002,0.20618000000000003,-1.576972,-24.325,359.0825,-108.22
622,142745,2.682292,0.3904,-1.97518,-58.3625,283.0625,-57.89
623,142843,1.279292,0.362584,-1.452776,-63.5075,221.7425,-26.215
624,142941,1.44326,0.418216,-1.616744,-55.405,224.315,7.63
625,143039,1.079944,0.7832399999999999,-1.3847,-48.58,193.375,15.295
626,143137,1.0443200000000001,0.580232,-1.33102,-15.8375,177.0475,7.3675
627,143235,0.9142680000000001,0.26156799999999997,-1.1509479999999999,-1.96,153.3,-6.1775
628,143333,0.927932,0.009028000999999999,-1.080432,10.57,133.6825,-2.485
629,143431,1.2219520000000001,0.192272,-1.325896,-2.765,112.595,2.03
630,143529,0.9357401,0.124928,-1.045052,-0.0875,83.86001,-6.195
631,143627,0.552172,-0.008540001,-0.96624,-1.8725,58.555,-10.115
632,143725,0.776408,0.031476,-1.020408,-1.4875,56.5075,-1.8375
633,143823,0.687348,0.09394001,-1.023336,-14.2275,39.8825,-2.485
634,143921,0.63562,0.152988,-0.97478,-9.94,29.715,-0.7175
635,144019,0.416264,0.186172,-0.9142680000000001,-11.1475,20.4925,-0.665
636,144117,0.524112,0.183,-0.9208561,-7.6125,21.8575,0.175
637,144215,0.42748800000000003,0.114436,-0.845216,-5.2675,19.2325,-1.26
638,144314,0.571936,0.142008,-0.8823040000000001,-5.915,20.615,-1.61
639,144412,0.442616,0.030256,-0.8400921,-4.375,18.165,-4.9875
640,144510,0.51362,0.071004,-0.8544879999999999,-8.1725,18.9875,-6.125
641,144608,0.496784,0.09052401,-0.8757159999999999,-9.3975,15.19,-8.155
642,144706,0.490196,0.09540401,-0.8674200000000001,-9.7475,11.69,-9.6775
643,144804,0.5119121,0.11541199999999999,-0.8762040000000001,-7.9975,7.9625,-10.0975
644,144902,0.49727200000000005,0.081984,-0.8615640999999999,-6.7725,3.9725,-10.8675
645,145000,0.49751599999999996,0.061,-0.8486319999999999,-6.0025,1.6625,-11.55
646,145098,0.49288000000000004,0.10492,-0.8479,-7.735,-1.05,-13.0375
647,145196,0.49873599999999996,0.109556,-0.8418,-7.945,-1.33,-14.42
648,145294,0.49044,0.093696,-0.8403360000000001,-7.1225,-0.9625,-15.6975
649,145392,0.5158159999999999,0.100772,-0.83814,-6.7375,-0.385,-16.94
650,145490,0.5072760000000001,0.12932000000000002,-0.8430200999999999,-6.0725,0.105,-16.5375
651,145588,0.506788,0.10638399999999999,-0.8427761,-2.5025,1.1025,-16.3625
652,145686,0.49898000000000003,0.082228,-0.826672,-0.2975,0.9625,-17.78
653,145784,0.5060560000000001,0.10540799999999999,-0.8235001000000001,-0.9625,1.015,-19.8275
654,145882,0.49824799999999997,0.107116,-0.819108,-0.35,0.7875,-21.5075
655,145980,0.49727200000000005,0.08417999999999999,-0.8222799999999999,0.455,1.4875,-23.7475
656,146078,0.45993999999999996,0.044652,-0.844972,-1.54,2.555,-26.8275
657,146176,0.45993999999999996,0.033428,-0.8459479999999999,-4.2875,3.43,-31.0975
658,146274,0.487512,0.091012,-0.853756,-7.1925,6.16,-35.8925
659,146372,0.5131319999999999,0.14347200000000002,-0.8410681000000001,-6.685,10.395,-37.2925
660,146470,0.506788,0.159088,-0.8464360000000001,-8.5225,15.225,-35.98
661,146568,0.492148,0.172752,-0.8520479999999999,-6.9825,22.26,-33.8275
662,146667,0.49141599999999996,0.121268,-0.8527800999999999,-2.1875,31.255,-34.8075
663,146765,0.477264,0.104676,-0.8461921,4.3925,42.5075,-36.2775
664,146863,0.516304,0.183732,-0.8486319999999999,-1.33,51.7475,-36.085
665,146961,0.4819,0.183,-0.854244,-3.2725,60.6375,-33.3025
666,147059,0.518744,0.17934,-0.8369200000000001,-1.5575,72.8875,-29.575
667,147157,0.4933681,0.17397200000000002,-0.8383841000000001,-5.5475,84.9275,-26.145
668,147255,0.49751599999999996,0.165188,-0.833016,-8.225,99.785,-20.9125
669,147353,0.49288000000000004,0.150792,-0.8383841000000001,-13.09,116.0425,-16.52
670,147451,0.5382640000000001,0.192272,-0.7998321,-16.8175,131.285,-12.7225
671,147549,0.50874,0.20691199999999998,-0.822524,-23.345,147.7875,-7.1925
672,147647,0.55388,0.18666,-0.774212,-29.1725,166.2325,1.225
673,147745,0.542412,0.19276,-0.7861680999999999,-41.1775,185.6225,7.8575
674,147843,0.696132,0.160796,-0.732244,-49.4375,207.585,12.5125
675,147941,0.592188,0.200812,-0.921588,-61.3375,228.1825,19.355
676,148039,0.733464,0.18178,-0.7605481,-68.79251,258.895,27.1425
677,148137,0.580476,0.22496799999999997,-0.956968,-69.1075,306.005,38.43
678,148235,0.684908,0.100284,-0.9437921,-48.195,328.2125,44.31
679,148333,0.32403200000000004,0.15494000000000002,-1.22732,-55.3525,350.1575,49.2625
680,148431,-0.327448,0.305,-1.731668,-28.035,370.0375,50.19
681,148529,2.287012,-0.090036,-0.31158800000000003,-24.4475,350.0875,30.0825
682,148627,1.008208,-0.200568,-1.58966,0.5775,505.2075,59.7275
683,148725,2.137196,0.738344,-1.377868,29.295,572.6525,28.8925
684,148823,2.382172,0.28914,-1.7277639999999999,90.685,573.3875,8.645
685,148921,3.355488,-0.016836,-1.931504,146.65,573.405,-37.765
686,149019,3.503596,-0.46848,-3.120272,119.42,573.1425,-122.43
687,149117,2.390956,-0.2318,-1.908812,156.4675,541.065,-173.6875
688,149216,2.106452,-0.319884,-3.329136,168.2275,509.4775,-191.2575
689,149314,3.3181559999999997,-0.767868,-2.879932,188.51,236.1625,-158.6725
690,149412,2.711084,-1.549888,-3.676104,161.0875,93.9925,-126.6825
691,149510,0.8047121,-1.491572,-1.8529360000000001,4.4625,-107.03,-146.0375
692,149608,0.522892,-1.159732,-1.532808,-71.4525,-151.6025,-136.99
693,149706,0.19251600000000002,-0.63318,-1.111176,-139.72,-179.76,-129.9375
694,149804,0.054412,-0.319884,-0.942084,-140.3675,-186.165,-102.8475
695,149902,0.059048,-0.15372,-0.9442801,-95.2,-181.6675,-67.13
696,150000,0.180316,-0.10492,-0.9850280999999999,-32.55,-182.805,-29.1375
697,150098,0.3599,-0.29743600000000003,-1.028948,34.02,-188.895,6.3525
698,150196,0.509228,-0.48068,-1.0140639999999999,68.9325,-209.685,31.6925
699,150294,0.6392800000000001,-0.580476,-1.030656,69.685,-240.1175,47.0225
700,150392,0.709064,-0.536556,-1.010892,48.37,-276.5175,57.015
701,150490,0.7376119999999999,-0.384788,-0.9916161,25.3575,-312.2525,66.0275
702,150588,0.7832399999999999,-0.19397999999999999,-0.9708760000000001,15.4175,-343.0525,77.35
703,150686,0.7700640999999999,-0.071004,-0.8671761,23.5725,-367.3775,90.755
704,150784,0.756156,0.007320001,-0.8432639999999999,40.0925,-381.0975,103.6525
705,150882,0.8420440999999999,0.038064,-0.8518040000000001,60.2875,-388.745,112.63
706,150980,0.9586761,0.058316,-0.959408,73.7975,-395.255,117.04
707,151078,1.1529,0.10687200000000001,-1.102636,82.3375,-403.97,116.7075
708,151177,1.350052,0.150792,-1.218048,88.2875,-417.7075,113.4
709,151275,1.497672,0.152988,-1.2578200000000002,91.5425,-434.6125,109.5325
710,151373,1.586976,0.112728,-1.260748,92.925,-450.1175,104.3525
711,151471,1.62382,0.145424,-1.30174,87.3775,-461.545,100.66
712,151569,1.7223959999999998,0.191296,-1.44936,83.80751,-466.2875,99.89
713,151667,1.977132,0.122,-1.7097080000000002,89.74,-466.1825,102.165
714,151765,2.4173080000000002,-0.09711201,-1.9788400000000002,96.25,-468.3175,108.9375
715,151863,2.911652,-0.01098,-2.0374,83.6325,-480.5675,124.9675
716,151961,3.2000599999999997,0.25376,-1.956636,63.63,-498.33,155.3825
717,152059,3.521896,0.59292,-1.657248,59.535,-504.7525,190.155
718,152157,3.7678480000000003,0.81618,-1.136796,62.6325,-496.0025,215.075
719,152255,3.968904,0.5441199999999999,-0.479704,77.0,-462.42,212.5725
720,152353,4.110180000000001,0.154696,0.508008,47.005,-417.69,177.485
721,152451,4.0931,0.203252,1.417152,-33.3725,-368.41,114.555
722,152549,3.963292,0.9974719999999999,1.96298,-103.915,-316.75,44.94
723,152647,4.165568,2.148664,2.572248,-72.8175,-252.07,6.4225
724,152745,4.340272,1.434964,3.5338519999999995,110.4075,-155.155,11.9875
725,152843,4.274636,-0.010736,4.0460080000000005,217.7,-51.5375,28.8925
726,152941,3.895948,-0.030987999999999998,3.285216,82.9675,32.4625,19.985
727,153039,3.79054,0.9455,1.84342,-88.02501,98.1575,-1.5225
728,153137,-1.968836,1.587952,-3.137108,-103.775,128.3625,-23.3275
729,153235,-0.9272,-3.3469480000000003,-6.8459080000000005,93.7125,107.5375,-57.05
730,153333,-3.190544,-1.62504,2.501244,-176.855,25.725,-109.5325
731,153431,-1.0206520000000001,2.7898959999999997,1.33346,-503.79,64.7675,-158.3575
732,153529,3.712704,1.026996,-2.306044,-2.6775,466.585,-47.53
733,153628,1.8121880000000001,2.057652,-1.9041759999999999,-118.4575,308.1575,-11.3225
734,153726,1.558916,1.2524520000000001,-1.677012,-42.8575,292.6525,-7.21
735,153824,1.677744,0.374784,-1.642608,17.885,285.215,-4.3925
736,153922,1.206336,-0.05368,-1.26636,15.6625,238.315,-0.1225
737,154020,1.290516,0.11834000000000001,-1.193648,8.4175,215.075,7.7
738,154118,1.1514360000000001,-0.0183,-1.133624,4.095,184.66,4.1825
739,154216,1.63114,0.017568,-1.526952,4.6375,160.475,-1.0675
740,154314,1.273436,-0.277916,-1.057496,10.78,125.4575,-15.5925
741,154412,0.540216,-0.100772,-0.9362280000000001,-18.305,82.005,-20.1425
742,154510,1.112396,0.2623,-1.16266,-26.95,80.4125,-13.1775
743,154608,0.5307,0.08052000000000001,-0.9423280999999999,-27.8425,52.535,-20.265
744,154706,0.686372,0.306952,-1.074576,-30.0475,41.02,-15.5575
745,154804,0.621468,0.322812,-0.993568,-35.2275,31.3075,-13.1775
746,154902,0.5636399999999999,0.276696,-0.9813681000000001,-19.775,25.9,-8.19
747,155000,0.538508,0.199104,-0.937448,-15.05,21.2625,-4.165
748,155098,0.54656,0.17738800000000002,-0.913292,-6.2125,18.9875,-0.1225
749,155196,0.54168,0.139324,-0.898164,-0.875,14.2625,2.695
750,155294,0.5221600000000001,0.106628,-0.8725440999999999,3.5525,10.99,4.235
751,155392,0.5072760000000001,0.071004,-0.84546,5.0575,8.505,4.165
752,155490,0.485804,0.013175999999999998,-0.8283799999999999,6.1075,6.965,2.3625
753,155588,0.483364,0.015616,-0.821304,2.73,6.0025,-1.435
754,155686,0.49873599999999996,0.053436000000000004,-0.81984,-0.5425,6.0725,-5.5475
755,155784,0.514596,0.09320801,-0.8249639999999999,-3.1675,5.425,-8.645
756,155882,0.510204,0.10760399999999999,-0.8310639999999999,-2.45,4.62,-10.3425
757,155980,0.519964,0.08344800000000001,-0.820084,-1.12,4.3575,-11.375
758,156079,0.5502199999999999,0.060024,-0.8105680000000001,-0.5775,4.585,-13.1425
759,156177,0.506544,0.025131999999999998,-0.8071520000000001,-1.785,3.2725,-16.625
760,156275,0.48556000000000005,-0.017568,-0.80886,-4.06,1.47,-21.91
761,156373,0.49288000000000004,-0.007320001,-0.827892,-6.6325,0.1925,-29.085
762,156471,0.530456,-0.02074,-0.8066641,-9.765,-1.505,-36.6625
763,156569,0.545096,-0.006587999999999999,-0.7881199999999999,-13.6675,-3.29,-43.015
764,156667,0.512644,0.055144000000000006,-0.81374,-15.6975,-4.6725,-49.3325
765,156765,0.505568,0.058072000000000006,-0.8337481,-16.94,-4.9,-51.5725
766,156863,0.528016,0.09247601,-0.8337481,-18.305,-2.0825,-54.4775
767,156961,0.50264,0.25424800000000003,-0.8559521000000001,-27.0025,1.645,-51.625
768,157059,0.50508,0.23155599999999998,-0.856684,-16.31,11.585,-47.8625
769,157157,0.46628400000000003,0.331108,-1.013332,-8.365,23.065,-46.8825
770,157255,0.58682,-0.10858,-0.7564001,11.62,38.5175,-49.3325
771,157353,0.494832,0.37576,-0.8310639999999999,-26.4425,39.7075,-46.76
772,157451,0.5294800000000001,0.237656,-0.817156,-6.0725,56.3325,-38.3425
773,157549,0.534848,0.274012,-0.822768,-8.8375,65.4675,-31.6225
774,157647,0.533384,0.28328400000000004,-0.806176,-7.0175,76.895,-24.185
775,157745,0.509228,0.24131599999999997,-0.823256,-6.615,90.685,-14.49
776,157843,0.5119121,0.21008400000000002,-0.826672,-5.985,106.2775,-8.0325
777,157941,0.5192319999999999,0.189344,-0.8195960999999999,-8.715,123.0775,-1.0325
778,158039,0.51118,0.18104800000000001,-0.8044680999999999,-14.9275,140.2625,3.5875
779,158137,0.549488,0.23887600000000003,-0.7788480999999999,-22.7675,158.655,10.3075
780,158235,0.532896,0.20837600000000003,-0.78446,-26.985,178.3775,17.08
781,158333,0.552904,0.17202,-0.712724,-35.8225,199.4825,24.6575
782,158432,0.7366361,0.1647,-0.7617681,-45.0625,224.4725,30.1525
783,158530,0.565104,0.149816,-0.7332201,-61.1275,239.0675,37.4325
784,158628,0.698816,0.21472,-0.9125601000000001,-69.66751,275.9225,48.44
785,158726,0.609268,0.181536,-0.856196,-59.6925,308.9625,58.3975
786,158824,0.345748,0.28621199999999997,-1.158024,-58.7125,327.4425,69.44
787,158922,-0.183732,0.348432,-1.535492,-40.46,334.9325,81.83001
788,159020,1.537688,-0.192272,0.174216,-13.8075,321.125,72.2925
789,159118,1.0784799999999999,0.1159,-1.067988,20.5975,480.55,125.0725
790,159216,3.7922480000000003,0.627812,-2.3119,70.7175,570.815,126.175
791,159314,2.340448,0.256444,-1.533296,110.8975,573.405,73.675
792,159412,3.05366,0.358192,-1.9788400000000002,99.40001,573.405,4.655
793,159510,3.7863919999999998,0.08466801,-2.6415439999999997,104.3,573.405,-43.505
794,159608,2.667408,0.015616,-3.8000559999999997,159.0925,567.735,-87.6225
795,159706,1.320284,-0.516304,-2.6415439999999997,226.8175,545.405,-153.6325
796,159804,3.01096,0.164212,-2.401204,270.5675,457.0825,-148.7675
797,159902,4.198508,-1.517192,-4.341248,305.655,233.275,-129.64
798,160000,2.098888,-1.861232,-3.2086,200.795,9.45,-148.0325
799,160098,0.883036,-1.582096,-1.9422400000000002,-4.865,-164.395,-162.8025
800,160196,0.6107319999999999,-1.0979999999999999,-1.600152,-88.23501,-207.585,-156.17
801,160294,0.13639600000000002,-0.553148,-1.072624,-145.46,-246.5575,-145.7925
802,160392,-0.031232,-0.28377199999999997,-0.922076,-123.585,-242.83,-119.1575
803,160490,-0.07222401,-0.058316,-0.8605879999999999,-65.36251,-234.8325,-82.425
804,160588,0.167872,-0.022448,-0.922076,14.805,-227.395,-40.6875
805,160686,0.42773199999999995,-0.262788,-0.984784,93.275,-228.795,-0.805
806,160785,0.570716,-0.48531599999999997,-0.942816,126.8225,-249.515,27.86
807,160883,0.659044,-0.5846241,-0.93086,117.775,-277.7775,45.115
808,160981,0.6973520000000001,-0.46311199999999997,-0.981612,83.0375,-309.015,55.93
809,161079,0.8425321,-0.180072,-1.0086959999999998,54.285,-340.025,66.7275
810,161177,0.830576,0.037576,-0.9669721,48.0375,-370.2125,81.74251
811,161275,0.8361879999999999,0.170068,-0.9433041,61.32,-390.5825,98.61251
812,161373,0.873764,0.229848,-0.93086,82.53,-403.305,112.0175
813,161471,0.9979600000000001,0.272304,-0.9779521000000001,101.745,-413.3675,120.5925
814,161569,1.104344,0.289628,-1.0084520000000001,113.9775,-424.2175,124.0225
815,161667,1.2343959999999998,0.317932,-1.158024,118.8775,-434.665,122.7975
816,161765,1.450824,0.29402,-1.2261,120.19,-447.1075,117.355
817,161863,1.615524,0.20642399999999997,-1.325164,117.985,-459.4275,110.67
818,161961,1.8038919999999998,0.227408,-1.5664799999999999,105.5075,-471.9925,106.4175
819,162059,2.142808,0.26108000000000003,-1.8544,97.895,-486.7625,105.2625
820,162157,2.650816,0.179096,-1.89222,99.8375,-504.77,109.235
821,162255,2.822104,0.179584,-1.849764,87.325,-527.275,120.4175
822,162353,3.160044,0.300852,-1.7453319999999999,69.755,-539.9275,135.0825
823,162451,3.566792,0.5799880000000001,-1.63358,57.05,-540.9075,152.1975
824,162549,4.006236,0.815692,-1.328824,50.7675,-534.625,169.5925
825,162647,4.19436,0.607804,-0.712236,52.1325,-514.22,168.1925
826,162746,4.431528,0.28694400000000003,0.186172,24.5175,-474.2325,133.91
827,162844,4.592568,0.2318,1.380796,-37.2575,-419.8775,74.8125
828,162942,4.349787999999999,0.8527800999999999,2.308728,-94.78,-356.1075,12.845
829,163040,4.3224599999999995,2.046916,2.9553279999999997,-75.0925,-272.2825,-17.64
830,163138,5.1227800000000006,2.014464,3.838364,75.2675,-161.3675,12.1625
831,163236,5.1118,0.24424400000000002,4.639172,218.435,-50.715,57.9075
832,163334,4.04186,0.297192,4.020876,41.7725,31.4825,56.2975
833,163432,3.882772,1.899784,2.079124,-184.835,111.5275,17.955
834,163530,0.31158800000000003,2.5583400000000003,-1.7619240000000003,-175.14,174.965,-7.0
835,163628,-3.6016839999999997,-1.334924,-7.986609,91.49,106.82,-74.6725
836,163726,-3.304004,-4.699196,3.028284,88.9875,84.21,-96.1625
837,163824,-1.346392,1.7633880000000002,3.828604,-507.7625,-46.76,-245.07
838,163922,4.745556,2.1047439999999997,-2.668628,-97.86,452.3575,-25.095
839,164020,1.199992,1.1263040000000002,-1.44814,10.7975,327.7575,17.4825
840,164118,1.929064,1.184132,-1.6272360000000001,-76.8425,322.1925,-22.0675
841,164216,2.1047439999999997,-0.23692399999999997,-1.736304,28.84,332.1325,16.485
842,164314,1.536224,0.387228,-1.4957200000000002,-18.305,270.235,34.16
843,164412,1.544032,0.656848,-1.511336,-17.255,234.36,36.4175
844,164510,2.0059240000000003,0.247416,-1.604544,19.915,201.2325,15.3475
845,164608,1.542568,-0.236192,-1.268312,30.1175,144.48,-10.2025
846,164706,1.063352,-0.081496,-1.105808,4.3575,92.62751,-14.945
847,164804,0.605608,-0.06954,-0.9506241,-7.8925,59.0625,-17.605
848,164903,0.77104,0.1586,-1.048224,-33.4075,45.3775,-20.02
849,165001,0.6202479999999999,0.19251600000000002,-0.998448,-36.6625,24.4125,-20.6325
850,165099,0.549488,0.179096,-0.96014,-33.215,16.38,-17.2375
851,165197,0.53192,0.306708,-0.9862479999999999,-31.5,10.045,-14.9625
852,165295,0.514108,0.264008,-0.9318360000000001,-21.525,6.23,-11.69
853,165393,0.498004,0.1403,-0.898164,-9.5025,3.4125,-8.12
854,165491,0.500444,0.1525,-0.8810841,-7.14,3.045,-5.8975
855,165589,0.48995200000000005,0.166164,-0.879376,-4.795,3.675,-4.4275
856,165687,0.485072,0.15494000000000002,-0.8657120999999999,-1.155,4.865,-2.7825
857,165785,0.48824399999999996,0.134444,-0.8413120000000001,1.2775,5.705,-2.59
858,165883,0.487756,0.06344,-0.8405800999999999,3.1325,5.95,-3.395
859,165981,0.500688,0.048312,-0.8256960999999999,1.085,6.0375,-6.3875
860,166079,0.509472,0.092964,-0.823256,-2.975,4.935,-10.045
861,166177,0.517524,0.12175599999999999,-0.8310639999999999,-3.3425,4.5325,-12.3725
862,166275,0.5131319999999999,0.116876,-0.8398479999999999,-2.2575,4.795,-13.755
863,166373,0.5160600000000001,0.116632,-0.8447280999999999,-1.155,5.4075,-14.665
864,166471,0.496784,0.10858,-0.8432639999999999,-0.28,6.475,-15.785
865,166569,0.505324,0.0976,-0.8308200000000001,0.595,8.155,-17.7275
866,166667,0.48653599999999997,0.07076001,-0.839116,0.49,9.31,-19.6875
867,166765,0.5170359999999999,0.052703999999999994,-0.815936,0.875,9.765,-23.135
868,166864,0.490684,0.07832401,-0.8332601000000001,-1.82,9.7475,-26.425
869,166962,0.5172800999999999,0.07612801,-0.818376,0.0525,11.6375,-30.17
870,167060,0.5060560000000001,0.1037,-0.8296,-5.775,12.3025,-32.8475
871,167158,0.46774799999999994,0.145424,-0.8427761,-4.3925,16.66,-35.4025
872,167256,0.47775200000000007,0.163236,-0.9335440999999999,-2.345,22.4525,-39.165
873,167354,0.5414359999999999,-0.113704,-0.8235001000000001,17.4125,35.035,-46.06
874,167452,0.5214281,0.303048,-0.8483879999999999,-23.205,33.425,-45.92
875,167550,0.505324,0.144204,-0.827892,-0.5075,48.79,-41.1425
876,167648,0.5546121,0.204716,-0.8115439999999999,-3.9375,56.945,-38.3775
877,167746,0.536556,0.239852,-0.824232,-5.3725,66.78,-32.8125
878,167844,0.53192,0.19861600000000001,-0.8322841000000001,-2.3275,78.48751,-26.4775
879,167942,0.5099600000000001,0.17934,-0.8310639999999999,-3.78,91.9625,-21.525
880,168040,0.528016,0.205448,-0.8220360000000001,-5.1975,107.485,-15.8725
881,168138,0.5077640999999999,0.172508,-0.803492,-6.16,123.8125,-11.095
882,168236,0.574132,0.268156,-0.778604,-13.8425,138.985,-2.94
883,168334,0.550708,0.294752,-0.762012,-18.3575,154.7175,6.895
884,168432,0.5307,0.21081599999999998,-0.733708,-18.69,175.035,18.585
885,168530,0.482388,0.166652,-0.785192,-31.185,198.7475,31.22
886,168628,0.80276,0.093696,-0.756888,-39.445,225.05,35.14
887,168726,0.5612,0.15006,-0.746152,-57.6275,244.2475,41.615
888,168824,0.600484,0.209108,-1.006256,-65.905,282.415,48.23
889,168922,0.7141881,0.11224,-0.9345201,-52.92,331.1525,60.6375
890,169020,0.40504,0.216428,-1.179008,-61.7925,355.95,72.695
891,169118,0.23448400000000003,0.264984,-1.2968600000000001,-41.2125,374.2725,83.37001
892,169216,-0.42065600000000003,0.24717199999999998,-0.784216,1.0675,358.1725,75.1275
893,169314,2.44488,-0.156648,-1.097756,10.36,424.305,83.3175
894,169412,2.511736,0.5058121,-1.4091,47.565,569.4675,72.135
895,169510,2.321416,0.458232,-1.444724,81.69001,573.405,33.705
896,169609,3.366224,-0.236192,-1.6145479999999999,142.9925,573.405,-0.175
897,169707,3.423564,-0.198128,-3.0136439999999998,106.8025,573.405,-80.535
898,169805,3.017548,-0.28548,-2.61568,167.265,554.155,-124.8625
899,169903,1.4774200000000002,-0.024888,-3.7027,191.9575,548.625,-168.63
900,170001,2.8374759999999997,-0.539484,-2.42048,232.82,329.2275,-158.7075
901,170099,3.6509720000000003,-1.6384599999999998,-4.641612,251.2825,169.1375,-128.31
902,170197,1.312232,-1.6928720000000002,-2.575908,101.08,-78.1375,-149.415
903,170295,0.695156,-1.520608,-1.890512,-26.6875,-179.06,-143.71
904,170393,0.400404,-0.967216,-1.455704,-109.235,-217.5425,-138.11
905,170491,0.05368,-0.49166000000000004,-1.080432,-140.63,-244.2125,-118.755
906,170589,-0.022936,-0.284748,-0.972828,-108.22,-240.87,-86.5375
907,170687,0.029036000000000003,-0.044164,-0.9874681000000001,-50.82,-237.23,-48.545
908,170785,0.319884,-0.10394400000000001,-1.0438319999999999,24.01,-236.81,-10.8675
909,170883,0.493856,-0.307196,-1.051396,83.545,-249.6375,20.475
910,170981,0.6229319999999999,-0.46945600000000004,-1.003816,101.01,-276.43,39.2525
911,171079,0.687104,-0.462868,-0.9901521000000001,85.19,-306.355,50.435
912,171177,0.7427361,-0.305732,-0.9691681000000001,59.01,-336.8575,58.905
913,171275,0.781044,-0.102724,-0.9391560999999999,43.5225,-363.825,69.09
914,171373,0.7759199999999999,0.070516,-0.9079241,45.0625,-384.4225,81.34000999999999
915,171471,0.8100801,0.18446400000000002,-0.9272,59.955,-395.99,93.135
916,171569,0.9145120999999999,0.234972,-0.964776,82.18,-403.7425,101.325
917,171667,1.034316,0.24888000000000002,-1.01626,100.345,-412.02,106.2775
918,171765,1.148752,0.273524,-1.107272,111.02,-420.7,106.8025
919,171863,1.36152,0.271328,-1.261724,117.0925,-430.605,102.9875
920,171962,1.6348,0.186904,-1.393728,121.275,-443.1,96.3025
921,172060,1.856596,0.133712,-1.559892,115.1325,-460.1625,91.42
922,172158,2.088396,0.18544000000000002,-1.653832,103.145,-478.8875,92.41751
923,172256,2.3358119999999998,0.217648,-1.704584,97.3175,-494.6725,100.24
924,172354,2.64984,0.245952,-1.783884,96.2325,-504.805,113.5925
925,172452,3.112952,0.32208000000000003,-1.7687560000000002,95.725,-511.105,130.795
926,172550,3.538244,0.504104,-1.6433400000000002,89.39,-514.675,152.915
927,172648,3.9223,0.680028,-1.366644,80.6225,-513.31,177.17
928,172746,4.1082279999999995,0.5987760999999999,-0.7622561,67.655,-501.6025,188.6325
929,172844,4.260972,0.28621199999999997,0.071004,36.4175,-469.7525,170.9925
930,172942,4.463248,0.067832,1.18462,-30.1,-421.4175,124.845
931,173040,4.286348,0.38308000000000003,2.14842,-110.8975,-365.085,61.5125
932,173138,4.023804,1.40544,2.695468,-137.62,-294.4375,7.805
933,173236,4.62868,2.397056,3.297904,-40.5825,-199.2025,4.62
934,173334,4.798504,0.8601,4.111644,172.8475,-86.8875,48.4925
935,173432,4.230472,-0.462136,4.245112000000001,175.8225,6.44,76.5625
936,173530,3.7793160000000006,0.68686,2.848944,-71.435,81.4275,54.46
937,173628,3.6931839999999996,1.8178,1.081164,-204.5225,147.0175,28.8575
938,173726,-4.501312,1.825852,-7.789700999999999,-86.34501,122.5,-13.4225
939,173824,-0.636108,-4.442264,-4.02356,210.8575,150.85,-50.785
940,173922,-4.213636,-0.05636401,4.29684,-334.7225,-54.8625,-159.425
941,174020,2.166476,2.035936,-1.048712,-297.92,268.1875,-127.96
942,174118,3.5819199999999998,0.726144,-2.8896919999999997,138.4425,434.245,30.9225
943,174216,1.101416,1.669936,-1.220976,-125.2125,256.9875,-6.8775
944,174315,1.754848,0.26961999999999997,-1.642364,4.375,308.0,-1.295
945,174413,1.56282,0.10248,-1.4154440000000001,5.5125,274.1025,9.4325
946,174511,1.198284,0.329644,-1.169248,-16.7475,226.0825,19.3375
947,174609,1.8053560000000002,0.6707561,-2.056676,10.9725,208.845,18.445
948,174707,1.979572,-0.6109760000000001,-0.9272,70.8925,174.125,-14.6825
949,174805,0.6319600000000001,-0.413092,-0.9403761,-8.75,95.3225,-22.995
950,174903,1.393728,0.17128800000000002,-1.2763639999999998,-31.3075,88.6375,-7.805
951,175001,0.47384799999999994,-0.11614400000000001,-0.8464360000000001,-29.2075,49.175,-29.47
952,175099,0.809348,0.271572,-1.128256,-41.7025,36.1725,-26.3725
953,175197,0.5690081,0.197884,-0.940132,-43.6275,23.485,-25.0425
954,175295,0.6344,0.30182800000000004,-0.9994241,-33.915,16.8875,-19.4425
955,175393,0.533872,0.36722,-0.9630681000000001,-31.2375,9.835,-14.0875
956,175491,0.530212,0.19032000000000002,-0.9252481,-11.41,9.345,-7.665
957,175589,0.522892,0.156648,-0.9030440000000001,-5.8975,7.105,-3.57
958,175687,0.515572,0.17324,-0.8852321,-3.4825,6.09,-0.8925
959,175785,0.489708,0.115168,-0.8662001,2.3275,6.3175,1.2425
960,175883,0.5009319999999999,0.094916,-0.8461921,4.2,6.5275,2.45
961,175981,0.482876,0.042212,-0.8317960999999999,4.9,5.8975,1.4875
962,176079,0.486292,0.006344,-0.829356,2.7825,5.5475,-1.1725
963,176177,0.495076,0.016836,-0.814472,-0.8925,4.9175,-5.145
964,176275,0.5104479999999999,0.091744,-0.82594,-5.18,4.0425,-8.785
965,176373,0.5267960999999999,0.15762400000000001,-0.8352120000000001,-5.6,4.025,-10.15
966,176471,0.528992,0.145912,-0.834968,-2.1525,5.0925,-9.555
967,176569,0.5260640000000001,0.124928,-0.8310639999999999,1.3125,6.9475,-8.8375
968,176668,0.518012,0.09418401,-0.827892,3.1325,8.47,-8.7675
969,176766,0.5192319999999999,0.08954801,-0.821792,3.22,10.255,-9.5025
970,176864,0.5104479999999999,0.06344,-0.80886,2.94,11.0075,-10.885
971,176962,0.49605200000000005,0.050996,-0.8169121,2.3625,12.005,-13.09
972,177060,0.5267960999999999,0.053924,-0.822524,1.785,12.425,-16.7825
973,177158,0.5072760000000001,0.090036,-0.8271601000000001,-0.7175,12.8275,-19.81
974,177256,0.511668,0.082716,-0.81862,2.135,15.9425,-21.6125
975,177354,0.520452,0.099552,-0.8249639999999999,2.94,18.4975,-24.64
976,177452,0.456768,0.31476,-0.8754719999999999,3.2375,22.925,-26.3375
977,177550,0.53314,-0.193248,-0.7539600000000001,20.055,32.2175,-29.715
978,177648,0.491904,0.10223600000000001,-0.8108121,12.04,38.675,-33.0575
979,177746,0.553392,0.1952,-0.83814,2.9225,46.34,-29.3475
980,177844,0.544852,0.10394400000000001,-0.791536,11.69,55.895,-24.92
981,177942,0.576328,0.171776,-0.800076,8.855,63.385,-22.295
982,178040,0.5565640000000001,0.141032,-0.787876,11.55,72.6425,-18.0425
983,178138,0.5614439999999999,0.133468,-0.791048,9.7825,83.265,-12.775
984,178236,0.55266,0.135664,-0.8113001,8.12,94.79751,-7.4025
985,178334,0.533384,0.096624,-0.8039801,6.9125,106.96,-2.4325
986,178432,0.5307,0.117852,-0.7983680000000001,2.1,121.7475,2.31
987,178530,0.559248,0.145424,-0.8054439999999999,-5.4775,139.4575,8.505
988,178628,0.5353359999999999,0.149816,-0.7951961,-10.71,159.2675,15.1375
989,178726,0.549732,0.08857201,-0.8164239999999999,-20.405,180.6175,24.29
990,178824,0.505324,0.14078800000000002,-0.819108,-34.9475,202.8775,30.065
991,178922,0.6573359999999999,0.1037,-0.8940161,-38.57,230.055,35.91
992,179021,0.527528,0.108824,-0.790804,-45.2025,259.595,45.7625
993,179119,0.86498,0.12175599999999999,-0.8725440999999999,-35.385,317.1875,59.36
994,179217,0.49776000000000004,0.10004,-0.9516,-45.6575,361.2525,76.7025
995,179315,-0.106628,0.17324,-1.434964,-30.7475,416.4125,90.21251
996,179413,1.438868,-0.040504000000000005,-1.0138200000000002,-5.11,438.6375,96.98501
997,179511,1.214876,-0.269864,-1.398608,26.8275,535.4475,93.9225
998,179609,1.771684,0.142496,-2.229428,17.7975,572.88,51.9925
999,179707,2.4551279999999998,0.464088,-1.280024,47.32,573.3875,21.1925
1000,179805,2.829668,0.328912,-2.0252,45.5875,570.1325,-23.3975
1001,179903,3.25252,-0.05929201,-2.251388,108.6925,565.95,-39.0425
1002,180001,2.753784,-0.20861999999999997,-3.781512,186.13,572.2849,-68.95
1003,180099,2.150372,-0.042456,-2.069852,286.8425,481.425,-98.14
1004,180197,1.957612,0.9589200999999999,-2.86456,303.1875,365.05,-122.5525
1005,180295,4.11506,-1.2190239999999999,-3.96622,377.9475,237.3875,-118.2475
1006,180393,1.9825,-1.8961240000000001,-3.243004,278.355,5.215,-145.3025
1007,180491,0.79056,-1.630896,-1.8226799999999999,45.08,-184.94,-174.0725
1008,180589,0.6390359999999999,-1.182424,-1.627724,-48.0025,-221.2525,-164.3425
1009,180687,0.166164,-0.7007680000000001,-1.063596,-119.525,-260.26,-151.375
1010,180785,-0.057339999999999995,-0.45725600000000005,-0.85888,-118.9475,-260.75,-123.3925
1011,180883,-0.08662001,-0.25864000000000004,-0.8066641,-81.865,-250.5125,-88.11251
1012,180981,0.17812,-0.062220000000000004,-0.9489161,-28.525,-242.2525,-50.8025
1013,181079,0.496784,-0.188612,-1.037976,45.0275,-243.425,-11.2525
1014,181178,0.610244,-0.437492,-0.9894200000000001,88.55,-265.44,21.7
1015,181276,0.686616,-0.58682,-0.955016,92.33001,-293.755,43.925
1016,181374,0.7537159999999999,-0.556076,-0.925736,64.1375,-324.73,57.4525
1017,181472,0.791292,-0.366,-0.907436,29.645,-354.1125,66.8325
1018,181570,0.8066641,-0.127368,-0.9015799999999999,10.01,-379.2075,76.545
1019,181668,0.8559521000000001,0.088328,-0.9137799999999999,13.3,-396.1825,87.8675
1020,181766,0.9167081,0.16128399999999998,-0.889868,35.385,-408.0125,98.945
1021,181864,0.9774639999999999,0.168848,-0.9467200000000001,59.29,-415.9575,107.275
1022,181962,1.124352,0.190076,-1.0199200000000002,75.04,-422.8,110.6875
1023,182060,1.298568,0.163724,-1.1468,82.3725,-431.83,108.43
1024,182158,1.548424,0.070516,-1.275876,86.45,-441.9625,100.555
1025,182256,1.7760759999999998,0.063684,-1.450092,76.30001,-457.9575,93.2925
1026,182354,2.0474040000000002,0.092964,-1.537688,65.3975,-475.7375,89.915
1027,182452,2.2648080000000004,0.203984,-1.533784,59.2025,-492.7475,91.8225
1028,182550,2.471964,0.260592,-1.475956,61.705,-503.8775,101.3075
1029,182648,2.84992,0.17616800000000002,-1.410808,74.095,-504.2975,110.6525
1030,182746,3.226656,0.212524,-1.3388280000000001,71.26,-500.115,122.01
1031,182844,3.666832,0.31524800000000003,-1.186816,62.965,-493.2375,137.2175
1032,182942,4.009896,0.379664,-0.9032879999999999,56.315,-478.485,149.7825
1033,183040,4.290496,0.285236,-0.335988,54.67,-453.9675,145.67
1034,183138,4.5201,0.11321600000000001,0.650748,40.25,-418.0225,121.45
1035,183236,4.405176,0.19739600000000002,1.7999880000000001,3.7975,-371.0525,83.545
1036,183334,4.0016,0.77104,2.620804,-30.205,-307.86,49.9625
1037,183432,3.9847639999999998,1.369816,3.018036,0.7525,-219.5375,44.8
1038,183530,4.73116,1.184376,3.345972,93.4675,-119.245,71.645
1039,183628,4.54694,0.387472,3.82836,128.5025,-42.1575,96.11
1040,183726,3.6219360000000003,0.512644,3.418684,12.39,24.955,85.2075
1041,183824,0.849608,1.7033639999999999,0.62464,-109.2525,103.53,53.2
1042,183922,-1.762168,0.014152000000000001,-6.796132000000001,-15.8725,107.3975,-4.375
1043,184020,-1.4879120000000001,-2.785748,-0.797636,31.6225,129.605,-60.095
1044,184118,-2.4439040000000003,1.764364,2.490264,-475.125,4.5675,-189.525
1045,184216,2.708644,1.179984,-1.3024719999999999,-175.245,372.435,-114.8875
1046,184314,2.505636,0.7861680999999999,-2.001288,-3.745,396.305,-50.54
1047,184412,1.430572,0.778116,-1.218536,-92.82001,309.9775,-16.415
1048,184511,1.969324,0.6375721,-1.7697319999999999,-35.21,338.31,10.6575
1049,184609,1.463268,0.5502199999999999,-1.393484,-18.3925,291.6375,27.475
1050,184707,1.713368,0.595116,-1.524268,0.8575,266.665,20.1775
1051,184805,2.822836,-0.9496479999999999,-1.2280520000000001,69.1775,237.16,-6.86
1052,184903,1.434964,-0.41358,-1.4520440000000001,-11.165,134.7325,-11.2525
1053,185001,1.079944,0.613416,-1.173884,-59.71,86.04751,2.2925
1054,185099,0.632204,-0.000488,-1.015284,-25.3575,43.05,-21.77
1055,185197,0.7032079999999999,-0.029036000000000003,-0.9540401,-20.615,47.285,-17.71
1056,185295,0.652456,0.33379200000000003,-1.042612,-55.6325,16.415,-19.495
1057,185393,0.6263479999999999,0.14274,-0.968192,-25.34,11.1475,-16.8525
1058,185491,0.582428,0.2745,-0.936716,-25.55,0.0525,-13.44
1059,185589,0.5553441,0.273768,-0.915976,-13.86,-0.875,-8.3825
1060,185687,0.537288,0.16811600000000002,-0.87718,-2.485,-0.1225,-3.115
1061,185785,0.525088,0.136884,-0.8637601,1.925,1.5575,0.6125
1062,185883,0.5172800999999999,0.133224,-0.8549761,4.725,4.1125,3.255
1063,185981,0.511668,0.133712,-0.8525360000000001,6.475,6.8775,5.4775
1064,186079,0.515084,0.087352,-0.8344801,9.24,9.24,6.8075
1065,186177,0.511424,0.021228,-0.81984,9.625,10.36,6.02
1066,186275,0.523868,0.006344,-0.807884,7.3325,10.465,3.22
1067,186373,0.530456,0.055144000000000006,-0.8076399999999999,3.4125,9.59,0.07
1068,186472,0.537288,0.09223200000000001,-0.812276,2.135,9.6775,-1.33
1069,186570,0.540704,0.094916,-0.8164239999999999,2.87,10.3775,-1.7325
1070,186668,0.541192,0.09150001,-0.813496,3.7625,10.99,-1.575
1071,186766,0.5414359999999999,0.07490801,-0.803492,4.4625,11.2175,-1.7325
1072,186864,0.543144,0.088328,-0.805688,4.41,11.5675,-2.03
1073,186962,0.532652,0.07588400000000001,-0.8178880999999999,4.4625,12.0575,-2.17
1074,187060,0.5248441,0.053191999999999996,-0.8066641,4.9525,12.6875,-2.8875
1075,187158,0.515084,0.040504000000000005,-0.8054439999999999,4.7775,13.335,-4.2175
1076,187256,0.5443640000000001,0.039528,-0.7998321,3.955,13.86,-6.9825
1077,187354,0.532652,0.057339999999999995,-0.7832399999999999,2.03,12.95,-10.5175
1078,187452,0.535824,0.042212,-0.7854361,3.045,13.475,-12.985
1079,187550,0.51484,0.011956,-0.8003201,2.4325,13.51,-16.695
1080,187648,0.526308,0.065148,-0.8003201,1.3125,15.155,-20.02
1081,187746,0.52582,0.081496,-0.8274040000000001,3.815,18.76,-22.0325
1082,187844,0.5355800999999999,0.080764,-0.809348,10.5175,24.885,-24.535
1083,187942,0.5594920999999999,0.17446,-0.8169121,7.315,29.75,-22.7675
1084,188040,0.5443640000000001,0.07856801,-0.786412,17.605,38.115,-18.9175
1085,188138,0.56242,0.08662001,-0.796416,19.6175,45.22,-17.115
1086,188236,0.5607121,0.110776,-0.805932,19.3375,51.275,-13.9125
1087,188334,0.5753520000000001,0.073688,-0.797636,19.075,59.57,-9.38
1088,188432,0.557052,0.12175599999999999,-0.800808,15.6975,68.635,-4.41
1089,188530,0.554856,0.11345999999999999,-0.797148,17.99,80.6925,2.5025
1090,188628,0.5726680000000001,0.11736400000000001,-0.7929999999999999,17.605,93.415,9.1525
1091,188726,0.574864,0.138348,-0.786412,17.36,108.745,18.235
1092,188824,0.557052,0.131272,-0.8332601000000001,14.2275,123.1125,27.44
1093,188923,0.489708,0.067832,-0.862784,15.0325,140.5775,35.07
1094,189021,0.5458281,-0.0017079999999999999,-0.73932,16.1525,160.195,37.765
1095,189119,0.50142,0.024156,-0.743224,1.715,182.9625,37.695
1096,189217,0.711504,0.11028800000000001,-0.860344,-5.845,209.9475,38.7625
1097,189315,0.5038600000000001,0.060024,-0.89792,8.26,246.9425,49.8225
1098,189413,0.396256,0.086864,-1.028948,5.915,292.9675,61.0225
1099,189511,0.746396,0.023668,-0.9145120999999999,11.97,330.68,65.17
1100,189609,0.769332,-0.239608,-1.069452,33.285,382.4275,70.91001
1101,189707,0.9362280000000001,-0.6456241,-1.461072,40.74,468.3875,57.715
1102,189805,0.9379360000000001,-0.193492,-1.18218,-4.5675,555.7825,3.85
1103,189903,2.054236,0.47043199999999996,-1.4398440000000001,-26.04,573.0375,-34.2475
1104,190001,2.4805040000000003,0.698816,-1.891244,16.7475,573.3525,-25.8475
1105,190099,2.501488,0.063684,-1.748016,59.675,570.5525,-25.2175
1106,190197,3.1293,-0.684908,-1.7580200000000001,149.87,569.0475,-22.1375
1107,190295,2.599576,0.045384,-4.226812000000001,206.85,566.9825,-35.4025
1108,190393,2.0112919999999996,-0.030256,-2.1474439999999997,283.2725,440.965,-86.51999
1109,190491,1.444236,0.132248,-3.088796,274.1375,346.01,-117.4425
1110,190589,3.8247,-1.027484,-4.170204,252.4725,184.275,-144.6375
1111,190687,1.448628,-1.392752,-2.9685040000000003,150.7625,-62.965,-162.68
1112,190785,0.165676,-1.134844,-1.5318319999999999,-20.405,-211.9075,-189.0
1113,190883,0.17934,-1.0140639999999999,-1.333704,-51.7475,-213.535,-176.7325
1114,190981,-0.19959200000000002,-0.7324881,-0.79056,-99.225,-233.065,-165.83
1115,191079,-0.09223200000000001,-0.4453,-0.8149601,-110.2675,-223.335,-145.215
1116,191177,0.172752,-0.133468,-0.9918600000000001,-84.28,-215.5825,-119.1925
1117,191275,0.379176,-0.10418800000000002,-1.105076,-27.265,-223.265,-86.4675
1118,191373,0.49166000000000004,-0.316224,-1.094584,35.0875,-242.795,-53.55
1119,191471,0.564616,-0.5077640999999999,-1.0126,65.1175,-270.2175,-28.35
1120,191570,0.617564,-0.630984,-0.9296399999999999,64.19,-299.705,-10.0975
1121,191668,0.650992,-0.6036560999999999,-0.861808,41.16,-327.6525,3.64
1122,191766,0.7610359999999999,-0.416264,-0.8976761000000001,16.6425,-352.765,16.695
1123,191864,0.823744,-0.22204000000000002,-0.8759601,9.765,-375.3575,32.0075
1124,191962,0.8762040000000001,-0.12322000000000001,-0.8674200000000001,20.4225,-392.1575,48.615
1125,192060,0.9757561,-0.061732,-0.8842561,39.83,-404.2675,64.19
1126,192158,1.0077200000000002,-0.054412,-0.8927959999999999,58.24,-416.4825,76.8775
1127,192256,1.08092,0.00366,-1.01626,70.7875,-422.9225,84.1225
1128,192354,1.280756,0.09930800000000001,-1.142164,79.59000999999999,-430.1325,86.8525
1129,192452,1.581852,0.0732,-1.227076,93.52,-437.2725,85.015
1130,192550,1.7692439999999998,0.0854,-1.341024,97.965,-447.895,80.15
1131,192648,2.006168,0.09272000000000001,-1.45546,101.5875,-456.4,72.9925
1132,192746,2.358504,0.066124,-1.58356,107.59,-462.0,67.1825
1133,192844,2.7959959999999997,0.006344,-1.583072,116.34,-466.3925,65.66
1134,192942,3.018036,0.44237200000000004,-1.4774200000000002,114.38,-473.3575,77.49
1135,193040,3.233244,0.472872,-1.245376,136.185,-469.1575,105.5425
1136,193138,3.488956,0.598532,-0.9969841,151.2525,-452.5675,132.1075
1137,193236,3.776876,0.828624,-0.691496,145.1275,-431.6375,147.7525
1138,193334,4.10042,0.874984,-0.114192,134.505,-400.8725,146.9825
1139,193432,4.102616,0.7266321,0.761524,105.3325,-367.8325,126.385
1140,193530,3.7541839999999995,0.7366361,1.7714400000000001,46.55,-326.6725,88.34000999999999
1141,193628,3.4286879999999997,1.13582,2.501244,-16.6075,-271.2325,49.91
1142,193726,4.53474,2.0413040000000002,3.123932,-32.3925,-199.9375,29.785
1143,193824,4.360768,1.6326040000000002,3.90766,51.0825,-121.8,28.525
1144,193923,3.476512,0.6009720000000001,4.096516,100.52,-26.6525,42.84
1145,194021,0.964776,0.742492,1.7809560000000002,8.3125,80.325,37.275
1146,194119,-0.43066000000000004,-0.36648800000000004,-4.377848,-28.63,138.985,-12.985
1147,194217,-0.096624,-2.6571599999999997,-2.2591959999999998,22.015,175.14,-51.1525
1148,194315,-1.51158,0.33013200000000004,1.4654639999999999,-430.92,20.02,-127.47
1149,194413,0.25790799999999997,1.2256120000000001,-0.43163599999999996,-322.315,209.755,-113.8025
1150,194511,2.431216,0.657092,-1.749968,-75.495,369.95,-51.555
1151,194609,1.2378120000000001,0.760304,-0.830576,-137.13,302.7675,-30.9925
1152,194707,1.872944,0.5414359999999999,-1.4417959999999999,-81.90001,347.6025,8.05
1153,194805,1.7402080000000002,0.9555040000000001,-1.40666,-65.8,334.8975,21.4025
1154,194903,2.5527279999999997,0.487756,-1.945412,-38.815,314.02,3.3425
1155,195001,2.8591919999999997,-0.319884,-1.56892,12.6,254.6425,-33.6
1156,195099,0.504592,0.599508,-1.348588,-76.2825,109.725,-36.5575
1157,195197,1.281488,0.42626800000000004,-1.299788,-72.975,81.655,-28.315
1158,195295,0.8249639999999999,-0.120048,-1.042124,-28.8575,26.6525,-32.165
1159,195393,0.6451359999999999,0.333548,-1.071404,-53.095,-0.385,-23.1875
1160,195491,0.62952,-0.018788,-0.8801081000000001,-20.93,-12.215,-25.865
1161,195589,0.5441199999999999,0.231312,-0.887916,-26.285,-18.34,-24.5175
1162,195687,0.598532,0.20008,-0.8547319999999999,-17.0275,-18.165,-23.9225
1163,195785,0.548268,0.256688,-0.8518040000000001,-12.285,-17.1675,-20.0725
1164,195883,0.5455840000000001,0.24082800000000001,-0.8576601,-7.5075,-13.2475,-15.4175
1165,195981,0.5368,0.207644,-0.8554641,-1.05,-8.82,-9.9225
1166,196080,0.5124001,0.22472399999999998,-0.861808,2.135,-3.92,-4.48
1167,196178,0.50508,0.17812,-0.853024,7.455,1.8025,-0.07
1168,196276,0.509716,0.1342,-0.8315520000000001,10.745,5.9675,2.975
1169,196374,0.5192319999999999,0.09394001,-0.821792,12.1625,8.1725,4.4975
1170,196472,0.5170359999999999,0.07198,-0.815448,11.5675,8.8725,4.445
1171,196570,0.524112,0.06954,-0.8127641,9.9225,8.75,3.2375
1172,196668,0.5314321,0.089304,-0.8086161000000001,8.19,8.47,2.345
1173,196766,0.528748,0.059536,-0.8081281,7.9975,8.12,1.61
1174,196864,0.53192,0.05124001,-0.8020281,6.7725,7.035,-0.1225
1175,196962,0.537044,0.060267999999999995,-0.795928,4.795,5.6,-2.695
1176,197060,0.536068,0.069052,-0.7956840999999999,3.36,3.99,-4.76
1177,197158,0.5397281,0.071004,-0.7956840999999999,2.5025,2.94,-6.0025
1178,197256,0.5443640000000001,0.073688,-0.79178,1.4,1.785,-7.07
1179,197354,0.546072,0.07856801,-0.79666,0.35,0.455,-8.05
1180,197452,0.540948,0.091988,-0.8042239999999999,-0.4375,-0.8925,-9.1175
1181,197550,0.543388,0.07344400000000001,-0.7993439999999999,-0.1925,-1.3125,-9.905
1182,197648,0.528504,0.101748,-0.807396,-1.3475,-1.19,-10.85
1183,197746,0.5307,0.107116,-0.8115439999999999,-0.42,0.1225,-10.7975
1184,197844,0.525576,0.10760399999999999,-0.8132520999999999,0.0175,1.1375,-10.7275
1185,197942,0.534604,0.094916,-0.807884,0.8575,2.765,-10.8325
1186,198041,0.543876,0.10809200000000001,-0.8020281,1.68,4.375,-11.2875
1187,198139,0.556076,0.111996,-0.8010520000000001,2.3625,5.425,-11.69
1188,198237,0.546072,0.11126400000000002,-0.795928,3.115,6.1775,-11.6725
1189,198335,0.5516840000000001,0.09320801,-0.7881199999999999,4.1475,7.175,-11.795
1190,198433,0.532408,0.069052,-0.7956840999999999,3.9725,8.295,-12.6525
1191,198531,0.5455840000000001,0.05563200000000001,-0.79056,3.5175,9.485,-14.525
1192,198629,0.551928,0.074664,-0.794708,1.05,9.8175,-16.9575
1193,198727,0.55632,0.0488,-0.7895840999999999,0.315,10.815,-18.795
1194,198825,0.548024,0.01708,-0.789828,0.8575,11.655,-21.4725
1195,198923,0.534116,0.041236,-0.811056,-2.1175,12.4075,-24.7975
1196,199021,0.525576,0.09979600000000001,-0.818376,-3.2375,15.785,-26.88
1197,199119,0.5260640000000001,0.07222401,-0.8210601000000001,-1.505,21.7525,-26.8625
1198,199217,0.508252,0.07076001,-0.849608,-1.61,28.9275,-27.9125
1199,199315,0.49288000000000004,0.061,-0.8591241,-7.42,38.29,-29.61
1200,199413,0.47165200000000007,0.045384,-0.8586360000000001,-8.0675,51.1,-33.81
1201,199511,0.477996,0.07173600000000001,-0.8945040000000001,-10.5175,66.2025,-38.2025
1202,199609,0.500688,0.184952,-0.873276,-16.135,84.7175,-40.11
1203,199707,0.452132,0.196176,-0.8827921000000001,-15.295,109.34,-38.4125
1204,199805,0.47092,0.13639600000000002,-0.883768,-5.6875,141.47,-36.155
1205,199903,0.41723999999999994,0.205936,-0.8996280999999999,-10.5875,174.0025,-35.315
1206,200001,0.39894,0.217648,-0.9230520000000001,-6.055,217.315,-32.235
1207,200099,0.42431599999999997,0.10614000000000001,-0.9618481,-0.455,264.8275,-31.2375
1208,200197,0.8235001000000001,0.040016,-1.02724,-7.455,315.84,-29.54
1209,200296,0.41284799999999994,0.245952,-1.143384,-11.2,372.54,-23.835
1210,200394,0.733952,0.05977999999999999,-1.154608,50.9425,459.9,-14.3675
1211,200492,0.865956,-0.045872,-1.6560279999999998,102.8825,514.185,-6.6675
1212,200590,1.4752239999999999,-0.016104,-2.341668,154.245,532.14,-29.4
1213,200688,2.0876639999999997,0.238144,-2.243824,181.685,508.48,-84.4375
1214,200786,2.35948,0.47555600000000003,-2.142808,177.6075,448.98,-151.1125
1215,200884,1.905152,0.053924,-1.815848,167.3875,404.495,-226.66
1216,200982,1.329556,0.8108121,-2.979484,165.6375,353.78,-274.575
1217,201080,0.831308,1.2658719999999999,-3.6321839999999996,182.7875,201.6875,-276.15
1218,201178,0.32574000000000003,-0.948184,-1.7934,303.555,108.3775,-279.125
1219,201276,-0.416508,-2.039352,-0.69052,285.6175,39.795,-262.2025
1220,201374,-0.07808001,-1.6906759999999998,-0.8359440999999999,144.9875,27.755,-217.035
1221,201472,0.371856,-0.9089001,-1.440576,80.0625,14.98,-133.91
1222,201570,0.277916,-0.574864,-1.52744,111.4225,-22.19,-28.8925
1223,201668,0.194956,-0.606584,-1.4337440000000001,182.245,-59.745,73.395
1224,201766,0.21862399999999999,-0.47506800000000005,-1.352492,212.3625,-96.0575,146.685
1225,201864,0.263764,-0.07564,-1.3886040000000002,201.5475,-132.4575,188.86
1226,201962,0.277672,0.40577199999999997,-1.414468,185.0975,-169.785,207.69
1227,202060,0.27718400000000004,0.8222799999999999,-1.40422,184.87,-202.055,211.2075
1228,202158,0.281332,1.1773,-1.3712799999999998,195.8425,-228.935,203.7
1229,202256,0.260348,1.543056,-1.300276,210.42,-250.635,183.225
1230,202354,0.221552,1.837076,-1.361764,223.58,-267.015,144.1825
1231,202452,0.314272,2.18624,-1.441552,234.5525,-278.04,84.4375
1232,202550,0.420412,2.445856,-1.40544,250.635,-289.1175,14.0175
1233,202648,0.505568,2.5061240000000002,-1.3090600000000001,281.855,-296.5025,-59.325
1234,202747,0.7442,2.3973,-1.263676,317.5025,-296.2575,-124.635
1235,202845,0.98088,2.162084,-1.1709559999999999,346.6925,-295.6975,-173.705
1236,202943,1.144116,2.009096,-0.9947881,354.3575,-300.1775,-206.57
1237,203041,1.26026,2.007388,-0.7427361,350.0175,-302.365,-228.0425
1238,203139,1.3888479999999999,1.98006,-0.489708,349.1775,-296.1,-244.8775
1239,203237,1.4010479999999998,2.180628,-0.393572,348.005,-280.21,-259.6125
1240,203335,1.3954360000000001,2.4561040000000003,-0.338428,356.895,-257.0925,-275.7825
1241,203433,1.418128,2.758664,-0.281088,374.115,-228.9175,-304.6225
1242,203531,1.4339879999999998,3.057076,-0.165188,392.14,-200.445,-350.07
1243,203629,1.431548,3.234464,0.019275999999999998,403.935,-172.4625,-405.685
1244,203727,1.475468,3.13784,0.244732,412.1075,-140.4025,-456.26
1245,203825,1.515728,2.678388,0.320616,406.525,-108.5525,-483.0875
1246,203923,1.519876,1.9910400000000001,0.24522,372.8375,-87.1675,-476.07
1247,204021,1.515728,1.245132,0.11736400000000001,308.4725,-81.74251,-428.05
1248,204119,1.44936,0.444812,0.07490801,225.9775,-85.33,-343.315
1249,204217,1.2117040000000001,0.30256,0.11126400000000002,122.045,-94.78,-240.24
1250,204315,0.9596520000000001,0.48824399999999996,0.169336,47.495,-94.71,-136.71
1251,204413,0.8862081,-1.180472,0.509228,28.245,-76.51,-49.9275
1252,204511,1.5586719999999998,0.524112,1.68238,-156.94,-22.1725,-59.3775
1253,204609,2.132316,3.635356,0.9042641,-450.905,31.08,-104.4575
1254,204707,4.257556,-1.833416,-2.78648,71.4875,215.075,-59.9375
1255,204805,1.691652,-1.182668,-2.0708279999999997,-22.4875,74.76,-1.575
1256,204903,-1.550376,1.438136,-0.815936,-287.8925,-115.15,-59.6225
1257,205001,1.651148,1.665544,-1.5669680000000001,-139.0375,53.9525,-47.39
1258,205099,0.386984,-0.617564,-0.745908,-5.95,-18.9875,-44.5025
1259,205198,0.6724640000000001,0.5751081,-0.887184,-67.0425,-13.965,-26.5475
1260,205296,0.597312,0.5702281,-0.7515201,-62.6675,-26.7925,-28.5775
1261,205394,0.62708,0.159576,-0.8247200000000001,-15.2425,-14.2275,-23.87
1262,205492,0.551928,0.311832,-0.814472,-28.0875,-25.375,-22.05
1263,205590,0.537288,0.29597199999999996,-0.8210601000000001,-18.4625,-23.1525,-18.4275
1264,205688,0.46238,0.302804,-0.863516,-11.97,-24.535,-15.6975
1265,205786,0.49751599999999996,0.239852,-0.849608,-2.135,-20.2125,-12.3025
1266,205884,0.494588,0.193248,-0.8547319999999999,2.9225,-16.17,-9.3975
1267,205982,0.5321640000000001,0.14566800000000002,-0.8418,5.145,-12.9675,-7.875
1268,206080,0.529724,0.16714,-0.8317960999999999,6.1075,-10.7625,-6.5275
1269,206178,0.526552,0.132492,-0.8247200000000001,6.825,-8.4,-4.935
1270,206276,0.5221600000000001,0.10809200000000001,-0.8274040000000001,7.56,-5.67,-3.815
1271,206374,0.49312399999999995,0.13176,-0.838628,6.1425,-3.85,-3.43
1272,206472,0.496784,0.13785999999999998,-0.8369200000000001,6.5975,-1.295,-2.7125
1273,206570,0.51118,0.138348,-0.8247200000000001,7.8225,1.0675,-1.26
1274,206668,0.518988,0.11394800000000001,-0.820084,8.89,2.24,-0.035
1275,206766,0.520452,0.104676,-0.813496,9.1525,2.835,0.6825
1276,206864,0.51118,0.114192,-0.805932,8.2425,2.5375,0.07
1277,206962,0.5131319999999999,0.119316,-0.815692,7.8575,1.54,-0.7525
1278,207060,0.515084,0.10540799999999999,-0.813984,7.7175,0.385,-1.925
1279,207158,0.518256,0.10052799999999999,-0.8076399999999999,8.3125,-0.5075,-3.0975
1280,207256,0.52094,0.11053199999999999,-0.813008,8.89,-1.54,-4.7075
1281,207354,0.510936,0.131028,-0.8169121,8.68,-1.9775,-5.95
1282,207452,0.518988,0.11834000000000001,-0.8100801,10.5875,-1.8375,-6.9125
1283,207551,0.5124001,0.123464,-0.8178880999999999,11.6025,-1.3475,-7.3675
1284,207649,0.5248441,0.12761199999999998,-0.818376,12.285,-0.7525,-8.0675
1285,207747,0.541924,0.101992,-0.8108121,13.1425,-0.0175,-7.9625
1286,207845,0.50752,0.090036,-0.815204,14.28,0.56,-8.8375
1287,207943,0.5392399999999999,0.057828,-0.8169121,14.665,1.12,-9.59
1288,208041,0.5397281,0.07222401,-0.806908,12.3375,1.225,-10.115
1289,208139,0.535824,0.08003201,-0.8071520000000001,10.71,1.3825,-9.9225
1290,208237,0.561932,0.07710399999999999,-0.8103239999999999,10.045,2.1,-10.78
1291,208335,0.514596,0.09613601,-0.820816,7.875,2.24,-10.325
1292,208433,0.540948,0.08344800000000001,-0.8322841000000001,10.185,5.5475,-10.08
1293,208531,0.535092,0.10516400000000001,-0.8310639999999999,9.6075,8.435,-9.59
1294,208629,0.5441199999999999,0.05856,-0.8256960999999999,11.095,12.53,-8.0675
1295,208727,0.5077640999999999,0.11053199999999999,-0.83936,10.815,16.4675,-7.6125
1296,208825,0.411872,0.20691199999999998,-0.91622,14.105,21.035,-10.64
1297,208923,0.518012,-0.085156,-0.7849480999999999,29.33,30.24,-16.94
1298,209021,0.531676,0.13151600000000002,-0.859856,18.375,32.69,-22.9775
1299,209119,0.5294800000000001,0.05368,-0.71492,21.14,36.435,-22.575
1300,209217,0.5648601,0.050263999999999996,-0.759084,30.31,42.84,-23.03
1301,209315,0.543876,0.204716,-0.7793359999999999,27.44,45.57,-19.9675
1302,209413,0.606096,0.09930800000000001,-0.7856801,39.9875,53.4975,-12.8975
1303,209511,0.61488,0.08442401,-0.76494,30.1175,55.195,-6.9125
1304,209609,0.579256,0.11541199999999999,-0.7812880999999999,24.6575,59.15,0.6475
1305,209707,0.578036,0.104432,-0.772504,25.8125,63.525,8.1025
1306,209805,0.604632,0.092964,-0.7571321,23.3275,69.335,13.5625
1307,209903,0.596092,0.066856,-0.753472,23.5375,75.3725,18.41
1308,210001,0.617564,0.032451999999999995,-0.7503,22.4175,81.69001,21.6125
1309,210100,0.609024,0.058072000000000006,-0.763232,18.1825,88.4275,24.3075
1310,210198,0.616344,0.030744,-0.7378560000000001,17.185,95.9,26.775
1311,210296,0.638548,0.069052,-0.7639640999999999,16.5375,104.685,30.6075
1312,210394,0.641232,0.009272001,-0.73932,20.0375,111.7725,35.105
1313,210492,0.582428,0.128344,-0.7820199999999999,16.065,119.665,41.4575
1314,210590,0.6958880000000001,0.03904,-0.711504,25.935,128.3625,41.405
1315,210688,0.550708,0.105896,-0.775676,33.25,142.1525,44.835
1316,210786,0.6082920999999999,0.116388,-0.8039801,36.4,153.02,45.605
1317,210884,0.67832,0.063196,-0.7017439999999999,45.955,167.02,53.6725
1318,210982,0.7239479999999999,0.159332,-0.7822640000000001,49.7875,181.79,69.195
1319,211080,0.655628,0.254492,-0.812032,60.9,193.2525,87.5
1320,211178,0.7283400999999999,0.35843600000000003,-0.886452,81.165,214.445,111.265
1321,211276,0.7500560000000001,0.541192,-0.9391560999999999,103.88,222.2675,136.955
1322,211374,1.004548,0.7315119999999999,-1.38836,131.005,239.5575,173.6
1323,211472,1.147532,0.503616,-1.2134120000000002,193.9525,289.7825,222.2325
1324,211570,1.293444,0.077836,-1.11142,267.015,325.99,255.7975
1325,211668,1.44326,-0.163724,-1.2756319999999999,332.325,358.89,266.56
1326,211766,1.821948,0.133468,-1.452288,330.365,364.4375,221.4275
1327,211864,1.873188,-0.006832001,-2.014708,384.755,405.8425,139.7375
1328,211962,2.002752,-0.333304,-1.624552,404.88,386.9425,85.26
1329,212060,2.019588,0.055144000000000006,-1.9583439999999999,428.2075,346.185,42.1225
1330,212158,1.9049080000000003,0.7666480999999999,-2.139148,493.4825,292.18,43.5225
1331,212256,0.8430200999999999,0.393084,-1.7680240000000003,558.5125,208.075,21.7525
1332,212355,1.402268,-0.7088201,-0.8376520000000001,567.21,144.7425,-59.045
1333,212453,2.696444,-1.043344,-2.666676,459.4975,54.495,-175.21
1334,212551,1.2139,-0.76982,-1.8058439999999998,250.8625,-138.425,-268.8525
1335,212649,0.44554399999999994,-0.5192319999999999,-1.2282959999999998,108.2025,-233.87,-306.915
1336,212747,0.240096,-0.5131319999999999,-0.9828321,100.3625,-233.45,-310.1
1337,212845,0.22106399999999998,-0.546072,-0.7795801,80.465,-218.75,-292.6525
1338,212943,0.5604680000000001,-0.571204,-0.8359440999999999,64.925,-199.255,-252.0875
1339,213041,0.773968,-0.669048,-1.087996,66.1675,-190.0325,-190.015
1340,213139,0.6771,-0.638304,-1.124352,50.7675,-209.615,-123.41
1341,213237,0.47604399999999997,-0.477264,-1.111908,28.385,-234.815,-65.0825
1342,213335,0.33013200000000004,-0.101016,-1.138992,6.2475,-256.515,-19.7925
1343,213433,0.329644,0.29036,-1.146312,2.94,-272.3175,13.23
1344,213531,0.37258800000000003,0.60634,-1.152168,20.44,-283.9725,37.6075
1345,213629,0.5023960999999999,0.7515201,-1.1716879999999998,45.6575,-293.1075,49.91
1346,213727,0.6258600000000001,0.8713241,-1.131428,62.055,-307.3875,52.01
1347,213825,0.7551800000000001,1.017724,-1.1272799999999998,63.28,-323.1025,43.89
1348,213923,0.8403360000000001,1.176324,-1.130696,55.9125,-341.075,26.1275
1349,214021,0.893284,1.351272,-1.111176,52.8675,-357.2625,4.8825
1350,214119,0.902068,1.4064159999999999,-1.080188,58.765,-368.06,-16.2575
1351,214217,0.9650200999999999,1.3322399999999999,-1.071404,68.425,-372.26,-37.2225
1352,214315,1.050664,1.230004,-1.1241079999999999,71.78501,-374.8325,-55.825
1353,214413,1.178764,1.111908,-1.225368,68.4775,-377.825,-74.9875
1354,214511,1.330044,1.028948,-1.3346799999999999,62.965,-383.95,-91.0525
1355,214609,1.4520440000000001,0.877424,-1.38226,59.4125,-393.82,-103.075
1356,214708,1.60552,0.6451359999999999,-1.36396,56.5075,-405.1075,-110.7575
1357,214806,1.7938880000000001,0.536556,-1.301008,48.6325,-414.995,-111.4225
1358,214904,2.0215400000000003,0.404064,-1.2280520000000001,41.0375,-420.14,-106.6975
1359,215002,2.3358119999999998,0.39894,-1.1004399999999999,33.88,-421.9425,-91.6825
1360,215100,2.708644,0.452132,-0.859368,28.8925,-418.3375,-75.3725
1361,215198,3.0622,0.5926760999999999,-0.46945600000000004,24.0275,-407.68,-66.57
1362,215296,3.3447519999999997,0.6917399999999999,0.11248399999999999,19.0225,-388.0625,-73.395
1363,215394,3.433812,0.809836,0.74664,13.685,-354.795,-92.995
1364,215492,3.5101839999999997,0.8927959999999999,1.3529799999999998,14.385,-305.7075,-114.8525
1365,215590,3.570696,0.8193521,1.7328880000000002,17.6225,-247.45,-131.88
1366,215688,3.678544,0.727364,1.885632,11.83,-188.2825,-144.2
1367,215786,3.6905,0.661484,1.96908,-9.3625,-136.4475,-149.94
1368,215884,3.6392599999999997,0.614392,1.945412,-26.53,-91.7875,-147.2625
1369,215982,3.267404,0.5546121,2.524668,-37.0125,-52.0975,-133.49
1370,216080,2.705228,0.55998,3.237636,-35.7175,35.56,-122.15
1371,216178,0.639524,-0.142252,-0.8862081,14.5075,139.79,-131.2675
1372,216276,0.9874681000000001,-2.250168,-3.3664680000000002,76.9825,213.43,-128.275
1373,216374,0.7483479999999999,-1.015284,0.101748,-93.6775,142.9575,-132.7725
1374,216472,2.051796,0.310368,-1.7687560000000002,-139.23,229.7575,-49.63
1375,216570,1.61894,1.005768,-1.863916,-83.58001,230.7725,3.15
1376,216668,0.535092,1.7284959999999998,-1.194624,-94.6925,173.53,7.245
1377,216766,0.562908,0.6634359999999999,-0.91012,-0.0525,187.3725,-14.21
1378,216864,1.135576,-0.044652,-1.030168,38.5525,190.1375,-18.2525
1379,216962,1.39934,-0.33184,-1.130696,42.735,172.445,-3.745
1380,217060,1.372012,0.24351199999999998,-1.591612,14.8225,137.795,14.5775
1381,217158,1.35786,-0.155428,-1.30418,9.9925,103.6525,2.3275
1382,217256,1.0079639999999999,0.321592,-1.1631479999999998,-22.085,57.05,2.87
1383,217354,0.606584,0.249856,-0.9718521000000001,-20.3525,29.2075,0.245
1384,217453,0.641232,-0.07027201,-0.9476959999999999,7.385,28.7175,0.4375
1385,217551,0.588284,0.28328400000000004,-0.9537959999999999,-14.14,13.9125,-0.0875
1386,217649,0.599264,0.147376,-0.919636,-6.7025,5.8275,-1.96
1387,217747,0.528504,0.149816,-0.8876719999999999,-0.455,0.2975,0.21
1388,217845,0.5124001,0.15738,-0.8735200000000001,-0.2975,-1.5575,0.8925
1389,217943,0.50752,0.142008,-0.8610761,2.38,-1.1375,0.8925
1390,218041,0.5070319999999999,0.133712,-0.847412,2.8525,-0.2275,0.98
1391,218139,0.504836,0.122732,-0.8400921,3.2025,1.2425,1.47
1392,218237,0.49556400000000006,0.071248,-0.8274040000000001,4.27,2.5375,1.225
1393,218335,0.5038600000000001,0.067832,-0.83204,3.43,3.5525,-0.4725
1394,218433,0.50142,0.08003201,-0.8327720999999999,1.4525,4.3925,-2.4325
1395,218531,0.504104,0.09125599999999999,-0.8310639999999999,0.35,5.565,-4.4275
1396,218629,0.512888,0.09979600000000001,-0.835456,0.28,6.7025,-5.7925
1397,218727,0.519476,0.132004,-0.8357,0.4025,7.8225,-6.6325
1398,218825,0.518256,0.12395199999999999,-0.8332601000000001,2.065,9.5375,-6.0025
1399,218923,0.50752,0.10760399999999999,-0.833016,3.5175,11.305,-5.11
1400,219021,0.51972,0.111508,-0.827892,3.8675,13.3,-5.11
1401,219119,0.52094,0.11394800000000001,-0.823256,4.2,14.8575,-5.2675
1402,219217,0.516792,0.10004,-0.8244761,4.865,16.4325,-5.4075
1403,219315,0.511424,0.077592,-0.819108,5.635,18.1125,-6.3875
1404,219413,0.5192319999999999,0.076616,-0.81374,5.1975,19.5125,-8.2425
1405,219511,0.528992,0.049288,-0.8052,5.005,21.2975,-9.6425
1406,219609,0.530212,0.085888,-0.8049561,4.795,23.17,-12.075
1407,219707,0.553392,0.105652,-0.8047121,4.515,24.885,-13.3175
1408,219805,0.548756,0.1281,-0.8071520000000001,5.81,27.545,-13.9475
1409,219903,0.48531599999999997,0.18544000000000002,-0.8637601,9.9575,31.4125,-14.6475
1410,220001,0.570472,0.090036,-0.787388,20.37,38.885,-16.0125
1411,220099,0.5565640000000001,0.161772,-0.7812880999999999,12.985,41.1075,-11.55
1412,220197,0.542168,0.0976,-0.7812880999999999,18.515,49.7525,-7.035
1413,220295,0.525088,0.083204,-0.79178,14.8225,56.14,-5.4425
1414,220393,0.559004,0.156404,-0.794952,14.9975,66.745,-2.4325
1415,220491,0.5692520000000001,0.08369201,-0.7712840999999999,16.765,74.76,1.4875
1416,220590,0.5738880000000001,0.089304,-0.774944,18.0775,82.495,3.3425
1417,220688,0.5636399999999999,0.024156,-0.784216,16.52,89.4075,5.005
1418,220786,0.5653481,0.027327999999999998,-0.796172,11.34,98.91001,6.37
1419,220884,0.5489999999999999,0.004148001,-0.7795801,4.1825,109.4275,5.88
1420,220982,0.6131721,0.027816000000000004,-0.7332201,-1.155,123.165,4.8475
1421,221080,0.5546121,0.10223600000000001,-0.791536,-16.345,136.955,6.6675
1422,221178,0.578036,0.105652,-0.792756,-20.8075,154.98,10.4475
1423,221276,0.740296,0.10248,-0.774456,-26.8275,175.5425,16.835
1424,221374,0.631228,0.07393200000000001,-0.7283400999999999,-30.555,196.7875,25.48
1425,221472,0.558516,0.09150001,-0.794708,-34.9475,227.5,31.885
1426,221570,0.6993041,0.139568,-0.79178,-22.96,267.89,39.55
1427,221668,0.331108,0.14688800000000002,-0.9947881,-33.2675,300.72,50.6975
1428,221766,1.031144,0.024888,-0.8276481,-31.0275,324.6775,63.7175
1429,221864,0.784216,0.009272001,-0.9093880999999999,-12.32,370.51,79.73001
1430,221962,1.464,0.013663999999999999,-1.085312,6.93,454.3875,84.56
1431,222060,0.537044,0.08954801,-1.4630239999999999,9.1875,550.585,70.42
1432,222158,1.8229240000000002,-0.25376,-1.0206520000000001,2.73,573.2125,46.5325
1433,222256,2.3724119999999997,0.17812,-1.773636,-23.345,572.6,-2.2925
1434,222354,2.527596,0.13761600000000002,-1.5913680000000001,-36.225,550.935,-54.11
1435,222452,3.120028,0.484584,-2.07156,25.2525,535.6575,-48.79
1436,222550,2.8660240000000003,-0.046848,-3.2881440000000004,167.3,560.49,-16.38
1437,222648,2.629832,0.39967199999999997,-2.4207240000000003,280.9275,496.3175,-56.4375
1438,222746,1.974936,1.193648,-3.662196,321.2125,384.5975,-110.4075
1439,222844,3.7166080000000004,-0.6902761,-2.8870080000000002,405.09,248.255,-147.6825
1440,222942,2.560536,-2.414136,-3.469436,372.3475,75.5125,-170.065
1441,223041,1.01748,-1.9478520000000001,-1.798768,79.87,-168.0,-217.945
1442,223139,0.8518040000000001,-1.48596,-1.6443159999999999,-68.79251,-222.53,-210.6825
1443,223237,0.39723200000000003,-0.8959681,-1.21878,-163.695,-262.8325,-199.6925
1444,223335,0.007564001,-0.48922,-0.9191481,-179.795,-277.515,-171.64
1445,223433,-0.183976,-0.29133600000000004,-0.8071520000000001,-133.5425,-264.11,-134.3825
1446,223531,-0.00488,-0.05124001,-0.8827921000000001,-63.805,-248.535,-93.87
1447,223629,0.37332,-0.12980799999999998,-0.9974719999999999,24.4825,-240.38,-52.0625
1448,223727,0.6080479999999999,-0.424072,-1.023824,96.86251,-251.86,-15.47
1449,223825,0.727364,-0.64782,-0.9376921,119.315,-279.755,8.085
1450,223923,0.734684,-0.758596,-0.8637601,101.885,-311.745,22.5925
1451,224021,0.777628,-0.654652,-0.8486319999999999,62.475,-340.69,33.1275
1452,224119,0.8757159999999999,-0.388448,-0.8752280000000001,29.1725,-366.2575,44.2575
1453,224217,0.9586761,-0.13298,-0.873276,21.245,-387.8175,58.8875
1454,224315,0.9818561,-0.018544,-0.897432,36.1375,-405.0375,74.6725
1455,224413,1.052616,0.026595999999999998,-0.8976761000000001,61.6525,-416.4475,90.125
1456,224511,1.11874,0.029524,-0.9089001,82.845,-426.0025,101.605
1457,224609,1.247328,0.00366,-0.9943001,95.725,-432.005,109.095
1458,224707,1.451068,-0.022448,-1.09556,98.105,-438.0425,111.965
1459,224805,1.636508,0.014396,-1.27734,93.555,-446.39,113.1725
1460,224903,1.9488279999999998,0.030744,-1.4593639999999999,90.00251,-455.9975,112.8575
1461,225001,2.2945759999999997,-0.042456,-1.5921,89.74,-468.3525,112.455
1462,225099,2.69254,-0.20105599999999998,-1.6738400000000002,84.4375,-482.1075,113.05
1463,225197,3.1158799999999998,-0.377224,-1.603568,74.2,-495.46,114.835
1464,225295,3.307176,0.23741199999999998,-1.42496,38.92,-511.28,129.0275
1465,225393,3.50262,0.366976,-1.099952,43.2075,-513.7125,160.79
1466,225492,3.848612,0.30378,-0.7329760000000001,68.65250999999999,-492.485,180.8975
1467,225590,4.009652,0.361852,-0.275476,60.2875,-464.2925,178.7275
1468,225688,4.28586,0.392108,0.388936,47.81,-422.485,153.3
1469,225786,4.307087999999999,0.410896,1.356396,35.3325,-371.7,110.285
1470,225884,4.009652,0.69418,2.1899,19.0225,-313.0575,60.795
1471,225982,3.776388,1.112884,2.723528,36.4,-237.0725,31.4125
1472,226080,4.40908,1.425448,2.948984,92.33001,-150.3075,37.975
1473,226178,4.564019999999999,0.662704,3.493104,149.8525,-72.7825,60.9175
1474,226276,3.8076199999999996,0.17568,3.599732,92.41751,-9.7475,59.6225
1475,226374,1.0723799999999999,-0.270108,2.344596,-50.96,55.2125,30.9225
1476,226472,-0.435296,-0.14688800000000002,-3.8371440000000003,-196.7525,91.35,12.6525
1477,226570,-1.194624,0.07637200000000001,-2.0937639999999997,-240.3275,109.8125,-23.135
1478,226668,-1.8995400000000002,3.074888,1.9183279999999998,-488.11,73.97251,-88.725
1479,226766,1.6574919999999997,3.355,-1.458632,-287.07,316.0325,-107.6425
1480,226864,2.5449200000000003,1.01138,-1.671644,36.6625,393.3125,-77.3325
1481,226962,1.548912,0.707112,-1.760948,-22.19,311.6575,-18.3925
1482,227060,1.688968,0.795928,-1.665544,11.375,300.1425,23.6425
1483,227158,1.222928,0.9620920000000001,-1.380796,17.045,255.4825,28.175
1484,227256,1.036756,-0.054167999999999994,-1.083116,69.7725,234.1325,4.2875
1485,227354,2.72304,-1.15046,-1.583804,97.405,220.3075,-8.645
1486,227452,1.115324,-0.9860040999999999,-0.8601,37.59,142.52,-4.5325
1487,227550,1.548668,0.503128,-1.308084,-85.83751,87.045,-1.365
1488,227649,0.39113200000000004,-0.152256,-0.6897880999999999,-20.055,64.9425,-23.7825
1489,227747,0.871568,0.156892,-1.21024,-42.595,43.6975,-30.73
1490,227845,0.532652,0.330864,-0.9906401,-56.595,28.525,-30.2925
1491,227943,0.681492,0.30378,-1.09556,-47.3025,11.13,-30.0825
1492,228041,0.5826720000000001,0.388936,-0.9767321,-34.86,-0.1225,-23.8
1493,228139,0.564616,0.3782,-0.9567241,-22.225,-6.2825,-16.6425
1494,228237,0.5124001,0.267912,-0.9067040000000001,-8.6275,-5.845,-9.555
1495,228335,0.514352,0.200324,-0.8845,-0.8400001,-1.435,-3.9375
1496,228433,0.49434399999999995,0.153232,-0.8605879999999999,2.835,1.6275,-0.6475
1497,228531,0.5104479999999999,0.125904,-0.839116,4.9175,4.7775,0.9275
1498,228629,0.513376,0.084912,-0.824232,5.985,6.09,0.98
1499,228727,0.50264,0.03416,-0.81618,4.935,5.565,-1.2425
1500,228825,0.513864,0.05124001,-0.8188641,1.085,4.655,-4.865
1501,228923,0.516792,0.10321199999999998,-0.824232,-2.7825,3.9725,-7.7875
1502,229021,0.5072760000000001,0.10809200000000001,-0.826428,-2.9925,4.0425,-9.205
1503,229119,0.51972,0.16811600000000002,-0.834724,-3.5525,4.62,-9.765
1504,229217,0.510936,0.167628,-0.8344801,-1.54,6.2825,-9.03
1505,229315,0.510692,0.149084,-0.8315520000000001,1.33,8.7325,-7.805
1506,229413,0.5070319999999999,0.155184,-0.8327720999999999,2.275,10.7625,-7.5075
1507,229511,0.511424,0.151524,-0.830576,3.7275,12.8975,-7.0875
1508,229609,0.516304,0.111996,-0.817156,5.6525,15.0325,-6.405
1509,229707,0.50142,0.08369201,-0.820084,5.6175,16.0475,-7.4725
1510,229805,0.512888,0.049532,-0.8091041,5.005,16.6775,-9.87
1511,229904,0.515572,0.14518,-0.81862,2.2575,17.36,-13.44
1512,230002,0.515328,0.07612801,-0.815204,4.06,18.6375,-15.26
1513,230100,0.514108,0.131272,-0.823256,3.535,21.28,-16.8
1514,230198,0.522404,0.1769,-0.8176439999999999,4.8125,24.1325,-18.55
1515,230296,0.518012,0.119072,-0.835456,11.3225,28.4375,-20.9825
1516,230394,0.546804,-0.10004,-0.769332,20.9825,36.26,-24.3075
1517,230492,0.5170359999999999,0.285724,-0.846924,-2.59,37.9575,-22.435
1518,230590,0.5499761,0.07076001,-0.7998321,13.65,50.155,-19.4425
1519,230688,0.549488,0.149084,-0.793976,8.54,55.4225,-18.585
1520,230786,0.577304,0.150792,-0.7893399999999999,10.4475,62.79,-16.87
1521,230884,0.55632,0.1647,-0.7832399999999999,8.785,69.72,-13.1075
1522,230982,0.548756,0.140544,-0.794952,9.17,80.2025,-9.3625
1523,231080,0.550708,0.16811600000000002,-0.796416,6.965,91.07,-5.04
1524,231178,0.5267960999999999,0.112728,-0.79422,6.545,105.77,-1.2775
1525,231276,0.564616,0.13298,-0.783972,-1.4175,121.1525,3.0275
1526,231374,0.56242,0.17446,-0.7771399999999999,-7.5075,138.5825,8.6625
1527,231472,0.55998,0.160308,-0.7747001,-12.565,155.505,16.7475
1528,231570,0.5565640000000001,0.081984,-0.792512,-16.52,177.6425,23.3975
1529,231668,0.519964,0.108824,-0.758108,-31.7975,199.2025,27.3
1530,231766,0.8044680999999999,0.09711201,-0.7378560000000001,-32.9875,224.0175,29.3475
1531,231864,0.48312,0.20447200000000001,-0.8957241,-46.06,245.735,39.69
1532,231962,0.786412,0.163724,-0.8388721,-26.3375,294.3675,50.1025
1533,232060,0.6007279999999999,0.09979600000000001,-0.9113399999999999,-33.88,338.5375,69.7025
1534,232158,0.281088,0.159576,-1.176324,-22.3475,390.32,87.045
1535,232257,0.271572,0.212036,-1.479128,-0.63,422.1525,92.78501
1536,232355,1.45058,0.026351999999999997,-1.003084,4.69,436.765,99.995
1537,232453,1.326384,-0.172508,-1.233908,19.18,535.535,88.46251
1538,232551,2.846016,0.31842,-1.609912,20.58,573.405,45.465
1539,232649,2.675704,0.5363121,-1.5542799999999999,77.4375,568.3475,19.04
1540,232747,3.3166919999999998,0.221308,-2.3563080000000003,108.2025,564.7075,-2.73
1541,232845,3.499448,-0.6034121,-2.892376,187.8625,572.95,-61.39
1542,232943,1.746552,0.089792,-3.349388,209.055,555.52,-92.435
1543,233041,1.592344,0.758108,-3.6060760000000003,229.7225,396.165,-126.525
1544,233139,3.325232,-0.30012,-3.5665480000000005,283.4475,244.685,-143.605
1545,233237,2.250412,-1.441064,-3.8249440000000003,275.6075,65.7125,-166.7925
1546,233335,0.640012,-1.283928,-1.99226,77.945,-153.37,-218.4
1547,233433,0.5267960999999999,-1.215852,-1.777296,12.5125,-191.31,-219.8525
1548,233531,0.12175599999999999,-0.735172,-1.2397639999999999,-70.4025,-231.945,-218.4525
1549,233629,-0.011712,-0.509472,-1.007232,-77.735,-235.62,-196.14
1550,233727,0.07710399999999999,-0.396012,-1.008208,-43.925,-228.55,-159.5125
1551,233825,0.31964000000000004,-0.284992,-1.0645719999999999,2.9575,-233.3625,-116.2175
1552,233923,0.5292359999999999,-0.46042799999999995,-1.062132,62.4225,-246.33,-69.4925
1553,234021,0.6231760999999999,-0.67832,-0.987224,95.4975,-270.165,-27.8075
1554,234119,0.6502600000000001,-0.7522521,-0.90402,91.5075,-299.18,3.675
1555,234217,0.7217521,-0.654652,-0.8693719999999999,66.85,-326.1825,28.2975
1556,234315,0.754448,-0.427976,-0.853512,41.79,-351.75,49.245
1557,234413,0.8178880999999999,-0.17202,-0.8971879999999999,33.1625,-372.2775,69.86
1558,234511,0.90402,0.030744,-0.9171961,43.4175,-388.3075,89.74
1559,234610,0.9894200000000001,0.09394001,-0.945744,66.5175,-402.36,105.7525
1560,234708,1.033096,0.12078,-0.942084,84.33249,-414.855,115.5525
1561,234806,1.099952,0.141764,-1.0025959999999998,91.4725,-424.5325,117.6875
1562,234904,1.2463520000000001,0.23424,-1.136064,90.9475,-432.39,113.9075
1563,235002,1.452532,0.26961999999999997,-1.270508,92.54001,-440.755,106.015
1564,235100,1.630408,0.28377199999999997,-1.461072,96.3725,-450.1525,98.2625
1565,235198,1.849764,0.332328,-1.633092,98.61251,-462.56,93.555
1566,235296,2.2018560000000003,0.264252,-1.7802240000000003,105.98,-473.3225,91.4375
1567,235394,2.584692,0.270596,-1.801696,108.745,-485.2225,91.945
1568,235492,2.895304,0.366732,-1.696288,106.785,-498.855,101.78
1569,235590,3.2983919999999998,0.30353600000000003,-1.516704,112.4725,-501.4275,119.9975
1570,235688,3.65024,0.400892,-1.20414,102.6375,-497.6825,142.87
1571,235786,3.957436,0.515328,-0.834724,84.07001,-486.71,162.2425
1572,235884,4.173864,0.48531599999999997,-0.21032800000000001,67.655,-461.615,163.31
1573,235982,4.319776,0.309636,0.71736,46.76,-419.125,137.375
1574,236080,4.243648,0.45725600000000005,1.7282520000000001,5.5825,-363.93,93.6425
1575,236178,4.015996,0.94916,2.502708,-17.4825,-294.07,55.5975
1576,236276,4.154344,1.4091,2.8626080000000003,29.68,-206.605,46.83
1577,236374,4.86414,1.368596,3.364028,112.63,-118.2125,75.35501
1578,236472,4.50546,0.207644,3.981836,166.845,-41.9475,105.3675
1579,236570,2.92556,-0.276208,3.302296,49.2275,29.6975,101.7275
1580,236668,-0.46945600000000004,0.624884,-2.268956,-110.5475,88.8825,64.365
1581,236767,-0.779092,-1.179252,-3.22812,-60.8125,173.005,15.96
1582,236865,-1.5164600000000001,2.08498,1.0467600000000001,-387.4325,101.115,-63.9975
1583,236963,0.099552,3.169804,-1.01748,-361.6725,232.9425,-86.59
1584,237061,3.6478,1.005524,-1.9102759999999999,44.73,443.7825,-97.14251
1585,237159,1.466684,0.692716,-1.363472,-60.865,312.4275,-70.385
1586,237257,2.1569599999999998,0.027816000000000004,-1.8544,23.2925,331.5725,-4.725
1587,237355,1.4713200000000002,0.8818159999999999,-1.447164,-24.22,279.125,11.34
1588,237453,2.363384,-0.003172,-1.9258919999999997,16.905,247.03,2.1875
1589,237551,1.507188,-1.227076,-0.7195560000000001,54.1625,198.0475,-28.21
1590,237649,1.191452,-0.08100801,-1.318576,-77.525,116.655,-19.4075
1591,237747,1.1468,0.284748,-1.1265479999999999,-53.97,110.25,-16.1175
1592,237845,0.6785640000000001,0.099552,-1.10166,-47.6,50.7325,-37.59
1593,237943,0.6290319999999999,0.11614400000000001,-1.066036,-47.4075,47.775,-35.98
1594,238041,0.696864,0.285236,-1.1394799999999998,-62.685,13.7025,-38.64
1595,238139,0.599508,0.392352,-0.9862479999999999,-49.6475,-2.9925,-35.42
1596,238237,0.555832,0.40528400000000003,-0.9501360999999999,-32.585,-12.39,-29.33
1597,238335,0.529968,0.327936,-0.9254921,-17.9025,-10.9375,-21.28
1598,238433,0.519476,0.30744,-0.9198799999999999,-8.085,-4.9175,-13.405
1599,238531,0.49532,0.25961599999999996,-0.8937719999999999,-0.9975,1.68,-5.95
1600,238629,0.48702399999999996,0.208864,-0.8718120999999999,6.16,8.2425,0.315
1601,238727,0.48922,0.11712,-0.8552200000000001,11.795,12.915,4.235
1602,238825,0.492392,0.01342,-0.8178880999999999,12.8625,14.9975,3.0975
1603,238923,0.5070319999999999,-0.004392,-0.8039801,7.245,14.4375,-1.54
1604,239021,0.508984,0.053191999999999996,-0.81862,0.91,12.355,-7.175
1605,239119,0.5267960999999999,0.081252,-0.815204,-3.115,11.6375,-11.305
1606,239217,0.510204,0.07222401,-0.8274040000000001,-4.6025,11.13,-14.105
1607,239315,0.524112,0.0854,-0.8220360000000001,-6.1775,10.955,-16.6075
1608,239413,0.526552,0.151524,-0.819108,-7.7875,10.955,-18.7425
1609,239512,0.5233800000000001,0.19032000000000002,-0.819108,-6.0375,12.005,-18.935
1610,239610,0.525088,0.163968,-0.8252079999999999,-2.9575,14.21,-17.4125
1611,239708,0.5119121,0.16592,-0.8296,-1.575,16.625,-15.855
1612,239806,0.529968,0.15274400000000002,-0.8132520999999999,-0.0875,19.32,-15.0325
1613,239904,0.499224,0.089792,-0.813008,0.63,21.6125,-15.05
1614,240002,0.51362,0.040992,-0.8081281,0.805,24.15,-17.045
1615,240100,0.49995600000000007,0.1281,-0.8132520999999999,-4.4975,26.6525,-21.6825
1616,240198,0.5084960000000001,0.167384,-0.8479,-3.395,30.1,-25.2525
1617,240296,0.524356,0.020496,-0.8015399999999999,6.3175,36.855,-29.82
1618,240394,0.54656,0.193492,-0.806176,-15.8025,36.505,-28.91
1619,240492,0.5170359999999999,0.107848,-0.808372,-0.9975,45.36,-30.2225
1620,240590,0.5692520000000001,0.202276,-0.79666,-10.9725,48.8425,-29.5225
1621,240688,0.558516,0.202276,-0.7998321,-6.3,56.9275,-26.88
1622,240786,0.57584,0.215696,-0.786412,-5.04,63.315,-23.5725
1623,240884,0.5795,0.184952,-0.7820199999999999,-2.9925,69.825,-20.2825
1624,240982,0.564372,0.200568,-0.7903161,-3.6225,75.1625,-16.8
1625,241080,0.575596,0.158112,-0.7700640999999999,-2.345,83.0725,-14.1575
1626,241178,0.5587601,0.17543599999999998,-0.7986121,-5.8975,91.805,-11.1125
1627,241276,0.5665680000000001,0.154696,-0.784704,-6.44,104.265,-9.03
1628,241374,0.564372,0.16958,-0.7812880999999999,-11.9525,116.4275,-5.5825
1629,241472,0.6070720000000001,0.199104,-0.731024,-15.96,129.15,-1.7325
1630,241571,0.610244,0.284992,-0.756644,-24.5875,143.675,5.7925
1631,241669,0.592188,0.20691199999999998,-0.714432,-23.695,162.1375,13.9475
1632,241767,0.7195560000000001,0.16348,-0.8215481,-37.975,180.775,23.5025
1633,241865,0.561688,0.14786400000000002,-0.782752,-45.4475,194.285,30.52
1634,241963,0.698816,0.144204,-0.8359440999999999,-54.5125,221.725,35.91
1635,242061,0.591212,0.182268,-0.8491200000000001,-54.5475,256.4975,41.475
1636,242159,0.542656,0.15201199999999998,-0.9572120999999999,-48.2125,280.49,48.72
1637,242257,0.255468,0.126636,-1.063108,-56.1925,294.3325,51.8
1638,242355,-0.41455600000000004,0.268644,-1.187548,-48.8775,296.5375,46.305
1639,242453,2.29604,0.184952,-0.7722600000000001,-48.72,360.71,48.5975
1640,242551,0.7019880000000001,-0.039284,-1.236836,-22.925,518.0,88.97
1641,242649,1.532808,0.043188,-1.8168240000000002,-8.12,568.05,58.6775
1642,242747,2.506368,0.8569280999999999,-1.5908799999999998,45.0275,572.1625,26.425
1643,242845,2.955572,0.21032800000000001,-1.5464719999999998,77.245,568.54,-15.12
1644,242943,3.7759,-0.080764,-2.608116,103.005,571.13,-46.0775
1645,243041,2.892864,0.233996,-3.382084,157.325,556.0275,-75.1275
1646,243139,1.0675,-0.030256,-2.6193400000000002,212.0825,518.0875,-124.145
1647,243237,2.582984,0.17202,-2.481236,276.045,444.9375,-125.9475
1648,243335,3.752964,-0.8786440999999999,-3.8905800000000004,283.85,202.02,-129.78
1649,243433,1.7733919999999999,-1.3825040000000002,-2.94752,194.6525,9.8525,-152.7925
1650,243531,0.7659161,-1.271728,-1.870016,36.19,-138.4075,-177.275
1651,243629,0.682956,-0.9394,-1.6399240000000002,-37.4325,-176.9425,-171.43
1652,243727,0.275476,-0.5353359999999999,-1.210728,-91.2275,-218.365,-158.27
1653,243825,0.115656,-0.34648,-1.025288,-79.275,-225.54,-129.535
1654,243924,0.050508,-0.259372,-0.9198799999999999,-36.995,-224.455,-93.9575
1655,244022,0.239608,-0.22277199999999997,-0.9633120999999999,15.26,-223.895,-56.665
1656,244120,0.510692,-0.35502,-0.999668,68.9325,-231.28,-18.865
1657,244218,0.652456,-0.542168,-0.9699,96.3725,-253.9075,13.3
1658,244316,0.661972,-0.6156119999999999,-0.931348,90.72001,-283.4475,37.8
1659,244414,0.732244,-0.5070319999999999,-0.9379360000000001,66.815,-311.4825,56.21
1660,244512,0.8569280999999999,-0.270108,-0.9772200999999999,46.1825,-340.06,72.73
1661,244610,0.9242720999999999,-0.049044,-0.964532,43.47,-368.06,90.42251
1662,244708,0.9042641,0.072712,-0.9052401,55.6325,-391.09,107.4675
1663,244806,0.8815719999999999,0.12932000000000002,-0.865956,74.5675,-405.2125,120.6975
1664,244904,0.949892,0.17202,-0.854244,89.425,-412.7725,129.185
1665,245002,1.047492,0.21228000000000002,-0.9203680000000001,98.63,-417.3925,131.425
1666,245100,1.164368,0.27816,-1.041636,101.2025,-422.5725,128.17
1667,245198,1.355664,0.335256,-1.214876,103.0575,-428.1025,121.1175
1668,245296,1.6082040000000002,0.29377600000000004,-1.3710360000000001,107.66,-436.4325,110.7575
1669,245394,1.826584,0.237168,-1.556476,106.89,-449.3475,101.85
1670,245492,2.1286560000000003,0.25498000000000004,-1.7097080000000002,99.365,-464.3275,98.0175
1671,245590,2.448784,0.41113999999999995,-1.749236,92.1025,-480.375,101.675
1672,245688,2.747684,0.44773999999999997,-1.682136,93.275,-494.13,113.085
1673,245786,3.1964,0.524112,-1.527684,96.5125,-499.7475,126.0525
1674,245884,3.515796,0.868884,-1.291248,83.65001,-501.1125,143.605
1675,245982,3.827872,1.146068,-0.8540000000000001,79.2925,-491.54,161.07
1676,246081,3.957436,0.996008,-0.262544,85.71500999999999,-461.965,165.83
1677,246179,4.181184,0.687104,0.522892,58.59,-415.8,149.0125
1678,246277,4.216076,0.223992,1.5013319999999999,-11.375,-364.4025,104.2475
1679,246375,4.116524,0.371612,2.37778,-108.0975,-317.6775,31.7275
1680,246473,4.0972480000000004,1.575508,2.781112,-168.3325,-262.3075,-31.5525
1681,246571,4.330024,2.41804,3.433324,-65.8,-177.8875,-32.9
1682,246669,4.1772800000000005,0.83204,4.12726,171.3075,-62.7025,26.81
1683,246767,3.701236,-0.5011760000000001,3.8876519999999997,195.44,40.8275,74.445
1684,246865,0.471164,0.382348,0.472628,-6.1425,103.74,57.295
1685,246963,-0.268644,-0.791292,-4.641124,-51.1175,168.0525,-1.05
1686,247061,-0.793976,-0.621712,-0.528748,-154.175,136.0625,-92.7325
1687,247159,-0.8827921000000001,1.485716,1.402024,-360.3775,135.765,-132.23
1688,247257,3.035116,1.621868,-2.162328,-139.755,375.83,-79.3975
1689,247355,2.370948,0.7171161,-1.59454,-15.8725,347.7425,-19.25
1690,247453,1.724836,1.239276,-1.765096,-86.555,271.25,1.0675
1691,247551,1.34322,0.99918,-1.545984,-9.94,262.08,12.6875
1692,247649,0.792024,0.7107720000000001,-1.14314,10.9025,224.56,5.25
1693,247747,1.9071040000000001,0.0854,-1.6918959999999998,60.48,221.97,-7.35
1694,247845,1.856596,-0.958432,-0.960628,75.6875,181.44,-33.18
1695,247943,1.647244,-0.35672800000000005,-1.22976,-20.09,100.0825,-23.87
1696,248041,0.5875520000000001,0.20984,-0.9242720999999999,-45.29,59.465,-19.4775
1697,248140,0.8532681000000001,0.022936,-1.036268,-51.275,35.035,-29.4875
1698,248238,0.6634359999999999,0.146644,-1.037244,-42.8925,20.475,-30.835
1699,248336,0.6168319999999999,0.213988,-1.056032,-55.0025,-0.28,-30.9225
1700,248434,0.5502199999999999,0.259372,-0.9745360000000001,-38.675,-7.9975,-28.945
1701,248532,0.5504641,0.341844,-0.9337880999999999,-31.2725,-14.665,-25.62
1702,248630,0.509716,0.319152,-0.9098761000000001,-19.4075,-13.23,-20.195
1703,248728,0.49727200000000005,0.22643200000000002,-0.8857200999999999,-8.855,-8.9775,-14.5075
1704,248826,0.48556000000000005,0.217404,-0.869128,-4.48,-4.7075,-10.6925
1705,248924,0.477508,0.173728,-0.859856,-1.0675,-0.7525,-7.5775
1706,249022,0.488976,0.13151600000000002,-0.8510719999999999,2.52,3.0975,-5.6
1707,249120,0.49312399999999995,0.10492,-0.8418,3.0275,4.69,-5.495
1708,249218,0.499468,0.057828,-0.818132,2.66,4.4275,-7.77
1709,249316,0.49580799999999997,0.021228,-0.8166680000000001,-0.4375,2.6075,-11.725
1710,249414,0.509472,0.033916,-0.8127641,-4.97,0.4025,-16.5375
1711,249512,0.5124001,0.09613601,-0.81374,-9.87,-1.82,-20.86
1712,249610,0.5206960999999999,0.116632,-0.8132520999999999,-10.4825,-2.625,-23.9225
1713,249708,0.515328,0.149328,-0.8256960999999999,-11.725,-2.6425,-24.64
1714,249806,0.500444,0.170312,-0.839116,-10.7625,-1.54,-24.255
1715,249904,0.5009319999999999,0.177876,-0.8298440999999999,-9.9575,0.175,-23.695
1716,250003,0.5002,0.186416,-0.834968,-8.365,2.4675,-22.155
1717,250101,0.503372,0.162748,-0.8308200000000001,-7.0525,4.97,-20.755
1718,250199,0.491904,0.142252,-0.8274040000000001,-6.58,7.0875,-19.53
1719,250297,0.486292,0.12322000000000001,-0.826428,-6.1775,9.24,-19.7925
