,T,ax,ay,az,gx,gy,gz
0,98841,0.530212,0.303048,-0.6109760000000001,19.565,-18.9875,-16.1175
1,98992,0.549732,0.301584,-0.699792,96.4425,-136.57,-29.715
2,99090,0.580476,0.315736,-0.7451760000000001,67.4975,-131.425,43.8725
3,99188,0.5838920999999999,0.31524800000000003,-0.745908,46.655,-111.4225,-14.77
4,99287,0.585112,0.316224,-0.74542,2.135,-6.2475,-3.85
5,99385,0.584868,0.316224,-0.746152,1.3125,-4.0775,-3.5525
6,99483,0.5838920999999999,0.315736,-0.74542,1.365,-4.13,-3.57
7,99581,0.586576,0.316956,-0.746152,1.4175,-4.1125,-3.6225
8,99679,0.58682,0.315736,-0.74664,1.4525,-4.1125,-3.6225
9,99777,0.585356,0.316224,-0.74542,1.4875,-4.165,-3.6225
10,99875,0.5856,0.315736,-0.7468840999999999,1.435,-4.235,-3.6225
11,99973,0.585112,0.314272,-0.7439560000000001,1.61,-4.3575,-3.5175
12,100071,0.584868,0.315004,-0.747128,1.5925,-4.48,-3.5
13,100169,0.585356,0.31524800000000003,-0.7468840999999999,1.5925,-4.4975,-3.5525
14,100267,0.586088,0.313052,-0.748592,1.68,-4.62,-3.5
15,100365,0.58682,0.31451599999999996,-0.7468840999999999,1.7325,-4.515,-3.57
16,100464,0.58682,0.313784,-0.7478600000000001,1.6975,-4.515,-3.465
17,100562,0.585112,0.316712,-0.7468840999999999,1.7675,-4.5325,-3.43
18,100660,0.5856,0.313296,-0.748592,1.8725,-4.655,-3.4475
19,100758,0.5858439999999999,0.315492,-0.7473721,1.855,-4.585,-3.4475
20,100856,0.5843801,0.31158800000000003,-0.7476161,1.7325,-4.4975,-3.5175
21,100954,0.58804,0.313052,-0.7476161,1.6975,-4.375,-3.5
22,101052,0.585112,0.315004,-0.746396,1.6975,-4.3925,-3.6925
23,101150,0.583648,0.31476,-0.745908,1.645,-4.34,-3.745
24,101248,0.5826720000000001,0.31402800000000003,-0.74542,1.6275,-4.3575,-3.71
25,101346,0.583404,0.313052,-0.748104,1.645,-4.2875,-3.6575
26,101445,0.582916,0.313784,-0.748836,1.6275,-4.27,-3.6225
27,101543,0.5846241,0.30866,-0.7473721,1.6275,-4.2175,-3.5875
28,101641,0.58682,0.31232,-0.7476161,1.6275,-4.2875,-3.5525
29,101739,0.584136,0.315004,-0.744444,1.435,-4.1475,-3.745
30,101837,0.5858439999999999,0.312076,-0.746396,1.5225,-4.2,-3.7975
31,101935,0.588284,0.31354,-0.7476161,1.3825,-4.2875,-3.85
32,102033,0.586332,0.314272,-0.745908,1.365,-4.3925,-3.955
33,102131,0.58682,0.312808,-0.74664,1.3825,-4.445,-4.0075
34,102229,0.5856,0.31402800000000003,-0.7451760000000001,1.3125,-4.41,-3.9725
35,102327,0.586088,0.31402800000000003,-0.744444,1.4,-4.585,-3.9375
36,102426,0.585356,0.31232,-0.744444,1.4,-4.655,-3.9725
37,102524,0.5873079999999999,0.313052,-0.7473721,1.435,-4.6375,-3.9725
38,102622,0.585112,0.31354,-0.74664,1.47,-4.6725,-4.0425
39,102720,0.5856,0.31232,-0.7468840999999999,1.4525,-4.5675,-4.1125
40,102818,0.5856,0.31354,-0.7468840999999999,1.4,-4.55,-4.235
41,102916,0.585112,0.31354,-0.7468840999999999,1.295,-4.62,-4.2
42,103014,0.5858439999999999,0.31158800000000003,-0.748592,1.225,-4.445,-4.375
43,103112,0.5838920999999999,0.31524800000000003,-0.7451760000000001,1.1025,-4.3575,-4.515
44,103210,0.5856,0.315492,-0.745908,1.085,-4.445,-4.4975
45,103309,0.586332,0.313052,-0.74664,1.085,-4.4275,-4.5325
46,103407,0.584868,0.31354,-0.74542,1.1025,-4.69,-4.55
47,103505,0.5873079999999999,0.311832,-0.7449321,1.2775,-4.725,-4.515
48,103603,0.582916,0.315492,-0.745664,1.365,-4.725,-4.515
49,103701,0.5843801,0.31646799999999997,-0.745908,1.435,-4.7775,-4.3925
50,103799,0.585356,0.317444,-0.748836,1.3475,-4.9,-4.3925
51,103897,0.5846241,0.31524800000000003,-0.7478600000000001,1.365,-4.9525,-4.3575
52,103995,0.5846241,0.31451599999999996,-0.7483479999999999,1.4175,-4.97,-4.2875
53,104093,0.5843801,0.313784,-0.748592,1.4,-4.8825,-4.3925
54,104191,0.584136,0.31524800000000003,-0.747128,1.4,-4.7075,-4.445
55,104290,0.583648,0.318176,-0.745908,1.3475,-4.6025,-4.4975
56,104388,0.583648,0.316956,-0.7473721,1.4,-4.7425,-4.48
57,104486,0.581696,0.316712,-0.7451760000000001,1.365,-4.7075,-4.41
58,104584,0.580964,0.316224,-0.746396,1.4,-4.6725,-4.34
59,104682,0.580964,0.31646799999999997,-0.746396,1.435,-4.585,-4.1825
60,104780,0.582428,0.317688,-0.7451760000000001,1.47,-4.585,-4.06
61,104878,0.581696,0.315736,-0.744688,1.54,-4.48,-3.9725
62,104976,0.581208,0.315492,-0.746396,1.5925,-4.4625,-3.7975
63,105074,0.5843801,0.31476,-0.74664,1.6275,-4.2525,-3.78
64,105173,0.5826720000000001,0.316224,-0.7476161,1.5575,-4.305,-3.7625
65,105271,0.58682,0.31646799999999997,-0.7442,1.4525,-4.2525,-3.6575
66,105369,0.5843801,0.314272,-0.744688,1.505,-4.27,-3.6225
67,105467,0.582184,0.31524800000000003,-0.744444,1.575,-4.34,-3.6575
68,105565,0.582184,0.317444,-0.7451760000000001,1.5925,-4.34,-3.6225
69,105663,0.5846241,0.315736,-0.7483479999999999,1.6275,-4.2875,-3.5525
70,105761,0.582184,0.316712,-0.747128,1.5575,-4.305,-3.5875
71,105859,0.584136,0.31402800000000003,-0.746396,1.61,-4.2,-3.4475
72,105957,0.5843801,0.316224,-0.7449321,1.54,-4.1475,-3.5
73,106055,0.584136,0.315736,-0.7476161,1.5925,-4.2525,-3.5175
74,106153,0.584868,0.316712,-0.746396,1.5225,-4.27,-3.5
75,106252,0.5858439999999999,0.315492,-0.748592,1.5925,-4.34,-3.5
76,106350,0.582916,0.31451599999999996,-0.746396,1.645,-4.2875,-3.535
77,106448,0.58316,0.318664,-0.7468840999999999,1.68,-4.41,-3.5
78,106546,0.5858439999999999,0.3172,-0.748104,1.68,-4.48,-3.5
79,106644,0.584136,0.313784,-0.745664,1.6625,-4.375,-3.36
80,106742,0.5843801,0.316224,-0.745908,1.6275,-4.445,-3.43
81,106840,0.583648,0.316224,-0.746152,1.575,-4.2525,-3.4125
82,106938,0.585356,0.313784,-0.7442,1.61,-4.2525,-3.4825
83,107036,0.58316,0.31451599999999996,-0.744444,1.4875,-4.27,-3.5175
84,107134,0.5843801,0.312808,-0.741272,1.5575,-4.2175,-3.57
85,107232,0.582916,0.315004,-0.746396,1.3475,-4.2,-3.5525
86,107331,0.583648,0.314272,-0.7476161,1.3475,-4.165,-3.57
87,107429,0.583648,0.31524800000000003,-0.7473721,1.2775,-4.1125,-3.535
88,107527,0.584868,0.31646799999999997,-0.748104,1.33,-4.095,-3.57
89,107625,0.5838920999999999,0.31476,-0.7483479999999999,1.3125,-3.9725,-3.57
90,107723,0.5843801,0.313784,-0.7476161,1.2425,-4.0425,-3.57
91,107821,0.58316,0.31354,-0.743224,1.33,-4.0425,-3.535
92,107919,0.58682,0.314272,-0.74298,1.3125,-4.1125,-3.535
93,108017,0.586576,0.313784,-0.74298,1.2425,-4.0075,-3.5525
94,108116,0.583404,0.317688,-0.74542,1.3125,-4.025,-3.5525
95,108214,0.585112,0.314272,-0.7473721,1.3475,-3.9375,-3.5
96,108312,0.5843801,0.314272,-0.743712,1.2775,-4.0775,-3.5875
97,108410,0.584136,0.314272,-0.7476161,1.2075,-4.095,-3.6225
98,108508,0.5838920999999999,0.31524800000000003,-0.7476161,1.155,-4.1125,-3.6925
99,108606,0.586088,0.313784,-0.743468,1.1375,-4.1475,-3.6225
100,108704,0.585112,0.314272,-0.7427361,1.26,-4.13,-3.465
101,108802,0.5858439999999999,0.31354,-0.7422481,1.19,-4.1475,-3.4475
102,108900,0.583404,0.31524800000000003,-0.743712,1.19,-4.235,-3.4125
103,108998,0.584136,0.313052,-0.743712,1.225,-4.1825,-3.4825
104,109097,0.582916,0.31598000000000004,-0.7473721,1.365,-3.99,-3.4475
105,109195,0.584136,0.31476,-0.7439560000000001,1.365,-4.0075,-3.43
106,109293,0.582916,0.314272,-0.7449321,1.4,-4.06,-3.4125
107,109391,0.587064,0.31598000000000004,-0.743468,1.3125,-3.9375,-3.5175
108,109489,0.588284,0.315736,-0.7427361,1.2425,-4.0075,-3.5175
109,109587,0.585356,0.31354,-0.742492,1.295,-4.06,-3.5
110,109685,0.5873079999999999,0.317444,-0.744688,1.4525,-4.2175,-3.535
111,109783,0.586088,0.31451599999999996,-0.742492,1.435,-4.305,-3.5
112,109881,0.586332,0.316956,-0.746152,1.2775,-4.2525,-3.535
113,109980,0.5846241,0.31476,-0.7451760000000001,1.4,-4.375,-3.465
114,110078,0.58682,0.31402800000000003,-0.743468,1.4525,-4.305,-3.57
115,110176,0.584868,0.315736,-0.743468,1.4525,-4.3575,-3.6575
116,110274,0.589016,0.315492,-0.7427361,1.4,-4.4275,-3.6225
117,110372,0.584136,0.316224,-0.7442,1.6275,-4.445,-3.7275
118,110470,0.5856,0.317444,-0.7442,1.6975,-4.41,-3.6225
119,110568,0.5846241,0.315736,-0.745908,1.6625,-4.5325,-3.57
120,110666,0.5843801,0.31524800000000003,-0.7442,1.61,-4.4975,-3.4825
121,110764,0.5858439999999999,0.314272,-0.741272,1.6975,-4.4975,-3.535
122,110863,0.5875520000000001,0.316224,-0.743468,1.7325,-4.6025,-3.465
123,110961,0.585356,0.31232,-0.742004,1.855,-4.585,-3.465
124,111059,0.586332,0.31598000000000004,-0.745908,1.645,-4.5675,-3.5175
125,111157,0.586576,0.313296,-0.743468,1.75,-4.4975,-3.5525
126,111255,0.5858439999999999,0.312076,-0.744444,1.82,-4.55,-3.535
127,111353,0.58682,0.311344,-0.7449321,1.855,-4.6375,-3.535
128,111451,0.586088,0.31232,-0.7422481,1.785,-4.7075,-3.64
129,111549,0.5846241,0.315004,-0.7442,1.785,-4.655,-3.57
130,111647,0.5875520000000001,0.313296,-0.745664,1.8025,-4.7075,-3.6575
131,111745,0.586088,0.31524800000000003,-0.743468,1.8025,-4.7425,-3.64
132,111844,0.584136,0.31158800000000003,-0.7417600000000001,1.785,-4.6725,-3.5525
133,111942,0.5838920999999999,0.313784,-0.743224,1.89,-4.7425,-3.535
134,112040,0.584868,0.315004,-0.743712,1.82,-4.865,-3.64
135,112138,0.586332,0.31402800000000003,-0.742492,1.7675,-4.83,-3.6225
136,112236,0.586576,0.31402800000000003,-0.742004,1.8725,-4.76,-3.5175
137,112334,0.5838920999999999,0.314272,-0.744688,1.82,-4.7425,-3.5875
138,112432,0.58316,0.31158800000000003,-0.74298,1.7675,-4.76,-3.5525
139,112530,0.5846241,0.313296,-0.74298,1.7325,-4.585,-3.5875
140,112628,0.585356,0.312564,-0.7451760000000001,1.68,-4.55,-3.64
141,112727,0.5838920999999999,0.315004,-0.744688,1.54,-4.48,-3.7625
142,112825,0.5846241,0.313784,-0.744444,1.54,-4.3575,-3.7625
143,112923,0.583404,0.31476,-0.74542,1.47,-4.34,-3.7975
144,113021,0.5856,0.312076,-0.7439560000000001,1.47,-4.34,-3.7975
145,113119,0.5846241,0.313784,-0.743224,1.4,-4.3575,-3.92
146,113217,0.58316,0.314272,-0.7449321,1.365,-4.34,-3.8675
147,113315,0.583404,0.314272,-0.7439560000000001,1.4875,-4.3225,-3.8325
148,113413,0.5843801,0.310856,-0.74298,1.47,-4.2875,-3.9025
149,113511,0.586576,0.31451599999999996,-0.7417600000000001,1.365,-4.2875,-3.815
150,113610,0.586088,0.31354,-0.74298,1.3825,-4.235,-3.7975
151,113708,0.584136,0.31232,-0.741028,1.435,-4.2,-3.745
152,113806,0.583404,0.313052,-0.742492,1.4175,-4.34,-3.8675
153,113904,0.584868,0.316956,-0.74298,1.54,-4.2525,-3.7275
154,114002,0.586088,0.31232,-0.743712,1.3825,-4.27,-3.815
155,114100,0.582916,0.315736,-0.7442,1.365,-4.2175,-3.745
156,114198,0.584868,0.313296,-0.74298,1.3825,-4.13,-3.745
157,114296,0.583648,0.31402800000000003,-0.744688,1.3825,-4.0425,-3.7625
158,114394,0.585356,0.31476,-0.743224,1.3125,-4.0075,-3.78
159,114493,0.5856,0.312564,-0.7422481,1.2775,-4.1125,-3.815
160,114591,0.587064,0.314272,-0.741028,1.3125,-4.2,-3.7275
161,114689,0.583648,0.31476,-0.7427361,1.3825,-4.235,-3.71
162,114787,0.583648,0.312076,-0.7415161,1.4,-4.1125,-3.5875
163,114885,0.5846241,0.315004,-0.74298,1.3475,-4.27,-3.5875
164,114983,0.586088,0.31402800000000003,-0.74298,1.365,-4.2175,-3.5
165,115081,0.587064,0.311832,-0.7442,1.365,-4.13,-3.605
166,115179,0.5875520000000001,0.313052,-0.74542,1.3475,-4.1825,-3.745
167,115277,0.586088,0.313784,-0.74298,1.33,-4.1475,-3.6575
168,115376,0.5843801,0.315004,-0.746396,1.33,-4.305,-3.605
169,115474,0.585356,0.31476,-0.7427361,1.33,-4.27,-3.6225
170,115572,0.58804,0.312808,-0.744444,1.3125,-4.2175,-3.6925
171,115670,0.587064,0.314272,-0.74298,1.2775,-4.27,-3.7625
172,115768,0.588284,0.31598000000000004,-0.7415161,1.3475,-4.2875,-3.7625
173,115866,0.587796,0.315736,-0.742004,1.3475,-4.3925,-3.745
174,115964,0.587064,0.31524800000000003,-0.7427361,1.4175,-4.4275,-3.605
175,116062,0.587064,0.313052,-0.743224,1.435,-4.3225,-3.605
176,116160,0.5843801,0.31354,-0.7427361,1.435,-4.34,-3.605
177,116258,0.586088,0.31232,-0.743224,1.5225,-4.305,-3.605
178,116357,0.5846241,0.312564,-0.743224,1.4525,-4.375,-3.745
179,116455,0.586576,0.3111,-0.7427361,1.435,-4.2175,-3.7625
180,116553,0.588284,0.31598000000000004,-0.742492,1.435,-4.2175,-3.7625
181,116651,0.589992,0.314272,-0.7427361,1.4175,-4.27,-3.815
182,116749,0.586576,0.312564,-0.742004,1.4,-4.2875,-3.9025
183,116847,0.5875520000000001,0.314272,-0.741028,1.47,-4.2875,-3.9025
184,116945,0.586576,0.31476,-0.74054,1.4175,-4.3925,-3.9375
185,117043,0.5887720000000001,0.315492,-0.740296,1.54,-4.445,-3.955
186,117141,0.588284,0.31451599999999996,-0.7417600000000001,1.61,-4.515,-3.92
187,117240,0.58682,0.315492,-0.74054,1.645,-4.48,-3.85
188,117338,0.5856,0.315492,-0.74298,1.6975,-4.6375,-3.8675
189,117436,0.5843801,0.31451599999999996,-0.742492,1.6975,-4.62,-3.9025
190,117534,0.587064,0.31402800000000003,-0.7427361,1.75,-4.69,-3.8325
191,117632,0.584868,0.313296,-0.7439560000000001,1.75,-4.7075,-3.85
192,117730,0.584868,0.314272,-0.743224,1.7325,-4.6725,-3.8675
193,117828,0.582916,0.313296,-0.74298,1.645,-4.7075,-3.955
194,117926,0.5856,0.31402800000000003,-0.742004,1.645,-4.76,-3.92
195,118024,0.586576,0.314272,-0.741272,1.6975,-4.725,-3.9725
196,118122,0.5875520000000001,0.313784,-0.742492,1.68,-4.655,-3.955
197,118221,0.5873079999999999,0.313296,-0.7422481,1.7325,-4.7425,-3.885
198,118319,0.586088,0.313296,-0.743712,1.7675,-4.7075,-3.92
199,118417,0.584868,0.31158800000000003,-0.7415161,1.6975,-4.76,-4.0425
200,118515,0.586576,0.31402800000000003,-0.743468,1.68,-4.69,-4.025
201,118613,0.584868,0.31354,-0.7417600000000001,1.7325,-4.8125,-4.06
202,118711,0.584868,0.313052,-0.7407841,1.9075,-4.795,-4.025
203,118809,0.5846241,0.315004,-0.7442,1.8025,-4.8125,-3.955
204,118907,0.5843801,0.315736,-0.746396,1.8725,-4.865,-3.99
205,119005,0.584868,0.315004,-0.7427361,1.89,-4.9525,-3.92
206,119103,0.586088,0.312564,-0.743712,1.9075,-4.9525,-3.885
207,119202,0.587796,0.315736,-0.7417600000000001,1.9075,-4.9875,-3.85
208,119300,0.586088,0.31402800000000003,-0.743224,1.9775,-4.935,-3.78
209,119398,0.587064,0.313052,-0.743712,2.03,-5.0225,-3.7975
210,119496,0.584868,0.31451599999999996,-0.7417600000000001,1.995,-5.0225,-3.815
211,119594,0.585356,0.31451599999999996,-0.743224,2.0825,-5.0225,-3.8675
212,119692,0.582428,0.315736,-0.743712,2.065,-5.1275,-3.7975
213,119790,0.583404,0.312808,-0.742492,1.9775,-5.005,-3.815
214,119888,0.5846241,0.315736,-0.7439560000000001,1.995,-4.9875,-3.815
215,119986,0.583648,0.314272,-0.7439560000000001,1.9075,-4.9875,-3.7975
216,120084,0.5846241,0.313784,-0.7439560000000001,1.995,-4.935,-3.7275
217,120182,0.582428,0.316956,-0.743224,1.995,-5.0225,-3.6925
218,120281,0.5814520000000001,0.313296,-0.7476161,1.995,-5.0225,-3.675
219,120379,0.5858439999999999,0.312564,-0.746152,1.8725,-4.83,-3.6575
220,120477,0.5846241,0.311832,-0.74542,1.75,-4.7075,-3.71
221,120575,0.584136,0.310856,-0.7439560000000001,1.785,-4.585,-3.6925
222,120673,0.585356,0.3111,-0.744444,1.7325,-4.5325,-3.745
223,120771,0.582916,0.31476,-0.7449321,1.6975,-4.585,-3.85
224,120869,0.5843801,0.31402800000000003,-0.743224,1.68,-4.5675,-3.8325
225,120967,0.58316,0.31354,-0.745664,1.6975,-4.6025,-3.8325
226,121065,0.5826720000000001,0.315004,-0.74542,1.645,-4.62,-3.9025
227,121163,0.581208,0.312564,-0.74664,1.6275,-4.6025,-3.85
228,121262,0.584868,0.313052,-0.74298,1.645,-4.655,-3.78
229,121360,0.583404,0.313296,-0.745908,1.6275,-4.725,-3.885
230,121458,0.585356,0.31451599999999996,-0.74664,1.61,-4.62,-3.745
231,121556,0.5858439999999999,0.313784,-0.7468840999999999,1.5225,-4.515,-3.7975
232,121654,0.58194,0.31402800000000003,-0.7449321,1.575,-4.55,-3.815
233,121752,0.582916,0.314272,-0.743712,1.54,-4.515,-3.7625
234,121850,0.5838920999999999,0.312076,-0.742492,1.5925,-4.3925,-3.6925
235,121948,0.584136,0.31402800000000003,-0.74298,1.47,-4.3575,-3.6925
236,122046,0.5826720000000001,0.313296,-0.746152,1.4175,-4.3575,-3.7625
237,122145,0.583648,0.315736,-0.74542,1.4875,-4.305,-3.64
238,122243,0.58316,0.31402800000000003,-0.744444,1.4525,-4.3575,-3.6575
239,122341,0.583404,0.31354,-0.74542,1.5225,-4.34,-3.6575
240,122439,0.584136,0.312808,-0.7439560000000001,1.505,-4.2875,-3.64
241,122537,0.582428,0.313052,-0.744688,1.4175,-4.2875,-3.605
242,122635,0.583404,0.31402800000000003,-0.7451760000000001,1.4175,-4.1475,-3.57
243,122733,0.584136,0.311832,-0.745664,1.33,-4.1825,-3.605
244,122831,0.5838920999999999,0.315004,-0.744688,1.47,-4.1825,-3.6225
245,122929,0.58316,0.31476,-0.745664,1.3825,-4.1475,-3.605
246,123028,0.584136,0.316712,-0.7468840999999999,1.3125,-4.1475,-3.57
247,123126,0.584136,0.312076,-0.74298,1.3475,-4.1475,-3.5
248,123224,0.584136,0.316224,-0.743468,1.295,-4.165,-3.535
249,123322,0.5856,0.313052,-0.742004,1.2775,-4.1475,-3.5175
250,123420,0.5846241,0.312564,-0.7427361,1.3475,-4.1825,-3.465
251,123518,0.583404,0.315736,-0.7451760000000001,1.4175,-4.2525,-3.5525
252,123616,0.585112,0.31354,-0.7427361,1.3825,-4.34,-3.3775
253,123714,0.584868,0.3111,-0.7449321,1.47,-4.2875,-3.465
254,123812,0.5846241,0.31451599999999996,-0.7451760000000001,1.4875,-4.34,-3.4125
255,123911,0.5846241,0.312564,-0.7427361,1.435,-4.3225,-3.43
256,124009,0.582184,0.31232,-0.7439560000000001,1.4525,-4.3925,-3.4475
257,124107,0.5838920999999999,0.31476,-0.744444,1.4175,-4.3575,-3.4125
258,124205,0.587064,0.310612,-0.74542,1.3825,-4.235,-3.5
259,124303,0.5856,0.311344,-0.7442,1.3825,-4.27,-3.5875
260,124401,0.585112,0.313784,-0.7439560000000001,1.3475,-4.1475,-3.535
261,124499,0.5843801,0.314272,-0.7427361,1.4,-4.165,-3.5
262,124597,0.585356,0.313052,-0.743468,1.47,-4.1825,-3.4475
263,124695,0.585356,0.312076,-0.7439560000000001,1.54,-4.1825,-3.5
264,124794,0.58804,0.312076,-0.74542,1.645,-4.2175,-3.5175
265,124892,0.587796,0.311832,-0.74542,1.54,-4.3225,-3.64
266,124990,0.588284,0.31158800000000003,-0.7442,1.505,-4.41,-3.675
267,125088,0.5826720000000001,0.31232,-0.7442,1.505,-4.375,-3.815
268,125186,0.585356,0.310856,-0.74298,1.5575,-4.4625,-3.85
269,125284,0.5856,0.312076,-0.7451760000000001,1.5225,-4.445,-3.9375
270,125382,0.584136,0.314272,-0.7439560000000001,1.505,-4.4275,-3.92
271,125480,0.5843801,0.313296,-0.7442,1.5925,-4.375,-3.9375
272,125578,0.586332,0.312808,-0.743224,1.4875,-4.445,-4.0075
273,125677,0.5875520000000001,0.31012399999999996,-0.743224,1.575,-4.445,-4.095
274,125775,0.585356,0.312808,-0.743712,1.54,-4.445,-4.2
275,125873,0.584868,0.312076,-0.7427361,1.5925,-4.3925,-4.2525
276,125971,0.586332,0.310612,-0.744444,1.68,-4.4275,-4.1475
277,126069,0.588284,0.3111,-0.743712,1.54,-4.445,-4.375
278,126167,0.5873079999999999,0.31158800000000003,-0.746396,1.68,-4.515,-4.55
279,126265,0.588284,0.312808,-0.74664,1.61,-4.6375,-4.6725
280,126363,0.585356,0.31451599999999996,-0.7442,1.645,-4.8125,-4.725
281,126461,0.58194,0.31646799999999997,-0.744688,1.715,-4.9,-4.6375
282,126560,0.583648,0.316712,-0.7451760000000001,1.7325,-4.9,-4.41
283,126658,0.5814520000000001,0.313052,-0.7449321,1.8375,-4.9,-4.2
284,126756,0.582184,0.31524800000000003,-0.746396,1.89,-4.9875,-4.0775
285,126854,0.58316,0.31451599999999996,-0.743712,1.89,-4.9175,-3.8325
286,126952,0.583404,0.31232,-0.745664,1.855,-4.9525,-3.745
287,127050,0.57828,0.316956,-0.74542,1.82,-4.935,-3.8325
288,127148,0.5838920999999999,0.313052,-0.744444,1.645,-4.6725,-3.7975
289,127246,0.58316,0.312808,-0.7449321,1.61,-4.6375,-3.7275
290,127345,0.583648,0.31476,-0.74542,1.47,-4.515,-3.745
291,127443,0.582184,0.31476,-0.7451760000000001,1.435,-4.3925,-3.71
292,127541,0.581696,0.314272,-0.74664,1.365,-4.4275,-3.78
293,127639,0.584868,0.313296,-0.7451760000000001,1.3825,-4.165,-3.6225
294,127737,0.58316,0.31524800000000003,-0.746396,1.4875,-4.235,-3.5525
295,127835,0.5838920999999999,0.31524800000000003,-0.7451760000000001,1.5225,-4.34,-3.5175
296,127933,0.585112,0.31354,-0.744688,1.5225,-4.2875,-3.4125
297,128031,0.58316,0.313052,-0.74298,1.5225,-4.41,-3.3775
298,128129,0.584868,0.312808,-0.743712,1.645,-4.4625,-3.3775
299,128228,0.582428,0.31232,-0.745908,1.6625,-4.4975,-3.3425
300,128326,0.5846241,0.31232,-0.744688,1.6275,-4.5675,-3.325
301,128424,0.582916,0.312076,-0.744444,1.61,-4.585,-3.3075
302,128522,0.582916,0.312564,-0.743224,1.61,-4.48,-3.3425
303,128620,0.5843801,0.312808,-0.7442,1.645,-4.515,-3.3775
304,128718,0.585112,0.312564,-0.745908,1.68,-4.4275,-3.465
305,128816,0.585112,0.313296,-0.744444,1.75,-4.515,-3.605
306,128914,0.5846241,0.315004,-0.7439560000000001,1.7325,-4.5675,-3.5175
307,129012,0.586576,0.311832,-0.745908,1.6625,-4.515,-3.64
308,129110,0.585356,0.312076,-0.7449321,1.68,-4.55,-3.7275
309,129209,0.587064,0.311832,-0.746152,1.7675,-4.515,-3.71
310,129307,0.5856,0.311832,-0.7449321,1.6975,-4.5325,-3.6925
311,129405,0.584868,0.312564,-0.7422481,1.68,-4.5675,-3.64
312,129503,0.584136,0.312564,-0.743468,1.715,-4.5675,-3.6925
313,129601,0.584868,0.31451599999999996,-0.745908,1.785,-4.62,-3.6225
314,129699,0.582916,0.30988000000000004,-0.744688,1.82,-4.7075,-3.675
315,129797,0.582428,0.313296,-0.743224,1.715,-4.7075,-3.6925
316,129895,0.583404,0.312564,-0.7451760000000001,1.645,-4.6725,-3.7975
317,129993,0.583648,0.311344,-0.74298,1.6275,-4.6725,-3.9025
318,130092,0.5858439999999999,0.31158800000000003,-0.745908,1.505,-4.5325,-4.06
319,130190,0.585356,0.312564,-0.745664,1.4525,-4.4275,-4.2525
320,130288,0.585356,0.312808,-0.7427361,1.3825,-4.4625,-4.41
321,130386,0.584868,0.311344,-0.7422481,1.54,-4.5675,-4.4975
322,130484,0.5875520000000001,0.310612,-0.7449321,1.5925,-4.8825,-4.6375
323,130582,0.586576,0.31354,-0.7427361,1.6975,-5.145,-4.83
324,130680,0.5843801,0.316224,-0.742492,2.135,-5.0225,-4.9525
325,130778,0.585112,0.312076,-0.7483479999999999,2.4325,-5.11,-4.9175
326,130876,0.582184,0.31451599999999996,-0.7451760000000001,2.1525,-5.5825,-4.865
327,130975,0.5795,0.308904,-0.7478600000000001,2.3625,-5.6,-4.8475
328,131073,0.579012,0.315492,-0.7476161,2.1875,-5.74,-4.62
329,131171,0.5797441,0.31232,-0.7451760000000001,2.275,-5.635,-4.3225
330,131269,0.5797441,0.314272,-0.7478600000000001,2.135,-5.6175,-4.2
331,131367,0.581696,0.313784,-0.748592,2.1175,-5.565,-3.955
332,131465,0.583404,0.310856,-0.7468840999999999,2.24,-5.565,-3.8675
333,131563,0.5826720000000001,0.310856,-0.7476161,2.24,-5.565,-3.9025
334,131661,0.582428,0.312564,-0.7473721,2.0125,-5.53,-3.885
335,131759,0.581696,0.3111,-0.7468840999999999,2.065,-5.4425,-3.78
336,131858,0.58072,0.311832,-0.74908,2.065,-5.32,-3.745
337,131956,0.5795,0.312564,-0.748104,2.03,-5.25,-3.6225
338,132054,0.5797441,0.31232,-0.749324,1.995,-5.0925,-3.4825
339,132152,0.572912,0.31646799999999997,-0.7503,1.925,-5.0225,-3.3775
340,132250,0.58194,0.31158800000000003,-0.746152,1.82,-4.795,-2.9925
341,132348,0.580476,0.310612,-0.749568,1.8725,-4.6725,-2.9225
342,132446,0.57828,0.310856,-0.7510321,1.75,-4.5675,-3.01
343,132544,0.579256,0.31158800000000003,-0.750544,1.6975,-4.41,-2.94
344,132642,0.57828,0.310612,-0.750788,1.6975,-4.2875,-2.8175
345,132741,0.581208,0.311344,-0.749568,1.575,-4.165,-2.8
346,132839,0.582184,0.313296,-0.750788,1.435,-4.025,-2.625
347,132937,0.5856,0.314272,-0.747128,1.61,-4.025,-2.59
348,133035,0.585112,0.314272,-0.745908,1.7325,-4.235,-2.4675
349,133133,0.5856,0.313052,-0.745908,1.8375,-4.41,-2.24
350,133231,0.579256,0.309392,-0.749812,1.7325,-4.5675,-2.205
351,133329,0.582184,0.309148,-0.749568,1.6275,-4.48,-2.1175
352,133427,0.5785241,0.308172,-0.746152,1.645,-4.2875,-1.995
353,133526,0.580964,0.309392,-0.749812,1.505,-4.0775,-2.0475
354,133624,0.58194,0.309392,-0.74542,1.365,-3.85,-2.0125
355,133722,0.5838920999999999,0.306952,-0.749324,1.155,-3.57,-2.0825
356,133820,0.5838920999999999,0.309392,-0.746152,1.2425,-3.43,-2.275
357,133918,0.583648,0.30792800000000004,-0.747128,1.225,-3.255,-2.555
358,134016,0.58316,0.30841599999999997,-0.7468840999999999,1.155,-3.2025,-2.8
359,134114,0.5858439999999999,0.309636,-0.7468840999999999,1.155,-3.2725,-3.045
360,134212,0.585356,0.310368,-0.7476161,1.1725,-3.4475,-3.15
361,134310,0.586088,0.308904,-0.747128,1.2075,-3.6575,-3.22
362,134409,0.584136,0.305732,-0.7439560000000001,1.015,-3.78,-3.255
363,134507,0.58804,0.310612,-0.7439560000000001,0.8400001,-3.9725,-3.29
364,134605,0.5858439999999999,0.305732,-0.748104,1.0325,-4.3225,-3.325
365,134703,0.5856,0.30109600000000003,-0.7473721,0.7175,-4.445,-3.5
366,134801,0.585356,0.313784,-0.748104,-0.1575,-4.55,-3.395
367,134899,0.5858439999999999,0.302804,-0.748592,-0.4725,-4.69,-3.2725
368,134997,0.584868,0.312076,-0.745664,-0.8925,-4.935,-3.6225
369,135095,0.58682,0.309148,-0.747128,-0.6475,-4.865,-3.7625
370,135193,0.5887720000000001,0.310856,-0.746396,-0.385,-5.0225,-4.0075
371,135291,0.5875520000000001,0.31524800000000003,-0.74542,-0.0525,-5.39,-4.2175
372,135390,0.59048,0.315736,-0.74664,0.63,-5.88,-4.1825
373,135488,0.590236,0.316956,-0.741272,1.33,-6.3525,-4.1125
374,135586,0.589992,0.31476,-0.7442,2.0125,-6.8425,-4.0425
375,135684,0.585356,0.31354,-0.746152,2.8175,-7.4725,-3.99
376,135782,0.5846241,0.312808,-0.7422481,3.4475,-7.8925,-3.885
377,135880,0.583648,0.308172,-0.74908,3.9025,-8.2075,-3.85
378,135978,0.5814520000000001,0.30182800000000004,-0.749324,4.13,-8.33,-3.92
379,136076,0.580232,0.307684,-0.7483479999999999,3.5175,-8.2425,-4.13
380,136174,0.580232,0.298656,-0.753472,3.255,-8.1375,-4.4625
381,136273,0.576816,0.30548800000000004,-0.753472,2.905,-7.98,-4.8125
382,136371,0.57706,0.313296,-0.7478600000000001,2.66,-7.91,-5.1625
383,136469,0.576084,0.313296,-0.74908,2.73,-7.77,-5.0925
384,136567,0.57584,0.316956,-0.7500560000000001,2.9225,-7.91,-4.9525
385,136665,0.575596,0.31964000000000004,-0.749324,3.2375,-8.085,-4.4625
386,136763,0.574864,0.316712,-0.7517640999999999,3.64,-8.33,-3.99
387,136861,0.575596,0.315736,-0.7503,3.92,-8.3125,-3.605
388,136959,0.5743761,0.319152,-0.7500560000000001,4.1825,-8.19,-3.1325
389,137057,0.574864,0.32086,-0.7510321,4.655,-8.225,-2.555
390,137156,0.575596,0.321104,-0.7522521,5.145,-8.575,-1.9775
391,137254,0.565836,0.30988000000000004,-0.7478600000000001,5.6,-8.89,-1.365
392,137352,0.5380199999999999,0.306708,-0.759328,5.845,-9.1,-0.63
393,137450,0.554124,0.30402399999999996,-0.756156,5.67,-8.5575,0.595
394,137548,0.51118,0.294508,-0.766892,5.145,-7.9275,2.0825
395,137646,0.540704,0.30134,-0.763232,3.71,-6.965,4.4275
396,137744,0.546072,0.309392,-0.747128,2.59,-5.67,7.0175
397,137842,0.5294800000000001,0.29524,-0.780312,0.8225,-3.745,8.715
398,137940,0.542168,0.326472,-0.752984,-1.2425,-0.91,10.605
399,138039,0.5382640000000001,0.320372,-0.776896,-2.6425,2.905,12.8275
400,138137,0.540704,0.306464,-0.784704,-3.465,8.3125,15.75
401,138235,0.536068,0.290116,-0.797392,-4.6025,14.6475,18.62
402,138333,0.527284,0.284748,-0.8039801,-6.5625,22.82,21.6825
403,138431,0.5292359999999999,0.26156799999999997,-0.8076399999999999,-10.255,33.18,24.22
404,138529,0.487512,0.231312,-0.7937320999999999,-13.755,46.9875,27.055
405,138627,0.44652,0.44505600000000006,-0.917684,-19.915,64.8025,33.39
406,138725,0.538996,0.313052,-0.869616,-8.435,90.09000999999999,43.2775
407,138823,0.503616,0.44334799999999996,-0.8881600000000001,-10.7625,111.1425,48.8775
408,138922,0.51972,0.408456,-0.898652,1.6275,137.1475,58.5025
409,139020,0.62098,0.42431599999999997,-0.904752,9.0125,159.7575,67.2525
410,139118,0.6790520999999999,0.380152,-0.8383841000000001,14.385,182.875,76.825
411,139216,0.815448,0.33916,-0.889136,8.3475,209.4225,87.60501
412,139314,1.0201639999999998,0.65758,-1.215608,-5.0225,227.4475,100.7475
413,139412,1.134112,0.8818159999999999,-1.124596,-4.76,233.905,123.3225
414,139510,1.332484,0.764696,-1.096536,19.6525,225.295,148.19
415,139608,1.344684,0.767868,-1.083848,30.45,202.2125,160.8425
416,139707,1.130208,0.7556681,-1.255624,20.7725,172.8475,157.2025
417,139805,0.277672,0.8576601,-2.023248,8.8025,130.9175,146.6325
418,139903,-0.188368,0.9108521,-2.123776,-1.085,55.825,120.6275
419,140001,-0.42212,1.2785600000000001,-1.660664,-35.805,-16.905,87.2375
420,140099,-0.791292,1.407636,-1.361764,-47.95,-47.1975,60.4275
421,140197,-0.9006040999999999,1.2251239999999999,-1.2402520000000001,-37.45,-67.41001,33.3375
422,140295,-0.7639640999999999,0.985516,-1.281976,-37.3975,-71.7675,4.0425
423,140393,-0.668072,0.985516,-1.408368,-58.3975,-86.4325,-31.6925
424,140491,-0.5636399999999999,1.013332,-1.486936,-75.0575,-106.1375,-63.7
425,140589,-0.461404,0.9037761000000001,-1.511092,-73.99,-125.265,-86.8875
426,140688,-0.34428400000000003,0.702232,-1.5128,-66.745,-142.2925,-105.9625
427,140786,-0.202276,0.540704,-1.50304,-66.885,-158.305,-124.9325
428,140884,-0.06954,0.452376,-1.485716,-71.575,-171.85,-142.4325
429,140982,0.116632,0.41284799999999994,-1.49206,-73.2025,-181.1075,-156.1875
430,141080,0.339648,0.389912,-1.521828,-67.2875,-187.6875,-166.32
431,141178,0.514352,0.340624,-1.505236,-53.7775,-192.8675,-172.865
432,141276,0.663924,0.272548,-1.4393559999999999,-37.2575,-195.755,-174.475
433,141374,0.781776,0.200568,-1.337608,-22.19,-194.635,-171.6925
434,141472,0.868152,0.150792,-1.230004,-10.8675,-188.3175,-164.4475
435,141570,0.9328120000000001,0.13542,-1.1446040000000002,-5.25,-176.7675,-153.7375
436,141669,1.078968,0.168848,-1.156072,-6.65,-161.245,-141.8025
437,141767,1.266848,0.240096,-1.200968,-17.85,-147.91,-133.3675
438,141865,1.4513120000000002,0.370636,-1.2609920000000001,-33.635,-142.835,-129.64
439,141963,1.7265439999999999,0.5368,-1.371768,-49.63,-145.74,-130.7075
440,142061,1.9929919999999999,0.783972,-1.448628,-54.3725,-162.8725,-134.75
441,142159,2.056188,0.8906,-1.361764,-36.47,-191.17,-135.9575
442,142257,1.8817279999999998,0.705892,-1.061156,-4.3225,-217.84,-134.1375
443,142355,1.5999079999999999,0.42626800000000004,-0.653676,21.4375,-231.6825,-133.4375
444,142453,1.4959639999999998,0.19861600000000001,-0.335988,29.1025,-225.3125,-135.03
445,142552,1.536468,0.08417999999999999,-0.123464,25.1125,-204.925,-137.6375
446,142650,1.6635919999999997,0.08100801,0.10248,21.175,-182.56,-138.775
447,142748,1.863184,0.050996,0.348188,29.05,-165.2875,-129.5525
448,142846,1.9888439999999998,-0.4743361,0.694912,45.325,-146.7375,-108.29
449,142944,2.094252,-0.8554641,1.0262639999999998,26.95,-128.59,-92.995
450,143042,2.195024,-0.91012,1.2900280000000002,-11.445,-105.455,-82.14499
451,143140,2.133048,-0.776408,1.393484,-26.5125,-69.86,-61.845
452,143238,1.9480959999999998,-0.69418,1.2627,-0.875,-18.725,-28.8925
453,143336,1.903688,-0.69418,0.9289081,44.2575,38.0625,9.73
454,143434,1.960784,-0.64904,0.49532,73.15,81.34000999999999,43.8025
455,143533,0.763476,-0.7366361,-0.3965,74.25251,100.485,67.2175
456,143631,-2.46928,1.007476,-5.254052,35.5775,54.705,97.3875
457,143729,-0.650016,1.7809560000000002,-1.76046,-24.395,38.1675,132.72
458,143827,-1.502552,0.4148,1.4295959999999999,-201.7575,15.715,171.6925
459,143925,1.262944,1.396656,-0.194712,-90.70251,153.1775,182.5775
460,144023,1.454484,1.8119439999999998,-1.598444,-60.025,200.9175,118.5975
461,144121,0.711504,0.807396,-0.9974719999999999,-87.74501,167.23,51.2575
462,144219,1.055788,0.240096,-1.116544,-42.7175,174.685,44.4675
463,144317,1.514752,0.316712,-1.7624119999999999,-50.61,172.55,41.0375
464,144415,1.2939319999999999,0.35087199999999996,-1.407392,-49.35,133.49,33.4075
465,144514,1.243424,0.7427361,-1.32126,-44.275,104.0375,24.745
466,144612,0.9476959999999999,0.8786440999999999,-0.9581881,-35.14,74.6375,4.9525
467,144710,0.69418,0.764452,-0.837408,-20.7375,55.4925,-9.03
468,144808,0.581696,0.593896,-0.787632,-10.7275,44.3625,-13.86
469,144906,0.491904,0.666852,-0.7229720000000001,-4.2,32.41,-8.225
470,145004,0.43358800000000003,0.772748,-0.620736,1.2775,24.0275,-1.7325
471,145102,0.431392,0.75274,-0.659776,11.6375,20.9825,0.98
472,145200,0.488,0.60878,-0.7239479999999999,22.505,18.375,4.025
473,145298,0.42700000000000005,0.456768,-0.7407841,28.8225,12.9325,9.135
474,145396,0.40577199999999997,0.349164,-0.780556,29.96,11.2525,12.915
475,145495,0.396988,0.31354,-0.79056,27.0025,11.9175,15.6275
476,145593,0.39967199999999997,0.381616,-0.769088,22.365,11.935,19.04
477,145691,0.424072,0.466528,-0.7617681,19.39,13.335,21.6825
478,145789,0.46164799999999995,0.501908,-0.7605481,19.8975,14.91,22.9775
479,145887,0.50752,0.522648,-0.771772,23.1525,14.8575,24.1325
480,145985,0.47067600000000004,0.530212,-0.734196,28.0875,12.8275,25.9525
481,146083,0.4758,0.5565640000000001,-0.73078,33.0575,12.0225,27.86
482,146181,0.514108,0.553392,-0.739808,38.15,11.6025,29.19
483,146279,0.480192,0.49434399999999995,-0.734684,44.1,9.5025,30.1525
484,146377,0.484096,0.437004,-0.762744,48.1075,9.205,30.8175
485,146476,0.511424,0.407236,-0.7854361,49.42,9.52,30.835
486,146574,0.49141599999999996,0.40138,-0.772992,49.0875,9.1875,29.6975
487,146672,0.4575,0.379176,-0.764208,48.055,10.0975,27.6675
488,146770,0.42285200000000006,0.371368,-0.741272,46.48,12.3025,26.005
489,146868,0.376492,0.444812,-0.746152,45.1675,15.75,26.7925
490,146966,0.470188,0.4392,-0.758108,46.655,20.265,28.315
491,147064,0.43358800000000003,0.424804,-0.7422481,50.1025,20.755,32.3225
492,147162,0.472872,0.529724,-0.7722600000000001,54.005,20.4225,38.5
493,147260,0.454084,0.517524,-0.644404,65.205,19.005,47.39
494,147358,0.972828,0.281088,-0.930372,71.4875,19.2675,57.6975
495,147457,0.47994799999999993,0.37454,-0.8317960999999999,60.3575,-3.4475,59.5875
496,147555,0.672708,0.319884,-0.818376,47.74,-10.1325,55.37
497,147653,0.586332,0.199348,-0.8332601000000001,36.9775,-17.465,47.1625
498,147751,0.5926760999999999,0.24034,-0.822768,21.4025,-16.5025,38.64
499,147849,0.550952,0.211792,-0.828624,13.4575,-13.545,28.9275
500,147947,0.553636,0.20642399999999997,-0.809348,7.875,-8.3125,23.59
501,148045,0.563884,0.219844,-0.81374,2.905,-3.3075,19.67
502,148143,0.5551,0.280844,-0.802272,1.89,1.82,15.925
503,148241,0.565836,0.299632,-0.787144,0.7175,4.76,15.47
504,148339,0.558516,0.29377600000000004,-0.7922680000000001,0.455,6.9475,17.325
505,148437,0.5577840000000001,0.302804,-0.781532,0.7525,9.1,19.1975
506,148536,0.53192,0.327936,-0.8030041,0.1225,11.76,22.015
507,148634,0.5368,0.3111,-0.8039801,0.245,15.995,26.9675
508,148732,0.550708,0.25498000000000004,-0.776408,1.2075,20.8425,31.71
509,148830,0.52094,0.29792399999999997,-0.797636,-1.4875,25.935,33.915
510,148928,0.496296,0.22691999999999998,-0.844972,-2.59,33.3725,35.1925
511,149026,0.48702399999999996,0.37576,-0.8784,1.785,45.395,34.8075
512,149124,0.5502199999999999,0.27279200000000003,-0.8283799999999999,12.5125,60.305,36.4525
513,149222,0.48873199999999994,0.287188,-0.8586360000000001,14.9275,73.605,38.115
514,149320,0.5124001,0.28548,-0.868396,20.37,91.7175,39.025
515,149418,0.512644,0.235948,-0.8574161,26.285,110.985,38.3425
516,149517,0.6131721,0.19642,-0.8076399999999999,29.2775,127.9075,37.66
517,149615,0.588284,0.1952,-0.8335040000000001,26.075,139.9825,39.585
518,149713,0.7195560000000001,0.189344,-0.773968,29.3475,158.025,40.0575
519,149811,0.636108,0.211548,-0.8845,25.4275,180.285,43.715
520,149909,0.7283400999999999,0.192028,-0.85156,26.355,206.64,42.21
521,150007,0.79178,0.219112,-0.713212,32.025,242.0775,38.43
522,150105,0.783728,0.309636,-0.854244,21.595,272.37,35.3675
523,150203,0.6170760000000001,0.383812,-0.9506241,26.6875,319.41,48.79
524,150301,0.407724,0.43627200000000005,-0.928176,26.3375,380.6775,67.7775
525,150399,0.7795801,0.56242,-0.9489161,20.5975,442.54,84.42
526,150497,0.855708,0.7937320999999999,-1.1468,21.5075,494.2875,113.61
527,150596,1.056032,0.849608,-0.9903959999999999,36.8375,507.71,161.42
528,150694,1.841468,0.685396,-1.22976,65.6075,509.5825,217.6125
529,150792,2.125728,0.357704,-0.8949921000000001,59.01,504.6475,257.075
530,150890,2.0679,0.157136,-0.9298841,16.065,479.7975,264.81
531,150988,2.514664,1.02724,-1.10166,-52.15,436.275,241.85
532,151086,2.973384,1.2822200000000001,-1.635532,-98.875,421.9075,216.5975
533,151184,3.1329599999999997,1.0784799999999999,-2.147932,-137.6725,379.26,168.4725
534,151282,1.452776,1.274656,-3.038288,-97.86,262.71,152.25
535,151380,3.2278759999999997,2.368996,-3.1473560000000003,-86.9575,113.2775,132.545
536,151479,1.2609920000000001,2.300432,-3.052928,-66.0975,6.7725,82.11
537,151577,0.47775200000000007,1.911984,-1.925648,-10.115,-112.875,20.02
538,151675,0.300608,1.3644479999999999,-1.513044,62.895,-127.2075,-19.88
539,151773,-0.023668,0.902068,-1.019676,92.41751,-147.2275,-52.185
540,151871,-0.02928,0.5958479999999999,-0.8713241,88.53251,-149.45,-76.58
541,151969,0.128344,0.404308,-0.869128,66.43,-160.4925,-95.1475
542,152067,0.32086,0.381616,-0.9850280999999999,33.88,-179.375,-107.3625
543,152165,0.387472,0.46603999999999995,-1.049444,9.975,-206.255,-113.7675
544,152263,0.43358800000000003,0.501908,-1.078236,4.83,-232.365,-114.625
545,152362,0.41968,0.496784,-1.039196,12.39,-257.145,-114.765
546,152460,0.412116,0.422364,-0.9596520000000001,23.835,-279.055,-116.7075
547,152558,0.437492,0.320616,-0.912316,29.68,-296.2225,-121.695
548,152656,0.57584,0.264496,-0.9455,23.0125,-311.7625,-130.025
549,152754,0.648796,0.25302800000000003,-0.916952,7.9275,-329.3675,-142.275
550,152852,0.6375721,0.244488,-0.8827921000000001,-2.73,-342.685,-154.7875
551,152950,0.7107720000000001,0.19642,-0.8786440999999999,-7.6825,-348.355,-162.4875
552,153048,0.8725440999999999,0.15420799999999998,-0.921344,-10.92,-350.1925,-164.5875
553,153146,1.072624,0.13639600000000002,-1.065304,-16.7125,-353.955,-164.2025
554,153244,1.241716,0.10516400000000001,-1.155096,-26.88,-363.79,-163.135
555,153343,1.299788,0.138836,-1.234884,-38.115,-376.915,-162.2075
556,153441,1.3917760000000001,0.206668,-1.308084,-47.04,-387.87,-160.16
557,153539,1.474248,0.3355,-1.42862,-51.065,-396.375,-157.7625
558,153637,1.596248,0.438224,-1.553548,-50.015,-401.765,-157.8325
559,153735,1.6994599999999997,0.49898000000000003,-1.70068,-48.3,-407.2775,-164.64
560,153833,1.878312,0.62464,-1.824876,-48.8775,-413.98,-176.33
561,153931,2.103524,0.7046720999999999,-1.8666,-47.3025,-418.6,-191.87
562,154029,2.379732,0.648308,-1.808528,-43.12,-417.62,-212.0475
563,154127,2.703032,0.5504641,-1.6921400000000002,-43.855,-409.815,-235.3575
564,154226,3.063908,0.423828,-1.580144,-51.2575,-391.825,-254.8
565,154324,3.3562199999999995,0.540216,-1.3642040000000002,-61.67,-370.125,-266.735
566,154422,3.597536,0.2196,-0.9630681000000001,-56.1925,-343.4725,-266.35
567,154520,4.193384,-0.410652,-0.043676,-37.2925,-304.5175,-258.9125
568,154618,4.346372,-0.46628400000000003,0.9977159999999999,-37.1525,-283.4475,-230.3175
569,154716,4.680408,-1.473028,2.244556,-8.4175,-233.7125,-157.8325
570,154814,5.060804,-2.467084,3.5780160000000003,-26.81,-173.6525,-74.5325
571,154912,4.517904,-1.850984,3.8412919999999997,-87.22,-102.8125,-28.42
572,155010,3.859836,-1.124352,2.767692,-67.06,2.31,25.7425
573,155108,3.9284,-0.868884,1.2404959999999998,10.5525,106.505,90.21251
574,155207,2.054236,-0.7178479999999999,-0.135664,46.865,141.015,129.2025
575,155305,-0.965752,3.075864,-6.226636,-7.5075,55.5275,140.07
576,155403,-2.19112,1.6853080000000003,-0.8998719999999999,-6.09,59.57,156.66
577,155501,-1.597712,-0.9286639999999999,3.536536,-5.3375,72.94,260.2425
578,155599,2.10328,0.122244,-1.8812400000000002,-42.0175,319.9525,268.9575
579,155697,3.014376,1.13094,-3.071228,-71.7675,311.8325,167.3175
580,155795,1.569408,-0.166408,-0.9206120000000001,6.615,247.345,148.015
581,155893,1.8390279999999999,0.67832,-1.9193040000000001,-4.935,261.1175,131.3725
582,155991,1.497184,0.670512,-1.350784,-1.33,228.6375,77.875
583,156090,1.25294,0.550952,-1.30174,3.6225,200.6725,60.7075
584,156188,0.830332,0.258884,-0.8801081000000001,6.86,173.18,49.2975
585,156286,0.9152440000000001,0.400404,-1.109224,-2.24,161.7,47.005
586,156384,1.5445200000000001,1.121668,-1.2641639999999998,5.6875,140.8925,37.38
587,156482,1.091656,1.0582280000000002,-0.9032879999999999,49.21,98.1225,25.7775
588,156580,0.5655920999999999,0.35087199999999996,-0.763476,88.725,68.6175,26.39
589,156678,0.8071520000000001,0.305976,-0.958432,81.90001,64.715,29.68
590,156776,0.8483879999999999,0.7056479999999999,-0.8601,72.4675,41.6675,34.65
591,156874,0.562176,0.277916,-0.8476561,77.3325,25.76,27.5975
592,156973,0.713212,0.28181999999999996,-0.8971879999999999,64.27750999999999,20.4575,26.95
593,157071,0.5826720000000001,0.31354,-0.823256,47.67,11.27,23.87
594,157169,0.6075600999999999,0.228872,-0.84546,36.12,10.8325,18.6375
595,157267,0.557296,0.25522399999999995,-0.846924,23.17,10.6575,14.1225
596,157365,0.5455840000000001,0.264984,-0.813496,15.0325,10.955,9.625
597,157463,0.5702281,0.242292,-0.794952,8.89,11.83,5.46
598,157561,0.566812,0.26156799999999997,-0.7983680000000001,4.27,12.8275,1.435
599,157659,0.5602239999999999,0.29036,-0.771528,0.5075,15.0675,-2.1875
600,157757,0.570716,0.332572,-0.7661600000000001,-2.765,16.835,-4.62
601,157855,0.574132,0.341356,-0.756156,-3.36,17.745,-4.7425
602,157954,0.576816,0.377712,-0.7517640999999999,-3.1325,17.2375,-3.045
603,158052,0.584136,0.381616,-0.7378560000000001,-1.4,15.715,0.8575
604,158150,0.568032,0.3965,-0.7415161,0.28,13.0375,5.215
605,158248,0.559736,0.38966799999999996,-0.7373681,1.61,10.8675,10.5525
606,158346,0.5797441,0.374296,-0.748104,1.995,8.89,17.2375
607,158444,0.5948720000000001,0.37332,-0.7417600000000001,1.9075,6.405,24.5175
608,158542,0.6039,0.380152,-0.72956,2.065,2.6775,31.3775
609,158640,0.604388,0.376492,-0.7278521,4.13,-1.3475,37.8175
610,158739,0.614392,0.365512,-0.7483479999999999,5.53,-5.705,44.205
611,158837,0.5926760999999999,0.35624,-0.725412,8.2075,-8.6625,50.225
612,158935,0.606584,0.321836,-0.7266321,7.735,-11.5675,55.23
613,159033,0.612684,0.384056,-0.732244,7.665,-14.0175,59.2025
614,159131,0.603168,0.337452,-0.739808,8.2775,-16.17,64.75
615,159229,0.59902,0.34648,-0.786656,8.435,-14.805,69.72
616,159327,0.5936520000000001,0.183732,-0.7661600000000001,11.375,-8.3475,73.01
617,159425,0.587064,0.202032,-0.792512,10.85,2.6425,70.56
618,159523,0.590724,0.125416,-0.7849480999999999,7.98,14.28,65.31
619,159622,0.5838920999999999,0.185684,-0.803736,8.4,27.1075,59.045
620,159720,0.5663239999999999,0.163968,-0.8052,9.3625,39.5675,52.325
621,159818,0.567788,0.195444,-0.8249639999999999,11.095,52.78,46.6725
622,159916,0.551928,0.21472,-0.8527800999999999,16.9225,67.97,41.965
623,160014,0.553392,0.250832,-0.8669319999999999,22.2775,83.335,40.7925
624,160112,0.5604680000000001,0.21813600000000002,-0.8378960999999999,30.3975,100.73,41.1775
625,160210,0.579256,0.225456,-0.841556,36.9075,119.7525,42.6825
626,160308,0.57706,0.188124,-0.8569280999999999,41.9475,138.425,45.64
627,160406,0.6070720000000001,0.209596,-0.8540000000000001,43.5925,158.9875,49.7525
628,160505,0.692228,0.2257,-0.8195960999999999,45.99,181.6325,54.5475
629,160603,0.8447280999999999,0.182756,-0.774456,49.0,206.7275,62.2125
630,160701,0.6612401,0.21716,-0.8820601,49.1575,238.35,67.6375
631,160799,0.771772,0.160552,-0.769576,48.825,277.0425,69.335
632,160897,0.9845401,0.13761600000000002,-0.781532,45.0625,326.8825,64.085
633,160995,0.557296,0.161772,-0.9476959999999999,43.2075,399.7875,68.9325
634,161093,0.734928,0.223504,-0.9391560999999999,26.39,483.42,75.39
635,161191,0.64782,0.533384,-1.4269120000000002,-1.3125,555.135,87.8675
636,161289,1.281488,1.039928,-1.244644,-5.5825,569.3275,121.6425
637,161387,2.527108,0.547048,-1.1192280000000001,16.905,564.445,177.7125
638,161486,2.297748,-0.098088,-0.6390359999999999,-38.64,540.2425,210.7525
639,161584,2.19234,0.5124001,-0.9093880999999999,-103.6875,509.0925,216.6675
640,161682,3.6692720000000003,1.566236,-1.340048,-158.9,478.625,213.5525
641,161780,4.495944000000001,1.4757120000000001,-2.9504479999999997,-229.1275,436.6775,165.0775
642,161878,2.08986,1.5189,-3.254228,-177.24,297.6925,153.895
643,161976,3.7058720000000003,2.672044,-3.4709,-128.94,122.43,154.0525
644,162074,1.596492,2.7652520000000003,-3.512136,-73.185,13.0025,124.6525
645,162172,0.479216,2.269932,-1.950536,-0.8225,-126.8925,46.935
646,162271,0.33305999999999997,1.713612,-1.5616,91.1575,-135.065,-9.9575
647,162369,0.06539201,1.134112,-0.9589200999999999,139.3175,-153.86,-58.0475
648,162467,0.062952,0.753228,-0.8281360999999999,145.53,-153.5975,-93.31
649,162565,0.162504,0.44944799999999996,-0.73932,126.98,-159.3375,-119.315
650,162663,0.331108,0.334768,-0.805688,94.88501,-174.615,-135.8175
651,162761,0.441884,0.34526,-0.9032879999999999,64.575,-197.0675,-143.22
652,162859,0.489708,0.366244,-0.9335440999999999,48.8775,-224.0175,-142.835
653,162957,0.515572,0.370392,-0.9572120999999999,46.305,-249.7075,-138.285
654,163055,0.544852,0.330376,-0.9455,48.335,-274.1375,-134.505
655,163153,0.5948720000000001,0.266448,-0.9506241,46.48,-299.53,-135.2225
656,163252,0.634156,0.20861999999999997,-0.9067040000000001,39.2175,-325.325,-141.995
657,163350,0.674416,0.160064,-0.8805960999999999,27.2125,-347.83,-151.4625
658,163448,0.7510321,0.121512,-0.8937719999999999,12.81,-365.19,-160.93
659,163546,0.8432639999999999,0.146156,-0.9057280999999999,0.175,-380.4325,-168.525
660,163644,1.0023520000000001,0.21618400000000002,-0.9862479999999999,-6.72,-392.4725,-171.6225
661,163742,1.13582,0.194956,-1.021384,-6.2125,-402.395,-171.85
662,163840,1.2883200000000001,0.165432,-1.118008,-5.3725,-410.9525,-169.1725
663,163938,1.422764,0.114924,-1.138992,-9.345,-420.035,-165.7775
664,164036,1.508652,0.098576,-1.2221959999999998,-23.835,-427.9275,-162.82
665,164135,1.6504159999999999,0.179584,-1.349564,-41.2125,-434.245,-160.09
666,164233,1.827804,0.40821199999999996,-1.51158,-55.5275,-440.7025,-155.715
667,164331,2.0281279999999997,0.6231760999999999,-1.677012,-59.78,-446.8975,-151.76
668,164429,2.239188,0.8315520000000001,-1.7275200000000002,-57.575,-454.475,-152.845
669,164527,2.40462,0.992592,-1.7082439999999999,-49.455,-456.2075,-164.675
670,164625,2.687416,0.97234,-1.607716,-41.685,-446.3375,-190.435
671,164723,3.0829400000000002,0.9596520000000001,-1.497672,-41.0025,-425.88,-225.68
672,164821,3.5170160000000004,1.015528,-1.249768,-47.005,-400.015,-255.115
673,164919,3.632428,1.028704,-0.6663640000000001,-44.24,-370.5975,-269.57
674,165017,3.7456440000000004,0.425292,0.07978801,-27.79,-326.445,-270.4625
675,165116,4.321728,-0.7200439999999999,1.016748,-31.185,-272.58,-270.4625
676,165214,4.499604,-1.184132,1.931748,-82.8975,-236.005,-265.16
677,165312,5.104480000000001,-1.4186159999999999,2.764032,-120.085,-191.94,-236.845
678,165410,5.4351,-1.6987279999999998,3.7058720000000003,-96.25,-123.165,-169.54
679,165508,4.353936,-1.8641599999999998,3.4857839999999998,-34.475,-30.0825,-74.48
680,165606,4.0135559999999995,-1.6972639999999999,2.019832,13.44,78.55751,29.47
681,165704,3.996232,-0.7417600000000001,0.467016,2.59,132.5625,101.395
682,165802,-2.7547599999999997,1.5767280000000001,-4.316604,-19.32,107.7825,139.8775
683,165900,-1.87392,2.45708,-4.178256,21.2275,39.4975,135.1175
684,165999,-2.929708,-1.044564,2.697908,-26.46,47.6175,179.585
685,166097,0.190076,0.09320801,0.64172,-43.3475,224.84,265.3
686,166195,4.005016,1.143872,-3.7761440000000004,-138.565,406.3675,200.5325
687,166293,2.047648,0.153232,-1.07482,-76.6675,298.76,134.89
688,166391,1.631872,0.668316,-1.9010040000000001,-44.485,272.475,133.665
689,166489,1.633092,1.003328,-1.117276,-47.4775,255.36,102.865
690,166587,1.3534680000000001,0.959408,-1.14436,-17.2025,220.885,84.5425
691,166685,1.4069040000000002,0.7834840000000001,-1.134844,-3.5175,197.2075,63.6475
692,166783,1.4659520000000001,1.085068,-1.572336,24.01,162.6975,60.27
693,166882,1.528904,1.04798,-0.8959681,73.57,112.2625,44.835
694,166980,0.671244,0.5697399999999999,-0.79178,100.0125,73.6575,40.0225
695,167078,0.807884,0.435784,-0.8291120999999999,94.09751,65.38,40.7575
696,167176,0.6380600000000001,0.659044,-0.714676,89.635,43.6625,49.0525
697,167274,0.627568,0.471896,-0.803248,92.5925,35.9975,46.935
698,167372,0.600484,0.414312,-0.8335040000000001,95.06,31.3775,47.46
699,167470,0.669292,0.346724,-0.8549761,92.575,29.715,46.7775
700,167568,0.657824,0.18056,-0.9362280000000001,83.52750999999999,26.81,43.2425
701,167666,0.667828,0.265716,-0.8337481,56.7525,22.3475,41.1775
702,167765,0.579256,0.219844,-0.8893800999999999,33.88,17.7975,31.57
703,167863,0.5594920999999999,0.261324,-0.8427761,22.4,14.63,22.505
704,167961,0.531676,0.297192,-0.806908,11.9,8.3825,16.0825
705,168059,0.520452,0.308904,-0.7673800000000001,7.8225,5.8625,14.5075
706,168157,0.5363121,0.404308,-0.778116,4.515,3.5175,16.695
707,168255,0.5260640000000001,0.44896,-0.734928,4.9,0.4025,22.1375
708,168353,0.57706,0.468236,-0.718092,4.6025,-2.5725,29.4
709,168451,0.6222,0.36087600000000003,-0.7671359999999999,4.1125,-4.6375,35.945
710,168550,0.595604,0.335012,-0.7266321,4.27,-5.3725,36.2075
711,168648,0.58194,0.33818400000000004,-0.782752,-1.1375,-7.91,38.1675
712,168746,0.61366,0.269376,-0.7610359999999999,1.155,-5.7225,40.5475
713,168844,0.584136,0.235704,-0.772504,0.5425,-4.2175,37.415
714,168942,0.582428,0.252784,-0.767868,-0.2625,0.6825,33.355
715,169040,0.5675439999999999,0.27523200000000003,-0.768112,-1.5575,5.425,30.73
716,169138,0.583648,0.28328400000000004,-0.75762,-1.05,9.8,30.6775
717,169236,0.5946279999999999,0.288652,-0.7612800999999999,-0.735,10.9025,30.555
718,169334,0.603168,0.304512,-0.7422481,0.7,11.165,30.87
719,169433,0.61122,0.394304,-0.739564,0.6125,10.325,33.215
720,169531,0.6082920999999999,0.30866,-0.749324,3.01,11.375,39.9
721,169629,0.609024,0.26156799999999997,-0.75762,7.0,15.89,45.675
722,169727,0.5978,0.27938,-0.7734800000000001,9.9575,20.685,47.6175
723,169825,0.5892601,0.22057600000000002,-0.762988,10.465,26.6525,48.8075
724,169923,0.6080479999999999,0.23448400000000003,-0.769332,9.52,36.2075,48.51
725,170021,0.587796,0.260592,-0.783972,8.575,46.3925,47.8625
726,170120,0.5777920999999999,0.301584,-0.820572,10.7275,57.8375,48.8775
727,170217,0.563396,0.291824,-0.8108121,16.1,72.765,49.9275
728,170316,0.565104,0.34428400000000003,-0.8317960999999999,21.7525,88.6375,49.4375
729,170414,0.632448,0.205204,-0.834968,32.34,107.17,53.4625
730,170512,0.5543680000000001,0.162992,-0.8337481,35.595,125.02,59.815
731,170610,0.6080479999999999,0.165188,-0.8640040000000001,36.33,144.6725,60.3925
732,170708,0.6280560000000001,0.190564,-0.844972,39.5325,164.1675,60.865
733,170806,0.652212,0.171532,-0.791292,46.7775,188.37,62.79
734,170904,0.8664440000000001,0.143228,-0.7376119999999999,51.5725,219.0825,62.9475
735,171002,0.81984,0.115168,-0.772016,50.1725,254.135,64.505
736,171100,0.667096,0.131028,-0.8479,40.39,297.6225,63.2975
737,171199,1.0121120000000001,0.129076,-0.750788,35.595,358.1725,54.0925
738,171297,0.777872,0.160796,-0.836676,19.215,441.1925,59.01
739,171395,0.6985720999999999,0.264008,-1.153632,-8.225,529.0075,64.54
740,171493,0.9469641,0.957944,-1.436916,-29.4525,571.4275,75.6875
741,171591,1.4715639999999999,1.0140639999999999,-1.075064,9.4675,573.405,121.415
742,171689,2.458788,0.264252,-0.7500560000000001,13.1425,572.6875,192.395
743,171787,2.428532,0.112972,-0.830332,-71.92501,542.4475,204.155
744,171885,3.09026,1.1446040000000002,-1.100196,-151.1125,470.575,193.025
745,171983,3.6905,1.730204,-2.310436,-192.29,436.94,193.48
746,172082,3.638528,1.432768,-2.508808,-191.17,365.6275,180.285
747,172180,2.738412,0.996008,-3.091968,-120.995,230.9475,188.9475
748,172278,2.8853,2.77794,-4.454952,-134.9775,73.045,184.695
749,172376,0.8388721,2.5925,-2.618364,-83.66751,-102.6025,121.1525
750,172474,0.5002,2.31312,-2.103036,5.3025,-173.075,65.7125
751,172572,0.079056,1.687016,-1.380064,96.6,-188.4225,20.895
752,172670,-0.042456,1.152412,-1.00528,141.6625,-192.78,-19.845
753,172768,-0.043676,0.731268,-0.813008,134.96,-195.79,-60.27
754,172866,0.069784,0.520452,-0.7503,100.345,-205.5025,-97.755
755,172965,0.2806,0.48824399999999996,-0.865468,57.505,-219.2925,-126.5775
756,173063,0.468236,0.5172800999999999,-0.9738041,25.7075,-240.17,-143.465
757,173161,0.612196,0.538508,-1.050176,11.865,-267.3475,-150.7625
758,173259,0.639768,0.494588,-1.038952,11.865,-296.8175,-153.7725
759,173357,0.6729520999999999,0.41723999999999994,-1.0279719999999999,15.5925,-322.6475,-155.82
760,173455,0.743712,0.30622,-0.975512,13.86,-346.0975,-159.7575
761,173553,0.7861680999999999,0.23668000000000003,-0.941108,3.955,-368.305,-166.7575
762,173651,0.8571719999999999,0.16128399999999998,-0.9340321,-12.39,-385.9975,-173.915
763,173749,0.9091440000000001,0.15201199999999998,-0.987956,-30.5025,-399.525,-181.055
764,173848,1.108004,0.188612,-1.122644,-46.2875,-409.535,-184.9925
765,173946,1.315404,0.195932,-1.1855959999999999,-56.035,-421.8725,-186.8475
766,174044,1.450092,0.183,-1.26636,-62.23,-432.9325,-186.1475
767,174142,1.5701399999999999,0.180316,-1.309792,-69.9125,-442.4875,-183.2775
768,174240,1.691164,0.21032800000000001,-1.414224,-77.5075,-447.51,-178.7975
769,174338,1.921012,0.309392,-1.618452,-87.185,-448.98,-174.9475
770,174436,2.1301200000000002,0.5577840000000001,-1.760704,-96.145,-453.495,-174.9475
771,174534,2.33508,0.873276,-1.8931959999999999,-94.02750999999999,-458.7625,-179.235
772,174632,2.554436,1.068232,-1.883436,-79.625,-458.6925,-192.675
773,174730,2.8247880000000003,1.0230920000000001,-1.761436,-58.2225,-449.8725,-220.9725
774,174829,3.156628,0.94916,-1.545008,-46.725,-432.25,-262.85
775,174927,3.514332,1.085556,-1.259528,-41.6325,-408.9225,-298.375
776,175025,3.8510519999999997,1.127524,-0.776408,-23.9925,-377.8775,-312.095
777,175123,4.120672,0.49532,0.07393200000000001,1.225,-337.295,-308.7175
778,175221,4.412008,-0.782752,1.12362,-2.9575,-289.9225,-301.84
779,175319,4.7885,-1.526952,2.3140959999999997,-72.24,-242.095,-297.78
780,175417,5.415824,-1.586488,3.3354800000000004,-139.335,-184.8525,-282.415
781,175515,5.956772,-1.7214200000000002,4.090904,-110.53,-91.945,-225.1725
782,175613,4.790208,-2.137928,3.3981879999999998,-21.14,21.735,-121.065
783,175711,4.418596,-1.9427279999999998,1.580144,28.8225,120.61,4.7775
784,175809,4.070164,-0.8315520000000001,0.07881200000000001,-0.105,147.875,92.05001
785,175908,-2.011536,2.45098,-6.457948,-17.1675,87.4475,129.64
786,176006,-2.159888,0.8337481,-1.9154,57.75,62.335,121.625
787,176104,-3.087088,-1.391044,3.5811879999999996,-9.8175,40.53,220.6575
788,176202,1.286856,0.345992,-1.2080440000000001,-69.055,302.54,261.94
789,176300,3.8510519999999997,1.276608,-3.279116,-130.095,384.125,187.46
790,176398,1.819264,0.205448,-1.110444,-34.2825,290.7625,139.2125
791,176496,1.63602,0.898652,-1.714832,-37.0475,286.23,123.2175
792,176594,1.4579,0.687348,-1.1712,-25.5325,258.4225,74.41
793,176692,1.491328,0.7176041,-1.267824,-23.2925,234.29,59.955
794,176790,1.1855959999999999,0.8888921000000001,-1.098732,-0.63,197.54,59.1325
795,176888,1.9305279999999998,1.487668,-1.526708,40.8975,162.96,46.1825
796,176986,1.224148,0.7442,-0.693204,107.555,101.4125,31.6925
797,177085,0.5838920999999999,0.45896400000000004,-0.8652241,118.1775,69.16,39.2875
798,177183,0.83936,0.612684,-0.8605879999999999,97.05501,61.95,48.895
799,177281,0.61366,0.690764,-0.6944241,101.5875,33.95,56.1225
800,177379,0.670268,0.36892800000000003,-0.8666879999999999,104.2825,31.5,52.4825
801,177477,0.637084,0.294508,-0.8632719999999999,95.1825,25.9175,53.9
802,177575,0.653676,0.291092,-0.876692,79.1,18.6725,50.505
803,177673,0.7241920000000001,0.187148,-0.8244761,60.725,19.1275,47.8275
804,177771,0.537776,0.302804,-0.889136,36.1375,17.745,45.78
805,177869,0.576816,0.285968,-0.840824,27.72,11.515,36.6625
806,177967,0.546072,0.291092,-0.8335040000000001,21.0,0.98,32.515
807,178065,0.537776,0.299632,-0.788852,17.465,-7.5775,30.275
808,178164,0.511424,0.351848,-0.792024,12.635,-11.1125,30.0825
809,178262,0.5185,0.3477,-0.792756,11.1475,-11.1475,29.96
810,178360,0.5602239999999999,0.35868,-0.774456,9.52,-11.305,30.8875
811,178458,0.5577840000000001,0.382592,-0.764452,6.86,-12.04,33.915
812,178556,0.5858439999999999,0.23472800000000002,-0.780312,9.59,-11.4275,35.2975
813,178654,0.5738880000000001,0.214964,-0.7754321,6.685,-8.2775,31.1325
814,178752,0.544608,0.24107199999999998,-0.798124,1.855,-5.53,26.4425
815,178850,0.541924,0.228384,-0.797392,0.4025,-1.505,24.4125
816,178948,0.561932,0.21886799999999998,-0.7993439999999999,-3.465,2.59,21.49
817,179046,0.5702281,0.21886799999999998,-0.78446,-4.9175,6.965,19.145
818,179144,0.5553441,0.237656,-0.7849480999999999,-5.8625,10.92,16.8875
819,179243,0.543388,0.299632,-0.7788480999999999,-7.0,14.4725,15.995
820,179341,0.556076,0.326716,-0.772992,-6.3,16.87,18.865
821,179439,0.573156,0.344528,-0.764696,-3.815,17.815,24.78
822,179537,0.57462,0.34477199999999997,-0.769576,-1.1025,18.06,31.4825
823,179635,0.592188,0.233508,-0.7705521,2.1,17.36,37.5725
824,179733,0.6304960000000001,0.60146,-0.815692,-2.275,15.0325,41.8775
825,179831,0.562176,0.14566800000000002,-0.7598161,7.21,18.27,54.5825
826,179929,0.6075600999999999,0.274988,-0.772748,8.9075,27.8075,56.0525
827,180027,0.57828,0.172752,-0.7761640999999999,5.88,32.76,53.5675
828,180125,0.596092,0.199348,-0.8015399999999999,7.0525,43.47,51.1525
829,180223,0.5441199999999999,0.221796,-0.83936,7.35,54.32,46.2525
830,180322,0.571448,0.236436,-0.823256,10.9025,70.49,44.2575
831,180420,0.535092,0.29158,-0.8544879999999999,17.325,87.8675,43.2775
832,180518,0.552416,0.27694,-0.8764481,27.9825,105.4375,43.785
833,180616,0.574132,0.09442801,-0.813984,39.305,125.02,46.06
834,180714,0.543876,0.195932,-0.8427761,40.53,144.6375,45.43
835,180812,0.6082920999999999,0.23253200000000002,-0.805688,41.615,163.9925,46.025
836,180910,0.6836880999999999,0.23009200000000002,-0.809836,40.775,184.2925,54.3725
837,181008,0.67466,0.282796,-0.8420440999999999,43.3825,207.8475,62.895
838,181106,0.843508,0.20837600000000003,-0.785924,52.4125,239.6975,69.9825
839,181204,0.8127641,0.209108,-0.770308,50.9775,274.33,74.55
840,181303,0.6170760000000001,0.149816,-0.8447280999999999,40.8275,319.165,77.875
841,181401,1.074576,0.133224,-0.8369200000000001,34.6675,384.86,73.90250999999999
842,181499,0.649284,0.260104,-1.01138,19.5125,478.24,80.5525
843,181597,0.9403761,0.511668,-1.214388,1.9075,552.0725,90.475
844,181695,1.304424,1.263676,-1.405196,-8.995,572.6,119.4375
845,181793,2.191608,0.30353600000000003,-0.7166279999999999,32.095,573.405,187.6175
846,181891,2.847236,-0.4148,-0.6878361,-45.955,565.46,204.0675
847,181989,2.38144,0.972828,-0.87718,-195.4225,519.3825,164.43
848,182087,3.071228,1.772172,-1.5701399999999999,-254.6075,470.2425,191.0125
849,182185,4.0545480000000005,1.417152,-2.769888,-260.015,446.0225,199.92
850,182284,2.432436,1.499868,-3.166876,-206.9725,329.6125,186.0075
851,182382,3.909612,2.639592,-3.538244,-150.885,162.54,182.7
852,182480,1.925648,2.950936,-4.092612,-98.945,12.1625,156.7475
853,182578,0.693448,2.44366,-2.319464,-11.655,-162.2075,80.3425
854,182676,0.395768,1.833904,-1.758996,95.00751,-194.145,31.3425
855,182774,-0.02562,1.1570479999999999,-0.99918,155.505,-216.5625,-9.7825
856,182872,-0.12248800000000001,0.708088,-0.752496,156.275,-215.845,-48.9125
857,182970,-0.151036,0.439932,-0.570472,117.7575,-216.3525,-89.1275
858,183068,0.049532,0.418704,-0.6634359999999999,60.935,-217.5425,-126.385
859,183166,0.376004,0.529724,-0.8849879999999999,16.5725,-225.9775,-154.14
860,183265,0.5934081,0.6178081,-1.037488,2.555,-248.0625,-170.2925
861,183363,0.656116,0.595116,-1.062376,12.1625,-276.1325,-177.38
862,183461,0.594384,0.45164399999999993,-0.9725841000000001,29.8725,-301.98,-181.4925
863,183559,0.6263479999999999,0.294508,-0.9398880999999999,41.5275,-320.6525,-186.13
864,183657,0.751276,0.16226,-0.9267120000000001,37.4325,-338.0475,-194.3725
865,183755,0.879376,0.12322000000000001,-1.0077200000000002,22.68,-357.4725,-203.9975
866,183853,0.948184,0.144204,-1.010648,8.995,-378.5075,-209.51
867,183951,1.068476,0.155916,-1.0345600000000001,2.24,-395.2725,-207.6375
868,184049,1.185352,0.131028,-1.077504,-2.135,-408.625,-201.4425
869,184147,1.351516,0.186172,-1.192184,-9.695,-420.105,-194.285
870,184246,1.553548,0.25986,-1.241228,-15.645,-431.83,-189.1925
871,184344,1.6501720000000002,0.310368,-1.285636,-22.33,-441.595,-184.8525
872,184442,1.795596,0.396012,-1.3827479999999999,-26.2325,-446.355,-179.27
873,184540,1.968592,0.524112,-1.524024,-29.7675,-447.72,-174.0375
874,184638,2.2130799999999997,0.6695361,-1.676036,-34.7025,-449.3125,-171.78
875,184736,2.447564,0.8039801,-1.7402080000000002,-37.5725,-451.0625,-174.545
876,184834,2.6571599999999997,0.7407841,-1.642608,-40.775,-450.1,-186.025
877,184932,2.935076,0.7659161,-1.494988,-49.5775,-441.9625,-205.7825
878,185030,3.293512,0.862784,-1.359324,-58.2575,-423.9025,-221.6725
879,185129,3.4901760000000004,0.89426,-1.0706719999999998,-61.3025,-398.23,-227.255
880,185227,3.670492,0.17836400000000002,-0.5070319999999999,-61.18,-365.9775,-228.375
881,185325,4.198996,-0.7373681,0.5119121,-90.195,-325.3075,-238.1925
882,185423,4.331,-0.7376119999999999,1.4940120000000001,-155.3125,-297.2725,-241.0975
883,185521,5.049336,-1.019188,2.464644,-159.6875,-242.55,-211.575
884,185619,5.72058,-1.5969799999999998,3.725636,-115.185,-174.37,-158.6375
885,185717,4.797283999999999,-1.9049080000000003,4.347348,-52.9725,-78.47,-98.245
886,185815,3.9576800000000003,-1.740696,2.94996,-1.6275,48.9125,-13.265
887,185913,3.392332,-0.413092,0.993812,2.2925,143.045,68.0575
888,186012,-0.06466001,2.14842,-4.326364,-21.6475,133.875,111.475
889,186110,-1.398364,1.2282959999999998,-2.2762759999999997,88.4275,129.01,118.2125
890,186208,-1.958832,-1.12484,1.464732,51.38,108.045,180.95
891,186306,0.84424,-1.1716879999999998,-0.536556,13.4575,278.1975,221.76
892,186404,4.023316,0.234972,-3.8703279999999998,-86.45,369.5475,191.0475
893,186502,2.320928,0.09516001,-1.641144,-25.2875,265.7725,170.7475
894,186600,1.398364,1.259772,-1.5074319999999999,-20.37,225.6625,148.26
895,186698,1.154852,0.899384,-1.020408,-0.91,215.04,79.4675
896,186796,1.3917760000000001,0.27718400000000004,-1.281976,12.04,201.1975,54.25
897,186894,1.093608,0.5873079999999999,-1.109224,20.5275,164.605,67.0775
898,186993,1.252208,1.335656,-1.194136,40.6525,133.1925,67.4975
899,187091,1.210972,0.9269561,-0.8784,100.1175,100.4675,47.915
900,187189,0.610488,0.29768,-0.803736,125.5625,75.985,47.495
901,187287,0.733708,0.48165600000000003,-0.9089001,116.0425,66.5525,54.1275
902,187385,0.8274040000000001,0.7093081,-0.8652241,110.8975,50.12,58.24
903,187483,0.774212,0.214964,-0.9335440999999999,108.325,41.6675,49.77
904,187581,0.7700640999999999,0.22789600000000002,-0.8874280999999999,79.3275,24.8675,45.43
905,187679,0.5799880000000001,0.335256,-0.8581479999999999,46.62,19.39,44.45
906,187777,0.5594920999999999,0.13542,-0.945256,32.4975,11.97,29.1375
907,187876,0.568032,0.21838000000000002,-0.877668,17.64,2.3275,20.3875
908,187974,0.569984,0.2013,-0.8315520000000001,7.77,-2.5375,10.01
909,188072,0.543876,0.237656,-0.8039801,1.4525,-0.4725,2.87
910,188170,0.5353359999999999,0.25424800000000003,-0.802272,-2.7125,2.275,-1.3125
911,188268,0.525088,0.294752,-0.7890961,-4.62,5.495,-2.87
912,188366,0.540948,0.33794,-0.781044,-6.65,7.2625,-2.345
913,188464,0.527528,0.4026,-0.76494,-6.4925,6.825,1.4525
914,188562,0.5429,0.411628,-0.75274,-4.4625,4.06,9.0125
915,188660,0.542412,0.441884,-0.741028,-2.135,-1.085,19.1625
916,188758,0.565836,0.40528400000000003,-0.7451760000000001,0.7875,-6.7025,29.365
917,188857,0.5636399999999999,0.381372,-0.753472,1.7325,-11.3225,37.1875
918,188955,0.57462,0.32818,-0.762744,3.815,-11.9875,40.67
919,189053,0.543388,0.35233600000000004,-0.797148,4.4975,-12.5125,43.435
920,189151,0.55632,0.279868,-0.76494,8.6275,-10.955,46.8475
921,189249,0.5653481,0.21716,-0.7556681,8.4175,-8.96,45.605
922,189347,0.554124,0.21276799999999998,-0.796904,5.775,-4.1825,41.65
923,189445,0.5499761,0.20447200000000001,-0.796416,3.7625,1.5925,38.0975
924,189543,0.552416,0.253272,-0.79056,1.2775,5.985,35.4375
925,189641,0.5587601,0.27279200000000003,-0.787876,1.7325,9.8875,35.7175
926,189739,0.582428,0.10394400000000001,-0.7829961,3.7275,12.9325,36.6975
927,189838,0.59536,0.609268,-0.870592,-5.915,14.5775,34.3875
928,189936,0.549244,0.09540401,-0.777628,1.7675,19.4425,42.875
929,190034,0.593896,0.254004,-0.7854361,4.62,31.5,44.4675
930,190132,0.5607121,0.18470799999999998,-0.7922680000000001,2.0475,38.7625,41.7725
931,190230,0.5941401,0.176656,-0.815936,3.7275,49.0875,40.355
932,190328,0.544852,0.195932,-0.8405800999999999,5.075,59.5525,35.805
933,190426,0.539484,0.272548,-0.841556,9.5725,73.955,33.04
934,190524,0.519476,0.276208,-0.8513161,16.2575,90.0375,33.81
935,190622,0.596336,0.271328,-0.8276481,23.52,107.5375,36.0325
936,190721,0.5846241,0.226188,-0.8352120000000001,29.6975,123.3575,39.8825
937,190819,0.59292,0.196664,-0.8149601,36.015,141.365,41.4575
938,190917,0.6441600000000001,0.284748,-0.8127641,36.7675,157.1675,44.1
939,191015,0.7259001,0.22277199999999997,-0.791536,37.5375,175.455,50.155
940,191113,0.7705521,0.254736,-0.7954399999999999,39.7425,198.695,55.335
941,191211,0.670268,0.221308,-0.8010520000000001,40.25,225.4,62.6675
942,191309,0.7478600000000001,0.19251600000000002,-0.7732359999999999,36.9775,261.2925,69.3175
943,191407,0.777872,0.214964,-0.8413120000000001,25.5325,307.3175,68.2675
944,191505,0.809348,0.253272,-0.9211,20.51,375.8825,78.085
945,191603,0.506544,0.327692,-1.081408,9.9225,458.5525,96.5475
946,191702,0.8459479999999999,0.598288,-1.175592,-3.8325,532.2275,112.0175
947,191800,1.22366,1.02724,-1.274656,-5.3375,568.295,148.1025
948,191898,2.251632,0.487512,-0.9684360999999999,13.895,570.36,203.525
949,191996,2.3658240000000004,-0.028792,-0.6070720000000001,-42.14,555.38,232.9075
950,192094,2.251632,0.271572,-0.8493641,-144.5675,516.075,220.71
951,192192,2.769888,1.1289879999999999,-1.311012,-228.865,460.4775,208.005
952,192290,3.762968,1.6150360000000001,-2.535892,-260.54,441.735,190.33
953,192388,3.007788,1.5098719999999999,-2.8286919999999998,-220.255,341.0575,177.485
954,192486,3.409412,2.155008,-2.989244,-131.635,190.96,189.98
955,192584,2.140124,2.735728,-4.226568,-87.3775,49.315,165.4975
956,192683,0.5023960999999999,2.3541119999999998,-2.127192,-21.2275,-124.8625,80.4125
957,192781,0.345504,1.8695279999999999,-1.6643240000000001,69.615,-158.4275,15.435
958,192879,0.005368,1.26026,-0.9674601,136.2025,-177.975,-32.13
959,192977,-0.086132,0.8308200000000001,-0.742492,158.445,-179.5675,-70.42
960,193075,0.03172,0.5084960000000001,-0.601704,142.415,-182.7,-103.8975
961,193173,0.174704,0.394548,-0.69052,102.7425,-189.665,-129.8325
962,193271,0.381616,0.43432,-0.8352120000000001,65.135,-204.05,-146.3875
963,193369,0.529724,0.478972,-0.9450120000000001,43.7325,-227.57,-153.3525
964,193467,0.566812,0.47043199999999996,-0.9628241,36.925,-255.5525,-153.8425
965,193566,0.553392,0.389912,-0.9235399999999999,36.6625,-281.995,-153.125
966,193664,0.58804,0.325984,-0.9052401,32.83,-304.675,-154.9625
967,193762,0.656848,0.264008,-0.8918200000000001,21.7175,-325.85,-160.7025
968,193860,0.750544,0.243024,-0.9118280000000001,5.705,-346.9025,-168.455
969,193958,0.8808401,0.252052,-0.9696561,-10.5,-365.8025,-175.5775
970,194056,0.99308,0.279136,-0.985516,-21.28,-384.16,-180.6175
971,194154,1.0919,0.282552,-1.00894,-26.6875,-399.035,-181.37
972,194252,1.280512,0.30353600000000003,-1.037488,-30.5025,-409.955,-179.655
973,194350,1.4252040000000001,0.269376,-1.077504,-35.42,-418.145,-179.235
974,194449,1.592344,0.275964,-1.178032,-46.235,-424.865,-179.5325
975,194547,1.753628,0.40211199999999997,-1.275388,-60.0775,-431.76,-180.11
976,194645,1.9122279999999998,0.5843801,-1.3908,-65.6075,-435.0675,-179.69
977,194743,2.040816,0.755424,-1.505968,-58.6425,-434.735,-178.885
978,194841,2.305556,0.904508,-1.657248,-46.48,-431.585,-179.8475
979,194939,2.562732,0.8115439999999999,-1.614792,-38.045,-428.7325,-190.19
980,195037,2.781844,0.663924,-1.507188,-43.61,-422.38,-215.32
981,195135,3.1634599999999997,0.6834439999999999,-1.362984,-63.28,-410.515,-240.38
982,195233,3.527508,0.771528,-1.199992,-77.9275,-390.6175,-251.37
983,195331,3.4948120000000005,0.472384,-0.727364,-78.19,-368.725,-245.9625
984,195430,4.016483999999999,-0.540704,-0.0671,-79.695,-332.6225,-243.5825
985,195528,4.081388,-0.7986121,0.993568,-120.1375,-308.35,-244.895
986,195626,4.485208,-1.0711600000000001,2.055212,-142.7125,-269.99,-223.93
987,195724,5.381176,-1.8236560000000002,3.396968,-111.4925,-205.9925,-172.6025
988,195822,4.941976,-2.170136,4.321972,-73.4475,-123.5675,-116.3575
989,195920,3.5719160000000003,-2.007388,3.213236,-26.565,-3.5875,-43.855
990,196018,3.833972,-1.417884,1.061156,7.3325,109.025,54.0575
991,196116,-0.380396,1.051152,-2.554436,-16.205,116.76,113.26
992,196214,-0.45871999999999996,2.7206,-3.3613440000000003,43.505,72.1,110.6525
993,196312,-1.94346,-0.8276481,0.642452,79.0825,90.52750999999999,132.72
994,196411,-0.9577,-2.0037279999999997,0.788608,75.0925,195.58,225.9075
995,196509,2.629588,-0.35160399999999997,-3.2532520000000003,-63.49,349.1425,223.0725
996,196607,3.1585799999999997,0.417972,-1.7394759999999998,-64.4525,325.0625,188.23
997,196705,1.5999079999999999,1.028216,-1.524024,-3.815,267.68,158.725
998,196803,1.691164,1.25294,-1.210728,16.1525,257.18,90.37001
999,196901,1.321016,0.400892,-1.087508,56.805,238.2625,69.615
1000,196999,1.352492,0.706136,-1.557452,63.0525,210.5775,69.87751
1001,197097,1.975668,0.984784,-0.98088,123.935,162.7675,70.105
1002,197195,1.042856,0.48531599999999997,-0.8552200000000001,139.44,117.2675,62.405
1003,197293,0.9616040000000001,0.46896800000000005,-0.995764,123.41,98.1225,63.525
1004,197392,0.9025559999999999,0.60878,-1.018944,113.015,79.9225,69.52750999999999
1005,197490,0.64294,0.247416,-1.01504,104.1775,36.6975,62.4925
1006,197588,0.8117880000000001,0.26303200000000004,-0.8718120999999999,75.4425,9.905,52.92
1007,197686,0.6453800000000001,0.288408,-0.86864,44.1875,-12.1975,36.9425
1008,197784,0.654652,0.15616,-0.8317960999999999,31.885,-10.9725,26.2325
1009,197882,0.60146,0.16689600000000002,-0.844972,17.92,-14.07,15.645
1010,197980,0.592188,0.192272,-0.84424,8.4875,-9.7125,7.9625
1011,198078,0.567788,0.172264,-0.818376,2.9225,-4.2,1.4875
1012,198176,0.5502199999999999,0.202032,-0.8003201,-1.47,2.4675,-4.9525
1013,198274,0.5414359999999999,0.262544,-0.7854361,-6.1075,6.9475,-9.205
1014,198373,0.528748,0.29792399999999997,-0.7712840999999999,-8.5925,10.535,-10.2375
1015,198471,0.55632,0.35258,-0.757376,-9.8875,12.2325,-8.9075
1016,198569,0.5543680000000001,0.389424,-0.746152,-9.1525,12.0925,-5.2675
1017,198667,0.553148,0.38795999999999997,-0.746152,-7.56,10.4475,-0.42
1018,198765,0.564372,0.38186,-0.7473721,-5.3375,8.2775,5.425
1019,198863,0.580476,0.36356,-0.749568,-4.2,5.1975,11.41
1020,198961,0.579012,0.380396,-0.752496,-5.74,0.735,18.5325
1021,199059,0.586088,0.328424,-0.7610359999999999,-4.9175,-3.185,25.76
1022,199157,0.565104,0.343064,-0.760792,-2.625,-5.39,30.73
1023,199256,0.5594920999999999,0.369904,-0.764696,-1.3475,-6.2125,36.33
1024,199354,0.59048,0.332572,-0.749324,2.5025,-5.1625,42.42
1025,199452,0.59536,0.332816,-0.756156,3.85,-5.39,46.4275
1026,199550,0.598532,0.33305999999999997,-0.7376119999999999,8.4175,-5.845,49.9975
1027,199648,0.6097560000000001,0.315492,-0.7390760000000001,10.57,-7.9625,52.71
1028,199746,0.605364,0.287188,-0.7600600000000001,12.8625,-8.8375,54.1975
1029,199844,0.594384,0.28181999999999996,-0.767868,13.7025,-8.05,54.0225
1030,199942,0.615124,0.139324,-0.740052,15.925,-5.7225,54.2325
1031,200040,0.6258600000000001,0.33305999999999997,-0.796904,12.285,-4.4625,51.555
1032,200138,0.6021920000000001,0.203008,-0.7707961,13.615,-0.2975,54.67
1033,200237,0.595604,0.197884,-0.808372,14.665,5.3725,55.9475
1034,200335,0.5875520000000001,0.07198,-0.7922680000000001,17.1325,13.1775,53.48
1035,200433,0.5692520000000001,0.08637601,-0.8044680999999999,12.4075,21.525,46.2875
1036,200531,0.550952,0.11224,-0.8425321,10.0975,33.5825,38.6925
1037,200629,0.55998,0.139324,-0.8540000000000001,9.1,47.8975,32.62
1038,200727,0.525332,0.180804,-0.8571719999999999,9.2925,65.205,29.715
1039,200825,0.528504,0.20984,-0.8520479999999999,12.4075,83.86001,27.7025
1040,200923,0.52704,0.17934,-0.8488761,21.42,104.125,26.74
1041,201021,0.570716,0.164212,-0.8369200000000001,26.5125,122.3425,25.2875
1042,201119,0.540948,0.17324,-0.8108121,30.625,139.5975,26.215
1043,201218,0.6895439999999999,0.169824,-0.785192,29.5925,157.955,28.315
1044,201316,0.681248,0.23301999999999998,-0.8081281,23.38,176.2775,34.9125
1045,201414,0.739564,0.165676,-0.777872,24.15,204.8025,47.11
1046,201512,0.8613200000000001,0.131272,-0.774944,16.87,238.21,51.0825
1047,201610,0.8579041,0.074664,-0.747128,9.5025,280.8925,52.045
1048,201708,0.5604680000000001,0.162748,-1.0023520000000001,-16.0125,337.75,50.295
1049,201806,0.709796,0.21106,-1.057252,-29.2425,422.835,50.9425
1050,201904,0.790804,0.215452,-1.0255319999999999,-54.2325,522.3925,65.905
1051,202002,0.712236,1.197064,-1.0948280000000001,-66.115,570.745,79.7125
1052,202101,1.2658719999999999,0.839116,-1.127524,-35.385,567.0875,132.0025
1053,202199,3.046584,-0.031232,-1.712148,-36.26,563.115,179.48
1054,202297,2.163304,0.710284,-0.9289081,-74.04251,516.18,182.175
1055,202395,2.141832,0.863028,-1.299056,-86.9925,466.095,195.8075
1056,202493,2.447808,1.068964,-1.689456,-89.81,451.85,195.1775
1057,202591,3.0634200000000003,1.12362,-2.148176,-132.9825,412.51,169.9075
1058,202689,2.811612,0.69418,-3.956948,-113.365,301.49,180.2325
1059,202787,3.189324,2.0642400000000003,-4.238768,-148.365,59.955,158.41
1060,202885,1.170468,2.063996,-2.984852,-132.615,-155.19,122.1675
1061,202983,0.11248399999999999,1.770464,-1.693116,-50.9775,-267.61,100.7125
1062,203082,0.24034,1.580876,-0.9181720999999999,54.4775,-281.015,102.97
1063,203180,-0.187148,1.1570479999999999,-0.43554,119.6125,-274.1375,104.9825
1064,203278,-0.21081599999999998,0.885476,-0.319396,141.925,-257.5825,84.49
1065,203376,0.089304,0.6527,-0.35843600000000003,125.44,-249.5675,44.94
1066,203474,0.28792,0.62098,-0.53192,73.955,-258.335,-7.455
1067,203572,0.44554399999999994,0.8052,-0.720288,20.2125,-279.3175,-55.16
1068,203670,0.527284,0.9211,-0.7854361,-5.88,-303.7475,-89.3375
1069,203768,0.486048,0.8901120000000001,-0.8015399999999999,-0.875,-321.6675,-111.545
1070,203866,0.5380199999999999,0.6954,-0.792756,15.2425,-332.2025,-127.8375
1071,203964,0.6019479999999999,0.46042799999999995,-0.7451760000000001,18.48,-342.055,-144.9875
1072,204063,0.644648,0.260348,-0.7095520000000001,2.8525,-351.4875,-162.96
1073,204161,0.71736,0.155672,-0.731268,-22.33,-356.93,-178.1325
1074,204259,0.900848,0.12688,-0.809836,-46.5675,-360.9375,-187.215
1075,204357,1.121424,0.150304,-0.9267120000000001,-62.8075,-363.5275,-187.635
1076,204455,1.345172,0.13054000000000002,-1.033828,-68.005,-366.45,-181.755
1077,204553,1.513776,0.054655999999999996,-1.075308,-69.09,-369.6875,-174.0375
1078,204651,1.613572,0.08881599,-1.127524,-79.1175,-371.91,-167.44
1079,204749,1.684088,0.23887600000000003,-1.225856,-92.435,-371.84,-163.9575
1080,204847,1.87148,0.465552,-1.373476,-98.665,-367.3425,-167.125
1081,204945,2.055212,0.7256560000000001,-1.475468,-102.1475,-362.775,-180.1625
1082,205044,2.218448,0.9315921,-1.501088,-103.04,-357.63,-206.045
1083,205142,2.430484,1.0906799999999999,-1.45302,-103.46,-347.585,-247.975
1084,205240,2.767204,1.341756,-1.303204,-100.5025,-335.37,-300.8075
1085,205338,3.206648,1.606252,-1.0084520000000001,-78.2425,-318.5175,-350.7875
1086,205436,3.537756,1.682868,-0.5363121,-33.6,-298.8475,-379.5575
1087,205534,3.588508,1.375672,0.009028000999999999,16.205,-274.435,-386.2775
1088,205632,3.2351959999999997,0.659776,0.7503,38.395,-245.595,-390.3725
1089,205730,2.7772080000000003,-0.05636401,1.423252,16.555,-200.865,-407.155
1090,205828,3.133204,-0.735416,1.944436,-56.1575,-132.1425,-436.5375
1091,205926,3.8947279999999997,-0.786412,2.440488,-143.0275,-63.6475,-465.5875
1092,206025,4.67626,-0.45506,2.8565080000000003,-166.985,4.1125,-458.4825
1093,206123,3.802496,-0.7903161,2.567612,-73.8675,85.7325,-368.0075
1094,206221,3.171024,-1.422276,1.4032440000000002,36.6275,168.7875,-226.4675
1095,206319,3.057076,-1.1538760000000001,0.000732,35.91,200.3575,-121.38
1096,206417,2.37168,-0.377956,-0.71614,-5.46,163.415,-64.0325
1097,206515,-0.191296,0.0793,-2.793556,-28.7175,119.0525,-16.8875
1098,206613,-0.6009720000000001,-0.7468840999999999,-1.359812,-51.765,125.9475,54.9325
1099,206711,-1.041392,-1.352248,0.777384,-69.9475,123.9,138.67
1100,206809,0.9950319999999999,0.447984,-1.294908,-149.275,262.1675,158.34
1101,206907,1.7707080000000002,0.7522521,-1.771196,-148.8725,324.345,154.07
1102,207006,1.1751040000000001,0.06661201,-0.577548,-67.5675,310.8525,168.42
1103,207104,1.6406560000000001,1.5982,-1.627968,-31.7275,336.2625,215.11
1104,207202,3.29034,4.806556,-2.508564,81.13,285.25,161.56
1105,207300,3.365736,1.2221959999999998,-0.643428,244.86,137.1825,47.88
1106,207398,0.36892800000000003,-0.47482399999999997,-1.357372,193.095,9.6075,113.085
1107,207496,0.8042239999999999,0.634156,-0.671488,78.5925,41.5275,79.3625
1108,207594,0.586332,0.37112399999999995,-0.9333,57.645,17.4825,60.725
1109,207692,0.8081281,0.242048,-0.7381001,38.85,26.7225,61.775
1110,207790,0.583648,0.514352,-0.771528,13.7025,0.6475,50.3825
1111,207888,0.589016,0.496296,-0.7993439999999999,10.2375,-0.455,52.01
1112,207987,0.7376119999999999,0.5309441,-0.6422081000000001,8.4,-2.7825,64.5575
1113,208085,0.5587601,0.5690081,-0.750544,5.4075,-10.7625,72.1175
1114,208183,0.54656,0.501908,-0.756888,16.0475,-26.67,74.4275
1115,208281,0.6202479999999999,0.39528,-0.7754321,24.745,-35.6125,72.1175
1116,208379,0.624884,0.324764,-0.8210601000000001,29.96,-43.995,66.955
1117,208477,0.550952,0.276696,-0.7951961,34.7375,-47.845,62.1075
1118,208575,0.5355800999999999,0.23692399999999997,-0.8342360000000001,37.03,-48.9475,57.0325
1119,208673,0.567056,0.13151600000000002,-0.8195960999999999,39.2175,-42.175,53.1825
1120,208771,0.52094,0.12029200000000001,-0.813496,36.8025,-39.3225,44.2575
1121,208869,0.534604,0.148596,-0.8108121,33.355,-33.0225,36.5225
1122,208967,0.5124001,0.13664,-0.809836,32.5675,-25.9875,29.3475
1123,209065,0.49434399999999995,0.15762400000000001,-0.8081281,27.405,-21.7175,22.925
1124,209164,0.520452,0.21667199999999998,-0.8178880999999999,22.0325,-15.715,17.9025
1125,209262,0.506788,0.21667199999999998,-0.814472,20.2125,-13.2125,17.3775
1126,209360,0.508008,0.24278000000000002,-0.8249639999999999,17.0625,-10.29,15.715
1127,209458,0.5443640000000001,0.274256,-0.821792,16.275,-10.15,15.9075
1128,209556,0.5248441,0.217404,-0.80642,15.9425,-9.94,17.465
1129,209654,0.52582,0.231312,-0.8127641,16.4675,-11.095,17.2725
1130,209752,0.524356,0.22252800000000003,-0.8115439999999999,16.8875,-9.94,17.29
1131,209850,0.527284,0.2318,-0.8076399999999999,16.24,-9.5375,17.3775
1132,209948,0.526308,0.2135,-0.8235001000000001,15.855,-9.1525,17.57
1133,210046,0.5160600000000001,0.21276799999999998,-0.814472,15.645,-8.19,17.7625
1134,210145,0.528748,0.21057199999999998,-0.8188641,15.4,-5.495,17.045
1135,210243,0.5219159999999999,0.17543599999999998,-0.820816,15.155,-3.9725,17.2375
1136,210341,0.5172800999999999,0.155672,-0.8274040000000001,13.16,-1.5225,15.89
1137,210439,0.52094,0.133224,-0.8210601000000001,10.745,1.6625,14.0
1138,210537,0.523868,0.13785999999999998,-0.829356,8.19,4.76,11.865
1139,210635,0.51972,0.133956,-0.8337481,6.685,7.805,9.52
1140,210733,0.5131319999999999,0.1342,-0.8364321,5.005,11.2175,6.9125
1141,210831,0.524112,0.164944,-0.8410681000000001,3.7275,15.7325,4.48
1142,210929,0.5172800999999999,0.173484,-0.849608,3.7625,20.545,3.3775
1143,211027,0.533872,0.22082,-0.845216,5.5825,25.7775,2.9925
1144,211125,0.518744,0.243024,-0.8664440000000001,10.815,30.8875,4.34
1145,211224,0.520452,0.10321199999999998,-0.8383841000000001,18.375,37.5025,5.04
1146,211322,0.537532,0.19861600000000001,-0.863028,17.955,45.22,1.6275
1147,211420,0.5267960999999999,0.145424,-0.877424,20.02,51.7475,0.2275
1148,211518,0.503616,0.245952,-0.8820601,21.77,61.285,-0.0525
1149,211616,0.49141599999999996,0.225212,-0.8842561,25.3575,72.7825,4.2525
1150,211714,0.46848,0.281332,-0.9440360999999999,28.14,90.09000999999999,10.395
1151,211812,0.44944799999999996,0.296216,-1.010404,32.0425,116.3225,16.905
1152,211910,0.472384,0.462624,-1.071648,42.42,152.9325,25.445
1153,212008,0.478484,0.5260640000000001,-1.11142,63.665,192.99,42.875
1154,212106,0.5104479999999999,0.517524,-1.1529,90.16001,233.31,66.7275
1155,212205,0.54778,0.382836,-1.101172,118.265,275.835,94.115
1156,212303,0.6263479999999999,0.370392,-1.118496,140.595,329.8225,121.2225
1157,212401,0.5607121,0.29572800000000005,-1.231956,156.4325,390.5475,138.985
1158,212499,1.465708,0.6375721,-1.6204040000000002,149.205,462.0525,147.245
1159,212597,2.014464,1.348344,-2.2945759999999997,185.675,490.1575,165.2175
1160,212695,2.676192,1.878068,-2.387052,279.8775,419.1075,235.3225
1161,212793,2.261148,1.8934400000000002,-1.862696,418.355,323.8025,281.8025
1162,212891,1.142896,1.521828,-2.113772,511.9625,265.755,262.0625
1163,212989,0.35477600000000004,1.004548,-2.286524,568.5225,203.735,197.5225
1164,213087,1.752652,0.796904,-1.913448,513.59,63.6475,58.625
1165,213186,0.9955200000000001,1.339316,-1.908568,321.0725,-75.775,-74.025
1166,213284,0.05977999999999999,1.539152,-0.582184,256.1825,-161.4725,-132.09
1167,213382,0.203496,1.512068,-0.35160399999999997,298.1475,-142.7825,-127.715
1168,213480,0.25132,1.376892,-0.09272000000000001,362.46,-115.43,-105.42
1169,213578,0.548756,1.240008,-0.160064,410.025,-93.2575,-87.57
1170,213676,0.794708,1.18096,-0.306952,422.1875,-93.8175,-84.35
1171,213774,0.8420440999999999,1.313208,-0.377224,400.89,-116.725,-95.7075
1172,213872,0.8910879999999999,1.5201200000000001,-0.409188,373.4675,-143.01,-111.3
1173,213970,0.9323239999999999,1.7755880000000002,-0.31451599999999996,356.93,-169.1725,-124.6175
1174,214069,0.9025559999999999,1.9110080000000003,-0.162992,359.135,-188.6325,-131.67
1175,214167,0.918416,1.931504,-0.016347999999999998,364.875,-201.215,-138.775
1176,214265,0.918416,1.9532200000000002,0.111508,362.53,-212.0475,-149.065
1177,214363,0.877912,1.9412639999999999,0.196908,350.98,-217.945,-159.32
1178,214461,0.8967,1.96786,0.215452,328.1775,-220.92,-171.0275
1179,214559,0.907192,2.00812,0.211792,303.0825,-222.67,-180.5125
1180,214657,0.9618481,2.074976,0.189832,278.705,-223.685,-183.89
1181,214755,1.023824,2.160864,0.156404,254.24,-225.96,-184.6775
1182,214853,1.049444,2.2418720000000003,0.17568,231.35,-228.8825,-187.0925
1183,214951,1.086288,2.304824,0.16104000000000002,208.6,-229.3375,-194.5825
1184,215049,1.137528,2.39364,0.134688,185.36,-227.6225,-209.79
1185,215147,1.1995040000000001,2.34606,0.111752,167.7025,-222.145,-227.7975
1186,215246,1.2561120000000001,2.269444,0.079544,149.94,-214.1125,-245.9275
1187,215344,1.346392,2.19722,-0.0051240009999999996,125.8075,-204.5575,-265.3175
1188,215442,1.4269120000000002,2.204052,-0.105652,102.1825,-193.48,-285.25
1189,215540,1.52134,2.268468,-0.20788800000000002,90.30001,-180.845,-302.295
1190,215638,1.607228,2.196976,-0.292556,92.19001,-167.125,-313.8625
1191,215736,1.6682279999999998,2.056676,-0.36844,97.2475,-155.435,-321.7725
1192,215834,1.6926279999999998,1.908568,-0.42626800000000004,97.58,-147.735,-327.425
1193,215932,1.708732,1.7877880000000002,-0.482876,91.7525,-143.115,-329.9275
1194,216030,1.7160520000000001,1.68238,-0.518988,80.7975,-141.9075,-329.42
1195,216128,1.724104,1.63236,-0.538508,70.2625,-143.2375,-323.96
1196,216226,1.707024,1.5006,-0.524356,60.5675,-144.27,-316.365
1197,216324,1.6352879999999999,1.657736,-0.5511961,44.8,-145.53,-309.0675
1198,216423,1.896612,1.8417119999999998,-0.49702799999999997,35.6125,-150.255,-299.4425
1199,216521,1.838784,1.097512,-0.28621199999999997,42.4725,-148.4525,-300.9825
1200,216619,2.088152,0.93086,-0.202764,9.415,-151.2875,-306.3725
1201,216717,2.2543159999999998,0.9145120999999999,-0.038308,-27.6675,-151.8825,-301.525
1202,216815,2.589816,0.834968,0.036112,-44.38,-148.12,-282.4325
1203,216913,2.678632,0.5919439999999999,0.29377600000000004,-38.1675,-149.0125,-255.7275
1204,217011,2.5803,0.10858,0.5941401,-30.9225,-146.1775,-229.1975
1205,217109,2.502464,-0.19739600000000002,0.8483879999999999,-36.1725,-131.46,-215.6
1206,217207,2.646424,-0.25864000000000004,1.018456,-37.87,-104.1075,-205.135
1207,217305,2.794532,-0.460672,1.115324,-23.345,-72.3975,-181.265
1208,217403,2.9197040000000003,-0.5958479999999999,1.250256,-2.1175,-43.575,-151.9875
1209,217501,2.85724,-0.746152,1.27978,7.6475,-20.0025,-121.7125
1210,217600,2.712304,-0.7854361,1.281976,7.9975,4.7075,-96.6875
1211,217698,2.549556,-0.756644,1.172908,3.71,34.615,-75.9675
1212,217796,2.3367880000000003,-0.648308,0.9032879999999999,-1.96,69.3525,-63.3675
1213,217894,0.798124,1.284416,-0.787876,25.62,97.825,-35.1575
1214,217992,-0.312808,-1.901248,-2.157692,264.7925,193.1825,-29.9775
1215,218090,-0.692228,-5.265764,-1.603812,99.03251,177.975,-39.5675
1216,218188,1.036512,-3.9384040000000002,-1.438868,0.175,241.3775,118.9125
1217,218286,3.7405199999999996,2.2240599999999997,-3.469924,-203.8575,291.095,240.485
1218,218384,1.869284,3.5033519999999996,0.155916,-23.5375,202.7025,178.7625
1219,218482,1.8114560000000002,1.8522040000000002,-2.1362200000000002,127.5925,196.49,116.34
1220,218581,1.760704,-1.6804279999999998,-1.735816,211.2075,153.23,88.11251
1221,218679,0.8108121,0.586576,-1.152168,108.115,40.7575,106.5225
1222,218777,1.476688,1.4776639999999999,-0.586332,45.185,40.67,67.9175
1223,218875,0.68076,-0.00976,-1.030412,72.7475,10.745,28.7525
1224,218973,0.758108,0.5160600000000001,-0.741272,37.94,6.8775,22.7675
1225,219071,0.530212,0.39918400000000004,-0.8113001,23.4675,3.395,14.14
1226,219169,0.5724239999999999,0.460672,-0.7983680000000001,27.1425,3.01,9.9925
1227,219267,0.539972,0.394548,-0.785192,23.0825,-11.165,10.8325
1228,219365,0.563884,0.342332,-0.7937320999999999,23.415,-9.765,10.3425
1229,219463,0.5219159999999999,0.360144,-0.7983680000000001,18.0425,-13.0375,8.5575
1230,219561,0.5016641,0.235948,-0.822524,17.2375,-9.8875,7.0175
1231,219659,0.509228,0.27816,-0.8086161000000001,10.78,-5.775,2.9575
1232,219758,0.5060560000000001,0.25790799999999997,-0.793244,7.035,-1.26,-0.91
1233,219856,0.49263599999999996,0.299144,-0.801296,3.9375,0.7875,-2.94
1234,219954,0.499468,0.298168,-0.7954399999999999,2.1,3.605,-3.3775
1235,220052,0.508008,0.325984,-0.785192,-0.63,5.7575,-3.85
1236,220150,0.5221600000000001,0.355508,-0.778604,-2.8,7.0875,-3.535
1237,220248,0.5343600000000001,0.390888,-0.7754321,-3.1325,7.3325,-1.4175
1238,220346,0.522892,0.43676000000000004,-0.762988,-1.4525,5.915,2.765
1239,220444,0.533384,0.432612,-0.755424,2.485,2.1525,9.5725
1240,220542,0.5267960999999999,0.40528400000000003,-0.758596,5.005,-2.7475,17.1325
1241,220640,0.529724,0.372832,-0.781532,5.145,-6.6675,23.5725
1242,220738,0.550952,0.34794400000000003,-0.780068,6.7725,-7.7875,27.37
1243,220837,0.548024,0.343552,-0.775676,6.9825,-7.875,28.4375
1244,220935,0.55388,0.29597199999999996,-0.7673800000000001,8.3125,-6.65,29.3475
1245,221033,0.541924,0.209352,-0.7625,8.96,-3.815,28.105
1246,221131,0.548756,0.245464,-0.7686,4.515,0.9625,23.975
1247,221229,0.533872,0.284016,-0.788852,0.245,4.6025,20.2475
1248,221327,0.55998,0.294508,-0.7771399999999999,0.945,7.7525,19.18
1249,221425,0.5614439999999999,0.323056,-0.7659161,1.6975,9.065,18.585
1250,221523,0.5594920999999999,0.388692,-0.7734800000000001,2.31,9.4675,20.0025
1251,221621,0.554856,0.348432,-0.787388,3.9025,11.1475,26.355
1252,221719,0.5309441,0.244488,-0.778116,6.0025,14.9975,31.185
1253,221817,0.541192,0.332816,-0.813496,3.01,18.9525,30.3625
1254,221915,0.555588,0.25424800000000003,-0.800808,5.74,26.46,32.55
1255,222014,0.552904,0.233752,-0.8049561,5.81,33.8275,30.8525
1256,222112,0.533628,0.273768,-0.8222799999999999,6.8425,42.2975,27.9125
1257,222210,0.552416,0.27938,-0.8113001,11.2175,52.675,25.6725
1258,222308,0.542168,0.303292,-0.8215481,15.5925,62.6325,23.8
1259,222406,0.527772,0.36282800000000004,-0.8361879999999999,18.8125,73.5875,24.255
1260,222504,0.542412,0.373564,-0.8276481,23.3975,87.185,27.1075
1261,222602,0.648308,0.34038,-0.8015399999999999,26.6,102.5325,34.055
1262,222700,0.4941,0.412116,-0.8405800999999999,28.6125,117.11,46.6375
1263,222798,0.584136,0.361852,-0.8413120000000001,38.605,132.5625,53.6025
1264,222896,0.6124400999999999,0.279624,-0.786656,47.285,146.8425,60.305
1265,222994,0.69662,0.252784,-0.768112,51.8175,163.625,70.105
1266,223093,0.5892601,0.300852,-0.8337481,51.94,180.53,83.6325
1267,223191,0.6573359999999999,0.265716,-0.7954399999999999,60.1125,202.335,92.69751
1268,223289,0.697108,0.193248,-0.783728,69.8425,231.735,97.5275
1269,223387,0.750788,0.236192,-0.8147161,74.04251,270.0425,102.55
1270,223485,0.968192,0.211548,-0.809836,78.715,312.9525,100.6425
1271,223583,0.9084121,0.271572,-0.8549761,74.795,370.2125,95.235
1272,223681,0.8430200999999999,0.638792,-0.9125601000000001,74.4275,437.325,104.335
1273,223779,1.615768,0.586576,-1.0340719999999999,74.04251,487.48,133.175
1274,223877,1.6211360000000001,1.0182120000000001,-1.4252040000000001,79.2225,513.31,186.2875
1275,223975,2.488556,0.486292,-1.128012,105.6825,481.11,262.71
1276,224073,2.2262560000000002,0.046848,-0.8769360999999999,97.6675,449.295,300.37
1277,224172,2.495144,0.8759601,-1.235616,10.255,416.5525,276.9375
1278,224270,2.68034,1.575752,-1.6211360000000001,-41.8075,393.05,255.885
1279,224368,2.490752,1.148752,-2.1352439999999997,-63.7525,340.4625,213.395
1280,224466,1.77266,1.256844,-2.745,-17.2025,234.7625,191.59
1281,224564,2.82796,2.512468,-3.424784,-37.555,110.775,158.7425
1282,224662,1.105564,2.428532,-2.666432,-41.8425,-21.595,88.39251
1283,224760,0.5363121,2.112796,-2.023248,25.585,-109.8475,33.8975
1284,224858,0.20447200000000001,1.568676,-1.4752239999999999,93.2575,-125.9125,-8.2425
1285,224956,0.020496,1.1094680000000001,-1.118984,121.7825,-137.6725,-47.7925
1286,225054,0.07710399999999999,0.786656,-0.9916161,113.89,-143.9725,-84.455
1287,225152,0.23521599999999998,0.589504,-0.9530641,86.4675,-158.795,-115.885
1288,225251,0.306708,0.570716,-1.02236,51.73,-179.27,-136.7275
1289,225349,0.410408,0.585112,-1.059936,30.9925,-201.7925,-148.7675
1290,225447,0.44408000000000003,0.596336,-1.073112,25.0075,-225.05,-153.9125
1291,225545,0.51118,0.559248,-1.0645719999999999,30.31,-246.715,-155.47
1292,225643,0.557052,0.49312399999999995,-1.018944,36.855,-268.485,-157.605
1293,225741,0.548512,0.401868,-0.9235399999999999,38.955,-289.345,-162.05
1294,225839,0.5846241,0.321592,-0.8581479999999999,33.985,-307.0725,-167.44
1295,225937,0.6451359999999999,0.28987199999999996,-0.8527800999999999,22.8025,-321.09,-173.4075
1296,226035,0.735904,0.34721199999999997,-0.9093880999999999,10.3775,-333.2,-179.0075
1297,226133,0.8791321,0.393816,-0.975024,3.5875,-342.545,-182.385
1298,226231,0.996008,0.411872,-0.9874681000000001,0.35,-352.24,-184.5725
1299,226329,1.057496,0.42431599999999997,-0.983808,-1.085,-359.94,-184.7825
1300,226428,1.1660760000000001,0.410652,-0.9943001,-3.1675,-364.0175,-183.505
1301,226526,1.294908,0.472384,-1.071648,-9.3625,-366.5025,-181.72
1302,226624,1.486692,0.593896,-1.220732,-17.78,-369.9325,-180.6875
1303,226722,1.6357760000000001,0.69662,-1.387384,-23.0825,-374.605,-183.89
1304,226820,1.772416,0.837408,-1.5384200000000001,-26.88,-381.36,-190.6975
1305,226918,2.016416,1.087508,-1.6836,-28.525,-386.6975,-200.655
1306,227016,2.3241,1.375916,-1.755336,-23.8525,-388.6575,-214.4275
1307,227114,2.6581360000000003,1.462292,-1.685552,-7.805,-387.415,-230.475
1308,227212,2.8430880000000003,0.450912,-1.331508,5.1625,-372.4175,-255.92
1309,227310,3.495544,0.579012,-1.32126,-46.1475,-365.1025,-291.305
1310,227408,3.58924,0.7808001,-0.9713639999999999,-91.4025,-358.2075,-302.9075
1311,227507,4.146048,-0.0976,-0.32452,-86.87,-326.585,-282.52
1312,227605,4.190456,-0.9059721,0.661484,-109.375,-297.745,-259.805
1313,227703,4.28586,-0.8420440999999999,1.491572,-148.1725,-275.2225,-255.15
1314,227801,4.729208,-1.254892,2.287988,-119.455,-223.0375,-192.9725
1315,227899,5.0264,-2.260904,3.092212,-106.9075,-168.6475,-89.1275
1316,227997,4.514976,-2.296284,3.394284,-113.26,-112.9275,-16.625
1317,228095,3.8220160000000005,-1.666764,2.669116,-78.34751,-27.545,44.2225
1318,228193,3.8488559999999996,-1.117276,1.333216,-26.775,58.765,126.21
1319,228291,3.6168120000000004,-0.423096,0.326228,-4.55,92.155,165.375
1320,228389,-2.5742,2.9077479999999998,-6.115616,17.8325,40.145,165.2
1321,228488,-1.899052,2.3018959999999997,-2.027884,188.2825,51.6075,112.735
1322,228586,-2.5122240000000002,-1.782664,3.174684,26.2675,32.6375,175.0
1323,228684,1.168028,-1.729228,-1.298324,75.21500999999999,257.915,252.315
1324,228782,4.021364,-0.031232,-4.296352,-37.695,329.42,210.63
1325,228880,1.785836,0.093696,-0.9638,36.7325,207.9875,206.2725
1326,228978,0.9037761000000001,1.482788,-1.575752,46.025,198.555,162.12
1327,229076,1.599664,0.70394,-1.3825040000000002,55.755,206.6575,61.5825
1328,229174,1.349076,-0.182024,-1.38226,71.68,183.015,47.53
1329,229272,0.8640040000000001,-0.096868,-1.053104,51.3975,146.86,48.335
1330,229370,1.47986,1.036268,-1.7450880000000002,35.315,120.3825,46.7425
1331,229469,0.987956,0.9018241,-0.724436,78.7325,74.06,24.08
1332,229567,0.6453800000000001,0.214964,-1.030412,86.24,54.4775,19.1625
1333,229665,0.785924,0.251076,-0.8376520000000001,72.135,48.9825,25.935
1334,229763,0.855708,0.5751081,-0.9479401,52.78,26.5475,30.8525
1335,229861,0.528016,0.20984,-0.8664440000000001,51.87,19.7925,19.985
1336,229959,0.6168319999999999,0.231312,-0.858392,38.64,14.0525,18.83
1337,230057,0.568032,0.24888000000000002,-0.8166680000000001,28.9975,13.825,17.2025
1338,230155,0.49580799999999997,0.211792,-0.8913321,21.0875,17.9375,13.405
1339,230253,0.49312399999999995,0.200812,-0.8513161,12.18,17.5,10.3075
1340,230352,0.517768,0.20837600000000003,-0.8337481,5.2325,18.235,5.075
1341,230450,0.49288000000000004,0.219112,-0.8422879999999999,-0.3675,16.975,1.61
1342,230548,0.489464,0.266692,-0.8296,-3.7625,15.82,0.56
1343,230646,0.532652,0.310856,-0.79422,-6.3875,13.65,-0.7525
1344,230744,0.554124,0.34867600000000004,-0.77836,-7.42,13.405,-1.05
1345,230842,0.5392399999999999,0.36209600000000003,-0.787876,-6.5975,11.6375,2.03
1346,230940,0.567056,0.32574000000000003,-0.7766521,-4.305,11.7775,7.0
1347,231038,0.548756,0.33305999999999997,-0.7808001,-4.2525,11.025,10.1675
1348,231136,0.5614439999999999,0.3172,-0.775676,-4.865,10.185,13.1775
1349,231234,0.54778,0.281088,-0.796172,-5.6175,10.1325,15.89
1350,231332,0.556808,0.277672,-0.791292,-6.3525,10.9375,16.45
1351,231431,0.5429,0.24644000000000002,-0.7951961,-7.6125,12.8975,15.925
1352,231529,0.580232,0.25961599999999996,-0.7795801,-8.7675,16.31,15.0675
1353,231627,0.580964,0.2867,-0.7732359999999999,-9.135,19.5475,15.54
1354,231725,0.552904,0.2867,-0.772504,-7.14,21.8925,17.22
1355,231823,0.5724239999999999,0.30792800000000004,-0.774212,-6.475,22.9075,20.6675
1356,231921,0.5941401,0.361852,-0.73688,-6.0725,22.6275,25.4975
1357,232019,0.539972,0.205204,-0.7771399999999999,-6.9475,23.3975,32.095
1358,232117,0.599264,0.378444,-0.7951961,-6.1775,28.42,37.485
1359,232215,0.570716,0.23253200000000002,-0.771772,-2.1525,33.7925,42.875
1360,232313,0.609024,0.24570799999999998,-0.775676,-0.42,41.2475,44.1
1361,232412,0.5892601,0.219112,-0.7625,-1.89,46.7775,41.7375
1362,232510,0.5968241,0.23009200000000002,-0.781776,-0.9625,52.78,39.62
1363,232608,0.594384,0.236436,-0.797392,0.2975,60.095,37.2575
1364,232706,0.538508,0.28548,-0.826672,2.5025,70.5425,36.575
1365,232804,0.576084,0.27571999999999997,-0.8044680999999999,9.3625,85.6625,38.2725
1366,232902,0.580476,0.285724,-0.829356,13.3175,101.64,41.1425
1367,233000,0.554124,0.252052,-0.8335040000000001,19.425,118.475,45.15
1368,233098,0.5751081,0.24766,-0.8447280999999999,22.435,135.2225,47.25
1369,233196,0.692472,0.274256,-0.818376,26.0925,153.65,48.3525
1370,233294,0.713212,0.268156,-0.807884,24.7975,173.705,54.1625
1371,233393,0.785192,0.34038,-0.7617681,25.0425,197.0675,59.1325
1372,233491,0.751276,0.183732,-0.8052,21.2625,228.1125,64.645
1373,233589,0.8827921000000001,0.258396,-0.8091041,20.09,267.8025,63.42
1374,233687,0.7829961,0.31232,-0.853756,19.9325,322.7,75.35501
1375,233785,0.450912,0.363072,-1.037976,14.945,387.485,89.0575
1376,233883,0.641232,0.42285200000000006,-0.959408,10.5,461.02,102.445
1377,233981,0.818376,0.6007279999999999,-1.125572,6.755,538.3175,126.735
1378,234079,1.21268,0.907436,-1.26026,12.95,569.5725,161.49
1379,234177,2.4441479999999998,0.57218,-0.9115840000000001,37.0475,573.055,214.6375
1380,234276,2.3319080000000003,-0.15128,-0.5343600000000001,-19.25,549.43,227.045
1381,234374,2.351672,0.349896,-0.6422081000000001,-126.665,487.9,199.3425
1382,234472,2.8626080000000003,1.359324,-1.249036,-219.03,440.72,170.31
1383,234570,4.068455999999999,1.286612,-2.4490279999999998,-262.395,423.4475,142.0125
1384,234668,2.5827400000000003,1.336388,-2.9331240000000003,-212.835,315.7875,144.1825
1385,234766,3.762724,2.10938,-3.3157160000000006,-186.9,145.7225,166.18
1386,234864,1.8058439999999998,2.464156,-3.7990800000000005,-134.715,6.405,159.0925
1387,234962,0.681492,2.20942,-2.230648,-69.685,-149.1,101.3075
1388,235060,0.391864,1.7638759999999998,-1.718492,24.9375,-179.48,60.0075
1389,235158,-0.04148,1.26514,-1.093608,86.3625,-198.45,23.555
1390,235256,-0.063196,0.8723001,-0.8376520000000001,102.795,-199.3075,-12.81
1391,235354,0.007320001,0.605364,-0.696864,85.505,-205.0825,-48.3525
1392,235453,0.15176800000000001,0.49312399999999995,-0.7137001000000001,49.49,-215.215,-80.745
1393,235551,0.285724,0.534604,-0.8117880000000001,13.93,-229.1625,-106.7325
1394,235649,0.444324,0.607316,-0.9240280000000001,-4.97,-248.5175,-124.1625
1395,235747,0.490684,0.636352,-0.9464761,-5.95,-271.425,-136.0275
1396,235845,0.47702,0.597068,-0.9106081,4.83,-291.69,-145.25
1397,235943,0.529968,0.4941,-0.859368,17.22,-307.86,-153.9125
1398,236041,0.5380199999999999,0.380396,-0.763232,21.245,-322.0,-164.15
1399,236139,0.6307401,0.29133600000000004,-0.7849480999999999,14.455,-332.7625,-174.7375
1400,236237,0.726144,0.25254,-0.8117880000000001,0.945,-344.33,-185.22
1401,236335,0.8508280999999999,0.263764,-0.9171961,-12.1275,-354.9175,-192.6575
1402,236433,1.023824,0.26913200000000004,-0.9608721,-20.3525,-365.015,-195.6675
1403,236531,1.0943399999999999,0.26352,-0.9803921,-25.1125,-374.2025,-195.545
1404,236630,1.1934040000000001,0.197884,-1.02724,-27.5275,-379.61,-192.1675
1405,236728,1.3412680000000001,0.22326,-1.118984,-33.88,-383.075,-187.2325
1406,236826,1.49938,0.33379200000000003,-1.2465959999999998,-44.8175,-387.975,-182.735
1407,236924,1.658468,0.486292,-1.413736,-50.1725,-392.91,-179.69
1408,237022,1.7394759999999998,0.618784,-1.530368,-47.6525,-397.53,-179.8475
1409,237120,1.931748,0.8300879999999999,-1.6975080000000002,-43.4875,-399.0875,-183.995
1410,237218,2.2530959999999998,1.159732,-1.80804,-38.64,-398.895,-192.9725
1411,237316,2.623732,1.1089799999999999,-1.6670080000000003,-23.7125,-397.6875,-207.2
1412,237414,2.945812,0.5382640000000001,-1.584292,-15.2425,-382.41,-238.63
1413,237512,3.6580480000000004,0.8396040000000001,-1.587708,-56.2275,-378.1575,-276.43
1414,237610,3.803472,0.989176,-1.16266,-72.7125,-368.55,-289.415
1415,237708,3.930596,0.060267999999999995,-0.360632,-57.61,-342.51,-280.6825
1416,237807,4.334416,-1.010404,0.9137799999999999,-70.4375,-299.145,-274.9425
1417,237905,4.467152,-1.06018,1.8519599999999998,-136.9725,-272.72,-264.3025
1418,238003,5.1671879999999994,-1.475956,2.8713919999999997,-144.725,-218.155,-227.745
1419,238101,5.687151999999999,-2.104012,4.140436,-117.95,-152.565,-171.2375
1420,238199,4.299524,-2.132316,4.069432,-76.265,-56.07,-109.7425
1421,238297,3.748328,-1.85684,2.5571200000000003,-22.89,70.2275,-17.6925
1422,238395,4.039176,-1.1599760000000001,0.571692,-0.5425,153.125,76.125
1423,238493,3.195912,-0.150792,-0.328912,-17.22,149.345,122.2725
1424,238591,-3.0441439999999997,3.3928199999999995,-7.155056,-11.7425,65.43251,131.355
1425,238689,-2.008364,1.8724560000000001,-1.903688,112.5775,61.775,98.6475
1426,238787,-2.999736,-2.56078,4.61282,20.65,43.995,179.41
1427,238886,1.883436,-0.771528,-2.750124,-35.665,321.5625,261.3625
1428,238984,4.5000919999999995,0.9403761,-3.827872,-116.9525,348.46,207.69
1429,239082,1.514996,0.434564,-0.483364,17.6575,196.945,197.2075
1430,239180,0.8481440999999998,1.463756,-1.37616,34.8075,210.56,178.675
1431,239278,1.6540759999999999,0.682712,-1.256356,85.83751,216.86,90.195
1432,239376,1.3412680000000001,0.07417601,-1.469368,107.0475,194.3025,89.845
1433,239474,1.497916,0.590236,-1.549156,119.1575,151.5675,87.5175
1434,239572,1.3825040000000002,0.773724,-1.031876,127.855,99.7325,62.0025
1435,239670,0.8464360000000001,0.438712,-1.036268,123.5325,67.13,49.49
1436,239768,1.1265479999999999,0.371856,-0.966484,97.05501,55.965,44.9925
1437,239866,0.649528,0.26718000000000003,-0.79056,73.7275,19.6875,44.52
1438,239964,0.636596,0.357948,-0.9225639999999999,47.04,30.345,45.6225
1439,240063,0.559736,0.283528,-0.8786440999999999,30.03,14.0,33.1275
1440,240161,0.554124,0.21862399999999999,-0.8893800999999999,22.575,0.5425,24.57
1441,240259,0.532896,0.274988,-0.834724,14.8575,-12.1275,19.67
1442,240357,0.5673,0.228384,-0.824232,9.1875,-10.0275,16.4325
1443,240455,0.5575399999999999,0.186904,-0.8335040000000001,5.6,-6.5625,13.65
1444,240553,0.547292,0.19739600000000002,-0.8310639999999999,3.885,-1.015,8.4525
1445,240651,0.529724,0.24351199999999998,-0.8127641,-0.4725,4.83,4.7425
1446,240749,0.5502199999999999,0.28181999999999996,-0.791292,-4.0425,9.45,3.1675
1447,240847,0.557296,0.292312,-0.791292,-5.215,11.3925,3.4475
1448,240945,0.559248,0.29572800000000005,-0.790804,-5.39,12.4425,4.2525
1449,241043,0.564616,0.331596,-0.778116,-5.3725,12.6875,5.7925
1450,241141,0.549732,0.32086,-0.774456,-4.7075,12.53,8.925
1451,241240,0.5655920999999999,0.3416,-0.781044,-4.69,11.9,12.95
1452,241338,0.563396,0.32574000000000003,-0.772016,-3.325,11.48,17.92
1453,241436,0.5612,0.31646799999999997,-0.7812880999999999,-1.9775,10.4125,22.995
1454,241534,0.546072,0.335744,-0.791536,0.35,9.835,28.56
1455,241632,0.5751081,0.330376,-0.782752,3.2025,11.1475,35.0175
1456,241730,0.6109760000000001,0.222284,-0.7373681,3.6225,11.725,40.6
1457,241828,0.617564,0.251564,-0.7166279999999999,1.575,14.28,41.51
1458,241926,0.589016,0.403088,-0.765184,-5.11,13.055,43.2425
1459,242024,0.58072,0.22472399999999998,-0.781532,4.795,18.305,51.8525
1460,242122,0.595116,0.20105599999999998,-0.764208,6.4575,24.115,52.2725
1461,242220,0.576084,0.21594000000000002,-0.7978801,3.4125,28.28,49.63
1462,242319,0.613416,0.207644,-0.781532,6.58,36.8725,49.2275
1463,242417,0.5814520000000001,0.160796,-0.783972,8.4,44.7475,46.5325
1464,242515,0.6009720000000001,0.137128,-0.780556,9.5725,53.4625,42.665
1465,242613,0.5653481,0.166652,-0.801784,11.62,62.4575,37.065
1466,242711,0.58804,0.170312,-0.7881199999999999,16.52,72.275,30.625
1467,242809,0.5997520000000001,0.197152,-0.800564,21.6475,83.94751,26.18
1468,242907,0.61122,0.225212,-0.792024,25.725,97.51,25.2
1469,243005,0.60512,0.271328,-0.8003201,28.7175,111.3875,29.6275
1470,243103,0.639524,0.191296,-0.81862,32.55,124.285,36.7325
1471,243201,0.644892,0.19739600000000002,-0.8086161000000001,34.23,139.755,42.4375
1472,243299,0.701012,0.165676,-0.7734800000000001,34.72,155.05,45.5525
1473,243397,0.728096,0.223748,-0.7856801,40.425,175.63,47.635
1474,243496,0.726388,0.24912399999999998,-0.788608,45.15,201.635,51.8525
1475,243594,0.8996280999999999,0.226188,-0.741028,43.2425,227.885,58.94
1476,243692,0.597312,0.2196,-0.8674200000000001,39.1475,261.8875,64.33
1477,243790,0.9247601000000001,0.25302800000000003,-0.783972,43.645,309.435,68.215
1478,243888,0.7537159999999999,0.304268,-0.8439959999999999,39.795,372.3475,79.38
1479,243986,0.71492,0.369172,-0.9806360000000001,33.355,447.9825,94.46500999999999
1480,244084,1.021872,0.485804,-1.1228879999999999,24.78,526.4525,114.2225
1481,244182,1.232688,0.687348,-1.1411879999999999,24.745,563.1675,149.2925
1482,244280,2.49368,0.525088,-0.9010921000000001,37.415,566.2825,200.0425
1483,244378,3.049024,0.091012,-1.000156,-1.9075,552.125,226.2225
1484,244476,2.25822,0.30841599999999997,-0.37942,-109.7775,487.795,206.045
1485,244574,3.264232,1.26758,-1.603812,-209.9475,437.57,190.435
1486,244673,3.9098559999999996,1.313696,-2.707424,-252.385,399.035,166.2675
1487,244771,2.4912400000000003,1.140944,-3.157604,-173.565,289.9225,165.8825
1488,244869,3.5370239999999997,2.137196,-3.4926160000000004,-159.39,133.35,176.5225
1489,244967,1.6091799999999998,2.4339,-3.49042,-124.215,-4.7425,165.1475
1490,245065,0.7227279999999999,2.2713959999999997,-2.227232,-54.565,-140.0525,107.2225
1491,245163,0.340136,1.8180439999999998,-1.63236,37.7475,-164.3075,61.0925
1492,245261,-0.046360000000000005,1.3261399999999999,-1.067988,92.9425,-185.2725,11.515
1493,245359,-0.115656,0.922076,-0.766892,102.515,-189.8575,-38.815
1494,245457,-0.11955999999999999,0.643184,-0.62098,81.375,-190.4175,-81.795
1495,245555,0.133712,0.521672,-0.750544,45.815,-190.365,-115.36
1496,245653,0.348188,0.550708,-0.9059721,12.18,-202.825,-140.35
1497,245752,0.44725200000000004,0.56852,-0.99308,-3.185,-225.47,-156.345
1498,245850,0.449692,0.525088,-0.99308,-1.26,-249.48,-164.5175
1499,245948,0.471164,0.401624,-0.9474520000000001,8.225,-270.025,-169.5575
1500,246046,0.494588,0.273036,-0.901336,13.2825,-287.56,-174.3875
1501,246144,0.558272,0.14469200000000002,-0.8888921000000001,6.9125,-303.7475,-180.985
1502,246242,0.671976,0.08759601,-0.9362280000000001,-10.0625,-320.495,-189.0175
1503,246340,0.72102,0.102968,-0.954528,-26.425,-339.885,-195.86
1504,246438,0.7478600000000001,0.10418800000000002,-0.968924,-34.0725,-353.2375,-197.435
1505,246536,0.83204,0.03538,-0.9867360999999999,-35.7,-360.99,-195.23
1506,246634,1.01016,-0.013908000000000002,-1.079944,-39.13,-366.7475,-190.54
1507,246732,1.2219520000000001,-0.031476,-1.237568,-47.95,-375.8475,-184.5375
1508,246831,1.4034879999999998,-0.021228,-1.3642040000000002,-58.6075,-389.4975,-177.9925
1509,246929,1.5279280000000002,0.027083999999999997,-1.488644,-72.94,-405.09,-169.6975
1510,247027,1.6994599999999997,0.107116,-1.589416,-84.08751,-417.41,-160.2825
1511,247125,1.873188,0.232776,-1.659932,-92.34751,-426.4575,-154.14
1512,247223,2.018856,0.43944399999999995,-1.7453319999999999,-94.97251,-430.9025,-154.21
1513,247321,2.26432,0.595116,-1.798036,-87.5,-428.68,-161.7175
1514,247419,2.565904,0.5917,-1.712148,-71.5225,-420.175,-181.7725
1515,247517,2.982656,0.580964,-1.618452,-54.9675,-405.0025,-210.5775
1516,247615,3.4465,0.509228,-1.503284,-40.985,-382.1475,-236.8275
1517,247713,3.7283199999999996,0.516304,-1.24684,-32.095,-356.0725,-257.8625
1518,247811,3.9501160000000004,-0.071004,-0.8105680000000001,-16.5375,-325.5525,-269.6575
1519,247910,4.5933,-1.074576,0.392596,-7.5425,-289.065,-277.3575
1520,248008,4.629656,-0.7105279999999999,1.5555,-38.1325,-287.7525,-266.805
1521,248106,4.892688,-1.9839639999999998,3.185664,-7.21,-235.9525,-187.6525
1522,248204,5.0756879999999995,-3.109048,4.323436,-55.3175,-165.9875,-100.59
1523,248302,4.239012000000001,-1.9307720000000002,4.127748,-117.215,-74.3225,-92.83751
1524,248400,3.688792,-1.248548,2.56566,-68.3025,52.3775,-32.4975
1525,248498,3.6956239999999996,-0.9354959999999999,0.7515201,17.7625,148.8725,53.3925
1526,248596,-1.14436,1.7868119999999998,-5.754251999999999,-2.7125,118.3875,103.145
1527,248694,-0.758352,2.77184,-2.0620439999999998,-25.2875,97.8775,121.205
1528,248792,-2.001532,-1.466684,3.609492,-10.3775,86.7825,213.7975
1529,248890,1.322236,0.427976,-1.724592,-25.655,294.77,279.09
1530,248988,3.718804,0.7759199999999999,-3.106852,-61.915,358.6275,199.1325
1531,249086,1.859768,-0.31402800000000003,-1.1041,17.2025,261.8875,165.935
1532,249185,1.4539959999999998,0.43358800000000003,-1.952,25.8825,247.835,159.8625
1533,249283,1.084824,0.314272,-0.9254921,40.04,225.715,112.7525
1534,249381,1.329312,0.305244,-2.1838,38.0275,216.965,106.12
1535,249479,2.7837959999999997,1.674816,-0.9752681000000001,75.18,155.1725,76.2125
1536,249577,1.033828,0.9921040999999999,-0.8383841000000001,136.0275,74.11251,58.065
1537,249675,1.544032,-0.440176,-1.5433,128.8875,68.04,55.79
1538,249773,0.43651599999999996,0.869128,-0.5321640000000001,63.2625,1.54,60.5675
1539,249871,0.773724,0.23472800000000002,-0.84546,53.1825,26.95,40.4425
1540,249969,0.5785241,0.231068,-0.9137799999999999,42.84,15.68,33.32
1541,250067,0.644648,0.305732,-0.8552200000000001,31.64,2.03,27.965
1542,250165,0.570472,0.217404,-0.850096,28.175,-10.2725,20.9125
1543,250264,0.552904,0.221796,-0.8581479999999999,18.0775,-14.0175,17.36
1544,250362,0.543876,0.18544000000000002,-0.8276481,16.1525,-11.095,13.2475
1545,250460,0.525576,0.24131599999999997,-0.8335040000000001,10.815,-7.385,10.15
1546,250558,0.5463161,0.20447200000000001,-0.8247200000000001,7.21,-2.31,7.525
1547,250656,0.533872,0.242048,-0.8193521,3.185,1.575,4.515
1548,250754,0.5321640000000001,0.254736,-0.8127641,1.2775,5.775,2.765
1549,250852,0.5799880000000001,0.229604,-0.8113001,-0.9975,8.435,2.4325
1550,250950,0.548268,0.319396,-0.798856,-3.78,9.0475,2.7475
1551,251048,0.567056,0.33794,-0.787388,-3.465,9.59,5.145
1552,251146,0.555588,0.31158800000000003,-0.777384,-1.9425,9.0825,8.785
1553,251244,0.553148,0.290848,-0.789828,-1.5925,9.3975,11.8475
1554,251343,0.5575399999999999,0.276696,-0.784216,-2.0475,10.92,14.35
1555,251441,0.565104,0.25254,-0.7893399999999999,-3.2725,13.0025,16.135
1556,251539,0.552416,0.25376,-0.790072,-3.99,15.33,17.01
1557,251637,0.547292,0.246928,-0.793488,-5.0225,18.5675,18.1125
1558,251735,0.559248,0.23521599999999998,-0.785924,-5.88,21.5075,19.88
1559,251833,0.5980439999999999,0.229116,-0.756156,-7.77,23.8,21.3675
1560,251931,0.6097560000000001,0.31158800000000003,-0.78446,-10.7275,22.855,23.6075
1561,252029,0.59292,0.49605200000000005,-0.81252,-8.2425,21.14,28.4025
1562,252127,0.57462,0.27328,-0.7722600000000001,-0.455,20.545,37.485
1563,252225,0.611952,0.346968,-0.7673800000000001,6.6325,22.89,44.8525
1564,252323,0.598532,0.290604,-0.7734800000000001,8.3825,22.12,50.4
1565,252422,0.6290319999999999,0.248392,-0.7617681,14.28,25.97,55.615
1566,252520,0.619028,0.16592,-0.737124,15.5225,30.0125,56.4375
1567,252618,0.6095119999999999,0.150792,-0.764208,12.7575,36.085,53.76
1568,252716,0.6082920999999999,0.11394800000000001,-0.7600600000000001,12.11,43.505,48.09
1569,252814,0.596336,0.172752,-0.775676,12.3025,50.225,41.6675
1570,252912,0.60146,0.155184,-0.7856801,16.5025,57.645,35.8925
1571,253010,0.5675439999999999,0.23448400000000003,-0.797392,21.945,67.4975,31.01
1572,253108,0.6178081,0.258884,-0.7881199999999999,27.2475,79.135,30.6775
1573,253206,0.6375721,0.220088,-0.7951961,30.59,91.8925,35.3325
1574,253304,0.590724,0.227652,-0.818132,31.5175,104.335,42.0
1575,253403,0.612684,0.151524,-0.8164239999999999,36.715,118.7025,45.7975
1576,253501,0.685396,0.141032,-0.789828,39.6025,135.415,47.3725
1577,253599,0.6749041,0.219112,-0.824232,40.915,153.5275,50.295
1578,253697,0.7625,0.211548,-0.790804,52.4125,177.66,53.4275
1579,253795,0.6897880999999999,0.214964,-0.808372,59.0625,207.025,60.7075
1580,253893,0.811056,0.19764,-0.781776,60.27,240.065,67.8125
1581,253991,0.686616,0.150304,-0.8108121,58.7125,278.04,69.9125
1582,254089,0.767868,0.212524,-0.8576601,56.42,333.7425,74.8825
1583,254187,0.942816,0.284504,-0.803492,48.195,408.52,87.0625
1584,254285,1.1289879999999999,0.5158159999999999,-0.9772200999999999,32.1125,487.2875,99.38251
1585,254383,1.085312,1.010404,-1.5103600000000001,24.255,554.435,127.5225
1586,254482,1.866844,0.7378560000000001,-1.20536,45.2375,560.945,188.9125
1587,254580,2.14842,-0.033916,-0.303292,32.1825,537.4425,249.6025
1588,254678,2.34362,-0.010248,-0.9042641,-88.39251,502.8275,235.445
1589,254776,2.960208,1.033828,-1.1655879999999998,-184.4675,452.2875,213.3075
1590,254874,3.3384080000000003,1.6560279999999998,-2.1103560000000003,-204.225,430.815,217.735
1591,254972,3.570208,1.373476,-2.577128,-188.0375,366.4325,185.8675
1592,255070,2.743292,1.541348,-2.826252,-101.045,221.62,176.785
1593,255168,2.889936,2.71084,-4.20656,-67.2175,83.5625,168.6475
1594,255266,0.940132,2.3006759999999997,-2.401204,-24.78,-93.5725,96.0225
1595,255364,0.5458281,1.909056,-1.9014919999999997,52.745,-170.345,35.665
1596,255462,0.090036,1.281,-1.1089799999999999,110.5475,-191.415,-6.8425
1597,255560,-0.09979600000000001,0.8132520999999999,-0.751276,122.115,-193.935,-45.2025
1598,255659,-0.088328,0.510692,-0.6178081,90.0375,-191.6775,-82.04
1599,255757,0.165432,0.44676400000000005,-0.7224841,39.3225,-195.4575,-116.4625
1600,255855,0.359412,0.531188,-0.9001161,-5.5475,-209.055,-141.2075
1601,255953,0.482876,0.57462,-1.036756,-22.3825,-229.18,-154.385
1602,256051,0.548756,0.538996,-1.08336,-18.1475,-253.155,-160.93
1603,256149,0.53314,0.406992,-1.0438319999999999,-5.775,-276.815,-165.27
1604,256247,0.553636,0.245464,-1.0206520000000001,1.2775,-297.6925,-172.3225
1605,256345,0.556808,0.11736400000000001,-0.9323239999999999,-3.1325,-317.9575,-183.26
1606,256443,0.546804,0.022448,-0.9059721,-15.5225,-333.34,-193.095
1607,256541,0.614392,0.0,-0.902068,-27.4925,-343.84,-199.85
1608,256640,0.67588,-0.023912,-0.9552601000000001,-35.875,-351.5575,-200.795
1609,256738,0.7991,-0.12395199999999999,-1.053104,-40.04,-355.46,-196.28
1610,256836,0.966728,-0.156648,-1.142164,-49.8225,-359.9925,-191.9225
1611,256934,1.10776,-0.16348,-1.2341520000000001,-60.375,-367.22,-186.165
1612,257032,1.253428,-0.121512,-1.349564,-67.8475,-374.0625,-178.36
1613,257130,1.399828,-0.03538,-1.462048,-71.68,-381.325,-167.8075
1614,257228,1.545984,0.09906401,-1.603568,-69.93,-386.995,-157.255
1615,257326,1.7221520000000001,0.252784,-1.749724,-64.9775,-391.3,-149.7475
1616,257424,1.872944,0.332084,-1.791204,-59.9725,-393.3825,-152.18
1617,257522,2.076684,0.369172,-1.753872,-59.99,-393.4,-166.3375
1618,257621,2.442684,0.426756,-1.6692040000000001,-64.785,-390.2325,-191.24
1619,257719,2.992172,0.477508,-1.63236,-66.9025,-383.7925,-221.725
1620,257817,3.398432,0.412116,-1.464244,-62.6675,-374.0975,-252.0175
1621,257915,3.522872,0.414312,-1.09312,-55.335,-358.26,-277.3225
1622,258013,3.435764,-0.11834000000000001,-0.6124400999999999,-35.77,-325.5525,-291.41
1623,258111,4.1362879999999995,-1.2695319999999999,0.322812,-28.21,-265.335,-299.775
1624,258209,4.258776,-0.779092,1.0845799999999999,-71.575,-238.175,-321.5275
1625,258307,4.94466,-0.40992,1.921256,-36.5225,-209.9125,-277.69
1626,258405,4.918064,-2.2835959999999997,3.396724,53.06,-159.355,-146.3
1627,258503,4.358084,-3.355488,3.9354760000000004,-44.5725,-112.3325,-48.615
1628,258601,3.649264,-1.605764,3.198352,-137.375,-33.3725,-54.565
1629,258700,3.491396,-0.6844201,1.627724,-89.93251,72.45,17.7625
1630,258798,2.5110040000000002,-0.9974719999999999,-0.003172,3.8325,135.835,85.2425
1631,258896,-1.055544,2.055212,-5.916268,-50.995,76.7375,130.305
1632,258994,-1.529392,2.506368,-0.8784,-146.16,59.185,148.6275
1633,259092,-1.7936439999999998,-0.258884,3.8571519999999997,-77.84,84.2975,249.095
1634,259190,2.096448,2.43268,-1.548424,-76.405,326.1825,284.83
1635,259288,3.141012,2.173796,-2.2484599999999997,-69.80751,350.21,170.4675
1636,259386,1.5677,-0.11126400000000002,-1.083116,74.655,294.525,137.7075
1637,259484,2.146712,-0.101016,-2.104988,64.6975,283.7625,140.98
1638,259582,1.772172,0.376492,-1.729716,78.3125,224.1575,135.415
1639,259680,2.773792,1.269776,-1.497672,80.745,163.87,113.2775
1640,259779,0.644892,0.339648,-0.7117479999999999,137.7775,82.74,74.865
1641,259877,1.16754,0.148596,-1.299056,109.795,74.515,59.85
1642,259975,0.9625799999999999,0.558272,-0.7417600000000001,87.29,40.705,54.3375
1643,260073,0.7141881,0.37942,-0.8615640999999999,70.105,16.835,38.7625
1644,260171,0.6834439999999999,0.29987600000000003,-0.828868,57.3125,19.46,32.1475
1645,260269,0.6409881,0.379176,-0.7673800000000001,39.2,5.9325,29.3475
1646,260367,0.6265921,0.32866799999999996,-0.801296,26.5825,10.9375,28.98
1647,260465,0.582428,0.30256,-0.800076,15.6625,1.8375,22.96
1648,260563,0.554856,0.28304,-0.8437520000000001,11.935,-3.2375,18.0425
1649,260661,0.541192,0.28304,-0.8115439999999999,10.2725,-9.1175,15.4875
1650,260759,0.532652,0.296704,-0.80886,7.98,-9.3275,14.5425
1651,260857,0.5221600000000001,0.25961599999999996,-0.817156,7.455,-7.0875,13.1775
1652,260956,0.553148,0.261324,-0.800808,3.955,-3.0625,12.5125
1653,261054,0.565836,0.25986,-0.796172,1.96,0.175,10.3775
1654,261152,0.5594920999999999,0.25132,-0.79056,0.9625,2.345,7.5075
1655,261250,0.5653481,0.298412,-0.7832399999999999,-1.54,4.2875,5.32
1656,261348,0.548268,0.33305999999999997,-0.776896,-2.45,5.11,4.5675
1657,261446,0.5655920999999999,0.354288,-0.7661600000000001,-2.6075,5.53,6.4575
1658,261544,0.558272,0.355752,-0.7659161,-2.275,5.1625,9.7825
1659,261642,0.5673,0.345016,-0.75884,-2.17,4.8825,13.3875
1660,261740,0.5553441,0.367952,-0.7564001,-2.065,3.4825,17.5175
1661,261838,0.564128,0.366,-0.751276,-0.8575,2.625,23.45
1662,261936,0.564372,0.328912,-0.764208,0.525,1.5575,29.505
1663,262034,0.568276,0.329644,-0.76494,0.7,0.8925,34.3
1664,262133,0.567788,0.307196,-0.7612800999999999,1.26,2.135,37.275
1665,262231,0.57706,0.271816,-0.7503,1.4,4.2,38.64
1666,262329,0.568764,0.298412,-0.775676,0.315,6.4225,39.0775
1667,262427,0.601216,0.227408,-0.726876,0.5425,7.7175,39.48
1668,262525,0.6068279999999999,0.370148,-0.736392,-5.81,5.4425,39.6725
1669,262623,0.5934081,0.36209600000000003,-0.8127641,-1.715,5.4075,46.69
1670,262721,0.581208,0.269376,-0.7705521,10.325,11.2175,52.99
1671,262819,0.5858439999999999,0.208132,-0.7673800000000001,7.8225,16.3975,52.2025
1672,262917,0.586576,0.15738,-0.7832399999999999,8.785,24.2725,50.155
1673,263015,0.595604,0.11614400000000001,-0.7732359999999999,6.895,33.0925,43.2775
1674,263113,0.5875520000000001,0.155916,-0.7883640000000001,5.4425,43.435,34.72
1675,263212,0.5856,0.1769,-0.793244,6.3175,53.4625,28.315
1676,263310,0.5655920999999999,0.208864,-0.8100801,8.19,63.385,23.73
1677,263408,0.56608,0.25864000000000004,-0.808372,12.8275,75.5125,20.7725
1678,263506,0.590968,0.27279200000000003,-0.8100801,17.43,88.46251,21.1575
1679,263604,0.576084,0.290604,-0.811056,22.715,102.2,24.675
1680,263702,0.581696,0.249856,-0.820816,29.225,117.4775,29.47
1681,263800,0.6785640000000001,0.197884,-0.7854361,34.125,132.055,32.375
1682,263898,0.6158561,0.255956,-0.8025161,36.05,145.635,35.5775
1683,263996,0.735416,0.18788,-0.7415161,42.6825,163.1875,40.2325
1684,264094,0.7639640999999999,0.288652,-0.78446,39.2875,180.845,46.025
1685,264193,0.71492,0.18666,-0.764696,41.16,205.24,50.9425
1686,264291,0.7224841,0.202764,-0.746396,39.8475,239.1025,53.9175
1687,264389,0.7610359999999999,0.204228,-0.7937320999999999,30.6075,279.1775,53.5325
1688,264487,0.7198,0.227652,-0.87718,23.2575,340.0775,57.995
1689,264585,0.5604680000000001,0.31964000000000004,-0.966728,10.9025,413.91,69.615
1690,264683,0.796904,0.639524,-1.107272,1.645,492.1175,85.155
1691,264781,0.9699,1.289052,-1.38714,9.66,551.3375,118.9475
1692,264879,1.6023479999999999,0.55388,-0.9232961,60.865,556.78,190.61
1693,264977,2.585912,0.46311199999999997,-1.033828,59.745,547.6275,244.72
1694,265075,2.393152,0.10248,-0.9486720999999999,10.115,519.085,259.245
1695,265173,2.274324,0.590968,-0.9720960999999999,-60.2175,471.1875,239.61
1696,265272,2.8130759999999997,1.402512,-1.470344,-121.1875,460.775,215.7225
1697,265370,3.8166480000000003,1.134844,-2.362652,-188.545,424.3925,159.3375
1698,265468,2.412184,1.108492,-3.4162440000000003,-144.62,292.8275,153.58
1699,265566,3.078304,2.687904,-4.08822,-134.7325,117.775,150.2375
1700,265664,1.199992,2.3799759999999996,-2.9768,-84.1925,-60.7075,105.07
1701,265762,0.666852,2.019832,-2.084492,9.065,-174.3,54.075
1702,265860,0.325984,1.3973879999999999,-1.3085719999999998,100.8175,-199.045,23.135
1703,265958,0.00488,0.9293961,-0.8044680999999999,147.84,-211.54,-1.5225
1704,266056,-0.046848,0.60024,-0.567788,145.8275,-209.895,-27.9475
1705,266154,0.063196,0.411872,-0.495076,113.7325,-210.3675,-54.6525
1706,266252,0.194956,0.45383999999999997,-0.589992,66.815,-218.7325,-80.185
1707,266351,0.3233,0.582916,-0.716384,30.9925,-231.2975,-98.665
1708,266449,0.4087,0.671976,-0.796172,16.4675,-247.415,-108.4825
1709,266547,0.425048,0.684664,-0.820816,18.4975,-264.1275,-114.065
1710,266645,0.5380199999999999,0.626104,-0.8791321,24.1325,-280.14,-120.925
1711,266743,0.6673399999999999,0.5724239999999999,-0.9211,22.4,-300.9125,-133.1575
1712,266841,0.753472,0.538752,-0.921344,13.0375,-325.36,-149.73
1713,266939,0.821304,0.46481999999999996,-0.904752,0.8400001,-348.215,-167.335
1714,267037,0.9128040000000001,0.390156,-0.9208561,-11.9175,-365.4525,-184.275
1715,267135,1.041392,0.308904,-0.9235399999999999,-25.3225,-380.24,-197.295
1716,267233,1.18218,0.23424,-0.9250040999999999,-39.655,-392.6125,-205.45
1717,267331,1.303936,0.1891,-0.964776,-52.745,-401.17,-208.6
1718,267429,1.481568,0.18788,-1.04554,-65.135,-406.28,-206.71
1719,267528,1.64578,0.192028,-1.1387479999999999,-74.4625,-409.255,-200.9525
1720,267626,1.815604,0.21032800000000001,-1.2700200000000001,-82.5825,-410.1125,-194.8625
1721,267724,1.9656639999999999,0.36112,-1.40056,-90.58001,-410.4625,-191.7475
1722,267822,2.161108,0.5489999999999999,-1.521096,-90.79,-408.2225,-193.2875
1723,267920,2.4673279999999997,0.6375721,-1.572824,-80.4475,-401.7475,-203.3325
1724,268018,2.847236,0.632448,-1.51158,-67.13,-392.14,-227.36
