,T,ax,ay,az,gx,gy,gz
0,9250507,0.8814501,-0.05368,-0.16128399999999998,20.4925,-19.5825,-18.445
1,9250649,0.885842,-0.042822000000000006,-0.233508,-20.475,-40.215,-103.4775
2,9250746,0.95221,-0.030866,-0.260104,-64.05,-77.455,-125.65
3,9250843,0.9620920000000001,-0.025376,-0.27218200000000004,17.325,-105.5075,-51.905
4,9250939,0.9675819999999999,-0.030133999999999998,-0.275476,-3.4475,-9.1875,-5.005
5,9251036,0.963922,-0.031842,-0.270352,-1.1025,-4.9,-3.675
6,9251133,0.9612379999999999,-0.032818,-0.26095799999999997,2.1175,-2.5375,-3.675
7,9251229,0.9629459999999999,-0.034526,-0.25559,5.8975,0.07,-3.6925
8,9251326,0.9720960999999999,-0.030378,-0.25851799999999997,9.695,1.68,-3.6225
9,9251423,0.9799041,-0.035746,-0.245342,12.635,1.4175,-3.71
10,9251520,0.978684,-0.041602,-0.253394,13.65,0.1575,-3.9725
11,9251616,0.9801479999999999,-0.047336,-0.223016,13.09,-2.0475,-4.06
12,9251713,0.954528,-0.032574,-0.34733400000000003,10.71,-4.76,-3.99
13,9251810,0.936106,-0.03843,-0.27218200000000004,12.5475,-1.3125,-4.0775
14,9251907,0.9451341000000001,-0.046360000000000005,-0.266692,14.455,4.935,-4.06
15,9252003,0.9541620000000001,-0.050386,-0.2562,14.735,6.58,-3.99
16,9252100,0.961482,-0.055998,-0.257298,14.105,8.5225,-4.0425
17,9252197,0.9677040000000001,-0.053070000000000006,-0.246806,11.585,8.89,-4.1475
18,9252294,0.976,-0.049532,-0.239852,8.365,8.05,-4.375
19,9252390,0.9796600000000001,-0.047214,-0.211548,6.02,5.565,-4.515
20,9252487,1.00101,-0.033672,-0.23851,3.2725,-2.625,-4.2
21,9252584,0.9343981,-0.036356,-0.239486,3.5175,-12.4075,-3.71
22,9252681,0.945744,-0.044652,-0.225456,2.8875,-4.97,-3.5875
23,9252777,0.9585541,-0.044896,-0.24656199999999998,3.57,-1.785,-3.4125
24,9252874,0.969534,-0.043676,-0.24461,4.1125,-1.12,-3.4125
25,9252971,0.9730721,-0.043676,-0.244,4.095,-2.205,-3.605
26,9253067,0.974292,-0.04392,-0.242292,3.57,-3.4475,-3.675
27,9253164,0.9744141,-0.044652,-0.24363400000000002,3.6925,-3.92,-3.955
28,9253261,0.978684,-0.050752,-0.242536,3.605,-3.85,-3.9375
29,9253358,0.968558,-0.042822000000000006,-0.23911999999999997,1.1025,-5.81,-3.71
30,9253454,0.96319,-0.04404201,-0.245952,0.5775,-5.9325,-3.605
31,9253551,0.96441,-0.045994,-0.246074,0.5075,-5.88,-3.535
32,9253648,0.9677040000000001,-0.04392,-0.24412199999999998,0.595,-5.95,-3.5
33,9253745,0.968192,-0.041114,-0.24717199999999998,0.77,-5.7225,-3.57
34,9253841,0.9684360999999999,-0.040504000000000005,-0.248392,0.875,-6.09,-3.675
35,9253938,0.969412,-0.041846,-0.24851399999999998,1.1025,-6.2825,-3.6925
36,9254035,0.9700219999999999,-0.0427,-0.249246,1.155,-6.3525,-3.745
37,9254131,0.9718521000000001,-0.041968,-0.247538,1.2775,-6.51,-3.7625
38,9254228,0.9718521000000001,-0.042334,-0.246928,1.47,-6.6675,-3.675
39,9254325,0.9705101,-0.041968,-0.245464,1.435,-6.79,-3.7275
40,9254422,0.9652639999999999,-0.042334,-0.24583000000000002,1.47,-6.8075,-3.745
41,9254518,0.9592860000000001,-0.042212,-0.24656199999999998,1.4,-6.93,-3.8325
42,9254615,0.9548940999999999,-0.044164,-0.246074,1.365,-6.825,-3.7275
43,9254712,0.9567241,-0.04514,-0.246928,1.4875,-6.685,-3.7275
44,9254809,0.9596520000000001,-0.046604,-0.247294,1.5225,-6.6325,-3.78
45,9254905,0.9623360999999999,-0.046482,-0.247294,1.54,-6.685,-3.745
46,9255002,0.96441,-0.046604,-0.245342,1.575,-6.755,-3.675
47,9255099,0.9646541,-0.045872,-0.24558600000000003,1.5925,-6.6325,-3.7275
48,9255195,0.9630681000000001,-0.044164,-0.243146,1.5225,-6.545,-3.71
49,9255292,0.9596520000000001,-0.044164,-0.241438,1.435,-6.37,-3.71
50,9255389,0.961726,-0.044407999999999996,-0.239486,1.4175,-5.9675,-3.71
51,9255486,0.9642879999999999,-0.04404201,-0.239608,1.435,-5.705,-3.6925
52,9255582,0.9641661,-0.043554,-0.23546,1.3125,-5.845,-3.6575
53,9255679,0.965874,-0.046482,-0.23777800000000002,1.365,-5.915,-3.6225
54,9255776,0.9653860000000001,-0.047580000000000004,-0.24046199999999998,1.295,-5.8625,-3.43
55,9255873,0.9629459999999999,-0.050386,-0.23692399999999997,1.26,-5.6875,-3.325
56,9255969,0.963434,-0.0488,-0.242292,1.1725,-5.74,-3.3425
57,9256066,0.960384,-0.046360000000000005,-0.238754,1.1025,-5.6525,-3.36
58,9256163,0.962458,-0.046604,-0.240096,1.1725,-5.53,-3.29
59,9256259,0.963434,-0.045384,-0.241682,1.225,-5.46,-3.29
60,9256356,0.9635560999999999,-0.04087,-0.24216999999999997,1.2425,-5.3725,-3.29
61,9256453,0.9650200999999999,-0.043432,-0.239242,1.4525,-5.25,-3.29
62,9256550,0.9655081,-0.041602,-0.24107199999999998,1.5225,-5.0925,-3.36
63,9256646,0.969046,-0.04148,-0.23851,1.575,-5.1275,-3.36
64,9256743,0.9711200999999999,-0.042212,-0.23973000000000003,1.365,-5.11,-3.395
65,9256840,0.9697780999999999,-0.04404201,-0.238632,1.3475,-4.9525,-3.3425
66,9256937,0.965874,-0.047092,-0.23826599999999998,1.575,-4.8475,-3.395
67,9257033,0.9674601,-0.052338,-0.23838800000000002,1.61,-4.7775,-3.2725
68,9257130,0.9641661,-0.05160601,-0.24046199999999998,1.575,-4.8825,-3.22
69,9257227,0.96075,-0.048312,-0.24058400000000002,1.5575,-5.145,-3.2725
70,9257324,0.9605060999999999,-0.0488,-0.24216999999999997,1.54,-4.97,-3.36
71,9257420,0.9627020000000001,-0.045262000000000004,-0.24082800000000001,1.5225,-4.8475,-3.3775
72,9257517,0.966484,-0.045018,-0.23973000000000003,1.47,-4.725,-3.3775
73,9257614,0.9684360999999999,-0.047945999999999996,-0.24058400000000002,1.435,-4.7425,-3.4125
74,9257710,0.9684360999999999,-0.0488,-0.24034,1.33,-4.7075,-3.36
75,9257807,0.966118,-0.048556,-0.24095,1.4175,-4.655,-3.2025
76,9257904,0.9663620999999999,-0.048068,-0.23838800000000002,1.2425,-4.62,-3.255
77,9258001,0.966118,-0.0488,-0.239852,1.155,-4.4975,-3.1675
78,9258097,0.9636780999999999,-0.048922,-0.23911999999999997,1.085,-4.48,-3.22
79,9258194,0.96441,-0.051118000000000004,-0.241194,1.015,-4.5325,-3.2725
80,9258291,0.965874,-0.049898000000000005,-0.241804,0.9275,-4.4275,-3.325
81,9258388,0.967216,-0.04819,-0.242902,0.8925,-4.375,-3.3075
82,9258484,0.9675819999999999,-0.047458,-0.239608,0.945,-4.375,-3.2725
83,9258581,0.9680700000000001,-0.045994,-0.239852,0.805,-4.5325,-3.1675
84,9258678,0.9691681000000001,-0.047336,-0.235704,0.8400001,-4.6375,-3.2025
85,9258775,0.968924,-0.047580000000000004,-0.237656,0.8400001,-4.655,-3.185
86,9258871,0.9688021000000001,-0.0488,-0.23668000000000003,0.7175,-4.4625,-3.0975
87,9258968,0.9648979999999999,-0.049532,-0.23521599999999998,0.6825,-4.795,-3.22
88,9259065,0.9648979999999999,-0.049654000000000004,-0.23826599999999998,0.63,-4.6375,-3.3075
89,9259161,0.9680700000000001,-0.048068,-0.23729,0.5775,-4.41,-3.325
90,9259258,0.9656300999999999,-0.04697001,-0.238632,0.5075,-4.6025,-3.3075
91,9259355,0.9651421,-0.047945999999999996,-0.23838800000000002,0.4375,-4.6375,-3.325
92,9259452,0.9668501,-0.047214,-0.239242,0.4725,-4.7425,-3.255
93,9259548,0.9653860000000001,-0.04697001,-0.23997399999999997,0.595,-4.76,-3.255
94,9259645,0.9650200999999999,-0.049776,-0.23997399999999997,0.63,-4.7075,-3.1325
95,9259742,0.9663620999999999,-0.0488,-0.238144,0.6475,-4.585,-3.1325
96,9259838,0.967094,-0.046726,-0.237656,0.77,-4.5325,-3.0625
97,9259935,0.965996,-0.046482,-0.23826599999999998,0.8575,-4.7075,-3.2025
98,9260032,0.965874,-0.04575,-0.237656,0.945,-4.655,-3.22
99,9260129,0.9642879999999999,-0.04404201,-0.23668000000000003,0.9625,-4.585,-3.2025
100,9260225,0.9646541,-0.046238,-0.23546,1.0675,-4.6025,-3.29
101,9260322,0.9651421,-0.046116000000000004,-0.23301999999999998,1.2775,-4.795,-3.3425
102,9260419,0.9633120999999999,-0.043798000000000004,-0.228506,1.4525,-4.8825,-3.3075
103,9260516,0.9600181000000001,-0.045506,-0.22582199999999997,1.47,-4.9,-3.325
104,9260612,0.958432,-0.044164,-0.21777,1.5575,-4.83,-3.255
105,9260709,0.956968,-0.046360000000000005,-0.21618400000000002,1.5575,-4.8125,-3.3425
106,9260806,0.9663620999999999,-0.047336,-0.21618400000000002,1.505,-4.62,-3.4475
107,9260902,0.9799041,-0.053314,-0.219234,1.6625,-4.48,-3.5
108,9260999,0.9918600000000001,-0.05429,-0.22143000000000002,1.7675,-4.865,-3.36
109,9261096,0.996374,-0.055144000000000006,-0.224602,1.9075,-5.53,-3.4125
110,9261193,0.9949100000000001,-0.052703999999999994,-0.231312,2.31,-6.09,-3.3775
111,9261289,0.9856379999999999,-0.051362,-0.231068,2.835,-6.335,-3.3775
112,9261386,0.9738041,-0.047824,-0.234362,3.2375,-6.5625,-3.43
113,9261483,0.9581881,-0.040992,-0.237046,3.8325,-6.5275,-3.57
114,9261580,0.94916,-0.036356,-0.23838800000000002,4.4625,-6.2825,-3.92
115,9261676,0.9451341000000001,-0.03294,-0.235704,4.9175,-5.915,-4.2525
116,9261773,0.9451341000000001,-0.031232,-0.23521599999999998,5.1625,-5.5825,-4.4275
117,9261870,0.950868,-0.035502,-0.23485,5.4775,-5.0925,-4.725
118,9261967,0.9558701,-0.039894,-0.235948,5.74,-4.4975,-4.865
119,9262063,0.9525761,-0.042944,-0.23729,5.95,-4.1125,-4.865
120,9262160,0.952942,-0.043188,-0.23680199999999998,6.02,-3.675,-4.8475
121,9262257,0.9516,-0.043554,-0.23301999999999998,6.02,-3.2025,-4.8825
122,9262354,0.9548940999999999,-0.050752,-0.23387399999999997,5.88,-2.6075,-5.0575
123,9262450,0.9587979999999999,-0.05368,-0.23668000000000003,5.4775,-2.1525,-5.075
124,9262547,0.960628,-0.06112201,-0.23753400000000002,4.6725,-2.1,-5.005
125,9262644,0.9602620999999999,-0.053314,-0.244732,3.5175,-1.925,-4.8125
126,9262740,0.9585541,-0.06344,-0.246196,2.66,-1.785,-4.515
127,9262837,0.9525761,-0.06124401,-0.251198,1.4875,-1.96,-4.305
128,9262934,0.9375700000000001,-0.05587601,-0.251198,0.6825,-2.5025,-4.2875
129,9263031,0.9337880999999999,-0.064294,-0.259372,0.105,-3.1675,-4.4275
130,9263127,0.946842,-0.07881200000000001,-0.261812,-0.1575,-3.3075,-4.62
131,9263224,0.9609940999999999,-0.08052000000000001,-0.259372,-0.735,-3.01,-4.7775
132,9263321,0.964532,-0.06941801,-0.260836,-1.015,-2.73,-4.6375
133,9263418,0.9700219999999999,-0.079422,-0.254614,-0.8400001,-2.4325,-4.2525
134,9263514,0.967216,-0.07808001,-0.256444,-0.7,-2.345,-3.605
135,9263611,0.9514780999999999,-0.057462,-0.241804,0.0525,-1.715,-2.7475
136,9263708,0.9433041,-0.053191999999999996,-0.22557800000000003,0.8400001,-0.28,-2.1875
137,9263805,0.937448,-0.060267999999999995,-0.212036,2.0825,0.91,-1.96
138,9263901,0.931348,-0.059902,-0.183122,3.43,1.9425,-1.9075
139,9263998,0.9358620999999999,-0.03416,-0.179706,3.0625,1.9075,-2.275
140,9264095,0.9431821,-0.04331,-0.162626,4.8475,1.33,-3.675
141,9264192,0.9469641,-0.04575,-0.141154,5.425,0.875,-5.8625
142,9264288,0.9646541,-0.040626,-0.129442,5.8275,0.4725,-8.645
143,9264385,0.972218,-0.058803999999999995,-0.13115,7.035,0.8400001,-11.69
144,9264482,0.9828321,-0.062464,-0.131638,6.8075,-0.9275,-13.825
145,9264579,1.030412,-0.07222401,-0.126026,6.7375,-1.8025,-15.085
146,9264675,1.071038,-0.09162200000000001,-0.121268,6.0725,-2.2925,-15.47
147,9264772,1.095072,-0.09125599999999999,-0.12468399999999999,5.0575,-3.5,-15.0675
148,9264869,1.105808,-0.082228,-0.13602999999999998,3.9375,-3.885,-14.21
149,9264966,1.109224,-0.08344800000000001,-0.14469200000000002,3.1325,-4.69,-12.81
150,9265062,1.090314,-0.07515201,-0.159942,2.3975,-7.07,-11.095
151,9265159,1.04859,-0.066856,-0.170434,1.7325,-10.3775,-9.555
152,9265256,1.003084,-0.062586,-0.174948,1.1025,-12.2675,-8.575
153,9265352,0.964044,-0.07393200000000001,-0.176778,0.805,-13.02,-7.9625
154,9265449,0.93696,-0.08442401,-0.169458,0.385,-12.7225,-7.2625
155,9265546,0.926834,-0.089426,-0.168238,-0.595,-11.375,-6.4225
156,9265643,0.9317141,-0.101016,-0.169824,-1.4875,-9.73,-5.6525
157,9265739,0.9439139999999999,-0.109922,-0.164456,-2.555,-8.4175,-4.8125
158,9265836,0.9602620999999999,-0.11431400000000001,-0.159576,-4.0075,-7.1225,-3.9725
159,9265933,0.9701440999999998,-0.10394400000000001,-0.160796,-5.7225,-6.6325,-3.0275
160,9266030,0.973194,-0.100162,-0.162992,-7.0175,-6.9475,-2.38
161,9266126,0.9761219999999999,-0.087962,-0.17385,-8.3125,-6.44,-1.785
162,9266223,0.9834421,-0.08723001,-0.179828,-9.065,-6.09,-1.4525
163,9266320,0.987102,-0.08771799999999999,-0.18251199999999998,-9.5375,-6.0375,-1.3125
164,9266417,0.9825879999999999,-0.082838,-0.183366,-10.0275,-5.81,-1.3125
165,9266513,0.9795381,-0.09162200000000001,-0.184342,-9.8,-5.7575,-1.5925
166,9266610,0.9867360999999999,-0.081252,-0.180316,-10.0975,-5.915,-1.9425
167,9266707,0.998692,-0.07076001,-0.172996,-10.5525,-6.02,-2.38
168,9266804,1.0054020000000001,-0.05209400000000001,-0.168848,-10.8325,-5.705,-2.8
169,9266901,1.00894,-0.062341999999999995,-0.158844,-10.3425,-6.9475,-2.765
170,9266997,0.9980821,-0.06344,-0.159576,-10.4475,-8.8375,-2.7475
171,9267094,0.990518,-0.052338,-0.16909200000000002,-10.0625,-10.29,-2.94
172,9267191,0.9823440999999999,-0.04514,-0.174216,-9.4325,-10.99,-3.465
173,9267288,0.9784401,-0.05246,-0.174704,-8.47,-11.4625,-4.1125
174,9267385,0.9752681000000001,-0.053924,-0.178852,-7.805,-11.1125,-4.5325
175,9267481,0.9795381,-0.069784,-0.17580199999999999,-6.615,-10.6925,-5.145
176,9267578,0.99369,-0.08430201,-0.17433800000000002,-6.09,-10.0625,-5.5825
177,9267675,1.0065,-0.06563601,-0.185684,-5.6525,-10.0275,-5.6875
178,9267772,0.9924700000000001,-0.003904,-0.193736,-5.8975,-11.6375,-6.1425
179,9267869,0.9796600000000001,0.011101999999999999,-0.193004,-3.6925,-13.7375,-7.1225
180,9267966,0.9791719999999999,0.012688,-0.202154,-1.4,-15.2425,-8.4
181,9268062,0.9799041,0.008662000999999999,-0.20313,0.9975,-15.925,-9.7125
182,9268159,0.9791719999999999,0.008174001,-0.2074,2.5725,-16.3975,-10.5175
183,9268256,0.9869800999999999,-0.010492,-0.21166999999999997,4.6025,-16.3275,-10.43
184,9268353,0.9964959999999999,-0.030256,-0.221308,6.4225,-16.205,-9.485
185,9268449,0.9873460999999999,-0.043798000000000004,-0.22448,7.525,-17.2025,-8.5575
186,9268546,0.9784401,-0.021472,-0.23119,8.2425,-15.9775,-7.525
187,9268643,0.9736819999999999,-0.009516001,-0.22716399999999998,10.2025,-16.345,-6.72
188,9268740,0.9812460999999999,0.006832001,-0.23448400000000003,11.165,-15.225,-6.9125
189,9268837,0.868274,0.050996,-0.287432,11.41,-18.41,-8.2775
190,9268934,1.02419,-0.000488,-0.169702,32.6375,-137.6725,-3.605
191,9269030,1.044198,0.09650201,-0.196176,7.9975,-23.1175,-4.06
192,9269127,1.087264,0.137738,-0.369172,-3.3075,72.03,-10.9725
193,9269224,0.810446,0.10418800000000002,-0.22814,12.7225,-34.5275,-9.1
194,9269321,0.8550979999999999,0.13456600000000002,-0.261446,5.46,-52.0625,-7.5075
195,9269418,0.895114,0.144814,-0.27633,1.085,-20.2125,-3.535
196,9269514,0.8870620000000001,0.074054,-0.2745,6.0725,-24.675,0.77
197,9269611,0.8977980999999999,0.09845401,-0.265106,3.5,-21.5075,5.6525
198,9269708,1.016382,0.038551999999999996,-0.279502,2.065,-4.48,8.3475
199,9269805,1.028704,-0.032086,-0.21289,0.1225,-11.0425,8.6975
200,9269902,1.01504,-0.042822000000000006,-0.216306,-2.17,-21.35,6.6675
201,9269998,1.0354139999999998,-0.027694,-0.177876,-0.8400001,-21.84,5.0575
202,9270095,1.0249219999999999,-0.020984,-0.141398,0.6475,-25.7775,3.7625
203,9270192,1.021628,0.009882,-0.129564,0.8400001,-24.15,1.575
204,9270289,1.0065,0.030866,-0.14274,1.225,-22.19,-1.3475
205,9270386,1.001742,0.057096,-0.13480999999999999,1.225,-21.0175,-5.495
206,9270482,1.010404,0.078202,-0.135908,0.9275,-19.9675,-9.2925
207,9270579,1.030412,0.066246,-0.128588,1.155,-18.2,-12.9325
208,9270676,1.047858,0.041358,-0.119316,0.14,-19.0575,-16.73
209,9270773,1.045662,0.024644,-0.108946,-2.17,-19.4775,-19.1975
210,9270870,1.028704,0.004636001,-0.102846,-5.11,-18.76,-19.2675
211,9270967,1.001132,-0.023912,-0.104554,-8.2775,-18.2875,-17.7625
212,9271063,0.9825879999999999,-0.047458,-0.10650599999999999,-10.885,-18.2175,-15.54
213,9271160,0.9472079999999999,-0.057462,-0.105896,-13.2125,-18.8125,-12.985
214,9271257,0.9054840000000001,-0.06527000000000001,-0.085156,-14.105,-19.7575,-10.5175
215,9271354,0.88023,-0.055998,-0.081618,-15.9775,-19.635,-8.4
216,9271451,0.874252,-0.039284,-0.08064199,-17.3425,-20.405,-6.86
217,9271547,0.879864,-0.02196,-0.090158,-18.7075,-20.79,-5.7575
218,9271644,0.8930401,-0.01342,-0.09259801,-18.935,-20.6325,-4.725
219,9271741,0.8931620000000001,0.008052001,-0.089792,-19.425,-19.705,-3.99
220,9271838,0.901702,0.026718000000000002,-0.071004,-19.04,-18.3575,-3.3425
221,9271935,0.9224421,0.06527000000000001,-0.066734,-19.075,-15.9775,-3.115
222,9272031,0.9113399999999999,0.098088,-0.052338,-17.7625,-14.455,-3.36
223,9272128,0.917074,0.131028,-0.033672,-15.7675,-15.505,-3.78
224,9272225,0.924394,0.155672,-0.059048,-14.665,-14.1925,-4.6025
225,9272322,0.9049959999999999,0.17543599999999998,-0.07222401,-11.9,-14.945,-5.1275
226,9272419,0.8916980999999999,0.162992,-0.058926,-8.2775,-16.2575,-5.5125
227,9272516,0.89792,0.158966,-0.040138,-5.3375,-14.245,-5.6175
228,9272612,0.91805,0.145912,-0.028914,-1.82,-11.3225,-5.0225
229,9272709,0.954284,0.127002,-0.026595999999999998,0.9625,-10.815,-3.78
230,9272806,0.9919821,0.111996,-0.025254,3.85,-11.0775,-2.1175
231,9272903,1.006378,0.115168,-0.03721,6.4925,-12.8975,-0.7525
232,9272999,1.015406,0.121024,-0.05563200000000001,8.925,-16.1175,0.2275
233,9273096,1.00284,0.130418,-0.057096,11.725,-17.36,0.7
234,9273193,0.9831981,0.13078399999999998,-0.049532,14.56,-15.995,0.35
235,9273290,0.9713639999999999,0.12675799999999998,-0.028669999999999998,16.7825,-12.1625,-0.56
236,9273387,0.980514,0.110776,-0.017324000000000003,17.64,-6.2475,-2.1525
237,9273484,0.9972281,0.088328,0.016104,18.235,0.875,-3.885
238,9273580,1.019066,0.064294,0.047336,17.85,6.8425,-5.9325
239,9273677,1.036756,0.05355801,0.07893401,16.8,10.4825,-6.5625
240,9273774,1.087508,0.07112601,0.10187,14.28,14.7875,-7.21
241,9273871,1.124962,0.05612,0.10858,12.3375,22.6975,-8.89
242,9273968,1.166564,0.041602,0.10540799999999999,9.835,30.3975,-11.7425
243,9274064,1.18828,0.038551999999999996,0.119926,6.9825,33.425,-14.875
244,9274161,1.21939,0.069784,0.060512,4.7075,33.9675,-17.2025
245,9274258,1.309182,0.145058,-0.325862,-2.7125,31.7975,-18.8825
246,9274355,1.398364,0.137372,-0.812032,-12.705,22.19,-21.595
247,9274451,1.292468,-0.11394800000000001,-0.602558,-7.4375,12.635,-25.165
248,9274548,1.1659540000000002,-0.422242,-0.258762,-0.3325,10.325,-25.2525
249,9274645,1.1476540000000002,-0.528992,-0.243756,-14.5075,10.9725,-18.4625
250,9274742,1.252086,-0.390278,-0.20447200000000001,-23.24,22.68,-17.64
251,9274839,1.244644,-0.188368,-0.30439,-33.3025,30.3275,-16.7475
252,9274936,1.17608,-0.02135,-0.365634,-34.8775,11.8825,-11.655
253,9275032,1.083238,0.019642,-0.52704,-27.1425,-6.5625,-9.8175
254,9275129,0.962458,-0.024278,-0.602436,-14.07,-17.3425,-10.4475
255,9275226,0.8985301,0.022082,-0.558516,-8.75,-20.86,-11.375
256,9275323,0.9296399999999999,0.080886,-0.544852,-6.7725,-15.715,-13.51
257,9275420,0.9528200000000001,0.111874,-0.5288701,-7.6475,-10.8675,-18.06
258,9275516,1.034438,0.215452,-0.505202,-11.3225,-8.925,-21.6475
259,9275613,1.140822,0.154818,-0.49849209999999994,-9.24,-3.325,-22.715
260,9275710,1.2494020000000001,0.055510000000000004,-0.447496,-6.405,2.1,-21.0
261,9275807,1.339682,0.040626,-0.410042,-10.955,4.6725,-16.205
262,9275904,1.357982,0.07564,-0.39833,-14.035,3.3075,-9.9225
263,9276000,1.295884,0.066124,-0.37637,-15.645,-2.765,-3.22
264,9276097,1.19133,0.06124401,-0.367708,-16.0475,-9.5025,2.66
265,9276194,1.0906799999999999,0.0671,-0.34648,-13.6675,-12.9675,7.7875
266,9276291,1.041636,0.094306,-0.335988,-11.725,-9.66,12.4775
267,9276388,1.003938,0.106628,-0.31890799999999997,-8.2075,-3.5525,17.2375
268,9276485,0.9713639999999999,0.138226,-0.29682600000000003,-5.775,-1.8375,21.105
269,9276581,0.9086559999999999,0.154574,-0.27571999999999997,-2.3975,-3.045,24.395
270,9276678,0.85156,0.12456199999999999,-0.24778200000000003,1.61,-4.9525,26.2675
271,9276775,0.827892,0.08869401,-0.225456,4.69,-3.92,27.055
272,9276872,0.808372,0.053191999999999996,-0.198494,5.67,-1.0675,26.2675
273,9276969,0.7821421,-0.004514,-0.192638,7.5775,-1.8375,24.8325
274,9277065,0.721508,-0.057584,-0.17641199999999999,9.7825,-4.8825,23.1875
275,9277162,0.662338,-0.035624,-0.17921800000000002,8.785,-9.275,20.7725
276,9277259,0.632448,-0.012078,-0.184586,7.42,-11.2875,18.83
277,9277356,0.623908,-0.017934000000000002,-0.18287799999999999,7.14,-9.5725,19.39
278,9277453,0.63318,-0.035868000000000004,-0.18605,6.1075,-7.8575,20.7375
279,9277549,0.652456,-0.056974000000000004,-0.183732,4.725,-8.2075,21.6475
280,9277646,0.659288,-0.072102,-0.176534,3.4125,-8.8725,21.7175
281,9277743,0.6533100000000001,-0.10430999999999999,-0.16714,2.4675,-8.9075,20.51
282,9277840,0.6497721,-0.134688,-0.163846,0.91,-8.4525,17.9025
283,9277937,0.65758,-0.144204,-0.161894,-1.68,-8.7675,14.2975
284,9278033,0.6736840000000001,-0.146644,-0.15579400000000002,-4.48,-8.575,10.71
285,9278130,0.6882020000000001,-0.138714,-0.135542,-6.65,-6.8425,6.825
286,9278227,0.68747,-0.12248800000000001,-0.11650999999999999,-8.1375,-5.705,3.1325
287,9278324,0.6762461,-0.10931199999999999,-0.077348,-9.3275,-5.0225,-0.105
288,9278421,0.6633141,-0.10321199999999998,-0.05172801,-11.095,-2.695,-3.2375
289,9278517,0.682712,-0.11919400000000001,-0.058316,-10.885,1.19,-6.58
290,9278614,0.7269979999999999,-0.13602999999999998,-0.09516001,-12.075,3.6575,-11.0075
291,9278711,0.756034,-0.1403,-0.089304,-14.28,2.6075,-15.855
292,9278808,0.769454,-0.10418800000000002,-0.025742,-20.51,2.905,-20.335
293,9278905,0.8033701,-0.09625801,0.008174001,-24.955,7.4375,-22.7675
294,9279002,0.8884040000000001,-0.12871,-0.017568,-28.8225,11.3575,-22.295
295,9279098,1.0004,-0.162992,-0.077836,-32.3225,14.805,-20.1775
296,9279195,1.081286,-0.131882,-0.118096,-37.87,18.6025,-17.1325
297,9279292,1.125328,-0.014762,-0.08906,-40.3375,22.2775,-12.145
298,9279389,1.1923059999999999,0.17055599999999999,-0.060267999999999995,-41.475,26.8975,-6.16
299,9279486,1.294298,0.28243,-0.013175999999999998,-34.545,29.9425,2.38
300,9279583,1.37555,0.335988,0.032208,-22.5925,26.7575,11.025
301,9279679,1.345172,0.327204,0.100772,-7.5425,18.97,17.2725
302,9279776,1.3468799999999999,0.245342,0.237168,5.4775,16.4325,18.6725
303,9279873,1.377258,0.127856,0.257176,8.4,19.355,19.845
304,9279970,1.3557860000000002,-0.07490801,-0.158112,9.7125,9.24,21.0175
305,9280067,1.382016,-0.25522399999999995,-0.61427,15.365,-12.3375,20.055
306,9280163,1.411662,-0.04148,-0.517646,4.1825,-14.35,20.965
307,9280260,1.401414,0.18849000000000002,-0.6764899999999999,-3.85,-5.705,24.4125
308,9280357,1.37677,0.205814,-0.8114220999999999,10.92,-12.0925,27.2475
309,9280454,1.4093440000000002,0.246928,-0.869616,28.3325,-10.605,30.8525
310,9280551,1.3794540000000002,0.298168,-0.796782,39.025,-3.99,35.14
311,9280647,1.2342739999999999,0.306952,-0.645258,46.9875,-10.1325,38.885
312,9280744,1.09617,0.135054,-0.47506800000000005,48.335,-17.57,41.3175
313,9280841,1.008574,-0.11321600000000001,-0.393938,46.0075,-18.655,41.475
314,9280938,0.984296,-0.212646,-0.40821199999999996,36.8375,-17.5525,38.3775
315,9281035,1.012966,-0.296948,-0.46591800000000005,27.055,-15.9425,32.9
316,9281131,1.054202,-0.374906,-0.52155,21.5075,-16.7475,26.5475
317,9281228,1.105808,-0.320616,-0.525576,15.855,-14.6825,19.81
318,9281325,1.159366,-0.23826599999999998,-0.46298999999999996,13.86,-11.69,13.0375
319,9281422,1.1964540000000001,-0.16104000000000002,-0.405406,13.37,-10.1675,6.7025
320,9281519,1.209752,-0.113826,-0.356362,13.335,-10.0275,1.54
321,9281616,1.175592,-0.07039400000000001,-0.30536599999999997,11.62,-11.9875,-2.9575
322,9281712,1.118252,-0.041358,-0.27279200000000003,9.03,-14.3325,-8.1375
323,9281809,1.0316319999999999,-0.026474,-0.25522399999999995,6.335,-15.3825,-13.8075
324,9281906,0.92171,-0.036112,-0.235094,3.5,-17.9375,-18.5675
325,9282003,0.8602221,-0.046360000000000005,-0.21313400000000002,1.1025,-19.3025,-21.805
326,9282100,0.786412,-0.035013999999999997,-0.19459,-1.155,-16.8175,-25.655
327,9282196,0.720532,0.007808001,-0.17751,-2.2225,-18.1475,-27.1425
328,9282293,0.6675840000000001,0.015128,-0.15823399999999999,-0.8400001,-20.055,-27.265
329,9282390,0.6124400999999999,0.044164,-0.174094,-1.155,-20.8425,-26.67
330,9282487,0.5620541,0.039528,-0.162748,1.155,-21.525,-25.3925
331,9282584,0.5325300000000001,0.00061,-0.16287000000000001,2.8525,-20.2475,-23.9225
332,9282681,0.517402,-0.0064659999999999995,-0.162992,4.375,-18.5675,-21.7525
333,9282777,0.505202,0.0061,-0.179096,4.3225,-18.165,-20.02
334,9282874,0.5002,0.03294,-0.188978,6.09,-18.34,-19.705
335,9282971,0.516914,0.039162,-0.195444,8.0325,-17.9375,-20.37
336,9283068,0.577304,0.069052,-0.204716,10.6575,-15.82,-21.0
337,9283165,0.6263479999999999,0.09613601,-0.200568,13.8775,-11.9525,-20.4925
338,9283261,0.661972,0.10614000000000001,-0.191906,16.94,-11.2875,-18.725
339,9283358,0.693326,0.10418800000000002,-0.180804,20.0375,-11.375,-15.19
340,9283455,0.7139439999999999,0.099552,-0.16811600000000002,22.3825,-10.2375,-10.7275
341,9283552,0.72346,0.077348,-0.139812,25.2525,-9.2575,-6.0025
342,9283649,0.732854,0.047458,-0.106018,29.1725,-8.8025,-1.575
343,9283745,0.727486,0.020496,-0.04392,33.88,-7.2275,2.0125
344,9283842,0.7468840999999999,0.008052001,-0.034648000000000005,36.3475,-5.1275,3.99
345,9283939,0.7548140999999999,-0.004392,-0.008662000999999999,39.34,-1.8725,5.46
346,9284036,0.7135779999999999,-0.013541999999999998,0.039894,40.0925,2.5375,6.5275
347,9284133,0.6973520000000001,-0.001342,0.11053199999999999,39.2,11.55,6.6325
348,9284230,0.7579859999999999,0.001952,0.126636,38.5525,24.15,4.935
349,9284326,0.8762040000000001,-0.005856,0.06112201,34.1075,29.855,2.905
350,9284423,0.9598959999999999,-0.044164,-0.037576,26.215,27.0025,1.6625
351,9284520,0.9982040000000001,-0.101992,-0.11053199999999999,17.0975,24.885,0.805
352,9284617,1.063108,-0.128222,-0.14396,7.4025,27.685,-2.135
353,9284714,1.1224,-0.19215,-0.140178,1.435,32.0075,-6.3175
354,9284810,1.232688,-0.258396,-0.08174001,-1.1025,34.195,-10.57
355,9284907,1.38165,-0.33061999999999997,0.026718000000000002,-2.625,36.1725,-13.93
356,9285004,1.413736,-0.289018,0.111874,-5.635,29.3125,-14.4725
357,9285101,1.366644,-0.22801799999999997,0.18470799999999998,-1.505,17.885,-13.8775
358,9285198,1.350906,-0.09259801,-0.091378,1.1025,14.07,-13.86
359,9285294,1.3435860000000002,0.049288,-0.5734,-3.43,3.0975,-16.52
360,9285391,1.355298,-0.156892,-0.44639799999999996,-6.1425,1.8025,-26.075
361,9285488,1.309182,-0.398818,-0.47811800000000004,-10.85,11.9875,-35.595
362,9285585,1.2526959999999998,-0.39345,-0.5214281,-21.7,0.28,-39.7425
363,9285682,1.256844,-0.311344,-0.662582,-25.2525,-0.7175,-44.5725
364,9285779,1.262944,-0.261934,-0.679662,-28.56,3.85,-48.72
365,9285875,1.152778,-0.29877800000000004,-0.5988979999999999,-27.1775,-6.0375,-48.2125
366,9285972,1.07055,-0.1769,-0.533506,-26.11,-16.275,-46.2175
367,9286069,1.109956,-0.02806,-0.49288000000000004,-21.49,-10.71,-46.445
368,9286166,1.18157,0.07686,-0.47213999999999995,-17.465,-6.195,-46.655
369,9286263,1.2347620000000001,0.13725,-0.5130100000000001,-13.0725,-4.69,-45.6575
370,9286359,1.26819,0.24875799999999998,-0.541558,-14.3675,-6.9125,-44.59
371,9286456,1.307962,0.20679,-0.507886,-11.83,-8.47,-42.21
372,9286553,1.368718,0.16530999999999998,-0.49300200000000005,-12.0225,-5.495,-38.605
373,9286650,1.3801860000000001,0.12041400000000001,-0.44639799999999996,-14.07,-4.0425,-33.6525
374,9286747,1.350296,0.14457,-0.41663,-17.255,-4.305,-26.7225
375,9286843,1.3024719999999999,0.138104,-0.381616,-17.675,-3.92,-18.2525
376,9286940,1.2190239999999999,0.086132,-0.33366999999999997,-15.26,-5.81,-9.485
377,9287037,1.126914,0.022692,-0.28621199999999997,-12.4425,-9.1525,-0.77
378,9287134,1.028338,-0.000244,-0.24875799999999998,-11.0425,-12.5475,7.4025
379,9287231,0.9774639999999999,-0.00549,-0.234362,-9.7475,-12.6175,15.435
380,9287327,0.9289081,-0.040992,-0.22338200000000002,-10.045,-11.27,21.9625
381,9287424,0.8271601000000001,-0.123464,-0.20252,-8.7675,-15.5575,27.23
382,9287521,0.741028,-0.140178,-0.187392,-10.29,-20.72,29.715
383,9287618,0.660142,-0.09784401,-0.183976,-14.5425,-21.63,29.8725
384,9287715,0.56791,-0.10943399999999999,-0.183122,-16.45,-23.87,28.525
385,9287811,0.478484,-0.135176,-0.176046,-17.3425,-28.14,25.9
386,9287908,0.438346,-0.117486,-0.165188,-20.545,-28.7175,21.175
387,9288005,0.45164399999999993,-0.08344800000000001,-0.17055599999999999,-23.87,-24.465,18.865
388,9288102,0.48312,-0.038064,-0.163358,-27.1425,-20.9825,18.6025
389,9288199,0.509594,-0.03599,-0.169946,-29.6975,-18.62,18.585
390,9288296,0.5404601,-0.074298,-0.160796,-30.0475,-17.045,18.795
391,9288392,0.5777920999999999,-0.08503401,-0.164944,-34.825,-14.6475,17.885
392,9288489,0.58865,-0.093086,-0.135054,-37.765,-12.7225,16.4675
393,9288586,0.595238,-0.11053199999999999,-0.12505,-40.0225,-13.335,14.3675
394,9288683,0.604144,-0.12627,-0.09333,-41.0025,-14.105,10.9025
395,9288780,0.624518,-0.104432,-0.041968,-42.525,-10.0625,6.9125
396,9288876,0.62769,-0.07527400000000001,0.009028000999999999,-41.4575,-6.3875,3.6575
397,9288973,0.6489180999999999,-0.031842,0.037576,-39.8825,-2.4675,0.5075
398,9289070,0.68076,0.009882,0.042456,-39.13,2.3275,-2.7825
399,9289167,0.699792,0.046116000000000004,0.00427,-39.34,6.1775,-5.7575
400,9289264,0.694058,0.029768,-0.05355801,-38.3075,7.6125,-8.2075
401,9289361,0.65514,0.028792,0.008662000999999999,-38.1325,13.65,-10.0625
402,9289457,0.7104060000000001,0.017812,0.00244,-37.17,25.2525,-10.85
403,9289554,0.86803,0.000244,-0.04697001,-33.1975,29.6975,-10.8675
404,9289651,1.025288,0.05770599999999999,-0.144326,-31.955,32.1475,-10.6575
405,9289748,1.145092,0.134932,-0.157868,-28.35,29.855,-11.6025
406,9289845,1.226954,0.142374,-0.11760799999999999,-22.9075,25.76,-9.7825
407,9289942,1.270874,0.135298,-0.14164200000000002,-12.2675,20.475,-3.99
408,9290038,1.271728,0.189588,-0.10418800000000002,-5.075,13.9825,1.61
409,9290135,1.264408,0.36953800000000003,0.04392,2.485,10.745,3.955
410,9290232,1.33956,0.529724,0.174704,10.6925,11.13,4.4625
411,9290329,1.438502,0.340014,0.186416,22.645,12.3025,5.7575
412,9290426,1.4032440000000002,0.079544,-0.188978,30.7125,7.6125,9.03
413,9290522,1.39446,-0.19861600000000001,-0.543388,35.665,-1.0325,12.6175
414,9290619,1.4034879999999998,-0.10187,-0.48165600000000003,29.12,-7.035,21.0525
415,9290716,1.3113780000000002,0.071248,-0.571936,16.7475,-1.89,34.02
416,9290813,1.2043840000000001,-0.12395199999999999,-0.6259819999999999,28.245,-7.2625,43.715
417,9290910,1.16693,-0.07686,-0.6980841,36.2425,-12.9325,49.21
418,9291007,1.0859219999999998,0.07442,-0.645502,36.1375,-10.6925,51.695
419,9291103,1.077992,0.205936,-0.5917,30.66,-7.6125,51.625
420,9291200,1.134478,0.07490801,-0.46738199999999996,31.2375,-5.39,51.38
421,9291297,1.179374,-0.09455001,-0.45811,26.635,1.155,49.07
422,9291394,1.2561120000000001,-0.21581799999999998,-0.464454,24.01,-1.6625,42.84
423,9291491,1.291858,-0.250222,-0.434198,18.2,-3.7975,35.07
424,9291588,1.295152,-0.235582,-0.508862,12.4425,9.275,27.405
425,9291684,1.4387459999999999,-0.239486,-0.3416,9.6425,25.06,20.965
426,9291781,1.4515559999999998,-0.208132,-0.33928200000000003,9.905,9.59,13.4575
427,9291878,1.414102,-0.166042,-0.260104,13.37,-2.835,5.95
428,9291975,1.3352899999999999,-0.09211,-0.235582,11.9875,-6.2825,-3.08
429,9292072,1.229638,-0.048922,-0.196176,13.1075,-4.2525,-11.9175
430,9292169,1.118862,-0.011468,-0.180804,13.9125,-7.2625,-20.2825
431,9292265,1.0147959999999998,0.004026,-0.175558,14.7875,-10.605,-27.3
432,9292362,0.9494040000000001,0.03538,-0.159698,16.3625,-11.795,-33.67
433,9292459,0.8493641,0.076616,-0.161406,18.48,-15.6275,-37.6425
434,9292556,0.71919,0.130418,-0.15237799999999999,22.8375,-24.1675,-36.015
435,9292653,0.650992,0.183,-0.172508,24.85,-29.5925,-34.825
436,9292749,0.6156119999999999,0.149572,-0.19154000000000002,28.84,-29.715,-34.2475
437,9292846,0.57462,0.08235001,-0.177266,32.9,-30.38,-33.985
438,9292943,0.50813,0.027816000000000004,-0.18324400000000002,32.8825,-30.415,-33.8625
439,9293040,0.450546,-0.005368,-0.18287799999999999,32.305,-29.855,-34.2125
440,9293137,0.433832,-0.012688,-0.183122,30.5375,-26.915,-34.58
441,9293233,0.43554,-0.028548,-0.182268,31.01,-23.555,-33.565
442,9293330,0.45566999999999996,-0.021472,-0.193126,30.1,-20.44,-30.59
443,9293427,0.480192,-0.003904,-0.19885999999999998,29.12,-15.4,-26.6
444,9293524,0.517158,0.02806,-0.18043800000000002,29.4,-13.055,-21.245
445,9293621,0.58072,0.043188,-0.165676,28.315,-11.8475,-14.805
446,9293718,0.6537980999999999,0.053314,-0.13078399999999998,27.4925,-8.4,-8.82
447,9293814,0.687592,0.054655999999999996,-0.076738,27.86,-6.58,-4.165
448,9293911,0.6974739999999999,0.05246,-0.01403,29.2075,-6.37,-0.9975
449,9294008,0.7288279999999999,0.032695999999999996,0.037576,31.7975,-3.9375,1.4
450,9294105,0.7779941,-0.002806,0.057218,37.17,0.595,4.27
451,9294202,0.8248421,-0.007808001,0.038186000000000005,42.035,2.3975,7.7
452,9294298,0.849242,-0.01952,0.06124401,42.7175,2.765,10.6575
453,9294395,0.8375299999999999,-0.046848,0.110654,42.525,6.9825,12.145
454,9294492,0.876326,-0.048922,0.091378,43.295,13.3,11.55
455,9294589,0.959774,-0.081862,0.023668,43.505,17.255,8.3825
456,9294685,1.0176020000000001,-0.127368,-0.031476,39.515,15.855,4.3925
457,9294782,1.0612780000000002,-0.139202,-0.026474,30.975,14.0175,0.4375
458,9294879,1.111298,-0.14188599999999998,-0.005978,22.5575,16.485,-2.415
459,9294976,1.156316,-0.153842,-0.015738,10.71,18.41,-5.6875
460,9295072,1.217926,-0.249856,0.011346,1.9075,21.7875,-10.5175
461,9295169,1.25111,-0.363682,0.07600599999999999,-6.3,25.7075,-14.315
462,9295266,1.220854,-0.40211199999999997,0.162992,-12.74,20.1775,-17.2025
463,9295363,1.17242,-0.312564,0.24888000000000002,-16.345,13.7375,-20.5275
464,9295459,1.176202,-0.153476,0.05636401,-14.6475,14.105,-24.9375
465,9295556,1.229272,0.000976,-0.5016641,-15.7675,3.8325,-29.33
466,9295653,1.278194,-0.082106,-0.453718,-17.5,-3.64,-38.885
467,9295750,1.211338,-0.309148,-0.397476,-19.6525,12.8275,-51.38
468,9295846,1.078358,-0.21447600000000003,-0.449326,-33.8975,11.06,-57.5575
469,9295943,1.078846,-0.192394,-0.61061,-38.2725,0.3325,-63.77
470,9296040,1.063962,-0.144814,-0.532652,-33.845,-2.765,-70.0175
471,9296137,0.9679481,-0.131638,-0.45445,-28.1925,-4.34,-70.035
472,9296233,0.948184,-0.018422,-0.43249,-20.895,-9.1,-65.485
473,9296330,1.012844,0.04819,-0.478484,-12.5475,-3.115,-60.8475
474,9296427,1.1605860000000001,0.121268,-0.5857220000000001,-6.09,6.6675,-55.685
475,9296523,1.294298,0.159332,-0.619028,-2.8875,10.115,-49.945
476,9296620,1.399096,0.192028,-0.568886,-3.9025,9.3625,-44.6775
477,9296717,1.4814459999999998,0.138958,-0.47348199999999996,-0.7175,11.5675,-39.2
478,9296814,1.5756299999999999,0.11321600000000001,-0.427854,1.015,14.42,-34.4925
479,9296910,1.604544,0.06929600000000001,-0.377712,1.1375,13.1775,-28.56
480,9297007,1.561356,0.005734,-0.32757,-0.0175,8.61,-19.985
481,9297104,1.489132,-0.031964,-0.26535,-3.01,3.9725,-10.01
482,9297201,1.4130040000000001,-0.037942000000000004,-0.20691199999999998,-5.88,1.9775,0.1925
483,9297297,1.357982,-0.039772,-0.162138,-7.3325,1.295,10.2375
484,9297394,1.254526,-0.05453401,-0.127368,-8.12,-0.8400001,18.8125
485,9297491,1.1209360000000002,-0.048068,-0.11224,-9.5375,-9.3975,25.2
486,9297588,1.0077200000000002,-0.071004,-0.08918200000000001,-9.03,-18.69,29.75
487,9297684,0.9328120000000001,-0.09333,-0.07259,-9.6775,-22.4525,32.375
488,9297781,0.8636379999999999,-0.094062,-0.07698201,-11.97,-23.6775,34.51
489,9297878,0.779092,-0.11712,-0.073688,-12.8975,-26.4425,35.7875
490,9297975,0.7078439999999999,-0.118828,-0.07356601,-14.315,-32.025,35.35
491,9298071,0.6530661,-0.081984,-0.08003201,-16.59,-36.5925,34.51
492,9298168,0.5753520000000001,-0.031110000000000002,-0.082716,-17.29,-39.69,33.985
493,9298265,0.5165481,-0.007076001,-0.077348,-16.8875,-43.96,31.885
494,9298361,0.49349,0.04697001,-0.08771799999999999,-19.215,-45.675,29.19
495,9298458,0.47763,0.028426,-0.091988,-21.35,-43.365,27.3175
496,9298555,0.483242,-0.042822000000000006,-0.102846,-21.945,-41.265,25.69
497,9298652,0.480192,-0.116022,-0.109922,-24.9725,-40.32,23.5725
498,9298748,0.47506800000000005,-0.148596,-0.091134,-27.2825,-38.5,21.2275
499,9298845,0.494832,-0.162626,-0.08857201,-29.05,-28.455,16.9225
500,9298942,0.524234,-0.179828,-0.038796,-33.5125,-23.135,12.39
501,9299039,0.517768,-0.19032000000000002,0.050263999999999996,-37.9225,-26.4775,8.1025
502,9299135,0.5060560000000001,-0.170922,0.067832,-42.0525,-20.2125,2.8875
503,9299232,0.5091061,-0.14823,0.054412,-44.1,-9.835,-3.4125
504,9299329,0.54778,-0.12505,-0.025376,-45.3425,-0.665,-10.0275
505,9299426,0.5859661,-0.13761600000000002,-0.064416,-41.475,3.955,-16.94
506,9299522,0.6042661,-0.063074,-0.08100801,-42.1925,9.5375,-23.6425
507,9299619,0.693692,0.000366,-0.093696,-42.07,20.3175,-27.895
508,9299716,0.8145941,0.09674601,-0.13298,-43.155,27.3175,-30.24
509,9299813,0.9446460999999999,0.17751,-0.159698,-40.6175,27.4575,-30.5725
510,9299909,1.0681100000000001,0.22265,-0.130174,-36.5225,24.3425,-27.195
511,9300006,1.202432,0.18605,-0.145546,-32.6725,23.2575,-19.1975
512,9300103,1.277584,0.16652999999999998,-0.15555,-22.5575,19.9675,-7.6825
513,9300200,1.265994,0.26169000000000003,-0.08369201,-14.14,11.9,3.29
514,9300296,1.296982,0.47043199999999996,0.00976,-3.885,5.46,11.0425
515,9300393,1.378478,0.453108,0.109678,10.08,9.975,16.59
516,9300490,1.503528,0.204716,0.18178,19.4775,18.06,21.805
517,9300587,1.587098,0.025742,-0.159576,21.9975,20.3175,29.6275
518,9300683,1.568432,-0.007442,-0.388692,25.0075,3.0975,34.825
519,9300780,1.5725799999999999,0.13298,-0.276086,21.1225,-10.045,40.495
520,9300877,1.560624,0.219844,-0.355752,20.58,-5.3025,49.175
521,9300974,1.507554,0.01098,-0.452254,28.5775,-4.445,55.755
522,9301070,1.4009260000000001,-0.069174,-0.52277,42.14,-7.49,56.42
523,9301167,1.245376,0.007198,-0.5288701,39.3225,-11.5325,51.03
524,9301264,1.135942,0.046238,-0.517524,34.965,-17.0625,42.9975
525,9301360,1.053958,-0.027572000000000003,-0.42395,30.8525,-17.0975,39.515
526,9301457,1.045418,-0.100772,-0.393572,23.0125,-14.0525,37.0825
527,9301554,1.109346,-0.168726,-0.4148,18.8475,-8.7675,33.3725
528,9301651,1.158878,-0.205326,-0.416264,12.4425,-4.8475,27.6325
529,9301747,1.19377,-0.198494,-0.40211199999999997,6.755,-5.95,20.895
530,9301844,1.2439120000000001,-0.169458,-0.42016800000000004,2.415,-7.2625,15.295
531,9301941,1.276608,-0.13054000000000002,-0.367952,1.085,-6.86,11.2875
532,9302038,1.299544,-0.125416,-0.29987600000000003,0.525,-6.2475,6.37
533,9302134,1.302838,-0.12675799999999998,-0.256932,0.1225,-5.67,-0.595
534,9302231,1.272216,-0.10919000000000001,-0.22509,-0.42,-6.895,-8.96
535,9302328,1.18584,-0.074054,-0.19337000000000001,-1.0325,-10.3775,-17.9725
536,9302425,1.063352,-0.025254,-0.182268,-1.505,-13.4925,-26.95
537,9302521,0.952942,-0.031598,-0.17543599999999998,-1.015,-17.045,-33.2675
538,9302618,0.8726661,-0.028669999999999998,-0.166042,-0.4025,-20.3875,-36.7675
539,9302715,0.803492,-0.039406000000000004,-0.15738,0.1925,-21.9625,-38.185
540,9302812,0.74298,0.037088,-0.17433800000000002,0.595,-23.275,-38.185
541,9302908,0.69662,0.06600201,-0.166652,2.9925,-23.975,-37.5025
542,9303005,0.6530661,0.080276,-0.178852,7.7175,-25.5675,-35.1575
543,9303102,0.59719,0.067588,-0.177998,11.34,-29.89,-31.43
544,9303199,0.529968,0.06588,-0.17934,14.0525,-34.02,-26.11
545,9303295,0.472262,0.056729999999999996,-0.165798,15.1725,-33.04,-20.9475
546,9303392,0.45420600000000005,0.042456,-0.177144,15.5925,-29.19,-16.7475
547,9303489,0.45152200000000003,0.028914,-0.180926,15.4525,-26.1625,-14.14
548,9303586,0.48007,0.02745,-0.181536,15.4,-23.2225,-11.4625
549,9303682,0.5352140000000001,0.054778,-0.177754,16.38,-21.035,-8.3825
550,9303779,0.5826720000000001,0.083814,-0.18666,16.8,-17.2025,-5.775
551,9303876,0.6110981,0.081496,-0.175558,18.4275,-15.8375,-2.4675
552,9303973,0.63867,0.102602,-0.145424,20.0375,-14.245,0.8925
553,9304069,0.657702,0.119316,-0.091134,21.665,-12.5825,3.5875
554,9304166,0.669902,0.12261,-0.024278,24.815,-7.1225,4.9525
555,9304263,0.690764,0.101504,0.01342,28.3325,-2.45,6.0725
556,9304360,0.72529,0.074542,0.029768,32.0075,-0.1225,7.9275
557,9304456,0.7643300000000001,0.05209400000000001,0.00305,36.12,-0.735,10.9025
558,9304553,0.770308,0.06795401,-0.06539201,38.22,-4.585,13.16
559,9304650,0.7360260000000001,0.03721,-0.047092,38.5,-4.1475,14.175
560,9304746,0.744566,0.035624,-0.063684,36.1025,3.43,13.23
561,9304843,0.8188641,-0.007320001,-0.09784401,33.81,12.7225,9.4675
562,9304940,0.8866961,-0.09552601,-0.11467999999999999,30.52,15.7675,5.355
563,9305037,0.9492821,-0.170312,-0.12895399999999999,24.0625,12.8975,1.96
564,9305134,1.035048,-0.209108,-0.103822,15.75,16.9225,-2.6075
565,9305230,1.15717,-0.232654,-0.06941801,7.2275,26.075,-8.6275
566,9305327,1.260138,-0.319762,-0.031964,-1.6625,30.7475,-14.5775
567,9305424,1.3255299999999999,-0.474214,0.09930800000000001,-7.14,31.57,-20.0375
568,9305521,1.3163799999999999,-0.520574,0.207644,-15.3475,22.2075,-23.695
569,9305617,1.238788,-0.371368,0.292434,-23.9925,10.08,-25.97
570,9305714,1.2341520000000001,-0.181536,0.24412199999999998,-23.1875,10.3075,-27.2475
571,9305811,1.312842,0.044164,-0.299266,-19.635,6.7025,-27.4575
572,9305908,1.383602,0.12749000000000002,-0.492758,-17.3075,-7.315,-30.0825
573,9306004,1.4238620000000002,-0.145058,-0.188124,-3.7975,7.525,-38.6225
574,9306101,1.302716,-0.141276,-0.341966,-10.1325,12.4775,-42.035
575,9306198,1.217682,-0.030744,-0.489342,-20.44,-2.7125,-43.6625
576,9306295,1.2221959999999998,-0.077714,-0.5845020000000001,-19.1625,4.585,-49.42
577,9306391,1.201578,-0.160308,-0.62769,-21.3325,7.805,-54.845
578,9306488,1.063474,-0.236192,-0.508374,-19.18,-5.7925,-57.295
579,9306585,1.053226,-0.127734,-0.468358,-16.59,-10.675,-59.64
580,9306681,1.144116,-0.033428,-0.438346,-9.275,-6.2125,-62.37
581,9306778,1.21878,0.023424,-0.420534,-2.0125,-4.2525,-63.1575
582,9306875,1.267458,0.191418,-0.5504641,2.205,-7.4025,-61.5825
583,9306972,1.295396,0.23314200000000002,-0.5070319999999999,4.5675,-12.915,-57.47
584,9307068,1.330532,0.25656599999999996,-0.441396,5.3725,-8.3475,-50.96
585,9307165,1.421178,0.231312,-0.39174200000000003,4.1125,0.4725,-41.965
586,9307262,1.4452120000000002,0.163236,-0.345382,1.715,3.0625,-30.31
587,9307359,1.3790879999999999,0.090646,-0.311222,-0.8400001,-2.695,-17.115
588,9307455,1.308694,0.022813999999999997,-0.29426399999999997,-4.06,-8.785,-4.0775
589,9307552,1.25538,-0.05124001,-0.263276,-5.95,-8.3125,6.895
590,9307649,1.175714,-0.065148,-0.23216599999999998,-8.435,-8.5925,16.0125
591,9307746,1.074454,-0.072102,-0.2013,-8.7675,-13.755,24.5175
592,9307842,0.9990581000000001,-0.071858,-0.190564,-8.925,-17.92,31.4825
593,9307939,0.89487,-0.082716,-0.182756,-9.59,-20.3175,36.1375
594,9308036,0.800442,-0.0976,-0.17738800000000002,-10.1675,-25.9175,38.5525
595,9308133,0.748836,-0.10418800000000002,-0.174948,-11.48,-28.9625,37.6775
596,9308229,0.696132,-0.10650599999999999,-0.17263,-14.0525,-26.9675,35.4725
597,9308326,0.6156119999999999,-0.09906401,-0.166408,-17.185,-27.965,32.725
598,9308423,0.5382640000000001,-0.102968,-0.15506199999999998,-18.9875,-33.215,29.995
599,9308520,0.49727200000000005,-0.068686,-0.144082,-21.875,-35.525,27.4575
600,9308616,0.484096,-0.049166,-0.14005599999999999,-25.3575,-29.6625,23.38
601,9308713,0.5069100000000001,-0.024034,-0.12749000000000002,-27.8425,-25.235,20.9475
602,9308810,0.541802,-0.01769,-0.130418,-30.1175,-21.9275,20.0025
603,9308907,0.551074,-0.03416,-0.130662,-32.4975,-22.33,18.76
604,9309003,0.56425,-0.065026,-0.12505,-33.8275,-24.115,15.995
605,9309100,0.609268,-0.121146,-0.11834000000000001,-34.37,-22.925,12.18
606,9309197,0.6505041,-0.149694,-0.09698999999999999,-34.9475,-22.0325,7.7
607,9309294,0.664778,-0.154452,-0.043432,-35.4025,-21.9625,2.1525
608,9309390,0.6588,-0.161162,0.014884,-34.6325,-18.725,-3.605
609,9309487,0.659532,-0.134932,0.037942000000000004,-34.3,-10.78,-8.68
610,9309584,0.66978,-0.082472,0.036233999999999995,-34.9125,-4.3225,-12.9675
611,9309681,0.681492,-0.00305,0.0008540001,-37.765,1.505,-16.5375
612,9309777,0.656848,0.026962,-0.019275999999999998,-39.2175,7.5775,-18.9525
613,9309874,0.620858,0.05819401,0.024766,-41.1425,17.08,-19.635
614,9309971,0.6952781,0.047336,0.011834,-39.7075,28.0,-18.3225
615,9310068,0.8108121,0.078446,-0.05795,-36.75,30.8525,-17.9375
616,9310164,0.9585541,0.12334200000000001,-0.126026,-33.8275,30.45,-17.395
617,9310261,1.1303299999999998,0.119926,-0.135542,-29.26,30.4325,-13.825
618,9310358,1.252574,0.107848,-0.15579400000000002,-20.44,30.1,-5.7225
619,9310455,1.226832,0.13542,-0.156892,-7.6475,21.9975,4.025
620,9310551,1.135332,0.24436599999999997,-0.078202,0.7,11.725,10.605
621,9310648,1.090436,0.391864,0.0732,8.0675,6.195,11.6375
622,9310745,1.1953559999999999,0.41248199999999996,0.173484,15.12,5.5125,9.4675
623,9310842,1.318698,0.191418,0.161162,20.895,11.2875,10.01
624,9310938,1.333094,0.001586,-0.23777800000000002,25.585,5.285,13.6675
625,9311035,1.2994219999999999,-0.09735601,-0.263886,29.9775,-8.785,17.045
626,9311132,1.370792,0.027083999999999997,-0.30195,19.7225,-7.77,24.22
627,9311229,1.3649360000000001,0.02257,-0.490928,14.98,-0.5775,32.5675
628,9311325,1.33346,-0.134078,-0.59963,23.9575,-3.15,40.8625
629,9311422,1.307962,-0.08954801,-0.71614,28.2275,-4.935,47.4075
630,9311519,1.229638,0.061,-0.6663640000000001,29.8025,-3.3425,52.22
631,9311616,1.12484,0.18043800000000002,-0.55693,28.9975,-5.11,54.11
632,9311712,1.105198,0.13298,-0.44944799999999996,24.815,-6.685,55.6325
633,9311809,1.148264,-0.08771799999999999,-0.42212,22.4175,-2.1175,56.42
634,9311906,1.1801059999999999,-0.16530999999999998,-0.423828,15.8725,0.245,51.9575
635,9312003,1.240984,-0.173118,-0.430904,9.38,0.9975,43.435
636,9312099,1.31211,-0.179706,-0.44371400000000005,3.8675,1.855,34.0725
637,9312196,1.363228,-0.166042,-0.42456000000000005,3.4125,1.6625,26.1625
638,9312293,1.4010479999999998,-0.127368,-0.392596,4.655,-1.155,18.6725
639,9312390,1.40849,-0.100284,-0.34257600000000005,9.1525,-3.9375,11.515
640,9312486,1.39202,-0.09259801,-0.309392,14.21,-5.495,3.675
641,9312583,1.338706,-0.030012,-0.285846,17.29,-7.7,-5.7575
642,9312680,1.244888,0.02257,-0.253272,20.6325,-10.92,-15.0325
643,9312777,1.140822,0.053191999999999996,-0.220942,23.345,-15.12,-22.435
644,9312873,1.060668,0.050263999999999996,-0.20178800000000002,24.045,-17.8325,-27.2825
645,9312970,0.9555040000000001,0.008784,-0.196176,24.955,-19.9325,-29.8725
646,9313067,0.8698601,-0.00549,-0.200324,24.3775,-23.5025,-31.745
647,9313164,0.8117880000000001,0.041236,-0.205204,22.575,-24.43,-32.76
648,9313260,0.743834,0.072956,-0.19983599999999999,22.3825,-24.7275,-33.495
649,9313357,0.664168,0.062341999999999995,-0.190686,24.9375,-32.3575,-32.83
650,9313454,0.5799880000000001,0.015006,-0.198128,26.705,-37.8875,-30.5375
651,9313551,0.528504,-0.005368,-0.19178399999999998,24.3075,-35.6125,-28.6825
652,9313647,0.49605200000000005,-0.026351999999999997,-0.21045,22.12,-30.345,-27.2475
653,9313744,0.4743361,-0.054167999999999994,-0.194102,21.5075,-29.0675,-25.935
654,9313841,0.49727200000000005,-0.049532,-0.196786,19.495,-27.2475,-24.85
655,9313938,0.5596140000000001,-0.03172,-0.191662,19.6525,-25.1475,-23.5375
656,9314034,0.595604,-0.027206,-0.183,21.21,-26.8975,-21.0175
657,9314131,0.583404,0.020252000000000003,-0.16897,21.1575,-28.14,-17.4125
658,9314228,0.6029241,0.06892999999999999,-0.15311,21.8575,-26.145,-13.44
659,9314324,0.65087,0.105774,-0.134688,22.5575,-23.905,-9.94
660,9314421,0.6844201,0.10723800000000001,-0.09223200000000001,25.2175,-21.8225,-7.07
661,9314518,0.702232,0.096624,-0.040992,27.1075,-19.845,-4.27
662,9314615,0.7162621,0.064782,0.008052001,30.1525,-16.695,-1.575
663,9314711,0.722118,0.026718000000000002,0.063074,33.46,-11.9175,1.4175
664,9314808,0.7137001000000001,0.006344,0.102846,37.485,-7.455,4.165
665,9314905,0.705404,0.018666,0.089426,36.75,-5.18,6.44
666,9315002,0.703818,-0.0032939999999999996,0.10809200000000001,30.695,-1.155,7.7525
667,9315098,0.745908,0.00549,0.05770599999999999,22.925,5.705,7.91
668,9315195,0.855708,-0.021716,-0.019032,15.0675,12.425,5.705
669,9315292,0.9514780999999999,-0.11870599999999999,-0.101626,8.085,18.27,2.065
670,9315389,1.0199200000000002,-0.168848,-0.134322,1.995,19.18,-1.89
671,9315485,1.0704280000000002,-0.20313,-0.10858,-2.275,25.025,-7.315
672,9315582,1.125572,-0.2806,-0.111996,-6.7375,28.875,-12.355
673,9315679,1.1655879999999998,-0.369904,-0.05368,-10.71,22.7325,-13.4225
674,9315776,1.19865,-0.453962,0.024034,-12.0925,15.5225,-13.86
675,9315872,1.196942,-0.431758,0.144082,-13.4575,5.3025,-13.9125
676,9315969,1.231834,-0.28767600000000004,0.19983599999999999,-11.9175,1.8375,-14.245
677,9316066,1.288808,-0.1037,0.12017,-5.2325,4.865,-14.7875
678,9316163,1.32431,0.111142,-0.319884,1.12,-1.855,-16.03
679,9316259,1.326506,0.160552,-0.42114399999999996,3.8325,-9.2575,-21.245
680,9316356,1.2761200000000001,-0.014518000000000001,-0.3355,9.0125,-2.835,-28.5425
681,9316453,1.13826,-0.071614,-0.382714,4.2875,-1.5225,-30.0125
682,9316550,1.10837,-0.08601,-0.451034,-0.4725,-1.6975,-30.9575
683,9316646,1.142896,-0.105652,-0.439688,-0.875,5.075,-32.5325
684,9316743,1.19743,-0.126148,-0.50325,0.2625,12.565,-35.35
685,9316840,1.133502,-0.165188,-0.5009319999999999,1.3125,7.315,-38.78
686,9316937,1.0612780000000002,-0.121146,-0.42321800000000004,3.1675,-7.3675,-41.2125
687,9317033,1.049566,0.031354,-0.322934,7.77,-5.81,-45.08
688,9317130,1.0859219999999998,0.052216,-0.32574000000000003,15.015,0.0525,-46.655
689,9317227,1.159366,0.137128,-0.429928,19.6175,2.7125,-47.18
690,9317324,1.1923059999999999,0.16689600000000002,-0.457866,20.895,1.5575,-46.0425
691,9317420,1.226344,0.11138599999999999,-0.40199,19.81,-0.56,-41.4575
692,9317517,1.280512,0.08405800000000001,-0.410042,14.245,1.61,-33.7575
693,9317614,1.3435860000000002,-0.002562,-0.40577199999999997,8.8725,3.01,-25.7075
694,9317711,1.403122,-0.066246,-0.377224,5.7225,3.2025,-19.145
695,9317807,1.424716,-0.12017,-0.327448,3.1675,3.4475,-13.6675
696,9317904,1.3735979999999999,-0.121024,-0.282796,-0.4375,0.56,-7.1225
697,9318001,1.261968,-0.079544,-0.25607800000000003,-3.5,-6.2125,0.7525
698,9318098,1.1666860000000001,-0.046726,-0.25071,-5.9325,-9.065,8.9075
699,9318194,1.100806,-0.032574,-0.2501,-9.135,-7.1225,15.75
700,9318291,1.046028,-0.031964,-0.247538,-11.8475,-8.6625,20.7725
701,9318388,0.9707541,-0.071614,-0.22143000000000002,-14.735,-9.8875,24.4825
702,9318485,0.9015799999999999,-0.061854,-0.216306,-18.5325,-12.145,26.7225
703,9318581,0.826672,-0.07551801,-0.209596,-19.7925,-14.7175,27.405
704,9318678,0.724924,-0.10065,-0.20105599999999998,-20.44,-20.37,26.6875
705,9318775,0.6502600000000001,-0.1159,-0.21289,-22.3825,-27.545,25.5675
706,9318871,0.6219561,-0.10309000000000001,-0.20313,-24.4825,-27.37,24.36
707,9318968,0.6098779999999999,-0.07625,-0.20556999999999997,-28.035,-23.5025,22.9075
708,9319065,0.6098779999999999,-0.023912,-0.233386,-28.665,-22.6275,21.1225
709,9319162,0.622688,-0.018544,-0.20776599999999998,-27.475,-27.51,20.2125
710,9319258,0.6062181,-0.013054,-0.187148,-27.545,-29.575,19.2675
711,9319355,0.6140260000000001,-0.01464,-0.156404,-28.735,-26.0575,18.2875
712,9319452,0.6197600000000001,-0.040382,-0.139568,-29.575,-23.8175,17.3775
713,9319549,0.614758,-0.049288,-0.12468399999999999,-30.065,-24.9025,15.435
714,9319645,0.617686,-0.078446,-0.08637601,-29.8025,-23.8525,12.32
715,9319742,0.630862,-0.081252,-0.039894,-29.5575,-19.635,8.575
716,9319839,0.642574,-0.07808001,0.007198,-28.6475,-15.6625,4.4625
717,9319936,0.635254,-0.062586,0.033916,-27.3525,-11.62,0.875
718,9320032,0.607804,-0.022203999999999998,0.047945999999999996,-26.005,-6.6675,-2.6775
719,9320129,0.586454,0.019275999999999998,0.045627999999999995,-24.8675,0.2275,-6.23
720,9320226,0.55937,0.058072000000000006,0.051972000000000004,-24.955,7.2975,-9.24
721,9320323,0.557052,-0.021228,0.004026,-24.36,13.86,-11.3575
722,9320419,0.5843801,-0.062098,-0.059902,-20.93,16.45,-11.865
723,9320516,0.664168,-0.09162200000000001,-0.10797000000000001,-19.67,18.375,-12.775
724,9320613,0.779458,-0.06954,-0.158722,-21.8925,21.665,-13.5625
725,9320710,0.9029221,-0.027938,-0.208498,-23.905,24.92,-13.5975
726,9320806,1.047248,-0.006954000000000001,-0.176534,-24.6575,26.3025,-11.6725
727,9320903,1.153144,0.019398,-0.154696,-20.685,25.2,-5.565
728,9321000,1.154974,0.08674201,-0.13151600000000002,-14.28,16.415,2.52
729,9321097,1.09251,0.265594,-0.025863999999999998,-8.2075,4.6375,8.3475
730,9321193,1.145702,0.390156,0.066978,-1.1375,0.1925,11.3225
731,9321290,1.272094,0.316712,0.082228,9.5025,6.65,14.0875
732,9321387,1.397266,0.187636,-0.069174,13.7725,11.375,16.4675
733,9321484,1.53049,0.08113001,-0.317322,17.64,7.5075,20.825
734,9321580,1.5347600000000001,0.12041400000000001,-0.282064,12.3025,-0.245,27.405
735,9321677,1.511092,0.142984,-0.42199799999999993,13.825,-0.0525,36.1375
736,9321774,1.441186,0.074542,-0.515572,17.815,-2.5375,43.6625
737,9321871,1.4454559999999999,-0.062220000000000004,-0.531188,25.585,-7.42,49.2975
738,9321967,1.360544,-0.06539201,-0.449326,25.34,-4.3225,50.7675
739,9322064,1.208166,-0.000732,-0.332572,15.5225,-6.51,44.695
740,9322161,1.0795780000000001,-0.050874,-0.233752,4.235,-15.9075,35.665
741,9322257,1.044076,-0.17433800000000002,-0.2501,-9.17,-19.0925,29.05
742,9322354,1.084092,-0.319396,-0.323178,-19.4775,-13.9825,24.2375
743,9322451,1.127524,-0.363926,-0.44225,-27.58,-10.2725,19.3725
744,9322548,1.134966,-0.382592,-0.567056,-29.155,-11.235,16.03
745,9322644,1.172786,-0.271328,-0.5170359999999999,-29.715,-15.5925,15.0675
746,9322741,1.306498,-0.07246799999999999,-0.387594,-31.6925,-6.8075,15.3825
747,9322838,1.457534,0.01037,-0.322324,-27.5975,5.6875,16.4325
748,9322935,1.529148,0.00244,-0.278038,-21.1225,0.98,16.3975
749,9323031,1.456558,-0.003904,-0.271206,-17.57,-9.555,12.7225
750,9323128,1.303692,0.01037,-0.264252,-14.7525,-16.9575,3.745
751,9323225,1.170224,0.034282,-0.24278000000000002,-11.305,-20.79,-7.525
752,9323322,1.062986,0.09150001,-0.223016,-8.61,-20.965,-16.7475
753,9323418,0.9526979999999999,0.101992,-0.19947,-5.25,-21.315,-21.2975
754,9323515,0.8679081,0.002318,-0.172508,-0.6125,-23.555,-22.4
755,9323612,0.793244,-0.030866,-0.15396400000000002,0.5775,-24.6225,-24.5
756,9323709,0.7476161,0.004026,-0.152988,-1.19,-23.3275,-27.125
757,9323805,0.6974739999999999,0.011468,-0.14713199999999999,1.365,-22.4175,-29.2775
758,9323902,0.643794,0.000732,-0.1525,2.4325,-25.48,-31.43
759,9323999,0.5797441,0.018666,-0.145424,4.97,-24.2025,-33.145
760,9324096,0.528992,0.040748,-0.148108,4.585,-21.7875,-32.725
761,9324192,0.501786,0.021228,-0.158722,7.0,-23.625,-30.9225
762,9324289,0.502274,0.01342,-0.172508,6.405,-24.325,-29.1725
763,9324386,0.530334,0.01769,-0.17446,6.0025,-21.8225,-27.2825
764,9324483,0.57889,-0.009272001,-0.17140999999999998,5.1275,-17.6925,-24.7625
765,9324579,0.620004,0.042944,-0.169458,3.64,-14.105,-21.6125
766,9324676,0.641354,0.09235399999999999,-0.166408,2.9925,-15.5575,-17.745
767,9324773,0.6823461,0.11041,-0.167872,4.445,-17.6225,-12.705
768,9324870,0.7229720000000001,0.1037,-0.141276,5.0575,-16.31,-7.6125
769,9324966,0.7421260000000001,0.09028,-0.088328,7.595,-12.67,-2.695
770,9325063,0.746518,0.101504,-0.040626,7.875,-10.255,1.8025
771,9325160,0.742492,0.086132,0.01769,8.33,-9.52,5.53
772,9325256,0.73932,0.079178,0.08003201,10.6575,-4.4625,8.015
773,9325353,0.7269979999999999,0.059902,0.127734,12.67,0.805,9.8875
774,9325450,0.7105279999999999,0.06600201,0.116754,14.07,4.27,11.2525
775,9325547,0.7013781,0.044164,0.091378,14.175,8.645,11.725
776,9325643,0.726144,0.042578,0.03355,13.37,13.72,12.1275
777,9325740,0.78995,0.027816000000000004,-0.043798000000000004,11.83,17.22,12.4425
778,9325837,0.879864,-0.049776,-0.110776,10.15,19.635,11.76
779,9325934,0.9484280999999999,-0.08357,-0.144082,8.8375,20.335,9.555
780,9326030,0.980758,-0.081618,-0.168238,5.32,17.9725,4.9175
781,9326127,1.002108,-0.09650201,-0.18556199999999998,0.945,15.8025,-2.9575
782,9326224,1.0126,-0.133102,-0.122366,-3.92,17.7275,-10.43
783,9326321,1.061034,-0.20788800000000002,-0.05002,-5.2325,19.9325,-16.31
784,9326417,1.103124,-0.24265799999999998,0.016958,-8.2425,15.225,-20.65
785,9326514,1.112274,-0.216916,0.09674601,-6.9475,12.985,-26.1275
786,9326611,1.1483860000000001,-0.12248800000000001,0.069662,-1.33,13.3,-30.8175
787,9326707,1.1777879999999998,-0.006954000000000001,-0.34794400000000003,0.875,9.555,-31.9725
788,9326804,1.24745,-0.011346,-0.5261859999999999,-3.9375,1.7675,-35.315
789,9326901,1.264286,-0.208864,-0.23155599999999998,1.855,17.115,-45.85
790,9326998,1.1538760000000001,-0.239486,-0.240218,-3.955,24.815,-51.73
791,9327094,1.16266,-0.173728,-0.42553599999999997,-10.85,16.555,-54.075
792,9327191,1.210118,-0.138836,-0.553636,-5.7925,17.045,-59.7275
793,9327288,1.1794959999999999,-0.18324400000000002,-0.555466,3.4125,11.725,-62.2125
794,9327385,1.075552,-0.139202,-0.51545,16.9925,-0.875,-60.2
795,9327481,1.098854,-0.004636001,-0.640134,22.9775,-4.27,-58.485
796,9327578,1.16937,-0.07283401,-0.506788,26.8625,5.8625,-60.235
797,9327675,1.289784,-0.020618,-0.36197399999999996,31.5875,17.5525,-59.64
798,9327772,1.44265,0.196542,-0.505446,32.62,20.65,-59.8325
799,9327868,1.5079200000000001,0.178974,-0.45335200000000003,32.3225,16.9925,-61.7575
800,9327965,1.584902,0.23021399999999997,-0.448716,26.25,15.0325,-58.555
801,9328062,1.628456,0.159942,-0.43493000000000004,22.26,14.035,-48.9475
802,9328159,1.579046,0.06575800000000001,-0.43724799999999997,18.13,9.73,-36.0675
803,9328255,1.4404540000000001,-0.024522,-0.396256,15.1725,0.665,-23.8525
804,9328352,1.277828,-0.074298,-0.342454,13.6675,-4.515,-13.7725
805,9328449,1.148508,-0.066246,-0.313906,11.9875,-5.6,-5.075
806,9328545,1.0919,-0.09162200000000001,-0.295606,13.8425,-5.005,2.52
807,9328642,1.094706,-0.10614000000000001,-0.274256,14.0525,-2.2225,8.8025
808,9328739,1.078602,-0.11614400000000001,-0.25925,12.7575,-1.435,13.125
809,9328836,1.002718,-0.10833599999999999,-0.22753,11.165,-4.0775,15.26
810,9328932,0.9237841,-0.07246799999999999,-0.198982,7.9975,-7.2275,15.085
811,9329029,0.85644,-0.033184,-0.17140999999999998,6.265,-8.295,13.65
812,9329126,0.768112,0.023058000000000002,-0.194346,4.025,-7.7875,10.885
813,9329222,0.711016,0.044896,-0.183366,5.355,-11.27,6.8075
814,9329319,0.670146,0.048312,-0.169702,5.985,-14.455,3.15
815,9329416,0.633668,0.024766,-0.170678,7.035,-13.72,0.315
816,9329513,0.607316,0.004392,-0.160674,6.16,-14.56,-2.1175
817,9329609,0.6021920000000001,-0.012565999999999999,-0.144326,3.955,-12.9325,-3.605
818,9329706,0.6396460999999999,-0.026718000000000002,-0.142008,1.19,-8.9425,-4.3925
819,9329803,0.67466,-0.042578,-0.14090999999999998,0.315,-6.2125,-4.7775
820,9329900,0.674782,-0.055388,-0.126636,1.2075,-7.56,-5.7225
821,9329996,0.667706,-0.058803999999999995,-0.12712400000000001,2.4675,-10.2375,-7.21
822,9330093,0.659532,-0.044774,-0.10345599999999999,2.975,-10.1325,-9.8
823,9330190,0.666852,-0.039284,-0.056852,2.415,-7.9625,-12.95
824,9330287,0.684176,-0.034892,-0.030866,2.765,-5.8975,-16.1
825,9330383,0.68808,-0.027694,0.000488,2.6425,-3.535,-19.3725
826,9330480,0.6821020000000001,-0.024644,0.064416,1.19,-1.1725,-23.205
827,9330577,0.653188,-0.043188,0.13383399999999998,-0.875,0.1575,-27.265
828,9330674,0.627446,-0.039284,0.139812,-3.185,1.33,-31.045
829,9330770,0.6186619999999999,-0.041724000000000004,0.08906,-5.53,4.515,-34.79
830,9330867,0.631838,-0.067832,0.017446,-6.4575,6.09,-38.7975
831,9330964,0.637206,-0.07991000000000001,0.002196,-6.8075,8.4175,-42.245
832,9331061,0.6695361,-0.064172,0.013175999999999998,-5.7925,16.3275,-43.9075
833,9331157,0.726754,0.007564001,0.011956,-4.06,27.8775,-43.2075
834,9331254,0.7856801,0.101016,-0.026108,-2.205,33.985,-40.915
835,9331351,0.84241,0.156648,-0.02623,0.7,34.02,-38.3425
836,9331448,0.9368380999999999,0.179584,-0.050142,5.18,31.92,-34.93
837,9331544,1.0248,0.22948200000000002,-0.07039400000000001,12.11,26.81,-30.66
838,9331641,1.043466,0.301584,-0.02745,18.6375,19.7225,-27.265
839,9331738,1.101782,0.29987600000000003,0.05587601,31.4125,9.31,-25.2875
840,9331834,1.22793,0.28023400000000004,0.07551801,38.08,5.075,-22.2425
841,9331931,1.2763639999999998,0.136884,-0.039772,38.6925,7.245,-18.3925
842,9332028,1.38287,-0.012078,-0.28694400000000003,37.6425,4.8825,-13.0375
843,9332125,1.4966959999999998,-0.20435,-0.6219561,36.68,7.3675,-3.0275
844,9332221,1.5225600000000001,-0.126636,-0.670878,36.8375,5.8625,7.49
845,9332318,1.4271559999999999,0.084912,-0.647942,30.625,9.135,18.305
846,9332415,1.317112,0.040504000000000005,-0.7004020000000001,42.105,3.64,31.4825
847,9332512,1.161928,0.019764,-0.6258600000000001,60.4975,-6.16,44.2225
848,9332608,0.913292,0.197274,-0.423706,59.4825,-2.45,49.6825
849,9332705,0.6844201,0.249734,-0.262056,57.505,3.7625,46.8475
850,9332802,0.599996,0.10943399999999999,-0.157136,56.455,4.34,37.3975
851,9332899,0.7004020000000001,-0.11321600000000001,-0.332572,52.7625,3.6925,27.6325
852,9332995,0.8713241,-0.174948,-0.48385200000000006,53.1825,11.5675,18.0075
853,9333092,1.0437100000000001,-0.046360000000000005,-0.435296,53.62,27.1425,8.8025
854,9333189,1.232444,0.06771001,-0.45323,60.4625,29.4875,-1.19
855,9333286,1.488766,0.21886799999999998,-0.486658,70.0175,22.75,-10.045
856,9333382,1.6804279999999998,0.335134,-0.499712,80.605,24.29,-13.4575
857,9333479,1.6928720000000002,0.409066,-0.50935,95.445,14.7175,-13.125
858,9333576,1.594174,0.393938,-0.487512,112.8925,-4.76,-13.8075
859,9333672,1.450214,0.361608,-0.463966,128.625,-14.595,-16.625
860,9333769,1.312476,0.310246,-0.43188000000000004,142.31,-15.9075,-21.9975
861,9333866,1.2342739999999999,0.28157600000000005,-0.407846,151.2875,-15.1375,-27.7025
862,9333963,1.18401,0.232776,-0.392962,159.74,-15.925,-32.375
863,9334059,1.154974,0.181292,-0.388692,168.8575,-16.2575,-36.8725
864,9334156,1.135332,0.143228,-0.36136399999999996,176.925,-17.08,-42.5775
865,9334253,1.101416,0.14213,-0.326716,183.1725,-18.6725,-47.32
866,9334350,1.059204,0.177754,-0.267424,189.07,-20.3525,-50.1375
867,9334446,1.0431,0.185318,-0.20410599999999998,194.95,-18.69,-51.9575
868,9334543,1.0919,0.14274,-0.196908,200.1125,-10.3425,-53.655
869,9334640,1.16571,0.068686,-0.155306,207.3225,-9.9225,-57.785
870,9334736,1.1890120000000002,-0.000488,-0.142862,211.8375,-13.475,-62.3
871,9334833,1.14436,-0.023058000000000002,-0.125904,215.0575,-16.415,-66.01
872,9334930,1.0859219999999998,-0.031354,-0.102846,217.49,-19.32,-69.9825
873,9335027,1.059936,-0.000976,-0.096624,218.4525,-18.865,-73.64
874,9335123,1.028094,0.036844,-0.075762,221.165,-19.5475,-76.65
875,9335220,0.993568,0.079422,-0.05209400000000001,223.4225,-23.2575,-79.52
876,9335317,0.9757561,0.100162,-0.031476,225.1375,-23.7475,-82.4425
877,9335414,0.9622141,0.113704,-0.011956,225.8025,-22.785,-84.77
878,9335510,0.9348860999999999,0.10345599999999999,0.01647,226.695,-23.9225,-86.25751
879,9335607,0.919758,0.081374,0.021472,226.31,-24.2375,-87.2375
880,9335704,0.8903561,0.057828,0.037332,225.2425,-25.025,-87.78
881,9335800,0.849852,0.041968,0.036112,222.4425,-26.6175,-87.5
882,9335897,0.839116,-0.035746,0.060512,220.325,-25.2,-86.9575
883,9335994,0.8341139999999999,-0.11248399999999999,0.06039,215.775,-22.2775,-85.54
884,9336091,0.8461921,-0.20190999999999998,0.064294,210.84,-19.88,-83.59751
885,9336187,0.856196,-0.247416,0.06075601,203.3675,-17.2025,-80.535
886,9336284,0.834724,-0.309758,0.07234600000000001,196.0,-15.505,-76.44001
887,9336381,0.808738,-0.30487800000000004,0.055388,187.5825,-15.8025,-70.6825
888,9336478,0.812886,-0.27205999999999997,0.024522,179.0775,-15.645,-65.3975
889,9336574,0.809348,-0.29036,0.003782,173.7225,-13.9825,-60.9175
890,9336671,0.798856,-0.28243,-0.016958,168.0,-14.1575,-56.245
891,9336768,0.783118,-0.291092,-0.008052001,162.8725,-12.8275,-52.1325
892,9336865,0.7759199999999999,-0.163846,-0.041358,156.17,-10.22,-48.9825
893,9336961,0.7731140000000001,-0.095648,-0.029646,150.2025,-5.3375,-46.6375
894,9337058,0.758718,-0.106628,-0.009637999999999999,142.975,-0.8225,-43.5925
895,9337155,0.7598161,-0.069174,-0.024278,138.81,4.4625,-40.04
896,9337251,0.759084,-0.099674,-0.008418,135.8175,7.1925,-36.365
897,9337348,0.781776,-0.127978,-0.013908000000000002,133.5075,8.855,-32.55
898,9337445,0.822768,-0.144814,-0.020618,134.1725,10.6575,-28.7525
899,9337542,0.8335040000000001,-0.15201199999999998,-0.036844,136.9375,11.1475,-24.955
900,9337638,0.8030041,-0.13639600000000002,-0.070516,141.47,10.36,-20.86
901,9337735,0.75213,-0.100406,-0.124928,146.23,9.2575,-16.9225
902,9337832,0.7108941,-0.08625401,-0.177754,151.7425,10.0275,-14.4025
903,9337929,0.7041841,-0.011224,-0.339648,157.0625,14.1925,-14.63
904,9338025,0.741394,0.08601,-0.600484,159.565,14.9625,-20.0375
905,9338122,0.799222,0.14871800000000002,-0.6825899999999999,160.58,12.6525,-32.8475
906,9338219,0.8235001000000001,0.101504,-0.49824799999999997,154.28,12.81,-50.085
907,9338315,0.826672,0.079422,-0.48348599999999997,147.7,9.1,-66.3775
908,9338412,0.9845401,-0.03721,-0.363926,150.64,9.66,-82.8975
909,9338509,1.31455,-0.018056,-0.295118,155.575,35.07,-100.4325
910,9338606,1.578436,0.18483,-0.312686,156.345,55.5975,-109.55
911,9338702,1.73423,0.264374,-0.331352,168.4025,44.24,-106.54
912,9338799,1.7188580000000002,0.228994,-0.30402399999999996,176.3475,25.9875,-96.98501
913,9338896,1.572946,0.098576,-0.332206,178.255,9.1875,-83.0375
914,9338993,1.467416,-0.03172,-0.35892399999999997,176.785,-3.2375,-73.0625
915,9339089,1.42374,-0.162382,-0.361242,173.075,-2.765,-68.355
916,9339186,1.3851879999999999,-0.26156799999999997,-0.337574,169.4875,-4.2175,-63.1925
917,9339283,1.37189,-0.25681,-0.331352,164.5,-5.775,-58.6425
918,9339379,1.337486,-0.194224,-0.338306,160.3525,-2.765,-53.55
919,9339476,1.26575,-0.11163,-0.30622,157.08,-4.06,-45.815
920,9339573,1.1666860000000001,-0.06283,-0.24644000000000002,154.91,-5.2325,-37.765
921,9339670,1.0767719999999998,-0.033794,-0.183488,153.9475,-4.9525,-31.29
922,9339766,1.010892,-0.01037,-0.147376,153.4575,-3.9025,-27.3875
923,9339863,0.9343981,0.005368,-0.111874,154.7525,-6.79,-25.6725
924,9339960,0.8938940000000001,0.009637999999999999,-0.074786,156.625,-10.255,-25.1125
925,9340057,0.868884,0.00549,-0.07393200000000001,156.9925,-9.6425,-24.3425
926,9340153,0.8489979999999999,-0.07222401,-0.072956,158.445,-11.55,-22.6275
927,9340250,0.815814,-0.121024,-0.044652,159.985,-16.415,-20.7025
928,9340347,0.7929999999999999,-0.149206,-0.07283401,157.0625,-20.0025,-20.3175
929,9340444,0.763598,-0.186904,-0.07625,154.63,-23.8175,-21.63
930,9340540,0.729072,-0.22472399999999998,-0.079666,150.0275,-27.7025,-23.59
931,9340637,0.6823461,-0.261812,-0.086132,144.4275,-30.6075,-25.69
932,9340734,0.64172,-0.333426,-0.08369201,138.2325,-32.445,-27.51
933,9340831,0.6456241,-0.377712,-0.101138,132.3875,-26.7925,-30.345
934,9340927,0.7196779999999999,-0.383812,-0.130906,123.025,-17.8675,-34.3
935,9341024,0.7787261,-0.39894,-0.133102,114.1875,-16.2925,-38.5175
936,9341121,0.815204,-0.411628,-0.14152,105.1925,-17.675,-41.2125
937,9341217,0.829234,-0.416386,-0.14823,94.93751,-18.165,-41.86
938,9341314,0.8461921,-0.40321,-0.137128,84.7875,-16.6075,-41.58
939,9341411,0.8870620000000001,-0.390156,-0.135786,75.8975,-13.615,-40.04
940,9341508,0.9239059999999999,-0.376248,-0.132858,68.1275,-12.0225,-37.24
941,9341604,0.9595300999999999,-0.35026199999999996,-0.133468,61.8975,-12.6,-34.055
942,9341701,0.9684360999999999,-0.337818,-0.12444000000000001,57.3125,-12.6875,-30.87
943,9341798,0.963922,-0.33428,-0.110044,53.375,-12.4075,-28.5075
944,9341895,0.9714860000000001,-0.321836,-0.077714,48.335,-9.66,-26.5475
945,9341991,0.9916161,-0.32025,-0.016714,42.6825,-2.625,-24.605
946,9342088,1.027484,-0.316346,0.047824,37.6075,6.0025,-21.9975
947,9342185,1.080188,-0.309026,0.079422,34.2475,14.595,-19.4425
948,9342282,1.13155,-0.29365399999999997,0.099552,32.5325,19.985,-16.66
949,9342378,1.155828,-0.287432,0.089792,33.39,21.805,-13.65
950,9342475,1.16083,-0.310734,0.049532,37.695,21.0875,-10.4825
951,9342572,1.15961,-0.33061999999999997,0.011834,41.9475,19.18,-6.8425
952,9342668,1.169614,-0.33671999999999996,-0.011590000000000001,45.3775,18.0425,-2.1
953,9342765,1.1625379999999998,-0.370514,-0.06746601,49.3325,18.4975,0.875
954,9342862,1.12911,-0.389302,-0.28926199999999996,51.52,15.61,0.35
955,9342959,1.14924,-0.312198,-0.617442,47.3375,7.1925,-3.1325
956,9343055,1.245498,-0.10187,-0.75457,41.9825,3.535,-6.51
957,9343152,1.293444,0.280478,-0.616466,44.0475,16.4675,-8.4175
958,9343249,1.264896,0.406748,-0.5192319999999999,59.01,21.3675,-12.04
959,9343345,1.246718,0.326594,-0.5743761,69.335,6.0025,-15.925
960,9343442,1.198284,0.252418,-0.57889,74.865,-0.2975,-18.06
961,9343539,1.1150799999999998,0.263642,-0.6082920999999999,76.265,-2.6775,-20.2825
962,9343636,1.046394,0.129686,-0.620492,80.15,-11.2175,-21.6825
963,9343732,0.984906,0.036966000000000006,-0.576206,85.90751,-15.715,-19.6
964,9343829,0.9801479999999999,0.068076,-0.5702281,87.5,-12.95,-16.485
965,9343926,1.051518,0.052703999999999994,-0.53497,90.825,-10.8325,-14.105
966,9344023,1.1263040000000002,0.067344,-0.518622,94.02750999999999,-7.525,-13.8775
967,9344119,1.16571,0.029036000000000003,-0.49519799999999997,97.3,-7.735,-16.1525
968,9344216,1.182424,-0.035013999999999997,-0.472628,101.36,-13.0725,-20.37
969,9344313,1.19255,-0.091012,-0.40992,101.8675,-14.84,-25.865
970,9344409,1.2080440000000001,-0.09613601,-0.36295,98.40250999999999,-11.41,-31.4125
971,9344506,1.215608,-0.10553,-0.320738,93.4675,-10.745,-35.14
972,9344603,1.2042620000000002,-0.166774,-0.279746,90.7375,-11.8125,-37.52
973,9344700,1.098854,-0.202154,-0.255956,86.45,-13.9825,-38.6925
974,9344796,0.978196,-0.200934,-0.245098,82.8975,-14.315,-38.2375
975,9344893,0.8823040000000001,-0.154574,-0.239852,77.7525,-15.9425,-36.995
976,9344990,0.7704300000000001,-0.14335,-0.23424,75.1625,-24.8675,-34.1075
977,9345087,0.6834439999999999,-0.12017,-0.21142600000000003,73.22,-29.5925,-30.9575
978,9345183,0.6563601,-0.065026,-0.190564,70.0,-24.5875,-29.82
979,9345280,0.6502600000000001,-0.05124001,-0.170434,68.005,-16.3975,-30.2925
980,9345377,0.6232981,-0.030622000000000003,-0.17238599999999998,67.3225,-12.565,-30.485
981,9345474,0.6314721,-0.011101999999999999,-0.17128800000000002,67.2,-12.565,-29.8375
982,9345570,0.6411100000000001,0.035746,-0.19702999999999998,66.53501,-8.3125,-29.225
983,9345667,0.6613621000000001,0.023424,-0.18117,67.48001,-4.7775,-29.75
984,9345764,0.721386,0.02806,-0.185318,66.57,-1.68,-32.7425
985,9345861,0.76494,0.016714,-0.196664,64.61,1.3825,-34.4225
986,9345957,0.7793359999999999,0.004148001,-0.189588,63.0175,0.1225,-35.1225
987,9346054,0.763598,-0.002928,-0.180926,60.305,-2.94,-34.7375
988,9346151,0.757498,-0.014396,-0.162992,56.4375,-3.465,-33.8625
989,9346248,0.759084,-0.033672,-0.139934,52.9025,-1.855,-32.7425
990,9346344,0.7733581,-0.055265999999999996,-0.12871,49.3325,-0.455,-31.9725
991,9346441,0.780312,-0.079056,-0.12078,46.235,-1.3475,-31.0975
992,9346538,0.7631101,-0.110044,-0.11773,42.7525,-4.1125,-29.6275
993,9346635,0.723094,-0.123098,-0.09979600000000001,40.215,-7.7525,-26.6175
994,9346731,0.690154,-0.137128,-0.08869401,37.73,-9.975,-22.365
995,9346828,0.675026,-0.162748,-0.06661201,37.695,-9.835,-17.535
996,9346925,0.670512,-0.158722,-0.04941,37.8525,-7.175,-13.23
997,9347022,0.656482,-0.126636,0.027327999999999998,36.7675,0.4725,-9.695
998,9347118,0.668316,-0.09577000000000001,0.07808001,35.8225,11.2525,-6.44
999,9347215,0.726388,-0.058926,0.049654000000000004,32.165,20.79,-3.395
1000,9347312,0.7828741,-0.071004,0.06575800000000001,30.2225,26.985,-0.7875
1001,9347409,0.8672979999999999,-0.08113001,-0.04404201,25.27,27.895,1.505
1002,9347505,0.9653860000000001,-0.06575800000000001,-0.129686,14.6475,28.175,2.31
1003,9347602,1.08397,-0.121268,-0.070882,13.615,38.92,-2.0475
1004,9347699,1.199382,-0.199714,-0.024034,11.725,52.43,-9.73
1005,9347795,1.275144,-0.285846,-0.031598,4.6375,56.455,-14.595
1006,9347892,1.343708,-0.361852,0.06270801,4.06,52.3775,-15.5575
1007,9347989,1.3847,-0.38125,0.163236,4.8825,44.1,-15.4
1008,9348086,1.390068,-0.29438600000000004,0.059048,2.2575,33.355,-15.4525
1009,9348182,1.4001940000000002,-0.05843801,-0.548146,-9.415,25.13,-17.4475
1010,9348279,1.361642,-0.01098,-0.878034,-22.085,12.6875,-22.365
1011,9348376,1.189134,-0.344894,-0.366122,-3.2025,14.525,-29.33
1012,9348473,1.028338,-0.268644,-0.49715,-20.195,14.665,-30.8875
1013,9348569,1.07482,-0.12431800000000001,-0.732122,-33.3725,6.0025,-33.39
1014,9348666,1.115202,-0.03843,-0.9290299999999999,-31.5875,20.93,-38.885
1015,9348763,1.054202,-0.196664,-0.7671359999999999,-28.0875,20.3,-39.41
1016,9348860,1.064206,-0.32269000000000003,-0.5605899999999999,-24.2375,7.98,-36.4525
1017,9348956,1.1598540000000002,-0.233996,-0.424804,-15.925,9.4325,-34.755
1018,9349053,1.2312239999999999,-0.002806,-0.5620541,-10.1675,3.7975,-30.9225
1019,9349150,1.2167059999999998,0.123464,-0.647698,-1.4175,-8.6975,-23.9575
1020,9349247,1.2496459999999998,0.202032,-0.670512,2.03,-9.5375,-18.76
1021,9349343,1.3481,0.159942,-0.6525781,2.1,-2.205,-15.8025
1022,9349440,1.414102,0.12248800000000001,-0.56242,-1.1375,3.08,-13.7375
1023,9349537,1.437892,0.14090999999999998,-0.51057,-6.3875,1.715,-11.235
1024,9349634,1.44326,0.12566,-0.46762600000000004,-8.295,-2.3625,-7.525
1025,9349730,1.3923860000000001,0.075396,-0.41785,-10.4125,-5.04,-2.625
1026,9349827,1.284904,0.05929201,-0.36478,-12.075,-9.0125,4.1125
1027,9349924,1.145702,0.030012,-0.324398,-13.0025,-13.65,11.69
1028,9350021,1.047248,-0.010126000000000001,-0.288896,-12.4775,-16.1875,18.4275
1029,9350117,0.9602620999999999,-0.03477,-0.256444,-13.475,-15.3125,23.73
1030,9350214,0.8987741,-0.040748,-0.22277199999999997,-14.4025,-16.8525,27.93
1031,9350311,0.87108,-0.038308,-0.20374,-15.05,-16.4675,31.605
1032,9350408,0.8392381,-0.048556,-0.193248,-15.6625,-14.5075,33.9325
1033,9350504,0.7828741,-0.047580000000000004,-0.178974,-16.73,-16.24,33.8975
1034,9350601,0.69296,-0.018178,-0.17995,-19.0575,-21.0,30.065
1035,9350698,0.590236,-0.023180000000000003,-0.184098,-18.445,-26.6875,24.675
1036,9350794,0.51362,-0.037454,-0.16775,-16.975,-30.4325,21.1575
1037,9350891,0.490806,-0.030012,-0.20642399999999997,-18.55,-27.6675,18.8125
1038,9350988,0.467016,-0.01586,-0.20776599999999998,-18.9,-26.0575,18.6725
1039,9351085,0.42553599999999997,-0.04819,-0.20496,-18.83,-25.725,18.41
1040,9351181,0.432612,-0.070516,-0.18873399999999999,-19.5125,-21.84,17.185
1041,9351278,0.480192,-0.09577000000000001,-0.182146,-22.6625,-14.6825,15.8375
1042,9351375,0.520574,-0.137494,-0.17751,-25.585,-12.1275,14.7175
1043,9351472,0.535824,-0.170312,-0.15054800000000002,-28.6825,-11.5325,13.3525
1044,9351568,0.555466,-0.168848,-0.11407,-33.7925,-9.345,11.375
1045,9351665,0.57401,-0.1769,-0.08625401,-36.575,-4.2,8.7675
1046,9351762,0.550708,-0.15677,-0.069662,-39.305,-1.7325,6.09
1047,9351859,0.54168,-0.10943399999999999,-0.046238,-39.69,3.185,2.3975
1048,9351955,0.5368,-0.02928,-0.07222401,-39.445,15.295,-1.0675
1049,9352052,0.5221600000000001,-0.005246,-0.059048,-36.19,25.7775,-4.235
1050,9352149,0.527162,-0.011346,-0.046116000000000004,-33.915,34.8075,-6.72
1051,9352246,0.6319600000000001,-0.028182,-0.074298,-30.275,45.2375,-7.6825
1052,9352343,0.79361,0.01403,-0.163968,-30.9925,49.4725,-7.7
1053,9352439,0.9562360999999999,0.06575800000000001,-0.212646,-33.7925,46.06,-7.315
1054,9352536,1.091412,0.13908,-0.22582199999999997,-38.8325,42.3325,-5.4775
1055,9352633,1.187548,0.135786,-0.163724,-37.6425,36.75,-2.24
1056,9352729,1.297836,0.11016600000000001,-0.16226,-29.8375,30.4675,3.71
1057,9352826,1.398242,0.15921,-0.155184,-22.61,28.3325,10.5175
1058,9352923,1.4421620000000002,0.304634,-0.060634,-16.415,27.195,16.135
1059,9353020,1.46278,0.4636,0.061610000000000005,-7.315,21.9275,20.0025
1060,9353117,1.461438,0.45628,0.17946199999999998,2.6075,17.605,20.51
1061,9353213,1.4807139999999999,0.251442,0.234118,9.59,20.3,19.95
1062,9353310,1.3893360000000001,0.12761199999999998,0.000488,7.7,14.6825,21.0525
1063,9353407,1.345294,-0.163236,-0.47201809999999994,13.3875,-9.2575,20.72
1064,9353504,1.3740860000000001,-0.124074,-0.375272,12.2675,-17.08,23.8525
1065,9353600,1.358104,0.129076,-0.366976,-2.4675,-4.5675,29.575
1066,9353697,1.2756319999999999,-0.012322,-0.548024,3.7625,-8.3125,30.905
1067,9353794,1.2883200000000001,-0.154086,-0.7047939999999999,16.2225,-15.47,31.2375
1068,9353891,1.294908,-0.036233999999999995,-0.7543261,18.13,-5.985,32.83
1069,9353987,1.20292,0.137982,-0.6832,16.24,-3.6925,33.705
1070,9354084,1.080066,0.064294,-0.49532,16.7125,-12.8975,34.58
1071,9354181,1.081164,-0.06819800000000001,-0.426146,14.35,-10.36,34.1425
1072,9354277,1.09312,-0.169336,-0.426512,9.8525,-2.975,31.6925
1073,9354374,1.1028799999999999,-0.194102,-0.464088,4.06,-5.88,27.7725
1074,9354471,1.1346,-0.214598,-0.48116800000000004,0.2625,-9.1875,24.3425
1075,9354568,1.20048,-0.17848599999999998,-0.47860600000000003,-2.0475,-9.2225,21.2975
1076,9354664,1.254038,-0.158844,-0.44896,-1.54,-6.0725,18.095
1077,9354761,1.294176,-0.18178,-0.40589400000000003,1.26,-4.585,13.125
1078,9354858,1.291004,-0.178242,-0.363804,1.855,-6.055,6.0025
1079,9354955,1.2311020000000001,-0.104798,-0.337086,0.3325,-7.1925,-2.0825
1080,9355051,1.151192,-0.058803999999999995,-0.31171,-0.455,-10.815,-10.6225
1081,9355148,1.063474,-0.049288,-0.284748,-0.7175,-13.72,-19.0575
1082,9355245,0.9528200000000001,-0.039894,-0.282674,-2.6775,-16.205,-25.6375
1083,9355342,0.8376520000000001,-0.036356,-0.27571999999999997,-2.7125,-21.9975,-28.91
1084,9355438,0.779458,-0.004514,-0.26961999999999997,-3.0275,-25.8475,-30.3975
1085,9355535,0.7479819999999999,0.033794,-0.27023,-2.66,-23.2225,-31.885
1086,9355632,0.6864941,0.050752,-0.24570799999999998,1.085,-22.96,-32.445
1087,9355729,0.619028,0.045384,-0.22496799999999997,4.095,-28.4725,-30.9575
1088,9355825,0.550586,0.046482,-0.22118600000000002,6.79,-30.905,-28.8925
1089,9355922,0.504592,0.064416,-0.219966,7.385,-30.345,-27.02
1090,9356019,0.490196,0.066734,-0.21594000000000002,9.7125,-27.895,-24.29
1091,9356116,0.531676,0.044652,-0.211792,11.06,-21.4375,-22.7325
1092,9356212,0.5662020999999999,0.045384,-0.21093800000000001,11.6725,-15.9425,-20.7725
1093,9356309,0.599508,0.07698201,-0.206546,11.8475,-15.5575,-18.6375
1094,9356406,0.614636,0.10650599999999999,-0.208742,12.81,-15.33,-16.52
1095,9356503,0.6414761,0.136884,-0.200202,13.9125,-14.7525,-13.09
1096,9356599,0.6703899999999999,0.11577799999999999,-0.170068,15.1375,-12.81,-8.47
1097,9356696,0.679296,0.129564,-0.143594,14.105,-10.7625,-4.55
1098,9356793,0.677588,0.114558,-0.098088,13.4225,-10.6225,-1.68
1099,9356890,0.687958,0.072712,-0.02623,14.9275,-9.6075,0.8925
1100,9356986,0.7442,0.043188,0.031964,16.555,-6.6675,3.3775
1101,9357083,0.775188,0.021716,0.073688,23.135,-4.41,5.0925
1102,9357180,0.787632,0.022813999999999997,-0.00305,30.625,-9.6425,5.6525
1103,9357277,0.70516,0.021228,0.008662000999999999,34.055,-15.47,5.705
1104,9357373,0.63257,0.034892,0.036844,36.5925,-10.2375,5.075
1105,9357470,0.639768,0.078202,0.006954000000000001,37.1875,1.2775,2.905
1106,9357567,0.72712,0.082594,-0.07503,34.1775,11.7775,0.175
1107,9357664,0.8099581,0.010004,-0.12078,28.3325,18.025,-1.855
1108,9357760,0.888282,-0.068076,-0.082716,22.8375,21.49,-3.2375
1109,9357857,1.0232139999999998,-0.097722,-0.09247601,15.3825,27.7725,-5.635
1110,9357954,1.127524,-0.14469200000000002,-0.132736,6.615,31.43,-8.6625
1111,9358051,1.232932,-0.29902199999999995,-0.011956,3.7625,33.5125,-11.4975
1112,9358147,1.361764,-0.463722,0.137982,-0.7175,39.13,-15.1025
1113,9358244,1.3912879999999999,-0.484706,0.203496,-12.845,32.865,-18.34
1114,9358341,1.37494,-0.409188,0.36002199999999995,-17.745,14.945,-22.645
1115,9358437,1.388116,-0.20984,0.349774,-18.795,14.4725,-26.25
1116,9358534,1.396534,0.10187,-0.370636,-21.98,8.26,-27.195
1117,9358631,1.3825040000000002,0.25803000000000004,-0.590236,-19.81,-15.6625,-31.2725
1118,9358728,1.384334,-0.100284,-0.30097399999999996,-3.36,2.03,-43.33
1119,9358824,1.245254,-0.0976,-0.488122,-11.655,5.53,-45.3425
1120,9358921,1.161318,-0.07625,-0.6872261,-23.87,-11.6375,-44.87
1121,9359018,1.14131,-0.142496,-0.73383,-20.1425,1.1025,-44.835
1122,9359115,1.063352,-0.22691999999999998,-0.798978,-22.8375,3.7275,-43.715
1123,9359211,0.998692,-0.36295,-0.5605899999999999,-20.9825,-8.0675,-41.405
1124,9359308,1.0795780000000001,-0.305854,-0.410408,-13.5975,-1.2775,-40.4775
1125,9359405,1.182302,-0.091134,-0.45725600000000005,-7.14,-3.5175,-39.2175
1126,9359502,1.2017,0.073688,-0.5383861,-2.6075,-12.0575,-37.03
1127,9359598,1.200602,0.14688800000000002,-0.529358,6.0375,-13.9825,-34.7025
1128,9359695,1.270874,0.171898,-0.510204,12.775,-11.9,-33.67
1129,9359792,1.39446,0.159942,-0.47653199999999996,15.82,-6.8775,-32.8125
1130,9359888,1.495354,0.17836400000000002,-0.43127,11.935,3.185,-30.4675
1131,9359985,1.512556,0.217892,-0.407724,5.3025,6.79,-24.0975
1132,9360082,1.4453340000000001,0.18324400000000002,-0.366122,1.3475,0.14,-14.945
1133,9360179,1.325652,0.11345999999999999,-0.327448,-0.805,-5.635,-5.95
1134,9360275,1.1927940000000001,0.045384,-0.28938400000000003,-0.665,-8.8375,2.1175
1135,9360372,1.06994,-0.033428,-0.241804,-0.8925,-10.5,8.225
1136,9360469,0.9975940999999999,-0.09089001,-0.20374,-2.0475,-11.69,12.9325
1137,9360566,0.9307380999999999,-0.09784401,-0.198128,-5.005,-12.635,17.5175
1138,9360662,0.84241,-0.115656,-0.192028,-7.0525,-16.6425,21.4025
1139,9360759,0.78751,-0.106018,-0.190808,-9.7475,-21.63,24.465
1140,9360856,0.748592,-0.099186,-0.19276,-12.425,-20.86,27.44
1141,9360952,0.6946681,-0.138104,-0.187636,-14.5775,-20.895,29.5925
1142,9361049,0.603046,-0.14945,-0.188124,-17.6575,-24.325,30.66
1143,9361146,0.5185,-0.14762,-0.18043800000000002,-21.56,-27.825,29.96
1144,9361243,0.44383599999999995,-0.132248,-0.185074,-25.9875,-28.9625,28.56
1145,9361339,0.42931800000000003,-0.11650999999999999,-0.175314,-29.7325,-27.6675,26.425
1146,9361436,0.453596,-0.09942999999999999,-0.176046,-34.2125,-21.5775,23.6075
1147,9361533,0.47653199999999996,-0.07490801,-0.170312,-38.4475,-17.08,20.2125
1148,9361630,0.46933400000000003,-0.08869401,-0.13859200000000002,-41.16,-17.2025,16.2575
1149,9361726,0.48690200000000006,-0.110776,-0.114192,-44.24,-17.675,11.6375
1150,9361823,0.5214281,-0.149084,-0.09259801,-46.9175,-15.155,6.9475
1151,9361920,0.551806,-0.16201600000000002,-0.04392,-50.8375,-13.3,2.7825
1152,9362016,0.554002,-0.15506199999999998,0.025131999999999998,-54.495,-10.325,-0.5775
1153,9362113,0.547292,-0.12468399999999999,0.06466001,-56.2625,-5.005,-3.0975
1154,9362210,0.531554,-0.068564,0.07259,-56.7875,0.4725,-5.4775
1155,9362307,0.514474,-0.063196,-0.020496,-56.0875,8.2425,-7.595
1156,9362403,0.47482399999999997,-0.02135,0.00183,-51.8175,15.68,-9.38
1157,9362500,0.457012,-0.01342,0.027083999999999997,-50.61,26.11,-10.885
1158,9362597,0.534482,-0.01403,-0.018056,-48.37,36.12,-11.27
1159,9362694,0.6878361,0.000244,-0.10736,-48.4225,36.785,-10.955
1160,9362790,0.8403360000000001,0.044164,-0.20703400000000002,-48.335,31.8675,-10.6575
1161,9362887,0.9928360999999999,0.06527000000000001,-0.23533800000000002,-48.335,29.4175,-9.94
1162,9362984,1.152046,0.11870599999999999,-0.238754,-44.9575,31.92,-6.1425
1163,9363081,1.253794,0.116754,-0.24570799999999998,-37.765,28.245,-0.42
1164,9363177,1.291736,0.18751400000000001,-0.13115,-28.0,18.9875,5.495
1165,9363274,1.385066,0.44115200000000004,-0.011956,-23.8525,17.71,10.1325
1166,9363371,1.479616,0.60817,0.116998,-8.6625,14.98,14.7525
1167,9363467,1.593198,0.5838920999999999,0.255712,6.3,14.9975,17.4125
1168,9363564,1.638826,0.332572,0.401258,17.7625,24.01,22.365
1169,9363661,1.544154,0.068442,0.302316,23.7125,23.835,28.7525
1170,9363758,1.523048,-0.163724,-0.468602,26.5125,-0.49,29.8725
1171,9363854,1.51585,-0.18361,-0.410774,26.6,-24.8675,33.845
1172,9363951,1.465098,0.145058,-0.335988,9.1,-14.6475,45.22
1173,9364048,1.319186,0.211914,-0.44090799999999997,6.825,-11.165,51.625
1174,9364145,1.233542,0.011468,-0.5915779999999999,28.175,-16.8525,53.1125
1175,9364241,1.155584,-0.030744,-0.808372,35.455,-15.5925,52.9375
1176,9364338,1.09617,0.050752,-0.759572,39.235,-15.7325,51.38
1177,9364435,1.06689,0.106018,-0.5997520000000001,36.1375,-11.3225,48.8425
1178,9364531,1.1178860000000002,-0.023668,-0.46762600000000004,36.68,-9.485,44.9575
1179,9364628,1.150094,-0.077348,-0.458232,31.7975,-7.4725,40.1975
1180,9364725,1.1988940000000001,-0.196298,-0.47177399999999997,27.79,-7.315,33.6
1181,9364822,1.24989,-0.21447600000000003,-0.482388,23.1525,-11.6725,27.1775
1182,9364918,1.309548,-0.21972199999999997,-0.46543,21.56,-9.345,22.8375
1183,9365015,1.381284,-0.219844,-0.424072,20.65,-5.4775,17.815
1184,9365112,1.422276,-0.247538,-0.360388,22.3125,-4.515,10.78
1185,9365209,1.402146,-0.20996199999999998,-0.324886,21.5775,-5.4425,0.49
1186,9365305,1.288564,-0.143594,-0.279014,21.2625,-9.4325,-10.3075
1187,9365402,1.16144,-0.10052799999999999,-0.239364,21.245,-14.875,-20.2125
1188,9365499,1.067256,-0.05368,-0.21301199999999998,20.72,-15.3825,-29.4525
1189,9365595,0.9769760000000001,0.00549,-0.18873399999999999,19.5475,-14.595,-36.1025
1190,9365692,0.8725440999999999,0.050508,-0.171654,19.5825,-18.795,-40.1275
1191,9365789,0.824232,0.07259,-0.159942,21.3675,-24.395,-41.9825
1192,9365886,0.7834840000000001,0.11712,-0.188368,22.19,-22.925,-44.4325
1193,9365982,0.7156520000000001,0.115656,-0.188978,27.125,-24.115,-44.7825
1194,9366079,0.597434,0.094306,-0.20496,32.6725,-33.495,-41.9125
1195,9366176,0.487878,0.049898000000000005,-0.205326,37.065,-40.74,-39.1475
1196,9366273,0.43005,0.01647,-0.20776599999999998,39.1825,-39.1125,-36.47
1197,9366369,0.42736599999999997,0.010248,-0.21289,39.4625,-33.25,-34.8075
1198,9366466,0.454938,0.00549,-0.20691199999999998,39.9,-27.405,-33.915
1199,9366563,0.479338,0.033672,-0.19215,40.4425,-23.3975,-33.4075
1200,9366659,0.51484,0.034404000000000004,-0.18056,40.81,-21.945,-32.4275
1201,9366756,0.525332,0.023058000000000002,-0.166408,41.7725,-20.055,-30.03
1202,9366853,0.5799880000000001,0.020130000000000002,-0.13151600000000002,40.6,-18.2175,-25.34
1203,9366950,0.662582,0.05977999999999999,-0.122244,37.905,-13.2125,-20.685
1204,9367046,0.71919,0.069662,-0.11053199999999999,35.3325,-8.785,-15.3125
1205,9367143,0.7329760000000001,0.02196,-0.057828,33.95,-9.0475,-9.555
1206,9367240,0.745786,-0.019275999999999998,-0.019398,31.8675,-6.5625,-4.2525
1207,9367337,0.735904,-0.06270801,0.028792,29.505,-2.9225,-0.3325
1208,9367433,0.713212,-0.12248800000000001,0.089304,30.52,-1.54,3.2375
1209,9367530,0.72651,-0.11333800000000001,0.039772,32.13,-1.575,6.23
1210,9367627,0.7062579999999999,-0.09333,0.02684,32.7075,-0.5775,8.6975
1211,9367724,0.69418,-0.045262000000000004,0.039772,32.1825,3.605,10.4825
1212,9367820,0.7315119999999999,0.016714,0.00488,32.1125,8.2775,10.605
1213,9367917,0.8298440999999999,0.022813999999999997,-0.025376,31.815,17.885,9.2925
1214,9368014,0.9272,-0.06661201,-0.0976,27.1775,22.6625,7.84
1215,9368110,0.9829540000000001,-0.123464,-0.048922,21.1925,19.67,4.9875
1216,9368207,1.08397,-0.144204,-0.022936,12.74,25.2,-0.8400001
1217,9368304,1.187548,-0.176534,-0.047092,2.205,28.7175,-6.7375
1218,9368401,1.26453,-0.299998,0.002684,-4.4975,26.005,-11.305
1219,9368497,1.3499299999999999,-0.415166,0.135176,-9.2575,26.3025,-15.6975
1220,9368594,1.37677,-0.432734,0.26169000000000003,-15.925,19.1975,-18.375
1221,9368691,1.391166,-0.28621199999999997,0.261934,-19.9325,7.9275,-20.335
1222,9368788,1.438868,-0.047336,-0.25046599999999997,-20.1425,2.0475,-21.385
1223,9368884,1.449482,0.071492,-0.6075600999999999,-20.93,-13.5975,-24.6225
1224,9368981,1.4295959999999999,-0.25351599999999996,-0.157502,-6.51,-5.1275,-34.51
1225,9369078,1.318942,-0.27071799999999996,-0.349286,-12.6175,4.1125,-40.18
1226,9369175,1.243424,-0.1159,-0.5726680000000001,-28.7,-14.315,-44.24
1227,9369271,1.183278,-0.11724200000000001,-0.5826720000000001,-28.0525,-6.8775,-51.17
1228,9369368,1.1442379999999999,-0.13151600000000002,-0.612684,-32.6375,0.2625,-55.2825
1229,9369465,1.0199200000000002,-0.170312,-0.542168,-35.98,-13.475,-55.0375
1230,9369561,0.9711200999999999,-0.08820599999999999,-0.484828,-34.09,-16.52,-54.0225
1231,9369658,1.0612780000000002,0.018056,-0.528504,-29.4175,-10.99,-52.2725
1232,9369755,1.17608,-0.00244,-0.49898000000000003,-21.84,-8.645,-50.1025
1233,9369852,1.2526959999999998,0.070638,-0.537532,-12.25,-8.225,-46.2
1234,9369948,1.299544,0.126148,-0.582184,-6.6675,-15.925,-42.105
1235,9370045,1.3725,0.119804,-0.524356,0.0875,-15.68,-38.325
1236,9370142,1.5079200000000001,0.14005599999999999,-0.47299399999999997,0.595,-4.8475,-33.46
1237,9370239,1.550864,0.1403,-0.40138,-2.135,2.5025,-26.355
1238,9370335,1.511702,0.124806,-0.33245,-4.41,-4.27,-16.52
1239,9370432,1.3917760000000001,0.146278,-0.289018,-7.2625,-13.5975,-5.1275
1240,9370529,1.2251239999999999,0.067344,-0.24192600000000003,-8.8375,-15.61,5.6
1241,9370625,1.0706719999999998,0.022692,-0.20727800000000002,-9.73,-17.43,14.77
1242,9370722,0.9766101,0.025742,-0.190808,-11.7425,-19.565,22.12
1243,9370819,0.894626,-0.015006,-0.175924,-11.1125,-17.92,28.4025
1244,9370916,0.811666,-0.0549,-0.152622,-11.305,-19.7225,34.265
1245,9371012,0.737002,-0.08308201,-0.13383399999999998,-11.7075,-21.875,39.515
1246,9371109,0.703818,-0.052216,-0.131638,-14.0525,-21.945,42.2275
1247,9371206,0.6781981,-0.05648601,-0.136518,-14.91,-20.825,43.085
1248,9371303,0.6010939999999999,-0.09272000000000001,-0.148596,-13.685,-21.77,41.6325
1249,9371399,0.5012979999999999,-0.119682,-0.14993800000000002,-13.9825,-28.42,38.4825
1250,9371496,0.427122,-0.137982,-0.15201199999999998,-16.17,-31.8675,34.5625
1251,9371593,0.395524,-0.12041400000000001,-0.154086,-20.51,-28.945,29.61
1252,9371690,0.40357600000000005,-0.083814,-0.142862,-25.5325,-23.8175,24.7975
1253,9371786,0.430782,-0.07686,-0.164822,-28.77,-20.3875,20.5275
1254,9371883,0.45859799999999995,-0.09162200000000001,-0.13847,-31.115,-21.14,16.8175
1255,9371980,0.47360399999999997,-0.137982,-0.13761600000000002,-36.085,-18.27,12.0925
1256,9372076,0.492392,-0.186782,-0.097478,-39.4275,-16.835,7.56
1257,9372173,0.5441199999999999,-0.22033200000000003,-0.05612,-42.035,-11.8475,2.38
1258,9372270,0.5975560000000001,-0.21374400000000002,-0.014152000000000001,-44.765,-5.7925,-2.485
1259,9372367,0.616954,-0.201422,0.032574,-46.165,-0.21,-6.615
1260,9372463,0.609146,-0.137128,0.066734,-48.44,7.0175,-10.5175
1261,9372560,0.6006060000000001,-0.131394,0.020374,-48.195,15.785,-13.895
1262,9372657,0.58865,-0.05172801,0.002562,-45.2375,22.75,-15.8375
1263,9372754,0.5915779999999999,0.01891,0.021716,-47.1975,28.4025,-17.115
1264,9372850,0.679784,0.044286,-0.012688,-49.455,33.495,-16.52
1265,9372947,0.808982,0.08369201,-0.069174,-52.325,33.8625,-15.9775
1266,9373044,0.951356,0.098332,-0.17848599999999998,-52.4825,32.4275,-16.24
1267,9373141,1.0882399999999999,0.13237000000000002,-0.19642,-50.1375,33.0225,-15.0325
1268,9373237,1.235494,0.108458,-0.18324400000000002,-45.29,32.795,-10.0625
1269,9373334,1.300398,0.091134,-0.219844,-29.855,25.34,-1.015
1270,9373431,1.2994219999999999,0.21106,-0.11895,-21.7875,17.4125,7.2975
1271,9373527,1.320894,0.45335200000000003,0.04453,-14.2275,16.4675,15.1025
1272,9373624,1.33895,0.55083,0.177144,3.71,10.2025,19.4425
1273,9373721,1.438136,0.387106,0.227408,19.04,9.0475,21.2975
1274,9373818,1.551718,0.13664,0.019275999999999998,27.44,23.6425,27.335
1275,9373914,1.59759,0.037454,-0.42907399999999996,32.1825,17.185,34.3175
1276,9374011,1.5944180000000001,0.127002,-0.252906,30.0825,-10.1675,39.6375
1277,9374108,1.5786799999999999,0.172874,-0.365512,33.46,-4.41,50.0325
1278,9374205,1.5573299999999999,0.05124001,-0.520208,40.7225,-2.73,54.565
1279,9374301,1.483886,-0.051484,-0.552294,53.1475,-7.595,56.77
1280,9374398,1.3224799999999999,0.051362,-0.6566041,58.87,-0.98,53.1125
1281,9374495,1.160342,0.08174001,-0.6117081,57.6275,-7.98,43.5575
1282,9374591,1.029192,-0.032451999999999995,-0.527406,54.9675,-11.83,36.995
1283,9374688,0.9947881,-0.08881599,-0.492392,46.865,-8.9075,30.4325
1284,9374785,1.039928,-0.136274,-0.536922,40.67,-3.5875,23.1175
1285,9374882,1.101294,-0.20435,-0.589992,36.1025,-5.075,16.2575
1286,9374978,1.148508,-0.17641199999999999,-0.580232,30.6775,-11.7425,11.9
1287,9375075,1.1991379999999998,-0.10516400000000001,-0.517402,24.815,-13.8425,10.4125
1288,9375172,1.271362,-0.08100801,-0.432978,23.3625,-13.7025,11.7425
1289,9375269,1.333704,-0.12139000000000001,-0.36966,24.4825,-13.4225,13.7025
1290,9375365,1.343342,-0.11053199999999999,-0.31524800000000003,24.5,-16.8875,12.5475
1291,9375462,1.2999100000000001,-0.08784,-0.259372,23.87,-20.685,7.105
1292,9375559,1.1951120000000002,-0.050508,-0.203862,24.0975,-24.255,-1.68
1293,9375655,1.071404,-0.013663999999999999,-0.18361,24.3425,-28.98,-11.7425
1294,9375752,0.9423280999999999,-0.023180000000000003,-0.16043,25.2525,-32.375,-20.895
1295,9375849,0.803248,-0.09125599999999999,-0.12761199999999998,28.0175,-35.07,-27.1425
1296,9375946,0.693326,-0.099552,-0.12065799999999999,27.9125,-39.235,-32.0425
1297,9376042,0.6392800000000001,-0.045872,-0.12248800000000001,26.74,-38.15,-36.6275
1298,9376139,0.567178,0.0034159999999999998,-0.11577799999999999,26.74,-33.7925,-38.5875
1299,9376236,0.47689799999999993,0.042089999999999995,-0.13176,29.015,-34.51,-38.29
1300,9376333,0.398696,0.026595999999999998,-0.129564,31.2725,-37.1525,-36.295
1301,9376429,0.378444,-0.016104,-0.11504600000000001,31.815,-33.0225,-32.62
1302,9376526,0.44103000000000003,-0.020496,-0.126392,28.6825,-22.4175,-29.365
1303,9376623,0.5239901,-0.027938,-0.109556,26.705,-14.2275,-26.81
1304,9376720,0.626104,0.004636001,-0.11895,25.1475,-11.4275,-25.585
1305,9376816,0.718946,0.025254,-0.115534,23.275,-10.535,-23.45
1306,9376913,0.786656,0.026474,-0.118218,21.84,-10.43,-19.32
1307,9377010,0.820572,0.008418,-0.10650599999999999,20.5625,-12.9675,-13.93
1308,9377107,0.819108,0.016714,-0.087962,19.4075,-16.0475,-8.295
1309,9377203,0.8102020000000001,0.023180000000000003,-0.06575800000000001,19.7225,-17.99,-3.1675
1310,9377300,0.807396,0.041724000000000004,-0.009394,20.8775,-17.15,0.5075
1311,9377397,0.808738,0.041724000000000004,0.029889999999999996,23.9575,-12.845,2.9925
1312,9377493,0.768112,0.023546,0.087474,28.2975,-9.59,4.9525
1313,9377590,0.7101621,0.007686,0.11712,32.4275,-6.5275,6.265
1314,9377687,0.6451359999999999,0.01342,0.17507,34.5625,-0.77,6.86
1315,9377784,0.6396460999999999,0.037576,0.176656,35.35,10.185,7.07
1316,9377880,0.731268,0.09272000000000001,0.08723001,33.53,19.88,6.93
1317,9377977,0.8397261,0.085888,-0.018544,29.19,23.0825,6.7375
1318,9378074,0.9037761000000001,-0.00427,-0.082716,23.1,20.37,6.755
1319,9378170,0.98759,-0.04575,-0.10919000000000001,13.8775,19.285,5.145
1320,9378267,1.084214,-0.09589201,-0.127734,3.6575,24.78,0.63
1321,9378364,1.182668,-0.14188599999999998,-0.17995,-6.8425,29.2425,-5.9325
1322,9378461,1.198528,-0.17128800000000002,-0.15799000000000002,-15.05,23.6425,-11.1125
1323,9378557,1.230126,-0.24570799999999998,-0.005734,-20.09,19.8275,-15.68
1324,9378654,1.250988,-0.34953,0.10919000000000001,-24.43,28.91,-19.915
1325,9378751,1.244278,-0.388448,0.237656,-28.175,27.2475,-21.0525
1326,9378848,1.209386,-0.25851799999999997,0.35258,-28.77,18.095,-20.825
1327,9378944,1.272216,-0.08881599,-0.169824,-29.61,15.365,-20.1775
1328,9379041,1.333826,0.033672,-0.646478,-31.1675,-5.04,-22.54
1329,9379138,1.331142,-0.167384,-0.310002,-21.9625,-7.14,-32.4275
1330,9379235,1.225734,-0.3416,-0.403942,-23.555,8.12,-39.0425
1331,9379331,1.0528600000000001,-0.141032,-0.540948,-40.215,-10.0975,-40.8975
1332,9379428,1.0084520000000001,-0.151646,-0.656238,-38.57,-8.435,-47.005
1333,9379525,1.031144,-0.18629400000000002,-0.770308,-39.34,3.9375,-54.4775
1334,9379621,0.8991401,-0.233508,-0.676002,-38.9375,-6.37,-58.38
1335,9379718,0.835822,-0.18544000000000002,-0.5410699999999999,-31.5525,-14.175,-58.415
1336,9379815,0.955626,-0.10553,-0.46774799999999994,-21.2625,-7.7,-59.1675
1337,9379912,1.109346,-0.047702,-0.373442,-7.21,0.1925,-60.305
1338,9380008,1.22854,0.132614,-0.456524,3.325,3.2725,-58.87
1339,9380105,1.348832,0.226554,-0.443592,10.6575,-0.175,-55.4575
1340,9380202,1.480104,0.28914,-0.414678,13.8075,6.615,-49.4725
1341,9380299,1.572458,0.265838,-0.383446,12.9325,13.4575,-40.25
1342,9380395,1.56282,0.230946,-0.340868,10.045,10.36,-26.8975
1343,9380492,1.487668,0.1708,-0.32025,6.895,0.9625,-13.405
1344,9380589,1.39751,0.036722000000000005,-0.291946,5.81,-6.7725,-2.835
1345,9380686,1.307596,-0.10309000000000001,-0.250344,3.78,-9.17,4.9175
1346,9380782,1.2049940000000001,-0.173118,-0.22021,1.3825,-10.9375,11.2175
1347,9380879,1.09312,-0.14396,-0.21081599999999998,-1.1375,-14.175,16.7475
1348,9380976,0.9790501,-0.165188,-0.21106,-2.275,-17.5,21.1225
1349,9381072,0.8869401,-0.189344,-0.214842,-2.52,-21.595,24.6925
1350,9381169,0.840824,-0.17751,-0.21032800000000001,-4.585,-24.115,26.81
1351,9381266,0.811056,-0.137128,-0.191296,-7.84,-22.9425,29.19
1352,9381363,0.7622561,-0.114924,-0.188002,-10.3775,-20.93,30.45
1353,9381459,0.69845,-0.096868,-0.17616800000000002,-12.845,-22.715,29.5225
1354,9381556,0.628422,-0.080276,-0.181658,-15.0675,-26.2675,28.28
1355,9381653,0.578036,-0.09028,-0.169824,-15.785,-29.6275,27.0725
1356,9381750,0.543876,-0.07027201,-0.163114,-18.445,-31.2725,26.0575
1357,9381846,0.532774,-0.078202,-0.149694,-21.6125,-30.17,24.6925
1358,9381943,0.546926,-0.08003201,-0.146156,-26.04,-27.6675,22.785
1359,9382040,0.5690081,-0.105774,-0.126392,-31.08,-25.3225,20.4225
1360,9382136,0.589992,-0.124074,-0.11773,-35.735,-23.6425,17.7625
1361,9382233,0.621834,-0.17641199999999999,-0.102724,-39.0075,-22.9775,14.07
1362,9382330,0.6389140999999999,-0.227408,-0.066856,-41.755,-24.5525,10.045
1363,9382427,0.657824,-0.239364,-0.010248,-44.1875,-21.3325,5.3725
1364,9382523,0.675026,-0.228384,0.028426,-46.5675,-17.395,0.7875
1365,9382620,0.6707561,-0.181536,0.06112201,-48.2475,-14.2975,-3.43
1366,9382717,0.6541640000000001,-0.12675799999999998,0.057218,-50.5925,-9.835,-7.385
1367,9382814,0.6320819999999999,-0.077348,0.003172,-52.115,-4.76,-11.13
1368,9382910,0.5648601,0.015493999999999999,0.015372,-55.615,-0.8925,-14.6825
1369,9383007,0.5188659999999999,0.07722601,0.0305,-58.415,6.825,-17.36
1370,9383104,0.60695,0.070516,-0.040016,-57.995,17.0275,-18.515
1371,9383200,0.763476,0.01647,-0.115656,-58.1525,21.8575,-18.9175
1372,9383297,0.921832,0.011712,-0.1952,-56.6125,21.56,-18.6025
1373,9383394,1.063596,0.06466001,-0.24351199999999998,-53.7425,21.9975,-16.765
1374,9383491,1.162782,0.07978801,-0.299632,-43.8725,21.3675,-12.075
1375,9383587,1.182302,0.19861600000000001,-0.206668,-33.145,17.2025,-5.355
1376,9383684,1.2469620000000001,0.430172,-0.06636801,-26.425,14.63,1.855
1377,9383781,1.3888479999999999,0.610488,0.06575800000000001,-10.5,10.3075,11.4275
1378,9383877,1.407026,0.53985,0.242536,6.16,12.6,19.565
1379,9383974,1.3679860000000001,0.267058,0.41992399999999996,15.575,18.445,23.2225
1380,9384071,1.243424,0.101382,0.4819,14.245,14.805,21.525
1381,9384168,1.265384,-0.17324,0.077592,8.1025,-3.6225,17.71
1382,9384264,1.358226,-0.474214,-0.44090799999999997,2.6425,-18.3575,17.745
1383,9384361,1.380308,-0.270108,-0.338672,-22.295,-14.9275,22.82
1384,9384458,1.357372,0.051484,-0.494954,-35.315,0.0525,27.6675
1385,9384554,1.273558,0.015738,-0.593896,-24.5875,-9.975,29.19
1386,9384651,1.25294,-0.009272001,-0.755302,-10.605,-20.3175,33.5475
1387,9384748,1.289418,0.149572,-0.8698601,-2.8,-6.545,41.335
1388,9384845,1.187182,0.358802,-0.777872,1.715,3.185,49.84
1389,9384941,1.131794,0.34465,-0.526552,8.295,-7.1925,55.0025
1390,9385038,1.0797,0.192394,-0.401014,10.22,-4.305,57.9775
1391,9385135,1.077626,-0.002074,-0.336354,9.2925,-3.5525,56.595
1392,9385232,1.051884,-0.15494000000000002,-0.352458,3.8325,-5.81,52.22
1393,9385328,1.072502,-0.338916,-0.358192,0.175,-8.4525,46.9
1394,9385425,1.168272,-0.38661799999999996,-0.40833400000000003,-4.97,-5.18,40.355
1395,9385522,1.278316,-0.368196,-0.42273,-5.32,1.7675,30.5025
1396,9385618,1.351272,-0.281332,-0.38051799999999997,-2.5725,2.66,17.9025
1397,9385715,1.357616,-0.148474,-0.35502,0.56,0.245,5.355
1398,9385812,1.2961280000000002,-0.034648000000000005,-0.31524800000000003,3.8325,-5.6175,-4.48
1399,9385909,1.20658,0.044407999999999996,-0.29133600000000004,6.65,-11.6375,-11.095
1400,9386005,1.075186,0.08625401,-0.265716,8.9775,-14.7875,-15.5225
1401,9386102,0.978074,0.11541199999999999,-0.23692399999999997,10.92,-18.13,-18.655
1402,9386199,0.918538,0.13542,-0.223992,13.0725,-18.165,-22.925
1403,9386296,0.8845,0.12212200000000001,-0.211914,14.98,-17.22,-26.3375
1404,9386392,0.8597341000000001,0.12078,-0.22801799999999997,17.15,-18.0775,-28.49
1405,9386489,0.809348,0.10687200000000001,-0.21899000000000002,21.6825,-20.3175,-28.56
1406,9386586,0.727608,0.067222,-0.21362199999999998,24.92,-23.695,-27.8775
1407,9386682,0.622322,0.005978,-0.192882,27.6325,-27.2475,-27.615
1408,9386779,0.5694961,-0.014762,-0.176656,28.245,-28.7525,-27.1425
1409,9386876,0.5662020999999999,-0.011956,-0.169458,27.4225,-25.5325,-26.495
1410,9386973,0.59841,-0.02623,-0.162626,27.02,-20.9125,-26.4775
1411,9387069,0.628178,-0.026595999999999998,-0.167506,25.7075,-19.9675,-26.2675
1412,9387166,0.6573359999999999,-0.011468,-0.159088,24.78,-21.0175,-25.0425
1413,9387263,0.670024,0.021228,-0.15018199999999998,23.1875,-21.035,-23.3625
1414,9387360,0.6877141,0.035258,-0.135542,23.38,-20.3175,-21.0
1415,9387456,0.7018661,0.058682000000000005,-0.12017,23.0475,-20.1425,-18.585
1416,9387553,0.690642,0.06941801,-0.097966,23.17,-21.175,-15.26
1417,9387650,0.659044,0.049898000000000005,-0.06539201,23.7475,-20.6325,-10.7625
1418,9387747,0.6456241,0.029889999999999996,0.009516001,25.095,-16.8,-5.705
1419,9387843,0.6442821,0.019398,0.06124401,25.97,-8.785,-1.715
1420,9387940,0.6098779999999999,-0.04697001,0.138104,29.33,-2.1,1.155
1421,9388037,0.596458,-0.052948,0.149572,32.095,2.2575,4.1125
1422,9388133,0.595116,-0.06344,0.146156,32.9,6.055,6.79
1423,9388230,0.613538,-0.03599,0.1159,34.9475,9.45,9.275
1424,9388327,0.663924,0.02196,0.043066,33.985,10.7975,10.9025
1425,9388424,0.7543261,0.04331,-0.04575,30.835,12.7925,11.3225
1426,9388520,0.8361879999999999,0.012565999999999999,-0.134322,26.0925,14.5075,10.1675
1427,9388617,0.894748,-0.017568,-0.176778,19.005,14.875,7.9625
1428,9388714,0.9741700000000001,-0.055510000000000004,-0.182024,10.815,18.6725,4.2875
1429,9388810,1.073844,-0.138348,-0.196786,4.34,22.54,-0.5075
1430,9388907,1.15168,-0.24875799999999998,-0.11834000000000001,-1.5225,21.595,-5.7925
1431,9389004,1.259284,-0.441396,0.026595999999999998,-1.925,23.695,-11.025
1432,9389101,1.334924,-0.49446599999999996,0.10321199999999998,-6.7025,19.705,-15.68
1433,9389197,1.289784,-0.413458,0.153232,-13.195,8.225,-20.23
1434,9389294,1.312598,-0.24424400000000002,0.166286,-10.78,7.3675,-22.575
1435,9389391,1.381772,-0.008906,-0.199348,-7.9625,10.15,-24.6925
1436,9389488,1.337974,0.105774,-0.41199399999999997,-7.0175,-2.835,-29.575
1437,9389584,1.319918,-0.008906,-0.25681,0.91,-3.8675,-39.5325
1438,9389681,1.185352,-0.12175599999999999,-0.354532,-0.4725,4.235,-47.1625
1439,9389778,1.113006,0.001952,-0.399428,-10.8325,0.5425,-49.98
1440,9389874,1.156072,-0.080154,-0.628788,-13.4925,6.055,-53.655
1441,9389971,1.135942,-0.14383800000000002,-0.623054,-15.015,7.1575,-57.505
1442,9390068,1.0279719999999999,-0.23314200000000002,-0.6042661,-14.63,-1.855,-58.9925
1443,9390165,0.977342,-0.15054800000000002,-0.556808,-13.4575,-11.8125,-59.6925
1444,9390261,1.071648,-0.11358199999999999,-0.406016,-7.2975,-7.28,-61.0225
1445,9390358,1.213168,-0.0244,-0.383446,-0.7525,3.325,-59.9375
1446,9390455,1.328824,0.098332,-0.47677600000000003,5.3725,2.2225,-56.1225
1447,9390552,1.400072,0.190686,-0.50752,7.525,-3.1325,-50.54
1448,9390648,1.481324,0.234362,-0.46176999999999996,7.8925,-3.605,-41.93
1449,9390745,1.574166,0.158112,-0.42700000000000005,4.62,1.6275,-32.9875
1450,9390842,1.5670899999999999,0.071492,-0.401624,-1.89,1.225,-23.6425
1451,9390939,1.487668,0.018666,-0.365146,-7.6475,-7.595,-15.8375
1452,9391035,1.371768,-0.060634,-0.349896,-12.04,-12.215,-9.45
1453,9391132,1.253916,-0.11285,-0.31890799999999997,-15.61,-13.86,-3.36
1454,9391229,1.184132,-0.126392,-0.26766799999999996,-18.3225,-15.33,3.325
1455,9391326,1.126792,-0.164578,-0.23058,-19.9325,-14.8225,11.4275
1456,9391422,1.04554,-0.227652,-0.195322,-20.58,-15.085,19.915
1457,9391519,0.9777081,-0.200202,-0.17738800000000002,-24.08,-17.885,26.985
1458,9391616,0.930372,-0.134932,-0.16409,-27.79,-19.0925,32.06
1459,9391712,0.8601,-0.047336,-0.151158,-30.7475,-18.2875,35.175
1460,9391809,0.755912,0.05246,-0.15372,-33.18,-19.1625,35.8925
1461,9391906,0.6706340000000001,0.12395199999999999,-0.154086,-32.5675,-22.2775,34.1425
1462,9392003,0.5978,0.131028,-0.17128800000000002,-30.38,-24.0975,31.57
1463,9392099,0.5172800999999999,0.09979600000000001,-0.163358,-26.39,-27.265,28.42
1464,9392196,0.495442,0.064538,-0.17385,-24.5175,-30.2225,25.2
1465,9392293,0.5206960999999999,0.008906,-0.169336,-23.0825,-23.8,22.575
1466,9392390,0.5604680000000001,-0.031598,-0.161894,-23.975,-19.04,20.1425
1467,9392486,0.5858439999999999,-0.074664,-0.17385,-25.0075,-16.7125,17.885
1468,9392583,0.5694961,-0.103578,-0.159942,-26.3725,-16.6075,15.1025
1469,9392680,0.570472,-0.097234,-0.15091400000000002,-27.58,-20.0025,10.885
1470,9392776,0.586454,-0.134932,-0.13456600000000002,-28.525,-18.095,7.14
1471,9392873,0.621468,-0.12078,-0.09979600000000001,-30.7125,-11.655,3.92
1472,9392970,0.6262260000000001,-0.10614000000000001,-0.051362,-32.1825,-6.3,0.5775
1473,9393067,0.6273241,-0.083204,-0.012565999999999999,-30.835,-1.7675,-2.345
1474,9393163,0.6350100000000001,-0.05612,0.019764,-29.085,3.99,-5.5475
1475,9393260,0.621468,-0.013175999999999998,0.03599,-28.105,10.9375,-9.625
1476,9393357,0.5997520000000001,0.040138,0.025131999999999998,-27.16,15.1725,-14.595
1477,9393454,0.5830380000000001,0.023790000000000002,-0.012565999999999999,-24.8675,17.22,-19.2325
1478,9393550,0.5892601,0.013663999999999999,-0.022203999999999998,-23.7475,20.335,-22.785
1479,9393647,0.66185,-0.023912,-0.061488,-22.2075,24.08,-25.48
1480,9393744,0.7795801,-0.000732,-0.11760799999999999,-20.5275,25.8125,-27.5275
1481,9393840,0.9270780999999999,0.031964,-0.166042,-19.4425,26.145,-28.1225
1482,9393937,1.057984,0.08344800000000001,-0.19251600000000002,-19.18,23.17,-27.5975
1483,9394034,1.1293540000000002,0.08576601,-0.132004,-18.2175,17.8325,-26.145
1484,9394131,1.1798620000000002,0.09784401,-0.12749000000000002,-15.8025,12.88,-23.3625
1485,9394227,1.21878,0.204594,-0.12529400000000002,-13.86,9.345,-20.1075
1486,9394324,1.284538,0.346968,-0.027206,-11.0775,9.66,-15.2075
1487,9394421,1.35847,0.44993599999999995,0.053924,-1.435,12.4775,-8.2075
1488,9394518,1.314062,0.367708,0.160064,12.9325,6.545,-3.64
1489,9394614,1.3205280000000001,0.177266,0.222162,16.7825,2.17,-2.485
1490,9394711,1.375916,0.021472,0.14493599999999998,9.1175,6.9125,0.665
1491,9394808,1.340902,-0.099552,-0.097966,2.5375,0.2625,4.3925
1492,9394904,1.2755100000000001,-0.21838000000000002,-0.23692399999999997,0.14,-11.6375,5.8275
1493,9395001,1.325286,-0.143228,-0.302194,-2.4675,-8.645,8.3125
1494,9395098,1.333826,-0.040260000000000004,-0.369294,-5.5825,2.87,14.595
1495,9395195,1.25233,-0.15396400000000002,-0.46042799999999995,5.985,-0.3675,19.775
1496,9395291,1.211582,-0.162748,-0.648308,18.935,-10.4125,23.38
1497,9395388,1.1539979999999999,-0.070638,-0.6822239999999999,24.5,-8.05,28.98
1498,9395485,1.092998,0.09735601,-0.6191501,28.63,-4.97,35.14
1499,9395582,1.0340719999999999,0.22777399999999998,-0.503128,30.03,-3.4125,41.3875
1500,9395678,0.920734,0.19397999999999999,-0.400648,25.6375,-7.3325,45.78
1501,9395775,0.842166,0.03843,-0.373564,24.325,-12.67,47.2325
1502,9395872,0.84241,-0.06929600000000001,-0.37551599999999996,20.335,-10.115,45.5175
1503,9395969,0.873276,-0.1342,-0.384056,16.275,-5.8625,39.2525
1504,9396065,0.9813681000000001,-0.18873399999999999,-0.40199,16.2925,-2.6425,28.105
1505,9396162,1.152778,-0.163236,-0.406748,19.9675,3.2375,14.98
1506,9396259,1.3298,-0.075396,-0.37759000000000004,25.76,9.3275,2.9225
1507,9396355,1.470222,0.016714,-0.33000999999999997,33.81,8.82,-8.1025
1508,9396452,1.504504,0.116876,-0.31158800000000003,40.6525,3.64,-16.695
1509,9396549,1.4130040000000001,0.183366,-0.28694400000000003,47.7575,-6.02,-22.3475
1510,9396646,1.292956,0.212646,-0.266936,53.2,-14.9275,-26.11
1511,9396742,1.168882,0.196298,-0.24656199999999998,58.94,-16.205,-29.1375
1512,9396839,1.091412,0.19702999999999998,-0.234362,62.4225,-17.045,-31.955
1513,9396936,1.04554,0.16811600000000002,-0.21313400000000002,66.92,-16.73,-35.35
1514,9397033,0.992348,0.162138,-0.193858,70.245,-16.24,-38.4125
1515,9397129,0.9408639999999999,0.12871,-0.18141400000000002,74.935,-16.6425,-40.215
1516,9397226,0.87718,0.08808401,-0.17751,78.62751,-16.17,-41.09
1517,9397323,0.8203280000000001,0.054778,-0.17446,81.83001,-16.2925,-41.3875
1518,9397420,0.776042,0.003782,-0.164212,84.4375,-15.1375,-41.72
1519,9397516,0.7391979999999999,-0.042822000000000006,-0.133102,85.62751,-13.265,-42.0
1520,9397613,0.7503,-0.043188,-0.18775799999999998,83.16001,-5.285,-41.8775
1521,9397710,0.7518859999999999,-0.07015,-0.147376,86.13501,-7.21,-43.995
1522,9397806,0.71858,-0.060024,-0.164578,85.505,-13.72,-45.0625
1523,9397903,0.6897880999999999,-0.033062,-0.171044,83.80751,-17.0975,-44.8875
1524,9398000,0.685884,-0.012931999999999999,-0.1708,82.53,-17.71,-44.135
1525,9398097,0.680638,0.005368,-0.174948,79.7825,-16.065,-41.93
1526,9398193,0.671976,0.02196,-0.17616800000000002,77.6125,-15.295,-38.815
1527,9398290,0.665144,0.008906,-0.164456,76.125,-15.3475,-35.28
1528,9398387,0.67405,-0.015128,-0.14090999999999998,74.6025,-13.9125,-31.1675
1529,9398484,0.6977180000000001,-0.046238,-0.108702,74.4275,-10.7275,-26.6
1530,9398580,0.72529,-0.047945999999999996,-0.086864,74.7075,-7.56,-21.9625
1531,9398677,0.743224,-0.048068,-0.052948,76.09000999999999,-5.74,-17.3775
1532,9398774,0.756034,-0.057339999999999995,-0.028792,77.4375,-5.355,-12.6
1533,9398871,0.752862,-0.08662001,-0.010004,79.9575,-5.2675,-7.315
1534,9398967,0.7482261,-0.10248,0.031842,82.005,-5.1625,-2.275
1535,9399064,0.766038,-0.09698999999999999,0.072956,84.4025,-3.395,1.61
1536,9399161,0.8174001000000001,-0.08308201,0.077836,87.325,-1.295,4.0775
1537,9399257,0.8866961,0.058926,0.018422,86.765,-0.63,4.7075
1538,9399354,0.9200021,0.105774,-0.002684,79.555,1.1025,3.08
1539,9399451,0.9290299999999999,0.081862,-0.021228,72.1525,7.7525,-0.5425
1540,9399548,0.9502581,0.00488,-0.051484,68.4425,12.4425,-4.5325
1541,9399644,0.9946659999999999,-0.043432,-0.08003201,62.7025,7.3675,-6.8775
1542,9399741,1.058106,-0.06819800000000001,-0.104798,55.895,4.62,-9.7825
1543,9399838,1.134966,-0.123464,-0.138958,49.0,4.6375,-13.3875
1544,9399935,1.191086,-0.168238,-0.133468,42.91,1.8025,-18.025
1545,9400031,1.191818,-0.201666,-0.09882,40.565,-1.19,-23.275
1546,9400128,1.141066,-0.22411399999999998,-0.058926,43.3125,-4.095,-27.5275
1547,9400225,1.044076,-0.194956,-0.032818,52.7975,-5.425,-29.7325
1548,9400322,0.9846620999999999,-0.10126,-0.104066,67.4275,-8.925,-28.07
1549,9400418,1.104588,-0.06539201,-0.288408,81.76001,-11.0075,-26.6875
1550,9400515,1.276608,-0.079056,-0.251686,92.925,-5.8275,-29.12
1551,9400612,1.288442,-0.08308201,-0.32147,98.7,-2.6425,-31.5525
1552,9400709,1.1350879999999999,-0.07551801,-0.42163199999999995,97.9475,-8.6625,-33.2325
1553,9400805,1.134112,-0.162992,-0.48543800000000004,97.12501,-10.71,-37.1
1554,9400902,1.184376,-0.202398,-0.524234,99.33001,-8.2775,-44.52
1555,9400999,1.18828,-0.20861999999999997,-0.544608,101.885,-9.2925,-51.3625
1556,9401095,1.170468,-0.160308,-0.550342,105.56,-14.595,-57.925
1557,9401192,1.094462,-0.090646,-0.495076,112.42,-21.5425,-66.36
1558,9401289,0.968558,-0.037942000000000004,-0.37393000000000004,123.0075,-24.5175,-73.3425
1559,9401386,0.964044,0.098576,-0.38369000000000003,128.695,-19.8625,-81.5675
1560,9401482,1.072014,0.18056,-0.354044,127.2775,-4.4625,-91.1225
1561,9401579,1.1661979999999998,0.26766799999999996,-0.30561,128.38,7.455,-94.0625
1562,9401676,1.222806,0.32708200000000004,-0.31049,130.06,2.5375,-86.7125
1563,9401773,1.266848,0.277916,-0.35136,132.825,-7.0175,-74.0075
1564,9401869,1.265262,0.080154,-0.32696,131.9675,-13.195,-60.4975
1565,9401966,1.34322,-0.085156,-0.315492,129.9375,-15.6625,-47.46
1566,9402063,1.48291,-0.203496,-0.324398,127.4525,-12.11,-36.575
1567,9402160,1.461438,-0.31097800000000003,-0.33366999999999997,128.8875,-14.1225,-28.77
1568,9402256,1.37372,-0.28181999999999996,-0.33610999999999996,129.29,-25.1475,-23.8
1569,9402353,1.253184,-0.201544,-0.32561799999999996,125.965,-28.4375,-21.525
1570,9402450,1.103246,-0.16835999999999998,-0.305732,125.02,-31.045,-20.0025
1571,9402546,0.9642879999999999,-0.166408,-0.275354,124.6525,-32.97,-17.605
1572,9402643,0.86559,-0.188368,-0.243024,122.2375,-30.205,-14.9625
1573,9402740,0.842166,-0.15945399999999998,-0.227408,118.0725,-25.06,-13.755
1574,9402837,0.849608,-0.142008,-0.19739600000000002,114.485,-20.37,-14.0525
1575,9402933,0.8995059999999999,-0.14274,-0.192394,116.27,-16.625,-16.5375
1576,9403030,0.9034101000000001,-0.12078,-0.14896199999999998,115.7625,-16.5375,-19.81
1577,9403127,0.8937719999999999,-0.08174001,-0.115534,116.9875,-19.075,-23.2575
1578,9403224,0.8693719999999999,-0.045262000000000004,-0.102724,118.3,-21.8925,-26.705
1579,9403320,0.8420440999999999,-0.039772,-0.08893801,121.345,-23.345,-30.4675
1580,9403417,0.8015399999999999,-0.043798000000000004,-0.080398,122.6925,-25.515,-33.5125
1581,9403514,0.7564001,-0.079544,-0.066246,124.565,-28.9625,-36.6275
1582,9403611,0.7199220000000001,-0.122366,-0.07515201,126.1225,-30.8875,-40.7925
1583,9403707,0.6895439999999999,-0.13456600000000002,-0.067344,124.5475,-31.43,-45.3075
1584,9403804,0.685762,-0.14274,-0.058682000000000005,123.3225,-30.5025,-50.2775
1585,9403901,0.688812,-0.169214,-0.032086,120.4,-28.49,-55.1775
1586,9403998,0.68076,-0.200568,-0.015616,115.9725,-26.9325,-59.22
1587,9404094,0.662338,-0.22777399999999998,-0.011956,110.5475,-26.005,-62.72
1588,9404191,0.632814,-0.252296,-0.009028000999999999,104.9825,-25.27,-66.1325
1589,9404288,0.6145141,-0.249246,-0.03782,98.945,-23.5725,-69.475
1590,9404385,0.616954,-0.22326,-0.05209400000000001,93.205,-20.4925,-73.045
1591,9404481,0.608658,-0.159088,-0.039894,87.6225,-16.8,-76.4225
1592,9404578,0.58133,-0.060634,-0.014884,83.0375,-11.2,-79.9225
1593,9404675,0.5551,0.05856,0.008418,78.9775,-3.115,-82.7225
1594,9404772,0.571204,0.148596,0.018666,75.8625,6.7025,-84.63
1595,9404868,0.654652,0.17214200000000002,0.011101999999999999,73.97251,16.2575,-85.6625
1596,9404965,0.764818,0.144204,-0.036844,74.41,22.47,-85.3125
1597,9405062,0.841678,0.13115,-0.08417999999999999,76.825,21.14,-84.875
1598,9405159,0.8396040000000001,0.174216,-0.071614,78.575,16.1175,-85.90751
1599,9405255,0.818132,0.232654,0.000976,78.26,11.62,-88.37501
1600,9405352,0.883768,0.170434,0.07259,76.6675,11.13,-87.78
1601,9405449,0.979294,-0.007076001,0.045018,74.7775,15.435,-82.3025
1602,9405545,1.093242,-0.281454,-0.129564,69.79,20.0025,-74.3225
1603,9405642,1.174982,-0.63867,-0.471896,65.0825,25.8125,-62.7725
1604,9405739,1.3540780000000001,-0.975024,-1.223782,67.165,25.62,-49.805
1605,9405836,1.4306940000000001,-0.677954,-1.193892,78.62751,16.8,-33.2675
1606,9405932,1.342732,0.0061,-0.8203280000000001,74.935,18.585,-17.4825
1607,9406029,1.3230899999999999,0.246806,-0.6351319999999999,76.02,19.4075,-6.265
1608,9406126,1.449482,0.399916,-0.447496,85.19,18.375,9.4675
1609,9406223,1.282342,0.424072,-0.34709,86.87,29.1375,26.4775
1610,9406319,1.030046,0.151524,-0.310246,97.755,6.65,25.3225
1611,9406416,0.945866,-0.058072000000000006,-0.31012399999999996,104.72,-4.725,11.9175
1612,9406513,1.096658,-0.094306,-0.416386,105.98,16.5375,-5.8625
1613,9406609,1.321138,-0.08967,-0.43676000000000004,112.35,30.2225,-25.6025
1614,9406706,1.485472,-0.055388,-0.398818,121.0475,31.7625,-45.4825
1615,9406803,1.49938,0.155672,-0.43859,126.14,25.8475,-60.69
1616,9406900,1.4299620000000002,0.269986,-0.395646,135.835,12.565,-68.0225
1617,9406996,1.33346,0.32635,-0.342942,146.72,8.2075,-69.405
1618,9407093,1.283806,0.442616,-0.305732,156.2925,9.2225,-68.2675
1619,9407190,1.217438,0.489464,-0.25864000000000004,166.3375,6.3175,-63.945
1620,9407287,1.2130459999999998,0.407968,-0.23119,178.6225,2.135,-59.78
1621,9407383,1.266238,0.289018,-0.200812,188.545,5.4425,-59.325
1622,9407480,1.284294,0.25254,-0.217282,193.8475,12.285,-62.86
1623,9407577,1.203774,0.17055599999999999,-0.18556199999999998,202.3525,0.875,-68.25
1624,9407673,1.12667,0.09577000000000001,-0.175314,206.6925,-1.9425,-75.425
1625,9407770,1.071892,0.096868,-0.18849000000000002,208.04,3.9375,-82.32
1626,9407867,0.9622141,0.09259801,-0.166042,214.0425,-15.1725,-86.905
1627,9407964,0.8536341000000001,0.08405800000000001,-0.146522,213.92,-21.385,-88.41001
1628,9408060,0.807396,0.039894,-0.11541199999999999,212.695,-11.9,-89.355
1629,9408157,0.774334,-0.002196,-0.08369201,208.53,-3.0275,-89.0575
1630,9408254,0.763476,-0.035624,-0.064538,203.245,-1.1375,-87.95501
1631,9408351,0.786778,-0.07747001,-0.035013999999999997,199.7275,-1.225,-85.6625
1632,9408447,0.803126,-0.11224,-0.039284,197.26,5.0225,-83.3875
1633,9408544,0.859856,-0.135298,-0.044407999999999996,195.4925,8.89,-81.095
1634,9408641,0.9086559999999999,-0.129076,-0.04867801,193.235,9.7475,-78.48751
1635,9408737,0.907802,-0.111874,-0.039284,190.295,6.5275,-77.1925
1636,9408834,0.888282,-0.103822,-0.03294,185.3775,2.485,-75.81
1637,9408931,0.8960899999999999,-0.10797000000000001,-0.039894,179.9,1.4525,-74.27
1638,9409028,0.9242720999999999,-0.123708,-0.027206,174.44,3.6925,-72.66
1639,9409124,0.9264680000000001,-0.167628,-0.025254,167.51,3.8325,-69.58
1640,9409221,0.9090219999999999,-0.20252,-0.029401999999999998,160.16,0.945,-65.0825
1641,9409318,0.8869401,-0.24631799999999998,-0.0244,151.9875,-1.1375,-60.8125
1642,9409414,0.8636379999999999,-0.28767600000000004,-0.01891,143.4825,-3.255,-56.595
1643,9409511,0.8504620999999999,-0.309392,-0.014274,133.735,-4.375,-51.835
1644,9409608,0.850096,-0.30487800000000004,-0.025986000000000002,124.565,-6.8075,-47.6
1645,9409705,0.861808,-0.30378,-0.029401999999999998,117.2675,-10.0975,-42.8925
1646,9409801,0.88999,-0.288896,-0.01891,112.0175,-12.46,-38.4825
1647,9409898,0.9379360000000001,-0.275476,-0.010248,106.2425,-15.505,-34.965
1648,9409995,0.9951540000000001,-0.243756,0.01342,101.6925,-17.29,-31.955
1649,9410091,1.037244,-0.20483800000000002,0.015372,96.25,-19.04,-29.96
1650,9410188,1.023458,-0.159088,0.046848,90.23001,-20.195,-28.7875
1651,9410285,0.9745360000000001,-0.111142,0.127856,83.52750999999999,-14.875,-28.3675
1652,9410382,0.9436701,-0.08064199,0.14274,74.025,-3.5,-28.5775
1653,9410478,0.9317141,-0.108458,0.20313,66.36,8.575,-28.63
1654,9410575,0.9446460999999999,-0.157868,0.22033200000000003,61.4425,17.5875,-27.7025
1655,9410672,0.9901521000000001,-0.154086,0.211914,54.7575,19.5125,-26.145
1656,9410769,1.057862,-0.168726,0.15555,49.7525,20.2125,-26.8275
1657,9410865,1.076894,-0.226188,0.161406,48.2125,21.5425,-28.28
1658,9410962,1.111664,-0.302804,0.154818,47.145,22.2425,-27.6675
1659,9411059,1.18706,-0.332206,0.020252000000000003,42.175,24.29,-25.6375
1660,9411155,1.270142,-0.294752,-0.22204000000000002,37.2575,22.3475,-22.9425
1661,9411252,1.314916,-0.19947,-0.671122,26.81,14.07,-20.02
1662,9411349,1.249524,-0.275476,-0.5754739999999999,27.825,9.1875,-18.2
1663,9411446,1.194502,-0.363316,-0.315736,41.5625,18.2525,-14.6825
1664,9411542,1.2530620000000001,-0.207644,-0.430782,36.015,20.335,-10.745
1665,9411639,1.259528,0.045872,-0.6569699999999999,38.045,13.8775,-10.1675
1666,9411736,1.1661979999999998,0.133712,-0.6140260000000001,47.075,6.93,-10.5
1667,9411833,1.098244,0.15274400000000002,-0.656238,59.9375,0.63,-12.6875
1668,9411929,1.094462,0.127978,-0.743468,69.37,-9.1,-17.7625
1669,9412026,1.019432,0.200568,-0.71675,73.675,-9.205,-25.8475
1670,9412123,1.08946,0.269498,-0.783362,70.805,1.19,-33.7575
1671,9412219,1.103246,0.19959200000000002,-0.785558,70.735,0.2975,-40.5125
1672,9412316,1.064694,0.15725799999999998,-0.7537159999999999,65.6075,-3.36,-43.1025
1673,9412413,1.118374,0.14383800000000002,-0.665998,63.8225,-2.17,-42.1225
1674,9412510,1.224392,0.074542,-0.609634,65.1875,3.36,-38.4825
1675,9412606,1.288442,0.03782,-0.55266,65.415,6.16,-33.95
1676,9412703,1.280268,0.044286,-0.477508,65.17,-1.155,-29.26
1677,9412800,1.225856,0.08857201,-0.43053800000000003,62.79,-3.1325,-23.4325
1678,9412896,1.167418,0.102846,-0.401624,60.2,6.8775,-17.64
1679,9412993,1.119716,0.085888,-0.34343,57.435,6.055,-11.235
1680,9413090,1.049566,0.051118000000000004,-0.306952,57.82,-4.165,-4.935
1681,9413187,0.9852719999999999,0.021106,-0.275964,56.84,-3.535,0.14
1682,9413283,0.907192,-0.013175999999999998,-0.264008,54.705,1.015,4.2175
1683,9413380,0.8777901,-0.038308,-0.22728600000000002,53.55,2.065,6.405
1684,9413477,0.837042,-0.008174001,-0.199104,49.9975,1.7675,7.4725
