,T,ax,ay,az,gx,gy,gz
0,172007,0.408456,0.23668000000000003,-0.718824,19.285,-19.6175,-17.8675
1,172159,0.43432,0.24131599999999997,-0.8015399999999999,63.8925,-100.5725,-24.8325
2,172258,0.447496,0.24863600000000002,-0.8552200000000001,66.325,-132.195,42.2625
3,172356,0.448716,0.252052,-0.8549761,49.14,-117.565,-15.9425
4,172454,0.44944799999999996,0.250832,-0.85644,2.7475,-7.875,-4.305
5,172552,0.452376,0.250344,-0.8549761,1.33,-4.41,-3.9725
6,172650,0.448716,0.24912399999999998,-0.856684,1.4875,-4.375,-3.9375
7,172748,0.45115600000000006,0.25058800000000003,-0.8569280999999999,1.4525,-4.3925,-3.885
8,172846,0.44944799999999996,0.251808,-0.8532681000000001,1.4875,-4.3575,-3.92
9,172944,0.451888,0.249612,-0.8552200000000001,1.505,-4.3575,-3.745
10,173042,0.450912,0.246196,-0.8571719999999999,1.4,-4.34,-3.745
11,173140,0.452132,0.24936799999999998,-0.8574161,1.4525,-4.3575,-3.7975
12,173239,0.449692,0.246928,-0.855708,1.4175,-4.4275,-3.9375
13,173337,0.44993599999999995,0.24888000000000002,-0.8586360000000001,1.33,-4.4975,-3.92
14,173435,0.452132,0.250832,-0.8559521000000001,1.4525,-4.4275,-3.9375
15,173533,0.450912,0.250832,-0.856196,1.47,-4.445,-3.8325
16,173631,0.44993599999999995,0.25058800000000003,-0.8540000000000001,1.4875,-4.34,-3.85
17,173729,0.450424,0.250344,-0.855708,1.505,-4.4275,-3.78
18,173827,0.45164399999999993,0.251564,-0.8549761,1.575,-4.3575,-3.7975
19,173925,0.4514,0.250344,-0.8547319999999999,1.54,-4.3925,-3.7625
20,174023,0.452132,0.250832,-0.8569280999999999,1.5575,-4.41,-3.78
21,174121,0.449204,0.248392,-0.8569280999999999,1.6625,-4.445,-3.815
22,174220,0.45164399999999993,0.2501,-0.8574161,1.505,-4.3925,-3.815
23,174318,0.450912,0.24863600000000002,-0.8579041,1.435,-4.375,-3.8325
24,174416,0.45164399999999993,0.251076,-0.8576601,1.435,-4.48,-3.9025
25,174514,0.45164399999999993,0.251808,-0.8574161,1.5225,-4.375,-3.8675
26,174612,0.4514,0.25058800000000003,-0.8544879999999999,1.575,-4.3575,-3.78
27,174710,0.45018,0.24766,-0.856684,1.645,-4.4275,-3.745
28,174808,0.450668,0.2501,-0.855708,1.5575,-4.4625,-3.7275
29,174906,0.45115600000000006,0.250344,-0.8574161,1.5225,-4.6025,-3.71
30,175004,0.449204,0.2501,-0.8581479999999999,1.575,-4.4975,-3.7625
31,175102,0.44896,0.24766,-0.8544879999999999,1.61,-4.3575,-3.71
32,175201,0.4514,0.248392,-0.859368,1.5225,-4.5675,-3.675
33,175299,0.44993599999999995,0.2501,-0.8581479999999999,1.5925,-4.34,-3.745
34,175397,0.44993599999999995,0.251076,-0.8571719999999999,1.6625,-4.235,-3.7625
35,175495,0.4514,0.24888000000000002,-0.8576601,1.5225,-4.3925,-3.675
36,175593,0.44896,0.24766,-0.856196,1.5575,-4.34,-3.6575
37,175691,0.450424,0.24912399999999998,-0.8540000000000001,1.4175,-4.445,-3.7275
38,175789,0.450424,0.24790399999999999,-0.8552200000000001,1.4,-4.445,-3.7975
39,175887,0.44993599999999995,0.24888000000000002,-0.8544879999999999,1.4,-4.3575,-3.745
40,175985,0.450424,0.248392,-0.8547319999999999,1.4525,-4.3225,-3.815
41,176083,0.44725200000000004,0.250832,-0.8576601,1.4525,-4.3925,-3.8325
42,176182,0.44896,0.252052,-0.8554641,1.47,-4.3575,-3.7275
43,176280,0.44944799999999996,0.249612,-0.8581479999999999,1.4525,-4.3925,-3.71
44,176378,0.449204,0.24790399999999999,-0.8576601,1.4525,-4.3925,-3.71
45,176476,0.44773999999999997,0.2501,-0.8532681000000001,1.4525,-4.235,-3.605
46,176574,0.44822799999999996,0.24936799999999998,-0.85644,1.3825,-4.2875,-3.64
47,176672,0.44993599999999995,0.2501,-0.85644,1.295,-4.4275,-3.64
48,176770,0.450424,0.24936799999999998,-0.8576601,1.365,-4.27,-3.605
49,176868,0.449692,0.251564,-0.8552200000000001,1.4525,-4.2,-3.5875
50,176966,0.451888,0.25132,-0.85644,1.435,-4.165,-3.57
51,177065,0.45018,0.248392,-0.8544879999999999,1.435,-4.1125,-3.4825
52,177163,0.4514,0.250832,-0.854244,1.4175,-4.1125,-3.465
53,177261,0.45261999999999997,0.25058800000000003,-0.8552200000000001,1.365,-4.2175,-3.5875
54,177359,0.453108,0.24912399999999998,-0.856196,1.3825,-4.2,-3.6225
55,177457,0.45261999999999997,0.250344,-0.856684,1.365,-4.1825,-3.6575
56,177555,0.4514,0.24863600000000002,-0.853024,1.4875,-4.235,-3.57
57,177653,0.45164399999999993,0.251808,-0.854244,1.5225,-4.235,-3.57
58,177751,0.45018,0.250344,-0.8571719999999999,1.575,-4.235,-3.5875
59,177849,0.450668,0.2501,-0.8559521000000001,1.61,-4.2875,-3.465
60,177948,0.45018,0.250344,-0.854244,1.645,-4.2875,-3.4825
61,178046,0.4514,0.24936799999999998,-0.8544879999999999,1.61,-4.2,-3.5
62,178144,0.451888,0.248148,-0.8559521000000001,1.435,-4.27,-3.535
63,178242,0.453596,0.24863600000000002,-0.856196,1.4525,-4.2525,-3.71
64,178340,0.45457200000000003,0.24936799999999998,-0.8552200000000001,1.3825,-4.2,-3.7975
65,178438,0.45286400000000004,0.24863600000000002,-0.8554641,1.365,-4.27,-3.71
66,178536,0.453596,0.24888000000000002,-0.85644,1.3825,-4.375,-3.6575
67,178634,0.45286400000000004,0.24888000000000002,-0.8540000000000001,1.4175,-4.3925,-3.8325
68,178732,0.44993599999999995,0.24644000000000002,-0.856196,1.4525,-4.4275,-3.885
69,178830,0.452132,0.25132,-0.853512,1.4875,-4.34,-3.9025
70,178929,0.45018,0.248148,-0.856196,1.3825,-4.305,-3.745
71,179027,0.45115600000000006,0.25058800000000003,-0.8544879999999999,1.4525,-4.2875,-3.7625
72,179125,0.450424,0.25058800000000003,-0.8559521000000001,1.435,-4.2875,-3.815
73,179223,0.451888,0.24936799999999998,-0.856196,1.365,-4.2875,-3.815
74,179321,0.45115600000000006,0.249612,-0.8522921,1.365,-4.3575,-3.7975
75,179419,0.450668,0.25132,-0.8569280999999999,1.4175,-4.3925,-3.815
76,179517,0.449692,0.25132,-0.8547319999999999,1.4525,-4.3225,-3.7275
77,179615,0.45286400000000004,0.249856,-0.85644,1.4175,-4.375,-3.7275
78,179713,0.452132,0.2501,-0.8547319999999999,1.3825,-4.41,-3.675
79,179812,0.451888,0.251076,-0.8552200000000001,1.365,-4.41,-3.71
80,179910,0.453108,0.24863600000000002,-0.855708,1.435,-4.2875,-3.745
81,180008,0.45164399999999993,0.252052,-0.8547319999999999,1.505,-4.34,-3.71
82,180106,0.44944799999999996,0.250344,-0.8559521000000001,1.505,-4.34,-3.71
83,180204,0.450912,0.250832,-0.8540000000000001,1.4875,-4.375,-3.71
84,180302,0.45115600000000006,0.24936799999999998,-0.8544879999999999,1.54,-4.3575,-3.71
85,180400,0.450668,0.24936799999999998,-0.854244,1.505,-4.3225,-3.675
86,180498,0.450668,0.24936799999999998,-0.85156,1.3825,-4.34,-3.7975
87,180596,0.45164399999999993,0.251076,-0.8540000000000001,1.4,-4.2,-3.8325
88,180694,0.45286400000000004,0.249612,-0.856684,1.435,-4.27,-3.85
89,180792,0.452132,0.25058800000000003,-0.855708,1.3125,-4.235,-3.8325
90,180891,0.450424,0.251076,-0.8549761,1.365,-4.1125,-3.7975
91,180989,0.45018,0.251564,-0.8552200000000001,1.4,-4.2,-3.815
92,181087,0.450668,0.25132,-0.8549761,1.5225,-4.2175,-3.7275
93,181185,0.45164399999999993,0.251808,-0.853512,1.575,-4.2875,-3.5525
94,181283,0.448716,0.24863600000000002,-0.8522921,1.6975,-4.41,-3.5525
95,181381,0.45286400000000004,0.248148,-0.8547319999999999,1.6975,-4.3925,-3.5875
96,181479,0.4514,0.249612,-0.8540000000000001,1.575,-4.41,-3.675
97,181577,0.44993599999999995,0.251076,-0.854244,1.6275,-4.3575,-3.745
98,181675,0.450912,0.251076,-0.8559521000000001,1.645,-4.3575,-3.815
99,181773,0.450912,0.248392,-0.8540000000000001,1.5575,-4.34,-3.7975
100,181872,0.449204,0.25132,-0.8552200000000001,1.5575,-4.375,-3.745
101,181970,0.450912,0.252052,-0.8540000000000001,1.505,-4.3925,-3.71
102,182068,0.45018,0.25132,-0.8549761,1.575,-4.34,-3.6925
103,182166,0.45261999999999997,0.24766,-0.8522921,1.5575,-4.445,-3.6925
104,182264,0.452132,0.24717199999999998,-0.8522921,1.645,-4.5325,-3.675
105,182362,0.451888,0.24863600000000002,-0.8527800999999999,1.575,-4.5325,-3.71
106,182460,0.452132,0.248392,-0.853024,1.5575,-4.5325,-3.745
107,182558,0.4514,0.249856,-0.8554641,1.4875,-4.48,-3.71
108,182656,0.452376,0.250344,-0.8549761,1.4875,-4.4275,-3.71
109,182755,0.45286400000000004,0.24863600000000002,-0.853512,1.4875,-4.4975,-3.7625
110,182853,0.45286400000000004,0.24888000000000002,-0.853756,1.4875,-4.5325,-3.745
111,182951,0.44896,0.24912399999999998,-0.8527800999999999,1.5225,-4.4975,-3.745
112,183049,0.45164399999999993,0.248148,-0.85644,1.5225,-4.62,-3.7275
113,183147,0.452132,0.248392,-0.855708,1.54,-4.4975,-3.78
114,183245,0.452376,0.24863600000000002,-0.853512,1.6275,-4.585,-3.7275
115,183343,0.4514,0.24936799999999998,-0.854244,1.5225,-4.585,-3.7625
116,183441,0.450912,0.2501,-0.8532681000000001,1.5225,-4.515,-3.815
117,183539,0.450668,0.252784,-0.853024,1.575,-4.4275,-3.8325
118,183638,0.451888,0.24912399999999998,-0.8532681000000001,1.5925,-4.445,-3.7275
119,183736,0.45164399999999993,0.249856,-0.854244,1.47,-4.5325,-3.7275
120,183834,0.450424,0.250344,-0.853512,1.5925,-4.4975,-3.78
121,183932,0.45164399999999993,0.2501,-0.853756,1.6275,-4.48,-3.78
122,184030,0.45164399999999993,0.25058800000000003,-0.8549761,1.5575,-4.655,-3.7625
123,184128,0.450912,0.251076,-0.853512,1.5925,-4.585,-3.78
124,184226,0.45018,0.2501,-0.853512,1.5925,-4.48,-3.815
125,184324,0.4514,0.248392,-0.853756,1.5575,-4.55,-3.7625
126,184422,0.45018,0.24717199999999998,-0.855708,1.54,-4.4625,-3.9025
127,184521,0.451888,0.24888000000000002,-0.856196,1.4525,-4.3925,-3.7975
128,184619,0.450424,0.2501,-0.8532681000000001,1.435,-4.41,-3.8675
129,184717,0.44993599999999995,0.250832,-0.8522921,1.5575,-4.3925,-3.815
130,184815,0.45261999999999997,0.24936799999999998,-0.8532681000000001,1.6275,-4.41,-3.745
131,184913,0.45286400000000004,0.24936799999999998,-0.8544879999999999,1.575,-4.4275,-3.7625
132,185011,0.44993599999999995,0.250832,-0.853512,1.5575,-4.4625,-3.815
133,185109,0.45261999999999997,0.248148,-0.8552200000000001,1.645,-4.4625,-3.7625
134,185207,0.450912,0.248148,-0.8513161,1.6625,-4.55,-3.7975
135,185305,0.450668,0.249856,-0.8544879999999999,1.61,-4.6025,-3.7625
136,185404,0.450424,0.249612,-0.853512,1.61,-4.515,-3.7975
137,185502,0.45115600000000006,0.251076,-0.8559521000000001,1.5925,-4.6025,-3.7975
138,185600,0.4514,0.24863600000000002,-0.8559521000000001,1.61,-4.6025,-3.9025
139,185698,0.450424,0.24570799999999998,-0.856196,1.61,-4.585,-3.92
140,185796,0.45261999999999997,0.248148,-0.8547319999999999,1.6275,-4.48,-3.9725
141,185894,0.449692,0.24863600000000002,-0.8540000000000001,1.435,-4.62,-4.025
142,185992,0.44847200000000004,0.246928,-0.8544879999999999,1.4,-4.5675,-4.095
143,186090,0.448716,0.2501,-0.8552200000000001,1.3825,-4.4975,-4.095
144,186188,0.450912,0.24936799999999998,-0.8547319999999999,1.435,-4.41,-3.9375
145,186286,0.452132,0.249856,-0.8549761,1.435,-4.3225,-3.92
146,186385,0.451888,0.25058800000000003,-0.8508280999999999,1.4,-4.4275,-3.8675
147,186483,0.45164399999999993,0.249856,-0.8559521000000001,1.4525,-4.4975,-3.815
148,186581,0.45115600000000006,0.249856,-0.8518040000000001,1.4525,-4.4975,-3.815
149,186679,0.45018,0.2501,-0.8520479999999999,1.5575,-4.515,-3.7975
150,186777,0.452132,0.249612,-0.853756,1.5575,-4.4625,-3.78
151,186875,0.45164399999999993,0.249856,-0.8554641,1.5225,-4.4625,-3.8675
152,186973,0.452132,0.24912399999999998,-0.856196,1.4175,-4.4625,-3.92
153,187071,0.45115600000000006,0.251564,-0.8552200000000001,1.54,-4.4975,-3.8325
154,187169,0.450424,0.250832,-0.854244,1.4875,-4.41,-3.815
155,187268,0.450424,0.2501,-0.8540000000000001,1.54,-4.41,-3.8675
156,187366,0.44993599999999995,0.250832,-0.8540000000000001,1.435,-4.48,-3.885
157,187464,0.45115600000000006,0.251076,-0.8547319999999999,1.4525,-4.445,-3.8675
158,187562,0.45164399999999993,0.251564,-0.8518040000000001,1.505,-4.2875,-3.8675
159,187660,0.450912,0.249856,-0.853756,1.4875,-4.3225,-3.7625
160,187758,0.45115600000000006,0.25058800000000003,-0.8547319999999999,1.505,-4.34,-3.78
161,187856,0.449204,0.25058800000000003,-0.853756,1.5575,-4.34,-3.815
162,187954,0.45286400000000004,0.249856,-0.854244,1.5225,-4.3575,-3.8675
163,188052,0.44847200000000004,0.249612,-0.8544879999999999,1.4875,-4.3575,-3.78
164,188151,0.449204,0.2501,-0.8552200000000001,1.435,-4.2525,-3.71
165,188249,0.44993599999999995,0.250832,-0.8554641,1.54,-4.0775,-3.7275
166,188347,0.45018,0.24912399999999998,-0.8510719999999999,1.5225,-4.095,-3.71
167,188445,0.453108,0.24766,-0.853024,1.54,-4.1475,-3.605
168,188543,0.452132,0.24912399999999998,-0.854244,1.54,-4.3225,-3.675
169,188641,0.45018,0.247416,-0.8547319999999999,1.5225,-4.375,-3.7625
170,188739,0.450668,0.249856,-0.8527800999999999,1.47,-4.2875,-3.78
171,188837,0.44944799999999996,0.251808,-0.853756,1.47,-4.305,-3.78
172,188936,0.44944799999999996,0.24888000000000002,-0.8513161,1.54,-4.34,-3.815
173,189034,0.44993599999999995,0.24912399999999998,-0.853756,1.575,-4.3575,-3.7975
174,189132,0.451888,0.248148,-0.8527800999999999,1.6625,-4.4975,-3.745
175,189230,0.450424,0.24863600000000002,-0.850584,1.5925,-4.5325,-3.7625
176,189328,0.448716,0.25058800000000003,-0.8549761,1.54,-4.4275,-3.7625
177,189426,0.44993599999999995,0.24888000000000002,-0.85644,1.5925,-4.41,-3.78
178,189524,0.44993599999999995,0.249856,-0.854244,1.61,-4.375,-3.71
179,189622,0.452132,0.24888000000000002,-0.8522921,1.6975,-4.375,-3.6925
180,189720,0.452132,0.247416,-0.853512,1.715,-4.5325,-3.815
181,189818,0.449692,0.250832,-0.8552200000000001,1.575,-4.48,-3.8675
182,189917,0.4514,0.252052,-0.8549761,1.54,-4.2175,-3.71
183,190015,0.45115600000000006,0.251076,-0.8518040000000001,1.4875,-4.2525,-3.7275
184,190113,0.449692,0.2501,-0.8520479999999999,1.5925,-4.3225,-3.78
185,190211,0.450424,0.249856,-0.8549761,1.54,-4.41,-3.71
186,190309,0.45018,0.24912399999999998,-0.8520479999999999,1.5925,-4.375,-3.78
187,190407,0.45164399999999993,0.24912399999999998,-0.8540000000000001,1.47,-4.305,-3.815
188,190505,0.45286400000000004,0.248392,-0.8522921,1.47,-4.235,-3.8675
189,190603,0.44993599999999995,0.250344,-0.8527800999999999,1.5225,-4.305,-3.7975
190,190701,0.450912,0.24790399999999999,-0.8520479999999999,1.7325,-4.375,-3.71
191,190800,0.45286400000000004,0.250344,-0.8525360000000001,1.855,-4.55,-3.6575
192,190898,0.44993599999999995,0.250344,-0.8518040000000001,1.7675,-4.585,-3.64
193,190996,0.4514,0.2501,-0.8488761,1.8725,-4.62,-3.64
194,191094,0.450424,0.249856,-0.8513161,1.82,-4.5325,-3.605
195,191192,0.45018,0.249856,-0.8520479999999999,1.785,-4.5675,-3.675
196,191290,0.450424,0.249612,-0.853756,1.785,-4.4275,-3.675
197,191388,0.45115600000000006,0.24863600000000002,-0.8522921,1.715,-4.4275,-3.675
198,191486,0.453108,0.24863600000000002,-0.853024,1.61,-4.3225,-3.71
199,191584,0.44896,0.2501,-0.853756,1.5925,-4.27,-3.745
200,191683,0.449204,0.249856,-0.8540000000000001,1.6275,-4.3575,-3.7975
201,191781,0.45164399999999993,0.24863600000000002,-0.8522921,1.61,-4.3225,-3.71
202,191879,0.45115600000000006,0.24912399999999998,-0.8518040000000001,1.6275,-4.445,-3.675
203,191977,0.45018,0.251076,-0.854244,1.6275,-4.515,-3.71
204,192075,0.449692,0.24888000000000002,-0.8525360000000001,1.68,-4.6375,-3.7975
205,192173,0.4514,0.24936799999999998,-0.8552200000000001,1.6275,-4.6375,-3.7625
206,192271,0.45164399999999993,0.248148,-0.856684,1.61,-4.5325,-3.85
207,192369,0.451888,0.24936799999999998,-0.8552200000000001,1.5225,-4.4625,-3.8675
208,192467,0.452132,0.24936799999999998,-0.8549761,1.505,-4.4275,-3.78
209,192565,0.44993599999999995,0.248392,-0.854244,1.4,-4.3225,-3.85
210,192664,0.451888,0.250344,-0.854244,1.435,-4.3925,-3.85
211,192762,0.45164399999999993,0.250344,-0.8513161,1.4,-4.4275,-3.7975
212,192860,0.45115600000000006,0.248392,-0.8527800999999999,1.435,-4.445,-3.7975
213,192958,0.45115600000000006,0.248148,-0.8520479999999999,1.435,-4.445,-3.8325
214,193056,0.448716,0.24888000000000002,-0.853512,1.47,-4.41,-3.78
215,193154,0.45164399999999993,0.24863600000000002,-0.8547319999999999,1.505,-4.3925,-3.7625
216,193252,0.450424,0.250344,-0.853756,1.61,-4.445,-3.745
217,193350,0.450912,0.24936799999999998,-0.853756,1.645,-4.4625,-3.71
218,193449,0.449692,0.25058800000000003,-0.854244,1.645,-4.4975,-3.7275
219,193547,0.450424,0.25132,-0.8544879999999999,1.6975,-4.585,-3.71
220,193645,0.450668,0.25058800000000003,-0.8532681000000001,1.68,-4.4275,-3.71
221,193743,0.449204,0.250344,-0.854244,1.8025,-4.4275,-3.5525
222,193841,0.45261999999999997,0.2501,-0.855708,1.995,-4.585,-3.5875
223,193939,0.45164399999999993,0.248148,-0.8544879999999999,2.0825,-4.7075,-3.5525
224,194037,0.448716,0.248392,-0.8549761,2.1,-4.6725,-3.5175
225,194135,0.452132,0.24888000000000002,-0.8559521000000001,2.1875,-4.69,-3.4475
226,194233,0.4514,0.24888000000000002,-0.8532681000000001,2.2225,-4.725,-3.4475
227,194332,0.44896,0.24570799999999998,-0.8552200000000001,2.24,-4.795,-3.4825
228,194430,0.45018,0.24863600000000002,-0.853024,2.0825,-4.795,-3.535
229,194528,0.4514,0.24863600000000002,-0.8513161,1.9425,-4.7075,-3.535
230,194626,0.45261999999999997,0.24863600000000002,-0.8552200000000001,1.9075,-4.62,-3.57
231,194724,0.449692,0.246196,-0.856196,1.785,-4.55,-3.605
232,194822,0.45164399999999993,0.246928,-0.8552200000000001,1.715,-4.34,-3.605
233,194920,0.450424,0.247416,-0.8544879999999999,1.68,-4.3575,-3.6925
234,195018,0.45115600000000006,0.24912399999999998,-0.8527800999999999,1.61,-4.445,-3.605
235,195116,0.450668,0.24717199999999998,-0.853756,1.68,-4.445,-3.6225
236,195214,0.452376,0.246928,-0.8549761,1.7325,-4.4275,-3.6575
237,195313,0.45286400000000004,0.246928,-0.8552200000000001,1.715,-4.48,-3.6225
238,195411,0.4514,0.24668400000000001,-0.8571719999999999,1.645,-4.55,-3.6575
239,195509,0.450668,0.246928,-0.8554641,1.5575,-4.515,-3.7975
240,195607,0.45018,0.248392,-0.8527800999999999,1.54,-4.5675,-3.71
241,195705,0.450668,0.24888000000000002,-0.853024,1.4525,-4.445,-3.7275
242,195803,0.45261999999999997,0.249612,-0.8547319999999999,1.5225,-4.375,-3.7625
243,195901,0.45261999999999997,0.24790399999999999,-0.856196,1.54,-4.4975,-3.7625
244,195999,0.45018,0.248392,-0.8527800999999999,1.5575,-4.5325,-3.71
245,196097,0.450912,0.24936799999999998,-0.8547319999999999,1.61,-4.585,-3.71
246,196195,0.450668,0.248148,-0.8554641,1.6625,-4.5675,-3.7275
247,196294,0.45115600000000006,0.24912399999999998,-0.853756,1.61,-4.48,-3.71
248,196392,0.452132,0.248392,-0.8544879999999999,1.61,-4.4625,-3.6925
249,196490,0.449692,0.24888000000000002,-0.853512,1.61,-4.4625,-3.675
250,196588,0.450912,0.248148,-0.8549761,1.6625,-4.445,-3.6575
251,196686,0.452132,0.24766,-0.8549761,1.68,-4.445,-3.6225
252,196784,0.448716,0.24570799999999998,-0.854244,1.715,-4.3575,-3.64
253,196882,0.45164399999999993,0.24863600000000002,-0.8554641,1.645,-4.3925,-3.7625
254,196980,0.4514,0.24888000000000002,-0.8540000000000001,1.5925,-4.375,-3.745
255,197078,0.45115600000000006,0.24790399999999999,-0.855708,1.575,-4.3575,-3.7275
256,197176,0.45164399999999993,0.248392,-0.853512,1.575,-4.3925,-3.78
257,197275,0.450424,0.24790399999999999,-0.8547319999999999,1.5925,-4.4275,-3.7625
258,197373,0.451888,0.24790399999999999,-0.85644,1.6275,-4.445,-3.78
259,197471,0.450668,0.24570799999999998,-0.8576601,1.5925,-4.48,-3.815
260,197569,0.45164399999999993,0.24863600000000002,-0.8549761,1.575,-4.41,-3.745
261,197667,0.450424,0.246928,-0.8547319999999999,1.61,-4.48,-3.6925
262,197765,0.45115600000000006,0.24863600000000002,-0.8547319999999999,1.575,-4.55,-3.71
263,197863,0.45115600000000006,0.24863600000000002,-0.853512,1.5575,-4.445,-3.7625
264,197961,0.44993599999999995,0.249612,-0.8540000000000001,1.5575,-4.5325,-3.815
265,198059,0.450912,0.24717199999999998,-0.853024,1.5575,-4.55,-3.745
266,198157,0.4514,0.24766,-0.8547319999999999,1.715,-4.585,-3.605
267,198256,0.450668,0.24888000000000002,-0.8559521000000001,1.6625,-4.515,-3.64
268,198354,0.449692,0.24668400000000001,-0.853756,1.715,-4.515,-3.6925
269,198452,0.44944799999999996,0.247416,-0.8527800999999999,1.68,-4.4975,-3.6925
270,198550,0.44944799999999996,0.24790399999999999,-0.8547319999999999,1.47,-4.4625,-3.71
271,198648,0.44993599999999995,0.24936799999999998,-0.8540000000000001,1.68,-4.4275,-3.745
272,198746,0.449692,0.247416,-0.855708,1.61,-4.41,-3.71
273,198844,0.449204,0.246928,-0.854244,1.5925,-4.375,-3.6925
274,198942,0.448716,0.24644000000000002,-0.8547319999999999,1.575,-4.3925,-3.675
275,199040,0.450424,0.245464,-0.856684,1.61,-4.3925,-3.6225
276,199138,0.449692,0.24570799999999998,-0.8552200000000001,1.54,-4.3925,-3.605
277,199237,0.449692,0.246928,-0.8544879999999999,1.5925,-4.375,-3.5875
278,199335,0.45115600000000006,0.24766,-0.854244,1.61,-4.3225,-3.605
279,199433,0.450912,0.24863600000000002,-0.853512,1.6275,-4.235,-3.6225
280,199531,0.450912,0.24790399999999999,-0.8547319999999999,1.6275,-4.3225,-3.535
281,199629,0.44993599999999995,0.245464,-0.8544879999999999,1.61,-4.3575,-3.57
282,199727,0.453108,0.246196,-0.8532681000000001,1.5575,-4.34,-3.6225
283,199825,0.45115600000000006,0.247416,-0.854244,1.5925,-4.3225,-3.6575
284,199923,0.45018,0.24717199999999998,-0.8518040000000001,1.54,-4.3225,-3.6575
285,200021,0.44896,0.24863600000000002,-0.853512,1.5225,-4.3925,-3.6925
286,200119,0.449204,0.24863600000000002,-0.8549761,1.645,-4.4275,-3.675
287,200218,0.45018,0.248148,-0.8547319999999999,1.6625,-4.34,-3.5525
288,200316,0.450668,0.24668400000000001,-0.8552200000000001,1.6625,-4.2875,-3.57
289,200414,0.449692,0.246928,-0.8552200000000001,1.645,-4.34,-3.535
290,200512,0.44993599999999995,0.245464,-0.8547319999999999,1.61,-4.3575,-3.4475
291,200610,0.450424,0.24668400000000001,-0.855708,1.5575,-4.3925,-3.535
292,200708,0.449204,0.245952,-0.8544879999999999,1.4875,-4.27,-3.4825
293,200806,0.449692,0.245952,-0.8544879999999999,1.505,-4.27,-3.5875
294,200904,0.44822799999999996,0.24522,-0.8544879999999999,1.47,-4.2525,-3.57
295,201002,0.452132,0.24668400000000001,-0.854244,1.54,-4.235,-3.5525
296,201101,0.45018,0.24668400000000001,-0.8549761,1.54,-4.2525,-3.535
297,201199,0.450424,0.247416,-0.8549761,1.54,-4.2525,-3.4825
298,201297,0.45115600000000006,0.248392,-0.855708,1.5225,-4.3575,-3.4825
299,201395,0.450668,0.246928,-0.853756,1.5925,-4.3225,-3.535
300,201493,0.450424,0.24522,-0.85644,1.5575,-4.3225,-3.605
301,201591,0.45018,0.245464,-0.8549761,1.4875,-4.3225,-3.605
302,201689,0.450424,0.24570799999999998,-0.8549761,1.4525,-4.2525,-3.6575
303,201787,0.450912,0.24790399999999999,-0.853756,1.4875,-4.305,-3.7275
304,201885,0.4514,0.24668400000000001,-0.8552200000000001,1.575,-4.2525,-3.675
305,201983,0.450668,0.24668400000000001,-0.8549761,1.4525,-4.305,-3.7975
306,202082,0.44944799999999996,0.24522,-0.853756,1.365,-4.375,-3.85
307,202180,0.45018,0.24522,-0.855708,1.4175,-4.2875,-3.6925
308,202278,0.45115600000000006,0.24790399999999999,-0.8549761,1.435,-4.3225,-3.6575
309,202376,0.45164399999999993,0.24522,-0.85644,1.54,-4.41,-3.7975
310,202474,0.450424,0.245952,-0.8540000000000001,1.47,-4.41,-3.7625
311,202572,0.449204,0.245952,-0.8525360000000001,1.4175,-4.4625,-3.7625
312,202670,0.44944799999999996,0.24497600000000003,-0.8554641,1.47,-4.3575,-3.675
313,202768,0.450912,0.24790399999999999,-0.8552200000000001,1.435,-4.34,-3.71
314,202866,0.45286400000000004,0.24668400000000001,-0.8532681000000001,1.3475,-4.165,-3.71
315,202965,0.45335200000000003,0.245952,-0.853512,1.3125,-4.305,-3.745
316,203063,0.45115600000000006,0.245464,-0.8547319999999999,1.2775,-4.34,-3.7275
317,203161,0.452132,0.24863600000000002,-0.8552200000000001,1.26,-4.2875,-3.8325
318,203259,0.45018,0.247416,-0.854244,1.3125,-4.2875,-3.7625
319,203357,0.4514,0.24912399999999998,-0.8554641,1.3475,-4.2875,-3.675
320,203455,0.45164399999999993,0.24766,-0.8544879999999999,1.3475,-4.3225,-3.675
321,203553,0.45261999999999997,0.245464,-0.856684,1.47,-4.2525,-3.71
322,203651,0.45115600000000006,0.24497600000000003,-0.8552200000000001,1.365,-4.165,-3.745
323,203749,0.45335200000000003,0.24497600000000003,-0.8527800999999999,1.295,-4.2,-3.8325
324,203847,0.450668,0.24717199999999998,-0.854244,1.33,-4.2525,-3.85
325,203946,0.452132,0.248392,-0.8544879999999999,1.2775,-4.2875,-3.92
326,204044,0.45164399999999993,0.248392,-0.8554641,1.3125,-4.3225,-3.9025
327,204142,0.45115600000000006,0.24766,-0.8547319999999999,1.3825,-4.3925,-3.9025
328,204240,0.449692,0.24497600000000003,-0.8559521000000001,1.3825,-4.3575,-3.78
329,204338,0.449692,0.24644000000000002,-0.8554641,1.4525,-4.34,-3.815
330,204436,0.4514,0.24790399999999999,-0.854244,1.4875,-4.4275,-3.78
331,204534,0.450668,0.246928,-0.853512,1.5225,-4.375,-3.815
332,204632,0.45115600000000006,0.245464,-0.8574161,1.4525,-4.41,-3.815
333,204730,0.4514,0.24644000000000002,-0.853756,1.505,-4.41,-3.9025
334,204829,0.450668,0.24644000000000002,-0.8525360000000001,1.47,-4.48,-3.92
335,204927,0.451888,0.245464,-0.853024,1.4875,-4.445,-3.955
336,205025,0.452132,0.24570799999999998,-0.8527800999999999,1.505,-4.445,-4.0075
337,205123,0.44896,0.248148,-0.8540000000000001,1.4875,-4.4275,-3.99
338,205221,0.450424,0.24766,-0.8547319999999999,1.4175,-4.4275,-3.92
339,205319,0.450912,0.249856,-0.853512,1.5225,-4.445,-3.7975
340,205417,0.45018,0.245952,-0.855708,1.5575,-4.4625,-3.71
341,205515,0.45115600000000006,0.246928,-0.8547319999999999,1.5925,-4.4625,-3.7275
342,205613,0.452132,0.24351199999999998,-0.853512,1.54,-4.55,-3.78
343,205712,0.450668,0.24668400000000001,-0.8552200000000001,1.575,-4.41,-3.7975
344,205810,0.4514,0.24644000000000002,-0.853512,1.505,-4.3575,-3.78
345,205908,0.449692,0.245952,-0.853024,1.4875,-4.48,-3.8325
346,206006,0.45018,0.24522,-0.8547319999999999,1.4175,-4.48,-3.885
347,206104,0.45018,0.24717199999999998,-0.8559521000000001,1.4525,-4.34,-3.92
348,206202,0.45115600000000006,0.246928,-0.8552200000000001,1.4525,-4.305,-3.8675
349,206300,0.4514,0.24668400000000001,-0.8559521000000001,1.47,-4.515,-3.885
350,206398,0.451888,0.247416,-0.8547319999999999,1.4875,-4.41,-3.92
351,206497,0.453108,0.246196,-0.853024,1.505,-4.3575,-3.9725
352,206595,0.452132,0.246928,-0.8540000000000001,1.4875,-4.41,-3.9025
353,206693,0.45115600000000006,0.24717199999999998,-0.853512,1.3825,-4.445,-3.9375
354,206791,0.45018,0.24644000000000002,-0.8547319999999999,1.435,-4.4625,-3.9025
355,206889,0.452376,0.248148,-0.853024,1.47,-4.445,-3.955
356,206987,0.449692,0.246196,-0.854244,1.365,-4.375,-3.9375
357,207085,0.44993599999999995,0.246928,-0.8554641,1.365,-4.3575,-3.92
358,207183,0.45115600000000006,0.246928,-0.8559521000000001,1.295,-4.445,-3.85
359,207281,0.45164399999999993,0.248392,-0.8544879999999999,1.3825,-4.3225,-3.885
360,207379,0.450668,0.24790399999999999,-0.853756,1.33,-4.3925,-3.9025
361,207478,0.450912,0.245952,-0.8549761,1.33,-4.515,-3.92
362,207576,0.450912,0.24717199999999998,-0.853024,1.3475,-4.34,-3.9375
363,207674,0.45164399999999993,0.24790399999999999,-0.8554641,1.3125,-4.4275,-3.955
364,207772,0.45383999999999997,0.24570799999999998,-0.8518040000000001,1.2775,-4.3575,-3.85
365,207870,0.45115600000000006,0.246196,-0.8532681000000001,1.3825,-4.2525,-3.9375
366,207968,0.45164399999999993,0.24888000000000002,-0.8547319999999999,1.3475,-4.305,-3.955
367,208066,0.4514,0.2501,-0.854244,1.4,-4.3575,-3.85
368,208164,0.45286400000000004,0.245952,-0.853024,1.4525,-4.48,-3.78
369,208263,0.45164399999999993,0.24570799999999998,-0.8527800999999999,1.4525,-4.5325,-3.745
370,208361,0.451888,0.24522,-0.8525360000000001,1.4175,-4.3925,-3.85
371,208459,0.45115600000000006,0.24717199999999998,-0.8544879999999999,1.4175,-4.41,-3.8675
372,208557,0.45115600000000006,0.24912399999999998,-0.8549761,1.33,-4.3925,-3.955
373,208655,0.453108,0.24570799999999998,-0.8525360000000001,1.3475,-4.4275,-4.0075
374,208753,0.4514,0.24766,-0.855708,1.3475,-4.375,-3.9725
375,208851,0.45506,0.24668400000000001,-0.8527800999999999,1.3125,-4.3225,-4.0425
376,208949,0.451888,0.248148,-0.85644,1.295,-4.3925,-3.99
377,209047,0.454084,0.248148,-0.8520479999999999,1.3825,-4.48,-4.0775
378,209146,0.45383999999999997,0.244488,-0.85156,1.4175,-4.6025,-4.095
379,209244,0.45261999999999997,0.24570799999999998,-0.8518040000000001,1.435,-4.725,-4.13
380,209342,0.45286400000000004,0.24888000000000002,-0.856196,1.505,-4.8125,-4.1475
381,209440,0.452376,0.24888000000000002,-0.856684,1.68,-4.935,-4.1475
382,209538,0.450668,0.248392,-0.8549761,1.7675,-4.935,-4.0775
383,209636,0.447496,0.247416,-0.856684,1.47,-4.69,-4.1825
384,209734,0.44896,0.24790399999999999,-0.856196,1.19,-4.305,-4.2175
385,209832,0.450912,0.250344,-0.8554641,0.9625,-3.9725,-4.2
386,209931,0.45018,0.24717199999999998,-0.856196,0.7875,-3.815,-4.13
387,210029,0.454084,0.249612,-0.8552200000000001,0.735,-3.745,-4.1125
388,210127,0.452376,0.247416,-0.8549761,0.9275,-3.85,-4.095
389,210225,0.453108,0.24766,-0.853756,1.0325,-4.06,-4.1125
390,210323,0.45115600000000006,0.24766,-0.8525360000000001,1.155,-4.1825,-4.165
391,210421,0.452132,0.248148,-0.8540000000000001,1.1375,-4.34,-4.2175
392,210519,0.45335200000000003,0.24668400000000001,-0.8518040000000001,1.2775,-4.515,-4.2
393,210617,0.453596,0.245464,-0.8508280999999999,1.5225,-4.7425,-4.235
394,210716,0.45432799999999995,0.24522,-0.8510719999999999,1.505,-4.9175,-4.305
395,210814,0.44993599999999995,0.24497600000000003,-0.856196,1.33,-4.9175,-4.41
396,210912,0.4514,0.249856,-0.8540000000000001,1.2775,-4.7425,-4.4975
397,211010,0.452132,0.24888000000000002,-0.8540000000000001,1.1725,-4.69,-4.55
398,211108,0.449692,0.24888000000000002,-0.8569280999999999,0.8925,-4.375,-4.7075
399,211206,0.45383999999999997,0.246196,-0.8513161,0.5775,-3.9025,-4.8125
400,211304,0.45261999999999997,0.24863600000000002,-0.853024,-0.14,-3.64,-4.9
401,211402,0.45432799999999995,0.24278000000000002,-0.853512,-0.2275,-3.535,-5.1625
402,211501,0.459696,0.24570799999999998,-0.8574161,-0.77,-3.43,-5.4425
403,211599,0.46848,0.241804,-0.8571719999999999,-2.17,-2.8875,-5.775
404,211697,0.466772,0.24888000000000002,-0.8544879999999999,-3.7975,-2.52,-6.615
405,211795,0.44896,0.2562,-0.8518040000000001,-4.235,-2.905,-7.21
406,211893,0.44164,0.258884,-0.8522921,-3.675,-3.1675,-7.07
407,211991,0.44383599999999995,0.260348,-0.8479,-2.765,-3.3425,-6.7025
408,212089,0.440176,0.26108000000000003,-0.853756,-2.1,-3.4125,-6.335
409,212187,0.443592,0.258884,-0.8549761,-1.19,-3.045,-5.915
410,212285,0.463844,0.26303200000000004,-0.8581479999999999,-1.0675,-2.8525,-5.5825
411,212384,0.456524,0.265472,-0.85156,-1.05,-2.5725,-5.5475
412,212482,0.44212799999999997,0.270108,-0.850584,-0.42,-3.2025,-5.1625
413,212580,0.441884,0.27084,-0.8491200000000001,0.7175,-3.465,-4.4275
414,212678,0.45506,0.26474000000000003,-0.8527800999999999,1.365,-3.3075,-3.6925
415,212776,0.46603999999999995,0.252296,-0.847412,1.3125,-3.15,-3.43
416,212874,0.458232,0.239608,-0.8439959999999999,0.8575,-3.5875,-3.99
417,212972,0.45896400000000004,0.239364,-0.8471681000000001,0.035,-3.885,-4.8825
418,213070,0.457988,0.244488,-0.8457040000000001,-0.805,-4.1825,-5.5825
419,213168,0.45457200000000003,0.249612,-0.844972,-1.6275,-4.48,-6.3
420,213267,0.45432799999999995,0.253272,-0.844972,-1.89,-4.795,-6.72
421,213365,0.45554799999999995,0.251076,-0.847412,-2.31,-4.97,-7.0875
422,213463,0.452376,0.25351599999999996,-0.8476561,-2.6775,-5.075,-7.5075
423,213561,0.44773999999999997,0.26303200000000004,-0.847412,-2.9575,-5.2675,-7.7
424,213659,0.441884,0.265472,-0.8486319999999999,-2.9575,-5.0925,-7.735
425,213757,0.435296,0.268888,-0.8508280999999999,-2.6075,-4.69,-7.3325
426,213855,0.43163599999999996,0.274744,-0.8464360000000001,-1.8375,-4.27,-6.6675
427,213953,0.4331,0.274988,-0.846924,-0.595,-3.85,-5.705
428,214052,0.43627200000000005,0.277916,-0.8425321,0.945,-3.5525,-4.62
429,214150,0.443592,0.2745,-0.8400921,2.625,-3.5875,-3.605
430,214248,0.447496,0.268156,-0.8432639999999999,3.7275,-3.6925,-2.975
431,214346,0.444324,0.266204,-0.8400921,4.48,-3.885,-2.52
432,214444,0.450424,0.263764,-0.8405800999999999,5.25,-3.955,-2.1875
433,214542,0.452132,0.260592,-0.8420440999999999,5.775,-4.095,-1.9775
434,214640,0.44676400000000005,0.26108000000000003,-0.84424,5.985,-4.375,-1.995
435,214738,0.450424,0.25864000000000004,-0.84424,6.3525,-4.5325,-1.925
436,214837,0.45164399999999993,0.25864000000000004,-0.8508280999999999,6.685,-4.8475,-1.785
437,214935,0.454084,0.257664,-0.8525360000000001,6.545,-4.76,-1.8025
438,215033,0.457988,0.25254,-0.849852,6.4925,-4.5675,-1.96
439,215131,0.45261999999999997,0.25376,-0.8549761,6.23,-4.9,-2.1525
440,215229,0.4575,0.25351599999999996,-0.8518040000000001,6.1775,-4.725,-2.2925
441,215327,0.46335600000000005,0.254736,-0.8586360000000001,5.8275,-4.865,-2.5025
442,215425,0.458232,0.252296,-0.854244,5.46,-4.7775,-2.7125
443,215523,0.4553041,0.25351599999999996,-0.8549761,4.935,-4.9875,-3.0275
444,215622,0.45457200000000003,0.252784,-0.8527800999999999,4.41,-4.9175,-3.2025
445,215720,0.45554799999999995,0.25351599999999996,-0.8520479999999999,3.745,-4.9175,-3.325
446,215818,0.45432799999999995,0.250344,-0.855708,3.1325,-4.725,-3.5
447,215916,0.451888,0.251808,-0.856196,2.59,-4.725,-3.745
448,216014,0.451888,0.251564,-0.853024,2.0825,-4.62,-3.885
449,216112,0.45286400000000004,0.25351599999999996,-0.8522921,1.715,-4.2175,-3.9375
450,216210,0.45432799999999995,0.25376,-0.8527800999999999,1.505,-3.9725,-3.955
451,216308,0.45457200000000003,0.252296,-0.8510719999999999,1.3825,-3.9375,-3.99
452,216406,0.45506,0.25498000000000004,-0.8520479999999999,1.1375,-3.92,-4.0775
453,216505,0.4514,0.258152,-0.853756,0.8575,-3.99,-3.9725
454,216603,0.45286400000000004,0.256444,-0.8547319999999999,0.7525,-3.92,-3.8325
455,216701,0.45335200000000003,0.25742,-0.8508280999999999,0.7525,-3.85,-3.7625
456,216799,0.452376,0.258884,-0.850096,0.7175,-3.64,-3.5175
457,216897,0.450424,0.262056,-0.8510719999999999,0.8575,-3.6925,-3.2025
458,216995,0.45018,0.257664,-0.8481440999999998,1.1375,-3.64,-2.905
459,217093,0.4514,0.25351599999999996,-0.8522921,1.1025,-3.5,-2.485
460,217191,0.454084,0.256932,-0.8571719999999999,0.5775,-3.0625,-2.24
461,217290,0.458232,0.257664,-0.85034,-0.2625,-2.5375,-1.925
462,217388,0.46042799999999995,0.261324,-0.8586360000000001,-1.505,-2.0125,-1.61
463,217486,0.46164799999999995,0.262788,-0.87108,-3.3775,-1.505,-1.1375
464,217584,0.467992,0.26913200000000004,-0.856196,-6.895,0.14,-0.63
465,217682,0.441396,0.26596,-0.8647360000000001,-10.0275,2.835,0.07
466,217780,0.42138809999999993,0.281332,-0.8679081,-9.9225,5.8625,1.47
467,217878,0.401868,0.300608,-0.8796200000000001,-9.835,8.2075,3.8675
468,217976,0.38552,0.33428,-0.8857200999999999,-9.7125,13.23,7.665
469,218075,0.36136399999999996,0.363072,-0.8769360999999999,-10.71,19.145,12.4425
470,218173,0.337208,0.340624,-0.8744960999999999,-10.0275,26.7575,17.92
471,218271,0.247416,0.346968,-0.934276,-6.93,38.9725,25.8475
472,218369,0.444812,0.265472,-1.025044,-1.8725,55.7725,36.085
473,218467,0.255956,0.203984,-1.1041,-3.4825,71.1725,47.8975
474,218565,0.441396,0.31842,-1.186572,-21.84,83.265,59.7275
475,218663,0.30012,0.749568,-1.356884,-33.6,92.2075,69.73751
476,218761,0.153232,0.9440360999999999,-1.625284,-32.5325,99.96,77.735
477,218860,-0.043188,0.9503799999999999,-1.866112,-20.1775,91.1225,83.3875
478,218958,-0.059536,0.8291120999999999,-1.7275200000000002,-0.49,75.0575,83.9125
479,219056,-0.332816,0.84424,-1.72996,-3.9375,45.8675,72.9925
480,219154,-0.60878,0.8676640999999999,-1.634068,-17.9025,19.5475,57.085
481,219252,-0.8327720999999999,0.8508280999999999,-1.4879120000000001,-23.7825,-1.4525,40.2675
482,219350,-0.9398880999999999,0.71248,-1.341512,-22.855,-14.875,22.05
483,219448,-0.981612,0.561932,-1.277584,-23.9925,-24.8675,-0.455
484,219546,-0.9562360999999999,0.438224,-1.2761200000000001,-30.6425,-33.1275,-24.8675
485,219645,-0.8937719999999999,0.325984,-1.272216,-38.0975,-40.7225,-47.425
486,219743,-0.81862,0.249856,-1.306376,-42.245,-47.1625,-66.3425
487,219841,-0.6944241,0.188856,-1.390312,-41.37,-52.5525,-80.185
488,219939,-0.534604,0.135176,-1.493036,-37.6075,-59.5875,-90.23001
489,220037,-0.333304,0.11955999999999999,-1.6104,-32.865,-70.14,-97.545
490,220135,-0.1403,0.133956,-1.706048,-26.5125,-85.3825,-101.605
491,220233,0.002684,0.148352,-1.7263,-16.1875,-102.7425,-101.4825
492,220331,0.08344800000000001,0.13785999999999998,-1.690188,-2.87,-121.38,-97.3
493,220430,0.12566,0.0976,-1.590392,10.745,-137.935,-89.355
494,220528,0.164944,0.066124,-1.48596,19.9675,-151.34,-79.345
495,220626,0.22448,0.07198,-1.39202,22.925,-161.4725,-68.7575
496,220724,0.28377199999999997,0.11467999999999999,-1.324188,21.595,-169.365,-58.4675
497,220822,0.335744,0.16958,-1.26026,19.215,-175.14,-49.2625
498,220920,0.377956,0.211792,-1.190232,17.22,-178.7275,-41.51
499,221018,0.41455600000000004,0.241804,-1.11874,15.33,-179.725,-35.5075
500,221116,0.451888,0.25132,-1.0406600000000001,12.8975,-177.9925,-30.6775
501,221215,0.484828,0.260592,-0.9669721,9.5375,-174.4225,-27.09
502,221313,0.5160600000000001,0.28377199999999997,-0.9232961,5.5825,-169.4875,-24.0275
503,221411,0.5587601,0.304268,-0.8813280000000001,2.17,-164.045,-21.245
504,221509,0.609268,0.32452,-0.8425321,-0.245,-159.18,-19.18
505,221607,0.647332,0.346968,-0.780068,-1.4525,-155.1025,-17.78
506,221705,0.676856,0.35502,-0.692716,-0.9975,-150.29,-16.5375
507,221803,0.721996,0.345992,-0.580476,0.6125,-143.43,-15.1025
508,221901,0.7869,0.33818400000000004,-0.444568,2.1875,-133.63,-13.44
509,221999,0.88328,0.319152,-0.292068,2.765,-120.96,-11.655
510,222098,1.012356,0.309636,-0.12444000000000001,3.115,-104.58,-9.6425
511,222196,1.158756,0.298656,0.07442,4.655,-83.8425,-5.4775
512,222294,1.3298,0.302316,0.235704,6.79,-56.4375,2.31
513,222392,1.569164,0.31232,0.186172,3.4125,-28.7525,12.0925
514,222490,1.82512,0.33061999999999997,0.216916,-7.4725,-7.035,19.25
515,222588,1.931504,0.42285200000000006,0.17519200000000001,-19.915,7.035,21.6125
516,222686,1.879532,0.479216,0.19154000000000002,-28.5775,17.0975,22.5925
517,222784,1.737036,0.48726800000000003,0.24034,-27.37,29.155,23.9225
518,222883,1.54208,0.53314,0.17616800000000002,-22.2425,42.595,24.325
519,222981,1.221708,1.178764,0.19764,4.935,72.94,18.97
520,223079,-0.8527800999999999,0.15054800000000002,-0.311832,83.16001,167.09,18.2175
521,223177,-1.025044,-0.38552,-2.316536,0.7875,188.6675,8.8025
522,223275,0.85156,0.34038,-1.9954319999999999,-24.9725,231.175,-25.865
523,223373,2.3555759999999997,-0.367464,-0.038064,33.215,249.41,-49.4375
524,223471,2.1130400000000003,-0.10858,-2.145004,-41.2475,201.2325,-65.135
525,223569,0.9240280000000001,-0.177144,-1.546716,-64.1025,129.2375,-53.8825
526,223667,0.48531599999999997,-0.44408000000000003,-0.96014,-28.42,128.975,-11.9875
527,223766,0.6178081,-0.037088,-0.9933241,-42.945,122.4825,23.6425
528,223864,0.882548,0.6605081,-1.1324040000000002,-66.3075,110.5475,24.7975
529,223962,0.8884040000000001,1.047736,-1.188036,-69.405,96.65250999999999,11.6025
530,224060,0.63318,1.039928,-1.325408,-43.9425,84.525,6.335
531,224158,0.960384,0.9720960999999999,-1.380796,-4.55,70.385,2.0475
532,224256,0.8378960999999999,0.418704,-1.022116,37.45,63.07,1.0325
533,224354,0.60878,0.12078,-0.987956,25.2525,43.155,1.12
534,224452,0.57096,0.491904,-1.005036,17.3425,36.715,5.495
535,224551,0.560956,0.7539600000000001,-0.9435479999999999,15.225,29.2775,6.3175
536,224649,0.388448,0.420412,-0.8466800999999999,26.845,26.215,6.0375
537,224747,0.354044,0.282796,-0.8662001,27.65,24.4475,7.28
538,224845,0.4023561,0.400404,-0.8549761,24.8325,25.06,8.1025
539,224943,0.317932,0.429684,-0.794952,27.7025,24.955,9.5725
540,225041,0.28011199999999997,0.411872,-0.7390760000000001,35.455,29.3475,12.565
541,225139,0.332084,0.432612,-0.776896,46.13,37.8175,16.975
542,225237,0.459696,0.329644,-0.8735200000000001,58.1875,43.47,21.14
543,225336,0.467016,0.25376,-0.876692,73.4475,42.91,25.55
544,225434,0.55266,0.226188,-1.0248,77.7,32.375,24.7625
545,225532,0.515328,0.229848,-0.965752,61.565,19.355,19.2675
546,225630,0.46311199999999997,0.2989,-0.9171961,40.8975,13.5625,13.0025
547,225728,0.43798000000000004,0.308172,-0.9113399999999999,27.8775,6.2475,10.3775
548,225826,0.46335600000000005,0.25961599999999996,-0.8784,22.295,3.2025,10.465
549,225924,0.45725600000000005,0.28377199999999997,-0.871568,17.7975,2.2925,9.625
550,226022,0.446276,0.280844,-0.8671761,14.0525,2.52,8.0675
551,226121,0.43651599999999996,0.291824,-0.880352,10.955,2.8,6.8775
552,226219,0.42822,0.284748,-0.8605879999999999,9.2575,3.4475,6.335
553,226317,0.425292,0.296948,-0.869616,8.12,3.57,6.3
554,226415,0.44164,0.27938,-0.8581479999999999,8.6975,3.885,7.1225
555,226513,0.450424,0.27718400000000004,-0.8703481,8.855,3.6225,7.875
556,226611,0.46603999999999995,0.279624,-0.8549761,8.295,2.415,8.295
557,226709,0.482388,0.25058800000000003,-0.841556,8.8025,2.0825,7.7525
558,226807,0.47336000000000006,0.242292,-0.8425321,8.8025,1.505,6.545
559,226906,0.45871999999999996,0.2379,-0.8664440000000001,8.33,1.925,5.39
560,227004,0.423096,0.245464,-0.887184,5.81,1.6275,5.7925
561,227102,0.431392,0.28328400000000004,-0.87474,2.9575,2.7475,8.0325
562,227200,0.387472,0.257176,-0.8927959999999999,2.2225,4.41,10.2375
563,227298,0.40357600000000005,0.219112,-0.8874280999999999,1.9425,7.21,10.5875
564,227396,0.488976,0.17543599999999998,-0.831308,-1.7675,14.8225,10.465
565,227494,0.44993599999999995,0.215452,-0.8559521000000001,-7.9275,24.2725,10.0625
566,227592,0.43236800000000003,0.206668,-0.8540000000000001,-11.2,30.695,6.9825
567,227691,0.444812,0.24351199999999998,-0.8220360000000001,-14.35,39.3575,3.885
568,227789,0.43798000000000004,0.23424,-0.8486319999999999,-18.34,50.1375,2.4325
569,227887,0.43944399999999995,0.24156,-0.8574161,-20.1075,60.165,1.645
570,227985,0.442616,0.266936,-0.8671761,-21.7,70.1925,2.2225
571,228083,0.443104,0.279136,-0.8701040000000001,-23.17,81.4275,5.635
572,228181,0.4553041,0.28328400000000004,-0.8591241,-26.075,98.21,13.475
573,228279,0.475312,0.275476,-0.8847440999999999,-32.1475,123.1825,22.855
574,228377,0.5070319999999999,0.285236,-0.864492,-36.54,144.9525,32.76
575,228476,0.535824,0.26766799999999996,-0.8540000000000001,-39.3575,164.4125,39.655
576,228574,0.5551,0.277428,-0.885964,-45.535,184.2225,39.8475
577,228672,0.60146,0.333304,-0.859368,-52.4475,213.2725,39.9175
578,228770,0.639768,0.35843600000000003,-0.973316,-55.615,250.46,46.8125
579,228868,0.70394,0.34892,-0.9435479999999999,-45.8325,300.44,58.275
580,228966,0.780312,0.368196,-1.05164,-48.16,352.8,69.73751
581,229064,0.855708,0.339892,-1.234884,-55.2825,429.17,82.425
582,229162,0.8315520000000001,0.28548,-1.565992,-67.4625,527.38,94.6225
583,229261,0.9328120000000001,0.246196,-1.869284,-90.4575,572.4425,96.84501
584,229359,1.160952,0.177144,-1.713856,-107.2575,573.3875,95.00751
585,229457,2.8931080000000002,1.955904,-2.0984,-148.8375,573.405,61.4775
586,229555,2.678144,0.512888,-1.306132,-141.1375,569.1875,47.985
587,229653,1.291736,0.85644,-2.346304,-163.7825,454.615,16.0825
588,229751,1.593076,0.9450120000000001,-2.555168,-126.14,264.2325,39.1825
589,229849,2.229184,1.62626,-2.337764,-105.9275,140.035,6.5275
590,229947,2.144028,-0.04514,-7.173112,-170.59,337.89,-142.205
591,230046,0.6912520000000001,-0.216916,-1.15046,-7.98,-72.73,68.495
592,230144,3.71734,1.511824,-2.08986,-123.76,230.09,133.7875
593,230242,0.8398479999999999,1.938824,-4.691632,-242.69,-41.1075,42.5075
594,230340,0.5165481,1.648464,-2.536868,-89.005,-165.305,13.2475
595,230438,0.005368,1.377624,-1.8121880000000001,-7.07,-262.29,-14.5425
596,230536,-0.43724799999999997,0.916952,-1.272704,90.265,-260.33,-10.255
597,230634,-0.739808,0.5655920999999999,-0.892308,133.77,-250.0225,-5.46
598,230733,-0.668316,0.30548800000000004,-0.636108,145.775,-231.8225,-5.46
599,230831,-0.410408,0.246928,-0.619516,131.11,-216.51,-11.0075
600,230929,-0.162504,0.256444,-0.739808,107.24,-211.89,-23.1175
601,231027,0.050752,0.307684,-0.8142281,84.945,-219.6425,-37.765
602,231125,0.24644000000000002,0.378932,-0.915976,67.4275,-236.0225,-51.3975
603,231223,0.42748800000000003,0.46116,-1.029436,57.9775,-256.3225,-63.0175
604,231321,0.6007279999999999,0.496784,-1.0687200000000001,55.72,-278.845,-72.905
605,231419,0.720776,0.49312399999999995,-0.9994241,60.55,-302.2425,-82.1975
606,231517,0.781532,0.474092,-0.9713639999999999,68.1975,-322.42,-89.79251
607,231616,0.81862,0.432856,-0.9552601000000001,76.30001,-337.4,-93.065
608,231714,0.892064,0.363804,-0.9528200000000001,82.6875,-347.8125,-92.2425
609,231812,0.9752681000000001,0.302072,-0.9635560999999999,85.55751,-355.53,-87.9375
610,231910,1.078236,0.252784,-1.033828,82.285,-362.3025,-81.5675
611,232008,1.17486,0.219356,-1.089704,73.255,-370.0025,-74.7075
612,232106,1.261236,0.21594000000000002,-1.129476,60.69,-378.0875,-67.4275
613,232204,1.3383399999999999,0.227408,-1.193648,45.1325,-386.295,-60.0775
614,232302,1.41764,0.237656,-1.234884,26.985,-393.4875,-54.0925
615,232401,1.508652,0.275476,-1.327604,6.5275,-398.0725,-49.28
616,232499,1.574288,0.370392,-1.410076,-15.47,-400.89,-45.535
617,232597,1.606984,0.6441600000000001,-1.641144,-38.9025,-401.38,-43.2075
618,232695,1.7924240000000002,0.9886881,-1.8522040000000002,-53.4625,-397.5475,-47.3725
619,232793,2.2479720000000003,1.210972,-1.998604,-60.4625,-393.1375,-68.915
620,232891,2.8809080000000002,1.334192,-1.8178,-45.6575,-390.145,-103.215
621,232989,3.361588,1.42862,-1.61284,-16.975,-388.7275,-131.11
622,233087,3.687328,1.1951120000000002,-1.02114,32.4275,-381.535,-134.9775
623,233186,3.799568,0.8540000000000001,-0.263276,71.1725,-365.995,-126.6125
624,233284,3.6514599999999997,0.534116,0.630008,93.7125,-337.6275,-118.72
625,233382,3.3425559999999996,0.321836,1.365912,97.02,-296.9575,-113.47
626,233480,3.126128,0.288408,1.80194,87.0975,-241.1325,-106.3475
627,233578,3.015108,0.239608,2.00568,73.2375,-170.975,-89.18
628,233676,3.3486559999999996,0.020008,2.18014,54.25,-89.39,-59.4475
629,233774,3.6473120000000003,-0.178608,2.273592,19.0575,-28.0175,-24.64
630,233872,3.48432,0.054412,1.8117,-37.835,5.635,-2.9225
631,233971,3.008276,0.8418,1.159244,-77.4375,35.4025,4.6375
632,234069,-0.127368,1.036024,0.786412,-19.145,118.0725,10.7625
633,234167,-2.320684,0.376736,-0.5736441,16.24,176.54,-5.7575
634,234265,-1.9581,-0.8174001000000001,-2.731336,-64.1725,319.2525,35.14
635,234363,1.289296,-0.28767600000000004,1.462048,-8.2775,389.2875,-12.8625
636,234461,4.9939480000000005,-1.019432,-0.071492,-14.9625,480.445,-82.39
637,234559,2.306044,-0.466528,-3.9044879999999997,-216.65,264.985,-50.05
638,234657,3.1985959999999998,-0.520208,-1.72386,-117.5125,282.24,5.005
639,234755,2.117188,1.279292,-2.044964,-134.96,210.3675,46.9175
640,234854,1.575996,4.5752440000000005,-2.610312,-107.835,126.9975,22.5225
641,234952,2.011536,1.45912,-0.71492,106.7325,145.985,-3.465
642,235050,0.711016,-1.657248,-1.3468799999999999,160.5625,101.0975,47.39
643,235148,0.561932,0.354288,-0.981612,67.8825,52.9025,38.2725
644,235246,0.7005239999999999,1.05408,-0.9886881,36.6625,43.1725,20.965
645,235344,0.543144,-0.061488,-0.9791719999999999,64.1025,46.0075,17.745
646,235442,0.5429,0.248392,-1.102636,40.4075,29.89,14.105
647,235540,0.4404201,0.42944,-0.8291120999999999,29.8025,24.2025,10.01
648,235638,0.479704,0.33818400000000004,-0.9198799999999999,28.07,21.28,9.24
649,235737,0.49580799999999997,0.244488,-0.9291520000000001,26.88,19.18,9.5025
650,235835,0.42114399999999996,0.24497600000000003,-0.9381801,19.005,14.49,7.3675
651,235933,0.431392,0.27205999999999997,-0.906216,12.8975,15.085,5.4775
652,236031,0.44822799999999996,0.2684,-0.8723001,10.255,14.9975,5.775
653,236129,0.45554799999999995,0.270352,-0.8647360000000001,8.575,13.965,6.0025
654,236227,0.428464,0.296216,-0.8679081,6.405,13.7725,5.74
655,236325,0.454084,0.2684,-0.869616,5.7925,15.5575,6.1425
656,236423,0.48214399999999996,0.216428,-0.863516,3.01,17.6225,5.2675
657,236521,0.4575,0.233508,-0.8808401,-4.235,18.585,2.17
658,236619,0.44066400000000006,0.31476,-0.8520479999999999,-9.5375,20.7025,0.105
659,236718,0.44090799999999997,0.35160399999999997,-0.8298440999999999,-9.94,22.4875,0.945
660,236816,0.44993599999999995,0.27694,-0.8352120000000001,-6.9125,22.8725,2.0825
661,236914,0.439932,0.291824,-0.81862,-7.525,22.855,2.0125
662,237012,0.468236,0.319152,-0.823256,-7.91,24.815,1.435
663,237110,0.45871999999999996,0.302316,-0.8174001000000001,-5.845,25.375,2.345
664,237208,0.45993999999999996,0.24082800000000001,-0.8276481,-4.5675,25.2175,3.3775
665,237306,0.477996,0.22033200000000003,-0.771528,-8.3825,27.2475,4.4975
666,237404,0.472628,0.341356,-0.7766521,-16.3275,29.6975,7.035
667,237502,0.417972,0.4026,-0.8103239999999999,-10.7275,30.975,9.8875
668,237601,0.472872,0.317932,-0.8254520000000001,1.8725,31.885,12.18
669,237699,0.533384,0.294752,-0.793976,5.7925,31.7975,15.26
670,237797,0.516792,0.329644,-0.7854361,6.7725,25.025,16.835
671,237895,0.5058121,0.297192,-0.8276481,7.525,20.4575,17.7275
672,237993,0.5294800000000001,0.23668000000000003,-0.818376,8.715,18.27,18.1475
673,238091,0.52704,0.260104,-0.811056,7.7175,17.85,17.15
674,238189,0.5063,0.242048,-0.8464360000000001,6.895,17.4825,14.6825
675,238287,0.506544,0.21618400000000002,-0.8052,5.25,20.0375,11.095
676,238386,0.49580799999999997,0.265472,-0.838628,0.56,28.42,6.5975
677,238484,0.46164799999999995,0.288896,-0.8698601,-1.5225,34.1775,5.0575
678,238582,0.47994799999999993,0.27205999999999997,-0.8676640999999999,-2.2575,42.7875,6.51
679,238680,0.447496,0.291824,-0.9015799999999999,-6.5625,58.0475,8.9775
680,238778,0.49751599999999996,0.25498000000000004,-0.8679081,-12.635,77.7175,15.2775
681,238876,0.562664,0.190564,-0.801784,-18.5325,108.7975,29.47
682,238974,0.580232,0.199104,-0.818376,-26.0925,141.505,41.3175
683,239072,0.557296,0.21276799999999998,-0.860344,-38.4475,169.4525,40.9325
684,239170,0.613904,0.25522399999999995,-0.8991401,-49.9275,206.43,34.09
685,239268,0.654652,0.274744,-0.9489161,-60.4275,252.8925,29.9075
686,239367,0.613904,0.251808,-1.052616,-74.935,299.5825,34.1425
687,239465,0.775188,0.393816,-1.17364,-89.425,364.245,39.795
688,239563,0.7849480999999999,0.317688,-1.485228,-120.2075,439.88,57.435
689,239661,0.889624,0.178852,-1.5706280000000001,-168.6475,528.5525,74.1475
690,239759,1.02724,0.21667199999999998,-1.9788400000000002,-184.205,572.53,68.8975
691,239857,1.6506599999999998,0.44164,-2.0417919999999996,-227.43,573.405,53.5675
692,239955,2.710352,1.075308,-2.520764,-259.77,573.405,53.8125
693,240053,2.768424,0.571692,-2.3067759999999997,-242.515,563.535,13.335
694,240151,1.4823,0.550708,-2.774524,-170.1525,388.4825,-2.765
695,240250,1.539396,2.291648,-2.338496,-79.7475,71.78501,-76.895
696,240348,2.810148,0.18470799999999998,-3.087088,-149.17,282.52,-126.28
697,240446,3.168584,0.191296,-1.01504,-199.5,247.2225,9.065
698,240544,3.1878599999999997,1.8417119999999998,-3.323524,-156.8,151.445,136.7625
699,240642,0.783728,2.035448,-4.918064,-250.915,-16.3275,61.845
700,240740,0.676612,1.8839240000000002,-2.845772,-92.2075,-205.835,21.4725
701,240838,0.09711201,1.379576,-1.957124,39.13,-288.5575,28.98
702,240936,-0.473116,0.771528,-1.342244,148.8375,-276.5175,55.1775
703,241034,-0.6634359999999999,0.357704,-0.8525360000000001,188.93,-260.925,70.105
704,241133,-0.518744,0.18056,-0.6646561,176.015,-247.4675,71.8725
705,241231,-0.265716,0.171532,-0.625128,136.395,-243.25,61.425
706,241329,-0.079544,0.266936,-0.6724640000000001,95.235,-251.7375,42.9975
707,241427,0.062464,0.38552,-0.7195560000000001,61.6175,-264.355,22.8375
708,241525,0.221552,0.5072760000000001,-0.7890961,39.235,-281.085,4.2
709,241623,0.388692,0.628544,-0.8332601000000001,29.33,-299.32,-12.985
710,241721,0.56852,0.693204,-0.86864,31.395,-317.17,-28.2625
711,241819,0.698816,0.6973520000000001,-0.81374,40.705,-334.1975,-43.2075
712,241917,0.768356,0.676124,-0.780312,48.8075,-350.0,-57.68
713,242016,0.8256960999999999,0.670268,-0.793976,56.175,-362.7575,-69.6325
714,242114,0.877424,0.6351319999999999,-0.812032,64.4,-371.455,-78.015
715,242212,0.9638,0.559004,-0.8874280999999999,69.685,-375.7425,-83.66751
716,242310,1.065792,0.46628400000000003,-0.9572120999999999,70.035,-378.6825,-86.905
717,242408,1.204628,0.39723200000000003,-1.068964,61.775,-382.725,-87.53501
718,242506,1.345904,0.31158800000000003,-1.091412,46.725,-389.27,-86.04751
719,242604,1.484008,0.21374400000000002,-1.053104,21.9625,-398.8425,-85.41751
720,242702,1.6235760000000001,0.195444,-1.0784799999999999,-18.1825,-407.6625,-86.25751
721,242801,1.7707080000000002,0.376004,-1.197552,-62.58,-413.455,-85.4
722,242899,1.913448,0.8105680000000001,-1.5518399999999999,-102.7775,-417.7425,-84.735
723,242997,2.0937639999999997,1.378844,-1.849032,-117.775,-419.9475,-90.72001
724,243095,2.3729,1.9544400000000002,-2.095228,-95.8475,-416.185,-104.4575
725,243193,2.762568,1.7802240000000003,-1.807552,-42.9625,-413.1575,-125.3
726,243291,3.071472,1.351272,-1.338096,2.625,-410.83,-158.7775
727,243389,3.245688,1.30174,-0.935008,15.575,-403.41,-193.8825
728,243487,3.5619120000000004,1.1472879999999999,-0.37551599999999996,39.6375,-381.2725,-208.775
729,243585,3.649752,0.813496,0.33818400000000004,64.1025,-344.505,-208.39
730,243684,3.4016040000000003,0.478972,1.071404,74.4975,-297.115,-203.105
731,243782,3.310836,0.35892399999999997,1.5469600000000001,70.6125,-238.14,-191.1
732,243880,3.22934,0.332816,1.754116,63.1925,-174.65,-164.185
733,243978,3.238856,0.11126400000000002,1.906616,56.14,-105.1225,-126.3325
734,244076,3.47822,-0.13785999999999998,1.975912,40.7925,-43.085,-93.345
735,244174,3.5272639999999997,-0.057339999999999995,1.9417520000000001,10.8325,0.63,-66.745
736,244272,3.267404,0.22472399999999998,1.4483840000000001,-18.0425,37.0475,-40.075
737,244370,2.337764,0.638792,0.590236,-28.2975,73.0625,-17.185
738,244468,-1.613328,0.374784,-1.396168,7.385,106.96,1.295
739,244566,-3.097336,-0.261812,-1.9602959999999998,-10.9375,113.2075,-11.305
740,244665,-0.709796,-0.6373281,-0.285724,-27.9125,402.4125,4.06
741,244763,2.1874599999999997,-0.125904,2.022516,0.6825,372.9775,-5.5825
742,244861,3.7144120000000003,-0.372832,-2.525644,-88.39251,400.8375,-41.335
743,244959,2.573712,-0.115168,-2.743292,-150.8675,274.0675,-14.805
744,245057,1.502308,-0.35136,-1.1953559999999999,-70.2975,272.93,15.365
745,245155,1.2397639999999999,0.536556,-1.34322,-109.025,227.43,41.475
746,245253,1.4337440000000001,1.2439120000000001,-1.265384,-104.0025,206.0975,52.605
747,245351,1.23586,2.63642,-2.221376,-87.43,167.7375,26.8275
748,245449,1.754116,2.8069759999999997,-1.425448,15.3125,144.445,4.3225
749,245548,2.0935200000000003,-0.085156,-1.407636,138.355,130.69,36.6275
750,245646,0.6007279999999999,-0.871568,-1.0887280000000001,153.58,70.735,65.8875
751,245744,0.49776000000000004,0.9171961,-0.9015799999999999,58.9575,38.675,39.1475
752,245842,0.743468,0.5946279999999999,-0.992348,55.72,56.63,23.5375
753,245940,0.685396,0.0017079999999999999,-1.142896,59.2375,45.43,21.14
754,246038,0.55632,0.24497600000000003,-0.91622,36.33,22.2075,14.2625
755,246136,0.416264,0.375272,-0.9203680000000001,21.385,11.9525,7.245
756,246234,0.486048,0.258396,-0.927688,16.905,11.9175,4.9525
757,246332,0.464088,0.307684,-0.8784,11.2525,9.17,4.2525
758,246431,0.479216,0.288896,-0.853756,6.3,6.7025,2.4675
759,246529,0.414312,0.283528,-0.879376,3.4475,5.2675,1.225
760,246627,0.414312,0.293532,-0.8725440999999999,1.96,4.48,0.7
761,246725,0.41992399999999996,0.302804,-0.8276481,2.59,6.055,1.19
762,246823,0.4026,0.307684,-0.8335040000000001,4.0775,6.685,1.7675
763,246921,0.400648,0.31451599999999996,-0.8271601000000001,7.315,8.26,2.7125
764,247019,0.43944399999999995,0.32452,-0.824232,10.99,9.6425,3.57
765,247117,0.45871999999999996,0.286456,-0.8352120000000001,12.7925,9.94,3.85
766,247215,0.432612,0.26596,-0.8735200000000001,12.145,10.4125,3.4475
767,247314,0.43554,0.340868,-0.853512,10.5175,11.7425,3.01
768,247412,0.444568,0.41236000000000006,-0.83204,10.6575,9.7475,4.5325
769,247510,0.49312399999999995,0.3233,-0.8256960999999999,15.155,5.495,8.54
770,247608,0.48531599999999997,0.278648,-0.8544879999999999,16.2575,-0.4025,10.4825
771,247706,0.49849209999999994,0.26766799999999996,-0.8247200000000001,14.4375,-1.68,9.8
772,247804,0.487756,0.272548,-0.834968,10.605,-2.5375,8.26
773,247902,0.490684,0.22252800000000003,-0.8274040000000001,7.945,-0.8400001,6.895
774,248000,0.489708,0.235704,-0.8169121,2.87,2.555,3.605
775,248098,0.47604399999999997,0.266448,-0.831308,-2.5725,5.8625,0.455
776,248197,0.466528,0.2928,-0.830332,-5.5475,8.085,-0.0525
777,248295,0.4404201,0.310612,-0.8369200000000001,-8.2075,10.22,2.0475
778,248393,0.426756,0.309148,-0.8522921,-9.835,13.09,6.055
779,248491,0.41723999999999994,0.24790399999999999,-0.8549761,-6.7375,16.3625,8.26
780,248589,0.44115200000000004,0.22448,-0.8274040000000001,-8.225,21.875,6.7725
781,248687,0.42895200000000006,0.238632,-0.854244,-10.43,26.8975,3.2375
782,248785,0.42138809999999993,0.247416,-0.8669319999999999,-13.2125,34.0025,1.1725
783,248883,0.385276,0.30475599999999997,-0.882548,-15.89,44.9225,1.435
784,248981,0.389424,0.315736,-0.9118280000000001,-19.1275,57.8725,3.9025
785,249080,0.410408,0.312808,-0.8893800999999999,-20.3875,74.62,9.7825
786,249178,0.425048,0.28304,-0.889136,-24.885,93.2225,14.9975
787,249276,0.42285200000000006,0.307196,-0.892064,-29.54,114.6775,21.455
788,249374,0.492392,0.28914,-0.9150001,-35.3325,142.5725,28.525
789,249472,0.49898000000000003,0.30841599999999997,-0.8874280999999999,-38.6575,174.79,41.0725
790,249570,0.55632,0.263276,-0.8847440999999999,-46.7075,206.08,50.0675
791,249668,0.595604,0.290604,-0.8596120999999999,-61.2325,252.595,55.5275
792,249766,0.593164,0.28792,-1.039196,-82.53,320.9325,53.445
793,249864,0.638548,0.36892800000000003,-1.303692,-93.8,394.1,60.515
794,249963,0.8244761,0.54656,-1.444968,-95.9175,488.9325,77.56
795,250061,0.7978801,0.5060560000000001,-1.8885599999999998,-118.8425,565.7925,106.7325
796,250159,1.112884,0.372832,-1.971032,-151.06,573.3875,122.815
797,250257,1.885632,1.003572,-2.174772,-205.52,573.405,115.815
798,250355,3.430884,0.693204,-2.101572,-236.1275,573.3875,92.2075
799,250453,2.228452,0.8254520000000001,-1.802428,-200.655,563.0275,71.295
800,250551,1.6540759999999999,0.636596,-2.990464,-161.98,367.185,59.85
801,250649,1.431792,1.6531,-2.383148,-89.74,38.99,-2.0475
802,250747,2.793312,-0.638548,-3.9979400000000003,-195.0375,273.8925,-107.625
803,250846,2.81088,0.10394400000000001,-1.4332559999999999,-234.185,176.7325,32.69
804,250944,2.876028,1.7909599999999999,-3.228852,-216.93,101.6575,127.6625
805,251042,0.733464,1.938336,-4.741651999999999,-303.1525,-84.7,52.5875
806,251140,0.537532,1.641388,-2.663016,-148.0325,-260.75,15.96
807,251238,-0.091988,1.2404959999999998,-1.7653400000000001,-29.9775,-342.195,15.82
808,251336,-0.5665680000000001,0.779824,-1.2878319999999999,65.625,-315.875,35.98
809,251434,-0.736392,0.399428,-0.889136,111.09,-294.0,50.575
810,251532,-0.598288,0.20105599999999998,-0.640256,112.6125,-277.235,52.4125
811,251630,-0.320616,0.16226,-0.656848,86.51999,-267.5225,38.5525
812,251729,-0.10248,0.209352,-0.735904,54.075,-268.3625,13.895
813,251827,0.05246,0.291092,-0.8025161,24.5,-276.3425,-12.88
814,251925,0.21838000000000002,0.370392,-0.8576601,5.1275,-289.0825,-37.2575
815,252023,0.3782,0.437004,-0.891576,-0.42,-302.645,-57.505
816,252121,0.536068,0.44408000000000003,-0.9179280000000001,3.92,-315.2625,-73.29
817,252219,0.6956439999999999,0.434076,-0.951356,11.1475,-327.7225,-86.25751
818,252317,0.8310639999999999,0.387472,-0.921344,21.0,-340.3925,-96.91501
819,252415,0.942084,0.349164,-0.97234,29.4175,-351.6275,-104.58
820,252513,1.02846,0.290848,-0.9921040999999999,36.1725,-360.6925,-107.6075
821,252612,1.1163,0.23472800000000002,-1.047736,39.8125,-367.92,-105.9625
822,252710,1.188768,0.18446400000000002,-1.093608,39.1475,-374.395,-100.94
823,252808,1.276852,0.192028,-1.1712,32.8125,-380.6425,-94.08
824,252906,1.3949479999999999,0.21057199999999998,-1.1733959999999999,21.6825,-387.87,-86.8525
825,253004,1.456436,0.25376,-1.1538760000000001,6.2125,-396.34,-81.795
826,253102,1.51158,0.416996,-1.303204,-17.36,-398.2475,-79.6075
827,253200,1.588196,0.654408,-1.474248,-42.0,-396.7775,-80.90250999999999
828,253298,1.7036080000000002,1.012356,-1.6845759999999999,-60.9,-390.8625,-89.2325
829,253396,2.03618,1.452288,-2.08986,-74.7425,-379.82,-108.815
830,253495,2.567612,1.810236,-2.112064,-67.6375,-376.3375,-137.1125
831,253593,3.131252,1.314184,-1.465708,-33.5475,-376.0925,-166.25
832,253691,3.392576,1.142652,-1.1829120000000002,-26.005,-371.525,-200.3575
833,253789,3.592168,1.125816,-0.662216,-29.12,-370.58,-218.68
834,253887,3.750768,0.8610761,0.11712,0.5075,-346.955,-211.3825
835,253985,3.4957879999999997,0.49898000000000003,0.8967,20.5275,-307.4225,-196.8575
836,254083,3.3149839999999995,0.381616,1.444236,19.915,-251.5975,-187.81
837,254181,3.197132,0.43724799999999997,1.821216,20.5975,-188.2475,-177.4325
838,254279,3.096604,0.39405999999999997,2.094984,32.55,-113.435,-154.35
839,254377,3.348412,0.171532,2.091812,38.7275,-39.62,-121.8875
840,254476,3.688792,-0.003172,2.09108,23.94,11.9175,-90.72001
841,254574,3.491396,0.15372,1.802184,-17.9025,38.8325,-69.79
842,254672,3.090016,0.44822799999999996,1.192672,-59.255,62.265,-58.3625
843,254770,2.650572,1.314184,-0.393084,-55.5275,88.09501,-55.9125
844,254868,-2.543456,0.8193521,-3.004372,46.9875,112.315,-73.92
845,254966,-2.3211720000000002,-1.155828,-2.167208,31.0625,224.105,-80.36
846,255064,0.053436000000000004,-1.4966959999999998,1.64212,18.445,492.695,-84.00001
847,255162,3.195668,-0.466528,1.392508,-63.14,420.9975,-100.31
848,255261,3.834704,-1.135332,-3.470412,-135.275,362.3025,-60.7075
849,255359,3.425272,-0.8508280999999999,-3.05366,-139.545,274.3125,-1.19
850,255457,2.350696,-0.207156,-1.526708,-89.495,211.1375,49.21
851,255555,1.21268,3.3323080000000003,-3.323524,-133.2975,125.51,55.2475
852,255653,1.2780719999999999,4.544012,0.12980799999999998,13.4575,78.505,-23.45
853,255751,0.885476,-0.000488,-1.3388280000000001,142.9925,148.785,20.16
854,255849,1.1507040000000002,-1.527684,-1.373476,142.6075,110.5125,57.5925
855,255947,1.121912,0.765672,-1.17608,78.0675,66.9025,51.7125
856,256045,0.470188,0.756156,-0.7468840999999999,59.43,37.695,29.96
857,256143,0.307196,0.135176,-1.071892,72.87,41.265,25.585
858,256242,0.567056,0.359656,-0.9686799999999999,51.765,42.21,21.7175
859,256340,0.353556,0.432612,-0.834724,48.58,31.2025,21.2625
860,256438,0.442616,0.355508,-0.9459880999999999,48.825,29.61,20.9125
861,256536,0.5690081,0.10516400000000001,-0.9913719999999999,47.9325,23.835,20.265
862,256634,0.359412,0.312564,-0.944524,35.175,8.9425,16.73
863,256732,0.418704,0.276208,-0.90036,27.6675,10.6925,14.28
864,256830,0.4553041,0.276452,-0.8805960999999999,25.0775,14.5775,14.5075
865,256928,0.453108,0.285724,-0.8662001,20.7375,12.8275,12.6175
866,257027,0.4743361,0.273524,-0.8727879999999999,17.85,10.8325,11.2875
867,257125,0.461892,0.266936,-0.8725440999999999,17.2375,7.9975,10.71
868,257223,0.44505600000000006,0.2318,-0.9098761000000001,16.2925,7.91,8.96
869,257321,0.44115200000000004,0.336476,-0.8796200000000001,11.935,10.3775,7.28
870,257419,0.45457200000000003,0.32256799999999997,-0.8674200000000001,10.815,10.955,8.4525
871,257517,0.471164,0.28426,-0.8601,11.7775,8.89,10.0625
872,257615,0.479216,0.30744,-0.8662001,10.6225,6.58,10.15
873,257713,0.47165200000000007,0.295484,-0.836676,10.745,3.6225,11.2175
874,257811,0.4697,0.25864000000000004,-0.8610761,10.4825,2.03,12.7925
875,257910,0.4209,0.226188,-0.849608,8.33,2.3275,12.4775
876,258008,0.387472,0.188368,-0.8571719999999999,3.8325,5.985,10.6575
877,258106,0.463844,0.211304,-0.8203280000000001,-1.82,16.45,7.525
878,258204,0.449692,0.244488,-0.8461921,-10.78,23.485,3.7625
879,258302,0.4404201,0.252296,-0.8413120000000001,-13.7725,27.475,2.065
880,258400,0.4697,0.25790799999999997,-0.8103239999999999,-15.26,31.5,0.9275
881,258498,0.47506800000000005,0.282796,-0.8222799999999999,-16.8525,33.67,-0.21
882,258596,0.467504,0.284748,-0.833016,-17.1675,34.4575,0.5075
883,258694,0.471896,0.273036,-0.820572,-16.4325,35.2975,1.855
884,258792,0.47092,0.28377199999999997,-0.8256960999999999,-16.8875,36.68,2.45
885,258891,0.47092,0.272304,-0.8369200000000001,-16.415,37.905,2.6775
886,258989,0.484096,0.28377199999999997,-0.8252079999999999,-14.7875,40.2675,3.2375
887,259087,0.492148,0.290848,-0.831308,-13.4575,43.8375,3.99
888,259185,0.483608,0.286456,-0.8335040000000001,-13.4575,45.5,5.145
889,259283,0.48531599999999997,0.290848,-0.826672,-15.68,54.5825,8.5925
890,259381,0.45115600000000006,0.30744,-0.8759601,-21.6825,69.405,14.175
891,259479,0.457744,0.283528,-0.8662001,-26.915,86.555,22.9425
892,259577,0.51118,0.266936,-0.850584,-31.2375,108.36,31.22
893,259675,0.49776000000000004,0.25058800000000003,-0.8788879999999999,-34.58,129.3775,36.89
894,259774,0.542412,0.242536,-0.87108,-36.3125,152.1275,38.36
895,259872,0.52582,0.29743600000000003,-0.8254520000000001,-41.545,181.545,38.2725
896,259970,0.59902,0.31598000000000004,-0.87474,-52.535,223.5625,35.945
897,260068,0.598288,0.33061999999999997,-0.9638,-62.4575,267.4525,39.0775
898,260166,0.7378560000000001,0.35746,-1.032608,-67.025,320.88,44.94
899,260264,0.8066641,0.33623200000000003,-1.132892,-68.565,391.5275,56.98
900,260362,0.8147161,0.37258800000000003,-1.4459440000000001,-88.1475,481.355,68.635
901,260460,0.8388721,0.34477199999999997,-1.6987279999999998,-125.1425,560.7525,80.7275
902,260558,1.063352,0.272304,-1.906616,-158.2175,573.405,81.60251
903,260657,2.111088,1.1004399999999999,-1.81902,-222.74,573.405,59.5875
904,260755,3.107096,0.967216,-2.142564,-233.345,573.3875,40.46
905,260853,2.251632,0.41553199999999996,-1.6267479999999999,-208.74,546.5775,34.65
906,260951,1.415932,0.9616040000000001,-2.550532,-218.89,314.65,4.41
907,261049,1.173884,0.9476959999999999,-2.0112919999999996,-132.055,10.71,-32.095
908,261147,3.358172,0.08954801,-1.7172720000000001,-206.2375,161.8575,-37.8525
909,261245,3.625108,0.9969841,-1.62626,-339.1325,395.255,-24.22
910,261343,1.6853080000000003,1.726056,-3.160776,-262.7625,111.895,81.62001
911,261441,0.8791321,2.001776,-4.01746,-287.1575,-33.3375,52.2375
912,261539,0.649284,1.8404919999999998,-2.7237720000000003,-147.525,-225.855,17.3425
913,261638,0.001464,1.303692,-1.7931560000000002,6.265,-301.5075,34.8075
914,261736,-0.40992,0.796416,-1.286124,112.14,-294.8575,60.62
915,261834,-0.5314321,0.465552,-0.930372,154.3675,-282.1525,74.13
916,261932,-0.44773999999999997,0.270352,-0.659288,152.985,-275.31,72.9225
917,262030,-0.24107199999999998,0.23082399999999997,-0.621468,122.4825,-266.595,57.8725
918,262128,-0.083204,0.277916,-0.681492,84.07001,-265.02,34.3175
919,262226,0.045872,0.36234,-0.735904,50.9075,-271.705,7.5775
920,262324,0.1891,0.465796,-0.762744,28.9625,-282.5725,-17.5875
921,262422,0.34428400000000003,0.589504,-0.8488761,19.425,-294.7175,-38.5
922,262520,0.513376,0.669292,-0.907192,23.2575,-306.5475,-55.6325
923,262619,0.6441600000000001,0.669292,-0.8725440999999999,37.31,-319.5325,-71.5575
924,262717,0.742492,0.668072,-0.889868,51.7475,-330.8725,-86.32751
925,262815,0.834724,0.6373281,-0.8918200000000001,63.4725,-340.2525,-99.155
926,262913,0.8996280999999999,0.604632,-0.8845,74.445,-349.2475,-108.8325
927,263011,0.9674601,0.5631520000000001,-0.9086559999999999,82.0575,-354.6375,-114.2925
928,263109,1.061888,0.523868,-1.011624,84.15751,-358.26,-115.99
929,263207,1.19316,0.48556000000000005,-1.12606,80.185,-361.97,-115.92
930,263305,1.3449280000000001,0.47677600000000003,-1.206824,71.05,-368.865,-114.485
931,263404,1.4903520000000001,0.44896,-1.21024,58.4675,-378.245,-110.7225
932,263502,1.559404,0.441884,-1.1960879999999998,41.8075,-387.87,-105.6825
933,263600,1.600396,0.540948,-1.336876,18.7425,-390.355,-97.615
934,263698,1.7524080000000002,0.7476161,-1.504016,-2.905,-389.1125,-87.8325
935,263796,2.093276,1.1041,-1.7389880000000002,-24.8325,-391.0375,-85.48751
936,263894,2.4912400000000003,1.5159719999999999,-1.8404919999999998,-38.535,-398.1425,-93.0475
937,263992,2.87188,1.718248,-1.636264,-31.7275,-404.5125,-106.26
938,264090,3.241052,1.061644,-1.106296,-15.0675,-392.595,-129.01
939,264189,3.422832,1.1472879999999999,-0.784704,-40.3375,-381.465,-160.265
940,264287,3.760528,1.050664,-0.15372,-43.75,-369.39,-166.46
941,264385,3.7607720000000002,0.632448,0.650992,-36.8375,-333.375,-156.0475
942,264483,3.41356,0.354532,1.355176,-61.2675,-287.525,-154.245
943,264581,3.243736,0.377712,1.837076,-88.16501,-236.9325,-154.3675
944,264679,3.021208,0.466528,1.973228,-85.27750999999999,-179.2875,-140.315
945,264777,2.972896,0.404064,2.0337400000000003,-52.0975,-98.47251,-107.4325
946,264875,3.255204,0.12980799999999998,2.0352040000000002,-8.68,-19.6875,-66.5175
947,264973,3.3171800000000005,0.045627999999999995,1.8092599999999999,4.62,32.4975,-38.255
948,265072,3.109536,0.151036,1.378356,-11.515,68.5125,-28.7525
949,265170,3.32084,1.358104,-0.057828,-15.8025,92.925,-36.645
950,265268,-0.871568,1.0084520000000001,-2.262124,113.19,161.77,-65.8525
951,265366,-1.85562,-0.73932,-1.857084,112.875,208.565,-82.95
952,265464,-0.311344,-1.7338639999999998,-1.069452,44.975,390.8275,-98.84000999999999
953,265562,1.5677,-1.62016,1.759484,34.895,396.795,-107.1175
954,265660,3.5404400000000003,-2.340936,-1.22854,-27.0025,384.37,-75.67
955,265758,3.415512,-1.468636,-4.097980000000001,-152.4775,256.515,-10.85
956,265857,2.83772,-1.045784,-1.341512,-77.28,222.4775,56.56
957,265955,1.148264,1.9049080000000003,-2.328736,-157.605,126.35,85.575
958,266053,1.051396,5.8906480000000006,-0.590724,-69.1425,66.395,-0.3325
959,266151,0.8378960999999999,2.297016,-0.6505041,127.8725,145.6,-18.2525
960,266249,1.027484,-1.670912,-1.2846600000000001,195.44,153.9475,60.2525
961,266347,1.437648,-1.0765280000000002,-1.27124,164.2375,125.37,86.975
962,266445,0.702232,1.2341520000000001,-1.003816,75.1625,42.63,50.19
963,266543,0.297192,0.22448,-1.103856,94.72751,44.66,37.275
964,266641,0.7795801,-0.095648,-1.2341520000000001,93.5375,50.2075,36.68
965,266740,0.66246,0.36478,-0.8662001,62.895,24.745,29.155
966,266838,0.594384,0.109556,-0.9806360000000001,43.785,11.865,18.305
967,266936,0.478728,0.203252,-0.9516,27.8775,8.4175,10.535
968,267034,0.48312,0.231312,-0.9264680000000001,16.2575,7.315,5.9675
969,267132,0.45993999999999996,0.238632,-0.8908440999999999,13.2125,8.5225,5.4775
970,267230,0.47384799999999994,0.29524,-0.8610761,9.5375,7.175,5.39
971,267328,0.45115600000000006,0.260592,-0.8823040000000001,9.8175,6.475,6.2125
972,267426,0.47555600000000003,0.227652,-0.850096,8.6625,7.385,5.8625
973,267524,0.45261999999999997,0.23838800000000002,-0.8637601,5.4425,10.2025,3.3425
974,267623,0.43066000000000004,0.29036,-0.907192,2.1175,11.5325,1.8375
975,267721,0.444812,0.335744,-0.8857200999999999,4.305,11.795,4.585
976,267819,0.479216,0.26596,-0.8547319999999999,7.9975,9.66,8.6975
977,267917,0.46945600000000004,0.245952,-0.8615640999999999,8.4,7.7875,10.6225
978,268015,0.48678,0.28377199999999997,-0.85034,6.9125,7.455,10.85
979,268113,0.435784,0.308904,-0.8815719999999999,7.2625,7.175,12.4775
980,268211,0.4553041,0.228384,-0.888648,12.005,7.8225,15.225
981,268309,0.371368,0.18666,-0.8671761,10.85,12.3375,15.5925
982,268407,0.438712,0.23911999999999997,-0.8640040000000001,-0.98,23.0475,14.21
983,268506,0.470188,0.21886799999999998,-0.846924,-0.98,31.0975,13.825
984,268604,0.49117200000000005,0.196664,-0.8166680000000001,-3.43,36.1025,12.0575
985,268702,0.51484,0.190564,-0.79422,-6.3,40.0575,8.75
986,268800,0.534604,0.2074,-0.779824,-9.7125,42.3675,4.83
987,268898,0.5314321,0.252296,-0.7883640000000001,-12.705,43.5225,2.17
988,268996,0.52582,0.259372,-0.802272,-13.965,43.0675,2.0475
989,269094,0.5343600000000001,0.262788,-0.781776,-14.035,43.575,3.8325
990,269192,0.531676,0.278404,-0.7834840000000001,-15.19,44.38,6.4225
991,269290,0.528992,0.270108,-0.791292,-15.995,44.4675,10.3425
992,269389,0.540948,0.252296,-0.7883640000000001,-15.8025,44.87,14.07
993,269487,0.555588,0.216428,-0.7598161,-15.26,45.3775,15.4
994,269585,0.5612,0.193248,-0.758596,-15.2775,45.1675,12.565
995,269683,0.564372,0.163968,-0.752008,-15.2775,45.745,6.7025
996,269781,0.55266,0.183488,-0.784704,-16.8,48.8775,-1.12
997,269879,0.534116,0.22057600000000002,-0.8176439999999999,-19.1275,54.9675,-5.7225
998,269977,0.5221600000000001,0.24863600000000002,-0.8549761,-22.365,65.8175,-6.1425
999,270075,0.54778,0.26352,-0.8361879999999999,-25.48,81.74251,-1.9075
1000,270174,0.563396,0.252784,-0.822768,-27.79,97.0375,5.425
1001,270272,0.576572,0.275476,-0.8344801,-31.1675,111.055,8.645
1002,270370,0.5787680000000001,0.300852,-0.8108121,-34.8775,128.485,10.9725
1003,270468,0.579256,0.304512,-0.8405800999999999,-39.76,153.1075,14.4025
1004,270566,0.595604,0.29402,-0.8274040000000001,-45.395,184.1875,18.585
1005,270664,0.7315119999999999,0.316712,-0.8849879999999999,-52.43,220.1325,24.0625
1006,270762,0.71858,0.27523200000000003,-0.9189040999999999,-53.1825,262.6575,32.2525
1007,270860,0.7832399999999999,0.30548800000000004,-1.011868,-55.5275,317.31,40.0575
1008,270958,0.7922680000000001,0.334524,-1.1995040000000001,-64.6975,390.915,50.575
1009,271057,0.8735200000000001,0.33013200000000004,-1.571116,-92.0675,484.8725,64.5925
1010,271155,0.734928,0.252784,-1.82512,-124.4425,564.305,69.66751
1011,271253,1.289784,0.37332,-1.9834759999999998,-166.285,573.405,60.655
1012,271351,2.433168,0.951356,-1.5845360000000002,-223.16,573.405,45.465
1013,271449,2.93044,0.196664,-1.7992560000000002,-235.585,572.95,4.48
1014,271547,1.7111720000000001,0.61854,-1.691164,-222.635,516.67,-32.7075
1015,271645,1.410564,0.7944641,-2.959964,-187.3725,292.6,-16.765
1016,271743,2.287256,1.436916,-2.4461,-99.9075,183.12,-1.645
1017,271841,4.005504,-0.44383599999999995,-7.458104,-209.7025,318.92,-169.925
1018,271940,0.521184,-0.094672,-1.510604,-72.06501,-147.21,-39.9175
1019,272038,3.6482879999999995,1.3583479999999999,-1.1873040000000001,-68.5125,126.0,93.905
1020,272136,0.610488,1.477908,-5.272352,-246.1375,-57.995,7.5075
1021,272234,0.574132,0.9137799999999999,-2.28628,-74.2175,-210.2975,-0.8400001
1022,272332,0.153232,0.6390359999999999,-1.7458200000000001,-11.655,-314.0025,-6.2125
1023,272430,-0.09394001,0.321104,-1.404464,56.8225,-306.4425,22.12
1024,272528,-0.339404,0.12175599999999999,-1.1407,82.67,-304.7275,45.1675
1025,272626,-0.330376,-0.133712,-0.718824,96.6175,-304.57,59.4475
1026,272724,-0.082228,-0.18446400000000002,-0.64904,77.735,-299.9675,60.97
1027,272823,0.074664,-0.158844,-0.70028,45.675,-301.105,49.9275
1028,272921,0.159332,-0.08296,-0.6956439999999999,16.555,-308.5425,32.7075
1029,273019,0.28011199999999997,0.017568,-0.780068,-5.285,-317.0125,15.12
1030,273117,0.457012,0.09735601,-0.8862081,-13.44,-326.55,1.6625
1031,273215,0.6329359999999999,0.101504,-0.885476,-9.7125,-337.0325,-7.84
1032,273313,0.787388,0.06954,-0.9125601000000001,-4.7775,-347.7425,-15.68
1033,273411,0.899384,0.012931999999999999,-0.9291520000000001,-3.6225,-358.8725,-22.8725
1034,273509,0.9616040000000001,-0.038308,-0.9142680000000001,-6.37,-370.23,-29.5925
1035,273608,1.00894,-0.054167999999999994,-0.9286639999999999,-15.365,-379.9775,-36.015
1036,273706,1.079456,-0.08052000000000001,-0.921832,-27.3,-387.6425,-41.2825
1037,273804,1.230736,-0.030744,-1.028216,-42.5425,-394.695,-44.6775
1038,273902,1.393972,0.08003201,-1.2134120000000002,-56.3675,-403.9,-44.52
1039,274000,1.5462280000000002,0.180316,-1.294176,-61.2675,-411.705,-41.125
1040,274098,1.670912,0.377956,-1.34932,-60.41,-421.2425,-35.525
1041,274196,1.7816880000000002,0.618052,-1.378112,-55.44,-431.025,-28.84
1042,274294,1.785348,0.9581881,-1.4776639999999999,-47.11,-437.78,-25.025
1043,274392,1.81902,1.316624,-1.628944,-34.0025,-435.3475,-28.105
1044,274491,1.918816,1.6684720000000002,-1.63236,-6.02,-423.3425,-41.1775
1045,274589,2.204784,2.026176,-1.844884,28.245,-403.9175,-63.035
1046,274687,2.680096,1.6662759999999999,-1.619428,68.5475,-382.97,-93.59
1047,274785,3.164924,1.134356,-1.101172,78.8025,-364.56,-144.06
1048,274883,3.3811080000000002,1.060912,-0.5397281,35.6475,-360.1325,-198.0475
1049,274981,3.338896,0.892308,0.282308,2.415,-345.8175,-229.285
1050,275079,3.091236,0.6224441,0.9145120999999999,-25.9875,-305.3575,-249.5675
1051,275177,2.89628,0.396012,1.3590799999999998,-52.64,-242.655,-272.1075
1052,275275,2.886032,0.41602,1.594784,-65.7475,-171.5175,-290.4825
1053,275374,2.887252,0.487512,1.685064,-44.52,-103.9325,-284.48
1054,275472,3.3730559999999996,0.2745,1.7033639999999999,-0.1575,-26.3025,-244.2125
1055,275570,3.838364,-0.07222401,1.863184,26.7575,28.6475,-181.7725
1056,275668,3.410632,-0.0793,1.730692,5.915,35.77,-116.06
1057,275766,2.576152,0.410896,1.275388,-30.87,47.775,-67.97
1058,275864,0.9472079999999999,0.8693719999999999,0.490684,-0.6825,95.04251,-32.27
1059,275962,-2.082784,0.09784401,-1.859768,43.9425,177.485,-55.93
1060,276060,-2.300432,-1.469856,-1.806332,-8.2775,332.08,-70.385
1061,276159,1.179252,-0.734684,0.6258600000000001,-55.9825,497.315,-125.2475
1062,276257,4.124332,-0.6600201,1.199016,-87.15,492.275,-136.5175
1063,276355,3.647068,-1.723128,-3.4269800000000004,-116.6025,412.51,-48.4925
1064,276453,2.689368,-1.338584,-2.285548,-155.5925,289.8875,10.7625
1065,276551,2.001776,0.12980799999999998,-0.9972281,-154.805,268.1,43.3475
1066,276649,1.4396,5.70716,-5.109604,-178.99,154.735,30.0475
1067,276747,4.234376,4.167764,-0.26352,93.975,89.11,-78.2075
1068,276845,1.055056,-3.382572,-0.313296,345.1525,247.3625,150.325
1069,276943,-0.46726,0.692716,-2.529304,6.8425,-111.5625,67.41001
1070,277042,0.618052,1.345904,0.05002,73.395,63.0875,22.68
1071,277140,0.71492,-0.335988,-1.803404,83.2125,48.02,32.1125
1072,277238,0.7793359999999999,0.359168,-0.569984,61.04,18.795,29.96
1073,277336,0.38966799999999996,0.430904,-0.9840521000000001,35.7525,-12.53,21.28
1074,277434,0.4819,0.138348,-0.9023121,47.565,-9.1175,26.005
1075,277532,0.426512,0.322324,-0.984784,33.5475,-14.07,22.5925
1076,277630,0.48922,0.19764,-0.8862081,35.245,-6.615,23.38
1077,277728,0.438224,0.30256,-0.919392,27.0375,-9.765,22.0675
1078,277827,0.413092,0.267424,-0.9145120999999999,25.305,-8.96,23.065
1079,277925,0.445788,0.239608,-0.8849879999999999,24.3775,-7.945,24.4825
1080,278023,0.459696,0.216916,-0.880352,22.435,-5.0225,23.24
1081,278121,0.423584,0.223748,-0.9030440000000001,18.4275,-4.7425,20.37
1082,278219,0.432856,0.25058800000000003,-0.912316,16.03,-2.1525,19.1625
1083,278317,0.42944,0.25986,-0.9054840000000001,15.0675,-0.5425,19.9675
1084,278415,0.45457200000000003,0.23301999999999998,-0.8601,15.47,0.5775,21.665
1085,278513,0.417484,0.22057600000000002,-0.8801081000000001,14.0875,2.7125,22.8725
1086,278611,0.361608,0.213256,-0.9093880999999999,11.3575,4.55,23.59
1087,278709,0.43188000000000004,0.264496,-0.8845,10.7975,9.5725,26.7225
1088,278808,0.45871999999999996,0.155184,-0.8757159999999999,10.8675,16.24,31.9725
1089,278906,0.44944799999999996,0.172752,-0.8725440999999999,5.95,23.45,35.0
1090,279004,0.443104,0.146644,-0.8508280999999999,1.9425,30.6425,33.3725
1091,279102,0.44334799999999996,0.139812,-0.861808,0.4375,36.785,30.8875
1092,279200,0.463844,0.12468399999999999,-0.8425321,-1.2425,41.8425,26.915
1093,279298,0.463844,0.132736,-0.83814,-3.885,44.0125,22.1375
1094,279396,0.48068,0.15201199999999998,-0.8352120000000001,-6.265,46.06,17.57
1095,279494,0.492148,0.177144,-0.828868,-7.9275,47.53,14.8575
1096,279592,0.5060560000000001,0.18788,-0.815692,-8.7325,49.5075,14.315
1097,279691,0.512644,0.20008,-0.8149601,-10.0275,51.0475,14.665
1098,279789,0.5267960999999999,0.20788800000000002,-0.8100801,-10.395,50.995,15.4175
1099,279887,0.542412,0.19178399999999998,-0.792512,-10.325,50.295,15.9775
1100,279985,0.540704,0.188124,-0.8052,-11.305,48.7025,15.7325
1101,280083,0.541924,0.182756,-0.8066641,-12.075,47.4075,15.3475
1102,280181,0.537288,0.180316,-0.792024,-12.95,48.2125,15.12
1103,280279,0.5363121,0.166408,-0.7722600000000001,-14.6475,52.395,13.9125
1104,280377,0.527528,0.188612,-0.790072,-17.535,59.78,10.7975
1105,280475,0.5104479999999999,0.200812,-0.8195960999999999,-20.1775,69.3875,7.945
1106,280574,0.48531599999999997,0.19764,-0.8239880999999999,-22.295,84.01751,7.7175
1107,280672,0.476288,0.195444,-0.8486319999999999,-27.335,106.785,9.3975
1108,280770,0.506788,0.20496,-0.849852,-31.7625,134.855,12.39
1109,280868,0.5875520000000001,0.19959200000000002,-0.82594,-34.2825,162.5575,14.8225
1110,280966,0.6605081,0.18470799999999998,-0.838628,-34.9125,189.0875,15.5575
1111,281064,0.737124,0.21276799999999998,-0.871568,-35.0525,221.69,14.14
1112,281162,0.742004,0.198372,-0.8957241,-27.965,259.9275,13.825
1113,281260,0.8025161,0.203984,-0.863028,-19.775,303.065,15.015
1114,281358,0.748104,0.260348,-0.9821,-21.63,353.395,17.2725
1115,281457,0.8476561,0.265716,-1.13826,-22.575,425.9325,24.465
1116,281555,0.9379360000000001,0.18324400000000002,-1.46766,-33.8625,517.405,28.8225
1117,281653,0.6265921,0.091744,-1.7324,-56.7175,570.4825,19.1975
1118,281751,0.889136,0.101992,-1.892952,-116.5325,573.405,-3.185
1119,281849,2.138904,0.821792,-1.192184,-180.25,573.3875,-26.6175
1120,281947,3.455284,0.05929201,-1.9910400000000001,-199.4825,573.3875,-47.915
1121,282045,2.0679,0.958432,-0.450912,-176.8725,529.5675,-40.915
1122,282143,2.049356,1.19804,-1.754116,-161.595,229.3375,-8.1725
1123,282241,1.497672,0.8086161000000001,-2.2235720000000003,-76.72,-109.1475,-14.0
1124,282340,2.709376,0.72346,-2.317756,-67.0075,46.06,-7.805
1125,282438,3.6402360000000002,-0.046116000000000004,-0.506544,-11.585,265.1775,26.46
1126,282536,1.7868119999999998,0.7178479999999999,-2.3323959999999997,74.25251,66.815,122.3075
1127,282634,1.460584,0.7017439999999999,-3.1598,3.115,23.45,103.775
1128,282732,0.8369200000000001,0.6470880999999999,-1.8214599999999999,90.195,-136.4475,104.16
1129,282830,0.493856,0.5246,-1.191208,150.535,-206.78,136.9725
1130,282928,0.374052,0.410896,-1.074332,176.155,-213.2375,171.7275
1131,283026,0.195688,0.376492,-0.8249639999999999,187.6175,-224.42,187.32
1132,283125,0.10345599999999999,0.49751599999999996,-0.659288,178.2725,-235.0775,184.975
1133,283223,0.159088,0.70638,-0.7046720999999999,157.57,-235.9875,171.29
1134,283321,0.281332,0.9476959999999999,-0.8413120000000001,145.005,-238.35,152.1275
1135,283419,0.45383999999999997,1.2014559999999999,-0.936472,145.0225,-250.985,131.46
1136,283517,0.5856,1.442772,-0.8908440999999999,159.7225,-267.575,110.67
1137,283615,0.6470880999999999,1.688968,-0.824232,187.39,-283.2025,89.845
1138,283713,0.70516,1.8707479999999999,-0.778116,222.075,-292.81,68.0225
1139,283811,0.792024,2.010072,-0.7332201,259.175,-301.84,43.715
1140,283909,0.9547720999999999,2.174284,-0.7227279999999999,291.7425,-312.06,18.27
1141,284007,1.1514360000000001,2.334104,-0.643184,322.105,-323.295,-6.0725
1142,284106,1.250256,2.4912400000000003,-0.42114399999999996,353.92,-334.1975,-24.9725
1143,284204,1.283928,2.5439439999999998,-0.358192,378.2975,-341.145,-38.9025
1144,284302,1.350784,2.591768,-0.264984,384.3875,-344.9075,-58.6775
1145,284400,1.3729879999999999,2.748904,-0.10394400000000001,377.4225,-349.825,-85.78501
1146,284498,1.331508,2.8735880000000003,-0.072712,363.23,-350.77,-114.66
1147,284596,1.255868,2.9209240000000003,-0.03416,340.1825,-341.845,-148.3125
1148,284694,1.259284,2.986072,-0.08369201,311.0975,-328.7025,-186.2175
1149,284792,1.377868,3.002908,-0.23692399999999997,281.2425,-314.545,-224.105
1150,284891,1.492548,3.013888,-0.306464,253.4525,-302.8025,-260.715
1151,284989,1.5762399999999999,3.009984,-0.432612,228.8825,-294.385,-292.3725
1152,285087,1.591856,2.958256,-0.536556,211.47,-286.965,-318.045
1153,285185,1.618696,2.840404,-0.6273241,195.825,-282.1525,-341.0925
1154,285283,1.6845759999999999,2.773304,-0.6451359999999999,180.32,-276.15,-363.7375
1155,285381,1.7489919999999999,2.699616,-0.68686,165.9175,-266.2975,-382.48
1156,285479,1.8766040000000002,2.617632,-0.767624,152.74,-253.68,-396.5675
1157,285577,2.009096,2.546384,-0.7617681,143.4125,-243.6875,-406.35
1158,285675,2.1059639999999997,2.508564,-0.767624,135.6775,-235.025,-409.395
1159,285774,2.115968,2.335568,-0.706136,130.725,-226.4325,-405.58
1160,285872,2.091324,2.173552,-0.653188,118.7725,-216.93,-400.855
1161,285970,2.112064,1.968348,-0.548024,95.4975,-206.6925,-395.8325
1162,286068,2.1630599999999998,1.8712360000000001,-0.462624,63.315,-198.2575,-389.6025
1163,286166,2.212104,1.512068,-0.30378,31.22,-191.9925,-380.1875
1164,286264,2.4016919999999997,0.574864,0.109556,0.525,-180.4775,-380.975
1165,286362,2.092056,0.649284,0.28377199999999997,-85.0325,-184.695,-386.96
1166,286460,2.195512,0.9128040000000001,0.22716399999999998,-133.525,-169.6625,-378.665
1167,286559,2.10816,1.19804,0.328424,-113.2425,-134.4875,-361.2
1168,286657,2.025688,1.261724,0.535092,-29.5575,-84.175,-328.895
1169,286755,2.048136,0.7705521,0.833016,74.0775,-23.5025,-281.0325
1170,286853,2.194292,0.054167999999999994,0.9357401,123.97,24.5,-229.4775
1171,286951,2.8355240000000004,-0.304512,1.0023520000000001,97.93,44.1175,-184.8
1172,287049,2.615192,-0.261812,1.4957200000000002,40.6175,102.83,-150.15
1173,287147,2.23382,0.064172,2.0813200000000003,-52.2375,147.56,-143.7275
1174,287245,1.01748,-0.21862399999999999,1.9895759999999998,-99.5575,245.3675,-162.2075
1175,287344,2.030812,-0.584868,-2.0813200000000003,-164.43,266.4375,-170.2925
1176,287442,2.669848,-1.886364,-3.10124,-108.5175,284.2175,-77.875
1177,287540,3.274724,-2.0051919999999996,-2.6764360000000003,-54.25,260.6975,29.26
1178,287638,3.055612,3.5955839999999997,-5.7752360000000005,-91.2625,132.475,4.83
1179,287736,0.961116,2.663504,0.9228081,8.155,-55.895,-109.1825
1180,287834,-0.227652,1.585756,-0.609268,135.5725,124.1975,-33.985
1181,287932,0.055144000000000006,-0.37990799999999997,-2.463668,63.035,-16.45,-26.4075
1182,288030,1.541104,-0.08003201,-0.157868,115.8675,22.9075,6.965
1183,288128,0.22496799999999997,0.9589200999999999,-0.7361481,-3.01,-14.1575,8.155
1184,288227,0.28426,0.163724,-1.053348,25.2525,-16.4325,15.9425
1185,288325,0.682712,0.3782,-0.7856801,32.0775,-5.6175,27.02
1186,288423,0.38064000000000003,0.158844,-0.965996,23.135,-9.065,23.1175
1187,288521,0.48726800000000003,0.213988,-0.8801081000000001,20.65,-1.9425,17.185
1188,288619,0.40528400000000003,0.265228,-0.9174399999999999,14.35,0.2975,14.28
1189,288717,0.430904,0.20861999999999997,-0.899384,15.9425,-1.26,14.6475
1190,288815,0.4087,0.22277199999999997,-0.8913321,13.65,0.21,14.595
1191,288913,0.413092,0.189588,-0.8969440000000001,12.145,2.59,13.615
1192,289012,0.404552,0.1464,-0.9049959999999999,9.135,5.2325,11.76
1193,289110,0.46457600000000004,0.187392,-0.87108,4.2875,9.03,9.695
1194,289208,0.45579200000000003,0.232044,-0.8930401,0.1925,9.135,7.875
1195,289306,0.45018,0.19397999999999999,-0.869616,1.295,8.4175,6.93
1196,289404,0.4331,0.227652,-0.8757159999999999,0.7175,8.47,5.53
1197,289502,0.444324,0.36648800000000004,-0.8405800999999999,1.5575,6.965,6.2825
1198,289600,0.365512,0.24082800000000001,-0.9076799999999999,5.4075,0.2275,12.95
1199,289698,0.45115600000000006,0.096868,-0.8713241,9.0475,2.45,18.8825
1200,289797,0.47994799999999993,0.130052,-0.8662001,3.675,8.7675,11.8825
1201,289895,0.451888,0.182268,-0.862296,0.2275,13.125,2.87
1202,289993,0.396256,0.038064,-0.974292,8.295,18.2,-8.785
1203,290091,0.45261999999999997,0.10833599999999999,-0.844484,17.955,23.9575,-25.4975
1204,290189,0.5119121,0.175924,-0.859368,9.905,25.0425,-33.11
1205,290287,0.431148,0.306952,-0.895236,3.0275,26.1625,-30.0125
1206,290385,0.44066400000000006,0.255712,-0.8525360000000001,-0.49,25.795,-23.24
1207,290483,0.48726800000000003,0.288652,-0.8298440999999999,0.07,25.2525,-17.1675
1208,290581,0.483364,0.284992,-0.8396040000000001,1.05,21.2975,-11.83
1209,290680,0.49654,0.2623,-0.8378960999999999,2.835,15.8025,-6.685
1210,290778,0.49434399999999995,0.24570799999999998,-0.8425321,4.97,10.5875,-2.7125
1211,290876,0.4819,0.24131599999999997,-0.8488761,5.46,6.02,-0.14
1212,290974,0.47067600000000004,0.23521599999999998,-0.8457040000000001,5.9325,3.5175,2.3625
1213,291072,0.459696,0.203496,-0.8591241,5.1275,3.85,4.165
1214,291170,0.450424,0.194712,-0.8781559999999999,3.0975,6.195,4.7775
1215,291268,0.42285200000000006,0.202276,-0.9006040999999999,0.4025,10.1675,4.7425
1216,291366,0.392352,0.21057199999999998,-0.93696,-1.9775,16.1525,5.7225
1217,291464,0.40138,0.227408,-0.9242720999999999,-4.0075,25.8125,8.5575
1218,291563,0.4087,0.23082399999999997,-0.909632,-6.5625,41.4225,12.915
1219,291661,0.404308,0.22667600000000002,-0.904752,-9.2925,61.7575,19.495
1220,291759,0.407968,0.21106,-0.8954801,-10.2375,84.0525,26.285
1221,291857,0.400404,0.231312,-0.833016,-14.945,111.7725,32.375
1222,291955,0.404064,0.23692399999999997,-0.864492,-22.96,151.5675,39.9
1223,292053,0.402844,0.264496,-0.891576,-28.5425,195.79,48.825
1224,292151,0.46116,0.33794,-0.9435479999999999,-28.805,239.225,58.625
1225,292249,0.5653481,0.45115600000000006,-0.9796600000000001,-20.195,271.075,70.35
1226,292348,0.580232,0.5002,-1.010648,-3.71,302.715,89.285
1227,292446,0.9408639999999999,0.504104,-1.18462,23.66,364.9975,115.3075
1228,292544,0.992348,0.407236,-1.293444,70.42,446.705,147.42
1229,292642,0.9955200000000001,0.5043479999999999,-1.372012,111.1425,518.315,162.96
1230,292740,1.0760399999999999,0.9152440000000001,-1.641388,122.3425,566.0025,158.935
1231,292838,1.247328,1.286612,-1.844396,129.36,572.8975,183.3825
1232,292936,2.109868,1.241472,-2.452444,133.3675,550.8125,229.0575
1233,293034,2.297016,1.9339439999999999,-2.1813599999999997,138.705,435.3475,263.8475
1234,293133,2.344596,2.328492,-1.902712,138.6,283.185,276.675
1235,293231,2.523692,2.58396,-3.256424,155.96,52.64,234.29
1236,293329,0.5380199999999999,2.978752,-1.9478520000000001,376.705,17.6575,164.15
1237,293427,0.8132520999999999,1.928332,0.262788,511.98,-15.1725,131.6
1238,293525,2.8530919999999997,2.054236,-2.851872,346.5175,344.3825,11.5325
1239,293623,0.46457600000000004,1.9232080000000003,-2.591036,237.16,-8.7325,-138.5475
1240,293721,0.10248,1.364692,-1.434476,264.4775,-5.5125,-216.3
1241,293819,-0.321592,0.9869800999999999,-1.26148,247.6425,-57.8725,-248.395
1242,293918,-0.502884,0.61732,-1.109956,261.4325,-36.6625,-243.3025
1243,294016,-0.35892399999999997,0.266204,-0.9154880999999999,251.755,-38.185,-223.965
1244,294114,-0.10223600000000001,0.06344,-1.041636,231.385,-38.885,-198.9575
1245,294212,0.119804,-0.021228,-1.150216,202.51,-57.4525,-175.875
1246,294310,0.284504,0.054655999999999996,-1.21512,173.3375,-91.91001,-153.23
1247,294408,0.372832,0.193492,-1.2561120000000001,152.705,-133.1925,-127.96
1248,294506,0.40748,0.300852,-1.231468,140.7,-171.885,-100.555
1249,294604,0.4453,0.391376,-1.128256,131.74,-207.34,-77.0875
1250,294703,0.48263199999999995,0.4933681,-0.9999121,122.045,-240.17,-59.7975
1251,294801,0.528748,0.5948720000000001,-0.8998719999999999,110.215,-269.115,-48.5275
1252,294899,0.5694961,0.707356,-0.8081281,97.86,-292.8275,-42.245
1253,294997,0.6202479999999999,0.803492,-0.750544,86.7125,-311.465,-40.88
1254,295095,0.65514,0.8754719999999999,-0.7068681,78.26,-325.675,-43.6625
1255,295193,0.681492,0.9240280000000001,-0.6824680000000001,71.5925,-336.2625,-49.21
1256,295291,0.7278521,0.9469641,-0.693204,66.2725,-342.335,-56.7525
1257,295389,0.7929999999999999,0.9391560999999999,-0.719312,60.0075,-345.45,-66.6225
1258,295487,0.847412,0.9098761000000001,-0.748104,51.905,-347.095,-78.505
1259,295586,0.9025559999999999,0.877912,-0.8513161,41.16,-347.97,-90.3175
1260,295684,0.9796600000000001,0.8361879999999999,-0.975512,29.295,-348.915,-99.715
1261,295782,1.069452,0.785192,-1.08092,17.29,-350.5775,-105.7875
1262,295880,1.178276,0.809836,-1.254648,3.5525,-353.535,-108.605
1263,295978,1.312964,0.900848,-1.38836,-7.9975,-357.91,-108.43
1264,296076,1.472784,1.057008,-1.520852,-13.3175,-362.1625,-108.8675
1265,296174,1.6867720000000002,1.26148,-1.6757919999999997,-17.7275,-365.68,-113.015
1266,296272,2.038132,1.3786,-1.753628,-19.4425,-368.27,-120.4525
1267,296371,2.50832,0.9921040999999999,-1.4313040000000001,-16.3625,-368.9525,-133.0
1268,296469,2.933612,0.771528,-1.16266,-35.175,-372.6975,-154.105
1269,296567,3.3425559999999996,0.8908440999999999,-0.8998719999999999,-62.0725,-378.0175,-173.6525
1270,296665,3.629744,0.879376,-0.47775200000000007,-62.7375,-364.1925,-176.9075
1271,296763,3.700016,0.568032,0.09223200000000001,-51.625,-327.8275,-166.46
1272,296861,3.720024,0.133956,0.7283400999999999,-49.105,-283.1325,-152.495
1273,296959,3.7302720000000003,0.066124,1.155828,-75.32,-244.475,-146.5275
1274,297057,3.5587400000000002,0.38674000000000003,1.497916,-89.1625,-206.255,-135.6425
1275,297156,3.4916400000000003,0.552904,1.80194,-63.6825,-141.015,-93.4675
1276,297254,3.464312,0.4026,1.9715200000000002,-30.38,-69.1425,-29.82
1277,297352,3.3672,0.288408,1.816336,-20.125,-12.53,19.005
1278,297450,2.7267,1.027484,1.3351680000000001,-39.5675,31.1325,26.845
1279,297548,-0.486048,1.6570040000000001,0.7166279999999999,25.3925,104.6675,-4.6025
1280,297646,-2.3302,0.13542,-1.310036,151.8475,228.2875,-34.8075
1281,297744,-2.132072,-1.13094,-2.417796,45.8675,347.8125,-33.4425
1282,297842,1.5494,-1.142164,1.305156,104.93,478.6425,-83.37001
1283,297941,4.688216000000001,-2.33996,0.185928,66.5875,455.63,-126.5425
1284,298039,4.13702,-2.231868,-4.71896,-93.9925,294.14,-45.1325
1285,298137,4.026,-1.6674959999999999,-2.196244,-30.065,240.8875,47.1625
1286,298235,2.038376,0.64294,-1.505968,-68.8275,156.0125,105.2625
1287,298333,0.21618400000000002,2.491484,-1.1529,-88.30501,85.5225,91.245
1288,298431,-0.294996,2.44854,-0.8720559999999999,-8.4525,114.45,48.1425
1289,298529,2.0742439999999998,2.0496,-2.2387,58.6425,139.3875,4.025
1290,298627,1.760216,-1.4393559999999999,-0.80886,212.52,161.6125,56.7875
1291,298726,0.48702399999999996,-0.21862399999999999,-1.35664,100.9925,33.4075,53.34
1292,298824,0.745664,0.6229319999999999,-1.061156,57.715,38.815,26.915
1293,298922,0.634156,0.055388,-1.0255319999999999,46.2175,36.54,12.775
1294,299020,0.46433199999999997,0.299144,-0.907192,33.565,20.685,8.8375
1295,299118,0.503372,0.31012399999999996,-0.9435479999999999,23.2225,12.3725,4.4625
1296,299216,0.462136,0.201544,-0.906216,23.205,11.4625,3.6575
1297,299314,0.37990799999999997,0.31012399999999996,-0.9171961,17.01,4.7775,2.8175
1298,299412,0.413092,0.244732,-0.9023121,16.8175,4.445,3.7975
1299,299511,0.432856,0.21813600000000002,-0.8640040000000001,15.9425,5.1625,4.48
1300,299609,0.37942,0.239364,-0.860344,12.5475,4.2,3.8675
1301,299707,0.386252,0.263276,-0.892308,13.4575,4.4975,4.6725
1302,299805,0.44066400000000006,0.225212,-0.85888,15.7325,6.895,6.0725
1303,299903,0.49141599999999996,0.187148,-0.8823040000000001,14.0175,7.0,6.0025
1304,300001,0.45432799999999995,0.226188,-0.89426,11.585,4.1125,5.32
1305,300099,0.47360399999999997,0.188856,-0.883036,9.8175,5.285,4.165
1306,300197,0.45603599999999994,0.187148,-0.889868,6.6325,6.9475,2.3625
1307,300296,0.449692,0.223016,-0.858392,2.73,6.65,0.8400001
1308,300394,0.44286000000000003,0.285236,-0.8549761,-0.385,6.86,1.12
1309,300492,0.465308,0.25986,-0.863028,-0.2625,6.9125,3.115
1310,300590,0.45115600000000006,0.24326799999999998,-0.8666879999999999,0.6825,6.09,4.5675
1311,300688,0.477508,0.23838800000000002,-0.898408,0.4375,6.7375,4.8125
1312,300786,0.46945600000000004,0.21106,-0.8679081,1.155,8.085,4.0775
1313,300884,0.459696,0.14152,-0.8510719999999999,0.0525,10.3075,1.68
1314,300982,0.486292,0.172264,-0.800564,-3.71,13.615,-1.61
1315,301080,0.475312,0.198372,-0.8369200000000001,-8.5225,17.22,-5.705
1316,301179,0.447984,0.21057199999999998,-0.8493641,-11.34,21.49,-7.245
1317,301277,0.401868,0.25790799999999997,-0.8991401,-14.8575,25.585,-5.6175
1318,301375,0.414312,0.245952,-0.8788879999999999,-14.6475,25.62,-2.1525
1319,301473,0.43505200000000005,0.251564,-0.8620521000000001,-13.3525,29.4,2.9225
1320,301571,0.44212799999999997,0.21862399999999999,-0.846924,-15.4,32.305,6.0025
1321,301669,0.47213999999999995,0.220088,-0.826428,-15.575,38.5525,7.3675
1322,301767,0.49873599999999996,0.182756,-0.8298440999999999,-16.6075,41.3,6.4925
1323,301865,0.4941,0.162504,-0.8327720999999999,-16.3975,44.835,1.995
1324,301963,0.45383999999999997,0.20691199999999998,-0.888648,-19.81,50.855,-4.69
1325,302062,0.41723999999999994,0.252296,-0.898408,-25.5675,66.7275,-3.045
1326,302160,0.46481999999999996,0.24570799999999998,-0.8949921000000001,-32.165,89.11,3.6925
1327,302258,0.49288000000000004,0.227652,-0.9018241,-39.06,108.8325,10.7975
1328,302356,0.482876,0.272548,-0.9232961,-43.0325,125.1075,16.5375
1329,302454,0.529724,0.276452,-0.888648,-40.39,141.4875,22.3125
1330,302552,0.553636,0.250832,-0.859856,-43.5225,165.235,31.0275
1331,302650,0.53314,0.284748,-0.889624,-59.9725,196.7525,32.3925
1332,302748,0.587796,0.276452,-0.922076,-75.0575,236.915,33.25
1333,302846,0.685884,0.288164,-0.9272,-86.6075,289.345,39.375
1334,302944,0.671244,0.315004,-1.1807159999999999,-102.76,345.555,48.6325
1335,303043,0.865956,0.532408,-1.441552,-120.225,424.83,66.5875
1336,303141,0.797636,0.128588,-1.684088,-156.38,518.0525,104.1075
1337,303239,0.648308,0.11467999999999999,-1.7021439999999999,-177.4675,571.865,102.2
1338,303337,1.3510280000000001,0.17397200000000002,-1.869284,-222.2325,573.405,67.095
1339,303435,2.822348,0.98088,-2.135732,-253.82,573.405,42.735
1340,303533,2.8931080000000002,0.6039,-2.121824,-225.155,573.2125,14.5425
1341,303631,1.249524,0.494588,-1.88002,-187.88,508.5325,-0.2275
1342,303729,1.44936,1.2902719999999999,-3.239588,-117.4775,299.6875,-13.3175
1343,303828,2.778184,0.225944,-1.606252,-63.2975,339.955,-112.2625
1344,303926,3.3049800000000005,0.574864,-2.829668,-284.0425,351.295,-263.585
1345,304024,0.7673800000000001,1.109224,-0.31598000000000004,-178.29,-230.755,59.5875
1346,304122,4.45788,2.376072,-3.012424,-249.305,258.6325,102.935
1347,304220,0.6182960999999999,2.0815639999999997,-4.87268,-314.895,-138.7225,37.52
1348,304318,0.484584,1.6452919999999998,-2.744756,-97.19501,-219.38,23.2925
1349,304416,0.101748,1.2312239999999999,-1.7172720000000001,-0.735,-327.915,9.065
1350,304514,-0.395768,0.7478600000000001,-1.3649360000000001,110.3375,-314.58,35.3675
1351,304612,-0.62342,0.28767600000000004,-1.243668,155.61,-311.64,56.56
1352,304711,-0.532896,0.0051240009999999996,-0.665144,160.3175,-299.495,66.9025
1353,304809,-0.237656,-0.098576,-0.632204,120.54,-291.0075,64.9775
1354,304907,-0.021472,-0.07564,-0.665632,69.405,-289.45,49.5775
1355,305005,0.10248,0.062220000000000004,-0.74908,14.8925,-298.0425,22.96
1356,305103,0.258884,0.262788,-0.829356,-27.23,-310.45,-5.915
1357,305201,0.42212,0.458232,-0.9093880999999999,-43.6625,-325.605,-29.89
1358,305299,0.604388,0.5858439999999999,-0.9718521000000001,-37.52,-338.66,-47.775
1359,305397,0.7666480999999999,0.619272,-0.9720960999999999,-14.49,-349.5275,-61.1625
1360,305496,0.8727879999999999,0.574864,-0.9964959999999999,12.915,-359.555,-69.59751
1361,305594,0.965996,0.44408000000000003,-0.9906401,35.8225,-367.92,-74.69
1362,305692,1.0499319999999999,0.327936,-1.0340719999999999,46.2525,-375.7775,-79.8175
1363,305790,1.176324,0.236192,-1.099708,47.5825,-383.7575,-82.9325
1364,305888,1.331996,0.20496,-1.22,42.5775,-392.91,-81.935
1365,305986,1.515484,0.17738800000000002,-1.2993,34.51,-403.655,-75.6175
1366,306084,1.6582240000000001,0.163724,-1.311744,26.355,-417.27,-65.22251
1367,306182,1.7463080000000002,0.22277199999999997,-1.34932,14.4725,-430.71,-53.69
1368,306281,1.795352,0.39113200000000004,-1.49084,0.3325,-441.35,-42.8225
1369,306379,1.86294,0.6605081,-1.676036,-12.7575,-448.1225,-36.6275
1370,306477,1.985184,1.047004,-1.850984,-24.185,-453.5125,-40.8275
1371,306575,2.151836,1.4271559999999999,-1.905884,-26.6875,-453.88,-55.0725
1372,306673,2.4744040000000003,1.452288,-1.87392,-20.475,-444.4475,-79.5375
1373,306771,2.95362,0.821304,-1.331508,-12.7575,-424.9525,-120.75
1374,306869,3.3598800000000004,0.9869800999999999,-1.143872,-41.93,-408.415,-168.525
1375,306967,3.8783800000000004,0.964044,-0.505324,-47.0575,-388.85,-188.4225
1376,307066,4.075532,0.708088,0.324276,-35.9625,-356.8075,-189.105
1377,307164,3.826164,0.447496,1.1514360000000001,-34.02,-311.605,-195.055
1378,307262,3.6368199999999997,0.4636,1.7272759999999998,-42.6475,-252.42,-211.015
1379,307360,3.514332,0.5795,2.082052,-41.6325,-179.7425,-220.5525
1380,307458,3.4208800000000004,0.526308,2.364848,-9.3625,-84.7875,-203.035
1381,307556,3.771996,0.149816,2.400472,24.64,8.8025,-161.0875
1382,307654,4.089928,-0.045872,2.234308,19.7225,64.89,-118.0025
1383,307752,3.8534919999999997,0.178608,1.8531799999999998,-22.4175,90.49251,-86.7125
1384,307851,3.2959519999999998,0.55998,1.1812040000000001,-56.8225,114.5375,-65.345
1385,307949,0.39528,0.8596120999999999,0.032695999999999996,-65.905,143.605,-57.4525
1386,308047,-3.5787480000000005,1.5586719999999998,-7.148712,-34.86,39.025,-85.83751
1387,308145,-3.354512,0.151524,-3.080988,11.2,91.595,-101.9025
1388,308243,-0.510692,-1.5079200000000001,3.8259199999999995,71.7325,544.25,-73.045
1389,308341,2.6644799999999997,-0.8383841000000001,3.499692,82.46,491.295,-59.08
1390,308439,3.11222,-2.013976,-5.2033,-166.5825,250.67,-16.835
1391,308537,4.1936279999999995,-1.2197559999999998,-2.150616,-62.3875,305.0425,54.1275
1392,308635,2.8365,-0.6231760999999999,-1.8412240000000002,-23.625,246.5925,107.87
1393,308734,1.50426,1.468148,-1.648464,-100.905,151.095,121.205
1394,308832,0.58804,2.710352,-1.4278879999999998,-60.0775,149.7825,88.8125
1395,308930,1.339804,4.029172,-1.7221520000000001,21.3675,125.0025,24.255
1396,309028,2.329712,-0.34892,-1.169736,180.6175,179.97,26.075
1397,309126,0.8935280999999999,-1.5852680000000001,-1.32736,160.5275,102.41,60.935
1398,309224,0.40138,0.64782,-0.9718521000000001,67.235,39.7775,37.205
1399,309322,0.627812,0.9252481,-0.9911281,46.3575,44.555,18.8475
1400,309420,0.604144,-0.073688,-1.08946,63.21,59.0625,17.6225
1401,309519,0.5958479999999999,0.104432,-1.061156,42.6825,37.065,16.0825
1402,309617,0.58804,0.30256,-0.8996280999999999,27.195,23.415,9.905
1403,309715,0.5309441,0.242292,-0.9252481,17.5,17.815,4.9875
1404,309813,0.447008,0.22423600000000002,-0.94306,11.2,12.7575,3.5525
1405,309911,0.476288,0.225944,-0.894748,5.6,13.5275,2.45
1406,310009,0.469944,0.249856,-0.8725440999999999,0.0525,13.79,1.715
1407,310107,0.465308,0.2745,-0.837408,-2.6425,14.2625,1.75
1408,310205,0.430904,0.292068,-0.8640040000000001,-3.5,14.5425,2.03
1409,310304,0.43944399999999995,0.276696,-0.85644,-1.68,16.555,3.1675
1410,310402,0.47458,0.24863600000000002,-0.846924,-1.33,20.7375,3.6925
1411,310500,0.458232,0.30988000000000004,-0.8518040000000001,-3.185,23.52,3.15
1412,310598,0.475312,0.299632,-0.8513161,-2.31,26.0925,4.2525
1413,310696,0.49434399999999995,0.268156,-0.8383841000000001,-1.8025,29.575,5.7575
1414,310794,0.504592,0.265716,-0.8364321,-3.9725,32.2525,4.8125
1415,310892,0.508252,0.265472,-0.826428,-6.37,33.285,3.71
1416,310990,0.5124001,0.22789600000000002,-0.8249639999999999,-8.2425,33.7925,2.9225
1417,311089,0.45871999999999996,0.163724,-0.821792,-13.0025,35.175,2.9925
1418,311187,0.42138809999999993,0.345504,-0.85888,-22.995,37.415,3.4125
1419,311285,0.503616,0.211792,-0.807396,-12.9675,39.165,1.05
1420,311383,0.529724,0.269376,-0.7771399999999999,-12.39,40.215,-0.4725
1421,311481,0.565836,0.264984,-0.74298,-11.7775,37.87,-2.1875
1422,311579,0.576572,0.324276,-0.7442,-11.7775,35.385,-1.68
1423,311677,0.5504641,0.35526399999999997,-0.77836,-10.5,29.7675,1.26
1424,311775,0.549244,0.354288,-0.7617681,-6.6675,24.36,6.86
1425,311873,0.540948,0.3355,-0.7625,-4.2875,19.705,12.3375
1426,311972,0.5282600000000001,0.327204,-0.798856,-2.065,14.7175,17.535
1427,312070,0.533628,0.29377600000000004,-0.790072,2.2225,10.3425,21.385
1428,312168,0.5636399999999999,0.204716,-0.7700640999999999,6.825,7.665,21.07
1429,312266,0.565836,0.176656,-0.766892,7.3325,9.8875,15.9075
1430,312364,0.5214281,0.187148,-0.7951961,2.5375,16.73,8.6275
1431,312462,0.480192,0.23472800000000002,-0.8652241,-6.0725,35.07,5.7925
1432,312560,0.465308,0.24522,-0.8813280000000001,-14.7875,58.6775,9.415
1433,312658,0.49556400000000006,0.282552,-0.8762040000000001,-21.77,84.01751,15.75
1434,312757,0.533384,0.246928,-0.874984,-25.55,107.5725,22.82
1435,312855,0.5734,0.22789600000000002,-0.8291120999999999,-27.2825,130.655,27.93
1436,312953,0.568764,0.25986,-0.8420440999999999,-34.4925,154.315,28.4375
1437,313051,0.5577840000000001,0.306464,-0.8954801,-46.0075,185.5,28.105
1438,313149,0.651968,0.33305999999999997,-0.921344,-57.9425,231.1925,32.4625
1439,313247,0.6851520999999999,0.31158800000000003,-0.948184,-66.6925,287.0875,42.35
1440,313345,0.77836,0.388692,-1.101416,-77.84,350.4025,53.7775
1441,313443,0.8784,0.44822799999999996,-1.352004,-92.3825,431.5325,68.95
1442,313542,0.800076,0.23448400000000003,-1.741916,-132.7375,526.855,89.4075
1443,313640,0.667096,0.082716,-1.844884,-160.1425,572.5125,96.53
1444,313738,1.453264,0.28011199999999997,-1.704584,-209.825,573.405,68.81
1445,313836,2.555656,1.12972,-2.100352,-266.21,573.405,40.6875
1446,313934,3.101972,0.483608,-2.3260520000000002,-264.8625,573.405,5.4425
1447,314032,1.767536,0.534604,-1.794132,-242.7075,512.785,-7.84
1448,314130,1.5889280000000001,1.024556,-3.7846839999999995,-157.3075,238.315,-1.3475
1449,314228,3.311812,0.573156,-1.362252,-99.435,228.48,-69.87751
1450,314327,3.118808,0.8413120000000001,-1.593076,-271.635,296.0125,-228.4275
1451,314425,1.693848,1.29198,-0.585112,-169.155,-152.0575,105.0875
1452,314523,3.7212440000000004,2.3372759999999997,-3.7883440000000004,-259.1225,243.1975,124.5825
1453,314621,0.7944641,2.2301599999999997,-4.50424,-301.525,-177.6075,59.955
1454,314719,0.6029241,1.893684,-2.677168,-76.265,-241.7275,38.85
1455,314817,0.220088,1.33956,-1.611864,34.1425,-327.4775,32.8125
1456,314915,-0.414312,0.860344,-1.319064,143.5,-313.7575,57.505
1457,315013,-0.583648,0.304268,-0.862296,186.5325,-311.78,70.2975
1458,315111,-0.437004,0.11834000000000001,-0.4331,180.46,-293.7025,75.0575
1459,315210,-0.204716,0.068076,-0.48263199999999995,133.1925,-288.68,66.36
1460,315308,-0.063196,0.129076,-0.5404601,86.04751,-288.12,45.675
1461,315406,0.0366,0.281088,-0.652944,42.4025,-296.31,18.34
1462,315504,0.20374,0.434808,-0.7056479999999999,14.28,-306.39,-6.7025
1463,315602,0.365512,0.558028,-0.798856,4.5325,-318.0625,-27.58
1464,315700,0.526552,0.625128,-0.823256,10.7975,-327.11,-45.5875
1465,315798,0.656848,0.6258600000000001,-0.8025161,24.5875,-335.755,-62.1425
1466,315896,0.764208,0.6007279999999999,-0.8596120999999999,38.7975,-344.3825,-77.35
1467,315995,0.854244,0.5355800999999999,-0.8418,50.4525,-352.415,-91.0525
1468,316093,0.916952,0.49556400000000006,-0.8823040000000001,57.68,-359.6775,-102.3225
1469,316191,0.9840521000000001,0.44652,-1.000644,61.355,-364.56,-110.3025
1470,316289,1.1150799999999998,0.372344,-1.123864,62.9475,-367.5525,-114.38
1471,316387,1.333704,0.31890799999999997,-1.2566,60.76,-372.435,-112.77
1472,316485,1.566236,0.262788,-1.3571280000000001,54.355,-382.69,-104.1075
1473,316583,1.7470400000000001,0.225944,-1.3834799999999998,42.105,-397.25,-91.245
1474,316681,1.8712360000000001,0.295484,-1.4278879999999998,21.105,-413.28,-78.47
1475,316779,1.9781080000000002,0.510692,-1.533052,-3.6925,-427.035,-67.865
1476,316877,2.111088,0.8332601000000001,-1.642608,-23.345,-437.1325,-61.46
1477,316976,2.3211720000000002,1.1960879999999998,-1.7692439999999998,-35.9275,-443.24,-64.1725
1478,317074,2.5754200000000003,1.5347600000000001,-1.841468,-39.235,-444.4825,-79.2575
1479,317172,2.947032,1.028216,-1.361764,-26.915,-436.625,-106.5925
1480,317270,3.3008319999999998,0.967216,-1.1599760000000001,-35.7525,-421.05,-153.7375
1481,317368,3.7100199999999997,1.074088,-0.7227279999999999,-48.93,-407.7325,-188.9125
1482,317466,4.15776,0.8544879999999999,0.022936,-35.455,-378.35,-193.935
1483,317564,4.054792,0.56608,0.7439560000000001,-24.675,-340.7075,-189.3675
1484,317662,3.8979,0.4819,1.420324,-12.845,-292.6175,-185.7275
1485,317760,3.8427559999999996,0.579256,1.8961240000000001,5.7575,-230.3175,-174.1425
1486,317858,3.513356,0.42773199999999995,2.351428,41.965,-148.9075,-141.54
1487,317957,3.515796,0.122,2.465132,68.18,-52.2725,-99.8375
1488,318055,3.6834239999999996,-0.142984,2.459032,66.36,15.61,-66.08
1489,318153,3.7410080000000003,-0.0427,2.0173919999999996,20.8425,63.7875,-47.705
1490,318251,3.028284,0.189344,1.346392,-32.9,98.21,-37.3275
1491,318349,0.205204,0.763476,-1.9717639999999999,-41.72,99.9075,-39.8475
1492,318447,-4.083828,-0.21862399999999999,-2.656428,-8.9775,36.68,-64.8025
1493,318545,-1.0499319999999999,-1.2190239999999999,-1.945656,-87.4475,384.405,-33.11
1494,318643,1.3510280000000001,-1.16144,3.4635800000000003,15.4525,472.0975,-43.785
1495,318741,3.6219360000000003,-0.7812880999999999,-0.41894799999999993,-114.1,362.0575,-72.0475
1496,318840,3.07318,-0.44505600000000006,-4.52864,-181.6325,295.295,-1.3125
1497,318938,3.208112,-0.5192319999999999,-1.331264,-72.205,288.9425,46.1475
1498,319036,1.826096,0.577304,-1.948584,-107.0125,201.88,82.635
1499,319134,1.1831559999999999,3.773704,-2.77672,-96.98501,158.2175,69.475
1500,319232,1.67628,4.3444199999999995,-0.5309441,39.6725,124.635,-4.6725
1501,319330,1.1575360000000001,-0.72468,-1.434476,198.17,159.3025,53.0075
1502,319428,1.1533879999999999,-1.5950280000000001,-1.235616,190.015,119.8575,88.5675
1503,319526,0.9708760000000001,0.8840120000000001,-1.1653440000000002,86.1,57.89,57.68
1504,319624,0.549244,0.262788,-0.9250040999999999,89.0925,45.325,37.31
1505,319723,0.868396,-0.21472,-1.33712,77.105,41.685,26.985
1506,319821,0.5858439999999999,0.30866,-0.8591241,46.9,19.8625,15.9425
1507,319919,0.42602399999999996,0.26303200000000004,-0.9840521000000001,27.335,6.3525,5.915
1508,320017,0.465796,0.22472399999999998,-0.922076,27.1075,10.71,5.0225
1509,320115,0.43188000000000004,0.323788,-0.9059721,19.215,5.7925,4.9875
1510,320213,0.47458,0.22691999999999998,-0.8693719999999999,19.3725,5.6875,6.09
1511,320311,0.45286400000000004,0.221552,-0.883524,15.4,4.9,5.5475
1512,320409,0.39771999999999996,0.24936799999999998,-0.879376,10.99,3.57,4.6375
1513,320507,0.40138,0.258884,-0.8698601,9.0475,5.285,4.4275
1514,320606,0.423828,0.27328,-0.8518040000000001,9.2225,7.4025,5.32
1515,320704,0.426756,0.2623,-0.858392,10.1675,7.07,6.5625
1516,320802,0.5099600000000001,0.18544000000000002,-0.8532681000000001,11.935,7.2975,7.3675
1517,320900,0.43602799999999997,0.211792,-0.912316,10.36,4.9525,6.44
1518,320998,0.454084,0.232776,-0.8674200000000001,8.3475,6.1075,5.005
1519,321096,0.467504,0.29597199999999996,-0.8669319999999999,6.1775,7.805,5.5125
1520,321194,0.46921199999999996,0.274988,-0.8708360999999999,7.0175,5.985,7.98
1521,321292,0.47336000000000006,0.239852,-0.8559521000000001,8.995,3.185,10.5
1522,321390,0.47213999999999995,0.216428,-0.862296,8.9775,2.0475,11.1825
1523,321488,0.48848800000000003,0.20642399999999997,-0.8596120999999999,7.4375,1.5225,10.325
1524,321587,0.48702399999999996,0.17202,-0.8361879999999999,5.7925,2.9575,9.0125
1525,321685,0.445788,0.13078399999999998,-0.81862,-0.2625,7.5775,6.65
1526,321783,0.41894799999999993,0.179584,-0.8725440999999999,-9.45,13.93,3.22
1527,321881,0.45554799999999995,0.200324,-0.83814,-8.5575,19.4075,0.2625
1528,321979,0.47946000000000005,0.257664,-0.824232,-12.6875,23.45,-0.42
1529,322077,0.472628,0.266448,-0.8481440999999998,-12.0575,24.675,1.8025
1530,322175,0.472384,0.25961599999999996,-0.8461921,-11.0425,23.3625,5.8975
1531,322273,0.470188,0.225456,-0.8591241,-9.1175,21.1925,9.6075
1532,322371,0.47213999999999995,0.203496,-0.8383841000000001,-7.07,19.46,10.85
1533,322470,0.481412,0.214964,-0.8398479999999999,-6.545,20.0375,9.8175
1534,322568,0.48995200000000005,0.19178399999999998,-0.8220360000000001,-6.3175,20.895,7.84
1535,322666,0.465796,0.19642,-0.818376,-8.75,26.635,3.78
1536,322764,0.407236,0.203008,-0.8788879999999999,-16.275,40.53,1.715
1537,322862,0.38918,0.23521599999999998,-0.8930401,-24.7275,63.2625,5.705
1538,322960,0.41358,0.21594000000000002,-0.8874280999999999,-32.1125,92.48751,13.16
1539,323058,0.470188,0.172996,-0.88328,-39.5325,121.6075,19.915
1540,323156,0.491904,0.188856,-0.9115840000000001,-45.36,150.325,25.3575
1541,323254,0.525576,0.195932,-0.9259799999999999,-47.9675,175.14,28.315
1542,323352,0.5551,0.257664,-0.9232961,-51.17,201.075,32.6725
1543,323451,0.56608,0.2989,-0.8547319999999999,-59.15,232.8725,36.365
1544,323549,0.6348881,0.28377199999999997,-0.931348,-71.365,285.88,37.59
1545,323647,0.7076001000000001,0.329156,-1.127768,-84.15751,344.995,42.0875
1546,323745,0.7829961,0.341356,-1.328092,-82.6875,426.58,55.615
1547,323843,0.873764,0.46018400000000004,-1.536468,-99.5225,526.19,71.78501
1548,323941,0.81862,0.31158800000000003,-1.951024,-140.5075,571.9525,93.7125
1549,324039,1.005524,0.18422,-2.196976,-180.0575,573.3875,93.555
1550,324137,2.449272,1.5018200000000002,-2.000068,-254.9925,573.405,59.3775
1551,324235,3.6529239999999996,0.6058520000000001,-2.3846119999999997,-254.9225,573.405,20.615
1552,324334,1.70556,0.513864,-2.0510639999999998,-223.055,532.455,27.8775
1553,324432,1.5469600000000001,1.264652,-3.5643519999999995,-173.3025,273.84,11.55
1554,324530,2.6962,1.592344,-1.9144240000000001,-81.2,209.685,5.0575
1555,324628,3.6870839999999996,1.029924,-4.8016760000000005,-245.7,322.4725,-172.9525
1556,324726,0.802272,1.1956,-0.299632,-46.8125,-171.045,87.5175
1557,324824,3.726124,2.2545599999999997,-3.528972,-133.175,245.1925,102.6025
1558,324922,0.49776000000000004,2.045696,-4.9773559999999994,-244.2825,-160.3175,24.7975
1559,325020,0.567788,1.565016,-2.701812,-20.65,-233.1875,11.41
1560,325118,0.256444,1.010648,-1.7038520000000001,57.2425,-328.09,13.0025
1561,325216,-0.325252,0.589504,-1.4356959999999999,138.7925,-322.6475,46.0425
1562,325315,-0.5543680000000001,0.140544,-0.965996,162.0325,-334.3375,65.345
1563,325413,-0.43188000000000004,-0.094672,-0.41602,147.7875,-323.6625,72.8175
1564,325511,-0.204228,-0.098332,-0.515572,95.41,-320.8275,65.0475
1565,325609,-0.11467999999999999,-0.038551999999999996,-0.5612,48.16,-321.58,45.78
1566,325707,-0.023912,0.08808401,-0.6156119999999999,7.9625,-328.3,19.25
1567,325805,0.17055599999999999,0.190076,-0.7381001,-15.505,-334.8975,-4.9525
1568,325903,0.384788,0.22862800000000003,-0.868152,-21.0175,-341.705,-26.425
1569,326001,0.568032,0.21106,-0.903532,-13.1425,-348.3725,-45.78
1570,326099,0.743712,0.13908,-0.94916,-0.035,-355.3725,-60.165
1571,326198,0.9076799999999999,0.00976,-0.973316,9.345,-364.8925,-68.39
1572,326296,1.071892,-0.11736400000000001,-1.003816,11.1475,-374.885,-69.0025
1573,326394,1.220488,-0.22106399999999998,-1.0589600000000001,3.675,-385.1925,-63.7875
1574,326492,1.293688,-0.23448400000000003,-1.112152,-8.2775,-395.185,-55.965
1575,326590,1.352248,-0.162992,-1.23098,-22.015,-403.48,-45.045
1576,326688,1.468148,-0.0244,-1.3644479999999999,-32.34,-410.515,-32.48
1577,326786,1.616256,0.161772,-1.468148,-40.81,-420.1575,-24.465
1578,326884,1.7509439999999998,0.374784,-1.471808,-46.8125,-432.46,-26.7925
1579,326982,1.8182880000000001,0.71248,-1.5786799999999999,-52.5525,-442.3475,-38.815
1580,327081,1.991528,1.067256,-1.6643240000000001,-51.7125,-444.78,-56.6475
1581,327179,2.2774959999999997,1.380064,-1.6967759999999998,-40.32,-443.45,-83.65001
1582,327277,2.639104,1.389824,-1.613328,-21.77,-431.9525,-125.1425
1583,327375,3.136864,1.253672,-1.447408,-3.185,-409.9725,-179.725
1584,327473,3.72954,1.1660760000000001,-1.096048,12.1975,-388.535,-229.0575
1585,327571,4.27732,1.0077200000000002,-0.529724,32.3925,-366.3625,-250.565
1586,327669,4.396636,0.676612,0.208132,50.7675,-336.525,-248.3775
1587,327767,4.18216,0.367952,1.044808,58.73,-296.065,-238.4375
1588,327865,4.021852,0.239852,1.8243880000000001,52.815,-242.3925,-226.31
1589,327964,3.6575599999999997,0.08003201,2.445856,34.0375,-173.5475,-204.925
1590,328062,3.3164480000000003,0.14005599999999999,2.5634639999999997,2.59,-95.02501,-174.615
1591,328160,3.226168,0.264008,2.326784,-15.575,-23.6775,-139.335
1592,328258,3.4979839999999998,0.266204,2.0281279999999997,-12.5825,48.3,-99.8725
1593,328356,3.5877760000000003,0.36892800000000003,1.6531,-21.8925,99.435,-62.6675
1594,328454,3.25252,0.6378159999999999,0.97478,-43.5925,124.3375,-39.3225
1595,328552,0.634644,0.601704,-0.10516400000000001,-57.96,143.115,-33.4775
1596,328650,-3.13662,1.204872,-7.125532000000001,-40.635,27.1425,-56.42
1597,328748,-3.3659800000000004,-0.5294800000000001,-2.769644,19.9675,44.625,-66.08
1598,328847,-0.8432639999999999,-1.453508,3.0270639999999998,-64.8025,537.3725,-61.2325
1599,328945,1.4332559999999999,0.60024,4.016972,-59.675,501.3575,-143.4825
1600,329043,3.041948,-0.815204,-3.394772,-272.965,261.31,-157.9025
1601,329141,3.611444,-0.8893800999999999,-3.55142,-158.3925,320.0925,-28.595
1602,329239,3.368176,-0.333304,-1.4459440000000001,-103.1275,275.625,12.915
1603,329337,1.986404,2.459764,-3.387208,-140.9275,178.64,50.6275
1604,329435,2.335324,5.375076,-1.134112,-22.1725,94.46500999999999,-4.375
1605,329533,1.288808,-0.519964,-0.416996,222.495,171.4475,55.93
1606,329631,0.021472,-1.0943399999999999,-1.73606,149.2225,52.5175,80.36
1607,329730,0.9345201,0.767868,-0.86864,99.5225,80.2375,46.6725
1608,329828,0.828624,0.38552,-1.090192,89.7575,57.3125,31.465
1609,329926,0.64294,-0.0549,-1.179252,86.9925,26.5475,25.7775
1610,330024,0.40357600000000005,0.49873599999999996,-0.8676640999999999,57.2425,6.5975,20.37
1611,330122,0.551928,0.18666,-0.957456,51.59,0.385,20.1775
1612,330220,0.5121560000000001,0.20178800000000002,-0.85156,45.7975,-4.0075,20.125
1613,330318,0.419436,0.2684,-0.9620920000000001,29.4525,-14.875,14.77
1614,330416,0.41260399999999997,0.22472399999999998,-0.921832,28.91,-8.4175,14.315
1615,330514,0.444324,0.25424800000000003,-0.8869401,23.3975,-5.2325,13.8425
1616,330612,0.451888,0.23668000000000003,-0.86498,21.2275,-2.5725,13.265
1617,330711,0.41992399999999996,0.262056,-0.8976761000000001,17.465,-2.975,11.9525
1618,330809,0.438224,0.212524,-0.889624,16.6775,-0.945,11.4975
1619,330907,0.429684,0.186416,-0.8971879999999999,12.74,1.6625,8.5925
1620,331005,0.42553599999999997,0.25351599999999996,-0.889868,6.8775,3.99,5.53
1621,331103,0.42822,0.261812,-0.889136,4.445,5.4425,5.3725
1622,331201,0.44115200000000004,0.24717199999999998,-0.877912,4.97,6.2825,6.265
1623,331299,0.452376,0.24107199999999998,-0.8425321,5.46,7.035,6.1775
1624,331397,0.447496,0.255468,-0.8657120999999999,3.4125,8.19,6.02
1625,331495,0.42431599999999997,0.27694,-0.8796200000000001,1.8725,9.555,7.35
1626,331594,0.441396,0.21520799999999998,-0.873276,4.48,10.92,7.8225
1627,331692,0.417484,0.141276,-0.85156,4.5325,15.9775,6.545
1628,331790,0.387228,0.174704,-0.865956,-5.4775,22.05,4.4625
1629,331888,0.4594521,0.185684,-0.836676,-9.835,30.87,3.22
1630,331986,0.477996,0.19959200000000002,-0.808372,-14.1225,35.98,1.3475
1631,332084,0.485804,0.239852,-0.8105680000000001,-18.095,39.1825,-0.8925
1632,332182,0.491904,0.265472,-0.821304,-19.8975,39.935,-1.26
1633,332280,0.490196,0.264252,-0.8244761,-19.8275,39.6725,0.6825
1634,332378,0.488,0.26303200000000004,-0.8274040000000001,-19.9325,38.7975,3.7275
1635,332477,0.4819,0.243756,-0.835456,-20.44,38.325,6.86
1636,332575,0.478484,0.227652,-0.8525360000000001,-20.23,37.9575,8.3475
1637,332673,0.490196,0.23253200000000002,-0.8396040000000001,-18.41,39.48,8.33
1638,332771,0.501908,0.245952,-0.80276,-16.835,41.5975,7.175
1639,332869,0.5070319999999999,0.24497600000000003,-0.798124,-16.6775,43.19,6.44
1640,332967,0.49873599999999996,0.23668000000000003,-0.7991,-17.6225,45.78,5.285
1641,333065,0.489708,0.232044,-0.8439959999999999,-20.3875,54.0225,4.8825
1642,333163,0.4636,0.23521599999999998,-0.8605879999999999,-24.4825,66.85,6.65
1643,333261,0.482388,0.23058,-0.8849879999999999,-29.96,85.225,10.4475
1644,333360,0.5260640000000001,0.21716,-0.8513161,-33.9675,106.925,14.9975
1645,333458,0.5543680000000001,0.198372,-0.843508,-36.9775,127.645,17.6925
1646,333556,0.557052,0.233752,-0.8605879999999999,-41.1075,148.505,17.5875
1647,333654,0.556076,0.322812,-0.8439959999999999,-50.1725,172.655,16.3275
1648,333752,0.6107319999999999,0.329156,-0.8522921,-61.0225,210.56,17.0625
1649,333850,0.6456241,0.34257600000000005,-0.874252,-70.665,248.605,23.59
1650,333948,0.6895439999999999,0.396256,-0.9703879999999999,-76.265,291.3225,35.28
1651,334046,0.763476,0.43334399999999995,-1.089704,-77.7,349.09,51.555
1652,334144,0.8849879999999999,0.45335200000000003,-1.230004,-88.8825,431.305,72.4675
1653,334243,0.792756,0.21008400000000002,-1.8065759999999997,-123.27,530.1625,94.7625
1654,334341,0.8513161,0.09906401,-1.7882759999999998,-153.3525,572.7925,88.8125
1655,334439,1.43228,0.566812,-1.727032,-212.345,573.405,56.8925
1656,334537,2.628368,1.118252,-1.8175560000000002,-271.11,573.405,28.4025
1657,334635,2.8548,0.591212,-1.833904,-275.73,571.2,5.7925
1658,334733,1.514752,0.42895200000000006,-1.7702200000000001,-274.6975,477.505,-14.49
1659,334831,1.2761200000000001,0.9455,-2.645204,-224.035,254.1875,1.82
1660,334929,3.218604,1.8292680000000001,-1.353712,-198.5025,187.355,-51.38
1661,335027,3.5328760000000003,0.873276,-4.959788,-320.39,315.385,-191.1
1662,335126,0.790804,0.889624,-0.9813681000000001,-130.2525,-178.01,91.1225
