,T,ax,ay,az,gx,gy,gz
0,4447,0.381372,-0.019032,-0.69784,19.985,-19.425,-14.35
1,4596,0.41723999999999994,-0.00488,-0.8030041,-83.475,5.95,-256.165
2,4694,0.452376,0.0061,-0.858392,-13.825,-97.86,-355.285
3,4792,0.456768,0.007808001,-0.8605879999999999,28.735,-101.22,-83.44001
4,4890,0.4575,0.005612,-0.8620521000000001,1.085,-6.7375,-7.4025
5,4988,0.45457200000000003,0.005856,-0.8640040000000001,0.7875,-5.775,-6.6675
6,5087,0.45383999999999997,0.006344,-0.8657120999999999,0.77,-5.775,-6.7025
7,5185,0.454816,0.0051240009999999996,-0.8632719999999999,0.6825,-5.7225,-6.685
8,5283,0.45579200000000003,0.0051240009999999996,-0.8637601,0.63,-5.74,-6.7725
9,5381,0.454084,0.00488,-0.865956,0.56,-5.7225,-6.7375
10,5479,0.454816,0.006587999999999999,-0.865468,0.595,-5.8975,-6.7025
11,5577,0.45457200000000003,0.008540001,-0.864492,0.5425,-5.81,-6.6675
12,5675,0.454816,0.009516001,-0.8647360000000001,0.56,-5.7575,-6.65
13,5773,0.45506,0.006832001,-0.8664440000000001,0.6475,-5.81,-6.7375
14,5871,0.453596,0.005856,-0.8669319999999999,0.63,-5.81,-6.685
15,5969,0.454816,0.006344,-0.8640040000000001,0.6475,-5.88,-6.7025
16,6067,0.45261999999999997,0.0061,-0.8669319999999999,0.56,-5.9325,-6.5975
17,6165,0.45286400000000004,0.00366,-0.865956,0.6125,-5.915,-6.6325
18,6263,0.452376,0.005856,-0.8647360000000001,0.5075,-5.915,-6.79
19,6361,0.45335200000000003,0.005612,-0.8674200000000001,0.455,-5.9325,-6.7725
20,6459,0.45261999999999997,0.0051240009999999996,-0.868152,0.455,-5.95,-6.72
21,6558,0.453596,0.008540001,-0.8662001,0.4025,-5.8625,-6.8425
22,6656,0.45432799999999995,0.006832001,-0.8657120999999999,0.525,-5.95,-6.825
23,6754,0.45286400000000004,0.007564001,-0.865956,0.665,-5.8625,-6.7725
24,6852,0.45432799999999995,0.007076001,-0.8669319999999999,0.7175,-5.7925,-6.6675
25,6950,0.452376,0.006587999999999999,-0.8662001,0.56,-5.775,-6.72
26,7048,0.45335200000000003,0.006832001,-0.8647360000000001,0.5775,-5.7225,-6.72
27,7146,0.45432799999999995,0.007320001,-0.8669319999999999,0.63,-5.6875,-6.6675
28,7244,0.4553041,0.009272001,-0.8666879999999999,0.6475,-5.67,-6.72
29,7342,0.45506,0.006587999999999999,-0.8664440000000001,0.6475,-5.6525,-6.7025
30,7440,0.454084,0.007076001,-0.8662001,0.665,-5.7575,-6.72
31,7538,0.45335200000000003,0.007808001,-0.865468,0.6475,-5.705,-6.615
32,7636,0.4553041,0.008540001,-0.86498,0.49,-5.845,-6.685
33,7734,0.45457200000000003,0.009028000999999999,-0.865468,0.455,-5.845,-6.79
34,7832,0.45554799999999995,0.008052001,-0.8669319999999999,0.455,-5.74,-6.8775
35,7930,0.4553041,0.009516001,-0.86498,0.4725,-5.635,-6.8075
36,8028,0.45383999999999997,0.008296000999999999,-0.8657120999999999,0.595,-5.6875,-6.7725
37,8126,0.454084,0.008540001,-0.865468,0.6475,-5.81,-6.7025
38,8224,0.453596,0.007808001,-0.8652241,0.5775,-5.8625,-6.7375
39,8322,0.45432799999999995,0.007076001,-0.868396,0.4725,-5.9325,-6.8075
40,8421,0.45432799999999995,0.007808001,-0.8657120999999999,0.49,-5.9675,-6.79
41,8519,0.45383999999999997,0.010492,-0.864492,0.4375,-6.02,-6.825
42,8617,0.45457200000000003,0.010004,-0.8669319999999999,0.6475,-5.95,-6.615
43,8715,0.45261999999999997,0.006587999999999999,-0.8662001,0.6475,-5.8625,-6.58
44,8813,0.45506,0.008784,-0.8652241,0.63,-5.8975,-6.65
45,8911,0.4553041,0.009516001,-0.865956,0.7525,-5.8975,-6.685
46,9009,0.454084,0.009028000999999999,-0.86498,0.7175,-5.845,-6.65
47,9107,0.45457200000000003,0.009272001,-0.8652241,0.7175,-5.8275,-6.615
48,9205,0.45335200000000003,0.006832001,-0.8647360000000001,0.7875,-5.845,-6.5625
49,9303,0.45335200000000003,0.006344,-0.8662001,0.805,-5.7225,-6.545
50,9401,0.45432799999999995,0.009516001,-0.8652241,0.7175,-5.8625,-6.5975
51,9499,0.45457200000000003,0.008296000999999999,-0.8664440000000001,0.6825,-5.9325,-6.7025
52,9597,0.453596,0.007320001,-0.8652241,0.6475,-5.95,-6.685
53,9695,0.45286400000000004,0.011712,-0.8662001,0.63,-5.95,-6.6675
54,9793,0.45432799999999995,0.005368,-0.8671761,0.6825,-5.7925,-6.6325
55,9891,0.45432799999999995,0.007808001,-0.865956,0.63,-5.915,-6.6675
56,9989,0.45628,0.0061,-0.8666879999999999,0.7175,-5.88,-6.7725
57,10088,0.45383999999999997,0.008784,-0.8669319999999999,0.595,-5.845,-6.7375
58,10186,0.454084,0.008296000999999999,-0.864492,0.6125,-5.81,-6.65
59,10284,0.454816,0.008540001,-0.865956,0.6825,-5.74,-6.7025
60,10382,0.454084,0.009272001,-0.8637601,0.665,-5.67,-6.65
61,10480,0.45579200000000003,0.009516001,-0.8652241,0.7175,-5.7225,-6.685
62,10578,0.45506,0.008296000999999999,-0.865956,0.6825,-5.67,-6.72
63,10676,0.45432799999999995,0.009516001,-0.863028,0.6125,-5.775,-6.7025
64,10774,0.45383999999999997,0.009028000999999999,-0.8637601,0.6475,-5.7925,-6.5975
65,10872,0.45432799999999995,0.009516001,-0.86498,0.735,-5.8625,-6.7375
66,10970,0.45603599999999994,0.008052001,-0.8642481,0.5775,-5.88,-6.755
67,11068,0.45457200000000003,0.008784,-0.864492,0.63,-5.8625,-6.65
68,11166,0.454816,0.00976,-0.8640040000000001,0.665,-5.88,-6.685
69,11264,0.45383999999999997,0.009516001,-0.8640040000000001,0.63,-5.8625,-6.7025
70,11362,0.45457200000000003,0.010248,-0.86498,0.595,-5.9325,-6.7025
71,11460,0.45383999999999997,0.008052001,-0.8657120999999999,0.5775,-5.74,-6.755
72,11558,0.45286400000000004,0.009516001,-0.863028,0.6125,-5.845,-6.7025
73,11656,0.45457200000000003,0.00976,-0.864492,0.5775,-5.8975,-6.755
74,11754,0.454084,0.006587999999999999,-0.8662001,0.49,-5.81,-6.9475
75,11852,0.452132,0.00976,-0.8647360000000001,0.35,-5.88,-6.825
76,11951,0.45261999999999997,0.011224,-0.8652241,0.3325,-5.95,-6.8775
77,12049,0.45335200000000003,0.010248,-0.863516,0.5775,-5.845,-6.7375
78,12147,0.45432799999999995,0.01098,-0.8652241,0.5425,-5.81,-6.755
79,12245,0.45432799999999995,0.009516001,-0.8642481,0.595,-5.7925,-6.6325
80,12343,0.45335200000000003,0.009516001,-0.8647360000000001,0.5075,-5.775,-6.72
81,12441,0.45432799999999995,0.010004,-0.8637601,0.56,-5.74,-6.72
82,12539,0.45335200000000003,0.012688,-0.8662001,0.56,-5.81,-6.825
83,12637,0.45554799999999995,0.008540001,-0.8642481,0.595,-5.7925,-6.86
84,12735,0.45261999999999997,0.010736,-0.865468,0.4725,-5.81,-6.8425
85,12833,0.45335200000000003,0.0122,-0.86498,0.4725,-5.8275,-6.8075
86,12931,0.45603599999999994,0.0122,-0.8664440000000001,0.4725,-5.81,-6.8075
87,13029,0.45286400000000004,0.011468,-0.865468,0.5075,-5.705,-6.72
88,13127,0.456524,0.00976,-0.8642481,0.56,-5.775,-6.6675
89,13225,0.45457200000000003,0.011712,-0.8642481,0.63,-5.7225,-6.58
90,13323,0.45506,0.012688,-0.8647360000000001,0.6125,-5.7925,-6.5975
91,13421,0.454816,0.010736,-0.8642481,0.805,-5.7575,-6.58
92,13520,0.4553041,0.010248,-0.8652241,0.735,-5.81,-6.58
93,13618,0.452376,0.010004,-0.865468,0.7875,-5.88,-6.545
94,13716,0.45286400000000004,0.009272001,-0.8640040000000001,0.735,-5.8275,-6.4575
95,13814,0.452376,0.010736,-0.8642481,0.8225,-5.565,-6.4225
96,13912,0.45457200000000003,0.011712,-0.8640040000000001,0.7875,-5.67,-6.4225
97,14010,0.453108,0.011712,-0.8652241,0.8400001,-5.7225,-6.3875
98,14108,0.453108,0.010736,-0.864492,0.8925,-5.5475,-6.3875
99,14206,0.45506,0.008540001,-0.8647360000000001,0.7875,-5.495,-6.405
100,14304,0.45286400000000004,0.0122,-0.86498,0.805,-5.6,-6.44
101,14402,0.45261999999999997,0.0122,-0.8662001,0.8225,-5.6525,-6.475
102,14500,0.45335200000000003,0.009272001,-0.8647360000000001,0.735,-5.67,-6.37
103,14598,0.45164399999999993,0.00976,-0.8652241,0.7,-5.565,-6.3875
104,14696,0.454816,0.009516001,-0.863516,0.805,-5.5825,-6.4575
105,14794,0.45432799999999995,0.010004,-0.8632719999999999,0.7175,-5.565,-6.44
106,14892,0.454084,0.010736,-0.8640040000000001,0.805,-5.5475,-6.4225
107,14990,0.45506,0.010492,-0.8637601,0.8575,-5.3725,-6.3175
108,15088,0.45554799999999995,0.009028000999999999,-0.8652241,0.9275,-5.4775,-6.335
109,15186,0.4553041,0.011468,-0.86498,0.8575,-5.46,-6.2475
110,15284,0.453108,0.008784,-0.8613200000000001,0.8575,-5.4425,-6.265
111,15382,0.453596,0.011468,-0.863028,0.9625,-5.425,-6.1775
112,15480,0.45335200000000003,0.009272001,-0.8620521000000001,0.9625,-5.3725,-6.1775
113,15578,0.45286400000000004,0.008784,-0.861808,0.9975,-5.355,-6.125
114,15677,0.45335200000000003,0.011224,-0.8642481,0.98,-5.39,-6.1775
115,15775,0.45286400000000004,0.010248,-0.8625401,0.9975,-5.39,-6.09
116,15873,0.453596,0.009516001,-0.8632719999999999,1.085,-5.46,-6.1075
117,15971,0.45286400000000004,0.010492,-0.8637601,1.1375,-5.4775,-6.125
118,16069,0.453108,0.011468,-0.863028,1.1375,-5.3375,-6.265
119,16167,0.45335200000000003,0.010492,-0.862784,1.085,-5.4425,-6.2475
120,16265,0.454084,0.011224,-0.8640040000000001,1.085,-5.4425,-6.195
121,16363,0.453596,0.011468,-0.8647360000000001,1.12,-5.39,-6.1425
122,16461,0.45383999999999997,0.009272001,-0.8642481,1.1375,-5.4775,-6.195
123,16559,0.452376,0.010248,-0.862784,1.1375,-5.495,-6.1775
124,16657,0.45335200000000003,0.007808001,-0.8637601,1.085,-5.425,-6.1075
125,16755,0.453108,0.006344,-0.8637601,1.015,-5.6,-6.23
126,16853,0.4514,0.007808001,-0.8657120999999999,0.8925,-5.6175,-6.2825
127,16951,0.4514,0.007320001,-0.864492,0.91,-5.635,-6.2825
128,17049,0.453596,0.008784,-0.862784,0.77,-5.635,-6.3875
129,17147,0.4553041,0.008052001,-0.863028,0.8225,-5.6875,-6.4225
130,17245,0.45628,0.008052001,-0.863516,0.8575,-5.67,-6.475
131,17343,0.45579200000000003,0.005612,-0.865956,0.8575,-5.635,-6.4575
132,17441,0.45261999999999997,0.009028000999999999,-0.8652241,0.8400001,-5.6875,-6.51
133,17539,0.45383999999999997,0.008296000999999999,-0.862784,0.7875,-5.6525,-6.51
134,17637,0.450424,0.010492,-0.8610761,0.7175,-5.705,-6.4575
135,17735,0.45383999999999997,0.00976,-0.863028,0.665,-5.6175,-6.5625
136,17833,0.45286400000000004,0.008296000999999999,-0.864492,0.6825,-5.6525,-6.545
137,17931,0.453108,0.010004,-0.863516,0.6475,-5.705,-6.4925
138,18029,0.45261999999999997,0.009516001,-0.863028,0.6825,-5.7225,-6.5275
139,18128,0.452376,0.009028000999999999,-0.861808,0.665,-5.7225,-6.51
140,18226,0.454816,0.007564001,-0.8632719999999999,0.7175,-5.705,-6.475
141,18324,0.45506,0.008540001,-0.8642481,0.735,-5.6,-6.475
142,18422,0.45164399999999993,0.010004,-0.863516,0.735,-5.7575,-6.44
143,18520,0.45261999999999997,0.010248,-0.8647360000000001,0.6825,-5.7225,-6.51
144,18618,0.45457200000000003,0.009272001,-0.8642481,0.77,-5.7575,-6.475
145,18716,0.45383999999999997,0.01098,-0.8647360000000001,0.805,-5.6875,-6.51
146,18814,0.45335200000000003,0.010492,-0.8625401,0.7525,-5.67,-6.4575
147,18912,0.454084,0.007808001,-0.8642481,0.7,-5.6525,-6.4575
148,19010,0.45506,0.0061,-0.861808,0.805,-5.635,-6.5625
149,19108,0.45457200000000003,0.006587999999999999,-0.865468,0.735,-5.4775,-6.545
150,19206,0.454084,0.011712,-0.86498,0.7525,-5.495,-6.5625
151,19304,0.45335200000000003,0.009272001,-0.8620521000000001,0.8225,-5.5475,-6.5275
152,19402,0.45554799999999995,0.008784,-0.862296,0.77,-5.5125,-6.4925
153,19500,0.45432799999999995,0.009516001,-0.862296,0.7875,-5.565,-6.4575
154,19598,0.4553041,0.010248,-0.8647360000000001,0.805,-5.565,-6.475
155,19696,0.45383999999999997,0.010248,-0.862784,0.7525,-5.565,-6.4225
156,19794,0.453596,0.008784,-0.8640040000000001,0.735,-5.5825,-6.4575
157,19892,0.45579200000000003,0.009516001,-0.8640040000000001,0.7175,-5.565,-6.44
158,19990,0.45725600000000005,0.009516001,-0.8642481,0.9275,-5.53,-6.3875
159,20088,0.45383999999999997,0.008540001,-0.8615640999999999,0.9625,-5.495,-6.2825
160,20186,0.4553041,0.007320001,-0.8640040000000001,0.945,-5.5475,-6.2475
161,20284,0.45628,0.008296000999999999,-0.8647360000000001,1.05,-5.53,-6.195
162,20382,0.45457200000000003,0.007564001,-0.8637601,1.0325,-5.46,-6.1775
163,20480,0.4553041,0.006587999999999999,-0.8608319999999999,1.015,-5.495,-6.3175
164,20579,0.452132,0.008784,-0.8625401,0.8575,-5.6,-6.3875
165,20677,0.456524,0.005856,-0.8620521000000001,0.805,-5.6175,-6.4575
166,20775,0.45457200000000003,0.007320001,-0.8625401,0.8225,-5.67,-6.545
167,20873,0.453108,0.009516001,-0.8632719999999999,0.735,-5.6175,-6.545
168,20971,0.45554799999999995,0.006587999999999999,-0.862784,0.7175,-5.74,-6.51
169,21069,0.456524,0.005856,-0.862784,0.77,-5.7225,-6.475
170,21167,0.45628,0.007076001,-0.861808,0.77,-5.67,-6.4925
171,21265,0.452132,0.008296000999999999,-0.8608319999999999,0.77,-5.53,-6.5275
172,21363,0.456768,0.008052001,-0.863028,0.805,-5.6525,-6.4925
173,21461,0.45579200000000003,0.009028000999999999,-0.865468,0.7875,-5.7225,-6.5275
174,21559,0.454816,0.008784,-0.8647360000000001,0.77,-5.635,-6.475
175,21657,0.456524,0.009516001,-0.8647360000000001,0.77,-5.67,-6.51
176,21755,0.45286400000000004,0.008540001,-0.861808,0.77,-5.7575,-6.44
177,21853,0.45554799999999995,0.008052001,-0.865956,0.8575,-5.6875,-6.4925
178,21951,0.4553041,0.007564001,-0.8640040000000001,0.8225,-5.67,-6.545
179,22049,0.45457200000000003,0.007808001,-0.8610761,0.77,-5.635,-6.51
180,22147,0.456768,0.007564001,-0.8642481,0.7525,-5.67,-6.4575
181,22245,0.45579200000000003,0.0051240009999999996,-0.863028,0.805,-5.7225,-6.475
182,22343,0.453596,0.009272001,-0.863028,0.6825,-5.775,-6.5975
183,22441,0.453596,0.007564001,-0.8625401,0.6825,-5.6875,-6.5625
184,22539,0.4553041,0.007808001,-0.86498,0.7875,-5.7225,-6.6675
185,22637,0.457744,0.009272001,-0.8625401,0.525,-5.7575,-6.6325
186,22735,0.45383999999999997,0.010004,-0.8637601,0.5775,-5.6875,-6.615
187,22833,0.45286400000000004,0.007808001,-0.860344,0.7,-5.67,-6.5625
188,22931,0.45506,0.007808001,-0.863516,0.7,-5.705,-6.615
189,23029,0.45457200000000003,0.006587999999999999,-0.8637601,0.735,-5.5475,-6.58
190,23127,0.45261999999999997,0.011224,-0.863516,0.7525,-5.7225,-6.51
191,23226,0.453108,0.008052001,-0.8620521000000001,0.7525,-5.7925,-6.5625
192,23324,0.45383999999999997,0.009028000999999999,-0.8637601,0.7175,-5.6875,-6.5275
193,23422,0.45457200000000003,0.009516001,-0.8620521000000001,0.77,-5.705,-6.4925
194,23520,0.454816,0.0051240009999999996,-0.8610761,0.8225,-5.6875,-6.3875
195,23618,0.45603599999999994,0.008784,-0.8647360000000001,0.77,-5.6875,-6.5275
196,23716,0.456768,0.008296000999999999,-0.8647360000000001,0.7875,-5.67,-6.44
197,23814,0.45506,0.007076001,-0.8632719999999999,0.77,-5.74,-6.37
198,23912,0.45286400000000004,0.007320001,-0.8601,0.77,-5.6175,-6.51
199,24010,0.45261999999999997,0.007320001,-0.8596120999999999,0.805,-5.6175,-6.5275
200,24108,0.45628,0.006344,-0.8625401,0.8225,-5.6,-6.5275
201,24206,0.45506,0.008540001,-0.8640040000000001,0.8225,-5.7925,-6.545
202,24304,0.45579200000000003,0.008296000999999999,-0.8625401,0.7875,-5.7925,-6.545
203,24402,0.454816,0.010004,-0.8632719999999999,0.805,-5.67,-6.4925
204,24500,0.452376,0.009028000999999999,-0.8615640999999999,0.7525,-5.705,-6.51
205,24598,0.4553041,0.007320001,-0.8637601,0.8225,-5.5475,-6.51
206,24696,0.452376,0.008784,-0.8615640999999999,0.8225,-5.635,-6.4575
207,24794,0.45628,0.007320001,-0.8632719999999999,0.8575,-5.6875,-6.545
208,24892,0.45457200000000003,0.006832001,-0.8610761,0.7875,-5.7225,-6.51
209,24990,0.452376,0.007808001,-0.8640040000000001,0.77,-5.74,-6.545
210,25088,0.453596,0.009516001,-0.863516,0.805,-5.7225,-6.5625
211,25186,0.45457200000000003,0.00976,-0.862784,0.7175,-5.7575,-6.51
212,25284,0.454084,0.007076001,-0.864492,0.665,-5.7925,-6.5975
213,25382,0.4553041,0.00488,-0.8613200000000001,0.6475,-5.81,-6.6675
214,25480,0.453596,0.007320001,-0.864492,0.595,-5.8625,-6.7375
215,25578,0.45579200000000003,0.008784,-0.8615640999999999,0.7,-5.88,-6.7725
216,25676,0.454816,0.008296000999999999,-0.862784,0.6125,-5.845,-6.685
217,25775,0.45383999999999997,0.00976,-0.8640040000000001,0.56,-5.8275,-6.755
218,25873,0.45286400000000004,0.008784,-0.8642481,0.6125,-5.81,-6.7725
219,25971,0.453596,0.007564001,-0.8642481,0.6475,-5.915,-6.685
220,26069,0.453596,0.007808001,-0.8605879999999999,0.63,-5.81,-6.79
221,26167,0.45603599999999994,0.007808001,-0.863028,0.5425,-5.775,-6.755
222,26265,0.45457200000000003,0.005612,-0.8620521000000001,0.63,-5.705,-6.6675
223,26363,0.453108,0.010248,-0.863028,0.735,-5.7225,-6.72
224,26461,0.457012,0.008784,-0.86498,0.595,-5.775,-6.8075
225,26559,0.454816,0.01098,-0.8632719999999999,0.5075,-5.7925,-6.7725
226,26657,0.456524,0.006832001,-0.8632719999999999,0.6125,-5.915,-6.825
227,26755,0.4553041,0.008540001,-0.8642481,0.7,-6.0025,-6.7725
228,26853,0.457012,0.008540001,-0.863028,0.6125,-5.8275,-6.72
229,26951,0.45457200000000003,0.010248,-0.8640040000000001,0.595,-5.7925,-6.72
230,27049,0.454816,0.009028000999999999,-0.8647360000000001,0.665,-5.81,-6.7375
231,27147,0.453596,0.012444,-0.8652241,0.63,-5.7225,-6.7375
232,27245,0.454816,0.009516001,-0.863516,0.6825,-5.705,-6.6325
233,27343,0.45457200000000003,0.008052001,-0.8642481,0.8225,-5.74,-6.5975
234,27441,0.454084,0.007808001,-0.8642481,0.7875,-5.67,-6.475
235,27539,0.453596,0.006587999999999999,-0.8632719999999999,0.7875,-5.705,-6.4575
236,27637,0.45506,0.011712,-0.863516,0.805,-5.705,-6.475
237,27735,0.45383999999999997,0.010492,-0.8632719999999999,0.805,-5.635,-6.3875
238,27833,0.453596,0.010004,-0.8632719999999999,0.8400001,-5.6525,-6.44
239,27931,0.45383999999999997,0.008296000999999999,-0.8620521000000001,0.805,-5.6525,-6.475
240,28029,0.45603599999999994,0.006587999999999999,-0.863516,0.8400001,-5.635,-6.5625
241,28127,0.45261999999999997,0.010492,-0.8640040000000001,0.77,-5.7575,-6.545
242,28225,0.45286400000000004,0.009028000999999999,-0.8613200000000001,0.7,-5.74,-6.475
243,28323,0.45432799999999995,0.007320001,-0.8625401,0.7,-5.74,-6.4575
244,28421,0.45579200000000003,0.008540001,-0.8640040000000001,0.665,-5.6875,-6.58
245,28519,0.452376,0.011712,-0.8642481,0.735,-5.635,-6.4575
246,28617,0.451888,0.010492,-0.8632719999999999,0.8575,-5.635,-6.475
247,28715,0.45383999999999997,0.008296000999999999,-0.8625401,0.805,-5.705,-6.4925
248,28813,0.453108,0.009028000999999999,-0.8601,0.7875,-5.7225,-6.51
249,28911,0.45457200000000003,0.010004,-0.8652241,0.63,-5.74,-6.5625
250,29010,0.452376,0.012444,-0.8625401,0.7525,-5.7925,-6.475
251,29108,0.45554799999999995,0.009028000999999999,-0.862784,0.805,-5.7925,-6.5625
252,29206,0.4514,0.010492,-0.8632719999999999,0.805,-5.705,-6.5625
253,29304,0.453596,0.007808001,-0.8610761,0.7875,-5.775,-6.51
254,29402,0.45579200000000003,0.008784,-0.863516,0.8225,-5.705,-6.475
255,29500,0.453108,0.009516001,-0.8640040000000001,0.8925,-5.7225,-6.5625
256,29598,0.45579200000000003,0.005368,-0.861808,0.77,-5.6875,-6.5975
257,29696,0.45432799999999995,0.008296000999999999,-0.8647360000000001,0.6825,-5.6875,-6.545
258,29794,0.452132,0.010492,-0.8642481,0.665,-5.635,-6.58
259,29892,0.454084,0.008784,-0.862296,0.7525,-5.495,-6.5625
260,29990,0.453596,0.00976,-0.8620521000000001,0.8225,-5.46,-6.545
261,30088,0.45506,0.008052001,-0.862296,0.735,-5.4775,-6.615
262,30186,0.452376,0.010248,-0.862296,0.665,-5.4775,-6.51
263,30284,0.45432799999999995,0.007076001,-0.860344,0.7875,-5.5825,-6.5275
264,30382,0.45457200000000003,0.008540001,-0.863028,0.8400001,-5.705,-6.51
265,30480,0.452132,0.009272001,-0.860344,0.6475,-5.6525,-6.475
266,30578,0.45603599999999994,0.008052001,-0.863516,0.6825,-5.74,-6.51
267,30676,0.45554799999999995,0.009028000999999999,-0.8640040000000001,0.7175,-5.6175,-6.58
268,30774,0.45286400000000004,0.00976,-0.8608319999999999,0.8575,-5.6525,-6.545
269,30872,0.454816,0.008540001,-0.8642481,0.8925,-5.7575,-6.475
270,30971,0.454816,0.00976,-0.865468,0.8925,-5.6,-6.4575
271,31069,0.45554799999999995,0.009272001,-0.8620521000000001,0.8925,-5.6175,-6.545
272,31167,0.454816,0.007076001,-0.8640040000000001,0.9275,-5.5825,-6.5275
273,31265,0.4553041,0.008052001,-0.8620521000000001,0.805,-5.705,-6.5975
274,31363,0.4553041,0.007808001,-0.863028,0.735,-5.7925,-6.475
275,31461,0.454084,0.010004,-0.8637601,0.805,-5.67,-6.545
276,31559,0.4575,0.007808001,-0.8632719999999999,0.8400001,-5.7225,-6.5625
277,31657,0.45457200000000003,0.008296000999999999,-0.8615640999999999,0.805,-5.635,-6.58
278,31755,0.45432799999999995,0.011224,-0.863028,0.7875,-5.74,-6.51
279,31853,0.454816,0.009028000999999999,-0.8625401,0.7525,-5.81,-6.44
280,31951,0.45554799999999995,0.007320001,-0.8632719999999999,0.8400001,-5.74,-6.545
281,32049,0.453596,0.007808001,-0.8608319999999999,0.8400001,-5.5825,-6.475
282,32147,0.45383999999999997,0.008296000999999999,-0.8625401,0.8575,-5.6,-6.475
283,32245,0.4553041,0.009516001,-0.863028,0.8575,-5.635,-6.5625
284,32343,0.452132,0.010248,-0.8637601,0.8225,-5.6175,-6.545
285,32441,0.45506,0.009272001,-0.863516,0.8400001,-5.6525,-6.5625
286,32539,0.45603599999999994,0.007564001,-0.862784,0.805,-5.6175,-6.4925
287,32637,0.45603599999999994,0.008052001,-0.863516,0.7875,-5.5825,-6.44
288,32735,0.45603599999999994,0.007808001,-0.862784,0.77,-5.5475,-6.545
289,32833,0.4553041,0.010248,-0.8647360000000001,0.7875,-5.635,-6.4925
290,32931,0.454084,0.008784,-0.8620521000000001,0.9275,-5.6175,-6.4925
291,33029,0.45432799999999995,0.008052001,-0.8620521000000001,0.8575,-5.635,-6.475
292,33127,0.456524,0.007076001,-0.863516,0.8225,-5.705,-6.545
293,33225,0.45579200000000003,0.009516001,-0.862296,0.7525,-5.6875,-6.615
294,33324,0.45725600000000005,0.007564001,-0.8632719999999999,0.735,-5.775,-6.51
295,33422,0.45506,0.008540001,-0.8632719999999999,0.7875,-5.845,-6.4575
296,33520,0.4575,0.007808001,-0.863516,0.805,-5.74,-6.405
297,33618,0.453596,0.010004,-0.8647360000000001,0.8225,-5.6875,-6.4925
298,33716,0.453596,0.00976,-0.8625401,0.8225,-5.705,-6.4925
299,33814,0.45603599999999994,0.007564001,-0.863028,0.8225,-5.6,-6.51
300,33912,0.453596,0.007320001,-0.864492,0.875,-5.5825,-6.545
301,34010,0.454084,0.008540001,-0.8632719999999999,0.7875,-5.495,-6.4575
302,34108,0.456524,0.007564001,-0.8625401,0.8400001,-5.565,-6.4925
303,34206,0.45579200000000003,0.008296000999999999,-0.8632719999999999,0.9275,-5.4425,-6.4225
304,34304,0.456768,0.008052001,-0.8637601,0.8225,-5.4775,-6.405
305,34402,0.45603599999999994,0.007076001,-0.862784,0.8925,-5.5825,-6.335
306,34500,0.454084,0.009028000999999999,-0.8613200000000001,0.8400001,-5.6175,-6.4225
307,34598,0.45628,0.00976,-0.864492,0.8400001,-5.635,-6.405
308,34696,0.4553041,0.008540001,-0.864492,0.9275,-5.6525,-6.4925
309,34794,0.453596,0.00976,-0.861808,0.875,-5.635,-6.475
310,34892,0.45383999999999997,0.009028000999999999,-0.8642481,0.8925,-5.6525,-6.3525
311,34990,0.45579200000000003,0.007564001,-0.8632719999999999,0.8400001,-5.6525,-6.475
312,35088,0.45554799999999995,0.007320001,-0.8608319999999999,0.8575,-5.5825,-6.405
313,35186,0.45506,0.007808001,-0.8625401,0.8925,-5.4775,-6.3875
314,35284,0.456524,0.007076001,-0.862296,0.945,-5.46,-6.475
315,35382,0.45628,0.008296000999999999,-0.8610761,0.98,-5.46,-6.475
316,35481,0.45506,0.007320001,-0.8647360000000001,0.9625,-5.495,-6.5625
317,35579,0.45457200000000003,0.010004,-0.8608319999999999,0.91,-5.4775,-6.475
318,35677,0.45506,0.006832001,-0.8613200000000001,0.8225,-5.5475,-6.3875
319,35775,0.45506,0.007564001,-0.8625401,0.875,-5.495,-6.4575
320,35873,0.45506,0.008784,-0.862296,0.9275,-5.53,-6.3525
321,35971,0.456768,0.008784,-0.861808,0.875,-5.67,-6.58
322,36069,0.45603599999999994,0.008296000999999999,-0.8605879999999999,0.77,-5.6875,-6.58
323,36167,0.453596,0.010004,-0.862296,0.6475,-5.7925,-6.5625
324,36265,0.454816,0.007320001,-0.863516,0.7,-5.7225,-6.6325
325,36363,0.45603599999999994,0.008052001,-0.863516,0.7875,-5.7225,-6.615
326,36461,0.453108,0.011224,-0.8637601,0.8225,-5.6875,-6.615
327,36559,0.457012,0.007320001,-0.863028,0.7525,-5.775,-6.6675
328,36657,0.45457200000000003,0.007564001,-0.862296,0.735,-5.7925,-6.5975
329,36755,0.456768,0.007808001,-0.863028,0.7175,-5.705,-6.51
330,36853,0.45579200000000003,0.008540001,-0.8608319999999999,0.665,-5.74,-6.5275
331,36951,0.454816,0.009028000999999999,-0.863516,0.6125,-5.88,-6.5275
332,37049,0.456524,0.008784,-0.8642481,0.6475,-5.705,-6.545
333,37147,0.454816,0.008784,-0.862784,0.7,-5.6525,-6.5275
334,37245,0.456524,0.005368,-0.8632719999999999,0.805,-5.5125,-6.475
335,37343,0.457012,0.0061,-0.861808,0.7525,-5.5125,-6.5275
336,37441,0.4553041,0.00488,-0.8620521000000001,0.665,-5.5475,-6.5275
337,37539,0.456524,0.009272001,-0.8632719999999999,0.7525,-5.6525,-6.5975
338,37638,0.4575,0.007320001,-0.862296,0.805,-5.5125,-6.5625
339,37736,0.4553041,0.007076001,-0.8625401,0.875,-5.46,-6.5625
340,37834,0.45603599999999994,0.007076001,-0.862296,0.8575,-5.4775,-6.5975
341,37932,0.45579200000000003,0.006587999999999999,-0.8605879999999999,0.8575,-5.6,-6.58
342,38030,0.45628,0.007320001,-0.863516,0.7525,-5.67,-6.4925
343,38128,0.453108,0.008052001,-0.861808,0.7175,-5.6875,-6.5975
344,38226,0.45506,0.006344,-0.8625401,0.7175,-5.7225,-6.58
345,38324,0.454084,0.011956,-0.864492,0.7875,-5.775,-6.51
346,38422,0.454084,0.009516001,-0.8625401,0.8225,-5.7225,-6.4925
347,38520,0.45603599999999994,0.009028000999999999,-0.8625401,0.7875,-5.67,-6.4925
348,38618,0.458232,0.007564001,-0.8610761,0.805,-5.6525,-6.4925
349,38716,0.45579200000000003,0.010248,-0.8647360000000001,0.6825,-5.81,-6.58
350,38814,0.45432799999999995,0.010736,-0.863516,0.7875,-5.705,-6.51
351,38912,0.454816,0.009272001,-0.863028,0.9275,-5.5825,-6.51
352,39010,0.45871999999999996,0.006832001,-0.8625401,0.945,-5.46,-6.4925
353,39108,0.45432799999999995,0.007564001,-0.8637601,0.91,-5.565,-6.37
354,39206,0.45432799999999995,0.007564001,-0.8637601,0.9275,-5.6175,-6.44
355,39304,0.456768,0.006344,-0.8613200000000001,0.9275,-5.565,-6.4575
356,39402,0.45603599999999994,0.008296000999999999,-0.863516,0.9275,-5.53,-6.475
357,39500,0.45628,0.007564001,-0.8608319999999999,0.9625,-5.5825,-6.4575
358,39598,0.456768,0.008052001,-0.863516,0.8400001,-5.5475,-6.4925
359,39697,0.45603599999999994,0.0051240009999999996,-0.861808,0.8575,-5.6175,-6.51
360,39795,0.45579200000000003,0.009272001,-0.863028,0.7525,-5.8625,-6.51
361,39893,0.45506,0.010492,-0.8632719999999999,0.7525,-5.81,-6.545
362,39991,0.45457200000000003,0.008784,-0.864492,0.77,-5.705,-6.405
363,40089,0.45506,0.008540001,-0.862296,0.77,-5.635,-6.44
364,40187,0.45579200000000003,0.006832001,-0.8608319999999999,0.7525,-5.635,-6.405
365,40285,0.4553041,0.006832001,-0.862784,0.875,-5.5475,-6.4225
366,40383,0.4553041,0.005856,-0.862296,0.8925,-5.5825,-6.44
367,40481,0.45725600000000005,0.006587999999999999,-0.862296,0.8225,-5.5475,-6.5275
368,40579,0.4553041,0.005612,-0.8620521000000001,0.77,-5.565,-6.475
369,40677,0.45506,0.007808001,-0.8613200000000001,0.7175,-5.6175,-6.4225
370,40775,0.45628,0.007076001,-0.8615640999999999,0.7,-5.74,-6.5275
371,40873,0.45506,0.006344,-0.862784,0.7525,-5.6525,-6.5275
372,40971,0.454816,0.007320001,-0.863516,0.7,-5.6875,-6.5625
373,41069,0.45506,0.006832001,-0.863516,0.6825,-5.6525,-6.475
374,41167,0.454816,0.007808001,-0.8637601,0.7525,-5.7575,-6.4575
375,41265,0.454084,0.007076001,-0.863516,0.735,-5.7575,-6.44
376,41363,0.45603599999999994,0.007564001,-0.863028,0.77,-5.775,-6.475
377,41461,0.456524,0.005856,-0.859856,0.77,-5.74,-6.44
378,41559,0.456768,0.008296000999999999,-0.8605879999999999,0.7525,-5.705,-6.4575
379,41657,0.457988,0.007076001,-0.8605879999999999,0.805,-5.7575,-6.4575
380,41756,0.456524,0.010248,-0.8615640999999999,0.7175,-5.6525,-6.5625
381,41854,0.45603599999999994,0.008052001,-0.8620521000000001,0.77,-5.6175,-6.545
382,41952,0.45628,0.008052001,-0.863516,0.8225,-5.67,-6.5975
383,42050,0.45603599999999994,0.007808001,-0.8625401,0.8400001,-5.6175,-6.58
384,42148,0.45554799999999995,0.006832001,-0.8615640999999999,0.875,-5.67,-6.51
385,42246,0.45457200000000003,0.0051240009999999996,-0.862784,0.8575,-5.7225,-6.4225
386,42344,0.457012,0.007564001,-0.8615640999999999,0.8575,-5.7575,-6.475
387,42442,0.4553041,0.006344,-0.862296,0.7875,-5.7925,-6.4225
388,42540,0.457012,0.007564001,-0.8608319999999999,0.7875,-5.74,-6.51
389,42638,0.45554799999999995,0.008540001,-0.8637601,0.7175,-5.7225,-6.44
390,42736,0.45432799999999995,0.006832001,-0.8637601,0.7,-5.74,-6.4575
391,42834,0.45628,0.007564001,-0.8637601,0.77,-5.635,-6.475
392,42932,0.4575,0.007076001,-0.862784,0.7875,-5.6525,-6.475
393,43030,0.45579200000000003,0.009028000999999999,-0.8632719999999999,0.7875,-5.635,-6.5625
394,43128,0.456768,0.006344,-0.861808,0.805,-5.635,-6.4225
395,43226,0.45603599999999994,0.006587999999999999,-0.8615640999999999,0.8225,-5.4775,-6.37
396,43324,0.456524,0.008540001,-0.8620521000000001,0.8575,-5.635,-6.405
397,43422,0.45506,0.008052001,-0.863028,0.8225,-5.705,-6.4225
398,43520,0.45554799999999995,0.010004,-0.8652241,0.8925,-5.6175,-6.44
399,43618,0.45383999999999997,0.007076001,-0.8620521000000001,0.98,-5.39,-6.4225
400,43716,0.4553041,0.010492,-0.8615640999999999,1.155,-5.1975,-6.4925
401,43814,0.45286400000000004,0.008540001,-0.8605879999999999,1.19,-5.11,-6.4925
402,43913,0.453596,0.008540001,-0.8610761,1.1025,-5.145,-6.335
403,44011,0.4553041,0.007808001,-0.8605879999999999,1.0325,-5.18,-6.3
404,44109,0.45335200000000003,0.00488,-0.8613200000000001,0.9625,-5.3725,-6.4225
405,44207,0.45554799999999995,0.005612,-0.860344,0.8400001,-5.3375,-6.44
406,44305,0.45432799999999995,0.005856,-0.8605879999999999,0.7525,-5.46,-6.5625
407,44403,0.457744,0.007320001,-0.8608319999999999,0.7875,-5.53,-6.51
408,44501,0.45603599999999994,0.006587999999999999,-0.859856,0.665,-5.6175,-6.475
409,44599,0.45579200000000003,0.008784,-0.8613200000000001,0.63,-5.6525,-6.4925
410,44697,0.45506,0.007808001,-0.862784,0.6825,-5.67,-6.4225
411,44795,0.456524,0.007076001,-0.8615640999999999,0.7,-5.7925,-6.5275
412,44893,0.458232,0.006344,-0.8605879999999999,0.63,-5.635,-6.4575
413,44991,0.45579200000000003,0.007076001,-0.8608319999999999,0.56,-5.81,-6.475
414,45089,0.454816,0.008052001,-0.859368,0.5075,-5.775,-6.5625
415,45187,0.454816,0.006587999999999999,-0.8610761,0.5075,-5.88,-6.475
416,45285,0.45506,0.008296000999999999,-0.8605879999999999,0.49,-5.8975,-6.5625
417,45383,0.4553041,0.005856,-0.861808,0.6125,-5.8975,-6.545
418,45481,0.45628,0.008052001,-0.860344,0.595,-5.8625,-6.545
419,45579,0.457012,0.007076001,-0.863516,0.595,-5.775,-6.4575
420,45677,0.45628,0.008784,-0.8615640999999999,0.595,-5.8625,-6.4925
421,45775,0.45457200000000003,0.007808001,-0.862784,0.735,-5.8275,-6.4925
422,45874,0.45554799999999995,0.007808001,-0.8632719999999999,0.7525,-5.6875,-6.5275
423,45972,0.4575,0.007564001,-0.8610761,0.7525,-5.6875,-6.58
424,46070,0.45579200000000003,0.008540001,-0.8596120999999999,0.77,-5.74,-6.51
425,46168,0.45725600000000005,0.007076001,-0.8613200000000001,0.805,-5.7575,-6.4575
426,46266,0.456524,0.0061,-0.8608319999999999,0.8400001,-5.74,-6.475
427,46364,0.4575,0.007320001,-0.8615640999999999,0.77,-5.775,-6.44
428,46462,0.45603599999999994,0.008784,-0.8620521000000001,0.8575,-5.7925,-6.4575
429,46560,0.457012,0.007320001,-0.8620521000000001,0.7875,-5.775,-6.4925
430,46658,0.45579200000000003,0.007320001,-0.8608319999999999,0.8400001,-5.705,-6.4925
431,46756,0.454084,0.006832001,-0.8647360000000001,0.875,-5.6,-6.4225
432,46854,0.4553041,0.007564001,-0.8625401,0.91,-5.6525,-6.335
433,46952,0.457988,0.008052001,-0.8613200000000001,0.945,-5.6,-6.3875
434,47050,0.456768,0.005856,-0.862784,1.015,-5.5125,-6.4225
435,47148,0.45628,0.005856,-0.8613200000000001,0.9625,-5.53,-6.3175
436,47246,0.4575,0.0061,-0.859368,0.8925,-5.6525,-6.3175
437,47344,0.454816,0.007320001,-0.8601,0.875,-5.635,-6.3175
438,47442,0.456768,0.007076001,-0.8620521000000001,0.7875,-5.6,-6.405
439,47540,0.457012,0.006344,-0.8596120999999999,0.8575,-5.6,-6.37
440,47638,0.454084,0.008052001,-0.8625401,0.8925,-5.7225,-6.51
441,47736,0.457988,0.007564001,-0.8615640999999999,0.8575,-5.6875,-6.4575
442,47834,0.457012,0.007076001,-0.860344,0.7875,-5.7225,-6.405
443,47933,0.45432799999999995,0.004392,-0.8608319999999999,0.7525,-5.74,-6.405
444,48031,0.45506,0.006344,-0.861808,0.7525,-5.6875,-6.4575
445,48129,0.45432799999999995,0.0061,-0.8637601,0.7875,-5.775,-6.475
446,48227,0.457012,0.006344,-0.85888,0.7175,-5.6525,-6.5975
447,48325,0.45628,0.007808001,-0.8632719999999999,0.665,-5.74,-6.4925
448,48423,0.45725600000000005,0.008052001,-0.861808,0.6825,-5.7575,-6.5275
449,48521,0.45628,0.007320001,-0.8601,0.665,-5.74,-6.5275
450,48619,0.45383999999999997,0.0061,-0.8637601,0.735,-5.8625,-6.5275
451,48717,0.454084,0.007076001,-0.859856,0.7175,-5.81,-6.6325
452,48815,0.457988,0.008540001,-0.8610761,0.63,-5.8625,-6.615
453,48913,0.458476,0.0061,-0.8601,0.6125,-5.8275,-6.51
454,49011,0.45506,0.006832001,-0.8601,0.56,-5.9325,-6.6325
455,49109,0.45432799999999995,0.009272001,-0.8625401,0.525,-5.81,-6.545
456,49207,0.456768,0.009516001,-0.8632719999999999,0.595,-5.845,-6.6325
457,49305,0.45628,0.006832001,-0.862784,0.63,-5.7925,-6.6325
458,49403,0.4553041,0.008052001,-0.8632719999999999,0.63,-5.7925,-6.6675
459,49501,0.4553041,0.005368,-0.8625401,0.63,-5.8275,-6.7025
460,49599,0.453596,0.008540001,-0.862784,0.7,-5.8625,-6.5975
461,49697,0.45261999999999997,0.007320001,-0.8605879999999999,0.63,-5.845,-6.72
462,49796,0.45457200000000003,0.006832001,-0.8632719999999999,0.6125,-5.8625,-6.755
463,49894,0.45603599999999994,0.007808001,-0.8647360000000001,0.595,-5.8975,-6.72
464,49992,0.4575,0.007808001,-0.8613200000000001,0.525,-5.8625,-6.755
465,50090,0.45871999999999996,0.00976,-0.863516,0.5775,-5.9675,-6.755
466,50188,0.45603599999999994,0.008540001,-0.8642481,0.56,-5.9325,-6.6325
467,50286,0.4575,0.008052001,-0.8591241,0.56,-5.8975,-6.5625
468,50384,0.45554799999999995,0.006832001,-0.8632719999999999,0.63,-5.8625,-6.545
469,50482,0.45506,0.006832001,-0.862296,0.6475,-5.81,-6.6325
470,50580,0.45628,0.006344,-0.861808,0.6125,-5.915,-6.825
471,50678,0.456524,0.009028000999999999,-0.862296,0.525,-5.915,-6.8075
472,50776,0.457012,0.00976,-0.862784,0.56,-5.8625,-6.8075
473,50874,0.45506,0.009028000999999999,-0.865468,0.595,-5.8275,-6.7375
474,50972,0.4553041,0.008296000999999999,-0.8632719999999999,0.7525,-5.74,-6.685
475,51070,0.453596,0.008296000999999999,-0.8615640999999999,0.7175,-5.7225,-6.58
476,51168,0.453596,0.007808001,-0.8608319999999999,0.735,-5.81,-6.65
477,51266,0.45579200000000003,0.0061,-0.8591241,0.8225,-5.7925,-6.4925
478,51364,0.456524,0.005368,-0.8625401,0.665,-5.8275,-6.65
479,51462,0.45579200000000003,0.007320001,-0.863028,0.595,-5.8625,-6.7025
480,51560,0.45432799999999995,0.008296000999999999,-0.862784,0.5775,-5.8625,-6.7025
481,51658,0.45628,0.0061,-0.862784,0.6125,-5.775,-6.79
482,51757,0.45261999999999997,0.00976,-0.8625401,0.63,-5.845,-6.7025
483,51855,0.453596,0.010004,-0.8642481,0.7175,-5.915,-6.72
484,51953,0.45579200000000003,0.0061,-0.861808,0.665,-5.845,-6.7375
485,52051,0.45432799999999995,0.006344,-0.863028,0.6475,-5.88,-6.825
486,52149,0.45554799999999995,0.007808001,-0.862784,0.6125,-5.81,-6.7725
487,52247,0.4553041,0.008540001,-0.8620521000000001,0.56,-5.775,-6.65
488,52345,0.45554799999999995,0.008540001,-0.862296,0.63,-5.705,-6.685
489,52443,0.4575,0.0061,-0.8613200000000001,0.6825,-5.7925,-6.685
490,52541,0.456768,0.007564001,-0.8613200000000001,0.7,-5.8275,-6.65
491,52639,0.45628,0.007564001,-0.8625401,0.5775,-5.74,-6.5975
492,52737,0.453596,0.008784,-0.8615640999999999,0.6125,-5.7925,-6.5625
493,52835,0.45335200000000003,0.010248,-0.863516,0.665,-5.7575,-6.5975
494,52933,0.458232,0.008052001,-0.862784,0.6475,-5.67,-6.58
495,53031,0.45603599999999994,0.008540001,-0.863028,0.595,-5.7575,-6.545
496,53129,0.45286400000000004,0.010004,-0.8632719999999999,0.6475,-5.67,-6.5275
497,53227,0.457988,0.007076001,-0.863028,0.665,-5.6525,-6.65
498,53325,0.454816,0.009028000999999999,-0.8640040000000001,0.7175,-5.6875,-6.51
499,53423,0.456768,0.007076001,-0.862784,0.7875,-5.6525,-6.615
500,53521,0.45286400000000004,0.009272001,-0.8605879999999999,0.8400001,-5.67,-6.5275
501,53619,0.45457200000000003,0.008540001,-0.8642481,0.805,-5.6525,-6.51
502,53717,0.45457200000000003,0.006832001,-0.8640040000000001,0.8575,-5.5475,-6.37
503,53815,0.451888,0.009516001,-0.8613200000000001,0.8400001,-5.565,-6.475
504,53913,0.45457200000000003,0.007808001,-0.863516,0.77,-5.5825,-6.5625
505,54011,0.454816,0.009028000999999999,-0.8642481,0.6825,-5.74,-6.6675
506,54109,0.453596,0.008784,-0.8608319999999999,0.77,-5.7225,-6.5975
507,54207,0.453108,0.011468,-0.862784,0.7875,-5.67,-6.65
508,54305,0.45335200000000003,0.011468,-0.8652241,0.8575,-5.53,-6.4575
509,54403,0.45383999999999997,0.009272001,-0.8620521000000001,0.875,-5.5825,-6.405
510,54502,0.456524,0.008052001,-0.862296,0.875,-5.5825,-6.3525
511,54600,0.45628,0.008052001,-0.863028,0.8925,-5.5125,-6.405
512,54698,0.45579200000000003,0.007564001,-0.862784,0.9625,-5.5475,-6.4225
513,54796,0.457012,0.005856,-0.8620521000000001,0.91,-5.565,-6.405
514,54894,0.4553041,0.007076001,-0.859368,0.8925,-5.67,-6.4225
515,54992,0.454816,0.00976,-0.8640040000000001,0.7875,-5.6175,-6.51
516,55090,0.45432799999999995,0.008052001,-0.8625401,0.8575,-5.565,-6.4225
517,55188,0.45554799999999995,0.0061,-0.861808,0.875,-5.565,-6.4575
518,55286,0.45579200000000003,0.009028000999999999,-0.8637601,0.8400001,-5.6175,-6.58
519,55384,0.453596,0.008784,-0.8615640999999999,0.805,-5.6525,-6.5275
520,55482,0.45432799999999995,0.008540001,-0.859856,0.8225,-5.6875,-6.37
521,55580,0.45579200000000003,0.007808001,-0.8620521000000001,0.7875,-5.565,-6.4225
522,55678,0.45554799999999995,0.008296000999999999,-0.862784,0.77,-5.4425,-6.4575
523,55776,0.45579200000000003,0.007808001,-0.862296,0.8225,-5.5125,-6.545
524,55874,0.456524,0.007320001,-0.862784,0.7875,-5.53,-6.51
525,55972,0.45554799999999995,0.007564001,-0.8615640999999999,0.665,-5.705,-6.5975
526,56070,0.454084,0.008784,-0.862784,0.7,-5.6875,-6.51
527,56168,0.45579200000000003,0.006344,-0.862296,0.6825,-5.565,-6.545
528,56266,0.45432799999999995,0.008784,-0.864492,0.7525,-5.635,-6.545
529,56364,0.454816,0.008540001,-0.864492,0.735,-5.5825,-6.5625
530,56462,0.454084,0.010004,-0.8632719999999999,0.735,-5.635,-6.4575
531,56560,0.454816,0.008052001,-0.8620521000000001,0.8225,-5.635,-6.3875
532,56658,0.457012,0.008540001,-0.8642481,0.7,-5.5825,-6.4225
533,56756,0.45457200000000003,0.007076001,-0.864492,0.8575,-5.6875,-6.4575
534,56855,0.453108,0.006832001,-0.8608319999999999,0.7875,-5.6525,-6.4925
535,56953,0.45286400000000004,0.009516001,-0.8620521000000001,0.735,-5.635,-6.5275
536,57051,0.456768,0.008296000999999999,-0.8637601,0.7,-5.7575,-6.5975
537,57149,0.45457200000000003,0.009028000999999999,-0.8620521000000001,0.6825,-5.7575,-6.6675
538,57247,0.45603599999999994,0.009272001,-0.86498,0.735,-5.67,-6.58
539,57345,0.457744,0.009028000999999999,-0.8637601,0.7875,-5.635,-6.5275
540,57443,0.45554799999999995,0.008052001,-0.862784,0.735,-5.6,-6.5975
541,57541,0.45554799999999995,0.008784,-0.862784,0.7175,-5.6175,-6.5625
542,57639,0.45603599999999994,0.007564001,-0.862784,0.735,-5.53,-6.4925
543,57737,0.45725600000000005,0.008052001,-0.8637601,0.805,-5.565,-6.44
544,57835,0.457744,0.007808001,-0.863028,0.77,-5.5825,-6.3875
545,57933,0.456524,0.008540001,-0.862784,0.7525,-5.635,-6.475
546,58031,0.45725600000000005,0.008052001,-0.86498,0.77,-5.705,-6.4925
547,58129,0.458232,0.007808001,-0.862296,0.8225,-5.74,-6.4225
548,58227,0.45603599999999994,0.008052001,-0.863028,0.805,-5.7575,-6.3525
549,58325,0.457012,0.008052001,-0.8610761,0.7175,-5.67,-6.3875
550,58423,0.457744,0.006832001,-0.8620521000000001,0.665,-5.845,-6.405
551,58521,0.45506,0.007076001,-0.8613200000000001,0.63,-6.02,-6.5625
552,58619,0.4575,0.008052001,-0.862784,0.665,-6.055,-6.405
553,58717,0.454816,0.009272001,-0.864492,0.63,-5.915,-6.51
554,58815,0.45554799999999995,0.009516001,-0.8657120999999999,0.7175,-5.6875,-6.4575
555,58913,0.454816,0.008296000999999999,-0.8666879999999999,0.805,-5.4075,-6.37
556,59011,0.45432799999999995,0.00976,-0.8632719999999999,0.9275,-5.145,-6.37
557,59109,0.45725600000000005,0.008296000999999999,-0.862296,1.1375,-4.8825,-6.3525
558,59207,0.456768,0.007320001,-0.8615640999999999,1.19,-4.9,-6.3175
559,59305,0.45432799999999995,0.007076001,-0.859368,1.19,-4.865,-6.3525
560,59404,0.45628,0.010492,-0.859368,1.0325,-5.04,-6.51
561,59502,0.45628,0.008540001,-0.862296,1.015,-5.215,-6.3525
562,59600,0.45506,0.006587999999999999,-0.8613200000000001,1.0325,-5.32,-6.475
563,59698,0.456768,0.008052001,-0.8640040000000001,0.8575,-5.3725,-6.335
564,59796,0.45871999999999996,0.008540001,-0.8632719999999999,0.77,-5.495,-6.44
565,59894,0.45506,0.004392,-0.860344,0.8225,-5.32,-6.44
566,59992,0.457012,0.007076001,-0.8608319999999999,0.7,-5.215,-6.475
567,60090,0.45628,0.008296000999999999,-0.862296,0.6825,-5.215,-6.545
568,60188,0.458232,0.006832001,-0.8613200000000001,0.77,-5.215,-6.475
569,60286,0.45896400000000004,0.009028000999999999,-0.8613200000000001,0.735,-5.1625,-6.4225
570,60384,0.45993999999999996,0.002684,-0.8601,0.6475,-4.935,-6.3875
571,60482,0.45457200000000003,0.00122,-0.8625401,0.63,-5.075,-6.475
572,60580,0.4553041,0.00976,-0.8591241,0.21,-5.04,-6.7725
573,60678,0.45871999999999996,0.010004,-0.8625401,0.2975,-5.0225,-6.6675
574,60776,0.457012,0.006587999999999999,-0.8625401,0.595,-4.935,-6.5975
575,60874,0.464088,0.014396,-0.8613200000000001,0.4725,-4.69,-6.4575
576,60972,0.457988,0.006832001,-0.858392,0.7875,-4.3225,-6.23
577,61070,0.45628,0.008784,-0.860344,1.05,-4.2175,-6.1425
578,61168,0.45579200000000003,0.007320001,-0.859368,1.085,-4.2525,-6.2825
579,61266,0.45579200000000003,0.010248,-0.8601,0.945,-4.1825,-6.2125
580,61364,0.458232,0.009028000999999999,-0.8632719999999999,0.98,-4.2,-6.1775
581,61462,0.465308,0.0,-0.8625401,1.085,-3.99,-6.055
582,61561,0.453596,0.002928,-0.869616,1.365,-3.2375,-6.1075
583,61659,0.457988,-0.01098,-0.8720559999999999,1.47,-2.835,-6.1775
584,61757,0.45628,-0.027327999999999998,-0.8679081,1.645,-2.6425,-6.6675
585,61855,0.44847200000000004,-0.008052001,-0.8647360000000001,0.2625,-2.7825,-7.8925
586,61953,0.444812,0.00244,-0.862296,-0.7,-3.185,-8.5925
587,62051,0.45261999999999997,0.0051240009999999996,-0.860344,-1.0325,-3.2375,-8.855
588,62149,0.453108,0.030744,-0.8544879999999999,-1.54,-3.29,-8.82
589,62247,0.45261999999999997,0.038796,-0.8525360000000001,-0.98,-3.465,-8.2425
590,62345,0.465308,0.029036000000000003,-0.844972,0.0,-3.745,-7.4725
591,62443,0.4697,0.022448,-0.8488761,0.91,-4.165,-6.8425
592,62541,0.473116,0.020984,-0.85156,1.3475,-4.5325,-6.4225
593,62639,0.4743361,0.016347999999999998,-0.8525360000000001,1.7325,-4.7075,-6.1775
594,62737,0.468724,0.016836,-0.85034,2.0825,-4.8825,-6.1075
595,62835,0.46164799999999995,0.021716,-0.8601,2.59,-4.795,-5.775
596,62933,0.460672,0.014884,-0.8620521000000001,3.1675,-4.41,-5.495
597,63031,0.45871999999999996,0.00976,-0.8632719999999999,3.29,-3.8675,-5.32
598,63129,0.460672,0.004636001,-0.861808,3.325,-3.465,-5.145
599,63227,0.4553041,-0.000976,-0.8591241,3.3075,-3.325,-5.0925
600,63325,0.45554799999999995,-0.006587999999999999,-0.85888,2.8525,-3.57,-5.2675
601,63423,0.459696,-0.004148001,-0.8569280999999999,2.3275,-3.885,-5.6525
602,63522,0.46433199999999997,0.000488,-0.8510719999999999,1.75,-4.375,-5.9325
603,63620,0.464088,0.0051240009999999996,-0.8486319999999999,1.6275,-5.0575,-6.1425
604,63718,0.465552,0.007076001,-0.8520479999999999,1.435,-5.7925,-6.2475
605,63816,0.46457600000000004,0.005856,-0.8554641,1.19,-6.3,-6.1425
606,63914,0.46506400000000003,0.0061,-0.853756,1.1725,-6.4925,-6.2475
607,64012,0.463844,0.008296000999999999,-0.8571719999999999,1.015,-6.86,-6.09
608,64110,0.46238,0.006832001,-0.8571719999999999,0.98,-6.965,-6.1075
609,64208,0.46164799999999995,0.008052001,-0.8596120999999999,1.1025,-6.9125,-5.985
610,64306,0.462624,0.002928,-0.8615640999999999,1.225,-6.7725,-5.81
611,64404,0.46921199999999996,-0.0017079999999999999,-0.859856,1.1725,-6.37,-5.915
612,64502,0.469944,-0.002928,-0.855708,1.2425,-5.7925,-6.1075
613,64600,0.46335600000000005,0.004148001,-0.8574161,1.015,-5.985,-6.335
614,64698,0.463844,0.01098,-0.8576601,0.9625,-6.0025,-6.5275
615,64796,0.463844,0.01098,-0.8586360000000001,1.26,-6.0025,-6.3525
616,64894,0.461892,0.007076001,-0.859368,1.54,-5.81,-6.16
617,64992,0.46311199999999997,0.00488,-0.8547319999999999,1.645,-5.7225,-5.9325
618,65090,0.462868,0.005368,-0.8613200000000001,1.75,-5.5475,-5.845
619,65188,0.46238,0.00488,-0.8581479999999999,1.715,-5.3025,-5.915
620,65286,0.46164799999999995,0.0017079999999999999,-0.8544879999999999,1.8725,-5.25,-5.845
621,65384,0.465796,-0.005368,-0.8571719999999999,1.7325,-5.3725,-5.915
622,65482,0.465796,-0.003172,-0.856196,1.5225,-5.5125,-6.055
623,65581,0.46726,-0.00366,-0.85644,1.3825,-5.6,-6.1425
624,65679,0.46603999999999995,0.008052001,-0.8532681000000001,1.2775,-5.88,-6.2475
625,65777,0.46628400000000003,0.008296000999999999,-0.856684,1.5575,-6.1425,-5.9675
626,65875,0.47458,-0.011468,-0.8552200000000001,2.2225,-5.67,-5.74
627,65973,0.46603999999999995,-0.012444,-0.8554641,2.17,-5.81,-5.845
628,66071,0.467504,-0.004148001,-0.8549761,1.33,-6.5275,-6.2825
629,66169,0.466528,0.000488,-0.8527800999999999,1.1025,-7.0175,-6.1775
630,66267,0.467992,-0.0017079999999999999,-0.8510719999999999,0.945,-7.5775,-6.09
631,66365,0.470188,0.007564001,-0.850096,0.735,-8.26,-5.8975
632,66463,0.46921199999999996,0.002196,-0.8464360000000001,0.875,-9.065,-5.355
633,66561,0.468724,-0.006344,-0.8532681000000001,1.2425,-9.765,-4.76
634,66659,0.463844,-0.006832001,-0.8608319999999999,1.0325,-10.465,-4.62
635,66757,0.45896400000000004,0.008784,-0.8559521000000001,0.5425,-10.85,-4.585
636,66855,0.46116,0.013175999999999998,-0.8559521000000001,0.2975,-10.8675,-4.7425
637,66953,0.46311199999999997,0.0061,-0.85888,0.6825,-10.395,-4.6375
638,67051,0.45335200000000003,0.017568,-0.8625401,0.63,-10.395,-4.4625
639,67149,0.453108,0.017324000000000003,-0.869616,1.365,-9.94,-4.3925
640,67247,0.46457600000000004,0.014396,-0.863028,2.275,-8.6275,-4.095
641,67345,0.46311199999999997,0.015128,-0.8674200000000001,3.2375,-7.4725,-3.6575
642,67443,0.46481999999999996,0.018544,-0.8664440000000001,4.2875,-6.2475,-3.115
643,67542,0.449204,0.027816000000000004,-0.8676640999999999,5.285,-5.39,-2.4325
644,67640,0.44676400000000005,0.018544,-0.8723001,6.5275,-4.3575,-1.9775
645,67738,0.453108,-0.000732,-0.87108,7.42,-3.0975,-1.96
646,67836,0.458232,-0.010492,-0.869128,7.455,-2.3625,-2.0125
647,67934,0.460916,-0.029768,-0.8605879999999999,7.035,-1.75,-2.45
648,68032,0.466528,-0.0183,-0.8571719999999999,5.915,-1.8375,-2.975
649,68130,0.46238,-0.007076001,-0.8579041,5.005,-1.995,-3.29
650,68228,0.45554799999999995,0.012688,-0.8554641,4.5325,-1.8725,-3.29
651,68326,0.445788,0.018788,-0.8601,4.55,-1.75,-3.0625
652,68424,0.43651599999999996,0.008784,-0.8613200000000001,4.7425,-1.7325,-2.905
653,68522,0.43627200000000005,0.002196,-0.860344,4.9,-1.4875,-3.4125
654,68620,0.45603599999999994,-0.014152000000000001,-0.8571719999999999,4.9525,-0.9975,-4.2175
655,68718,0.46481999999999996,-0.0244,-0.8513161,4.41,-1.1025,-5.04
656,68816,0.46628400000000003,-0.023668,-0.845216,3.5,-1.89,-5.8625
657,68914,0.44847200000000004,-0.01464,-0.8396040000000001,2.765,-3.0975,-6.7025
658,69012,0.42553599999999997,-0.027083999999999997,-0.844972,2.7825,-4.06,-7.35
659,69110,0.43944399999999995,-0.037332,-0.853512,2.1875,-4.305,-7.665
660,69208,0.45506,-0.028304000000000003,-0.854244,0.7525,-4.865,-7.77
661,69306,0.46896800000000005,-0.035868000000000004,-0.8491200000000001,0.0175,-5.635,-7.8575
662,69404,0.471408,-0.036844,-0.850584,-0.9625,-6.5275,-8.085
663,69502,0.4636,-0.018788,-0.8413120000000001,-1.785,-7.175,-8.2075
664,69600,0.437004,-0.020008,-0.8571719999999999,-1.855,-7.5075,-8.1375
665,69698,0.43944399999999995,-0.015128,-0.8574161,-2.66,-7.5775,-7.735
666,69797,0.453596,-0.015616,-0.8576601,-3.2375,-7.665,-7.595
667,69895,0.464088,-0.011956,-0.8559521000000001,-3.1325,-7.175,-7.6125
668,69993,0.46774799999999994,-0.002684,-0.859856,-2.6075,-6.8075,-8.015
669,70091,0.465308,-0.007808001,-0.8637601,-1.89,-6.1075,-8.2075
670,70189,0.462624,-0.015128,-0.8508280999999999,-1.54,-5.9675,-8.295
671,70287,0.439688,-0.014152000000000001,-0.853512,-1.0675,-5.705,-8.785
672,70385,0.44773999999999997,-0.013175999999999998,-0.8632719999999999,-1.12,-5.4075,-8.9425
673,70483,0.449692,-0.0051240009999999996,-0.8693719999999999,-0.98,-4.6725,-8.6975
674,70581,0.45506,0.016347999999999998,-0.869616,-0.5075,-3.8675,-8.015
675,70679,0.426512,0.000976,-0.8823040000000001,0.105,-3.045,-7.35
676,70777,0.45164399999999993,0.011956,-0.8757159999999999,0.8925,-1.7325,-7.28
677,70875,0.46921199999999996,0.000488,-0.8693719999999999,1.7325,-0.1925,-6.9825
678,70973,0.46774799999999994,-0.000488,-0.8674200000000001,2.24,0.7,-6.4575
679,71071,0.45579200000000003,-0.004392,-0.88328,2.0475,1.9075,-6.0025
680,71169,0.460672,-0.033428,-0.8657120999999999,1.5575,3.36,-6.5625
681,71267,0.472872,-0.044164,-0.8781559999999999,0.14,6.86,-8.6625
682,71365,0.413336,-0.049044,-0.887184,-2.835,10.7275,-10.2025
683,71463,0.353556,-0.0305,-0.9616040000000001,-5.1275,17.395,-12.18
684,71562,0.342332,-0.067344,-0.9535521,-4.4975,29.1725,-16.4325
685,71660,0.380152,-0.051484,-0.9186601000000001,-1.1025,47.18,-22.0325
686,71758,0.37258800000000003,-0.036112,-0.9084121,-1.33,68.3725,-27.1775
687,71856,0.387228,-0.022203999999999998,-0.864492,-0.14,93.625,-30.8875
688,71954,0.377956,-0.03172,-0.8840120000000001,-0.1225,122.395,-33.075
689,72052,0.40577199999999997,-0.0017079999999999999,-0.8847440999999999,-5.145,152.845,-33.4075
690,72150,0.503372,0.008540001,-0.8664440000000001,-15.365,181.9125,-32.6725
691,72248,0.510204,-0.027816000000000004,-0.883768,-24.29,206.5,-31.815
692,72346,0.46311199999999997,-0.05977999999999999,-0.9267120000000001,-37.2925,231.245,-35.49
693,72444,0.537776,-0.026108,-0.918416,-57.4,259.4375,-42.28
694,72542,0.5826720000000001,0.019275999999999998,-0.9325680000000001,-79.17,294.385,-51.2575
695,72640,0.759328,0.013663999999999999,-0.9857600000000001,-100.5725,341.705,-65.43251
696,72738,0.8525360000000001,-0.032695999999999996,-1.1155680000000001,-129.395,407.3825,-86.73
697,72836,0.8113001,0.01952,-1.318576,-155.3125,483.665,-109.0425
698,72934,0.7993439999999999,-0.016836,-1.759728,-157.6225,553.595,-122.43
699,73032,1.1660760000000001,0.09442801,-1.2763639999999998,-129.9025,573.3525,-122.5525
700,73130,2.094008,-0.3233,-1.663348,-107.4325,573.405,-104.055
701,73228,2.488312,0.5787680000000001,-1.937116,-83.16001,572.845,-67.235
702,73326,2.266516,0.361608,-1.958588,-52.885,540.8375,-33.425
703,73424,1.934432,0.152988,-2.10328,-6.545,391.2825,-3.7975
704,73522,2.040816,-0.12688,-2.471232,60.06,198.0825,34.2125
705,73620,1.4959639999999998,-0.44383599999999995,-1.991528,95.3925,188.055,32.3575
706,73719,1.137528,0.052948,-2.191608,13.5625,245.6825,-43.4
707,73817,2.168184,-0.493612,-1.749236,-82.4075,174.7375,-60.5675
708,73915,2.455372,-0.7407841,-2.964356,-52.0625,131.0575,-22.505
709,74013,1.802184,-0.850096,-3.0768400000000002,-4.9175,14.42,13.9125
710,74111,0.70394,-0.72102,-1.8707479999999999,-52.0275,-155.6625,30.415
711,74209,-0.170312,-0.514108,-1.1446040000000002,-100.17,-230.195,32.4625
712,74307,-0.511668,-0.2806,-0.89426,-125.8425,-224.1575,25.3925
713,74405,-0.5038600000000001,0.000976,-0.8447280999999999,-123.3225,-212.66,17.7625
714,74503,-0.315492,0.177876,-0.8527800999999999,-96.91501,-208.705,14.875
715,74601,-0.126148,0.192272,-0.906948,-58.2225,-205.415,16.2225
716,74699,0.008052001,0.148352,-0.9494040000000001,-17.43,-208.9675,17.0275
717,74797,0.131028,0.05368,-0.9708760000000001,16.24,-221.4625,16.03
718,74895,0.22814,-0.020496,-0.9818561,34.44,-239.2075,13.6325
719,74993,0.31476,-0.041968,-1.000644,39.935,-256.9875,10.78
720,75091,0.404796,-0.008540001,-0.9921040999999999,39.795,-275.0475,8.505
721,75189,0.494832,0.027083999999999997,-0.9703879999999999,40.6175,-293.335,7.2275
722,75287,0.575596,0.05002,-0.9535521,43.68,-310.4325,6.8425
723,75385,0.6182960999999999,0.06075601,-0.9118280000000001,47.4075,-324.6775,6.1775
724,75483,0.6373281,0.074664,-0.9054840000000001,51.1525,-335.125,5.005
725,75581,0.6673399999999999,0.101016,-0.9408639999999999,55.37,-341.32,3.745
726,75679,0.726144,0.13176,-1.0060120000000001,60.41,-345.415,2.9225
727,75777,0.7993439999999999,0.180072,-1.0643280000000002,65.975,-348.95,1.8375
728,75875,0.8940161,0.22326,-1.135576,72.8,-353.4125,-1.47
729,75973,0.9886881,0.268156,-1.1951120000000002,81.90001,-357.945,-6.9475
730,76071,1.045296,0.29572800000000005,-1.19194,93.555,-362.355,-13.9475
731,76169,1.067012,0.32696,-1.1468,108.255,-362.145,-21.1575
732,76267,1.059692,0.323056,-1.083604,124.7925,-353.465,-26.565
733,76365,1.077992,0.238144,-1.187548,141.19,-333.9,-28.7
734,76464,1.253672,0.1464,-1.4518,153.755,-307.44,-25.5325
735,76562,1.4149559999999999,0.026595999999999998,-1.453752,158.34,-289.7125,-14.5775
736,76660,1.52134,-0.082472,-1.264896,152.7925,-272.6325,2.7825
737,76758,1.7626560000000002,-0.08881599,-1.230248,137.4975,-241.85,22.05
738,76856,2.322392,0.014884,-1.626992,120.295,-207.655,42.105
739,76954,3.192008,0.170312,-1.861476,108.4475,-192.395,62.09
740,77052,3.9445040000000002,0.30548800000000004,-1.529148,95.9525,-217.1925,75.9325
741,77150,4.32734,0.259128,-0.961116,80.395,-262.7275,77.0525
742,77248,4.051132,0.274256,-0.29524,61.0575,-304.395,69.895
743,77346,3.4565040000000002,0.23911999999999997,0.49776000000000004,35.945,-338.135,64.54
744,77444,3.013156,0.10736,1.093852,7.9975,-342.0725,60.6375
745,77542,2.826984,0.114192,1.44692,-12.5825,-293.72,53.025
746,77640,2.86212,0.441884,1.647732,-19.53,-225.19,42.735
747,77738,2.8792,0.7056479999999999,1.866844,7.35,-162.4525,39.025
748,77836,2.833328,0.7046720999999999,1.821948,67.41001,-95.1125,46.235
749,77934,2.767204,0.5292359999999999,1.674084,124.705,-29.2425,61.4425
750,78032,2.851872,-0.9042641,2.324344,133.5075,17.2025,73.4825
751,78130,-1.4278879999999998,-0.9084121,0.8166680000000001,-133.5425,99.61,80.15
752,78228,-2.526376,0.202764,-3.044632,-113.6275,202.86,82.425
753,78326,0.270596,2.3197080000000003,-0.125416,-183.1025,294.2625,38.325
754,78424,2.189168,1.653588,0.367952,-87.97251,356.4225,78.225
755,78522,2.797704,2.622024,-3.155652,-24.3775,360.57,23.065
756,78620,2.3370319999999998,1.708488,-2.828936,-34.5625,262.325,-46.7425
757,78718,1.827804,0.47360399999999997,-1.662616,4.165,183.2075,-66.745
758,78816,1.2214639999999999,-0.887916,-1.38714,53.865,151.9,-44.1175
759,78914,0.8935280999999999,-1.187548,-1.032852,42.0875,135.59,-8.12
760,79012,0.738588,-0.482388,-0.87474,2.415,128.2925,15.4875
761,79110,0.659532,0.09345201,-0.9979600000000001,-9.38,122.5175,20.86
762,79208,0.9982040000000001,-0.26303200000000004,-1.438624,-10.71,108.22,2.765
763,79306,1.226588,-0.333304,-0.998448,-52.4825,74.0775,-16.8
764,79404,1.001132,-0.044652,-1.16998,-69.79,38.29,-17.29
765,79503,0.47555600000000003,0.31476,-1.086288,-50.085,33.6,-10.955
766,79601,0.524356,0.110044,-1.086044,-30.8875,24.5525,-12.285
767,79699,0.663192,-0.030744,-1.014308,-18.6375,18.445,-10.85
768,79797,0.5948720000000001,-0.03782,-0.959408,-13.1775,11.6025,-7.735
769,79895,0.43188000000000004,-0.011468,-0.9181720999999999,-9.38,6.335,-6.23
770,79993,0.370148,0.0017079999999999999,-0.9030440000000001,-7.035,4.7425,-7.455
771,80091,0.40381999999999996,0.005856,-0.88328,-5.1975,5.25,-8.96
772,80189,0.42163199999999995,-0.03294,-0.8491200000000001,-2.7475,5.7925,-9.45
773,80287,0.39405999999999997,-0.122,-0.8481440999999998,-0.525,6.615,-9.45
774,80385,0.377712,-0.153476,-0.8322841000000001,-2.7125,6.7025,-10.045
775,80483,0.402844,-0.107116,-0.8591241,-8.6975,6.37,-11.585
776,80581,0.442616,-0.047824,-0.880352,-12.8975,5.495,-12.04
777,80679,0.473116,-0.0061,-0.921344,-11.76,5.0925,-12.1625
778,80777,0.482388,-0.085156,-0.8664440000000001,-8.54,3.115,-12.565
779,80875,0.477508,-0.116876,-0.8520479999999999,-9.2925,1.89,-14.105
780,80973,0.4941,-0.06588,-0.86864,-13.2475,1.365,-16.31
781,81071,0.478728,-0.06075601,-0.8693719999999999,-15.26,-0.0525,-17.2725
782,81169,0.46238,-0.024156,-0.8957241,-16.4325,-1.54,-17.4475
783,81267,0.47213999999999995,0.009272001,-0.8703481,-16.87,-2.135,-17.64
784,81365,0.4941,0.001464,-0.8664440000000001,-13.055,-0.9625,-16.1525
785,81463,0.472384,-0.004392,-0.8730319999999999,-9.9225,-0.7,-14.8575
786,81561,0.469944,-0.0183,-0.8669319999999999,-7.07,-0.7,-13.9475
787,81659,0.476288,-0.0244,-0.85888,-5.5125,-0.1925,-13.125
788,81757,0.468724,-0.022936,-0.8620521000000001,-4.3575,0.385,-12.3725
789,81855,0.46433199999999997,-0.022448,-0.8596120999999999,-4.13,0.28,-12.495
790,81954,0.47482399999999997,-0.040504000000000005,-0.8640040000000001,-4.4625,-0.8575,-13.4925
791,82052,0.46774799999999994,0.040016,-0.8910879999999999,-5.775,-1.645,-15.225
792,82150,0.423096,-0.027572000000000003,-0.8874280999999999,-1.6625,0.9975,-18.305
793,82248,0.382592,-0.07881200000000001,-0.91622,2.38,5.0575,-22.12
794,82346,0.360388,-0.046360000000000005,-0.9103641,-2.625,8.0325,-25.725
795,82444,0.459208,-0.05002,-0.879864,-1.9775,20.125,-30.3275
796,82542,0.4209,-0.009028000999999999,-0.879376,-0.77,31.6225,-34.6325
797,82640,0.395768,-0.008052001,-0.885476,2.2925,48.4925,-36.2775
798,82738,0.390644,-0.018788,-0.873276,6.23,71.9075,-37.135
799,82836,0.391864,0.0017079999999999999,-0.8857200999999999,10.8325,100.31,-37.3625
800,82934,0.39918400000000004,0.040504000000000005,-0.8957241,14.35,130.1825,-35.14
801,83032,0.444324,0.067832,-0.907192,13.965,158.6725,-29.54
802,83130,0.524112,0.076616,-0.8857200999999999,8.4525,183.015,-21.1575
803,83228,0.505324,0.07808001,-0.9174399999999999,-1.6275,203.7,-12.565
804,83326,0.5104479999999999,0.024156,-0.91622,-13.72,227.2025,-8.3825
805,83424,0.48312,-0.006832001,-0.9435479999999999,-28.0,255.815,-11.305
806,83522,0.601704,-0.028792,-0.975512,-44.87,294.105,-20.5275
807,83620,0.5936520000000001,-0.107116,-1.068964,-57.9075,352.485,-36.6625
808,83718,0.735904,-0.12932000000000002,-1.220976,-64.1725,431.76,-60.585
809,83816,0.806176,-0.173484,-1.5201200000000001,-61.4775,528.115,-90.28251
810,83914,0.686128,-0.134932,-2.14842,-53.585,572.4775,-116.48
811,84012,1.515728,0.091988,-1.353956,-40.145,573.405,-128.2575
812,84110,2.31678,0.5260640000000001,-2.888716,-34.475,573.405,-109.76
813,84209,2.9443479999999997,0.09247601,-1.3603,22.33,573.405,-50.3125
814,84307,2.563952,-0.012931999999999999,-1.964932,53.06,565.67,-1.6975
815,84405,2.5986,-0.8030041,-2.91214,73.5175,374.57,53.305
816,84503,3.018524,-0.58316,-2.212104,128.66,160.0375,74.865
817,84601,1.480348,-0.14152,-2.492216,163.52,243.88,-25.7075
818,84699,1.949804,-0.28987199999999996,-2.497096,37.7475,301.91,-146.8775
819,84797,2.761104,-1.095072,-3.21592,-12.2325,198.1525,-100.87
820,84895,2.065948,-1.283928,-3.7822440000000004,52.465,57.96,-44.065
821,84993,1.021872,-1.217804,-2.5949400000000002,15.8375,-137.1825,-8.6625
822,85091,0.03294,-0.9333,-1.556476,-64.05,-270.375,-2.625
823,85189,-0.5587601,-0.555832,-1.095316,-123.585,-294.98,-12.1275
824,85287,-0.677344,-0.229848,-0.9337880999999999,-139.7025,-284.48,-19.74
825,85385,-0.5887720000000001,0.01952,-0.806908,-121.2575,-278.5125,-20.895
826,85483,-0.329156,0.119316,-0.8479,-83.0725,-270.375,-15.47
827,85581,-0.08344800000000001,0.15762400000000001,-0.8491200000000001,-36.89,-266.0175,-7.14
828,85679,0.06539201,0.094672,-0.8015399999999999,5.6875,-272.4925,0.28
829,85777,0.22204000000000002,-0.029036000000000003,-0.8357,38.535,-282.4325,4.2525
830,85875,0.37454,-0.09028,-0.8471681000000001,53.165,-297.2375,4.4275
831,85973,0.478484,-0.134444,-0.8308200000000001,53.7425,-316.61,4.5675
832,86071,0.558028,-0.133712,-0.781776,47.8625,-333.9875,4.9
833,86169,0.636596,-0.09906401,-0.754448,41.335,-347.865,5.9325
834,86268,0.709064,-0.091988,-0.7671359999999999,38.8675,-359.065,8.6275
835,86366,0.783972,-0.08759601,-0.8047121,38.29,-368.4625,12.215
836,86464,0.8376520000000001,-0.063684,-0.849852,38.115,-375.4625,16.8525
837,86562,0.869616,-0.0305,-0.9293961,39.9,-380.0825,21.665
838,86660,0.9415959999999999,0.023180000000000003,-1.0643280000000002,43.47,-381.675,25.41
839,86758,1.069452,0.086132,-1.2251239999999999,48.5275,-384.8425,26.88
840,86856,1.21024,0.160796,-1.2939319999999999,56.07,-391.6325,25.62
841,86954,1.279048,0.209108,-1.321504,69.3,-399.805,20.685
842,87052,1.422764,0.22472399999999998,-1.45302,90.59751,-393.54,12.2325
843,87150,1.568432,0.128344,-1.662616,112.98,-381.29,5.565
844,87248,1.9834759999999998,-0.0244,-2.135,140.315,-360.185,7.8225
845,87346,2.473672,-0.22423600000000002,-2.2387,160.7025,-351.61,23.2925
846,87444,2.9567919999999996,-0.496296,-2.072048,163.905,-358.1725,43.155
847,87542,3.494568,0.31842,-1.442772,143.3425,-360.7625,61.775
848,87640,3.959144,0.244488,-1.347612,147.2625,-357.035,90.1075
849,87738,4.16996,0.14469200000000002,-0.8471681000000001,159.775,-358.4525,101.0625
850,87836,4.143608,0.352092,-0.11712,123.62,-358.6975,89.355
851,87934,3.7944440000000004,0.4636,0.667828,90.8775,-344.855,83.79001
852,88032,3.461872,0.33916,1.436184,72.6425,-315.8575,84.315
853,88130,3.110512,0.159576,2.007876,55.0725,-264.5475,72.9575
854,88228,2.912384,0.2501,2.129388,39.4975,-176.0325,51.485
855,88326,3.0878200000000002,0.6082920999999999,2.035936,42.3675,-87.6925,36.8025
856,88425,3.29034,0.677344,2.052284,72.8175,-27.37,36.33
857,88523,3.224704,0.328424,1.7387439999999998,113.225,32.4625,43.3125
858,88621,4.461296,-1.361032,2.697908,75.35501,81.305,51.2225
859,88719,-0.492148,-1.2104840000000001,0.323056,-230.86,187.74,78.8375
860,88817,-1.971032,0.381128,-3.930108,-209.125,209.44,64.33
861,88915,-0.08174001,2.527596,-0.324276,-273.595,288.6975,98.105
862,89013,1.9124720000000002,2.3502080000000003,0.9516,-176.085,370.7025,148.785
863,89111,2.41438,3.7637,-2.3607,-38.0975,379.295,108.325
864,89209,2.004216,3.102704,-2.835036,-32.6375,319.725,-8.82
865,89307,1.850008,1.713124,-1.6804279999999998,-8.5575,237.7025,-103.1975
866,89405,1.39934,-0.944768,-1.1895,94.325,194.7575,-108.4475
867,89503,1.444236,-2.512468,-1.051152,94.30751,184.835,-58.345
868,89601,2.528572,-2.881152,-1.909056,-16.03,173.32,-15.75
869,89699,1.9356520000000002,0.48068,-1.5018200000000002,-182.9975,111.1425,0.4375
870,89797,0.8893800999999999,1.518168,-1.4959639999999998,-141.8725,77.77,-22.12
871,89895,0.9330560999999999,-0.022692,-1.343708,-60.1475,27.5975,-37.52
872,89993,0.634644,-0.14274,-0.99308,-30.8875,10.3425,-22.6975
873,90091,0.635864,0.39528,-1.211216,-32.8825,20.6325,-12.005
874,90189,0.5797441,0.07564,-0.945256,-14.77,5.88,-9.8
875,90287,0.45018,-0.138348,-0.8701040000000001,-1.5575,-1.4175,-7.7525
876,90385,0.47360399999999997,0.025376,-0.9098761000000001,-7.0875,-0.4025,-8.0325
877,90483,0.500688,-0.015372,-0.8693719999999999,-4.0075,-0.525,-9.695
878,90582,0.477996,0.033672,-0.8845,-1.6975,0.2975,-9.24
879,90680,0.44090799999999997,-0.003172,-0.874984,0.8225,1.6975,-8.995
880,90778,0.457988,-0.0366,-0.8479,2.1875,3.36,-8.925
881,90876,0.45261999999999997,-0.031964,-0.856196,2.065,5.25,-9.31
882,90974,0.46116,0.000244,-0.8481440999999998,0.8225,6.1425,-9.8875
883,91072,0.47384799999999994,-0.012444,-0.843508,-0.07,6.9125,-9.415
884,91170,0.46945600000000004,-0.08808401,-0.844484,-0.8925,6.755,-9.9225
885,91268,0.49824799999999997,-0.046360000000000005,-0.8296,-5.6,4.9875,-13.2125
886,91366,0.520208,-0.014152000000000001,-0.8256960999999999,-8.1725,2.9925,-15.715
887,91464,0.5084960000000001,-0.03294,-0.849852,-6.9475,1.26,-16.3275
888,91562,0.508984,-0.02928,-0.8403360000000001,-6.1425,0.0,-16.94
889,91660,0.505324,-0.006587999999999999,-0.8461921,-6.4925,-1.54,-17.6575
890,91758,0.48995200000000005,0.018788,-0.8581479999999999,-5.0925,-2.2575,-17.1325
891,91856,0.50142,0.053924,-0.8481440999999998,-3.325,-0.8575,-15.645
892,91954,0.515084,0.055388,-0.8371639999999999,-0.5775,2.135,-13.3525
893,92052,0.493856,0.025376,-0.8422879999999999,3.1675,5.2675,-10.605
894,92150,0.478972,-0.002684,-0.8410681000000001,5.005,8.3125,-9.345
895,92248,0.441884,-0.012931999999999999,-0.8569280999999999,4.2525,12.1625,-9.17
896,92346,0.42626800000000004,-0.038308,-0.871568,5.6525,16.87,-11.27
897,92444,0.462136,-0.042456,-0.85888,6.0025,22.2075,-15.96
898,92542,0.4697,-0.038551999999999996,-0.8544879999999999,5.74,26.6,-20.93
899,92640,0.46774799999999994,-0.022203999999999998,-0.8647360000000001,5.53,30.275,-24.3425
900,92738,0.4594521,-0.019275999999999998,-0.861808,5.145,35.07,-26.3375
901,92836,0.46433199999999997,-0.014884,-0.853024,6.72,44.66,-27.895
902,92935,0.467992,-0.002684,-0.8520479999999999,8.9775,56.4725,-29.155
903,93033,0.46628400000000003,-0.015616,-0.871568,11.6025,70.665,-28.5425
904,93131,0.437004,0.008052001,-0.8547319999999999,12.1275,88.30501,-27.825
905,93229,0.457744,0.026108,-0.86864,14.63,115.78,-27.0025
906,93327,0.531676,0.05246,-0.83936,16.7825,145.915,-24.3075
907,93425,0.547048,0.085888,-0.849852,13.405,174.895,-19.565
908,93523,0.599264,0.094672,-0.8432639999999999,6.0725,201.32,-13.7025
909,93621,0.6036560999999999,0.083936,-0.8544879999999999,-4.41,230.3525,-9.6075
910,93719,0.57706,0.046604,-0.8910879999999999,-17.22,263.0075,-10.1675
911,93817,0.627812,-0.012688,-0.9376921,-25.6025,298.9,-17.185
912,93915,0.7139439999999999,-0.077592,-1.004548,-32.2175,343.2975,-29.5575
913,94013,0.8054439999999999,-0.116632,-1.186572,-30.0125,407.855,-47.8275
914,94111,0.783972,-0.124928,-1.501088,-17.29,498.12,-66.53501
915,94209,0.666608,0.027572000000000003,-1.927112,3.5875,566.5275,-87.29
916,94307,0.9928360999999999,0.18056,-1.699948,31.7275,573.405,-85.1725
917,94405,1.925648,-0.054655999999999996,-1.755336,48.65,573.405,-72.0475
918,94503,2.8848119999999997,0.416508,-1.199748,43.9425,573.3875,-62.1425
919,94601,4.1785,0.12444000000000001,-2.470988,62.335,573.265,-24.325
920,94699,2.88042,0.09638,-1.508408,140.0,456.715,74.8825
921,94797,2.691808,-0.461404,-4.008188,65.345,-64.12,133.595
922,94895,1.7992560000000002,0.067588,-3.149552,165.3925,56.4725,62.7725
923,94994,1.1995040000000001,0.153232,-2.1240200000000002,152.32,298.655,-131.0925
924,95092,3.104168,-1.043344,-3.690988,83.30001,273.6475,-124.3025
925,95190,2.4160880000000002,-1.258308,-4.33954,119.49,76.44001,-73.5
926,95288,1.284416,-1.306376,-2.757688,57.925,-160.5275,-58.4675
927,95386,-0.043432,-1.22488,-1.6918959999999998,-29.12,-286.4225,-76.475
928,95484,-0.618052,-0.6956439999999999,-1.280512,-96.0925,-316.12,-99.225
929,95582,-0.573156,-0.24644000000000002,-1.2136559999999998,-103.915,-305.8825,-108.57
930,95680,-0.329888,-0.020008,-1.149484,-59.99,-297.5525,-94.8325
931,95778,-0.129564,-0.050752,-1.061888,5.355,-292.6875,-68.635
932,95876,0.040016,-0.16835999999999998,-0.9696561,67.795,-292.11,-41.4225
933,95974,0.23228800000000002,-0.274256,-0.9025559999999999,107.8875,-300.8425,-19.705
934,96072,0.366976,-0.354288,-0.8471681000000001,119.1925,-315.1575,-4.69
935,96170,0.48312,-0.33916,-0.8254520000000001,108.4825,-329.2625,4.1475
936,96268,0.5846241,-0.212524,-0.8220360000000001,91.6475,-342.055,12.1275
937,96366,0.6993041,-0.05246,-0.859368,81.18251,-353.9025,21.35
938,96464,0.815936,0.06270801,-0.883768,82.1975,-366.2925,32.3575
939,96562,0.8813280000000001,0.11955999999999999,-0.873276,88.30501,-378.77,43.505
940,96660,0.904508,0.136884,-0.9059721,93.66,-388.5,52.4475
941,96758,0.9286639999999999,0.170312,-0.9774639999999999,95.585,-394.905,57.2425
942,96856,0.9630681000000001,0.239364,-1.05774,94.37751,-400.6275,57.085
943,96954,1.069208,0.3721,-1.206336,96.075,-403.4275,52.115
944,97052,1.210728,0.535824,-1.309304,106.75,-406.1925,43.855
945,97150,1.3651799999999998,0.649528,-1.360056,126.84,-406.3325,33.2675
946,97248,1.4903520000000001,0.6224441,-1.26026,153.3175,-397.705,23.695
947,97346,1.5701399999999999,0.328424,-1.272948,177.03,-377.0375,16.5725
948,97445,1.855376,-0.047580000000000004,-1.661884,188.755,-342.51,16.4325
949,97543,2.3018959999999997,-0.36356,-1.90442,188.125,-318.5875,31.2725
950,97641,2.748904,-0.66368,-1.8751400000000003,169.0675,-314.93,62.335
951,97739,3.237636,-0.735416,-1.7275200000000002,128.8,-318.6925,101.5
952,97837,3.4879800000000003,-0.013663999999999999,-1.553548,80.6225,-327.3025,142.625
953,97935,3.679276,0.29646,-1.242692,66.7975,-335.5975,180.6
954,98033,3.8554440000000003,0.335988,-0.61366,58.275,-349.65,188.58
955,98131,3.624132,0.44115200000000004,0.250832,31.4825,-350.6475,166.7225
956,98229,3.215432,0.34867600000000004,0.927932,10.255,-325.745,142.905
957,98327,2.9036,0.188124,1.436916,-3.5875,-285.145,124.2325
958,98425,2.78038,0.17324,1.693848,-16.2925,-226.66,103.25
959,98523,2.8801759999999996,0.437492,1.628212,-20.265,-155.9775,83.195
960,98621,3.0695200000000002,0.693204,1.597956,3.1675,-92.5225,73.16751
961,98719,3.149064,0.661484,1.596248,46.515,-41.475,71.54
962,98817,2.750612,0.247416,1.373964,84.8575,5.145,70.98001
963,98915,3.5206760000000004,-0.791292,1.9473639999999999,10.8675,52.43,57.0675
964,99013,0.5060560000000001,-0.5978,1.777784,-198.0825,168.2625,64.1025
965,99111,-1.415932,0.978928,-2.26554,-209.4925,233.065,83.30001
966,99209,-0.44652,1.4654639999999999,-2.249192,-150.2025,330.785,85.19
967,99307,2.636176,1.906616,0.371368,-95.06,375.0425,131.46
968,99406,2.070584,2.47538,-1.318088,-52.185,354.0425,144.69
969,99504,2.089616,2.745488,-3.387208,10.5525,329.84,52.8325
970,99602,1.831952,2.062776,-2.1059639999999997,-13.09,229.46,-46.4975
971,99700,1.6287,0.207156,-1.299788,42.77,169.4875,-93.66
972,99798,1.110688,-1.908568,-0.8095920999999999,101.955,141.6625,-67.4975
973,99896,1.2190239999999999,-2.2850599999999996,-0.999668,46.9,141.4,-23.9225
974,99994,1.664812,-1.585024,-0.8662001,-66.4125,129.8675,5.3725
975,100092,0.989908,0.90402,-1.272948,-180.6525,82.6525,-11.2175
976,100190,0.5648601,0.8388721,-1.247328,-107.73,79.8175,-27.5975
977,100288,1.281,0.05172801,-1.7633880000000002,-79.0825,47.7575,-35.28
978,100386,0.9730721,-0.042456,-0.987712,-50.645,12.3725,-23.205
979,100484,0.5694961,0.258152,-1.068964,-33.4775,12.5125,-16.8175
980,100582,0.40626,0.0244,-0.9620920000000001,-20.0725,0.1925,-12.845
981,100680,0.525576,-0.121024,-0.895236,-13.44,-1.4525,-11.9175
982,100778,0.44286000000000003,-0.012444,-0.9254921,-14.7875,-0.7875,-12.3025
983,100876,0.406016,-0.058803999999999995,-0.898164,-13.055,-3.3425,-13.8075
984,100974,0.487512,-0.004392,-0.8540000000000001,-13.51,-4.095,-14.5775
985,101072,0.445788,-0.006344,-0.8884040000000001,-10.2025,-2.1875,-13.3525
986,101170,0.3904,-0.055388,-0.892308,-7.525,-1.5925,-12.8275
987,101268,0.43212399999999995,0.037088,-0.8657120999999999,-8.68,-0.91,-13.3
988,101367,0.47213999999999995,-0.02196,-0.8437520000000001,-6.2125,-0.1575,-13.615
989,101465,0.44725200000000004,0.02196,-0.8945040000000001,-5.3025,-1.015,-13.1425
990,101563,0.444812,0.063684,-0.8901120000000001,-7.3325,-0.98,-12.7575
991,101661,0.520208,-0.022936,-0.8466800999999999,-3.5,0.735,-11.34
992,101759,0.51972,-0.019764,-0.8437520000000001,-0.735,1.155,-11.305
993,101857,0.49654,0.010736,-0.8483879999999999,-0.9975,-1.19,-11.8125
994,101955,0.49873599999999996,0.0034159999999999998,-0.853756,0.63,-1.9425,-10.815
995,102053,0.475312,-0.018788,-0.8671761,2.4325,-2.1,-9.905
996,102151,0.471164,0.000488,-0.8647360000000001,2.66,-1.61,-9.7475
997,102249,0.465552,0.025131999999999998,-0.8698601,3.185,0.4025,-8.2075
998,102347,0.458476,0.05368,-0.865468,4.2175,2.8875,-5.775
999,102445,0.503372,0.019764,-0.8361879999999999,6.1775,6.9125,-3.0275
1000,102543,0.483364,-0.05929201,-0.8491200000000001,8.3825,9.7825,-1.54
1001,102641,0.401624,-0.006344,-0.879864,3.9025,10.64,-1.8375
1002,102739,0.40357600000000005,-0.084912,-0.868152,7.0175,17.605,-5.985
1003,102837,0.4743361,-0.06466001,-0.8388721,10.4475,25.2875,-13.125
1004,102935,0.480436,-0.056608000000000006,-0.8552200000000001,7.9625,24.8325,-18.7425
1005,103033,0.465552,-0.014152000000000001,-0.8525360000000001,6.4575,21.63,-21.9275
1006,103131,0.45871999999999996,0.00366,-0.85034,5.18,20.16,-22.5925
1007,103229,0.472872,-0.007320001,-0.856684,5.5475,22.54,-20.4225
1008,103327,0.45018,0.005368,-0.8591241,6.8075,26.7925,-18.6025
1009,103425,0.449204,0.003172,-0.8608319999999999,8.26,37.135,-17.1325
1010,103523,0.413336,-0.018056,-0.8884040000000001,11.76,53.62,-15.0675
1011,103621,0.38918,-0.018056,-0.8657120999999999,14.6475,77.0,-13.965
1012,103719,0.42285200000000006,0.018056,-0.887184,18.1825,110.6525,-14.0875
1013,103818,0.4514,0.043432,-0.8913321,20.8075,142.0125,-11.97
1014,103916,0.527284,0.040992,-0.8815719999999999,19.8625,167.3875,-6.7375
1015,104014,0.518744,0.03782,-0.9089001,12.0225,188.685,-1.6625
1016,104112,0.533628,0.01464,-0.9042641,0.0525,212.905,0.7875
1017,104210,0.52094,0.0061,-0.898164,-10.605,242.165,-2.2225
1018,104308,0.547536,-0.040992,-0.913536,-20.0725,278.1625,-10.675
1019,104406,0.583648,-0.131272,-0.9955200000000001,-26.565,321.51,-24.29
1020,104504,0.706624,-0.21447600000000003,-1.121912,-28.665,378.9625,-45.6225
1021,104602,0.7754321,-0.28767600000000004,-1.339804,-23.1175,462.8925,-74.7775
1022,104700,0.8113001,-0.105652,-1.664812,-14.1925,551.8625,-112.84
1023,104798,0.7732359999999999,-0.05587601,-1.9129599999999998,6.58,573.37,-135.0125
1024,104896,1.41398,0.058803999999999995,-1.575508,28.2975,573.405,-127.8725
1025,104994,3.116124,-0.131028,-2.584204,39.4975,573.405,-106.75
1026,105092,3.166876,0.071492,-1.380552,57.435,573.405,-46.515
1027,105190,2.384368,0.5038600000000001,-1.16754,62.7025,567.5775,-28.8225
1028,105288,3.2061599999999997,-0.8103239999999999,-3.600708,56.665,324.94,43.715
1029,105386,2.793556,-0.391864,-2.922144,105.105,44.3625,104.2475
1030,105484,1.2141440000000001,-0.152988,-3.025112,216.6675,207.41,-30.205
1031,105583,1.7629,-0.708088,-1.796084,21.9275,183.4175,-149.5725
1032,105680,2.5561439999999997,-1.39324,-3.71124,8.61,157.8675,-95.48
1033,105778,1.92638,-1.1192280000000001,-3.7251480000000003,57.1025,5.145,-54.5825
1034,105876,0.6602640000000001,-0.9928360999999999,-2.215032,-21.945,-224.0,-34.8075
1035,105974,-0.391376,-0.681492,-1.26026,-83.66751,-316.8725,-39.0775
1036,106072,-0.659532,-0.313784,-1.137772,-105.7525,-295.2425,-53.62
1037,106170,-0.618052,-0.049776,-1.0018639999999999,-92.85501,-282.695,-58.415
1038,106268,-0.4514,0.147376,-0.901336,-61.0225,-286.475,-51.7825
1039,106366,-0.194468,0.167384,-0.886452,-13.5625,-278.7925,-38.955
1040,106465,-0.00366,0.14347200000000002,-0.8405800999999999,36.645,-275.6425,-24.01
1041,106563,0.16909200000000002,0.023668,-0.81862,76.5275,-281.995,-9.8525
1042,106661,0.346968,-0.06270801,-0.8235001000000001,96.075,-294.245,-0.35
1043,106759,0.49263599999999996,-0.09028,-0.8296,97.14251,-309.2775,6.5625
1044,106857,0.600484,-0.077836,-0.829356,87.90250999999999,-324.8875,13.3525
1045,106955,0.694912,-0.035136,-0.8383841000000001,76.09000999999999,-339.57,20.16
1046,107053,0.772992,0.035136,-0.83204,65.8,-353.0975,26.39
1047,107151,0.840824,0.085888,-0.8403360000000001,59.85,-365.225,32.3225
1048,107249,0.8784,0.131272,-0.8727879999999999,57.365,-374.64,37.765
1049,107347,0.9023121,0.170312,-0.9489161,56.63,-380.45,42.35
1050,107445,0.9467200000000001,0.21228000000000002,-1.046028,57.2425,-383.5825,45.57
1051,107543,1.051884,0.270352,-1.184864,58.8,-385.91,45.5
1052,107641,1.180228,0.363804,-1.343952,63.28,-387.24,41.58
1053,107739,1.316868,0.404552,-1.3583479999999999,74.13,-389.3575,34.1075
1054,107837,1.394216,0.33305999999999997,-1.377868,89.53,-391.51,23.065
1055,107935,1.6609080000000003,0.20788800000000002,-1.667252,108.8325,-375.8825,13.3875
1056,108033,2.006168,0.0034159999999999998,-1.901248,129.5,-360.36,15.5225
1057,108131,2.399984,-0.291092,-1.8880720000000002,142.0125,-351.4875,30.8525
1058,108229,2.8713919999999997,-0.6392800000000001,-1.7521639999999998,136.325,-344.3475,55.0725
1059,108327,3.4733400000000003,-0.645868,-1.537932,105.315,-338.345,81.95251
1060,108425,3.904732,-0.149816,-1.495476,65.625,-337.4,112.9275
1061,108523,4.415668,0.056608000000000006,-1.04798,57.8725,-340.06,138.9675
1062,108622,4.5220519999999995,0.28548,-0.152256,44.555,-363.7025,136.3075
1063,108720,3.904976,0.525332,0.772016,35.63,-369.705,117.7225
1064,108818,3.2818,0.426756,1.4459440000000001,46.935,-345.31,106.96
1065,108916,2.8740759999999996,0.249856,2.000312,61.0225,-285.9675,97.8775
1066,109014,2.6776560000000003,0.19983599999999999,2.2667599999999997,58.87,-193.2875,83.685
1067,109112,2.857728,0.388204,2.114992,50.5925,-104.545,69.2475
1068,109210,3.268624,0.5897479999999999,1.9422400000000002,55.6675,-38.465,58.2225
1069,109308,3.3842800000000004,0.510204,1.6684720000000002,82.81,6.5625,52.395
1070,109406,4.06992,-0.409432,2.63154,78.2075,39.3225,48.23
1071,109504,0.752984,-1.065792,2.099132,-155.9425,144.8475,59.1325
1072,109602,-2.0435,0.239364,-2.412672,-174.4925,185.92,48.4575
1073,109700,-0.628788,1.186816,-1.480836,-170.73,294.4025,36.715
1074,109798,1.643096,2.1569599999999998,0.44115200000000004,-193.4625,350.5775,69.0025
1075,109896,1.980304,2.688148,-1.3029600000000001,-59.7625,364.315,84.63
1076,109994,2.37656,2.8557759999999996,-2.822836,-39.515,345.4325,10.6575
1077,110092,2.37412,1.8478119999999998,-1.968592,-10.7625,266.14,-61.46
1078,110190,2.02642,0.12688,-1.617476,39.0425,202.0025,-90.055
1079,110288,1.196332,-2.068876,-1.307596,103.95,166.8625,-46.9875
1080,110386,2.407304,-3.1842,-2.231868,5.6875,142.4675,-12.845
1081,110484,1.874164,0.5514399999999999,-1.4398440000000001,-172.025,91.6125,2.17
1082,110583,0.9423280999999999,1.71288,-1.457168,-121.94,72.66,-19.565
1083,110681,0.542168,-0.444812,-0.940132,-27.65,-4.305,-23.9225
1084,110779,0.671488,-0.101992,-1.070184,-10.78,-5.39,-10.43
1085,110877,0.571692,0.437004,-1.046028,-23.9925,7.175,-9.38
1086,110975,0.5104479999999999,-0.1403,-0.877668,7.7525,-2.555,-1.365
1087,111073,0.46116,-0.022936,-0.9030440000000001,4.41,0.21,0.6825
1088,111171,0.46921199999999996,-0.060512,-0.8757159999999999,4.655,-0.63,-1.2425
1089,111269,0.477264,-0.063928,-0.8796200000000001,5.775,-0.1925,-2.9925
1090,111367,0.45432799999999995,-0.0183,-0.8874280999999999,6.09,1.2775,-3.9025
1091,111465,0.419192,-0.014396,-0.8908440999999999,8.5925,3.255,-3.5875
1092,111563,0.423828,-0.032695999999999996,-0.8810841,9.9575,6.51,-3.29
1093,111661,0.44505600000000006,-0.042456,-0.8547319999999999,10.6225,9.835,-3.08
1094,111759,0.44993599999999995,-0.061975999999999996,-0.86498,11.1125,12.145,-2.6425
1095,111857,0.42822,-0.047336,-0.876692,10.1675,13.7025,-2.835
1096,111955,0.439688,-0.05587601,-0.8632719999999999,8.61,16.38,-3.0975
1097,112053,0.477996,-0.09906401,-0.8493641,8.225,19.635,-3.955
1098,112151,0.489708,-0.09613601,-0.8364321,6.895,20.51,-6.4575
1099,112249,0.490196,-0.082716,-0.834968,4.5675,20.0375,-8.995
1100,112347,0.502884,-0.085156,-0.8239880999999999,3.255,20.1425,-10.465
1101,112445,0.508984,-0.053924,-0.8220360000000001,1.435,19.46,-11.6375
1102,112543,0.5165481,-0.040260000000000004,-0.8117880000000001,0.7525,18.55,-11.8475
1103,112641,0.518744,-0.029768,-0.8127641,0.735,17.78,-10.71
1104,112739,0.517768,-0.01586,-0.8105680000000001,1.155,17.01,-8.6625
1105,112837,0.51484,-0.033916,-0.8147161,2.345,17.185,-6.8775
1106,112936,0.515084,-0.039772,-0.813984,3.22,17.6925,-6.02
1107,113034,0.5158159999999999,-0.051972000000000004,-0.813984,4.235,18.095,-5.9325
1108,113132,0.494588,-0.05368,-0.8308200000000001,6.09,18.2525,-6.4575
1109,113230,0.480436,-0.074664,-0.8378960999999999,8.5925,20.51,-8.47
1110,113328,0.49312399999999995,-0.104432,-0.8149601,10.92,24.185,-11.0775
1111,113426,0.498004,-0.054655999999999996,-0.833992,6.335,25.97,-13.5275
1112,113524,0.536556,-0.068564,-0.8169121,8.855,29.855,-15.155
1113,113622,0.531676,-0.049776,-0.806176,9.135,29.9075,-16.94
1114,113720,0.553148,-0.04148,-0.801296,9.835,30.0825,-16.8
1115,113818,0.539972,-0.03416,-0.8247200000000001,9.3275,30.17,-14.805
1116,113916,0.505568,-0.037088,-0.8396040000000001,9.695,33.075,-12.5475
1117,114014,0.45603599999999994,-0.043432,-0.877912,12.5475,44.0125,-10.325
1118,114112,0.44652,-0.0671,-0.883036,15.9075,62.8075,-8.9075
1119,114210,0.49532,-0.025863999999999998,-0.869616,17.605,84.08751,-7.56
1120,114308,0.5397281,-0.010004,-0.834968,18.375,105.21,-4.5325
1121,114406,0.5614439999999999,-0.00366,-0.83814,18.4275,127.4,0.77
1122,114504,0.584136,-0.008540001,-0.8359440999999999,15.05,147.7175,6.825
1123,114602,0.57584,-0.00976,-0.8193521,9.135,169.8375,10.045
1124,114700,0.555832,-0.045872,-0.8601,4.445,195.2475,10.325
1125,114798,0.571448,-0.08637601,-0.918416,1.47,225.855,6.195
1126,114896,0.62464,-0.09028,-0.9269561,-0.875,260.1375,-2.38
1127,114994,0.702964,-0.118828,-1.050908,0.6125,304.2025,-10.395
1128,115092,0.727608,-0.16348,-1.132892,11.5675,367.3075,-19.4775
1129,115190,0.680516,-0.203496,-1.497184,30.73,448.4025,-33.495
1130,115288,0.81618,-0.041968,-1.637972,60.55,534.4325,-49.07
1131,115386,1.030412,-0.08100801,-1.355908,90.8425,572.2675,-62.7375
1132,115485,1.914668,0.20447200000000001,-1.446188,106.4525,573.405,-64.2075
1133,115583,3.382084,0.047580000000000004,-1.9190599999999998,97.26501,573.405,-60.725
1134,115681,3.110268,0.207156,-2.0813200000000003,99.24251,571.2,-4.515
1135,115779,2.28994,0.09247601,-1.4422840000000001,100.415,479.22,47.3725
1136,115877,2.46562,-0.7922680000000001,-3.2942440000000004,26.04,130.865,104.1775
1137,115975,1.354688,-0.51972,-2.313364,105.875,48.1425,75.32
1138,116073,0.48848800000000003,0.181536,-1.7580200000000001,230.125,220.0275,-57.015
1139,116171,2.094496,-0.354288,-1.98128,126.3675,277.515,-118.9475
1140,116269,2.423164,-1.1394799999999998,-3.6182760000000003,111.37,207.1125,-89.7575
1141,116367,1.642608,-1.00528,-3.2278759999999997,76.5625,3.5525,-76.5275
1142,116465,0.6541640000000001,-0.8784,-2.095716,4.9175,-187.53,-71.6975
1143,116563,-0.142984,-0.57706,-1.461804,-71.47,-273.5775,-93.6075
1144,116661,-0.39894,-0.23009200000000002,-1.259284,-108.0975,-286.8075,-119.875
1145,116759,-0.42187600000000003,0.041236,-1.130208,-104.685,-288.4175,-137.5675
1146,116857,-0.304512,0.157136,-1.011868,-71.6625,-284.76,-139.405
1147,116955,-0.15176800000000001,0.13859200000000002,-0.9423280999999999,-19.6175,-275.4675,-127.8725
1148,117053,0.006587999999999999,0.0122,-0.8757159999999999,36.05,-269.605,-110.7925
1149,117151,0.162748,-0.15054800000000002,-0.8010520000000001,79.9925,-271.285,-92.5925
1150,117249,0.339648,-0.29133600000000004,-0.7954399999999999,102.8475,-278.6,-75.425
1151,117347,0.52094,-0.36722,-0.80886,107.1525,-291.375,-60.0075
1152,117445,0.6480640000000001,-0.39918400000000004,-0.805932,97.615,-310.135,-45.0275
1153,117543,0.744444,-0.40211199999999997,-0.773724,80.08,-329.7,-30.555
1154,117641,0.791536,-0.341356,-0.758352,60.6375,-347.235,-16.695
1155,117739,0.84546,-0.278648,-0.79178,46.41,-358.575,-2.6775
1156,117837,0.8884040000000001,-0.22204000000000002,-0.815204,37.3625,-367.22,10.71
1157,117935,0.90646,-0.17641199999999999,-0.8369200000000001,32.55,-373.9225,22.2075
1158,118033,0.9413520000000001,-0.138348,-0.915732,32.2175,-375.5675,31.7275
1159,118131,1.003328,-0.093696,-1.026752,34.9475,-374.5875,39.515
1160,118230,1.120204,-0.060267999999999995,-1.197064,39.97,-372.54,44.1525
1161,118328,1.247572,-0.026595999999999998,-1.300276,46.865,-371.4375,46.445
1162,118426,1.3588360000000002,-0.035868000000000004,-1.314916,58.87,-371.3675,46.76
1163,118524,1.544764,-0.114924,-1.476932,77.3675,-363.4575,48.405
1164,118622,1.8934400000000002,-0.303048,-1.71898,98.875,-346.7275,56.6825
1165,118720,2.141588,-0.5192319999999999,-1.699704,107.17,-339.9375,73.745
1166,118818,2.501488,-0.773968,-1.5999079999999999,97.755,-333.7425,96.88
1167,118916,3.025356,-1.005524,-1.58112,75.4425,-318.64,120.785
1168,119014,3.5994879999999996,-0.978196,-1.520364,44.38,-312.515,139.23
1169,119112,3.817624,0.149572,-1.1812040000000001,12.495,-318.29,160.6325
1170,119210,3.984032,0.44066400000000006,-0.539972,54.32,-315.8925,196.42
1171,119308,3.881308,0.292556,0.190076,123.0775,-311.22,220.5875
1172,119406,3.5267760000000004,0.202764,0.7754321,138.8275,-302.5225,222.6875
1173,119504,3.133448,0.045872,1.438624,121.2575,-286.37,212.135
1174,119602,2.800144,-0.07442,1.9722520000000001,80.4475,-251.0025,182.1225
1175,119700,2.62422,-0.017568,2.045208,34.2125,-185.5,134.8375
1176,119798,2.768668,0.395036,1.967616,-1.155,-116.1825,84.5775
1177,119896,2.7908720000000002,0.6258600000000001,1.9595639999999999,-2.7125,-73.815,43.75
1178,119994,3.241784,0.304268,2.545408,14.35,-21.91,16.38
1179,120092,3.065372,-0.692716,2.1291439999999997,-59.8325,92.0325,7.385
1180,120190,-0.7883640000000001,-0.5724239999999999,2.3250759999999997,-129.85,198.345,20.615
1181,120288,-1.43838,0.6378159999999999,-2.194292,-147.9275,262.0275,45.6925
1182,120386,1.64212,1.41154,-2.144272,-74.4275,417.1825,74.1475
1183,120484,2.989976,2.3419119999999998,-0.496296,-99.085,417.97,100.905
1184,120582,3.182248,3.0746439999999997,-3.0402400000000003,-51.695,335.8425,46.8125
1185,120680,2.3963240000000003,2.374852,-3.113196,21.42,243.2675,-52.605
1186,120779,1.693848,0.9228081,-1.435208,41.0025,156.31,-112.2975
1187,120877,0.8730319999999999,-1.019432,-0.696376,87.46500999999999,115.535,-108.7625
1188,120975,0.525088,-2.82674,-0.484584,94.0625,113.4875,-58.555
1189,121073,1.4576559999999998,-4.1423879999999995,0.11028800000000001,-26.215,106.8725,-27.44
1190,121171,1.8770919999999998,0.337696,-1.324188,-248.325,92.1725,-35.28
1191,121269,1.4186159999999999,2.13988,-2.6510599999999998,-214.445,85.2425,-61.0925
1192,121367,0.649528,0.283528,-1.099952,-79.94,-22.2775,-56.42
1193,121465,0.5504641,-0.194224,-0.97478,-22.6975,-31.8325,-33.495
1194,121563,0.583404,0.599996,-1.045784,-39.1825,-8.12,-24.3075
1195,121661,0.547292,-0.09028,-0.8671761,-2.94,-10.9375,-11.6025
1196,121759,0.44164,0.049532,-0.9079241,-0.49,-6.58,-5.5125
1197,121857,0.479704,-0.030012,-0.862784,1.8375,-5.3025,-5.285
1198,121955,0.44993599999999995,-0.03782,-0.8698601,4.2875,-4.515,-5.425
1199,122053,0.447496,0.0183,-0.863516,3.2375,-2.8525,-6.5625
1200,122151,0.458232,-0.021472,-0.8605879999999999,5.4075,-0.805,-5.9675
1201,122249,0.41602,-0.01708,-0.883768,6.93,1.2425,-5.3725
1202,122347,0.439932,-0.043188,-0.85156,6.72,3.9025,-5.74
1203,122445,0.47946000000000005,-0.059536,-0.8308200000000001,6.2475,5.3725,-6.3
1204,122543,0.46335600000000005,-0.047580000000000004,-0.8544879999999999,4.34,4.4625,-7.5425
1205,122641,0.44066400000000006,-0.021472,-0.8769360999999999,2.0825,3.43,-9.1
1206,122739,0.466528,-0.07710399999999999,-0.8586360000000001,1.96,4.41,-10.08
1207,122837,0.46896800000000005,-0.124196,-0.85034,1.505,4.27,-12.285
1208,122935,0.47702,-0.07832401,-0.84546,-2.0825,1.9075,-16.1525
1209,123033,0.471896,-0.063684,-0.8581479999999999,-4.4625,-0.4725,-18.865
1210,123131,0.470188,-0.07637200000000001,-0.856196,-5.215,-1.9425,-20.4925
1211,123229,0.47775200000000007,-0.024156,-0.859368,-6.9475,-2.45,-22.75
1212,123328,0.48678,0.011956,-0.8581479999999999,-6.9125,-2.065,-23.3975
1213,123426,0.489464,0.040504000000000005,-0.8520479999999999,-5.0925,0.175,-21.6475
1214,123524,0.498004,0.050263999999999996,-0.84424,-3.1675,3.7625,-17.9375
1215,123622,0.49776000000000004,0.005368,-0.8430200999999999,-1.26,7.0175,-13.2475
1216,123720,0.457988,0.055388,-0.8532681000000001,-4.0075,9.1,-8.995
1217,123818,0.41113999999999995,0.059536,-0.8759601,-3.3425,15.7675,-5.0925
1218,123916,0.489464,-0.032208,-0.841556,9.3975,26.3375,-3.675
1219,124014,0.48116800000000004,-0.02562,-0.8447280999999999,6.2125,30.4675,-4.725
1220,124112,0.48995200000000005,-0.057339999999999995,-0.8493641,8.2775,34.2125,-6.4225
1221,124210,0.487756,-0.09613601,-0.8457040000000001,7.6825,35.6825,-10.7625
1222,124308,0.490196,-0.09711201,-0.839116,6.7725,38.7275,-17.78
1223,124406,0.48214399999999996,-0.080276,-0.8510719999999999,5.88,42.4375,-25.305
1224,124504,0.490928,-0.054655999999999996,-0.8371639999999999,3.99,46.935,-30.8
1225,124602,0.494832,0.002928,-0.83814,2.765,52.6925,-33.2325
1226,124700,0.48726800000000003,0.027816000000000004,-0.8388721,2.625,61.74,-31.4825
1227,124798,0.475312,0.023424,-0.85156,4.1825,75.635,-26.2325
1228,124896,0.484828,0.055388,-0.8342360000000001,4.9875,93.625,-20.3525
1229,124994,0.49605200000000005,0.05856,-0.8322841000000001,7.2975,115.0975,-13.755
1230,125092,0.5631520000000001,0.057584,-0.8337481,7.1225,134.6975,-5.95
1231,125190,0.543632,0.037576,-0.8669319999999999,1.995,150.4825,0.7875
1232,125288,0.548024,-0.011468,-0.8525360000000001,-4.6025,169.855,4.375
1233,125386,0.5734,-0.02928,-0.8608319999999999,-14.245,196.595,2.1
1234,125484,0.49654,-0.06075601,-0.8962120000000001,-24.7975,225.9075,-6.16
1235,125582,0.571448,-0.06124401,-0.9413520000000001,-35.3675,261.905,-20.4225
1236,125681,0.6326921,-0.061488,-1.006744,-44.66,314.195,-39.1825
1237,125779,0.6673399999999999,-0.188612,-1.171932,-53.3575,391.9125,-61.88
1238,125877,0.7390760000000001,-0.24863600000000002,-1.4396,-55.79,496.79,-93.1
1239,125975,0.7983680000000001,-0.124196,-1.7741240000000003,-58.8,567.5075,-124.985
1240,126073,1.0467600000000001,-0.06636801,-1.69458,-26.2325,573.3875,-137.3575
1241,126171,1.82024,-0.476288,-1.4593639999999999,29.085,573.405,-123.935
1242,126269,3.381596,0.279136,-2.257732,47.4775,573.3875,-82.285
1243,126367,3.152968,0.714676,-1.494744,70.5425,573.0025,-42.875
1244,126465,2.4748919999999996,-0.305732,-1.9144240000000001,118.09,497.6125,16.4325
1245,126563,2.983876,-0.174216,-3.569964,103.845,198.065,45.6575
1246,126661,2.318732,-0.286456,-2.590548,167.5625,80.4475,55.1425
1247,126759,0.694912,-0.30353600000000003,-2.8308880000000003,222.565,168.2625,-77.665
1248,126857,1.60552,-0.7168720000000001,-1.327848,28.455,115.6575,-137.445
1249,126955,2.6949799999999997,-1.194624,-3.224216,55.055,129.7975,-99.7325
1250,127053,1.919548,-0.9318360000000001,-3.194692,113.3125,-11.6025,-65.8875
1251,127151,0.644892,-0.8281360999999999,-1.838296,60.2525,-203.2625,-34.79
1252,127249,-0.328424,-0.7625,-1.096536,28.2275,-274.8375,-10.85
1253,127347,-0.57462,-0.6944241,-0.916464,13.755,-254.625,-1.785
1254,127445,-0.467016,-0.407968,-0.8249639999999999,3.2025,-242.3575,6.65
1255,127543,-0.29377600000000004,-0.143716,-0.7224841,0.455,-253.0675,20.4225
1256,127641,-0.050263999999999996,-0.018788,-0.725168,13.79,-257.4775,37.3275
1257,127739,0.17543599999999998,0.053436000000000004,-0.7788480999999999,39.8475,-254.2925,56.665
1258,127837,0.289628,0.048556,-0.789828,66.43,-263.2525,77.2275
1259,127936,0.41455600000000004,0.05977999999999999,-0.820572,84.08751,-278.0575,96.72251
1260,128034,0.538752,0.082228,-0.811056,88.9175,-297.605,113.4
1261,128132,0.5777920999999999,0.09247601,-0.779092,80.5525,-322.9625,124.425
1262,128230,0.612196,0.223992,-0.8215481,64.27750999999999,-342.055,126.875
1263,128328,0.6405,0.429684,-0.892552,48.1775,-355.145,122.045
1264,128426,0.687592,0.6539201,-0.9347639999999999,41.9825,-367.5875,111.79
1265,128524,0.752984,0.87718,-1.0201639999999998,48.0375,-377.895,94.95501
1266,128622,0.8740081000000001,1.067256,-1.119716,67.935,-384.3175,71.295
1267,128720,0.9803921,1.146312,-1.149972,97.755,-392.21,42.0875
1268,128818,1.047492,1.079456,-1.139724,130.8125,-398.9475,11.27
1269,128916,1.1094680000000001,0.942572,-1.12362,156.765,-402.325,-17.115
1270,129014,1.231468,0.828624,-1.1951120000000002,173.88,-401.5725,-40.3375
1271,129112,1.4217879999999998,0.759572,-1.241716,185.4825,-396.305,-54.7225
1272,129210,1.4337440000000001,0.756156,-1.229516,193.9175,-387.59,-57.96
1273,129308,1.393484,0.695156,-1.334436,200.83,-362.5825,-55.5975
1274,129406,1.779736,0.62708,-1.854888,207.8825,-330.8725,-54.775
1275,129504,2.4461,0.559248,-2.23138,214.375,-319.165,-56.315
1276,129602,2.892376,0.5206960999999999,-2.197708,214.6725,-336.98,-53.7075
1277,129700,3.2095759999999998,0.538508,-2.045696,209.8425,-354.655,-41.755
1278,129798,3.22324,0.9379360000000001,-1.525976,201.2675,-368.8825,-23.4325
1279,129896,3.0378,1.060912,-0.859856,190.2075,-380.52,-10.99
1280,129994,3.0102279999999997,1.036024,-0.422608,165.725,-367.2025,-17.5525
1281,130092,3.0209639999999998,0.9296399999999999,0.1769,122.64,-340.3575,-32.8125
1282,130190,2.83284,0.861808,0.992348,65.43251,-310.52,-49.665
1283,130288,2.675216,0.90402,1.5159719999999999,20.02,-255.9025,-62.4925
1284,130386,2.547604,0.942816,1.835368,5.8275,-185.3075,-64.6275
1285,130484,2.5705400000000003,1.085068,1.946388,12.6175,-112.0875,-58.7125
1286,130582,2.733532,0.9901521000000001,1.821948,25.375,-46.305,-49.0875
1287,130680,2.806244,0.8193521,1.551596,22.5225,1.4525,-44.9225
1288,130778,2.46562,0.091744,1.6704240000000001,-17.5175,33.18,-51.9225
1289,130876,0.8437520000000001,0.031232,0.727608,-216.055,90.3875,-87.5875
1290,130975,-1.084336,-0.9825879999999999,-2.545652,-172.3925,121.38,-100.3275
1291,131073,-1.671888,-0.48653599999999997,-1.819264,-182.455,162.82,-132.0375
1292,131171,0.1159,-0.009272001,0.674172,-273.9275,253.33,-77.5775
1293,131269,2.522716,1.34566,-1.054568,-157.99,375.375,11.935
1294,131367,2.446344,1.185352,-2.097668,-123.7775,345.2925,51.5725
1295,131465,2.0996200000000003,0.9406200000000001,-1.849764,-132.8775,260.3825,28.735
1296,131563,1.2900280000000002,0.8335040000000001,-1.066768,-148.085,224.665,3.99
1297,131661,0.49312399999999995,0.230336,-0.802272,-89.79251,218.5925,30.835
1298,131759,0.62464,0.088328,-1.8275599999999999,-87.90250999999999,230.195,51.0825
1299,131857,3.44772,1.050176,-4.469104,-169.1025,149.5375,30.275
1300,131955,2.105232,0.945744,-0.2074,-248.7975,-32.9525,-59.6575
1301,132053,-0.099552,0.279868,-1.056764,89.635,6.44,-4.3575
1302,132151,0.582916,-0.063196,-0.983564,-62.4575,-0.28,-7.14
1303,132249,0.8042239999999999,0.070516,-0.8103239999999999,15.2075,-10.01,-2.94
1304,132347,0.46848,0.032208,-0.8866961,-17.4825,-6.5975,0.14
1305,132445,0.567056,-0.000244,-0.8447280999999999,-6.8425,-4.795,6.09
1306,132543,0.54656,-0.035136,-0.8552200000000001,-1.435,1.5575,4.235
1307,132641,0.5009319999999999,0.200812,-0.850096,-6.6325,6.2475,4.8125
1308,132739,0.5206960999999999,-0.025131999999999998,-0.845216,7.105,15.96,14.8575
1309,132837,0.48702399999999996,0.00244,-0.87474,9.1525,23.205,17.0275
1310,132935,0.5309441,-0.046848,-0.8378960999999999,6.4225,26.7925,15.645
1311,133034,0.5185,-0.03416,-0.8493641,7.5075,27.8425,14.105
1312,133132,0.49898000000000003,-0.039284,-0.8605879999999999,6.4225,29.4175,12.04
1313,133230,0.486048,-0.047336,-0.8908440999999999,8.225,32.0075,10.64
1314,133328,0.514352,-0.07612801,-0.8383841000000001,9.3275,35.07,8.365
1315,133426,0.5160600000000001,-0.077348,-0.803492,10.36,40.04,5.11
1316,133524,0.48995200000000005,-0.085156,-0.855708,11.9875,45.4125,2.2925
1317,133622,0.5023960999999999,-0.102968,-0.83814,14.3325,51.8875,-1.645
1318,133720,0.51362,-0.112728,-0.8108121,13.51,57.575,-6.58
1319,133818,0.540216,-0.06832001,-0.787144,12.6525,61.8975,-10.955
1320,133916,0.57584,-0.06661201,-0.7759199999999999,12.705,65.03,-11.7425
1321,134014,0.593896,-0.057584,-0.768356,13.44,65.625,-10.4125
1322,134112,0.603168,-0.063928,-0.764208,12.8275,65.1175,-9.4675
1323,134210,0.6178081,-0.055144000000000006,-0.749812,11.9525,64.54,-8.4
1324,134308,0.64294,-0.05636401,-0.733464,11.0075,62.825,-7.105
1325,134406,0.644404,-0.052948,-0.7332201,11.0425,59.15,-5.32
1326,134504,0.658068,-0.05977999999999999,-0.709796,10.3425,55.0025,-3.8325
1327,134602,0.6736840000000001,-0.05977999999999999,-0.6939361,9.695,50.575,-2.275
1328,134700,0.681248,-0.056608000000000006,-0.6902761,8.7325,45.4475,-0.945
1329,134798,0.672708,-0.06539201,-0.6985720999999999,7.9625,39.9875,-0.07
1330,134896,0.6646561,-0.080764,-0.7056479999999999,8.1725,35.385,0.21
1331,134994,0.6653880999999999,-0.090036,-0.702476,8.26,31.7275,-0.8400001
1332,135093,0.670512,-0.089304,-0.70028,8.61,28.7525,-2.415
1333,135191,0.6753920999999999,-0.089304,-0.6939361,9.3275,26.355,-3.2375
1334,135289,0.684176,-0.090036,-0.687348,9.6075,23.5725,-4.13
1335,135387,0.690764,-0.081252,-0.6790520999999999,9.9225,20.3,-4.76
1336,135485,0.6954,-0.077348,-0.6844201,10.3775,16.94,-4.795
1337,135583,0.69052,-0.067344,-0.69296,10.6575,14.63,-4.375
1338,135681,0.686616,-0.057096,-0.7044279999999999,11.69,13.93,-3.3425
1339,135779,0.6802720999999999,-0.068076,-0.698816,14.0175,14.9275,-1.2775
1340,135877,0.684176,-0.085156,-0.6790520999999999,16.0125,15.6275,0.1925
1341,135975,0.676856,-0.088328,-0.6993041,17.29,15.5925,0.525
1342,136073,0.662704,-0.09320801,-0.718824,19.285,17.4825,0.595
1343,136171,0.6505041,-0.07564,-0.7378560000000001,21.665,22.575,0.6125
1344,136269,0.658312,-0.05856,-0.7500560000000001,24.71,30.0475,1.19
1345,136367,0.659532,-0.062952,-0.7622561,29.68,39.76,3.01
1346,136465,0.6663640000000001,-0.052948,-0.8178880999999999,35.3325,51.6775,5.5125
1347,136563,0.6653880999999999,-0.035624,-0.8869401,45.815,67.83,8.8725
1348,136661,0.661728,0.014396,-0.9613601,62.9125,90.09000999999999,14.0875
1349,136759,0.7168720000000001,0.039284,-1.086044,85.645,117.53,21.8925
1350,136857,0.754692,0.235704,-1.331752,120.96,148.5925,32.7075
1351,136955,0.856684,0.274744,-1.6623720000000002,183.7675,185.5525,52.2725
1352,137053,0.702476,0.448716,-1.84464,289.0825,223.195,77.9275
1353,137151,0.9198799999999999,0.30378,-2.16062,406.0175,253.015,105.91
1354,137250,1.0858,0.7820199999999999,-2.079368,520.0125,269.7625,151.3575
1355,137348,1.634556,1.1807159999999999,-2.0681439999999998,571.4275,250.6525,186.69
1356,137446,1.713124,0.8335040000000001,-1.261724,573.405,201.775,194.285
1357,137544,1.592832,0.521184,0.09516001,573.405,157.5,184.8175
1358,137642,1.13704,0.5292359999999999,-0.172508,573.3875,88.27,156.17
1359,137740,1.23708,1.068476,-0.797636,573.405,28.1575,114.5025
1360,137838,1.056032,0.42944,-0.329644,573.405,53.5675,86.8
1361,137936,0.615368,-0.424804,-0.7707961,573.405,-3.36,49.9975
1362,138034,0.615124,-1.548668,0.534848,561.2425,-145.3725,-21.21
1363,138132,2.5803,-1.885144,-1.4576559999999998,449.435,-103.39,-54.495
1364,138230,1.8407360000000001,-1.0438319999999999,-1.7814439999999998,256.06,-195.3,-67.97
1365,138328,1.178764,-0.520208,-1.249768,99.8025,-326.4275,-57.8375
1366,138426,0.8591241,0.0,-1.025288,25.48,-377.86,-52.815
1367,138524,0.747128,0.642452,-0.9945440000000001,-11.3925,-389.8125,-53.6025
1368,138622,0.732244,1.1150799999999998,-0.9352520000000001,-14.6825,-387.3275,-55.65
1369,138720,0.7300479999999999,1.4513120000000002,-0.8518040000000001,6.8425,-379.505,-62.58
1370,138818,0.7176041,1.7336200000000002,-0.76372,38.885,-369.285,-78.7675
1371,138916,0.7139439999999999,1.8824599999999998,-0.737124,80.955,-356.7375,-100.87
1372,139014,0.8086161000000001,1.997384,-0.713212,126.5775,-345.87,-125.965
1373,139112,0.9833200000000001,1.9715200000000002,-0.7732359999999999,167.93,-341.1625,-152.04
1374,139210,1.15778,1.88002,-0.8569280999999999,197.225,-339.9025,-177.1175
1375,139308,1.3346799999999999,1.741428,-0.90036,217.035,-343.6475,-197.715
1376,139406,1.44692,1.5921,-0.8744960999999999,222.2325,-355.7225,-214.83
1377,139504,1.525488,1.458144,-0.8222799999999999,214.34,-368.445,-229.985
1378,139602,1.498648,1.3912879999999999,-0.712724,196.385,-378.105,-244.09
1379,139701,1.403732,1.319552,-0.643428,177.975,-378.0525,-253.9075
1380,139799,1.304668,1.19316,-0.633424,163.8525,-368.48,-256.095
1381,139897,1.277096,1.023824,-0.684664,152.81,-354.55,-249.7425
1382,139995,1.289052,0.856196,-0.6695361,139.1075,-341.8625,-237.86
1383,140093,1.314916,0.674172,-0.708576,121.5375,-331.7125,-225.4175
1384,140191,1.348588,0.5692520000000001,-0.758108,100.485,-323.9425,-215.39
1385,140289,1.3407799999999999,0.48214399999999996,-0.759328,81.97001,-321.23,-206.955
1386,140387,1.258308,0.442616,-0.708576,68.74,-316.8725,-198.03
1387,140485,1.199748,0.374784,-0.721264,64.68,-304.1325,-185.6575
1388,140583,1.2214639999999999,0.28011199999999997,-0.7666480999999999,65.6075,-289.9575,-170.2225
1389,140681,1.35664,0.187392,-0.853756,61.5825,-278.7225,-155.715
1390,140779,1.601616,0.183,-0.909632,52.57,-273.84,-146.8775
1391,140877,1.870016,0.169336,-0.8403360000000001,42.6825,-278.4425,-145.1275
1392,140975,2.064972,0.104676,-0.639524,36.3475,-287.5775,-150.0275
1393,141073,2.223816,0.007564001,-0.360632,31.675,-294.0525,-159.985
1394,141171,2.4034,-0.063928,-0.053924,29.4875,-289.87,-171.7975
1395,141269,2.535404,-0.07515201,0.25254,32.48,-272.2475,-180.8975
1396,141367,2.583716,-0.08466801,0.527772,44.5375,-242.62,-183.1725
1397,141465,2.5998200000000002,-0.11102000000000001,0.7517640999999999,65.765,-202.5625,-176.61
1398,141563,2.773792,-0.40357600000000005,1.557208,85.435,-153.1775,-167.0725
1399,141661,2.917752,-0.41577600000000003,1.6348,29.2075,-60.445,-165.4275
1400,141759,3.1107560000000003,-0.264496,1.579656,16.4675,-11.1475,-152.18
1401,141857,3.8410480000000002,-0.096868,1.979816,-33.7925,62.09,-129.9025
1402,141955,0.437004,0.6319600000000001,0.43505200000000005,-65.17,94.65751,-80.2725
1403,142053,0.506544,-0.927688,-2.882616,69.52750999999999,123.4625,-27.405
1404,142151,0.334768,-0.9237841,-1.8541560000000001,33.46,98.96251,-12.88
1405,142249,1.456192,0.075396,-0.5575399999999999,-51.0475,119.0,-10.185
1406,142348,1.544276,0.23228800000000002,-1.580632,-32.6725,123.8475,0.035
1407,142446,0.707112,0.199104,-1.19804,-6.5625,81.25251,7.49
1408,142544,0.372832,0.454084,-1.158756,-17.36,67.4625,-8.6625
1409,142642,0.335988,0.56608,-0.9506241,-1.365,73.185,-16.0825
1410,142740,0.609268,0.409188,-1.127524,27.3525,77.0525,-8.05
1411,142838,0.9091440000000001,0.030744,-1.3054,52.9725,74.3925,-4.025
1412,142936,1.3644479999999999,-0.571936,-1.552084,50.785,55.1425,-5.8275
1413,143034,0.9118280000000001,-0.590968,-0.7283400999999999,20.3875,19.0225,4.9525
1414,143132,0.472872,-0.056608000000000006,-0.9972281,10.3775,11.585,10.92
1415,143230,0.32818,0.347456,-0.97478,13.23,8.5925,11.4275
1416,143328,0.59292,-0.015616,-1.041636,27.3875,6.1775,5.5475
1417,143426,0.638548,-0.273036,-0.9357401,37.9925,2.87,7.56
1418,143524,0.446032,-0.256688,-0.8466800999999999,39.795,0.42,12.0225
1419,143622,0.288896,-0.19178399999999998,-0.8054439999999999,36.33,1.5575,11.2875
1420,143720,0.372832,-0.2501,-0.81618,31.0275,5.0575,9.6075
1421,143818,0.449692,-0.364292,-0.8039801,25.7075,8.155,9.3275
1422,143916,0.41382399999999997,-0.35160399999999997,-0.7808001,17.6925,11.0425,10.4475
1423,144014,0.385276,-0.269864,-0.8015399999999999,8.89,13.7025,10.5875
1424,144112,0.390644,-0.240096,-0.79178,1.6975,15.1025,8.4
1425,144210,0.40967600000000004,-0.23741199999999998,-0.7722600000000001,-3.0275,17.675,7.0175
1426,144308,0.427976,-0.209352,-0.8210601000000001,-7.4375,19.5825,6.2475
1427,144406,0.4636,-0.14786400000000002,-0.8420440999999999,-10.78,20.8075,3.2375
1428,144504,0.465308,-0.17763199999999998,-0.815448,-9.6775,21.84,0.035
1429,144602,0.412116,-0.199348,-0.793244,-10.36,22.5575,-2.8
1430,144700,0.418216,-0.24424400000000002,-0.7788480999999999,-11.025,23.765,-3.2375
1431,144798,0.45115600000000006,-0.22472399999999998,-0.6834439999999999,-18.06,28.6825,-5.7225
1432,144896,0.416508,-0.22082,-0.6502600000000001,-23.1,32.865,-9.065
1433,144994,0.44773999999999997,-0.22326,-0.793976,-28.6125,38.4125,-13.44
1434,145092,0.539484,-0.116632,-0.787632,-31.605,42.1225,-15.3475
1435,145190,0.516304,-0.155428,-0.7200439999999999,-32.935,41.09,-17.9375
1436,145288,0.559736,-0.11102000000000001,-0.850096,-33.1625,41.545,-21.5075
1437,145386,0.5926760999999999,-0.061,-0.935008,-34.8075,38.29,-27.5975
1438,145484,0.559736,-0.08564401,-0.906948,-32.6025,34.405,-33.25
1439,145582,0.5577840000000001,-0.122976,-0.9091440000000001,-19.355,35.9625,-35.77
1440,145680,0.529968,-0.069784,-0.8849879999999999,-8.05,37.415,-38.08
1441,145778,0.510204,-0.02928,-0.8866961,2.345,38.675,-38.4125
1442,145877,0.5429,-0.08369201,-0.8418,13.5975,43.2075,-35.9625
1443,145975,0.52582,-0.1708,-0.74664,13.265,45.8675,-33.25
1444,146073,0.534604,-0.025376,-0.85644,5.53,49.1925,-31.0975
1445,146171,0.57584,-0.061732,-0.7956840999999999,10.7975,56.0175,-29.3125
1446,146269,0.540948,-0.1037,-0.785192,15.2075,62.0025,-28.945
1447,146367,0.529724,-0.13664,-0.7820199999999999,10.4125,64.9075,-30.6425
1448,146465,0.5826720000000001,-0.10248,-0.8117880000000001,5.8275,65.065,-32.725
1449,146563,0.6080479999999999,-0.08857201,-0.8215481,4.725,68.6175,-33.075
1450,146661,0.577548,-0.043188,-0.7283400999999999,6.1775,80.4825,-30.345
1451,146759,0.625616,0.01952,-0.794952,10.5525,115.78,-26.0575
1452,146857,0.6734399999999999,0.033916,-0.791292,10.9725,146.335,-17.465
1453,146955,0.6856399999999999,0.0427,-0.787876,4.445,168.805,-6.825
1454,147053,0.705892,0.028304000000000003,-0.8413120000000001,-3.395,192.01,4.2875
1455,147151,0.71126,-0.00122,-0.8866961,-9.59,216.3,11.6725
1456,147249,0.773968,-0.044896,-0.9440360999999999,-9.1,246.5925,16.6775
1457,147347,0.756156,-0.057339999999999995,-1.034316,-1.6625,284.6025,18.4975
1458,147445,0.779092,-0.054655999999999996,-1.141432,9.7475,334.285,19.005
1459,147543,0.71004,0.016592,-1.287588,32.0425,405.6325,22.9075
1460,147641,0.632448,0.180072,-1.738012,57.435,493.675,27.895
1461,147739,0.9469641,0.22082,-1.3298,89.1625,560.9275,38.99
1462,147837,1.7751,0.24522,-1.275876,119.665,573.3875,64.68
1463,147935,3.020232,0.24497600000000003,-2.703276,155.3475,573.405,85.92501
1464,148033,2.6766799999999997,-0.142496,-1.622844,139.8425,573.405,87.22
1465,148131,2.45098,0.305,-2.369728,126.21,541.5025,108.955
1466,148229,2.68034,-0.5980439999999999,-3.167608,111.825,298.13,159.7225
1467,148327,1.755824,0.122,-2.66082,78.5225,85.3825,77.9275
1468,148426,0.8508280999999999,1.3771360000000001,-4.441532,276.43,242.1125,-53.5675
1469,148524,1.0169920000000001,0.135664,-1.24196,255.3075,223.475,-128.6075
1470,148622,3.6026599999999998,-0.815204,-3.5741120000000004,180.4775,237.0725,-125.23
1471,148720,2.0498439999999998,-0.9152440000000001,-3.942064,197.1025,31.745,-126.1575
1472,148818,0.769576,-1.162416,-2.4695240000000003,93.17,-183.5225,-121.8175
1473,148916,0.294752,-0.8569280999999999,-1.7284959999999998,-13.475,-291.0075,-146.2475
1474,149014,-0.064172,-0.349896,-1.571848,-92.8725,-315.3675,-182.3675
1475,149112,-0.25961599999999996,-0.054655999999999996,-1.3346799999999999,-113.6975,-333.3575,-203.14
1476,149210,-0.226188,0.12395199999999999,-1.083604,-89.1275,-344.7675,-203.91
1477,149308,-0.064416,0.118096,-0.9237841,-40.81,-341.8975,-195.4925
1478,149406,0.088328,0.036112,-0.8605879999999999,14.175,-330.7325,-183.3125
1479,149504,0.237656,-0.09589201,-0.793976,64.96,-324.87,-167.3
1480,149602,0.40528400000000003,-0.27523200000000003,-0.744688,101.1675,-326.76,-149.94
1481,149700,0.5875520000000001,-0.41846000000000005,-0.7171161,118.685,-332.605,-134.0325
1482,149798,0.7517640999999999,-0.503128,-0.70638,119.0875,-341.8975,-117.04
1483,149896,0.864492,-0.537044,-0.6919841,110.7575,-349.8075,-97.07251
1484,149994,0.9352520000000001,-0.5826720000000001,-0.715408,99.8375,-356.265,-75.635
1485,150092,1.1163,-0.590236,-0.785924,89.2325,-362.5125,-52.815
1486,150190,1.14436,-0.37088000000000004,-0.77104,75.81,-373.1875,-25.0775
1487,150288,1.1636360000000001,-0.33818400000000004,-0.8713241,76.09000999999999,-378.945,4.655
1488,150386,1.1599760000000001,-0.379176,-0.952332,83.0725,-381.57,24.6575
1489,150484,1.16998,-0.365268,-0.9386681,83.52750999999999,-386.6625,39.97
1490,150582,1.206824,-0.18544000000000002,-1.080432,79.7825,-385.6475,53.375
1491,150680,1.3205280000000001,-0.08442401,-1.173884,86.7825,-379.015,64.015
1492,150778,1.464,-0.087108,-1.2038959999999999,98.82251,-370.615,70.4725
1493,150876,1.78974,-0.122,-1.5762399999999999,112.4725,-348.985,76.37001
1494,150974,2.13256,-0.14274,-1.7155639999999999,124.1975,-332.6575,88.53251
1495,151072,2.4878240000000003,-0.319152,-1.67262,127.1725,-330.54,103.775
1496,151170,3.037068,-0.541924,-1.8705040000000002,120.8375,-323.6975,117.0575
1497,151268,3.467484,0.029768,-1.509628,93.5375,-334.8625,128.6425
1498,151366,3.647556,0.216916,-1.271728,79.3975,-352.66,144.795
1499,151464,3.7185599999999996,0.22472399999999998,-0.7808001,94.2025,-359.415,151.0075
1500,151562,3.5797239999999997,0.383324,-0.197152,89.145,-361.8825,140.3675
1501,151661,3.2290959999999997,0.5058121,0.354044,86.5725,-342.65,128.415
1502,151759,2.961184,0.435784,0.9098761000000001,94.3425,-308.7,116.8475
1503,151857,2.8138080000000003,0.25058800000000003,1.414468,100.7125,-265.615,94.395
1504,151955,2.7764759999999997,0.188612,1.624796,94.2025,-205.38,57.0325
1505,152053,2.940688,0.449204,1.6662759999999999,90.4575,-137.445,16.7825
1506,152151,3.150528,0.653188,1.649684,100.66,-82.8275,-10.745
1507,152249,3.2473959999999997,0.471896,1.674084,125.5975,-36.12,-19.88
1508,152347,3.1656560000000002,0.11834000000000001,1.5067,136.045,5.53,-21.3325
1509,152445,3.8493440000000003,-1.101904,2.318,101.36,34.72,-14.77
1510,152543,1.414712,-1.35786,1.285392,-200.76,109.69,16.485
1511,152641,-1.2383,0.11394800000000001,-2.339472,-257.0225,163.38,32.305
1512,152739,-1.932236,1.504016,-1.87758,-251.195,197.3825,65.15250999999999
1513,152837,1.108004,2.751832,0.5968241,-254.45,304.4125,134.7675
1514,152935,1.944924,2.417552,-0.27523200000000003,6.6675,400.61,155.2775
1515,153033,2.079124,3.231292,-3.36476,-30.73,331.8525,52.7975
1516,153131,2.673264,2.156472,-2.49978,30.1525,291.865,-71.4175
1517,153229,2.202344,-0.10760399999999999,-1.443748,52.0975,189.9275,-128.59
1518,153327,1.38226,-2.466108,-0.989908,125.72,149.695,-74.04251
1519,153425,1.679452,-2.9199479999999998,-1.3473680000000001,39.025,142.38,-10.01
1520,153523,1.418372,-0.244,-0.430904,-121.9225,130.3925,21.07
1521,153621,0.989908,1.5225600000000001,-1.613328,-174.3525,90.1075,-10.115
1522,153719,0.7522521,0.509716,-1.4593639999999999,-70.3325,49.8225,-33.11
1523,153817,0.8369200000000001,-0.7078439999999999,-0.8964561,-35.385,27.195,-31.36
1524,153916,0.76372,0.0366,-1.1263040000000002,-47.8275,32.515,-19.53
1525,154014,0.57584,0.338916,-1.170712,-40.4075,20.475,-16.24
1526,154112,0.46238,-0.185684,-0.885476,-15.33,2.4325,-14.9625
1527,154210,0.496784,-0.128832,-0.8847440999999999,-14.8925,1.4,-13.86
1528,154308,0.53314,-0.012444,-0.9318360000000001,-17.8675,1.3125,-15.05
1529,154406,0.472384,-0.00122,-0.904752,-11.76,-1.96,-14.56
1530,154504,0.4404201,-0.051972000000000004,-0.8857200999999999,-7.455,-2.275,-13.265
1531,154602,0.42578,-0.07808001,-0.8540000000000001,-7.3325,-0.8225,-13.475
1532,154700,0.4148,-0.06563601,-0.8693719999999999,-8.82,1.33,-15.3475
1533,154798,0.407724,-0.0305,-0.9191481,-10.675,3.43,-16.485
1534,154896,0.461892,-0.100772,-0.8701040000000001,-11.3925,5.775,-17.57
1535,154994,0.49873599999999996,-0.035868000000000004,-0.8632719999999999,-12.7225,6.825,-19.2325
1536,155092,0.513864,-0.026351999999999997,-0.8620521000000001,-11.1125,7.5075,-19.3375
1537,155190,0.5063,-0.053436000000000004,-0.863516,-7.4025,7.98,-18.55
1538,155288,0.524112,-0.024156,-0.853756,-6.4575,8.19,-18.865
1539,155386,0.524112,-0.033184,-0.8488761,-4.445,8.2775,-17.8675
1540,155484,0.513376,-0.007320001,-0.849852,-3.92,7.8225,-16.3275
1541,155582,0.496296,-0.004636001,-0.8518040000000001,-2.6775,8.4875,-14.98
1542,155680,0.490928,-0.033428,-0.8332601000000001,-2.4325,10.1325,-13.2825
1543,155778,0.3782,0.08466801,-0.907192,-5.705,12.81,-10.8325
1544,155876,0.481412,-0.096624,-0.863516,3.78,22.61,-10.2025
1545,155974,0.47555600000000003,-0.02928,-0.8488761,2.3625,28.14,-12.355
1546,156072,0.48848800000000003,-0.034404000000000004,-0.839116,3.22,32.2175,-13.9125
1547,156171,0.494832,-0.0549,-0.8291120999999999,3.7975,35.7,-15.2775
1548,156269,0.51362,-0.035868000000000004,-0.8132520999999999,4.305,37.4325,-17.6575
1549,156367,0.534116,-0.012688,-0.79666,3.815,39.9,-20.475
1550,156465,0.533384,-0.023424,-0.8091041,5.25,41.6675,-22.0675
1551,156563,0.51362,-0.020252000000000003,-0.7954399999999999,5.005,41.0725,-23.17
1552,156661,0.5043479999999999,-0.044407999999999996,-0.821792,6.405,46.41,-23.765
1553,156759,0.498004,-0.074664,-0.812276,6.475,53.62,-25.6025
1554,156857,0.5011760000000001,-0.028304000000000003,-0.813496,5.25,61.95,-29.33
1555,156955,0.49824799999999997,-0.008296000999999999,-0.8398479999999999,5.67,72.06501,-30.45
1556,157053,0.48263199999999995,-0.022692,-0.8540000000000001,6.6675,87.0275,-28.98
1557,157151,0.49312399999999995,-0.011712,-0.8461921,4.795,107.695,-27.3175
1558,157249,0.563884,0.036112,-0.8581479999999999,2.6775,132.7375,-23.485
1559,157347,0.564372,0.050508,-0.8220360000000001,-1.505,155.2075,-18.1825
1560,157445,0.6095119999999999,0.07808001,-0.8193521,-10.0975,178.7625,-12.775
1561,157543,0.590968,0.047824,-0.8476561,-20.125,203.4025,-7.77
1562,157641,0.535092,-0.013908000000000002,-0.8447280999999999,-33.075,230.265,-6.4225
1563,157739,0.66368,-0.015616,-0.8476561,-49.105,260.295,-11.795
1564,157837,0.7005239999999999,-0.023668,-0.889868,-62.5275,297.8325,-21.6125
1565,157935,0.738588,-0.08637601,-0.9833200000000001,-68.1975,350.4725,-34.125
1566,158033,0.883524,-0.077836,-1.141432,-63.8925,425.915,-50.2775
1567,158131,0.785192,-0.09711201,-1.530124,-56.6475,518.6125,-68.0575
1568,158229,0.8342360000000001,-0.047580000000000004,-1.6967759999999998,-37.6775,571.2,-80.97251
1569,158327,1.3005200000000001,0.3416,-1.593564,-8.575,573.405,-82.39
1570,158425,3.0219400000000003,-0.014884,-1.582584,-1.9775,573.405,-75.775
1571,158524,3.185908,0.54778,-1.488644,0.4375,573.405,-31.4475
1572,158622,3.232268,-0.22496799999999997,-1.1241079999999999,27.7725,568.96,-14.9625
1573,158720,2.54858,-0.21032800000000001,-2.1935599999999997,41.3175,392.63,29.365
1574,158818,3.970856,-0.34867600000000004,-4.229252,-24.57,30.9575,40.0925
1575,158916,2.230404,-0.8620521000000001,-2.265052,142.9225,102.445,41.4575
1576,159014,0.74298,0.009516001,-3.6543879999999995,73.815,150.5875,-106.785
1577,159112,2.388028,-0.438956,-1.464,-97.3525,77.21,-117.8625
1578,159210,2.9941240000000002,-1.35664,-4.362476,22.785,131.0225,-56.945
1579,159308,1.5225600000000001,-0.9947881,-3.3974559999999996,8.2775,-85.47,-35.735
1580,159406,0.17836400000000002,-0.899384,-1.8695279999999999,-65.9225,-283.6225,-26.5825
1581,159504,-0.508252,-0.459696,-1.4271559999999999,-101.7625,-305.9,-40.46
1582,159602,-0.607316,-0.165432,-1.361032,-99.295,-284.515,-58.135
1583,159700,-0.41992399999999996,0.08466801,-1.2505,-71.61,-289.9225,-58.275
1584,159798,-0.256932,0.196664,-1.0321200000000001,-29.5925,-303.24,-47.18
1585,159896,-0.058072000000000006,0.128832,-0.9289081,21.7175,-300.405,-35.4725
1586,159994,0.159332,0.043676,-0.9093880999999999,66.5175,-297.4825,-27.23
1587,160092,0.369172,-0.043188,-0.889868,93.52,-307.475,-21.0175
1588,160190,0.540704,-0.082472,-0.868152,103.565,-322.6475,-16.205
1589,160288,0.6795401,-0.11955999999999999,-0.861808,104.58,-337.54,-10.3775
1590,160386,0.774456,-0.110776,-0.8274040000000001,100.1875,-351.645,-2.555
1591,160484,0.8488761,-0.07027201,-0.794952,94.3425,-362.7925,6.9825
1592,160582,0.9079241,-0.06490399999999999,-0.7808001,88.51501,-370.825,16.9925
1593,160680,0.9620920000000001,-0.047092,-0.808372,82.1625,-376.88,26.355
1594,160778,1.00528,-0.032208,-0.8591241,74.7425,-380.0825,34.7025
1595,160876,1.081896,-0.008784,-0.9757561,67.48001,-381.0275,41.825
1596,160974,1.185352,0.039528,-1.116544,60.9,-382.4625,47.7925
1597,161072,1.298324,0.09125599999999999,-1.2439120000000001,57.1725,-385.6475,52.7625
1598,161170,1.425936,0.149816,-1.347124,57.3475,-389.095,55.125
1599,161268,1.556476,0.137372,-1.470344,62.6675,-391.2475,53.9875
1600,161367,1.790716,0.10345599999999999,-1.687748,72.24,-388.675,51.1
1601,161465,2.1469560000000003,-0.03782,-2.002996,85.0675,-386.5575,53.165
1602,161563,2.589084,-0.22204000000000002,-2.151592,94.46500999999999,-390.5125,62.825
1603,161661,3.015596,-0.387716,-2.021784,93.0475,-405.2825,77.56
1604,161759,3.3123,0.186172,-1.550864,77.42,-417.725,95.5325
1605,161857,3.639504,0.28328400000000004,-1.412028,87.5525,-413.28,121.8175
1606,161955,3.8713040000000003,0.127368,-0.9325680000000001,114.415,-413.8575,132.7725
1607,162053,3.9140040000000003,0.071248,-0.268888,112.8575,-412.405,120.435
1608,162151,3.625596,0.10833599999999999,0.562176,96.49501,-384.02,99.575
1609,162249,3.2183599999999997,0.28157600000000005,1.30784,80.8675,-335.7375,82.67
1610,162347,2.978508,0.296948,1.762168,82.04,-269.7625,72.59
1611,162445,2.846748,0.1769,2.060824,79.1525,-197.015,59.8675
1612,162543,2.9868040000000002,0.238632,1.950292,60.9525,-126.56,37.2225
1613,162641,3.5719160000000003,0.578036,1.7219080000000002,50.7325,-66.64,11.4625
1614,162739,3.754428,0.526308,1.66652,68.9325,-35.9975,-6.23
1615,162837,3.516772,0.22716399999999998,1.4069040000000002,94.74501,-2.45,-15.225
1616,162935,3.048048,0.001464,0.97356,103.04,36.1025,-18.34
1617,163033,3.254716,-1.355664,2.224548,75.11,49.525,-8.68
1618,163131,-0.899384,-0.9964959999999999,-2.9341,-264.7575,87.3075,22.0675
1619,163229,-3.120516,0.734196,-2.9941240000000002,-205.0475,135.5375,61.81
1620,163327,-1.199016,2.428532,2.429752,-296.7825,253.785,75.9325
1621,163426,2.329224,1.6387040000000002,0.416264,-73.09751,430.255,119.4725
1622,163524,2.3553319999999998,2.8408919999999998,-1.9539520000000001,35.9625,394.7825,135.73
1623,163622,2.678388,2.347768,-3.11954,-14.28,348.4775,24.36
1624,163720,2.382904,1.628944,-2.021296,-20.895,246.715,-80.15
1625,163818,1.790716,-0.730536,-1.4579,65.8525,181.615,-97.86
1626,163916,1.5279280000000002,-1.808772,-1.290516,72.8875,165.4275,-49.14
1627,164014,1.275144,-1.637728,-1.244644,18.865,150.22,-3.885
1628,164112,1.60186,-0.5119121,-0.9652639999999999,-75.7225,126.525,8.1375
1629,164210,1.0462719999999999,0.892064,-1.454728,-139.9475,76.16001,-20.09
1630,164308,0.677344,0.43236800000000003,-1.2749,-60.8475,54.9325,-25.9875
1631,164406,0.8376520000000001,-0.39967199999999997,-1.0645719999999999,-37.9225,37.8875,-24.4125
1632,164504,0.8383841000000001,-0.12566,-1.057252,-34.3525,34.02,-13.895
1633,164602,0.636352,0.16909200000000002,-1.060424,-31.815,22.6275,-10.78
1634,164700,0.496296,-0.066856,-0.9484280999999999,-13.7025,10.465,-10.4825
1635,164798,0.449204,-0.165188,-0.8866961,-7.3325,8.995,-8.5575
1636,164896,0.49776000000000004,-0.046848,-0.9418401,-11.4625,9.87,-8.9425
1637,164994,0.499712,0.028304000000000003,-0.8949921000000001,-8.3475,6.8075,-10.115
1638,165092,0.4392,-0.046848,-0.868884,-0.945,5.39,-8.6275
1639,165190,0.412116,-0.09223200000000001,-0.855708,1.0325,5.39,-7.9625
1640,165288,0.386008,-0.118096,-0.8383841000000001,-1.1725,6.2475,-9.9925
1641,165386,0.435296,-0.10833599999999999,-0.865956,-4.48,7.5775,-12.18
1642,165484,0.468724,-0.037576,-0.863516,-8.295,9.3625,-13.4225
1643,165582,0.47067600000000004,-0.025863999999999998,-0.9018241,-10.3775,10.5525,-13.6675
1644,165680,0.48848800000000003,-0.074664,-0.8752280000000001,-11.725,12.145,-13.9825
1645,165778,0.521184,-0.09150001,-0.8544879999999999,-11.795,12.355,-15.05
1646,165876,0.521672,-0.049776,-0.84546,-11.1125,10.9025,-16.9225
1647,165975,0.5314321,-0.023180000000000003,-0.8493641,-8.4,9.485,-17.7275
1648,166073,0.5353359999999999,-0.03904,-0.8357,-5.425,8.8025,-17.1675
1649,166171,0.534848,-0.01586,-0.8308200000000001,-3.2725,7.84,-16.0125
1650,166269,0.528016,-0.0017079999999999999,-0.8400921,-1.2425,7.4375,-14.42
1651,166367,0.50264,-0.014884,-0.8471681000000001,1.2425,7.77,-12.0925
1652,166465,0.5023960999999999,-0.039528,-0.8403360000000001,4.1825,10.325,-10.9375
1653,166563,0.44676400000000005,-0.049776,-0.8427761,5.215,13.5975,-11.3225
1654,166661,0.419192,-0.053191999999999996,-0.861808,6.895,19.18,-12.3025
1655,166759,0.490684,-0.06563601,-0.8481440999999998,8.015,27.4925,-13.8775
1656,166857,0.49605200000000005,-0.043676,-0.826428,8.575,31.745,-16.205
1657,166955,0.49312399999999995,-0.057828,-0.8400921,9.5025,34.3,-18.3225
1658,167053,0.489464,-0.062464,-0.8457040000000001,9.3975,34.7375,-20.4225
1659,167151,0.518988,-0.034404000000000004,-0.8042239999999999,7.7875,37.0475,-21.7175
1660,167249,0.5382640000000001,-0.035624,-0.814472,8.4525,41.8775,-20.2475
1661,167347,0.51484,-0.031232,-0.8203280000000001,8.9425,45.29,-18.48
1662,167445,0.484584,-0.034404000000000004,-0.8254520000000001,9.835,53.515,-16.6775
1663,167543,0.43505200000000005,-0.05563200000000001,-0.864492,13.545,75.0925,-14.9975
1664,167641,0.44408000000000003,-0.081252,-0.8730319999999999,17.8675,104.825,-16.975
1665,167739,0.48873199999999994,-0.045627999999999995,-0.853024,18.7425,133.84,-20.93
1666,167837,0.576084,0.004392,-0.8149601,16.31,159.6,-21.035
1667,167935,0.5690081,0.034892,-0.8481440999999998,10.3425,182.595,-15.8725
1668,168033,0.589016,0.027572000000000003,-0.8398479999999999,2.87,205.555,-10.185
1669,168131,0.6178081,0.011956,-0.8291120999999999,-9.9925,235.0775,-8.015
1670,168230,0.587796,-0.031232,-0.9049959999999999,-23.0475,268.135,-10.255
1671,168328,0.6634359999999999,-0.07881200000000001,-0.91012,-32.83,306.4775,-18.1475
1672,168426,0.761524,-0.15982000000000002,-1.016748,-37.03,355.11,-31.08
1673,168524,0.735172,-0.25742,-1.16876,-28.1575,426.9475,-51.7825
1674,168622,0.8640040000000001,-0.160796,-1.583072,-11.375,518.4725,-80.5
1675,168720,1.035292,0.10345599999999999,-1.675548,14.4025,570.2725,-103.04
