,T,ax,ay,az,gx,gy,gz
0,175747,0.393816,-0.21838000000000002,-0.7659161,17.0975,-15.715,-25.97
1,175904,0.407724,-0.21520799999999998,-0.7834840000000001,50.085,-83.545,-173.845
2,176002,0.444812,-0.219356,-0.8369200000000001,-15.7675,-95.6725,-359.0825
3,176100,0.4404201,-0.219112,-0.8420440999999999,27.4225,-99.7325,-81.935
4,176198,0.439932,-0.219112,-0.8464360000000001,0.21,-7.2975,-7.0525
5,176296,0.440176,-0.21862399999999999,-0.8432639999999999,0.0175,-6.2475,-6.44
6,176394,0.43432,-0.219112,-0.843508,0.0875,-6.1425,-6.335
7,176492,0.4392,-0.21886799999999998,-0.84546,0.0525,-5.985,-6.475
8,176590,0.44408000000000003,-0.22326,-0.8422879999999999,0.14,-5.845,-6.44
9,176688,0.441396,-0.217892,-0.8461921,0.2625,-5.7925,-6.44
10,176786,0.441396,-0.219844,-0.8466800999999999,0.3675,-5.8975,-6.51
11,176884,0.44383599999999995,-0.217892,-0.844972,0.42,-5.74,-6.51
12,176982,0.44334799999999996,-0.219844,-0.8457040000000001,0.4375,-5.635,-6.4575
13,177080,0.441884,-0.220088,-0.8432639999999999,0.455,-5.565,-6.3875
14,177178,0.441884,-0.21667199999999998,-0.844972,0.42,-5.67,-6.51
15,177276,0.442616,-0.221796,-0.8427761,0.455,-5.775,-6.545
16,177374,0.44066400000000006,-0.21838000000000002,-0.84546,0.4025,-5.7575,-6.5975
17,177472,0.441396,-0.219112,-0.844972,0.2975,-5.95,-6.6325
18,177570,0.443592,-0.215696,-0.8457040000000001,0.21,-5.7925,-6.4575
19,177668,0.443104,-0.21813600000000002,-0.844972,0.3675,-5.775,-6.5275
20,177766,0.44090799999999997,-0.22106399999999998,-0.8466800999999999,0.4725,-5.7925,-6.3875
21,177864,0.4453,-0.213988,-0.8476561,0.49,-5.81,-6.4225
22,177962,0.439932,-0.22033200000000003,-0.8430200999999999,0.5775,-5.635,-6.37
23,178060,0.44115200000000004,-0.219356,-0.843508,0.5075,-5.74,-6.3
24,178159,0.44115200000000004,-0.217648,-0.84424,0.63,-5.705,-6.3875
25,178257,0.439932,-0.21862399999999999,-0.845216,0.6125,-5.81,-6.405
26,178355,0.439932,-0.21886799999999998,-0.8427761,0.5425,-5.6875,-6.3875
27,178453,0.441884,-0.22082,-0.843508,0.4025,-5.7225,-6.51
28,178551,0.44383599999999995,-0.21594000000000002,-0.847412,0.5075,-5.775,-6.5275
29,178649,0.44286000000000003,-0.21667199999999998,-0.844972,0.4025,-5.8625,-6.44
30,178747,0.444812,-0.219844,-0.8457040000000001,0.3675,-5.8975,-6.4575
31,178845,0.441884,-0.216428,-0.8464360000000001,0.42,-5.845,-6.4575
32,178943,0.443592,-0.220088,-0.8483879999999999,0.3675,-5.74,-6.37
33,179041,0.443592,-0.2196,-0.8466800999999999,0.3675,-5.81,-6.335
34,179139,0.44212799999999997,-0.21813600000000002,-0.844972,0.4025,-5.81,-6.405
35,179237,0.44164,-0.21886799999999998,-0.84424,0.4375,-5.8625,-6.4575
36,179335,0.440176,-0.22057600000000002,-0.8471681000000001,0.385,-5.845,-6.4575
37,179433,0.43798000000000004,-0.21838000000000002,-0.8439959999999999,0.35,-5.775,-6.5275
38,179531,0.43798000000000004,-0.22033200000000003,-0.844972,0.385,-5.67,-6.615
39,179629,0.442616,-0.21886799999999998,-0.8432639999999999,0.3325,-5.67,-6.5625
40,179727,0.441884,-0.21886799999999998,-0.8447280999999999,0.3325,-5.67,-6.5975
41,179825,0.44212799999999997,-0.21520799999999998,-0.84546,0.455,-5.6,-6.58
42,179923,0.44115200000000004,-0.220088,-0.845216,0.525,-5.6525,-6.51
43,180021,0.44115200000000004,-0.219356,-0.8459479999999999,0.5075,-5.5825,-6.44
44,180119,0.442616,-0.2196,-0.8437520000000001,0.49,-5.6,-6.4925
45,180217,0.44212799999999997,-0.21667199999999998,-0.8459479999999999,0.455,-5.7225,-6.51
46,180315,0.44286000000000003,-0.22106399999999998,-0.844484,0.49,-5.7225,-6.405
47,180413,0.444568,-0.219112,-0.846924,0.4375,-5.74,-6.3525
48,180511,0.44408000000000003,-0.21594000000000002,-0.8461921,0.595,-5.6875,-6.3875
49,180609,0.44286000000000003,-0.21667199999999998,-0.8437520000000001,0.6825,-5.7575,-6.405
50,180707,0.44212799999999997,-0.219356,-0.8464360000000001,0.7525,-5.74,-6.4225
51,180805,0.44286000000000003,-0.21716,-0.8447280999999999,0.7175,-5.6525,-6.37
52,180903,0.442616,-0.21862399999999999,-0.8461921,0.6825,-5.6525,-6.335
53,181001,0.44066400000000006,-0.2196,-0.8422879999999999,0.5775,-5.5825,-6.265
54,181100,0.43798000000000004,-0.21886799999999998,-0.8420440999999999,0.7175,-5.53,-6.2825
55,181198,0.438956,-0.22082,-0.844972,0.665,-5.5475,-6.335
56,181296,0.44115200000000004,-0.22057600000000002,-0.8464360000000001,0.595,-5.635,-6.44
57,181394,0.441884,-0.223748,-0.8413120000000001,0.4025,-5.565,-6.4575
58,181492,0.441884,-0.22057600000000002,-0.8437520000000001,0.4025,-5.7225,-6.4925
59,181590,0.44334799999999996,-0.22057600000000002,-0.8430200999999999,0.3675,-5.705,-6.4925
60,181688,0.44554399999999994,-0.217892,-0.846924,0.2975,-5.7925,-6.545
61,181786,0.441884,-0.22448,-0.8400921,0.315,-5.705,-6.5625
62,181884,0.443104,-0.217892,-0.8447280999999999,0.2975,-5.7925,-6.65
63,181982,0.44408000000000003,-0.22106399999999998,-0.844484,0.21,-5.7925,-6.5975
64,182080,0.44164,-0.217648,-0.84546,0.21,-5.7225,-6.58
65,182178,0.44090799999999997,-0.219356,-0.8439959999999999,0.2275,-5.6875,-6.615
66,182276,0.437492,-0.220088,-0.8459479999999999,0.1925,-5.7225,-6.51
67,182374,0.44383599999999995,-0.21618400000000002,-0.8427761,0.1925,-5.635,-6.51
68,182472,0.44066400000000006,-0.22277199999999997,-0.840824,0.21,-5.6,-6.51
69,182570,0.442616,-0.21594000000000002,-0.8457040000000001,0.2275,-5.635,-6.5625
70,182668,0.441396,-0.21886799999999998,-0.8457040000000001,0.21,-5.6525,-6.545
71,182766,0.441884,-0.21886799999999998,-0.8427761,0.28,-5.635,-6.475
72,182864,0.44066400000000006,-0.22033200000000003,-0.846924,0.35,-5.635,-6.5275
73,182962,0.44286000000000003,-0.216916,-0.8447280999999999,0.385,-5.67,-6.44
74,183060,0.44212799999999997,-0.21716,-0.844972,0.4725,-5.6175,-6.4225
75,183158,0.44164,-0.217648,-0.84424,0.525,-5.6875,-6.405
76,183256,0.44115200000000004,-0.220088,-0.8461921,0.5075,-5.6,-6.3875
77,183354,0.44212799999999997,-0.21862399999999999,-0.8427761,0.5075,-5.67,-6.4575
78,183452,0.441396,-0.22277199999999997,-0.843508,0.525,-5.6,-6.475
79,183550,0.44505600000000006,-0.217892,-0.8430200999999999,0.5775,-5.5825,-6.405
80,183648,0.44115200000000004,-0.21813600000000002,-0.8439959999999999,0.5775,-5.5825,-6.3525
81,183746,0.43773599999999996,-0.222284,-0.8461921,0.56,-5.5825,-6.37
82,183844,0.44164,-0.21667199999999998,-0.8461921,0.63,-5.635,-6.4225
83,183942,0.44066400000000006,-0.219356,-0.84424,0.7,-5.635,-6.3525
84,184040,0.441396,-0.2196,-0.84546,0.5775,-5.53,-6.3
85,184139,0.44115200000000004,-0.219356,-0.844484,0.595,-5.5125,-6.4225
86,184237,0.44090799999999997,-0.21813600000000002,-0.84546,0.5425,-5.495,-6.3875
87,184335,0.44286000000000003,-0.215452,-0.8447280999999999,0.5775,-5.53,-6.37
88,184433,0.438712,-0.22106399999999998,-0.8422879999999999,0.6125,-5.565,-6.2475
89,184531,0.438956,-0.2196,-0.8447280999999999,0.56,-5.5125,-6.44
90,184629,0.44505600000000006,-0.21447600000000003,-0.8420440999999999,0.3675,-5.46,-6.4925
91,184727,0.43505200000000005,-0.22326,-0.841556,0.21,-5.53,-6.4925
92,184825,0.4404201,-0.21813600000000002,-0.8471681000000001,0.3675,-5.5825,-6.4575
93,184923,0.44164,-0.21838000000000002,-0.8422879999999999,0.42,-5.6175,-6.4575
94,185021,0.438956,-0.219356,-0.8447280999999999,0.3675,-5.5825,-6.405
95,185119,0.443104,-0.217648,-0.84546,0.4025,-5.5125,-6.405
96,185217,0.447984,-0.2196,-0.8464360000000001,0.4725,-5.635,-6.44
97,185315,0.44408000000000003,-0.21447600000000003,-0.84546,0.525,-5.6525,-6.44
98,185413,0.44383599999999995,-0.22326,-0.841556,0.595,-5.53,-6.4225
99,185511,0.44822799999999996,-0.213988,-0.8459479999999999,0.63,-5.635,-6.3875
100,185609,0.44725200000000004,-0.21886799999999998,-0.8464360000000001,0.77,-5.635,-6.2825
101,185707,0.449204,-0.21862399999999999,-0.85034,0.9625,-5.7575,-6.16
102,185805,0.44066400000000006,-0.219112,-0.84424,1.33,-6.0025,-5.9675
103,185903,0.439688,-0.21838000000000002,-0.8427761,1.26,-6.02,-6.0375
104,186001,0.43651599999999996,-0.223016,-0.8398479999999999,0.91,-5.985,-6.195
105,186099,0.444324,-0.21838000000000002,-0.84546,0.665,-5.88,-6.3175
106,186197,0.44286000000000003,-0.21886799999999998,-0.844484,0.8925,-5.845,-6.2825
107,186295,0.4392,-0.21594000000000002,-0.8427761,1.3825,-5.95,-6.1425
108,186393,0.44212799999999997,-0.21667199999999998,-0.8466800999999999,1.4875,-5.9325,-6.09
109,186491,0.44773999999999997,-0.219356,-0.8483879999999999,1.575,-6.055,-6.0725
110,186589,0.44090799999999997,-0.219844,-0.8430200999999999,1.8725,-6.1775,-6.0025
111,186687,0.437004,-0.223016,-0.8388721,1.82,-6.265,-6.055
112,186785,0.433832,-0.222284,-0.8383841000000001,1.5225,-6.2125,-6.125
113,186883,0.437492,-0.221796,-0.8413120000000001,1.155,-6.1075,-6.3
114,186981,0.437004,-0.221796,-0.8430200999999999,0.8925,-5.985,-6.475
115,187079,0.438712,-0.22057600000000002,-0.84424,0.7875,-5.915,-6.545
116,187177,0.44773999999999997,-0.2196,-0.846924,0.875,-5.81,-6.4925
117,187275,0.450912,-0.213988,-0.8493641,1.1725,-5.985,-6.37
118,187373,0.448716,-0.21862399999999999,-0.8525360000000001,1.7325,-6.475,-6.1075
119,187472,0.447008,-0.22106399999999998,-0.847412,2.45,-6.755,-6.0375
120,187570,0.44164,-0.22033200000000003,-0.8430200999999999,2.905,-7.1925,-5.915
121,187668,0.440176,-0.217892,-0.8427761,3.1325,-7.2625,-5.95
122,187766,0.4404201,-0.22033200000000003,-0.84546,3.185,-7.1925,-5.8275
123,187864,0.438712,-0.22448,-0.8398479999999999,3.185,-7.105,-5.7575
124,187962,0.44212799999999997,-0.22496799999999997,-0.84424,3.1325,-7.0525,-5.775
125,188060,0.432612,-0.22496799999999997,-0.8371639999999999,3.0625,-7.14,-5.7925
126,188158,0.429196,-0.229604,-0.8332601000000001,2.73,-7.07,-6.265
127,188256,0.43358800000000003,-0.2257,-0.839116,2.135,-6.6675,-6.23
128,188354,0.44408000000000003,-0.221552,-0.8461921,1.8725,-6.3525,-6.3175
129,188452,0.437492,-0.22496799999999997,-0.8410681000000001,1.9775,-6.475,-6.2125
130,188550,0.444568,-0.228384,-0.8457040000000001,2.0125,-6.4575,-6.16
131,188648,0.439688,-0.2196,-0.8476561,1.96,-6.58,-6.125
132,188746,0.43334399999999995,-0.23301999999999998,-0.83814,2.0125,-6.72,-6.055
133,188844,0.4331,-0.228872,-0.8361879999999999,1.7675,-6.545,-6.2475
134,188942,0.42944,-0.229848,-0.834724,1.365,-6.2475,-6.265
135,189040,0.44286000000000003,-0.22643200000000002,-0.8459479999999999,1.015,-5.9675,-6.51
136,189138,0.444324,-0.221552,-0.85034,1.05,-5.95,-6.4575
137,189236,0.44505600000000006,-0.22057600000000002,-0.8518040000000001,1.3825,-6.3525,-6.23
138,189334,0.44090799999999997,-0.22814,-0.8471681000000001,1.925,-6.685,-6.0025
139,189432,0.439932,-0.22496799999999997,-0.8483879999999999,2.31,-6.7725,-5.8975
140,189530,0.43554,-0.22789600000000002,-0.8400921,2.555,-6.895,-5.8625
141,189628,0.429196,-0.23058,-0.83936,2.6775,-6.86,-5.8275
142,189726,0.438224,-0.23301999999999998,-0.840824,2.45,-6.58,-5.985
143,189825,0.438224,-0.22814,-0.8439959999999999,2.2225,-6.475,-6.1775
144,189923,0.434808,-0.237168,-0.838628,2.065,-6.755,-6.02
145,190021,0.43944399999999995,-0.228872,-0.8437520000000001,1.5575,-6.475,-6.125
146,190119,0.439688,-0.227408,-0.8457040000000001,1.61,-6.5975,-6.1775
147,190217,0.428708,-0.232044,-0.8378960999999999,1.75,-6.7025,-6.1425
148,190315,0.429928,-0.23253200000000002,-0.834968,1.5225,-6.37,-6.2125
149,190413,0.429928,-0.2318,-0.8359440999999999,1.05,-6.0375,-6.405
150,190511,0.43066000000000004,-0.2318,-0.8344801,0.385,-5.565,-6.72
151,190609,0.44115200000000004,-0.229604,-0.84546,-0.07,-5.2325,-6.79
152,190707,0.44652,-0.221796,-0.8518040000000001,-0.0175,-5.4075,-6.8075
153,190805,0.450668,-0.22277199999999997,-0.85156,0.5775,-5.7225,-6.44
154,190903,0.42944,-0.230336,-0.83936,1.0325,-6.265,-6.265
155,191001,0.42748800000000003,-0.231068,-0.83814,0.8400001,-6.16,-6.4575
156,191099,0.4331,-0.229848,-0.8396040000000001,0.525,-5.8275,-6.44
157,191197,0.44090799999999997,-0.229116,-0.8493641,0.4725,-5.6525,-6.4925
158,191295,0.44334799999999996,-0.223016,-0.85034,0.91,-5.985,-6.3
159,191393,0.44944799999999996,-0.23301999999999998,-0.855708,1.5925,-6.51,-6.1075
160,191491,0.450424,-0.216428,-0.8554641,2.5025,-6.93,-5.67
161,191589,0.42773199999999995,-0.23668000000000003,-0.843508,3.29,-7.4725,-5.3375
162,191687,0.42187600000000003,-0.233996,-0.8357,3.255,-7.4025,-5.39
163,191785,0.42333999999999994,-0.23692399999999997,-0.8335040000000001,2.6425,-6.895,-5.635
164,191883,0.418704,-0.240096,-0.8283799999999999,1.8375,-6.3875,-5.8975
165,191981,0.41846000000000005,-0.238632,-0.827892,0.8400001,-5.915,-6.37
166,192079,0.422608,-0.23741199999999998,-0.8322841000000001,-0.14,-5.215,-6.9475
167,192177,0.42724399999999996,-0.232776,-0.834968,-0.8575,-4.8475,-7.21
168,192275,0.42944,-0.23228800000000002,-0.838628,-1.2075,-4.41,-7.455
169,192373,0.44408000000000003,-0.223992,-0.8493641,-1.5225,-4.235,-7.63
170,192471,0.429684,-0.23155599999999998,-0.83814,-1.4875,-4.5325,-7.5075
171,192569,0.42822,-0.233508,-0.8357,-1.6275,-4.4975,-7.4375
172,192667,0.42602399999999996,-0.23082399999999997,-0.835456,-2.0475,-4.235,-7.805
173,192765,0.423828,-0.233264,-0.831308,-2.695,-3.8675,-8.015
174,192863,0.430904,-0.2257,-0.8396040000000001,-3.57,-3.465,-8.4525
175,192961,0.441396,-0.22496799999999997,-0.850096,-4.1475,-3.3775,-8.5575
176,193059,0.443104,-0.22277199999999997,-0.8488761,-4.0775,-3.6575,-8.4525
177,193157,0.450668,-0.222284,-0.85888,-3.4475,-4.13,-8.2775
178,193255,0.44676400000000005,-0.221308,-0.853024,-2.5025,-4.55,-7.735
179,193353,0.439688,-0.2196,-0.84424,-1.75,-4.7775,-7.315
180,193452,0.445788,-0.2257,-0.853024,-1.47,-4.83,-7.28
181,193550,0.458476,-0.212524,-0.8574161,-0.77,-4.9525,-6.965
182,193648,0.44090799999999997,-0.22423600000000002,-0.8425321,0.175,-5.6525,-6.4575
183,193746,0.43944399999999995,-0.22472399999999998,-0.8461921,0.3675,-5.6525,-6.4225
184,193844,0.437492,-0.228384,-0.8466800999999999,0.455,-5.705,-6.475
185,193942,0.432856,-0.226188,-0.8427761,0.2975,-5.6175,-6.405
186,194040,0.4331,-0.22423600000000002,-0.84424,0.2275,-5.635,-6.545
187,194138,0.43944399999999995,-0.22204000000000002,-0.8425321,0.1925,-5.565,-6.65
188,194236,0.44115200000000004,-0.21838000000000002,-0.8457040000000001,0.385,-5.425,-6.6675
189,194334,0.43334399999999995,-0.22448,-0.845216,0.56,-5.5125,-6.475
190,194432,0.437004,-0.22448,-0.8410681000000001,0.6125,-5.4775,-6.475
191,194530,0.434808,-0.22691999999999998,-0.839116,0.7175,-5.53,-6.5275
192,194628,0.43602799999999997,-0.223504,-0.8422879999999999,0.6125,-5.4075,-6.44
193,194726,0.44115200000000004,-0.22106399999999998,-0.843508,0.5075,-5.4075,-6.4575
194,194824,0.4392,-0.223748,-0.8400921,0.49,-5.53,-6.405
195,194922,0.441396,-0.223992,-0.847412,0.5775,-5.5125,-6.4225
196,195020,0.438712,-0.227408,-0.8447280999999999,0.6125,-5.74,-6.4575
197,195118,0.440176,-0.22643200000000002,-0.8461921,0.665,-5.7575,-6.4225
198,195216,0.43627200000000005,-0.223016,-0.8422879999999999,0.6475,-5.8975,-6.5275
199,195314,0.435296,-0.225456,-0.840824,0.6475,-5.8625,-6.4925
200,195412,0.43651599999999996,-0.22472399999999998,-0.8418,0.5775,-5.775,-6.5275
201,195510,0.433832,-0.22496799999999997,-0.8422879999999999,0.4375,-5.565,-6.475
202,195608,0.43554,-0.22814,-0.8378960999999999,0.315,-5.4425,-6.5975
203,195706,0.434808,-0.22252800000000003,-0.841556,0.175,-5.3725,-6.7025
204,195804,0.433832,-0.22448,-0.839116,-0.0525,-5.3025,-6.895
205,195902,0.438712,-0.22252800000000003,-0.8422879999999999,-0.28,-5.1625,-6.93
206,196000,0.44066400000000006,-0.221308,-0.8422879999999999,-0.35,-5.25,-7.035
207,196098,0.43798000000000004,-0.22472399999999998,-0.8378960999999999,-0.56,-5.4075,-7.035
208,196197,0.43602799999999997,-0.22204000000000002,-0.8418,-0.6475,-5.25,-7.105
209,196295,0.439688,-0.22423600000000002,-0.8405800999999999,-0.8400001,-5.2675,-7.07
210,196393,0.438712,-0.222284,-0.8437520000000001,-0.8225,-5.25,-7.0875
211,196491,0.44066400000000006,-0.2196,-0.8483879999999999,-0.77,-5.11,-7.0875
212,196589,0.438712,-0.222284,-0.845216,-0.735,-5.0575,-7.035
213,196687,0.438956,-0.221796,-0.8432639999999999,-0.91,-4.9875,-7.1225
214,196785,0.438468,-0.221308,-0.841556,-0.945,-5.0575,-7.14
215,196883,0.444324,-0.219112,-0.8483879999999999,-0.98,-5.1275,-7.105
216,196981,0.450912,-0.21886799999999998,-0.850584,-0.805,-5.1275,-7.14
217,197079,0.44773999999999997,-0.217892,-0.8522921,-0.0175,-5.5475,-6.8075
218,197177,0.442616,-0.21716,-0.8461921,0.6125,-5.775,-6.4225
219,197275,0.43944399999999995,-0.22057600000000002,-0.8432639999999999,0.8925,-5.7575,-6.265
220,197373,0.438956,-0.221552,-0.8479,0.9625,-5.88,-6.2825
221,197471,0.446032,-0.2196,-0.8476561,0.9625,-5.845,-6.2475
222,197569,0.44505600000000006,-0.219112,-0.8459479999999999,1.1725,-5.985,-6.1075
223,197667,0.435784,-0.226188,-0.8425321,1.3825,-6.23,-6.0375
224,197765,0.439688,-0.22082,-0.843508,1.3825,-6.1425,-6.0725
225,197863,0.43602799999999997,-0.223992,-0.8410681000000001,1.4525,-6.195,-6.055
226,197961,0.43651599999999996,-0.22448,-0.8420440999999999,1.435,-6.1075,-6.125
227,198059,0.44383599999999995,-0.223016,-0.849852,1.3125,-6.0725,-6.1775
228,198157,0.439688,-0.22326,-0.8461921,1.5925,-6.1425,-6.16
229,198255,0.44993599999999995,-0.223992,-0.8547319999999999,1.9075,-6.405,-5.9675
230,198353,0.46726,-0.21594000000000002,-0.8666879999999999,2.9225,-6.6675,-5.6525
231,198451,0.452132,-0.220088,-0.8601,4.69,-7.6475,-4.9
232,198549,0.43944399999999995,-0.221796,-0.8493641,6.23,-8.2075,-4.27
233,198647,0.434564,-0.229604,-0.8342360000000001,6.7375,-8.4175,-4.13
234,198745,0.423828,-0.23009200000000002,-0.8317960999999999,6.3175,-8.47,-4.41
235,198843,0.42212,-0.236192,-0.834724,5.5125,-8.05,-4.375
236,198941,0.41577600000000003,-0.2379,-0.813984,4.62,-7.665,-4.83
237,199039,0.42016800000000004,-0.23887600000000003,-0.8276481,2.835,-6.7375,-5.705
238,199137,0.44212799999999997,-0.229848,-0.8461921,1.6975,-6.3,-6.0025
239,199235,0.43773599999999996,-0.22862800000000003,-0.846924,1.5225,-6.37,-6.1075
240,199334,0.435296,-0.23009200000000002,-0.8422879999999999,1.47,-6.44,-6.02
241,199432,0.426756,-0.23228800000000002,-0.8342360000000001,1.26,-6.615,-6.1425
242,199530,0.424804,-0.23546,-0.8327720999999999,0.8225,-6.1775,-6.2825
243,199628,0.424072,-0.23228800000000002,-0.83204,0.28,-5.705,-6.5275
244,199726,0.431392,-0.23155599999999998,-0.8364321,-0.315,-5.39,-6.7725
245,199824,0.43041599999999997,-0.23253200000000002,-0.835456,-0.9275,-5.075,-7.07
246,199922,0.43066000000000004,-0.231068,-0.8359440999999999,-1.33,-4.83,-7.1575
247,200020,0.43066000000000004,-0.233996,-0.83936,-1.7325,-4.655,-7.4725
248,200118,0.44334799999999996,-0.22643200000000002,-0.8483879999999999,-1.925,-4.5675,-7.665
249,200216,0.438224,-0.223992,-0.841556,-1.6275,-4.7425,-7.56
250,200314,0.43236800000000003,-0.22862800000000003,-0.840824,-1.365,-4.9,-7.4725
251,200412,0.44066400000000006,-0.223748,-0.8471681000000001,-1.33,-4.69,-7.455
252,200510,0.438956,-0.22204000000000002,-0.8430200999999999,-1.12,-4.935,-7.315
253,200608,0.438712,-0.227408,-0.844972,-1.1025,-4.9875,-7.315
254,200706,0.43676000000000004,-0.22326,-0.843508,-1.155,-4.935,-7.245
255,200804,0.43188000000000004,-0.22691999999999998,-0.8413120000000001,-1.19,-5.04,-7.1925
256,200902,0.43554,-0.22716399999999998,-0.8437520000000001,-1.4875,-4.8825,-7.2625
257,201000,0.4392,-0.225212,-0.8457040000000001,-1.3475,-4.83,-7.3675
258,201098,0.438224,-0.223504,-0.8481440999999998,-1.015,-4.9875,-7.2625
259,201196,0.446032,-0.22057600000000002,-0.8508280999999999,-0.8225,-4.9875,-7.105
260,201294,0.440176,-0.22691999999999998,-0.8459479999999999,-0.4375,-5.285,-6.825
261,201392,0.439688,-0.223504,-0.84424,-0.1575,-5.32,-6.7725
262,201490,0.43432,-0.22496799999999997,-0.8427761,-0.1225,-5.2675,-6.755
263,201588,0.43602799999999997,-0.22472399999999998,-0.8405800999999999,-0.245,-5.2325,-6.79
264,201686,0.438712,-0.223748,-0.8422879999999999,-0.385,-5.1975,-6.93
265,201784,0.43554,-0.22204000000000002,-0.8432639999999999,-0.385,-5.1275,-6.9825
266,201882,0.44237200000000004,-0.22082,-0.8459479999999999,-0.4725,-5.1275,-6.9125
267,201980,0.4453,-0.22448,-0.8483879999999999,-0.2625,-5.32,-6.79
268,202078,0.44408000000000003,-0.223992,-0.8430200999999999,0.1225,-5.4775,-6.685
269,202176,0.43773599999999996,-0.225212,-0.8403360000000001,0.49,-5.5475,-6.545
270,202274,0.43651599999999996,-0.221308,-0.8447280999999999,0.5775,-5.5825,-6.5625
271,202372,0.43651599999999996,-0.22423600000000002,-0.8422879999999999,0.4025,-5.4775,-6.51
272,202470,0.434808,-0.219844,-0.8425321,0.3675,-5.425,-6.5625
273,202568,0.435784,-0.226188,-0.8437520000000001,0.28,-5.495,-6.5275
274,202666,0.44383599999999995,-0.21838000000000002,-0.8461921,0.2275,-5.4775,-6.545
275,202764,0.438956,-0.223016,-0.8420440999999999,0.315,-5.67,-6.5275
276,202862,0.439688,-0.22423600000000002,-0.8405800999999999,0.525,-5.6175,-6.51
277,202960,0.43627200000000005,-0.225944,-0.8427761,0.5775,-5.7575,-6.4225
278,203059,0.43627200000000005,-0.22448,-0.8410681000000001,0.4725,-5.635,-6.3875
279,203157,0.438712,-0.222284,-0.8420440999999999,0.4725,-5.5825,-6.51
280,203255,0.43334399999999995,-0.225212,-0.8405800999999999,0.28,-5.495,-6.5975
281,203353,0.43724799999999997,-0.22277199999999997,-0.8410681000000001,0.315,-5.4775,-6.7375
282,203451,0.43432,-0.22789600000000002,-0.8400921,0.1575,-5.4425,-6.72
283,203549,0.430904,-0.22082,-0.843508,-0.245,-5.215,-6.755
284,203647,0.43505200000000005,-0.22789600000000002,-0.8364321,-0.805,-5.04,-6.965
285,203745,0.4331,-0.223504,-0.8376520000000001,-1.015,-4.865,-7.1225
286,203843,0.437492,-0.22057600000000002,-0.8437520000000001,-1.2075,-4.76,-7.2975
287,203941,0.439932,-0.22252800000000003,-0.8413120000000001,-1.4525,-4.6375,-7.3675
288,204039,0.44383599999999995,-0.221308,-0.844972,-1.5575,-4.7425,-7.385
289,204137,0.44554399999999994,-0.221308,-0.8488761,-1.4875,-4.8475,-7.385
290,204235,0.44237200000000004,-0.21862399999999999,-0.844484,-1.3475,-5.075,-7.2275
291,204333,0.441884,-0.219356,-0.849852,-1.19,-5.2325,-7.0525
292,204431,0.442616,-0.219356,-0.847412,-0.6825,-5.425,-6.7725
293,204529,0.4392,-0.22106399999999998,-0.844972,-0.4375,-5.5475,-6.755
294,204627,0.4404201,-0.219844,-0.847412,-0.385,-5.4425,-6.7375
295,204725,0.43236800000000003,-0.22204000000000002,-0.8420440999999999,-0.385,-5.495,-6.685
296,204823,0.43944399999999995,-0.21838000000000002,-0.8481440999999998,-0.385,-5.425,-6.7375
297,204921,0.43798000000000004,-0.22106399999999998,-0.8432639999999999,-0.21,-5.5125,-6.825
298,205019,0.438956,-0.21716,-0.843508,-0.1575,-5.39,-6.8775
299,205117,0.43627200000000005,-0.2196,-0.840824,-0.0175,-5.3025,-6.72
300,205215,0.438956,-0.21520799999999998,-0.8427761,0.07,-5.215,-6.7375
301,205313,0.43773599999999996,-0.222284,-0.843508,0.1925,-5.11,-6.755
302,205411,0.44212799999999997,-0.216428,-0.8432639999999999,0.0175,-5.0925,-6.9825
303,205509,0.4392,-0.22204000000000002,-0.83936,0.07,-5.18,-6.8775
304,205607,0.439688,-0.21838000000000002,-0.8439959999999999,0.21,-5.18,-6.86
305,205705,0.44090799999999997,-0.220088,-0.8466800999999999,0.2275,-5.1275,-6.7725
306,205803,0.438224,-0.21886799999999998,-0.843508,0.21,-5.18,-6.8425
307,205901,0.43773599999999996,-0.22082,-0.847412,0.1575,-5.1625,-6.86
308,205999,0.438956,-0.216916,-0.844484,0.1225,-5.0225,-6.7025
309,206097,0.44237200000000004,-0.21618400000000002,-0.8461921,0.14,-5.0575,-6.755
310,206196,0.439932,-0.22057600000000002,-0.8439959999999999,0.2275,-5.18,-6.755
311,206294,0.444568,-0.21618400000000002,-0.843508,0.35,-5.145,-6.6675
312,206392,0.43944399999999995,-0.220088,-0.84424,0.3325,-5.18,-6.7025
313,206490,0.44212799999999997,-0.21594000000000002,-0.844972,0.42,-5.215,-6.72
314,206588,0.439688,-0.220088,-0.8410681000000001,0.455,-5.0925,-6.7025
315,206686,0.44408000000000003,-0.216428,-0.8430200999999999,0.5425,-5.075,-6.65
316,206784,0.44066400000000006,-0.21838000000000002,-0.8425321,0.5775,-5.1625,-6.65
317,206882,0.440176,-0.219844,-0.8427761,0.63,-5.215,-6.5975
318,206980,0.439688,-0.216916,-0.8427761,0.5775,-5.1625,-6.5275
319,207078,0.438956,-0.222284,-0.8396040000000001,0.56,-5.145,-6.58
320,207176,0.438468,-0.2196,-0.8432639999999999,0.525,-5.11,-6.615
321,207274,0.4392,-0.223016,-0.83814,0.5425,-5.11,-6.7375
322,207372,0.44164,-0.21594000000000002,-0.8439959999999999,0.49,-5.18,-6.79
323,207470,0.442616,-0.219844,-0.8420440999999999,0.56,-5.2325,-6.6325
324,207568,0.443104,-0.21838000000000002,-0.8425321,0.56,-5.145,-6.58
325,207666,0.44212799999999997,-0.217648,-0.8420440999999999,0.7175,-5.285,-6.5625
326,207764,0.444324,-0.217404,-0.8418,0.77,-5.32,-6.5275
327,207862,0.44237200000000004,-0.22033200000000003,-0.8403360000000001,0.7175,-5.425,-6.44
328,207960,0.44066400000000006,-0.2196,-0.8427761,0.665,-5.5125,-6.4225
329,208058,0.44286000000000003,-0.21618400000000002,-0.8418,0.665,-5.5475,-6.405
330,208156,0.44090799999999997,-0.22106399999999998,-0.8413120000000001,0.665,-5.4775,-6.44
331,208254,0.44115200000000004,-0.22106399999999998,-0.8425321,0.7525,-5.425,-6.4925
332,208352,0.44066400000000006,-0.22082,-0.8418,0.6825,-5.3025,-6.5275
333,208450,0.44066400000000006,-0.217648,-0.844484,0.6825,-5.25,-6.51
334,208548,0.4392,-0.217892,-0.8420440999999999,0.6475,-5.1975,-6.51
335,208646,0.440176,-0.221552,-0.8388721,0.63,-5.215,-6.5625
336,208744,0.44408000000000003,-0.2196,-0.8422879999999999,0.56,-5.3375,-6.6325
337,208842,0.441396,-0.21862399999999999,-0.841556,0.5425,-5.355,-6.5975
338,208940,0.442616,-0.21862399999999999,-0.8430200999999999,0.56,-5.4425,-6.6675
339,209038,0.444568,-0.22033200000000003,-0.844484,0.6475,-5.4075,-6.44
340,209136,0.444324,-0.220088,-0.8437520000000001,0.6125,-5.4425,-6.37
341,209234,0.44383599999999995,-0.216428,-0.8413120000000001,0.7,-5.4775,-6.44
342,209332,0.44164,-0.221308,-0.840824,0.6825,-5.5475,-6.3875
343,209430,0.44164,-0.216428,-0.8432639999999999,0.7175,-5.565,-6.3875
344,209528,0.439688,-0.222284,-0.83936,0.63,-5.775,-6.4925
345,209626,0.441884,-0.216428,-0.8432639999999999,0.49,-5.775,-6.3875
346,209725,0.44090799999999997,-0.21813600000000002,-0.8432639999999999,0.455,-5.7225,-6.3175
347,209823,0.44090799999999997,-0.216916,-0.8437520000000001,0.5075,-5.74,-6.335
348,209921,0.441396,-0.217892,-0.843508,0.5775,-5.6875,-6.3175
349,210019,0.44212799999999997,-0.22033200000000003,-0.838628,0.56,-5.5475,-6.335
350,210117,0.439932,-0.22033200000000003,-0.8403360000000001,0.455,-5.565,-6.37
351,210215,0.43773599999999996,-0.217892,-0.8410681000000001,0.49,-5.705,-6.44
352,210313,0.437004,-0.21886799999999998,-0.84424,0.525,-5.6175,-6.4225
353,210411,0.438224,-0.220088,-0.8413120000000001,0.5425,-5.39,-6.51
354,210509,0.4404201,-0.219844,-0.8418,0.595,-5.1975,-6.615
355,210607,0.4404201,-0.22057600000000002,-0.840824,0.6475,-5.3025,-6.545
356,210705,0.44383599999999995,-0.22082,-0.8427761,0.6475,-5.32,-6.5975
357,210803,0.444324,-0.21667199999999998,-0.840824,0.6125,-5.495,-6.5975
358,210901,0.442616,-0.21886799999999998,-0.8420440999999999,0.5425,-5.4425,-6.5625
359,210999,0.4404201,-0.22106399999999998,-0.8405800999999999,0.49,-5.4775,-6.5275
360,211097,0.441396,-0.21667199999999998,-0.843508,0.5775,-5.4775,-6.58
361,211195,0.44408000000000003,-0.220088,-0.8410681000000001,0.6125,-5.425,-6.58
362,211293,0.441396,-0.21838000000000002,-0.84424,0.595,-5.39,-6.5275
363,211391,0.443592,-0.220088,-0.8410681000000001,0.6825,-5.53,-6.4925
364,211489,0.44164,-0.217404,-0.8439959999999999,0.63,-5.635,-6.51
365,211587,0.44334799999999996,-0.22082,-0.8430200999999999,0.4725,-5.7225,-6.4925
366,211685,0.445788,-0.21618400000000002,-0.8398479999999999,0.5425,-5.8275,-6.4925
367,211783,0.445788,-0.21618400000000002,-0.8422879999999999,0.4725,-5.7925,-6.44
368,211881,0.44286000000000003,-0.219356,-0.8405800999999999,0.525,-5.8975,-6.51
369,211979,0.44164,-0.221308,-0.8413120000000001,0.4375,-5.88,-6.475
370,212077,0.44115200000000004,-0.221308,-0.8425321,0.42,-5.88,-6.4575
371,212175,0.44334799999999996,-0.219844,-0.8418,0.4025,-5.74,-6.405
372,212273,0.442616,-0.21886799999999998,-0.8418,0.49,-5.81,-6.3875
373,212371,0.441884,-0.219356,-0.8432639999999999,0.4725,-5.845,-6.5275
374,212469,0.447008,-0.217648,-0.8413120000000001,0.42,-5.7925,-6.4575
375,212567,0.44505600000000006,-0.219844,-0.8420440999999999,0.3675,-5.915,-6.4225
376,212665,0.44286000000000003,-0.219844,-0.841556,0.315,-6.0025,-6.3
377,212764,0.44090799999999997,-0.221308,-0.841556,0.315,-6.0725,-6.2825
378,212862,0.43724799999999997,-0.21716,-0.8403360000000001,0.315,-6.16,-6.3
379,212960,0.434808,-0.22033200000000003,-0.844484,0.2975,-5.9675,-6.37
380,213058,0.43773599999999996,-0.223504,-0.83936,0.28,-5.7575,-6.5975
381,213156,0.44237200000000004,-0.21594000000000002,-0.8430200999999999,0.2625,-5.6875,-6.615
382,213254,0.44334799999999996,-0.2196,-0.841556,0.455,-5.565,-6.6675
383,213352,0.44115200000000004,-0.21618400000000002,-0.844484,0.5075,-5.6,-6.615
384,213450,0.44066400000000006,-0.22106399999999998,-0.8413120000000001,0.595,-5.6175,-6.51
385,213548,0.44408000000000003,-0.21862399999999999,-0.8400921,0.5775,-5.565,-6.475
386,213646,0.44164,-0.219356,-0.841556,0.6475,-5.6,-6.3875
387,213744,0.44066400000000006,-0.219356,-0.841556,0.665,-5.74,-6.5275
388,213842,0.441884,-0.219844,-0.8410681000000001,0.63,-5.6875,-6.5275
389,213940,0.441884,-0.21813600000000002,-0.8432639999999999,0.5075,-5.81,-6.58
390,214038,0.4404201,-0.217648,-0.8439959999999999,0.455,-5.8275,-6.4925
391,214136,0.440176,-0.21618400000000002,-0.8432639999999999,0.5075,-5.81,-6.405
392,214234,0.437004,-0.21886799999999998,-0.8427761,0.525,-5.7575,-6.475
393,214332,0.438224,-0.21886799999999998,-0.8430200999999999,0.4725,-5.635,-6.545
394,214430,0.439932,-0.217892,-0.845216,0.5425,-5.5475,-6.5975
395,214528,0.443592,-0.221308,-0.8427761,0.6825,-5.4425,-6.5275
396,214626,0.44115200000000004,-0.220088,-0.8418,0.6475,-5.3725,-6.475
397,214724,0.44237200000000004,-0.219112,-0.8427761,0.63,-5.495,-6.5625
398,214822,0.44383599999999995,-0.22106399999999998,-0.8398479999999999,0.63,-5.5125,-6.5275
399,214920,0.44383599999999995,-0.2196,-0.8427761,0.595,-5.565,-6.58
400,215018,0.443104,-0.2196,-0.8420440999999999,0.56,-5.565,-6.51
401,215116,0.441884,-0.21886799999999998,-0.8410681000000001,0.5425,-5.5825,-6.51
402,215214,0.441884,-0.21838000000000002,-0.8425321,0.595,-5.6,-6.4925
403,215312,0.44090799999999997,-0.21716,-0.8437520000000001,0.56,-5.6,-6.4925
404,215410,0.441884,-0.21667199999999998,-0.8447280999999999,0.455,-5.6,-6.4925
405,215508,0.44066400000000006,-0.219112,-0.8418,0.49,-5.74,-6.4925
406,215606,0.4404201,-0.21813600000000002,-0.8425321,0.49,-5.6525,-6.51
407,215705,0.44115200000000004,-0.22033200000000003,-0.841556,0.455,-5.6175,-6.4225
408,215803,0.44090799999999997,-0.21886799999999998,-0.8425321,0.455,-5.5475,-6.4225
409,215901,0.44115200000000004,-0.217892,-0.8405800999999999,0.49,-5.565,-6.51
410,215999,0.439688,-0.221796,-0.8398479999999999,0.4725,-5.5475,-6.58
411,216097,0.442616,-0.219112,-0.8430200999999999,0.49,-5.6,-6.615
412,216195,0.44164,-0.221796,-0.8410681000000001,0.49,-5.6875,-6.5275
413,216293,0.444568,-0.215452,-0.8425321,0.5775,-5.7225,-6.4575
414,216391,0.44334799999999996,-0.220088,-0.8425321,0.5425,-5.6175,-6.4575
415,216489,0.44115200000000004,-0.21594000000000002,-0.8447280999999999,0.63,-5.5825,-6.3525
416,216587,0.441396,-0.223504,-0.8405800999999999,0.5425,-5.6175,-6.3525
417,216685,0.440176,-0.21667199999999998,-0.8437520000000001,0.5425,-5.67,-6.4925
418,216783,0.4392,-0.21886799999999998,-0.843508,0.525,-5.5825,-6.4925
419,216881,0.441884,-0.219844,-0.841556,0.5425,-5.5825,-6.4225
420,216979,0.43724799999999997,-0.219844,-0.8432639999999999,0.525,-5.5825,-6.4225
421,217077,0.4392,-0.219844,-0.8427761,0.5775,-5.495,-6.4575
422,217175,0.443104,-0.219844,-0.8425321,0.5075,-5.4775,-6.58
423,217273,0.44237200000000004,-0.219112,-0.8420440999999999,0.5775,-5.495,-6.44
424,217371,0.442616,-0.221308,-0.8410681000000001,0.595,-5.495,-6.475
425,217469,0.442616,-0.22033200000000003,-0.8425321,0.595,-5.565,-6.4225
426,217567,0.44090799999999997,-0.22057600000000002,-0.840824,0.63,-5.5825,-6.405
427,217665,0.44164,-0.2196,-0.8410681000000001,0.595,-5.5475,-6.4575
428,217763,0.439932,-0.219112,-0.8430200999999999,0.56,-5.635,-6.475
429,217861,0.440176,-0.219356,-0.8420440999999999,0.5775,-5.635,-6.4225
430,217959,0.443104,-0.217404,-0.8437520000000001,0.6125,-5.6525,-6.44
431,218057,0.444568,-0.219844,-0.8422879999999999,0.6475,-5.565,-6.4925
432,218155,0.44164,-0.225456,-0.8418,0.5775,-5.5825,-6.4925
433,218253,0.446276,-0.214964,-0.8420440999999999,0.5075,-5.6175,-6.475
434,218351,0.44237200000000004,-0.22033200000000003,-0.8398479999999999,0.6125,-5.67,-6.4925
435,218449,0.44286000000000003,-0.2196,-0.8427761,0.5425,-5.705,-6.475
436,218547,0.44237200000000004,-0.221308,-0.8400921,0.49,-5.67,-6.37
437,218646,0.443592,-0.217404,-0.8403360000000001,0.525,-5.705,-6.475
438,218744,0.441396,-0.21838000000000002,-0.8418,0.5775,-5.74,-6.37
439,218842,0.438956,-0.22057600000000002,-0.8432639999999999,0.5075,-5.6,-6.3875
440,218940,0.44066400000000006,-0.22082,-0.8403360000000001,0.4725,-5.705,-6.5275
441,219038,0.438956,-0.22057600000000002,-0.8413120000000001,0.455,-5.6,-6.58
442,219136,0.44822799999999996,-0.216916,-0.8410681000000001,0.455,-5.67,-6.6325
443,219234,0.44115200000000004,-0.2196,-0.8418,0.49,-5.7575,-6.44
444,219332,0.44066400000000006,-0.21862399999999999,-0.8432639999999999,0.525,-5.74,-6.405
445,219430,0.44286000000000003,-0.216428,-0.84424,0.525,-5.74,-6.44
446,219528,0.438712,-0.221552,-0.8410681000000001,0.56,-5.67,-6.37
447,219626,0.443104,-0.21838000000000002,-0.841556,0.5075,-5.6,-6.405
448,219724,0.44066400000000006,-0.22326,-0.8388721,0.525,-5.5825,-6.4925
449,219822,0.44334799999999996,-0.221552,-0.8430200999999999,0.525,-5.5825,-6.5275
450,219920,0.44090799999999997,-0.22277199999999997,-0.8405800999999999,0.5425,-5.6,-6.615
451,220018,0.441396,-0.221552,-0.839116,0.5075,-5.5475,-6.44
452,220116,0.43944399999999995,-0.220088,-0.841556,0.525,-5.6875,-6.475
453,220214,0.44383599999999995,-0.21838000000000002,-0.8398479999999999,0.5075,-5.6875,-6.545
454,220312,0.441884,-0.22033200000000003,-0.8413120000000001,0.4375,-5.6525,-6.405
455,220410,0.44237200000000004,-0.221308,-0.841556,0.4725,-5.6875,-6.5975
456,220508,0.440176,-0.21886799999999998,-0.840824,0.5075,-5.7925,-6.58
457,220606,0.444812,-0.21813600000000002,-0.8418,0.49,-5.6875,-6.58
458,220704,0.44554399999999994,-0.21667199999999998,-0.8418,0.49,-5.6175,-6.65
459,220802,0.443592,-0.219112,-0.844484,0.525,-5.6875,-6.7025
460,220900,0.44164,-0.217892,-0.84424,0.665,-5.67,-6.58
461,220998,0.44164,-0.219356,-0.8418,0.6125,-5.635,-6.545
462,221096,0.44286000000000003,-0.219112,-0.841556,0.665,-5.6,-6.4925
463,221194,0.44115200000000004,-0.21667199999999998,-0.8439959999999999,0.5775,-5.5825,-6.5625
464,221292,0.441884,-0.22472399999999998,-0.841556,0.63,-5.705,-6.5975
465,221390,0.44164,-0.21813600000000002,-0.8427761,0.525,-5.67,-6.58
466,221488,0.44115200000000004,-0.221552,-0.8396040000000001,0.5775,-5.6175,-6.4925
467,221586,0.44066400000000006,-0.219356,-0.8447280999999999,0.525,-5.565,-6.5975
468,221684,0.4404201,-0.22106399999999998,-0.8410681000000001,0.5075,-5.5475,-6.5275
469,221783,0.44090799999999997,-0.21886799999999998,-0.8422879999999999,0.5075,-5.6525,-6.5625
470,221881,0.44237200000000004,-0.219356,-0.8405800999999999,0.5075,-5.635,-6.4575
471,221979,0.443104,-0.219356,-0.8398479999999999,0.4725,-5.67,-6.475
472,222077,0.442616,-0.2196,-0.8400921,0.42,-5.6,-6.4225
473,222175,0.443592,-0.219844,-0.8403360000000001,0.4375,-5.6,-6.4575
474,222273,0.439688,-0.223016,-0.8410681000000001,0.42,-5.5825,-6.4925
475,222371,0.44237200000000004,-0.219844,-0.8410681000000001,0.4725,-5.6525,-6.5975
476,222469,0.44164,-0.22057600000000002,-0.839116,0.49,-5.67,-6.4575
477,222567,0.44334799999999996,-0.22057600000000002,-0.8432639999999999,0.525,-5.6875,-6.545
478,222665,0.44164,-0.22057600000000002,-0.8430200999999999,0.455,-5.6,-6.5975
479,222763,0.443592,-0.217892,-0.8420440999999999,0.455,-5.67,-6.6675
480,222861,0.44408000000000003,-0.219112,-0.8422879999999999,0.455,-5.635,-6.6675
481,222959,0.44115200000000004,-0.221552,-0.8413120000000001,0.4375,-5.67,-6.685
482,223057,0.443592,-0.22082,-0.8430200999999999,0.42,-5.67,-6.615
483,223155,0.44286000000000003,-0.2196,-0.8427761,0.4725,-5.635,-6.475
484,223253,0.43944399999999995,-0.22033200000000003,-0.8427761,0.455,-5.67,-6.405
485,223351,0.444568,-0.22082,-0.8447280999999999,0.455,-5.705,-6.545
486,223449,0.44286000000000003,-0.219112,-0.841556,0.4375,-5.775,-6.4225
487,223547,0.441396,-0.21838000000000002,-0.8422879999999999,0.49,-5.7925,-6.4225
488,223645,0.445788,-0.2196,-0.844972,0.49,-5.67,-6.4225
489,223743,0.443592,-0.216428,-0.845216,0.455,-5.7225,-6.3875
490,223841,0.441396,-0.223016,-0.8413120000000001,0.5075,-5.74,-6.3525
491,223939,0.44408000000000003,-0.214232,-0.844484,0.4725,-5.845,-6.3175
492,224037,0.441884,-0.223016,-0.841556,0.525,-5.88,-6.3
493,224135,0.441884,-0.22082,-0.841556,0.385,-6.02,-6.2825
494,224233,0.4392,-0.223016,-0.83814,0.315,-6.1075,-6.23
495,224331,0.438956,-0.2196,-0.8437520000000001,0.245,-6.125,-6.335
496,224429,0.4392,-0.21520799999999998,-0.8427761,0.175,-6.0725,-6.4225
497,224527,0.43724799999999997,-0.22033200000000003,-0.844972,0.2275,-5.95,-6.51
498,224626,0.433832,-0.219356,-0.8439959999999999,0.3325,-5.7925,-6.51
499,224724,0.441884,-0.22252800000000003,-0.8403360000000001,0.42,-5.4775,-6.7025
500,224822,0.443592,-0.216916,-0.844972,0.455,-5.4425,-6.65
501,224920,0.441884,-0.217648,-0.8432639999999999,0.525,-5.5125,-6.58
502,225018,0.44090799999999997,-0.22033200000000003,-0.8410681000000001,0.56,-5.425,-6.5975
503,225116,0.444812,-0.21716,-0.840824,0.56,-5.5125,-6.545
504,225214,0.44237200000000004,-0.22082,-0.8403360000000001,0.5425,-5.5475,-6.4575
505,225312,0.44090799999999997,-0.219844,-0.8425321,0.6125,-5.6875,-6.4225
506,225410,0.4404201,-0.217892,-0.8420440999999999,0.5775,-5.6875,-6.475
507,225508,0.44066400000000006,-0.220088,-0.8413120000000001,0.49,-5.67,-6.4925
508,225606,0.44164,-0.21886799999999998,-0.8422879999999999,0.5425,-5.67,-6.5275
509,225704,0.440176,-0.21862399999999999,-0.84424,0.5775,-5.6,-6.51
510,225802,0.439688,-0.22204000000000002,-0.8405800999999999,0.595,-5.6525,-6.4575
511,225900,0.44090799999999997,-0.219356,-0.841556,0.5775,-5.67,-6.65
512,225998,0.44383599999999995,-0.217892,-0.8398479999999999,0.4725,-5.6,-6.6325
513,226096,0.44164,-0.219844,-0.840824,0.56,-5.705,-6.475
514,226194,0.44115200000000004,-0.21886799999999998,-0.8422879999999999,0.455,-5.74,-6.58
515,226292,0.4404201,-0.22326,-0.8388721,0.35,-5.8625,-6.545
516,226390,0.44212799999999997,-0.22252800000000003,-0.84424,0.2625,-5.915,-6.51
517,226488,0.443592,-0.21813600000000002,-0.844972,0.2625,-5.9325,-6.5975
518,226586,0.45286400000000004,-0.21618400000000002,-0.8508280999999999,0.6475,-5.7575,-6.405
519,226684,0.45432799999999995,-0.21886799999999998,-0.853756,1.4525,-5.53,-6.0725
520,226782,0.477264,-0.204716,-0.8579041,2.555,-5.635,-5.705
521,226880,0.478972,-0.21472,-0.87108,4.5675,-6.37,-5.005
522,226978,0.477996,-0.202764,-0.8744960999999999,6.93,-7.4025,-3.955
523,227076,0.46945600000000004,-0.211792,-0.8666879999999999,9.695,-8.8025,-2.8
524,227174,0.466772,-0.220088,-0.87718,11.0425,-10.3775,-1.96
525,227272,0.50874,-0.207156,-0.9115840000000001,12.95,-11.8475,-1.1375
526,227370,0.47458,-0.213256,-0.889868,16.3975,-15.5225,0.49
527,227468,0.41358,-0.269376,-0.8410681000000001,17.85,-18.5325,0.7875
528,227566,0.398208,-0.279624,-0.8113001,14.7525,-18.4975,-0.2975
529,227664,0.411872,-0.270108,-0.8479,10.99,-16.66,-1.5925
530,227762,0.43188000000000004,-0.23058,-0.8910879999999999,9.0475,-15.68,-2.1175
531,227860,0.4575,-0.124928,-0.861808,5.6525,-15.6975,-2.695
532,227958,0.407968,-0.319884,-0.8420440999999999,4.2175,-18.0075,-6.1425
533,228056,0.38966799999999996,-0.282796,-0.7793359999999999,-1.05,-19.8975,-8.925
534,228154,0.42700000000000005,-0.23058,-0.8488761,-5.7225,-19.915,-11.935
535,228253,0.4331,-0.232044,-0.8220360000000001,-6.8775,-19.8275,-12.005
536,228351,0.419192,-0.24034,-0.8364321,-7.4725,-19.6875,-11.7775
537,228449,0.445788,-0.27084,-0.8652241,-6.9825,-18.8475,-10.9725
538,228547,0.40138,-0.270352,-0.815448,-7.1575,-18.6725,-9.4675
539,228645,0.317688,-0.2379,-0.767868,-6.265,-17.255,-7.2625
540,228743,0.256932,-0.22448,-0.710284,-5.25,-12.8275,-7.035
541,228841,0.10833599999999999,-0.19276,-0.543632,-3.2375,-5.6,-7.035
542,228939,-0.06539201,-0.216428,-0.426512,1.61,7.9625,-7.1575
543,229037,0.43651599999999996,-0.39113200000000004,-0.8881600000000001,0.245,26.81,-12.6175
544,229135,0.8076399999999999,-0.254492,-1.095316,-11.4975,28.7875,-20.2475
545,229233,0.34867600000000004,-0.18251199999999998,-0.942572,-10.71,12.2325,-16.66
546,229331,0.7734800000000001,-0.14713199999999999,-1.111908,-7.5075,11.515,-14.7875
547,229429,0.526552,-0.176656,-0.9252481,-2.52,2.2925,-9.8
548,229527,0.43627200000000005,-0.220088,-0.879376,1.9775,-5.4425,-6.615
549,229625,0.439688,-0.223748,-0.84546,2.9225,-4.655,-6.16
550,229723,0.42895200000000006,-0.211304,-0.8249639999999999,2.5025,-5.0925,-6.23
551,229821,0.377712,-0.21447600000000003,-0.8015399999999999,0.525,-5.04,-6.8425
552,229919,0.38966799999999996,-0.22496799999999997,-0.81862,-2.6425,-3.2375,-8.1025
553,230017,0.42016800000000004,-0.21594000000000002,-0.8388721,-4.935,-1.33,-9.3625
554,230115,0.444324,-0.231312,-0.8669319999999999,-5.81,-0.9625,-9.8
555,230213,0.499468,-0.238144,-0.906216,-5.4425,-1.54,-9.4675
556,230311,0.49702799999999997,-0.212524,-0.892552,-2.6425,-4.095,-8.2425
557,230409,0.452376,-0.212036,-0.8625401,0.1575,-6.6675,-6.9125
558,230507,0.428464,-0.23155599999999998,-0.84424,1.3825,-7.4375,-6.1775
559,230605,0.422364,-0.22716399999999998,-0.838628,1.6275,-7.28,-6.1775
560,230703,0.429196,-0.213256,-0.8364321,1.05,-7.07,-6.405
561,230802,0.43554,-0.222284,-0.856684,0.525,-6.93,-6.4925
562,230900,0.48116800000000004,-0.22716399999999998,-0.876692,1.05,-7.0,-6.23
563,230998,0.4453,-0.21472,-0.8508280999999999,2.24,-8.435,-5.5125
564,231096,0.429196,-0.21594000000000002,-0.8481440999999998,2.975,-9.1525,-4.935
565,231194,0.419436,-0.223504,-0.83814,3.465,-9.03,-4.6025
566,231292,0.422608,-0.21838000000000002,-0.834968,3.36,-8.47,-4.69
567,231390,0.42016800000000004,-0.219112,-0.8508280999999999,3.3425,-8.1025,-4.655
568,231488,0.454084,-0.21838000000000002,-0.8574161,3.815,-7.665,-4.5675
569,231586,0.44334799999999996,-0.204228,-0.8591241,4.48,-8.435,-4.0425
570,231684,0.493856,-0.21838000000000002,-0.9052401,6.16,-9.3275,-3.2025
571,231782,0.4594521,-0.2318,-0.8610761,8.4525,-11.3925,-1.645
572,231880,0.3843,-0.257176,-0.8220360000000001,9.135,-13.125,-0.385
573,231978,0.37258800000000003,-0.266204,-0.809348,7.805,-11.97,-1.05
574,232076,0.40381999999999996,-0.22423600000000002,-0.823256,5.0925,-9.9575,-2.38
575,232174,0.419436,-0.207156,-0.846924,3.5525,-8.9775,-3.3075
576,232272,0.453108,-0.223016,-0.8703481,3.2725,-8.8375,-3.5
577,232370,0.42822,-0.260592,-0.870592,3.3775,-9.8525,-2.8525
578,232468,0.49654,-0.265472,-0.930616,4.62,-10.71,-1.9075
579,232566,0.516304,-0.294508,-0.955016,6.9125,-13.79,0.6475
580,232664,0.482876,-0.3477,-0.92232,8.715,-18.2,4.515
581,232762,0.49141599999999996,-0.326472,-0.9320801,8.6625,-21.7525,7.525
582,232860,0.584136,-0.18056,-0.9989360999999999,6.51,-26.0575,5.4075
583,232958,0.5787680000000001,-0.205448,-1.022116,7.1225,-33.5825,5.2325
584,233056,0.59048,-0.30841599999999997,-1.024556,9.1175,-41.7375,8.225
585,233154,0.608536,-0.387228,-1.06628,8.785,-51.2225,10.605
586,233252,0.534848,-0.356484,-0.9333,6.335,-61.3025,14.7
587,233350,0.319396,-0.254492,-0.759328,2.0475,-66.6575,16.345
588,233449,0.15762400000000001,-0.17812,-0.644892,0.49,-63.1575,15.68
589,233547,0.09223200000000001,-0.149084,-0.5980439999999999,1.085,-53.9525,13.72
590,233645,0.20861999999999997,-0.182756,-0.7256560000000001,2.31,-42.805,10.255
591,233743,0.352092,-0.250344,-0.8605879999999999,4.06,-34.9825,8.015
592,233841,0.327204,-0.236436,-0.84424,3.2025,-33.145,7.1225
593,233939,0.26766799999999996,-0.22252800000000003,-0.7808001,2.24,-31.64,7.2275
594,234037,0.18446400000000002,-0.198372,-0.715896,1.33,-28.2275,6.335
595,234135,0.18666,-0.190808,-0.75274,1.2425,-22.295,4.13
596,234233,0.282308,-0.20496,-0.806908,2.52,-16.345,2.3275
597,234331,0.270596,-0.213988,-0.7903161,1.7325,-13.265,0.28
598,234429,0.203252,-0.21838000000000002,-0.805688,0.6475,-10.3775,-1.33
599,234527,0.243024,-0.25424800000000003,-0.8518040000000001,2.1175,-6.125,-2.7125
600,234625,0.30475599999999997,-0.260348,-0.8918200000000001,2.0125,-3.29,-4.235
601,234723,0.336476,-0.267424,-0.922076,1.9425,-2.555,-4.9875
602,234821,0.31232,-0.29524,-0.8713241,1.0325,-2.7125,-5.285
603,234919,0.260592,-0.2928,-0.818132,-2.2225,-2.415,-6.965
604,235017,0.258152,-0.302316,-0.796172,-5.04,-0.0525,-8.7325
605,235115,0.306464,-0.281088,-0.868152,-8.05,2.8175,-10.5525
606,235213,0.340868,-0.225944,-0.886452,-9.3625,3.8675,-11.1825
607,235311,0.297192,-0.1647,-0.863028,-9.275,4.165,-11.5325
608,235409,0.29768,-0.142984,-0.8481440999999998,-7.315,5.6,-13.2475
609,235507,0.274744,-0.14786400000000002,-0.800564,-4.6725,7.8225,-14.595
610,235605,0.1464,-0.139324,-0.6566041,-3.3775,11.3575,-16.1
611,235703,-0.018544,-0.119072,-0.49776000000000004,-3.7975,20.2475,-19.425
612,235801,-0.004148001,-0.15738,-0.5221600000000001,-3.57,35.3325,-24.9725
613,235899,0.172264,-0.23741199999999998,-0.71614,-1.7325,50.365,-30.0475
614,235997,0.3965,-0.311832,-0.868396,-1.1025,58.1,-32.0425
615,236095,0.275476,-0.31524800000000003,-0.726388,-5.3725,58.4675,-32.725
616,236193,0.34477199999999997,-0.621224,-1.18462,-12.1975,60.8125,-36.12
617,236291,0.764208,-0.7224841,-0.9489161,-30.0125,51.8525,-37.275
618,236390,0.556808,0.25864000000000004,-1.266116,-53.795,30.5725,-41.755
619,236488,1.158024,-0.13785999999999998,-0.966728,-29.2775,36.8725,-27.2475
620,236586,0.230336,-0.24717199999999998,-0.964776,-22.2425,15.47,-16.7475
621,236684,0.538508,-0.160064,-0.9301280000000001,-21.4025,13.265,-13.615
622,236782,0.38186,-0.330376,-0.8481440999999998,-23.8175,3.3775,-13.44
623,236880,0.47555600000000003,-0.229116,-0.9240280000000001,-25.0425,0.5425,-14.3675
624,236978,0.611952,-0.153476,-0.9247601000000001,-23.1875,-7.42,-13.2475
625,237076,0.495076,-0.168848,-0.894748,-17.955,-14.035,-9.905
626,237174,0.45383999999999997,-0.156892,-0.9054840000000001,-14.595,-17.605,-8.715
627,237272,0.390888,-0.10809200000000001,-0.9284200999999999,-9.765,-17.185,-7.14
628,237370,0.387716,-0.135664,-0.934276,-2.835,-13.5975,-5.775
629,237468,0.39918400000000004,-0.163968,-0.921588,4.48,-10.08,-4.095
630,237566,0.40138,-0.2013,-0.9028,11.3575,-6.9125,-2.205
631,237664,0.37746799999999997,-0.233996,-0.9108521,18.6025,-2.31,-0.91
632,237762,0.376736,-0.25864000000000004,-0.9084121,23.6775,4.3225,-0.735
633,237860,0.4758,-0.25254,-0.8418,28.98,14.0175,-0.9275
634,237958,0.361852,-0.192028,-0.892308,32.445,28.21,-1.8725
635,238056,0.22814,-0.317444,-1.021872,43.4875,58.345,-6.9475
636,238154,-0.054655999999999996,-0.26303200000000004,-1.134112,59.7275,90.86,-26.635
637,238252,0.10126,-0.27571999999999997,-1.045296,53.305,141.295,-42.525
638,238350,0.01464,-0.321104,-1.085312,53.6375,196.805,-57.9425
639,238449,0.00244,-0.323056,-1.073112,45.395,258.0025,-67.55001
640,238547,0.2013,-0.196176,-0.8949921000000001,35.525,324.8875,-69.79
641,238645,0.05002,-0.17397200000000002,-0.7468840999999999,25.935,397.25,-78.225
642,238743,0.862296,-0.7929999999999999,-0.9577,22.0325,476.7525,-122.8325
643,238841,1.03944,-0.698328,-1.452288,43.82,555.415,-194.3025
644,238939,0.570472,-0.392108,-1.895636,36.5225,573.3875,-245.1575
645,239037,0.818376,-0.22472399999999998,-2.38876,-4.865,573.405,-265.51
646,239135,1.385432,-0.183488,-2.789164,-7.4025,573.405,-229.1625
647,239233,2.887252,-0.7788480999999999,-3.019256,106.8725,573.405,-142.3625
648,239331,3.3476800000000004,-1.1289879999999999,-3.6595120000000003,260.1725,568.6275,-110.9325
649,239429,4.2077800000000005,-2.274568,-4.3066,335.195,387.5725,-113.715
650,239527,2.7608599999999996,-2.23748,-4.541816000000001,248.5175,211.8725,-14.9275
651,239625,0.5011760000000001,-1.6865279999999998,-6.1695400000000005,212.2575,147.175,-132.8775
652,239723,4.703588,-3.6900120000000003,-7.722111999999999,10.0275,161.455,-174.3525
653,239821,1.4391120000000002,-2.959476,-6.885680000000001,36.015,32.0075,-8.995
654,239919,-0.821304,-2.0496,-4.319776,-79.975,-186.8125,59.6225
655,240017,-1.618208,-0.6753920999999999,-3.323768,-130.6725,-240.135,110.565
656,240115,-1.3527360000000002,-0.06636801,-2.9209240000000003,-130.2875,-270.6725,138.0575
657,240213,-1.1836440000000001,0.410652,-2.726456,-100.0125,-300.86,155.2075
658,240311,-1.019188,0.6368401,-2.4209680000000002,-58.9575,-343.4025,158.0425
659,240409,-1.327604,0.89426,-1.483032,-32.0425,-381.36,141.47
660,240507,-1.6865279999999998,1.41642,-0.74542,-13.5625,-386.75,103.18
661,240605,-1.1529,1.186328,-1.42496,31.29,-357.84,55.825
662,240703,-0.043432,0.11224,-2.2174720000000003,69.02,-343.105,21.49
663,240801,0.765428,-0.5946279999999999,-2.81698,48.72,-369.285,8.9775
664,240899,1.279536,-0.721264,-2.767936,4.9175,-422.5725,14.28
665,240997,1.319064,-0.643672,-2.368996,-16.87,-475.7725,41.1425
666,241095,1.665788,-0.698328,-2.175016,-13.5975,-513.94,77.47251
667,241193,2.191364,-0.7854361,-2.143052,-11.13,-538.9825,113.855
668,241292,2.595184,-0.791048,-1.878312,-18.06,-562.87,143.71
669,241390,2.80112,-0.599508,-1.538908,-31.3075,-573.1425,163.4675
670,241488,2.862852,-0.27523200000000003,-1.2383,-37.1525,-572.6175,173.9675
671,241586,2.5378439999999998,0.232776,-0.40016,-25.13,-553.7875,176.7675
672,241684,2.2235720000000003,0.605364,-0.348432,18.0425,-499.8525,169.3825
673,241782,3.2461759999999997,0.06563601,-1.35054,71.4175,-425.1275,152.4425
674,241880,4.408104,-0.482876,-1.916132,82.53,-365.26,131.5475
675,241978,5.464868,-0.7190681,-2.4268240000000003,54.5825,-338.5025,102.48
676,242076,6.302276,-0.978928,-2.226744,15.3125,-344.225,76.23001
677,242174,6.338876,-0.83936,-1.174372,-18.2525,-369.005,48.72
678,242272,5.64738,-0.35136,0.429196,-22.0675,-382.13,24.15
679,242370,4.9488080000000005,-0.19251600000000002,1.8126759999999997,16.17,-356.58,13.265
680,242468,4.458124,-0.649284,2.6166560000000003,62.93,-299.495,15.2425
681,242566,4.302208,-1.062864,2.44488,66.3775,-226.415,28.49
682,242664,4.8251,-0.8466800999999999,2.2906720000000003,25.9875,-141.1725,55.4225
683,242762,4.669428,-0.8403360000000001,2.3738759999999997,-3.5175,-70.6475,108.395
684,242860,3.891068,-0.542412,2.741584,-37.1525,1.6625,158.235
685,242958,3.175904,0.11834000000000001,2.4443919999999997,-59.8325,94.2725,181.58
686,243056,1.3790879999999999,1.536956,-0.46018400000000004,-18.6375,204.4875,153.0375
687,243154,-0.912316,-1.323456,1.058716,7.0,398.3525,106.1025
688,243252,-7.371239999999999,2.050576,-2.6901,-103.775,350.5425,-94.15
689,243350,4.154344,2.206492,0.9869800999999999,-137.0425,421.8025,-273.0875
690,243449,7.966112,1.097756,-4.931728,-65.94,542.5525,19.8625
691,243547,2.490264,1.85684,-4.216808,72.1525,342.195,-66.2025
692,243645,5.443884,-1.557208,-5.845264,0.665,371.7875,-147.105
693,243743,2.839184,-5.697644,-1.324676,-9.5725,164.29,-101.64
694,243841,0.419436,2.089372,-1.618452,-138.4775,94.93751,-40.565
695,243939,1.041636,0.036844,-1.41642,-21.4025,63.0175,-30.345
696,244037,0.449204,-1.103856,-0.849608,14.63,39.34,-10.1675
697,244135,0.56242,0.49702799999999997,-1.289784,-24.0975,26.2675,-14.35
698,244233,0.423828,-0.49580799999999997,-0.850096,-7.56,14.5775,-10.745
699,244331,0.49873599999999996,-0.112972,-0.945256,-8.26,10.9025,-8.0325
700,244429,0.381616,-0.334036,-0.85644,-7.8575,6.3525,-9.1525
701,244527,0.360632,-0.21886799999999998,-0.8884040000000001,-10.3775,2.1875,-10.535
702,244625,0.33013200000000004,0.016592,-0.913292,-14.4025,2.9225,-11.6725
703,244723,0.284992,-0.08857201,-0.8869401,-9.7475,6.2825,-9.1175
704,244821,0.267912,-0.12029200000000001,-0.8862081,-5.5125,11.7425,-7.3675
705,244919,0.205448,-0.119072,-0.9108521,-0.525,18.865,-6.72
706,245017,0.305,-0.22496799999999997,-0.9152440000000001,3.99,27.3525,-6.755
707,245115,0.355508,-0.303292,-0.906948,4.9875,32.445,-8.7325
708,245213,0.40016,-0.33013200000000004,-0.87718,5.4425,32.48,-11.0075
709,245312,0.482876,-0.193248,-0.9293961,7.35,31.01,-12.8975
710,245410,0.34526,-0.202032,-0.8291120999999999,10.0975,27.195,-15.6625
711,245508,0.36234,-0.193736,-0.832528,11.6375,26.67,-17.4125
712,245606,0.331596,-0.20984,-0.835456,11.1475,28.0175,-19.285
713,245704,0.385276,-0.21106,-0.83204,11.1475,28.245,-23.1525
714,245802,0.42138809999999993,-0.31476,-0.775188,11.4625,26.215,-27.5625
715,245900,0.444568,-0.235704,-0.793976,6.3175,23.7125,-30.695
716,245998,0.452376,-0.22935999999999998,-0.8203280000000001,3.0275,19.95,-32.795
717,246096,0.4026,-0.248148,-0.8508280999999999,3.045,14.805,-34.055
718,246194,0.38918,-0.26156799999999997,-0.85156,2.4325,10.71,-35.9975
719,246292,0.46311199999999997,-0.170312,-0.8847440999999999,5.355,7.945,-42.77
720,246390,0.611952,-0.1769,-0.821304,7.6125,6.1075,-44.835
721,246488,0.517524,-0.18422,-0.8574161,7.175,5.495,-41.895
722,246586,0.409188,-0.167628,-0.9093880999999999,9.415,9.835,-39.13
723,246684,0.41113999999999995,-0.155428,-0.935984,12.3725,24.43,-38.3075
724,246782,0.31451599999999996,-0.159576,-0.9716081,18.62,43.6625,-37.345
725,246880,0.304268,-0.16714,-0.9557479999999999,25.515,69.52750999999999,-37.205
726,246978,0.303292,-0.162748,-0.9947881,32.5325,101.7975,-38.4825
727,247076,0.299388,-0.08906,-0.9696561,35.525,137.7775,-40.5125
728,247174,0.345992,-0.042456,-0.9979600000000001,38.5525,178.5175,-41.2475
729,247272,0.253272,-0.021716,-0.9598959999999999,40.2675,223.4925,-41.965
730,247370,0.178852,0.020252000000000003,-0.90402,43.9425,276.115,-43.365
731,247468,0.348432,-0.173484,-0.892308,64.085,334.0925,-46.865
732,247566,0.42187600000000003,-0.303048,-0.8296,78.75,397.9325,-43.2425
733,247664,1.9154,-1.212924,-0.7812880999999999,75.74,480.2175,-62.8425
734,247762,1.291492,-0.353068,-1.366156,69.37,556.1675,-135.0825
735,247861,1.0767719999999998,-0.06466001,-1.4208120000000002,36.8375,572.0225,-167.9125
736,247959,0.8862081,-0.17616800000000002,-1.9929919999999999,3.745,573.3875,-136.3425
737,248057,1.8182880000000001,-0.371856,-2.4095,46.1825,573.405,-106.715
738,248155,3.4164879999999997,-0.99308,-2.347768,159.1975,573.405,-75.39
739,248253,3.2269,-0.7732359999999999,-2.38998,286.7025,546.805,-44.975
740,248351,3.507744,-1.567944,-3.219336,391.3525,277.9875,-73.255
741,248449,3.521408,-2.3077520000000002,-3.717828,241.29,99.6625,-92.3125
742,248547,-0.7832399999999999,-0.6422081000000001,-4.190212,129.605,136.9375,-124.3025
743,248645,5.173776,-2.954352,-3.245688,-0.4725,180.3725,-248.4475
744,248743,1.297104,-2.369728,-6.850544,42.2275,185.255,-131.0225
745,248841,-0.073688,-1.7873,-4.223396,-57.015,-64.6625,-82.425
746,248939,-1.4337440000000001,-0.876692,-2.921656,-107.1525,-150.9025,-64.0675
747,249037,-1.5342719999999999,-0.42895200000000006,-2.3406919999999998,-120.1375,-187.3375,-59.115
748,249135,-1.327116,-0.363316,-2.07766,-76.755,-214.0425,-46.375
749,249233,-1.0382200000000001,-0.642696,-1.927112,-23.0825,-251.6675,-25.1475
750,249331,-0.8727879999999999,-0.879864,-1.5828280000000001,7.49,-289.625,-1.6275
751,249429,-0.755912,-0.87718,-1.2505,16.4325,-315.9275,23.6425
752,249527,-0.390644,-0.835456,-1.270508,22.68,-325.4125,55.195
753,249625,0.090768,-0.8178880999999999,-1.398852,27.9825,-335.9825,86.765
754,249723,0.539484,-0.776896,-1.538908,28.9275,-358.3475,112.07
755,249821,0.960384,-0.734928,-1.6028360000000001,24.955,-388.465,130.5325
756,249919,1.275144,-0.674416,-1.580632,15.505,-421.785,142.485
757,250018,1.476688,-0.597312,-1.51524,2.9925,-452.795,149.1525
758,250116,1.5257319999999999,-0.493612,-1.39324,-8.6625,-476.77,150.255
759,250214,1.563796,-0.44212799999999997,-1.39324,-13.86,-489.825,147.6125
760,250312,1.654564,-0.41284799999999994,-1.3346799999999999,-14.7875,-496.4225,141.5575
761,250410,1.7172720000000001,-0.364536,-1.319552,-8.75,-499.6425,137.41
762,250508,1.712392,-0.45018,-1.321504,6.2825,-499.0125,135.45
763,250606,1.771684,-0.389912,-1.408368,21.525,-488.53,137.795
764,250704,1.929552,-0.168848,-1.418372,41.5275,-469.0875,147.525
765,250802,2.1411,-0.119804,-1.426668,74.235,-444.325,159.7925
766,250900,2.622024,-0.42431599999999997,-1.796328,103.495,-414.2075,168.4725
767,250998,3.2488599999999996,-0.8327720999999999,-2.16062,99.6275,-389.025,165.6725
768,251096,3.832996,-1.066036,-2.414136,64.7325,-378.875,154.4025
769,251194,4.482036,-1.166808,-2.31434,21.0,-383.2675,146.1075
770,251292,4.4744720000000004,-0.8971879999999999,-1.6521240000000001,-10.6575,-396.1475,140.105
771,251390,4.22242,-0.46481999999999996,-0.59292,-20.7375,-397.46,132.8425
772,251488,3.9762239999999998,-0.034648000000000005,0.514108,2.59,-377.7025,125.6325
773,251586,3.6612199999999997,-0.026351999999999997,1.490108,50.6975,-329.63,128.555
774,251684,3.4821239999999998,-0.09735601,1.9483400000000002,80.4475,-255.6575,132.9825
775,251782,4.213148,0.42016800000000004,1.631872,72.03,-170.835,128.8
776,251880,5.098868,0.159576,1.932236,61.5125,-102.795,131.11
777,251978,4.4159120000000005,0.365512,2.5437,25.4975,-61.355,104.685
778,252076,3.374276,0.5948720000000001,2.450736,-20.58,-1.3825,42.56
779,252174,3.239344,0.514352,1.4691239999999999,-53.9525,84.175,-18.62
780,252273,3.461384,-0.0671,0.169824,-64.015,148.96,-47.7925
781,252371,3.489444,-0.478728,-0.769332,-73.3075,172.305,-43.8375
782,252469,0.48165600000000003,-0.47043199999999996,-1.168272,-85.62751,166.7575,-9.3275
783,252567,-0.477996,0.171776,-5.0695879999999995,-81.27,137.9525,-40.32
784,252665,-2.174528,0.14762,-1.492304,-104.3525,249.025,-30.2925
785,252763,-5.296752,-0.33184,0.7366361,-105.5075,200.69,-83.825
786,252861,-0.24912399999999998,0.611952,2.2262560000000002,-118.58,312.375,-226.6425
787,252959,7.9651369999999995,-0.36209600000000003,-4.362232,-74.5675,537.425,-153.335
788,253057,3.21348,0.227652,-3.534828,-62.5625,355.705,-56.105
789,253155,2.345572,1.1953559999999999,-2.294088,-134.68,292.635,-93.3975
790,253253,2.8003880000000003,-0.822768,-2.983144,-83.66751,232.82,-92.085
791,253351,2.050332,-0.054655999999999996,-2.035448,-73.3075,147.21,-46.62
792,253449,0.645868,0.67466,-1.63114,-38.57,68.0925,-37.975
793,253547,0.3721,-0.29377600000000004,-0.876692,-9.0475,52.64,-14.315
794,253645,0.44383599999999995,-0.5941401,-0.950868,1.8025,44.6425,-9.17
795,253743,0.583648,0.10321199999999998,-1.0882399999999999,-11.5675,41.825,-8.33
796,253841,0.475312,-0.265228,-0.9423280999999999,0.1575,27.3525,-7.7875
797,253939,0.5131319999999999,-0.09638,-0.9555040000000001,-0.63,24.0975,-6.615
798,254038,0.48824399999999996,-0.081496,-0.9328120000000001,-0.5075,18.1825,-6.37
799,254136,0.479704,-0.040260000000000004,-0.9511120000000001,2.485,17.255,-3.9375
800,254234,0.403088,-0.003172,-0.9821,6.1075,15.295,-1.505
801,254332,0.46603999999999995,-0.151524,-0.930616,11.8125,19.6875,1.05
802,254430,0.373808,-0.19154000000000002,-0.906216,11.4625,21.14,1.7325
803,254528,0.391864,-0.22448,-0.8784,9.7475,23.6775,0.77
804,254626,0.441884,-0.231312,-0.8693719999999999,8.9425,27.545,0.2625
805,254724,0.40821199999999996,-0.266448,-0.868396,9.6775,28.77,-0.07
806,254822,0.41675200000000007,-0.277428,-0.8425321,11.06,31.3075,-1.7325
807,254920,0.45432799999999995,-0.254492,-0.8244761,12.53,32.7425,-4.3575
808,255018,0.49751599999999996,-0.179584,-0.8039801,11.585,30.5025,-6.405
809,255116,0.46603999999999995,-0.254004,-0.779092,11.2875,25.6725,-8.925
810,255214,0.42285200000000006,-0.32086,-0.7500560000000001,9.9925,17.745,-12.6
811,255312,0.412116,-0.253272,-0.823744,7.56,12.88,-15.2775
812,255410,0.35258,-0.290116,-0.814472,4.7775,7.4725,-20.93
813,255508,0.3782,-0.185196,-0.8540000000000001,1.4,5.355,-26.53
814,255606,0.438956,-0.167384,-0.843508,-0.2275,6.1075,-30.4675
815,255704,0.520452,-0.132004,-0.8466800999999999,4.6375,7.0175,-31.6225
816,255802,0.5084960000000001,-0.114192,-0.8491200000000001,8.015,6.44,-30.695
817,255900,0.52094,-0.12468399999999999,-0.8342360000000001,11.9,8.2775,-29.8375
818,255998,0.488,-0.14347200000000002,-0.828624,12.74,9.5025,-26.845
819,256096,0.47043199999999996,-0.133712,-0.8427761,12.3025,12.3025,-24.885
820,256194,0.48165600000000003,-0.12395199999999999,-0.8357,13.65,16.45,-22.1025
821,256293,0.45896400000000004,-0.15176800000000001,-0.869616,15.5575,22.505,-18.8475
822,256391,0.422608,-0.12980799999999998,-0.8847440999999999,18.795,31.4125,-16.2575
823,256489,0.384056,-0.172752,-0.904508,24.955,44.765,-13.265
824,256587,0.34526,-0.195444,-0.9174399999999999,31.22,62.6325,-13.755
825,256685,0.304512,-0.247416,-0.930616,39.4975,85.76751,-16.7825
826,256783,0.306464,-0.203252,-0.9311040999999999,44.94,117.2675,-22.7325
827,256881,0.409432,-0.202032,-0.922076,46.7425,149.205,-31.4825
828,256979,0.384544,-0.145424,-0.9006040999999999,45.3425,183.715,-38.5175
829,257077,0.357948,-0.094672,-0.8818159999999999,45.0625,224.56,-47.6875
830,257175,0.09247601,-0.053191999999999996,-0.9328120000000001,45.9725,272.4925,-60.2875
831,257273,0.532408,-0.386252,-0.764696,60.9525,318.5,-75.18
832,257371,0.828868,-0.6517241,-0.726144,67.69001,383.635,-87.4125
833,257469,0.726144,-0.368196,-0.8376520000000001,53.7775,464.3975,-130.3225
834,257567,1.9781080000000002,-0.344528,-1.136796,52.0975,557.9525,-148.26
835,257665,1.27124,-0.17519200000000001,-1.56892,16.17,573.405,-160.1775
836,257763,0.376004,0.671244,-1.7870560000000002,-5.1625,573.405,-154.0
837,257861,1.6291879999999999,-0.279868,-1.69092,32.2875,573.3875,-85.9425
838,257959,3.16712,-0.622688,-1.8585479999999999,95.515,573.405,-50.645
839,258057,3.365736,-0.753472,-1.7082439999999999,189.63,572.0225,-5.7925
840,258155,2.8020959999999997,-1.203408,-2.812344,308.945,462.84,5.845
841,258253,6.94424,-1.473028,-4.0728480000000005,318.7975,65.8,-82.53
842,258351,1.069208,-1.580388,-3.517992,128.765,131.8625,23.2575
843,258449,1.46278,-1.101904,-3.3013199999999996,83.475,118.51,-79.52
844,258547,4.107008,-2.72182,-6.6089839999999995,-0.2625,208.39,-129.815
845,258645,1.46888,-2.333616,-5.584916000000001,30.5375,51.3975,-49.8925
846,258743,-0.5119121,-1.6091799999999998,-4.064796,-116.6025,-114.1525,-26.8275
847,258841,-1.291492,-0.548512,-2.8965240000000003,-180.2325,-189.5425,-17.36
848,258940,-0.9591639999999999,-0.10248,-2.668628,-177.6425,-225.3475,-13.23
849,259038,-0.567788,-0.06075601,-2.52906,-117.95,-265.545,1.61
850,259136,-0.189344,-0.385276,-2.3302,-54.18,-320.11,21.91
851,259234,0.076616,-0.6824680000000001,-1.9929919999999999,-26.4775,-374.0975,37.6075
852,259332,0.349408,-0.783728,-1.7333759999999998,-36.96,-418.3725,45.9375
853,259430,0.680516,-0.7734800000000001,-1.575996,-61.81,-453.25,53.97
854,259528,0.966728,-0.6566041,-1.4034879999999998,-83.125,-483.4025,63.105
855,259626,1.074332,-0.525332,-1.099464,-92.76751,-510.055,72.3975
856,259724,1.093608,-0.328424,-0.739808,-89.3725,-525.595,80.3425
857,259822,0.9642879999999999,-0.22716399999999998,-0.506544,-73.15,-523.8975,86.6075
858,259920,0.864492,-0.19983599999999999,-0.428708,-53.9525,-505.6625,83.9125
859,260018,0.860344,-0.26303200000000004,-0.50142,-39.3575,-478.205,70.6125
860,260116,1.01504,-0.401624,-0.813008,-32.2525,-447.8075,50.12
861,260214,1.269288,-0.530212,-1.197064,-32.375,-422.1875,27.545
862,260312,1.4483840000000001,-0.5248441,-1.541592,-32.4625,-407.3475,13.1425
863,260410,1.7982799999999999,-0.540704,-1.785348,-20.545,-402.29,9.5725
864,260508,2.122312,-0.660752,-1.7936439999999998,2.1875,-405.825,16.2225
865,260606,2.287988,-0.789828,-1.667984,26.0925,-409.2025,34.37
866,260704,2.471964,-0.8591241,-1.55062,40.285,-403.0775,60.3575
867,260802,2.754028,-0.9052401,-1.5845360000000002,44.31,-388.2375,86.555
868,260900,3.24398,-0.955992,-1.7741240000000003,36.75,-371.3675,105.98
869,260998,3.9101,-0.940132,-2.001532,19.4775,-364.3325,115.08
870,261096,4.464956,-0.793488,-1.8831919999999998,9.5375,-375.69,117.8625
871,261194,4.454952,-0.45335200000000003,-1.26758,20.37,-396.62,119.7
872,261292,4.257068,-0.17519200000000001,-0.331108,46.235,-402.71,120.6625
873,261390,4.0667480000000005,0.013663999999999999,0.7068681,79.59000999999999,-380.03,116.0425
874,261488,3.8783800000000004,0.044652,1.541592,108.2025,-326.5675,103.11
875,261587,3.8449519999999997,-0.01464,2.022516,114.905,-254.1875,81.1475
876,261685,3.958168,0.44164,2.089128,95.5325,-176.05,58.94
877,261783,4.616724,0.443104,2.168184,84.15751,-106.015,46.0075
878,261881,4.4896,-0.134932,2.50466,71.5575,-51.3275,33.845
879,261979,3.88326,-0.22716399999999998,2.306288,21.0,4.2175,-0.5775
880,262077,3.586556,-0.179828,1.655784,-28.28,74.305,-25.7075
881,262175,0.9535521,-0.8674200000000001,0.9911281,-43.225,133.105,-21.6825
882,262273,0.611464,-1.2282959999999998,-3.040972,-98.0175,209.2125,-4.6725
883,262371,-0.710284,0.658068,-1.684088,-214.1825,333.1825,15.12
884,262469,-5.650308,1.036024,-1.53598,-93.205,197.295,10.5875
885,262567,-0.305244,1.390556,2.662528,-57.6275,336.3325,-79.2925
886,262665,7.966112,2.583716,-3.621692,-71.3475,547.75,-56.63
887,262763,3.6609760000000002,1.2641639999999998,-4.371016,52.8325,359.8,-16.275
888,262861,2.7896520000000002,1.06994,-2.4461,33.5475,278.6875,-63.455
889,262959,2.4034,-2.269688,-3.008032,95.69,205.3975,-81.53251
890,263057,1.515728,-3.137108,-1.1899879999999998,50.47,131.6175,-32.8125
891,263155,0.70028,0.294508,-1.251476,-88.9175,104.8075,-23.555
892,263253,0.8115439999999999,0.993568,-1.556232,-45.57,82.0575,-30.5025
893,263351,0.5997520000000001,-1.124352,-0.895236,-10.9725,66.0275,-23.2575
894,263449,0.555588,-0.172996,-1.110444,-24.36,45.185,-20.7025
895,263547,0.5948720000000001,0.09320801,-1.046516,-20.195,36.995,-17.57
896,263645,0.625128,-0.26303200000000004,-0.9767321,-5.355,29.19,-14.105
897,263743,0.431148,0.005856,-0.9620920000000001,-4.165,20.16,-10.9725
898,263841,0.44847200000000004,-0.150792,-0.9108521,-0.2275,18.0425,-9.065
899,263939,0.49605200000000005,0.00122,-0.9408639999999999,0.595,18.5325,-7.315
900,264037,0.354532,0.014152000000000001,-0.9686799999999999,4.095,16.625,-4.2175
901,264135,0.346236,-0.12322000000000001,-0.9059721,9.52,21.07,-1.3125
902,264234,0.41358,-0.318664,-0.8459479999999999,10.605,28.07,-1.05
903,264332,0.338916,-0.36575599999999997,-0.8479,7.245,27.58,-4.13
904,264430,0.4404201,-0.372832,-0.859368,4.585,29.3475,-8.295
905,264528,0.504592,-0.29646,-0.849608,4.1825,28.1925,-10.9725
906,264626,0.438224,-0.311832,-0.846924,6.0025,25.27,-12.775
907,264724,0.431148,-0.27523200000000003,-0.8298440999999999,8.0675,26.145,-14.315
908,264822,0.449204,-0.2623,-0.823744,9.87,27.055,-16.8175
909,264920,0.382348,-0.189588,-0.839116,10.535,26.6525,-18.445
910,265018,0.493856,-0.20984,-0.8113001,11.8825,27.3,-21.1575
911,265116,0.459208,-0.252052,-0.78446,12.7225,23.7125,-23.1875
912,265214,0.423584,-0.238632,-0.796172,10.92,20.8075,-24.325
913,265312,0.47360399999999997,-0.18666,-0.826916,9.555,22.2425,-24.815
914,265410,0.494832,-0.205204,-0.809836,11.095,23.9925,-23.9575
915,265508,0.438224,-0.19154000000000002,-0.8427761,13.5625,24.08,-24.01
916,265606,0.45603599999999994,-0.21667199999999998,-0.8132520999999999,18.4975,28.665,-24.115
917,265704,0.47653199999999996,-0.205448,-0.821792,24.885,34.475,-23.905
918,265802,0.494588,-0.1891,-0.828624,29.2775,37.8875,-23.9575
919,265900,0.49898000000000003,-0.188368,-0.828868,33.11,39.6025,-23.415
920,265998,0.501908,-0.193004,-0.8332601000000001,37.345,42.735,-22.05
921,266096,0.454816,-0.182268,-0.861808,41.265,47.915,-20.37
922,266194,0.42773199999999995,-0.215696,-0.8752280000000001,48.23,58.485,-19.5125
923,266292,0.384056,-0.243024,-0.9018241,56.0175,73.71,-20.7725
924,266390,0.488976,-0.267912,-0.813496,61.565,95.4625,-22.61
925,266488,0.426512,-0.190808,-0.8466800999999999,59.1325,122.045,-23.5025
926,266586,0.361608,-0.192028,-0.903532,56.07,153.4575,-27.5275
927,266684,0.47043199999999996,-0.16714,-0.8518040000000001,46.445,191.7825,-29.61
928,266782,0.5307,-0.169824,-0.7829961,42.3675,231.875,-31.8675
929,266881,0.4594521,-0.182268,-0.8115439999999999,35.315,273.77,-42.84
930,266979,-0.048556,-0.092964,-0.821304,35.805,318.0975,-86.485
931,267077,1.2780719999999999,-0.780312,-0.676124,46.9175,361.2175,-139.7025
932,267175,0.4331,-0.1403,-0.793976,39.97,435.6275,-171.7275
933,267273,1.8519599999999998,-0.6158561,-1.2878319999999999,39.55,537.3725,-171.15
934,267371,1.0797,0.50508,-1.740452,71.6625,573.405,-184.7475
935,267469,1.1836440000000001,0.116632,-1.514508,106.1025,573.405,-132.86
936,267567,2.058384,-0.033672,-1.881484,113.5225,573.405,-66.185
937,267665,2.989244,-0.030256,-2.0998639999999997,168.21,573.405,9.6425
938,267763,2.87432,-0.710284,-1.827072,261.1175,570.3775,84.8575
939,267861,2.775256,-1.067012,-2.638128,346.465,373.135,133.1225
940,267959,3.396236,-1.010648,-3.7924919999999998,280.21,119.28,111.5275
941,268057,0.79056,-1.155584,-3.725392,212.4325,157.57,109.655
942,268155,3.044632,-3.3035160000000006,-2.36314,212.5375,92.47001,-33.53
943,268253,4.137752,-3.67098,-7.136024000000001,3.57,144.8825,-53.41
944,268351,1.1155680000000001,-2.4199919999999997,-4.254872,-112.21,-28.525,-22.6625
945,268449,-0.22716399999999998,-0.813008,-3.4221,-287.14,-136.465,-6.9475
946,268547,-0.5392399999999999,0.172264,-2.7520759999999997,-305.935,-186.165,-1.54
947,268645,-0.31476,0.290604,-2.535404,-247.8,-227.01,-3.64
948,268743,-0.22935999999999998,0.038064,-2.218204,-180.4775,-272.79,-7.5075
949,268841,-0.172508,-0.258152,-1.821948,-147.245,-320.215,-20.5975
950,268939,-0.128832,-0.33379200000000003,-1.432036,-153.3525,-356.5625,-45.815
951,269037,-0.044407999999999996,-0.16201600000000002,-1.07726,-168.0175,-377.7375,-74.1475
952,269135,-0.00122,0.09613601,-0.7849480999999999,-158.55,-388.1325,-94.81501
953,269234,0.202032,0.080276,-0.7639640999999999,-112.4025,-390.11,-101.395
954,269332,0.5516840000000001,-0.2318,-0.9125601000000001,-58.2225,-390.565,-96.2325
955,269430,0.8679081,-0.560956,-1.087508,-26.425,-399.77,-87.4825
956,269528,1.067256,-0.7137001000000001,-1.181448,-22.715,-417.165,-79.8525
957,269626,1.1529,-0.7107720000000001,-1.199992,-31.4475,-436.1525,-71.8025
958,269724,1.148508,-0.7166279999999999,-1.164368,-37.3625,-451.9375,-63.7175
959,269822,1.1407,-0.87474,-1.1468,-36.12,-462.42,-56.525
960,269920,1.2463520000000001,-0.9181720999999999,-1.2322,-31.6575,-465.6575,-45.57
961,270018,1.3024719999999999,-1.1270360000000001,-1.400316,-18.305,-467.2325,-22.89
962,270116,1.536468,-1.2634319999999999,-1.6145479999999999,-4.725,-466.4275,7.735
963,270214,2.0925439999999997,-1.06994,-1.6845759999999999,7.9275,-462.735,48.125
964,270312,2.202344,-1.160708,-1.6460240000000002,32.2525,-463.47,94.37751
965,270410,2.5114919999999996,-1.095316,-1.527684,47.0575,-456.6275,125.44
966,270508,2.840404,-1.038952,-1.524756,52.815,-441.1225,150.5875
967,270606,3.333528,-0.9501360999999999,-1.711416,50.4875,-422.8875,173.6525
968,270704,3.839828,-0.934276,-1.779248,45.22,-409.4825,185.675
969,270802,4.264144,-0.965752,-1.7214200000000002,38.9025,-399.91,192.815
970,270900,4.455196,-0.9386681,-1.346392,27.23,-392.455,199.4125
971,270998,4.512048,-0.7134560999999999,-0.680028,6.125,-379.6975,199.36
972,271096,4.513756,-0.388936,0.257664,-9.8175,-356.3175,187.4425
973,271194,4.262436,-0.05612,1.40788,-11.1475,-315.0175,157.8675
974,271292,4.045276,0.264252,2.196976,10.7625,-258.755,118.055
975,271390,4.106764,0.341844,2.4451240000000003,49.4375,-192.465,88.04251
976,271488,4.796551999999999,0.189344,2.431704,72.7125,-121.7475,73.3075
977,271587,4.69944,-0.41284799999999994,2.94142,61.075,-59.6225,64.575
978,271685,3.776876,-0.45554799999999995,2.8186880000000003,-2.38,8.33,39.2875
979,271783,3.602904,-0.013908000000000002,1.837076,-76.23001,93.485,7.0875
980,271881,1.5135319999999999,0.197152,0.8608319999999999,-95.515,163.0125,-3.6925
981,271979,0.9916161,0.290116,-3.614372,-59.2725,198.415,-72.9575
982,272077,-1.773636,-0.10492,-1.593564,-48.8775,297.9025,-73.92
983,272175,-4.7214,0.7468840999999999,-2.546872,-24.535,246.96,-81.515
984,272273,-0.002684,0.004148001,3.4916400000000003,109.9875,351.645,-102.9
985,272371,7.966112,-0.4743361,-3.164924,70.3675,552.8775,1.645
986,272469,3.021696,0.20861999999999997,-4.527176,128.0475,343.1925,-7.7875
987,272567,3.2844839999999995,1.31028,-2.742316,40.0925,318.08,-37.3625
988,272665,4.054304,-2.743292,-3.906684,82.845,209.475,-85.19
989,272763,1.115812,-2.007876,-0.5104479999999999,-34.685,100.975,-27.09
990,272861,0.129564,0.9206120000000001,-1.353956,-48.4925,47.1275,-25.4975
991,272959,0.558516,-0.478484,-0.9289081,-31.9725,60.1475,-28.385
992,273057,0.48433999999999994,-0.8239880999999999,-0.8720559999999999,-16.2225,50.5225,-20.545
993,273155,0.557052,0.233752,-1.136552,-33.6,39.515,-20.335
994,273253,0.613416,-0.459208,-0.9337880999999999,-14.9975,33.3025,-17.2375
995,273351,0.5736441,-0.07490801,-1.0145520000000001,-12.3375,21.2625,-13.335
996,273449,0.456768,-0.20178800000000002,-0.904508,-6.51,10.71,-10.325
997,273547,0.458476,-0.27938,-0.8805960999999999,-2.1525,9.2925,-8.0675
998,273645,0.483364,-0.08466801,-0.9269561,-1.4875,6.8775,-9.0825
999,273743,0.439932,-0.09735601,-0.9208561,2.9925,4.41,-7.2275
1000,273841,0.438468,-0.004392,-0.961116,7.7175,5.04,-4.97
1001,273939,0.429684,-0.141276,-0.9015799999999999,14.1225,8.015,-1.8725
1002,274037,0.427976,-0.202764,-0.8852321,16.38,10.185,0.1575
1003,274135,0.404796,-0.24888000000000002,-0.869616,15.5225,11.0775,0.9975
1004,274234,0.41577600000000003,-0.335744,-0.828624,15.5575,13.02,0.91
1005,274332,0.393572,-0.334036,-0.807396,13.055,12.18,-1.225
1006,274430,0.4026,-0.292312,-0.8115439999999999,11.2525,13.0375,-3.71
1007,274528,0.42114399999999996,-0.26766799999999996,-0.815692,9.59,13.37,-5.8275
1008,274626,0.401868,-0.282552,-0.798124,7.6125,12.3725,-7.9975
1009,274724,0.39894,-0.273524,-0.7937320999999999,5.2325,12.425,-10.2725
1010,274822,0.422608,-0.23668000000000003,-0.8108121,2.695,12.46,-12.3725
1011,274920,0.41968,-0.223504,-0.8249639999999999,0.6825,11.7775,-13.965
1012,275018,0.40748,-0.24522,-0.8261841000000001,-0.8925,11.4275,-15.8025
1013,275116,0.37698000000000004,-0.26596,-0.8383841000000001,-1.9425,12.0575,-18.5325
1014,275214,0.290848,-0.291092,-0.8527800999999999,-0.875,12.6875,-23.3625
1015,275312,0.376248,-0.278648,-0.8483879999999999,3.43,17.535,-29.015
1016,275410,0.45554799999999995,-0.255712,-0.818376,8.0675,24.22,-29.8725
1017,275508,0.41846000000000005,-0.21813600000000002,-0.820572,15.295,26.1625,-27.02
1018,275606,0.552904,-0.262788,-0.797636,24.675,31.325,-24.6225
1019,275704,0.577304,-0.139568,-0.8352120000000001,27.93,28.2275,-23.2575
1020,275802,0.5260640000000001,-0.122976,-0.8571719999999999,28.525,26.985,-20.0375
1021,275900,0.396988,-0.14566800000000002,-0.8876719999999999,32.2525,34.0375,-15.47
1022,275998,0.319884,-0.186172,-0.9335440999999999,40.53,51.1525,-13.23
1023,276096,0.303292,-0.193004,-0.915732,49.875,76.02,-12.635
1024,276194,0.332816,-0.205448,-0.975512,57.365,104.4575,-14.0175
1025,276292,0.31964000000000004,-0.137372,-0.928176,55.125,127.89,-15.925
1026,276390,0.39284,-0.1037,-0.9125601000000001,52.36,161.6475,-13.7025
1027,276488,0.435296,-0.162504,-0.868152,49.0175,201.985,-6.9825
1028,276587,0.27084,-0.205204,-0.8827921000000001,49.8575,248.92,-16.3625
1029,276685,-0.011468,-0.30012,-0.8195960999999999,50.4175,299.67,-65.38
1030,276783,1.091656,-0.9379360000000001,-0.942084,69.1425,364.0175,-126.4025
1031,276881,0.5023960999999999,-0.24156,-1.066036,62.965,440.335,-173.4425
1032,276979,1.077992,-0.435784,-1.269288,71.5225,554.7325,-168.0175
1033,277077,1.583316,0.07002799999999999,-2.3150720000000002,110.46,573.405,-161.49
1034,277175,1.2017,-0.25790799999999997,-1.99348,136.1325,573.405,-87.5875
1035,277273,2.8599240000000004,-0.398696,-2.496364,167.72,573.405,-35.455
1036,277371,3.3894040000000003,-0.21106,-1.867332,219.135,573.405,21.245
1037,277469,2.829424,-1.03944,-2.051308,252.1575,553.77,84.7525
1038,277567,3.506036,-1.100684,-3.8703279999999998,269.5175,285.215,142.87
1039,277665,2.573224,-1.130208,-4.703588,170.45,263.8825,110.53
1040,277763,0.01098,-0.40357600000000005,-3.5277519999999996,196.14,168.7,21.7525
1041,277861,4.151904,-3.762236,-2.439756,81.04251,128.9925,-121.1175
1042,277959,1.619428,-2.732556,-7.122603999999999,54.1625,139.65,-73.64
1043,278057,0.488,-1.7633880000000002,-4.200704,-101.3425,-90.335,-53.2875
1044,278156,-0.650016,-0.7056479999999999,-3.127104,-201.7575,-198.1175,-31.57
1045,278254,-1.086044,0.039284,-2.318488,-236.53,-248.3425,-31.92
1046,278352,-0.59658,0.044407999999999996,-2.16794,-210.8575,-276.1675,-39.1825
1047,278450,-0.200324,-0.090036,-2.068876,-177.765,-311.22,-48.44
1048,278548,0.07222401,-0.305,-1.866112,-153.6675,-358.6625,-59.43
1049,278646,0.219112,-0.457744,-1.544764,-146.615,-405.2475,-74.62
1050,278744,0.32818,-0.4636,-1.204872,-149.59,-437.535,-93.555
1051,278842,0.3477,-0.376004,-0.8357,-147.0525,-455.2275,-109.48
1052,278940,0.312076,-0.244,-0.568276,-124.7575,-459.8125,-118.055
1053,279038,0.38503200000000004,-0.207644,-0.5551,-81.84751,-452.235,-116.41
1054,279136,0.60024,-0.404552,-0.7473721,-31.5175,-439.6,-105.2275
1055,279234,0.937448,-0.7388319999999999,-1.0206520000000001,6.44,-433.4925,-91.0525
1056,279332,1.1651,-1.06994,-1.2724600000000001,19.25,-438.48,-79.5375
1057,279430,1.375672,-1.2221959999999998,-1.500356,13.3875,-449.7325,-69.615
1058,279528,1.49084,-1.131184,-1.579656,3.465,-463.33,-52.2725
1059,279626,1.641388,-1.0492,-1.6926279999999998,12.6175,-476.315,-27.125
1060,279724,2.186484,-0.820084,-1.7038520000000001,38.08,-485.87,5.39
1061,279822,2.214544,-1.00284,-1.6143040000000002,74.795,-496.72,46.6025
1062,279920,2.40584,-1.1829120000000002,-1.626016,94.53501,-497.35,73.3775
1063,280019,2.7969720000000002,-1.23586,-1.7763200000000001,93.0475,-483.4375,91.0
1064,280117,3.2217759999999998,-1.128744,-1.749724,86.5025,-461.8425,109.235
1065,280215,3.430396,-1.070184,-1.567456,89.65250999999999,-436.205,127.925
1066,280313,3.5755760000000003,-0.8884040000000001,-1.420568,96.25,-405.16,143.7625
1067,280411,3.886676,-0.6390359999999999,-1.343464,104.2825,-369.67,159.8275
1068,280509,4.235596,-0.284016,-1.2075559999999999,109.935,-338.7475,177.8
1069,280607,4.532544000000001,-0.347456,-0.8369200000000001,115.045,-320.81,195.3
1070,280705,4.452268,-0.5614439999999999,0.159088,89.005,-307.405,197.715
1071,280803,3.928156,-0.190564,1.4515559999999998,32.3575,-276.22,179.41
1072,280901,3.673664,0.673928,2.234796,-25.3925,-217.455,145.285
1073,280999,4.394684,1.599176,2.470988,-26.215,-155.7325,103.355
1074,281097,4.482036,0.8652241,2.999736,49.0,-102.8825,75.2675
1075,281195,3.774436,0.25790799999999997,2.876272,68.4425,-51.1,28.21
1076,281293,3.408436,0.077592,2.093032,21.0175,21.3675,-28.595
1077,281391,3.18542,-0.09540401,1.1995040000000001,-26.0575,92.155,-60.8475
1078,281489,3.126128,-0.428464,0.31232,-44.03,139.8775,-70.4375
1079,281587,-0.043188,-0.9945440000000001,-0.661728,-54.565,152.0225,-68.0575
1080,281685,-1.722884,-1.060912,-3.122468,-165.7775,252.0175,-40.1625
1081,281783,-2.911164,-0.14152,-1.381528,-203.42,286.4575,-3.1675
1082,281881,-7.400276,1.378112,5.082032,-81.91751,272.58,-33.5825
1083,281979,7.9634279999999995,-0.40967600000000004,-0.493612,13.3175,508.97,21.49
1084,282077,7.616948,2.671068,-4.199972,-29.365,513.345,182.2975
1085,282175,1.619916,1.889048,-2.262612,80.6225,284.165,-29.715
1086,282273,7.966112,-2.4026680000000002,-7.986609,17.9725,390.8625,-104.8075
1087,282372,0.636596,-1.733132,-1.272948,-48.265,68.215,16.24
1088,282470,0.15274400000000002,1.957612,-1.735084,-42.6825,16.1,-44.345
1089,282568,0.14152,-2.083516,-0.8049561,-18.9,72.0475,1.19
1090,282666,0.6600201,0.44505600000000006,-1.1529,-37.9575,32.2875,-17.535
1091,282764,0.6319600000000001,-0.5131319999999999,-0.8662001,-43.3825,21.1575,-30.6425
1092,282862,0.7617681,0.051484,-0.987956,-32.4275,8.1725,-25.4625
1093,282960,0.527528,-0.13078399999999998,-0.88328,-23.5025,-3.08,-22.015
1094,283058,0.457988,-0.064172,-0.8840120000000001,-14.9975,-3.1325,-14.9275
1095,283156,0.367464,-0.1586,-0.870592,-11.55,-4.165,-13.1425
1096,283254,0.39967199999999997,-0.12322000000000001,-0.8959681,-7.7,-2.7125,-12.495
1097,283352,0.479216,-0.05002,-0.9120720999999999,-3.7625,1.2425,-12.1975
1098,283450,0.466772,-0.10687200000000001,-0.908168,2.4325,3.955,-8.3475
1099,283548,0.454816,-0.101504,-0.9201241,7.7175,5.705,-4.6025
1100,283646,0.440176,-0.18178,-0.9093880999999999,13.51,7.3675,-0.9975
1101,283744,0.43676000000000004,-0.221308,-0.9006040999999999,16.9575,9.2925,-0.0175
1102,283842,0.359168,-0.199104,-0.880352,19.6875,11.9175,-1.4875
1103,283940,0.41455600000000004,-0.197884,-0.87474,23.3275,15.7675,-4.3575
1104,284039,0.43236800000000003,-0.249856,-0.8437520000000001,27.335,19.4075,-6.51
1105,284137,0.431392,-0.275476,-0.801784,30.065,23.87,-7.5775
1106,284235,0.390644,-0.11224,-0.84424,35.455,31.4125,-7.77
1107,284333,0.462868,-0.28694400000000003,-0.835456,44.1875,41.615,-8.89
1108,284431,0.50874,-0.18422,-0.766892,36.89,42.6125,-11.5675
1109,284529,0.6539201,-0.230336,-0.7224841,31.115,40.285,-11.83
1110,284627,0.6351319999999999,-0.288164,-0.653676,20.6325,24.115,-11.7075
1111,284725,0.5926760999999999,-0.305732,-0.677588,9.485,3.395,-11.8825
1112,284823,0.50508,-0.29646,-0.7503,2.3275,-11.0075,-13.1425
1113,284921,0.44212799999999997,-0.22106399999999998,-0.8322841000000001,-2.03,-18.2525,-15.5225
1114,285019,0.407236,-0.19739600000000002,-0.8671761,-1.575,-14.8925,-17.0275
1115,285117,0.36478,-0.207156,-0.8908440999999999,3.675,-4.5325,-17.7275
1116,285215,0.324764,-0.183976,-0.9010921000000001,11.725,11.06,-18.76
1117,285313,0.33671999999999996,-0.17568,-0.9037761000000001,22.82,30.5725,-18.8475
1118,285411,0.314272,-0.170068,-0.928176,33.7925,52.465,-19.215
1119,285509,0.265472,-0.157136,-0.9540401,43.4,77.28,-20.3
1120,285607,0.24936799999999998,-0.110044,-0.9764879999999999,53.585,109.2875,-23.625
1121,285705,0.331108,-0.160552,-0.996008,61.4425,147.4725,-29.2425
1122,285803,0.393572,-0.163968,-1.00406,66.8675,186.8475,-36.9075
1123,285901,0.380884,-0.171532,-0.9825879999999999,69.4225,222.915,-49.5075
1124,285999,0.205692,-0.233996,-0.8425321,65.555,261.4675,-71.1025
1125,286098,-0.274988,-0.169824,-0.9777081,72.345,319.7425,-102.235
1126,286196,0.8532681000000001,-0.6771,-0.9459880999999999,103.2325,392.07,-137.8825
1127,286294,0.710284,-0.23253200000000002,-1.1895,109.6375,476.035,-161.8575
1128,286392,1.2780719999999999,-0.124196,-1.678232,125.1425,559.265,-162.6625
1129,286490,1.8346360000000002,-0.169824,-2.4319479999999998,175.2275,573.405,-123.6025
1130,286588,2.333128,0.5873079999999999,-2.710108,262.6225,567.77,-42.14
1131,286686,3.172732,0.057584,-2.535892,337.0325,495.04,40.04
1132,286784,2.385344,0.493612,-2.863096,366.1,261.9575,75.21500999999999
1133,286882,2.074,0.169824,-2.024712,382.7075,100.2225,116.7775
1134,286980,-0.8671761,-0.168848,-1.277096,413.0525,-3.0975,86.6775
1135,287078,0.657092,-2.249924,-1.2021879999999998,347.8125,-23.905,-82.4075
1136,287176,4.014532,0.194956,-7.836303999999999,378.9975,-30.52,-134.2075
1137,287274,-1.406172,-1.000888,-1.658712,293.2125,-279.685,-210.4025
1138,287372,-2.52418,-0.41992399999999996,-0.834968,185.71,-297.0625,-196.6825
1139,287470,-1.455948,0.279136,-0.8169121,176.82,-253.0325,-157.115
1140,287568,-0.8640040000000001,0.40528400000000003,-1.1453360000000001,220.045,-231.6475,-79.485
1141,287666,-0.539484,0.310368,-1.4654639999999999,280.385,-251.475,-16.415
1142,287764,-0.30548800000000004,0.528992,-1.387872,279.9825,-282.345,21.315
1143,287862,-0.12932000000000002,1.12972,-1.363716,254.0825,-308.0175,31.5525
1144,287960,0.348432,1.583316,-1.4696120000000001,243.8625,-325.6225,17.36
1145,288059,0.721996,1.771196,-1.594784,255.885,-348.95,-14.3325
1146,288157,0.8310639999999999,1.9356520000000002,-1.63114,272.335,-376.74,-55.1775
1147,288255,0.9181720999999999,2.255292,-1.56892,286.4575,-399.455,-98.665
1148,288353,1.061644,2.519056,-1.507676,310.38,-414.3825,-145.11
1149,288451,1.22122,2.636908,-1.454728,345.555,-421.26,-189.6475
1150,288549,1.3917760000000001,2.495388,-1.468636,375.9525,-422.2925,-227.29
1151,288647,1.551596,2.29848,-1.50548,385.1225,-418.2325,-254.205
1152,288745,1.51768,2.028616,-1.4191040000000001,375.7075,-410.8125,-260.68
1153,288843,1.344684,1.986404,-1.3327280000000001,346.045,-396.795,-247.4675
1154,288941,1.345416,2.349964,-1.39812,305.7425,-375.97,-229.705
1155,289039,1.5001120000000001,2.885056,-1.514752,276.9025,-358.89,-224.63
1156,289137,1.673352,3.1290560000000003,-1.592344,265.9125,-353.71,-242.9875
1157,289235,1.759972,3.045608,-1.600396,259.245,-358.19,-279.3875
1158,289333,1.892464,2.5161279999999997,-1.309304,242.3575,-364.0175,-320.95
1159,289431,1.912716,1.8817279999999998,-0.9801479999999999,214.06,-365.12,-352.38
1160,289529,1.950048,1.316868,-0.798124,188.51,-351.085,-353.8325
1161,289627,2.1167,0.9318360000000001,-0.625616,171.9375,-326.5325,-319.2875
1162,289725,2.063752,1.1831559999999999,-0.5353359999999999,152.04,-297.6925,-269.675
1163,289823,2.334348,1.049688,-0.386252,140.9275,-266.5075,-228.0775
1164,289921,2.486848,1.103612,-0.219356,117.6,-235.0425,-202.93
1165,290020,2.501244,1.1995040000000001,0.099552,94.15,-201.495,-186.6025
1166,290118,2.419748,1.22488,0.328912,76.65,-164.8325,-175.77
1167,290216,2.41072,1.0121120000000001,0.315492,57.33,-127.7675,-171.3775
1168,290314,2.802828,0.9913719999999999,0.3965,-5.74,-61.9325,-195.825
1169,290412,5.060072,1.494256,1.6928720000000002,-117.39,23.5725,-248.5875
1170,290510,3.771996,1.984452,-1.418128,-99.715,58.8,-325.395
1171,290608,4.665036,-7.994416,-0.74908,63.2275,-101.3775,-111.4575
1172,290706,-0.327448,-1.230492,-0.023424,-191.1,-10.2375,146.1425
1173,290804,-2.3492319999999998,2.378756,-1.4757120000000001,-120.925,-68.565,-67.1825
1174,290902,0.8488761,1.5762399999999999,-1.21634,-78.8025,63.14,-34.2825
1175,291000,0.6612401,-1.424472,-0.9767321,29.5575,27.8775,-39.62
1176,291098,0.5946279999999999,0.09272000000000001,-0.956968,-12.8275,46.0075,-20.9125
1177,291196,0.2562,0.44652,-0.9516,-15.9425,28.3325,-23.73
1178,291294,0.809348,-0.21862399999999999,-1.038708,-18.1475,27.335,-27.3875
1179,291392,0.381128,0.08442401,-1.042124,-17.9025,14.525,-19.285
1180,291490,0.43432,0.22423600000000002,-0.96624,-19.8975,0.0,-18.375
1181,291589,0.51118,-0.171044,-0.940132,-4.0425,1.785,-15.6625
1182,291687,0.518256,-0.08052000000000001,-0.9301280000000001,-0.1225,1.54,-10.5175
1183,291785,0.478972,-0.126148,-0.9354959999999999,7.49,0.6125,-6.23
1184,291883,0.456524,-0.13078399999999998,-0.918416,6.0375,2.5725,-4.235
1185,291981,0.425292,-0.142984,-0.9120720999999999,7.8575,5.0575,-1.085
1186,292079,0.423096,-0.157868,-0.90402,6.755,6.4925,0.945
1187,292177,0.4087,-0.192272,-0.9018241,6.65,8.7675,2.1175
1188,292275,0.388936,-0.21472,-0.892308,6.4225,11.1125,0.28
1189,292373,0.37942,-0.208864,-0.8906,6.3525,13.3,-0.8575
1190,292471,0.383324,-0.194712,-0.886452,7.6825,16.4675,-1.4525
1191,292569,0.369172,-0.209352,-0.883036,9.765,20.02,-1.645
1192,292667,0.36282800000000004,-0.17641199999999999,-0.895236,13.44,25.41,-2.03
1193,292765,0.378932,-0.194224,-0.8805960999999999,18.13,31.29,-2.2575
1194,292863,0.40381999999999996,-0.23692399999999997,-0.8740081000000001,23.94,36.4175,-2.0825
1195,292961,0.35672800000000005,-0.23741199999999998,-0.8418,27.0025,37.0475,-2.3975
1196,293059,0.41455600000000004,-0.261812,-0.8398479999999999,33.1625,41.055,-5.635
1197,293157,0.41284799999999994,-0.305732,-0.8115439999999999,34.685,38.9375,-10.7975
1198,293255,0.399428,-0.24863600000000002,-0.823744,33.8625,37.4675,-15.05
1199,293353,0.46603999999999995,-0.286456,-0.8322841000000001,32.5675,36.3125,-18.6025
1200,293451,0.49312399999999995,-0.260836,-0.798124,29.855,33.25,-21.595
1201,293550,0.5063,-0.232776,-0.792024,25.2175,29.4875,-23.38
1202,293648,0.521184,-0.233996,-0.7788480999999999,20.965,23.555,-24.045
1203,293746,0.47677600000000003,-0.22935999999999998,-0.7956840999999999,16.6775,18.095,-23.24
1204,293844,0.447496,-0.244,-0.820084,15.26,16.59,-22.7325
1205,293942,0.434076,-0.256932,-0.8371639999999999,16.205,18.515,-24.2025
1206,294040,0.452132,-0.212524,-0.833016,17.7975,23.2575,-25.8125
1207,294138,0.454084,-0.213988,-0.827892,19.7925,28.805,-25.6725
1208,294236,0.457988,-0.23253200000000002,-0.8342360000000001,21.21,34.4925,-25.7775
1209,294334,0.486048,-0.193492,-0.813008,21.9275,40.915,-25.2
1210,294432,0.4453,-0.14884,-0.859856,24.325,46.6725,-22.96
1211,294530,0.46628400000000003,-0.20105599999999998,-0.841556,27.2825,57.4175,-18.6725
1212,294628,0.381128,-0.26596,-0.8371639999999999,32.5675,69.86,-17.5525
1213,294726,0.438712,-0.27205999999999997,-0.8195960999999999,41.0025,89.775,-19.7575
1214,294824,0.387228,-0.252296,-0.8901120000000001,52.08,110.1275,-24.045
1215,294922,0.461404,-0.223016,-0.814472,52.815,135.66,-30.8175
1216,295020,0.36575599999999997,-0.24522,-0.845216,59.92,163.135,-39.34
1217,295118,0.305244,-0.17616800000000002,-0.8100801,59.395,192.9725,-56.42
1218,295216,0.401624,-0.22326,-0.769088,61.4775,223.2825,-82.14499
1219,295314,0.9269561,-0.46774799999999994,-0.731268,63.56,253.05,-98.0525
1220,295412,0.787388,-0.164944,-0.809348,53.585,283.36,-114.975
1221,295510,1.543056,-0.41406800000000005,-1.103612,40.8975,346.465,-106.05
1222,295609,0.877424,0.096868,-1.4112959999999999,44.0475,387.8875,-108.7975
1223,295707,0.659288,0.43188000000000004,-0.94916,112.9625,443.205,-87.64
1224,295805,0.944524,0.186904,-1.590392,141.8375,493.4825,-28.0525
1225,295903,1.295152,0.24034,-1.4276440000000001,173.74,559.0374,33.74
1226,296001,1.826828,0.114436,-1.6487080000000003,255.2025,573.0725,132.09
1227,296099,2.551508,-0.161772,-1.874164,345.8175,559.615,213.2375
1228,296197,2.6232439999999997,0.203252,-1.209508,341.215,484.365,215.46
1229,296295,1.8705040000000002,0.35258,-1.9832319999999999,345.6775,387.0475,236.6175
1230,296393,2.05448,-0.742492,-2.5376,384.4575,213.465,324.4675
1231,296491,2.2408959999999998,-0.386252,-2.95362,365.715,216.2475,358.2075
1232,296589,0.63318,-0.627568,-3.408924,382.235,83.615,248.1325
1233,296687,2.3624080000000003,-2.4561040000000003,-3.059272,404.74,-10.9375,5.145
1234,296785,3.311812,-3.335968,-5.003952,230.2125,50.785,-55.2125
1235,296883,1.8031599999999999,-2.2448,-4.841204,145.4425,-88.0775,-45.4125
1236,296981,0.589504,-1.0431,-3.219336,-76.37001,-237.6325,-38.8325
1237,297079,-0.29524,0.248148,-2.255536,-132.3875,-301.49,-32.5675
1238,297177,-0.2928,0.668316,-1.7707080000000002,-107.3625,-335.3525,-31.0275
1239,297275,0.027327999999999998,0.595116,-1.572336,-41.8775,-353.9025,-26.215
1240,297373,0.220088,0.355752,-1.42618,2.38,-376.775,-23.8875
1241,297471,0.33794,0.13176,-1.282952,9.135,-400.8025,-30.2575
1242,297570,0.370392,0.208864,-1.11874,-22.785,-415.94,-48.8775
1243,297668,0.37942,0.496784,-0.9340321,-59.255,-419.58,-74.34
1244,297766,0.44652,0.72956,-0.9049959999999999,-69.79,-418.005,-101.36
1245,297864,0.623664,0.760304,-1.059936,-48.5275,-417.7075,-125.51
1246,297962,0.756156,0.5655920999999999,-1.16998,-10.92,-423.78,-142.0825
1247,298060,0.865468,0.25302800000000003,-1.217804,23.1,-434.8575,-147.1225
1248,298158,0.909632,-0.031476,-1.24196,40.81,-445.445,-142.0825
1249,298256,0.9379360000000001,-0.236192,-1.265384,41.545,-450.8875,-130.1475
1250,298354,1.042612,-0.229604,-1.303936,33.04,-450.8175,-110.18
1251,298452,1.046028,-0.24497600000000003,-1.33102,28.0875,-449.0675,-79.03
1252,298550,1.081652,-0.34867600000000004,-1.443748,28.175,-445.5325,-43.3125
1253,298648,1.270752,-0.31842,-1.484984,25.445,-439.145,-4.795
1254,298746,1.3298,-0.156404,-1.4091,23.0825,-430.045,40.6525
1255,298844,1.380064,0.067588,-1.3237,25.13,-414.4875,83.86001
1256,298942,1.6043,0.28011199999999997,-1.370792,29.3125,-390.1625,111.825
1257,299040,2.052772,0.24424400000000002,-1.737036,32.3225,-361.7075,122.325
1258,299138,2.799168,-0.057339999999999995,-2.2069799999999997,19.495,-342.4575,114.2925
1259,299236,3.4565040000000002,-0.330864,-2.256268,-17.9375,-340.7775,93.73
1260,299334,3.599244,-0.353312,-1.783396,-63.525,-348.8275,66.255
1261,299432,3.6443839999999996,-0.372832,-1.054568,-95.9175,-350.4725,36.085
1262,299530,3.667808,-0.343064,-0.33428,-102.025,-330.8725,8.5925
1263,299628,3.842512,-0.48092399999999996,0.29036,-78.0675,-304.2025,-11.9
1264,299726,3.9776879999999997,-0.370148,0.40381999999999996,-30.7475,-279.79,-6.3
1265,299825,3.8142080000000003,-0.5314321,1.049444,20.965,-249.025,13.23
1266,299923,3.6870839999999996,-0.7417600000000001,1.555744,47.9325,-203.63,37.73
1267,300021,3.655608,-0.767624,1.760948,32.34,-147.0875,53.62
1268,300119,3.709288,-0.5826720000000001,1.892952,-6.44,-81.13,59.8675
1269,300217,3.765896,-0.23692399999999997,1.862208,-39.1825,-21.0875,53.375
1270,300315,3.10612,0.13542,2.49368,-47.1975,32.4625,41.4575
1271,300413,3.289364,0.238144,2.420236,-33.6175,185.29,1.2075
1272,300511,1.61406,-0.260104,1.2641639999999998,-30.905,245.4025,-35.7175
1273,300609,0.384788,-0.540216,-2.947276,-63.2625,211.26,-88.46251
1274,300707,-1.187548,-0.21032800000000001,-4.327828,-87.5875,186.3225,-95.445
1275,300805,-0.7556681,-0.04514,0.153232,-22.6975,199.01,-62.8425
1276,300903,1.3969,0.285236,0.8003201,-22.9075,258.72,-97.3875
1277,301001,3.4574800000000003,-0.028548,-3.956704,23.9575,313.04,-78.26
1278,301099,2.809904,0.21472,-2.83528,32.13,218.6275,-33.635
1279,301197,1.1285,0.80276,-1.400072,10.9375,141.085,-34.755
1280,301295,0.5926760999999999,-0.07978801,-1.186328,46.025,111.895,-43.435
1281,301393,1.068964,-1.1794959999999999,-1.352004,41.965,103.5125,-36.6975
1282,301491,1.1895,-1.306132,-1.370792,13.16,84.5775,-23.9575
1283,301589,0.73932,-0.20447200000000001,-1.128744,-4.55,51.87,-18.515
1284,301687,0.358192,0.123708,-1.054324,-11.5675,32.5325,-14.5775
1285,301785,0.39894,-0.546804,-0.9469641,-4.4975,29.75,-14.1225
1286,301884,0.441396,-0.5648601,-0.9086559999999999,-12.6,24.71,-14.6125
1287,301982,0.48385200000000006,-0.045627999999999995,-1.026752,-20.1775,15.68,-16.17
1288,302080,0.499224,-0.066124,-1.036512,-12.4775,10.64,-13.6325
1289,302178,0.398208,-0.276452,-0.9191481,-3.4825,6.3525,-9.2575
1290,302276,0.376492,-0.207644,-0.9203680000000001,-0.14,3.605,-7.5425
1291,302374,0.359168,-0.10321199999999998,-0.930616,2.9925,2.5025,-6.475
1292,302472,0.303292,-0.17397200000000002,-0.8810841,6.545,3.01,-5.4775
1293,302570,0.371612,-0.201544,-0.9145120999999999,9.24,5.4425,-4.865
1294,302668,0.41894799999999993,-0.18056,-0.8991401,12.1975,5.775,-3.2725
1295,302766,0.341356,-0.2318,-0.8842561,13.615,3.955,-1.9425
1296,302864,0.358192,-0.274988,-0.871568,13.9475,4.8475,-1.575
1297,302962,0.37088000000000004,-0.27938,-0.8674200000000001,13.58,6.1425,-1.9075
1298,303060,0.393572,-0.270596,-0.8532681000000001,12.7225,6.09,-2.4675
1299,303158,0.36087600000000003,-0.302072,-0.82594,10.9025,5.985,-2.905
1300,303256,0.349652,-0.288408,-0.8283799999999999,7.7,6.475,-4.235
1301,303354,0.357216,-0.25376,-0.8369200000000001,4.4275,7.1575,-6.09
1302,303452,0.36941599999999997,-0.284016,-0.8427761,1.89,8.6975,-7.42
1303,303550,0.35258,-0.28938400000000003,-0.81984,-0.875,9.8525,-8.3825
1304,303648,0.351848,-0.25424800000000003,-0.832528,-3.29,11.585,-9.765
1305,303747,0.337208,-0.27571999999999997,-0.8086161000000001,-5.6,14.3325,-11.1825
1306,303845,0.339648,-0.309148,-0.83936,-8.6975,17.08,-13.44
1307,303943,0.401624,-0.274744,-0.8559521000000001,-11.2,19.635,-15.295
1308,304041,0.498004,-0.21106,-0.891576,-11.3225,20.5975,-15.575
1309,304139,0.355752,-0.28304,-0.8369200000000001,-9.905,19.11,-13.685
1310,304237,0.353068,-0.282064,-0.8486319999999999,-9.6425,20.44,-14.91
1311,304335,0.4392,-0.256932,-0.8371639999999999,-5.915,22.54,-16.205
1312,304433,0.3843,-0.25302800000000003,-0.8845,-3.255,20.2125,-16.87
1313,304531,0.39161999999999997,-0.2623,-0.8888921000000001,2.695,19.1975,-16.0475
1314,304629,0.444324,-0.163236,-0.9262239999999999,11.8475,20.895,-15.05
1315,304727,0.367952,-0.193492,-0.9301280000000001,24.7975,25.2175,-14.595
1316,304825,0.238632,-0.295484,-0.9450120000000001,40.1975,37.6425,-18.515
1317,304923,0.146644,-0.12932000000000002,-0.9635560999999999,54.4775,57.8375,-18.515
1318,305021,0.327692,-0.144204,-0.9650200999999999,70.105,92.83751,-13.4225
1319,305119,0.279868,-0.174948,-0.9450120000000001,77.2975,118.9125,-14.035
1320,305217,0.33794,-0.168848,-0.951844,72.94,144.6725,-19.845
1321,305315,0.329156,-0.101016,-0.94916,62.58,170.7475,-17.1325
1322,305413,0.42626800000000004,-0.184952,-0.8720559999999999,54.005,210.35,-13.895
1323,305511,0.309636,-0.205448,-0.8147161,50.365,252.8925,-17.22
1324,305610,0.052216,-0.28914,-0.821304,55.2475,303.2225,-55.8775
1325,305708,1.208776,-0.8466800999999999,-0.72956,64.8375,355.7575,-131.6875
1326,305806,0.49044,-0.28792,-1.078236,57.3475,421.7325,-173.075
1327,305904,1.125084,-0.21472,-1.2104840000000001,58.3275,543.2875,-169.82
1328,306002,1.305156,0.088328,-2.124508,109.9525,572.95,-142.555
1329,306100,0.500444,-0.21301199999999998,-1.495232,145.705,573.3525,-78.47
1330,306198,1.9339439999999999,-0.42187600000000003,-1.708732,160.93,573.405,-51.135
1331,306296,2.970212,-0.38552,-1.8400040000000002,182.035,573.3875,6.02
1332,306394,2.826984,-0.18056,-2.069608,198.8875,572.9675,41.965
1333,306492,2.7240159999999998,-1.587952,-2.02642,219.135,426.0725,125.3875
1334,306590,3.351096,-0.97356,-3.51726,166.145,169.225,150.115
1335,306688,1.25294,-1.303936,-3.9440160000000004,101.255,196.4375,126.3325
1336,306786,1.420324,-0.04392,-3.80274,102.445,70.4375,-87.36
1337,306884,3.4845639999999998,-1.9707880000000002,-5.871128,46.165,136.1325,-145.845
1338,306982,1.196332,-1.640168,-5.455596,44.38,10.255,-118.9475
1339,307080,-0.222284,-1.0187,-3.798104,-120.5225,-156.9225,-126.5775
1340,307178,-0.955992,-0.33794,-2.724992,-177.03,-226.24,-131.6525
1341,307276,-0.823256,-0.183,-2.300188,-193.69,-257.705,-144.7775
1342,307374,-0.584868,-0.293044,-2.085956,-174.055,-275.975,-151.83
1343,307472,-0.334768,-0.5070319999999999,-1.9014919999999997,-152.635,-301.8925,-152.0225
1344,307571,-0.142496,-0.740296,-1.6670080000000003,-137.48,-333.13,-147.0525
1345,307669,-0.000488,-0.889868,-1.4210559999999999,-132.335,-362.0225,-139.8425
1346,307767,0.1525,-0.921832,-1.200236,-130.095,-382.2875,-129.4125
1347,307865,0.213988,-0.8906,-1.011624,-121.17,-395.255,-113.085
1348,307963,0.299388,-0.9864921,-0.9708760000000001,-102.06,-401.8,-91.805
1349,308061,0.5738880000000001,-1.174372,-1.059692,-83.895,-403.1125,-68.565
1350,308159,0.83814,-1.31882,-1.149728,-75.6175,-406.805,-46.0075
1351,308257,1.016504,-1.354444,-1.210728,-73.5,-415.345,-25.305
1352,308355,1.143384,-1.396412,-1.263188,-70.595,-426.16,-5.0925
1353,308453,1.292712,-1.392264,-1.306132,-64.96,-435.0675,12.74
1354,308551,1.281976,-1.194136,-1.3329719999999998,-54.32,-442.6975,30.8175
1355,308649,1.321504,-1.035536,-1.462292,-30.485,-446.3375,48.8075
1356,308747,1.599176,-0.984784,-1.6399240000000002,3.5,-447.3175,60.795
1357,308845,2.05692,-0.8322841000000001,-1.581608,37.8525,-447.545,72.1175
1358,308943,2.119384,-0.964776,-1.436672,76.4575,-450.4325,83.2825
1359,309041,2.24602,-0.9767321,-1.31272,102.165,-441.175,84.5425
1360,309140,2.4368279999999998,-0.9964959999999999,-1.356152,120.89,-416.885,90.30001
1361,309238,2.89628,-1.220244,-1.524268,131.915,-388.4125,99.155
1362,309336,3.4977400000000003,-1.45668,-1.736792,128.94,-368.305,107.1525
1363,309434,4.041372,-1.316868,-1.6801840000000001,114.87,-359.7825,119.315
1364,309532,3.981592,-0.547536,-1.377624,113.715,-360.85,147.735
1365,309630,4.036980000000001,-0.018544,-0.85644,138.635,-355.565,187.74
1366,309728,4.190456,0.085888,-0.202764,158.2875,-338.6075,206.9375
1367,309826,3.9598760000000004,-0.139568,0.653432,146.2475,-302.855,192.5
1368,309924,3.5343400000000003,-0.055144000000000006,1.630408,89.3025,-245.1575,148.9425
1369,310022,3.487492,0.36502399999999996,1.9829880000000002,7.98,-169.505,90.1075
1370,310120,4.198752,1.172664,1.8524479999999999,-37.1875,-99.10251,33.8275
1371,310218,4.482524,0.821792,2.1008400000000003,-0.7175,-50.2425,12.635
1372,310316,3.793468,0.321592,2.204052,30.9575,-10.4825,2.975
1373,310414,3.331088,0.040260000000000004,1.731668,9.31,48.1775,-14.455
1374,310512,3.250568,0.038064,0.945744,-38.3075,115.08,-27.4925
1375,310610,-0.274012,-0.1586,-0.8274040000000001,-77.945,159.74,-36.575
1376,310708,0.462624,0.9032879999999999,-1.634556,-152.6525,270.41,-64.61
1377,310806,-0.794952,0.8105680000000001,-3.049268,-115.7275,250.915,-46.41
1378,310905,-2.954596,0.204228,-0.63562,-6.3525,188.16,-15.995
1379,311003,-0.34721199999999997,1.081164,2.4221880000000002,-0.42,295.365,-74.2175
1380,311101,6.039,0.644648,-3.892532,41.4925,494.2175,-104.5975
1381,311199,3.975492,-0.17616800000000002,-4.175572,85.62751,319.375,-57.4525
1382,311297,1.718004,0.370636,-1.580876,37.6075,211.9425,-43.68
1383,311395,1.447164,-1.9727400000000002,-2.063508,59.4825,156.5025,-63.105
1384,311493,1.522804,-1.657248,-1.413736,1.505,131.6175,-43.1025
1385,311591,0.9516,-0.001464,-1.3090600000000001,-32.27,88.48001,-31.4125
1386,311689,0.36282800000000004,0.252052,-1.188524,-48.3875,53.655,-32.2
1387,311787,0.583648,-0.503372,-1.0765280000000002,-33.8625,48.44,-29.155
1388,311885,0.656848,-0.410896,-1.141432,-32.1825,39.025,-21.9625
1389,311983,0.52094,-0.026595999999999998,-1.061888,-27.23,19.4775,-17.2025
1390,312081,0.449204,-0.154696,-0.9784401,-15.4525,13.5625,-11.6025
1391,312179,0.41846000000000005,-0.187148,-0.9354959999999999,-8.015,10.255,-7.8225
1392,312277,0.360632,-0.081252,-0.9408639999999999,-3.4825,6.5625,-6.93
1393,312375,0.367708,-0.142496,-0.9167081,2.135,8.645,-4.795
1394,312473,0.366732,-0.173484,-0.9015799999999999,7.14,9.7825,-3.605
1395,312571,0.294508,-0.122976,-0.9059721,9.975,9.485,-4.1825
1396,312669,0.310612,-0.12248800000000001,-0.9284200999999999,12.04,12.6175,-4.3575
1397,312767,0.383812,-0.29133600000000004,-0.9103641,13.335,17.115,-2.8875
1398,312866,0.43236800000000003,-0.302316,-0.8847440999999999,11.4975,18.13,-1.89
1399,312964,0.39479200000000003,-0.3416,-0.8544879999999999,11.9525,16.4675,-2.1175
1400,313062,0.402844,-0.36966,-0.824232,10.395,15.4,-3.955
1401,313160,0.377956,-0.272304,-0.8388721,6.7025,14.1225,-6.5275
1402,313258,0.381616,-0.219356,-0.8405800999999999,4.515,13.3875,-8.12
1403,313356,0.377956,-0.24522,-0.8664440000000001,3.0975,13.8775,-9.065
1404,313454,0.4087,-0.270596,-0.8476561,1.96,14.42,-10.0275
1405,313552,0.39967199999999997,-0.256932,-0.8608319999999999,1.2075,13.6325,-11.2175
1406,313650,0.42700000000000005,-0.242292,-0.8413120000000001,1.855,13.545,-11.2
1407,313748,0.40528400000000003,-0.23082399999999997,-0.8479,2.835,13.545,-10.36
1408,313846,0.391864,-0.238144,-0.862784,3.0975,13.93,-10.6925
1409,313944,0.357216,-0.26961999999999997,-0.8547319999999999,3.85,13.93,-11.865
1410,314042,0.349164,-0.288652,-0.8344801,7.63,16.45,-14.315
1411,314140,0.3233,-0.258152,-0.8427761,10.6225,18.83,-16.1175
1412,314238,0.359412,-0.303292,-0.8178880999999999,14.42,21.91,-18.06
1413,314336,0.41113999999999995,-0.274256,-0.8030041,18.725,24.0625,-18.55
1414,314434,0.428708,-0.24424400000000002,-0.837408,21.8925,24.71,-18.0425
1415,314532,0.458232,-0.227652,-0.837408,26.215,24.465,-19.3375
1416,314630,0.38918,-0.187636,-0.898164,30.765,28.035,-18.7425
1417,314729,0.364536,-0.21838000000000002,-0.907436,37.625,38.955,-18.2875
1418,314827,0.342332,-0.16226,-0.9418401,42.315,54.1275,-18.445
1419,314925,0.314272,-0.203496,-0.9357401,49.56,74.585,-18.4275
1420,315023,0.273524,-0.20691199999999998,-0.9567241,57.12,101.465,-21.4725
1421,315121,0.32256799999999997,-0.221552,-0.96624,57.155,134.8725,-25.62
1422,315219,0.395036,-0.140544,-0.9345201,48.265,161.7,-27.895
1423,315317,0.372344,-0.086132,-0.8918200000000001,47.4775,199.4125,-20.93
1424,315415,0.444812,-0.172996,-0.8488761,45.64,240.6775,-18.3575
1425,315513,0.015128,-0.171776,-0.89792,44.3975,283.22,-38.92
1426,315611,0.777872,-0.646844,-0.732244,48.3525,326.795,-92.925
1427,315709,0.48873199999999994,-0.39918400000000004,-0.7612800999999999,55.6675,390.53,-142.7125
1428,315807,0.8959681,-0.561688,-1.155828,48.93,478.0825,-171.815
1429,315905,0.6512359999999999,0.282064,-1.098244,53.725,568.855,-179.2875
1430,316003,0.82594,-0.34892,-2.014952,80.5175,573.2825,-152.2325
1431,316101,1.31272,-0.24790399999999999,-1.6801840000000001,104.23,573.405,-105.6125
1432,316199,2.6839999999999997,-0.47043199999999996,-1.8758720000000002,125.685,573.405,-56.5075
1433,316297,3.096116,-0.391864,-1.6989720000000001,175.1225,573.405,-6.7725
1434,316395,2.709864,-1.267092,-1.741916,214.935,556.955,47.4425
1435,316493,2.661552,-1.00528,-2.918972,244.6675,284.69,70.9975
1436,316591,3.260328,-1.362252,-3.74784,171.08,181.79,84.77
1437,316689,0.381372,-0.654652,-4.741896,149.73,136.745,55.2825
1438,316788,2.906772,-3.2532520000000003,-1.95078,150.99,30.6425,-119.2625
1439,316886,2.560292,-2.636908,-7.299016,38.4475,81.91751,-44.2575
1440,316984,0.715896,-1.6735959999999999,-4.1423879999999995,-65.695,-143.71,-42.7175
1441,317082,-0.729804,-0.515328,-3.111976,-199.815,-260.3475,-43.855
1442,317180,-1.013332,0.177144,-2.29238,-223.02,-302.1375,-60.2525
1443,317278,-0.713212,0.23228800000000002,-2.137196,-182.84,-322.665,-73.57
1444,317376,-0.3355,0.0051240009999999996,-1.98616,-121.3625,-346.955,-77.1925
1445,317474,-0.01952,-0.3965,-1.790716,-74.235,-383.6175,-72.555
1446,317572,0.104432,-0.70516,-1.419836,-59.2375,-421.3825,-68.5825
1447,317670,0.162504,-0.8054439999999999,-1.057496,-69.51,-444.885,-68.8625
1448,317768,0.177144,-0.7317560000000001,-0.752984,-82.6525,-451.185,-67.375
1449,317866,0.25522399999999995,-0.6344,-0.621468,-82.11,-442.54,-60.41
1450,317964,0.502152,-0.5724239999999999,-0.7700640999999999,-64.27750999999999,-426.09,-48.6675
1451,318062,0.8525360000000001,-0.6263479999999999,-1.013088,-36.82,-415.765,-30.31
1452,318160,1.117032,-0.734684,-1.22976,-12.565,-418.425,-8.785
1453,318258,1.249768,-0.808372,-1.356884,0.0875,-428.96,9.8
1454,318356,1.2312239999999999,-0.8718120999999999,-1.331996,1.7675,-440.02,22.9075
1455,318454,1.2322,-0.858392,-1.363472,-1.1725,-445.41,32.76
1456,318552,1.269288,-0.73688,-1.462292,-3.045,-443.31,46.2875
1457,318650,1.310768,-0.592432,-1.6745720000000002,6.4225,-436.835,65.9575
1458,318748,1.470588,-0.5294800000000001,-1.694336,26.005,-428.0675,84.56
1459,318846,1.871968,-0.21301199999999998,-1.496208,53.0075,-415.1875,100.5025
1460,318944,1.8892919999999997,-0.42163199999999995,-1.266604,95.55,-398.335,122.605
1461,319043,2.1591560000000003,-0.6517241,-1.20658,116.97,-366.94,137.2175
1462,319141,2.50832,-0.9228081,-1.290516,104.37,-320.495,141.0675
1463,319239,2.828936,-1.083848,-1.40056,57.1025,-274.26,137.0775
1464,319337,3.476756,-0.8996280999999999,-1.497428,-16.6425,-236.8975,119.7175
1465,319435,4.050888,-0.36234,-1.4715639999999999,-64.575,-221.795,98.735
1466,319533,4.438848,-0.08369201,-1.197308,-57.435,-232.4525,90.63251
1467,319631,4.719936,-0.08637601,-0.67832,-15.7325,-258.16,95.585
1468,319729,4.685776000000001,-0.308172,0.2318,29.4,-282.765,111.7025
1469,319827,4.251212000000001,-0.405528,1.243668,50.1375,-286.16,131.4075
1470,319925,3.7593080000000003,-0.248148,2.013244,41.72,-256.795,138.2675
1471,320023,3.5502,0.033184,2.578836,21.14,-192.745,133.7525
1472,320121,3.5043279999999997,0.225944,2.764032,10.255,-114.17,116.9525
1473,320219,3.4038,0.159088,2.47782,12.005,-38.955,89.46
1474,320317,3.345728,-0.101016,1.8656240000000002,6.5625,32.725,59.045
1475,320415,3.3637839999999994,-0.311832,1.14436,-15.6975,93.8,31.6925
1476,320513,1.872944,-0.24863600000000002,0.42065600000000003,-41.86,134.33,16.695
1477,320611,0.71614,-0.252784,-3.718316,-51.905,158.9,-16.1875
1478,320709,-1.013332,0.09150001,-1.2500120000000001,-57.3475,216.2825,-24.0625
1479,320807,-2.013488,0.427976,-2.7572,-27.195,171.0625,-29.925
1480,320905,-2.756224,0.913292,2.581276,4.62,195.125,-33.4775
1481,321003,1.8126759999999997,-0.187636,0.58072,38.8675,345.275,-100.6775
1482,321101,5.027376,0.671244,-4.640391999999999,92.925,436.8175,-89.53
1483,321200,2.75842,0.21301199999999998,-2.454396,113.0325,298.6725,-28.63
1484,321298,1.88978,-0.049288,-2.467572,83.7025,227.22,-53.4275
1485,321396,2.881884,-2.76208,-2.710108,50.8375,169.4,-61.8975
1486,321494,1.1468,-1.438136,-0.955992,-46.8125,106.3475,-9.975
1487,321592,0.1098,0.547048,-1.2634319999999999,-46.6725,51.135,-26.7225
1488,321690,0.509716,0.030744,-1.0943399999999999,-30.205,60.97,-25.1125
1489,321788,0.515084,-0.9335440999999999,-0.94916,-20.545,55.405,-21.595
1490,321886,0.49605200000000005,-0.130296,-1.054812,-25.62,37.0825,-19.88
1491,321984,0.5697399999999999,-0.228872,-1.076284,-19.5125,28.91,-17.815
1492,322082,0.6007279999999999,-0.262788,-0.9964959999999999,-10.815,21.6475,-12.985
1493,322180,0.42553599999999997,-0.019764,-0.9947881,-2.7125,8.9425,-9.0825
1494,322278,0.390156,-0.21032800000000001,-0.9120720999999999,5.705,8.085,-5.95
1495,322376,0.382836,-0.0549,-0.953308,9.835,7.7175,-4.3225
1496,322474,0.360632,-0.010736,-0.9708760000000001,15.2425,7.735,-1.9075
1497,322572,0.37088000000000004,-0.18544000000000002,-0.9125601000000001,21.315,11.025,2.17
1498,322670,0.38918,-0.21618400000000002,-0.9137799999999999,23.065,13.5275,4.6725
1499,322768,0.38918,-0.33428,-0.8862081,22.1025,14.07,5.67
1500,322866,0.410652,-0.367464,-0.850584,19.7575,13.5625,5.8275
1501,322964,0.375272,-0.32403200000000004,-0.824232,17.29,12.4075,3.325
1502,323062,0.349408,-0.32208000000000003,-0.826672,14.2975,12.495,1.645
1503,323161,0.281088,-0.36112,-0.782508,10.22,13.5625,-1.96
1504,323259,0.2257,-0.37454,-0.7903161,5.075,16.7125,-6.9825
1505,323357,0.33794,-0.332816,-0.8215481,1.015,22.2075,-13.3
1506,323455,0.420412,-0.30744,-0.838628,-0.5075,23.8525,-17.3075
1507,323553,0.43334399999999995,-0.272304,-0.8308200000000001,0.42,22.3125,-18.76
1508,323651,0.43432,-0.27205999999999997,-0.826916,2.2225,21.2275,-18.7425
1509,323749,0.386984,-0.284992,-0.8103239999999999,3.3425,19.46,-18.6025
1510,323847,0.394304,-0.266936,-0.8066641,4.305,21.035,-19.5825
1511,323945,0.35672800000000005,-0.263764,-0.815936,3.465,23.1875,-19.8275
1512,324043,0.35160399999999997,-0.294508,-0.821304,5.25,28.0175,-20.02
1513,324141,0.310856,-0.306708,-0.8400921,7.735,32.1475,-21.7875
1514,324239,0.406504,-0.2806,-0.8413120000000001,13.65,37.3625,-23.73
1515,324337,0.358192,-0.3477,-0.81374,20.055,38.255,-23.1875
1516,324435,0.31964000000000004,-0.357216,-0.8405800999999999,22.61,38.0625,-24.465
1517,324533,0.4514,-0.30378,-0.8271601000000001,23.31,37.73,-28.4725
1518,324631,0.6019479999999999,-0.201544,-0.8371639999999999,25.55,39.235,-30.975
1519,324729,0.45554799999999995,-0.166408,-0.9284200999999999,31.1675,44.3975,-29.1725
1520,324827,0.40211199999999997,-0.170312,-0.9198799999999999,31.99,54.9325,-27.545
1521,324925,0.394304,-0.1647,-0.900848,39.095,71.89,-25.62
1522,325023,0.392596,-0.155916,-0.9335440999999999,45.745,94.99,-25.1475
1523,325121,0.41113999999999995,-0.15201199999999998,-0.9128040000000001,46.165,122.115,-21.63
1524,325219,0.399916,-0.1525,-0.912316,48.1075,149.2575,-14.035
1525,325317,0.399428,-0.15176800000000001,-0.8752280000000001,48.8075,180.425,-11.0775
1526,325415,0.222284,-0.1647,-0.9015799999999999,58.59,219.1175,-22.2425
1527,325513,0.379176,-0.35672800000000005,-0.7991,62.58,254.31,-53.27
1528,325612,0.913536,-0.865468,-0.8342360000000001,66.0275,308.385,-83.895
1529,325710,0.45432799999999995,-0.296216,-0.9964959999999999,70.6825,373.38,-137.0075
1530,325808,1.097756,-0.626104,-1.265628,71.155,492.31,-158.585
1531,325906,0.759084,0.542168,-1.9000279999999998,75.88,564.76,-182.84
1532,326004,0.27816,-0.27523200000000003,-1.529636,109.5675,570.71,-129.5175
1533,326102,1.239276,0.016836,-1.4269120000000002,126.1225,573.405,-105.525
1534,326200,3.05,-0.29524,-1.969324,142.205,573.405,-43.5925
1535,326298,3.3977,0.040016,-1.588684,188.2475,573.405,14.735
1536,326396,2.8618759999999996,-1.380796,-1.9307720000000002,220.43,548.0125,83.4575
1537,326494,3.4738279999999997,-1.291492,-2.805512,237.125,250.145,133.035
1538,326592,2.852848,-1.5847799999999999,-3.502132,152.3375,127.995,161.7875
1539,326690,-0.075396,0.345504,-3.7983480000000003,93.485,85.47,64.4
1540,326788,4.3859,-3.4321040000000003,-1.3949479999999999,41.1075,76.615,-163.835
1541,326886,1.345172,-1.819752,-6.233956,52.2725,168.2625,-105.0875
1542,326984,0.643184,-1.3644479999999999,-3.6661,-58.8525,-48.195,-90.28251
1543,327082,-0.570716,-0.485804,-2.828936,-144.935,-146.4575,-82.32
1544,327180,-0.821304,-0.138104,-2.0295919999999996,-179.5675,-192.2725,-95.7775
1545,327278,-0.580964,-0.125172,-1.8995400000000002,-170.1,-211.575,-112.455
1546,327376,-0.31476,-0.27205999999999997,-1.759484,-151.515,-237.195,-124.6175
1547,327474,-0.133712,-0.501908,-1.609668,-131.5475,-271.0225,-129.22
1548,327572,-0.05172801,-0.680516,-1.3620079999999999,-121.9575,-306.3375,-130.06
1549,327670,0.014884,-0.818376,-1.106296,-120.3475,-333.9875,-127.4875
1550,327768,0.033428,-0.8510719999999999,-0.83204,-122.1675,-351.1375,-122.1675
1551,327866,0.061488,-0.8388721,-0.7129681,-115.92,-358.19,-111.4925
1552,327964,0.302072,-0.9323239999999999,-0.817156,-99.38251,-358.3475,-92.7325
1553,328062,0.576816,-1.068964,-0.9703879999999999,-81.97001,-363.2475,-68.95
1554,328160,0.772016,-1.20292,-1.031876,-70.1225,-377.7025,-43.0325
1555,328258,0.922076,-1.2780719999999999,-1.081652,-66.6225,-395.92,-18.2
1556,328356,0.998448,-1.2944200000000001,-1.039196,-68.4425,-413.14,3.955
1557,328454,1.037,-1.24074,-1.045784,-69.195,-425.7925,23.275
1558,328552,1.128012,-1.095072,-1.118496,-66.0625,-432.6525,41.125
1559,328650,1.21268,-0.8666879999999999,-1.203164,-54.95,-438.4625,57.8725
1560,328749,1.337852,-0.659288,-1.324432,-32.55,-444.045,71.12
1561,328847,1.57136,-0.588284,-1.41764,-1.1025,-449.0325,78.435
1562,328945,1.777784,-0.7027201,-1.43228,28.7525,-452.935,80.22
1563,329043,1.929064,-0.9145120999999999,-1.432768,44.835,-452.2875,75.845
1564,329141,2.0984,-1.097024,-1.533784,45.745,-442.435,69.3
1565,329239,2.2967720000000003,-1.17852,-1.677256,38.71,-424.6025,68.5825
1566,329337,2.675948,-0.968924,-1.720932,33.495,-404.0575,70.1575
1567,329435,2.9492279999999997,-0.252052,-1.6448040000000002,54.705,-387.31,82.915
1568,329533,3.192008,-0.244,-1.578192,121.2575,-372.4,114.8
1569,329631,4.006480000000001,-0.4594521,-1.7460639999999998,158.375,-351.575,130.2
1570,329729,4.513024,-0.6158561,-1.548668,153.7025,-343.14,133.7175
1571,329827,4.68236,-0.5797441,-0.8752280000000001,116.4275,-342.405,132.1425
1572,329925,4.1236,-0.43334399999999995,0.35868,67.41001,-328.16,130.6025
1573,330023,3.628768,0.187392,1.582096,10.7625,-282.4325,119.595
1574,330121,3.606808,1.084092,2.087176,-19.3025,-212.03,97.07251
1575,330219,4.504972,1.1529,2.383636,3.92,-139.9825,66.5875
1576,330317,4.551819999999999,0.662216,2.866756,45.9375,-85.33,37.03
1577,330415,3.857884,0.509228,2.781356,47.39,-34.8425,-9.94
1578,330513,3.2351959999999997,0.15738,2.2423599999999997,23.7475,37.135,-49.665
1579,330611,3.119296,-0.233752,1.215608,-16.2575,115.325,-75.2675
1580,330709,3.319864,-0.577548,0.09613601,-54.39,172.7775,-86.485
1581,330807,3.187616,-0.81252,-0.6646561,-74.13,194.95,-75.6
1582,330905,-1.678232,-1.567212,-5.548072,-66.4125,141.12,-62.4575
1583,331003,-3.4221,-0.30378,-5.378004,-120.6975,118.9125,-34.37
1584,331101,-2.196244,-0.23546,-1.1270360000000001,-69.6325,106.4,42.735
1585,331199,-4.097736,-0.15372,5.7471760000000005,8.89,197.47,76.58
1586,331298,0.951356,0.494832,-0.116632,18.48,343.2625,-33.565
1587,331396,6.436964,1.4896200000000002,-5.164992,83.7025,481.0925,-5.32
1588,331494,2.649352,1.8583040000000002,-2.0984,10.3075,292.915,-0.9275
1589,331592,1.65798,0.785192,-2.130364,45.43,212.17,-77.4375
1590,331690,2.3014080000000003,-2.889448,-2.340204,73.3425,174.545,-83.66751
1591,331788,1.437648,-2.267492,-1.2458639999999999,-19.32,129.22,-23.345
1592,331886,0.46774799999999994,0.8781559999999999,-1.49206,-56.2625,64.5925,-37.975
1593,331984,0.82594,0.388936,-1.446676,-40.145,56.35,-32.3575
1594,332082,0.47775200000000007,-1.01138,-0.853024,-4.9525,41.7725,-11.1825
1595,332180,0.368196,-0.184952,-1.021384,-20.4575,23.835,-12.1625
1596,332278,0.5314321,-0.07881200000000001,-1.012844,-18.69,21.1225,-11.7425
1597,332376,0.41968,-0.416508,-0.9067040000000001,-10.395,18.0425,-3.99
1598,332474,0.41113999999999995,-0.040016,-0.9557479999999999,-10.115,11.515,-7.8225
1599,332572,0.378688,-0.17324,-0.922076,-4.1125,10.71,-5.2675
1600,332670,0.41553199999999996,-0.16689600000000002,-0.934276,-0.2275,11.6725,-2.94
1601,332768,0.355752,-0.046116000000000004,-0.9489161,4.06,10.01,-4.375
1602,332866,0.349164,-0.15176800000000001,-0.925736,10.36,12.5825,-2.6425
1603,332964,0.40528400000000003,-0.260592,-0.887184,12.7225,16.52,-1.785
1604,333062,0.388936,-0.285724,-0.8752280000000001,12.11,16.695,-1.785
1605,333160,0.401868,-0.335256,-0.8493641,11.0075,15.4525,-2.205
1606,333258,0.42187600000000003,-0.30622,-0.84424,8.89,14.315,-3.5
1607,333356,0.390156,-0.265228,-0.8383841000000001,6.9125,11.9,-5.0225
1608,333454,0.365268,-0.267424,-0.8422879999999999,5.355,11.2,-5.95
1609,333552,0.345992,-0.272548,-0.83936,3.465,11.725,-6.8425
1610,333651,0.376004,-0.256932,-0.844972,1.7675,12.18,-9.485
1611,333749,0.413092,-0.233752,-0.85888,0.14,11.235,-11.655
1612,333847,0.41284799999999994,-0.22643200000000002,-0.8613200000000001,1.155,10.57,-12.3725
1613,333945,0.398452,-0.23301999999999998,-0.850096,2.3275,10.08,-12.3725
1614,334043,0.389912,-0.21667199999999998,-0.870592,2.975,9.765,-12.5825
1615,334141,0.4148,-0.247416,-0.849608,4.9,8.89,-13.685
1616,334239,0.392352,-0.240096,-0.8552200000000001,7.4725,7.9975,-14.28
1617,334337,0.4026,-0.299388,-0.8274040000000001,11.9,8.225,-15.925
1618,334435,0.425048,-0.23668000000000003,-0.83936,15.3475,10.0975,-16.6775
1619,334533,0.44066400000000006,-0.23301999999999998,-0.8247200000000001,19.4075,12.4775,-16.0125
1620,334631,0.43212399999999995,-0.233508,-0.8352120000000001,20.6675,12.425,-15.4
1621,334729,0.39967199999999997,-0.259128,-0.8430200999999999,21.9625,14.035,-14.14
1622,334827,0.381616,-0.22643200000000002,-0.873764,20.6675,16.6075,-16.765
1623,334925,0.355508,-0.22667600000000002,-0.898408,24.115,24.57,-16.695
1624,335023,0.305732,-0.1952,-0.9269561,28.21,37.7475,-16.8
1625,335121,0.262544,-0.204228,-0.954284,35.0525,57.68,-16.1175
1626,335219,0.259128,-0.189588,-0.9406200000000001,42.4375,86.22251,-16.38
1627,335317,0.305,-0.157136,-0.945744,52.6575,118.3,-16.6075
1628,335415,0.36892800000000003,-0.172264,-0.942816,55.825,151.7425,-16.2225
1629,335513,0.326716,-0.135664,-0.9250040999999999,53.83,183.1025,-9.8175
1630,335611,0.406748,-0.205692,-0.909632,56.8575,217.3675,-8.8375
1631,335709,0.24107199999999998,-0.25864000000000004,-0.856196,58.8875,261.5725,-20.79
1632,335807,0.15738,-0.30256,-0.8039801,58.5025,299.845,-67.0075
1633,335905,1.084336,-0.987956,-0.713212,66.4475,351.1375,-99.40001
1634,336003,0.45554799999999995,-0.26913200000000004,-0.798124,67.2,416.71,-148.4
1635,336101,1.911252,-0.6258600000000001,-1.428864,67.2875,537.6875,-149.065
1636,336200,0.726144,0.656848,-2.013244,57.715,573.3525,-167.8425
1637,336298,0.273524,-0.329156,-1.390556,90.56251,573.405,-109.095
1638,336396,1.6213799999999998,-0.25376,-1.605764,97.1775,573.405,-84.2625
1639,336494,3.0270639999999998,-0.28621199999999997,-1.78974,134.8025,573.405,-30.38
1640,336592,3.104412,-0.531676,-1.5018200000000002,196.105,572.3025,20.79
1641,336690,2.233088,-1.341024,-1.9722520000000001,246.4525,487.2525,56.5775
1642,336788,3.3584160000000005,-1.011624,-2.848944,260.505,183.7325,52.465
1643,336886,2.1935599999999997,-1.331264,-3.6390160000000003,169.015,206.605,73.2375
1644,336984,-0.08662001,0.09272000000000001,-4.660156,161.245,128.8875,-7.14
1645,337082,3.4882239999999998,-3.6182760000000003,-1.8585479999999999,141.61,45.29,-130.7425
1646,337180,1.463756,-2.373144,-6.529196,77.7175,82.495,-41.7025
1647,337278,0.6158561,-1.612352,-3.6453599999999997,-39.8475,-129.29,-37.2575
1648,337376,-0.6466,-0.659288,-2.646912,-148.33,-229.04,-22.155
1649,337474,-0.8420440999999999,-0.050996,-1.868552,-182.4375,-264.4775,-27.2475
1650,337572,-0.476288,0.09052401,-1.77266,-164.6925,-280.035,-38.3425
1651,337670,-0.11102000000000001,-0.034404000000000004,-1.739232,-124.2675,-302.365,-42.7875
