,T,ax,ay,az,gx,gy,gz
0,164467,0.37088000000000004,0.25351599999999996,-0.7176041,19.8275,-19.1975,-17.605
1,164626,0.388936,0.254736,-0.813984,5.0575,-6.9125,93.2225
2,164724,0.422608,0.25254,-0.8725440999999999,61.67,-126.21,46.375
3,164822,0.414312,0.26108000000000003,-0.8613200000000001,46.305,-108.64,-14.875
4,164920,0.413092,0.26156799999999997,-0.863516,3.115,-5.7225,-4.095
5,165018,0.41358,0.261324,-0.8652241,2.765,-4.0075,-3.605
6,165116,0.422608,0.25351599999999996,-0.8759601,3.01,-3.955,-3.465
7,165214,0.429196,0.252784,-0.880352,2.73,-3.92,-3.605
8,165313,0.42431599999999997,0.25254,-0.8769360999999999,2.0125,-4.1825,-4.0075
9,165411,0.42016800000000004,0.255468,-0.8730319999999999,1.295,-4.515,-4.235
10,165509,0.41602,0.260104,-0.8671761,1.2425,-4.55,-4.165
11,165607,0.415288,0.25961599999999996,-0.865956,1.435,-4.4275,-4.2175
12,165705,0.41504399999999997,0.261812,-0.8671761,1.68,-4.375,-4.1475
13,165803,0.41260399999999997,0.259128,-0.8674200000000001,2.03,-4.34,-3.92
14,165902,0.419436,0.257176,-0.8703481,2.3275,-4.1825,-3.7625
15,166000,0.423828,0.254492,-0.877424,2.2925,-4.1125,-3.6925
16,166098,0.42333999999999994,0.24888000000000002,-0.8781559999999999,1.6625,-4.2,-3.955
17,166196,0.41602,0.26156799999999997,-0.8703481,1.1375,-4.305,-4.2
18,166294,0.41260399999999997,0.25522399999999995,-0.869616,1.155,-4.2525,-4.1825
19,166392,0.41260399999999997,0.261324,-0.865956,1.4525,-4.165,-4.1475
20,166490,0.41260399999999997,0.263764,-0.8613200000000001,2.205,-4.13,-3.85
21,166589,0.413092,0.260592,-0.864492,2.9225,-3.9725,-3.4825
22,166687,0.41846000000000005,0.256932,-0.8727879999999999,3.4125,-3.9025,-3.255
23,166785,0.42602399999999996,0.249612,-0.877912,3.08,-3.85,-3.185
24,166883,0.42138809999999993,0.253272,-0.873276,2.4325,-4.1125,-3.395
25,166981,0.42724399999999996,0.250344,-0.87718,2.135,-4.235,-3.605
26,167079,0.42285200000000006,0.255468,-0.874252,1.7325,-4.4275,-3.885
27,167177,0.4148,0.259372,-0.863516,1.54,-4.69,-4.025
28,167276,0.42114399999999996,0.2562,-0.87718,1.575,-4.5325,-3.955
29,167374,0.430172,0.24766,-0.8820601,1.015,-4.585,-4.1125
30,167472,0.411872,0.26156799999999997,-0.869616,0.3675,-4.9175,-4.41
31,167570,0.423096,0.25058800000000003,-0.87718,-0.0525,-4.76,-4.515
32,167668,0.417728,0.256688,-0.8718120999999999,-0.2275,-4.865,-4.62
33,167766,0.418216,0.25790799999999997,-0.87108,-0.4375,-4.8475,-4.795
34,167865,0.42187600000000003,0.25522399999999995,-0.8744960999999999,-0.665,-4.7775,-4.8125
35,167963,0.43627200000000005,0.24936799999999998,-0.8957241,-1.6625,-4.935,-4.9875
36,168061,0.43334399999999995,0.23009200000000002,-0.8969440000000001,-4.0425,-5.5825,-5.46
37,168159,0.423584,0.244,-0.8769360999999999,-6.195,-6.195,-5.9325
38,168257,0.406016,0.25498000000000004,-0.8640040000000001,-7.0175,-6.4925,-6.09
39,168355,0.410896,0.2745,-0.8610761,-6.5975,-6.405,-6.0025
40,168454,0.401868,0.284992,-0.845216,-5.1975,-6.2125,-5.8975
41,168552,0.398208,0.279136,-0.8491200000000001,-3.395,-5.5475,-5.4075
42,168650,0.404552,0.278404,-0.853756,-1.2425,-5.005,-4.7775
43,168748,0.405528,0.27889200000000003,-0.855708,0.6125,-4.69,-4.3225
44,168846,0.409432,0.26596,-0.865468,1.995,-4.235,-3.92
45,168944,0.410408,0.266936,-0.8625401,2.73,-4.06,-3.6925
46,169043,0.40357600000000005,0.271572,-0.856196,3.465,-3.99,-3.4125
47,169141,0.40504,0.270596,-0.8549761,4.445,-3.675,-3.01
48,169239,0.40967600000000004,0.266692,-0.8608319999999999,5.53,-3.3425,-2.59
49,169337,0.40626,0.26718000000000003,-0.853756,6.7375,-3.255,-2.1525
50,169435,0.40748,0.262544,-0.8608319999999999,8.295,-3.1325,-1.6275
51,169533,0.41504399999999997,0.262544,-0.868396,9.275,-2.905,-1.3475
52,169632,0.411384,0.2562,-0.87108,9.485,-3.1325,-1.2775
53,169730,0.43505200000000005,0.251808,-0.892064,8.89,-3.0275,-1.3825
54,169828,0.44505600000000006,0.23692399999999997,-0.90036,6.4225,-3.4825,-1.995
55,169926,0.423096,0.25254,-0.8764481,3.85,-4.375,-3.0625
56,170024,0.42114399999999996,0.255468,-0.8735200000000001,2.695,-4.515,-3.6575
57,170122,0.423096,0.253272,-0.874984,2.2925,-4.4625,-3.78
58,170220,0.42578,0.25790799999999997,-0.8784,1.855,-4.4975,-3.99
59,170319,0.429928,0.24912399999999998,-0.8827921000000001,0.98,-4.62,-4.2525
60,170417,0.4209,0.255468,-0.873764,0.2975,-4.935,-4.6025
61,170515,0.418704,0.256444,-0.8708360999999999,-0.105,-4.935,-4.6375
62,170613,0.416996,0.257176,-0.869128,-0.105,-4.7775,-4.655
63,170711,0.413336,0.25986,-0.8664440000000001,0.0875,-4.76,-4.62
64,170809,0.410408,0.261812,-0.8637601,0.4375,-4.6025,-4.4625
65,170908,0.410896,0.26596,-0.8642481,1.05,-4.4275,-4.235
66,171006,0.4148,0.259128,-0.86864,1.5575,-4.2525,-3.92
67,171104,0.4148,0.257176,-0.86864,1.925,-4.27,-3.8675
68,171202,0.417484,0.258396,-0.8698601,2.1525,-4.2175,-3.78
69,171300,0.419436,0.2562,-0.8701040000000001,2.2575,-4.2525,-3.815
70,171398,0.41455600000000004,0.258152,-0.8713241,2.17,-4.2875,-3.8675
71,171496,0.417728,0.255468,-0.870592,2.275,-4.235,-3.8325
72,171595,0.417484,0.255468,-0.870592,2.2925,-4.2,-3.7975
73,171693,0.41577600000000003,0.257176,-0.869616,2.31,-4.165,-3.815
74,171791,0.42212,0.254004,-0.8727879999999999,2.4325,-3.9375,-3.78
75,171889,0.41577600000000003,0.260592,-0.8657120999999999,2.52,-4.0775,-3.8325
76,171987,0.418216,0.257664,-0.8708360999999999,2.59,-4.1125,-3.815
77,172085,0.42212,0.252052,-0.871568,2.5025,-4.2175,-3.7625
78,172184,0.418216,0.257664,-0.8703481,2.17,-4.2,-3.8325
79,172282,0.417484,0.252784,-0.8701040000000001,1.96,-4.2,-3.955
80,172380,0.413336,0.257664,-0.8662001,2.1175,-4.165,-3.9725
81,172478,0.41406800000000005,0.255956,-0.8662001,2.485,-4.1125,-3.85
82,172576,0.416264,0.254492,-0.8703481,2.7125,-4.0425,-3.7275
83,172674,0.416996,0.2562,-0.869128,2.87,-4.06,-3.6225
84,172772,0.42016800000000004,0.25522399999999995,-0.868884,2.975,-3.92,-3.64
85,172871,0.412116,0.256444,-0.8666879999999999,3.15,-4.025,-3.6575
86,172969,0.41968,0.255712,-0.868884,3.2725,-3.955,-3.5
87,173067,0.41553199999999996,0.25302800000000003,-0.8664440000000001,3.605,-4.025,-3.43
88,173165,0.414312,0.255956,-0.865468,4.0075,-4.0775,-3.36
89,173263,0.41846000000000005,0.25058800000000003,-0.8720559999999999,4.41,-3.9375,-3.22
90,173361,0.41723999999999994,0.24424400000000002,-0.8701040000000001,4.69,-3.9025,-3.1675
91,173460,0.424072,0.250832,-0.8759601,4.6375,-3.815,-3.185
92,173558,0.42456000000000005,0.251564,-0.8759601,4.13,-3.8675,-3.3425
93,173656,0.420412,0.25254,-0.8708360999999999,3.9025,-3.9375,-3.57
94,173754,0.41968,0.25351599999999996,-0.8708360999999999,3.745,-4.0075,-3.6575
95,173852,0.42138809999999993,0.24912399999999998,-0.873764,3.5,-4.0425,-3.64
96,173950,0.42065600000000003,0.24912399999999998,-0.8740081000000001,3.3075,-4.165,-3.675
97,174048,0.426756,0.24522,-0.8796200000000001,2.73,-4.13,-3.78
98,174147,0.423096,0.24717199999999998,-0.8764481,2.0125,-4.2525,-4.0075
99,174245,0.424072,0.24936799999999998,-0.876692,1.4875,-4.2875,-4.2
100,174343,0.423828,0.25254,-0.873764,1.05,-4.3575,-4.34
101,174441,0.422608,0.2501,-0.8740081000000001,0.7875,-4.445,-4.445
102,174539,0.419436,0.250832,-0.8723001,0.595,-4.3925,-4.55
103,174637,0.416508,0.252296,-0.869616,0.6475,-4.41,-4.585
104,174736,0.418216,0.255712,-0.868884,0.7,-4.34,-4.48
105,174834,0.41577600000000003,0.257176,-0.868396,0.77,-4.3575,-4.34
106,174932,0.422608,0.25058800000000003,-0.873276,0.8925,-4.27,-4.1825
107,175030,0.42748800000000003,0.24766,-0.876692,0.5075,-4.1825,-4.305
108,175128,0.43724799999999997,0.24936799999999998,-0.887184,-0.3325,-4.1475,-4.655
109,175226,0.42578,0.249856,-0.8752280000000001,-1.4525,-4.3925,-5.215
110,175325,0.42212,0.253272,-0.8718120999999999,-2.17,-4.55,-5.4075
111,175423,0.41723999999999994,0.258152,-0.8693719999999999,-2.415,-4.725,-5.635
112,175521,0.417972,0.255712,-0.8698601,-2.45,-4.6025,-5.5825
113,175619,0.40894400000000003,0.258884,-0.864492,-2.3975,-4.6375,-5.4775
114,175717,0.424804,0.25790799999999997,-0.877424,-2.1175,-4.5675,-5.3025
115,175815,0.44725200000000004,0.24156,-0.895236,-3.045,-4.55,-5.495
116,175914,0.42724399999999996,0.25132,-0.8788879999999999,-5.0225,-5.6,-6.405
117,176012,0.407724,0.264984,-0.8605879999999999,-5.7925,-6.125,-6.9825
118,176110,0.406504,0.257176,-0.8596120999999999,-4.8475,-5.915,-6.825
119,176208,0.410896,0.261812,-0.86498,-3.7625,-5.6,-6.3525
120,176306,0.428464,0.243756,-0.8823040000000001,-3.7625,-5.67,-6.0375
121,176404,0.420412,0.24082800000000001,-0.869128,-4.235,-6.16,-6.055
122,176503,0.407724,0.26108000000000003,-0.8569280999999999,-4.1125,-6.475,-6.0725
123,176601,0.399916,0.276208,-0.8486319999999999,-3.2025,-6.2475,-5.845
124,176699,0.395036,0.28011199999999997,-0.8430200999999999,-1.715,-5.74,-5.32
125,176797,0.392596,0.287432,-0.8403360000000001,0.5775,-4.9175,-4.55
126,176895,0.4026,0.274988,-0.8510719999999999,2.8525,-4.1475,-3.71
127,176993,0.40748,0.264496,-0.8613200000000001,4.2875,-3.745,-3.0975
128,177092,0.409188,0.269376,-0.859856,5.285,-3.5175,-2.6425
129,177190,0.41382399999999997,0.25986,-0.8657120999999999,6.1425,-3.255,-2.345
130,177288,0.407236,0.261324,-0.859856,7.1225,-3.045,-2.1
131,177386,0.409188,0.267912,-0.856196,8.365,-2.8,-1.7325
132,177484,0.41894799999999993,0.258884,-0.8723001,9.5725,-2.625,-1.2425
133,177582,0.43236800000000003,0.24863600000000002,-0.885964,9.5725,-2.6425,-1.3125
134,177681,0.43554,0.249856,-0.889136,8.1375,-3.1325,-1.8025
135,177779,0.42626800000000004,0.249612,-0.8788879999999999,5.9325,-3.6575,-2.5375
136,177877,0.42333999999999994,0.252052,-0.8730319999999999,4.4275,-3.92,-3.0275
137,177975,0.42065600000000003,0.2501,-0.870592,3.745,-4.1475,-3.36
138,178073,0.424072,0.25254,-0.873276,3.395,-4.2525,-3.43
139,178171,0.417972,0.257176,-0.8679081,3.2025,-4.2175,-3.6225
140,178270,0.41675200000000007,0.255468,-0.8693719999999999,3.1675,-4.2175,-3.57
141,178368,0.41577600000000003,0.257664,-0.865468,3.395,-4.2175,-3.465
142,178466,0.41455600000000004,0.255468,-0.8698601,3.71,-3.99,-3.29
143,178564,0.41382399999999997,0.254736,-0.8662001,4.095,-3.885,-3.08
144,178662,0.41504399999999997,0.25498000000000004,-0.8674200000000001,4.62,-3.71,-2.905
145,178760,0.42431599999999997,0.24936799999999998,-0.8762040000000001,4.6725,-3.64,-2.8525
146,178859,0.434564,0.24570799999999998,-0.8847440999999999,4.1125,-3.5875,-3.0275
147,178957,0.424804,0.24790399999999999,-0.873276,3.1325,-4.06,-3.5875
148,179055,0.418704,0.251808,-0.8698601,2.415,-4.2175,-3.85
149,179153,0.42187600000000003,0.24888000000000002,-0.87108,2.1875,-4.2175,-3.9025
150,179251,0.41723999999999994,0.2501,-0.8703481,2.205,-4.2875,-3.9025
151,179349,0.417728,0.251076,-0.8693719999999999,2.1525,-4.27,-3.885
152,179448,0.419192,0.25058800000000003,-0.8703481,2.2925,-4.3225,-3.815
153,179546,0.418704,0.2501,-0.8671761,2.205,-4.3925,-3.8675
154,179644,0.41968,0.251564,-0.86864,2.1175,-4.375,-3.8325
155,179742,0.416996,0.25132,-0.86864,2.2575,-4.445,-3.7975
156,179840,0.41894799999999993,0.252296,-0.8698601,2.135,-4.375,-3.815
157,179938,0.41846000000000005,0.251076,-0.87108,2.205,-4.41,-3.78
158,180037,0.417484,0.252052,-0.8701040000000001,2.135,-4.3925,-3.885
159,180135,0.41846000000000005,0.252052,-0.8713241,2.1,-4.48,-3.7975
160,180233,0.418216,0.25376,-0.8679081,2.1175,-4.41,-3.7275
161,180331,0.417728,0.25132,-0.8693719999999999,2.205,-4.3225,-3.64
162,180429,0.42065600000000003,0.246928,-0.8718120999999999,2.135,-4.3575,-3.675
163,180527,0.42212,0.247416,-0.870592,2.0125,-4.375,-3.71
164,180626,0.42138809999999993,0.24497600000000003,-0.8725440999999999,1.96,-4.34,-3.815
165,180724,0.42187600000000003,0.249856,-0.868884,1.7675,-4.3925,-3.885
166,180822,0.42065600000000003,0.24888000000000002,-0.8703481,1.715,-4.4625,-3.9375
167,180920,0.42285200000000006,0.250344,-0.8718120999999999,1.5925,-4.48,-3.885
168,181018,0.42016800000000004,0.24863600000000002,-0.868884,1.54,-4.48,-4.0425
169,181116,0.42065600000000003,0.24912399999999998,-0.8718120999999999,1.4875,-4.4975,-4.13
170,181215,0.42138809999999993,0.24936799999999998,-0.87108,1.3475,-4.6025,-4.13
171,181313,0.42016800000000004,0.248148,-0.8698601,1.3825,-4.5675,-4.165
172,181411,0.42016800000000004,0.24912399999999998,-0.8693719999999999,1.4875,-4.7075,-4.165
173,181509,0.42114399999999996,0.248392,-0.870592,1.5575,-4.655,-4.2175
174,181607,0.42016800000000004,0.24936799999999998,-0.8708360999999999,1.54,-4.69,-4.165
175,181705,0.422608,0.249612,-0.8730319999999999,1.435,-4.6725,-4.1475
176,181803,0.42138809999999993,0.24863600000000002,-0.8718120999999999,1.295,-4.62,-4.2525
177,181902,0.419436,0.252052,-0.8693719999999999,1.1725,-4.5325,-4.305
178,182000,0.42163199999999995,0.24570799999999998,-0.8740081000000001,1.12,-4.4975,-4.235
179,182098,0.41992399999999996,0.24912399999999998,-0.8671761,1.19,-4.515,-4.27
180,182196,0.42065600000000003,0.249856,-0.8701040000000001,1.2075,-4.585,-4.27
181,182294,0.41675200000000007,0.251564,-0.86864,1.1375,-4.6375,-4.27
182,182392,0.417728,0.25376,-0.8662001,1.2425,-4.6025,-4.2875
183,182490,0.418216,0.252296,-0.8676640999999999,1.33,-4.5325,-4.165
184,182589,0.41675200000000007,0.255956,-0.8669319999999999,1.4875,-4.48,-4.13
185,182687,0.415288,0.25058800000000003,-0.8698601,1.5925,-4.6375,-4.0075
186,182785,0.416264,0.2501,-0.869616,1.785,-4.5675,-3.9375
187,182883,0.416508,0.252296,-0.8708360999999999,1.82,-4.515,-3.9025
188,182981,0.417728,0.251076,-0.8718120999999999,1.75,-4.445,-3.8325
189,183079,0.417972,0.254004,-0.8679081,1.645,-4.41,-3.8325
190,183178,0.41358,0.24912399999999998,-0.8676640999999999,1.6975,-4.2875,-3.78
191,183276,0.417972,0.248392,-0.8708360999999999,1.8025,-4.13,-3.5175
192,183374,0.422364,0.245952,-0.868884,1.9425,-4.1475,-3.6225
193,183472,0.42163199999999995,0.25058800000000003,-0.871568,1.9425,-4.3225,-3.71
194,183570,0.41894799999999993,0.2501,-0.869616,1.96,-4.375,-3.6575
195,183668,0.419192,0.250832,-0.868884,1.96,-4.3925,-3.6925
196,183767,0.419192,0.250832,-0.870592,1.995,-4.375,-3.6925
197,183865,0.415288,0.251076,-0.8676640999999999,2.1175,-4.3575,-3.6575
198,183963,0.418216,0.24863600000000002,-0.8713241,2.1,-4.3575,-3.6225
199,184061,0.41968,0.24936799999999998,-0.8703481,2.205,-4.34,-3.5175
200,184159,0.417728,0.24766,-0.8693719999999999,2.2225,-4.4275,-3.5525
201,184257,0.424072,0.24717199999999998,-0.8723001,2.2925,-4.3575,-3.5
202,184356,0.422364,0.245464,-0.8720559999999999,2.17,-4.4275,-3.5175
203,184454,0.41846000000000005,0.25058800000000003,-0.8674200000000001,2.03,-4.5325,-3.5875
204,184552,0.41846000000000005,0.248392,-0.8698601,2.0475,-4.4625,-3.5875
205,184650,0.41577600000000003,0.250344,-0.873276,2.065,-4.6375,-3.6225
206,184748,0.416508,0.249612,-0.868396,2.1175,-4.585,-3.5525
207,184846,0.42138809999999993,0.246196,-0.869616,2.24,-4.5325,-3.5525
208,184945,0.41675200000000007,0.24790399999999999,-0.870592,2.1525,-4.55,-3.5875
209,185043,0.422364,0.242536,-0.8754719999999999,2.135,-4.55,-3.64
210,185141,0.416508,0.24936799999999998,-0.869128,2.0825,-4.445,-3.7275
211,185239,0.423096,0.24644000000000002,-0.8735200000000001,1.995,-4.375,-3.71
212,185337,0.416508,0.24863600000000002,-0.869128,1.9075,-4.4275,-3.8675
213,185435,0.422364,0.247416,-0.8735200000000001,1.855,-4.3925,-3.9025
214,185534,0.42065600000000003,0.2501,-0.869616,1.855,-4.3225,-3.815
215,185632,0.41894799999999993,0.244732,-0.8713241,1.8725,-4.3225,-3.745
216,185730,0.424072,0.24522,-0.86864,1.82,-4.2175,-3.885
217,185828,0.42114399999999996,0.244,-0.8720559999999999,1.7675,-4.27,-3.9025
218,185926,0.42114399999999996,0.24522,-0.87108,1.6975,-4.2,-3.9725
219,186024,0.419192,0.245952,-0.87108,1.6625,-4.1825,-3.99
220,186123,0.42114399999999996,0.245464,-0.8703481,1.575,-4.305,-4.025
221,186221,0.41846000000000005,0.246928,-0.8701040000000001,1.61,-4.34,-4.025
222,186319,0.41968,0.245952,-0.8723001,1.6275,-4.375,-3.9725
223,186417,0.419436,0.245952,-0.8730319999999999,1.61,-4.2875,-4.025
224,186515,0.418704,0.249856,-0.870592,1.68,-4.27,-3.9725
225,186613,0.41846000000000005,0.24790399999999999,-0.87108,1.7325,-4.2525,-3.9725
226,186712,0.41846000000000005,0.24888000000000002,-0.8671761,1.785,-4.2175,-3.8675
227,186810,0.41602,0.252784,-0.8669319999999999,1.785,-4.1825,-3.7975
228,186908,0.418216,0.24790399999999999,-0.8727879999999999,1.8025,-4.0775,-3.745
229,187006,0.418216,0.248392,-0.868884,1.8725,-3.9725,-3.6575
230,187104,0.41992399999999996,0.24522,-0.8720559999999999,2.0125,-4.1475,-3.64
231,187202,0.42431599999999997,0.244732,-0.8666879999999999,1.9775,-4.2525,-3.71
232,187301,0.423096,0.248392,-0.8713241,2.065,-4.165,-3.815
233,187399,0.42163199999999995,0.246196,-0.8723001,2.0825,-4.235,-3.85
234,187497,0.41894799999999993,0.24717199999999998,-0.8693719999999999,2.0475,-4.1825,-3.8675
235,187595,0.417972,0.24644000000000002,-0.8720559999999999,2.1,-4.13,-3.815
236,187693,0.419192,0.24644000000000002,-0.8713241,2.0475,-4.1475,-3.7625
237,187791,0.42138809999999993,0.245464,-0.8713241,2.0125,-4.2,-3.815
238,187890,0.42456000000000005,0.23887600000000003,-0.87108,2.0125,-4.13,-3.9025
239,187988,0.422364,0.244732,-0.8713241,1.9075,-4.3225,-3.9375
240,188086,0.428464,0.24156,-0.87108,1.82,-4.1825,-3.9375
241,188184,0.4209,0.24766,-0.8720559999999999,1.715,-4.375,-3.99
242,188282,0.423584,0.245952,-0.8723001,1.6275,-4.41,-4.0075
243,188380,0.422608,0.242536,-0.87108,1.5225,-4.375,-4.06
244,188479,0.422364,0.245952,-0.871568,1.5575,-4.4625,-4.1125
245,188577,0.420412,0.24644000000000002,-0.8723001,1.5575,-4.4975,-4.165
246,188675,0.42138809999999993,0.24497600000000003,-0.871568,1.5225,-4.5325,-4.235
247,188773,0.4209,0.244488,-0.8701040000000001,1.47,-4.5675,-4.2
248,188871,0.425292,0.245464,-0.8720559999999999,1.4525,-4.6025,-4.2175
249,188970,0.422364,0.244732,-0.870592,1.4,-4.5675,-4.3225
250,189068,0.42138809999999993,0.24351199999999998,-0.869616,1.3475,-4.4625,-4.3575
251,189166,0.42456000000000005,0.24107199999999998,-0.87108,1.3125,-4.69,-4.3925
252,189264,0.42333999999999994,0.24156,-0.869616,1.295,-4.6725,-4.4275
253,189362,0.422364,0.247416,-0.8698601,1.365,-4.8125,-4.6025
254,189460,0.420412,0.24351199999999998,-0.873276,1.4,-4.865,-4.6025
255,189559,0.418704,0.24863600000000002,-0.868884,1.4175,-4.76,-4.62
256,189657,0.41602,0.249612,-0.8708360999999999,1.4,-4.5675,-4.585
257,189755,0.414312,0.24912399999999998,-0.87108,1.505,-4.585,-4.3225
258,189853,0.41553199999999996,0.246928,-0.870592,1.505,-4.4975,-4.165
259,189951,0.41992399999999996,0.24912399999999998,-0.8698601,1.575,-4.3925,-4.0775
260,190050,0.41602,0.24570799999999998,-0.8703481,1.6275,-4.4275,-4.06
261,190148,0.42016800000000004,0.24668400000000001,-0.870592,1.6275,-4.375,-3.99
262,190246,0.422608,0.243756,-0.8713241,1.61,-4.48,-3.9375
263,190344,0.42138809999999993,0.244488,-0.871568,1.5925,-4.515,-4.0075
264,190442,0.42065600000000003,0.24863600000000002,-0.87108,1.4525,-4.48,-4.06
265,190540,0.42016800000000004,0.246196,-0.8713241,1.5225,-4.4625,-4.13
266,190639,0.420412,0.24668400000000001,-0.871568,1.5575,-4.515,-4.1475
267,190737,0.417728,0.24522,-0.870592,1.61,-4.48,-4.2
268,190835,0.41553199999999996,0.24570799999999998,-0.87108,1.6275,-4.4975,-4.0425
269,190933,0.416264,0.24668400000000001,-0.8718120999999999,1.6275,-4.445,-4.0425
270,191031,0.41968,0.244488,-0.8720559999999999,1.5575,-4.34,-4.0075
271,191129,0.42138809999999993,0.246928,-0.87108,1.5575,-4.3925,-3.99
272,191228,0.420412,0.24912399999999998,-0.8718120999999999,1.6275,-4.48,-4.0425
273,191326,0.42138809999999993,0.247416,-0.868396,1.5225,-4.375,-4.0075
274,191424,0.42138809999999993,0.246196,-0.8718120999999999,1.505,-4.4275,-4.025
275,191522,0.419192,0.248148,-0.869616,1.6275,-4.4975,-4.1475
276,191620,0.42016800000000004,0.24570799999999998,-0.8723001,1.645,-4.3575,-4.06
277,191718,0.420412,0.246928,-0.871568,1.6275,-4.3925,-3.99
278,191817,0.42114399999999996,0.246928,-0.8730319999999999,1.61,-4.3925,-3.99
279,191915,0.423096,0.244,-0.8720559999999999,1.645,-4.41,-4.0075
280,192013,0.42114399999999996,0.245464,-0.87108,1.5925,-4.4275,-4.025
281,192111,0.42212,0.24497600000000003,-0.8698601,1.505,-4.48,-4.13
282,192209,0.42065600000000003,0.252052,-0.869616,1.435,-4.4275,-4.13
283,192307,0.42114399999999996,0.24326799999999998,-0.8723001,1.5225,-4.4625,-4.06
284,192405,0.41577600000000003,0.24644000000000002,-0.8676640999999999,1.5925,-4.4975,-4.13
285,192504,0.41723999999999994,0.248392,-0.869128,1.5925,-4.4275,-4.1125
286,192602,0.422364,0.24497600000000003,-0.873276,1.54,-4.375,-4.0425
287,192700,0.417972,0.24668400000000001,-0.870592,1.5575,-4.445,-4.025
288,192798,0.4209,0.24326799999999998,-0.8718120999999999,1.505,-4.445,-4.0425
289,192896,0.41992399999999996,0.246928,-0.868884,1.435,-4.41,-4.095
290,192994,0.42114399999999996,0.24888000000000002,-0.8713241,1.4525,-4.5325,-4.13
291,193093,0.42016800000000004,0.24912399999999998,-0.8723001,1.4525,-4.41,-4.13
292,193191,0.4209,0.240096,-0.87474,1.505,-4.4275,-4.095
293,193289,0.418216,0.24668400000000001,-0.863516,1.47,-4.4975,-4.095
294,193387,0.42163199999999995,0.24790399999999999,-0.873764,1.47,-4.4625,-4.165
295,193485,0.41968,0.24497600000000003,-0.8727879999999999,1.505,-4.4625,-4.1475
296,193583,0.4209,0.24668400000000001,-0.8679081,1.47,-4.34,-4.1825
297,193682,0.417972,0.24570799999999998,-0.8708360999999999,1.4,-4.3225,-4.095
298,193780,0.422608,0.244732,-0.8735200000000001,1.47,-4.305,-4.13
299,193878,0.4209,0.24644000000000002,-0.8725440999999999,1.47,-4.305,-3.99
300,193976,0.41894799999999993,0.247416,-0.870592,1.505,-4.34,-4.06
301,194074,0.418216,0.244488,-0.87108,1.5225,-4.27,-4.0075
302,194172,0.41968,0.245952,-0.8718120999999999,1.5225,-4.2875,-4.025
303,194271,0.41992399999999996,0.245952,-0.8727879999999999,1.4875,-4.235,-4.025
304,194369,0.419192,0.245952,-0.871568,1.4875,-4.2525,-3.9725
305,194467,0.41992399999999996,0.245952,-0.8730319999999999,1.4875,-4.305,-4.095
306,194565,0.418216,0.24522,-0.8708360999999999,1.54,-4.27,-4.0425
307,194663,0.42016800000000004,0.24717199999999998,-0.8708360999999999,1.575,-4.235,-4.06
308,194761,0.42187600000000003,0.24570799999999998,-0.8703481,1.505,-4.1825,-4.095
309,194860,0.42016800000000004,0.24717199999999998,-0.8698601,1.435,-4.235,-4.06
310,194958,0.42138809999999993,0.245464,-0.8679081,1.4875,-4.27,-4.0775
311,195056,0.42016800000000004,0.24522,-0.8703481,1.505,-4.27,-4.025
312,195154,0.4209,0.244732,-0.8713241,1.5575,-4.375,-4.0775
313,195252,0.419436,0.24497600000000003,-0.8718120999999999,1.5575,-4.3925,-4.095
314,195350,0.42065600000000003,0.24912399999999998,-0.8713241,1.5225,-4.3575,-4.165
315,195449,0.423096,0.24644000000000002,-0.8735200000000001,1.5225,-4.3925,-4.165
316,195547,0.41504399999999997,0.244488,-0.86864,1.5925,-4.4975,-4.1125
317,195645,0.42163199999999995,0.24912399999999998,-0.8723001,1.4875,-4.41,-4.1825
318,195743,0.417484,0.246928,-0.8713241,1.5925,-4.445,-4.165
319,195841,0.417728,0.24351199999999998,-0.8708360999999999,1.54,-4.375,-4.13
320,195939,0.417484,0.246196,-0.86864,1.505,-4.305,-4.0775
321,196038,0.41675200000000007,0.24766,-0.8713241,1.5925,-4.3575,-4.0775
322,196136,0.4209,0.245952,-0.8720559999999999,1.54,-4.34,-4.025
323,196234,0.419436,0.24497600000000003,-0.8727879999999999,1.54,-4.34,-3.9725
324,196332,0.42285200000000006,0.245952,-0.871568,1.54,-4.2875,-3.9725
325,196430,0.41675200000000007,0.24717199999999998,-0.8676640999999999,1.47,-4.305,-4.1125
326,196528,0.42016800000000004,0.245952,-0.8723001,1.47,-4.375,-4.095
327,196627,0.419192,0.24497600000000003,-0.871568,1.54,-4.375,-4.0775
328,196725,0.422608,0.24570799999999998,-0.8703481,1.5225,-4.3575,-4.06
329,196823,0.419436,0.24936799999999998,-0.869128,1.61,-4.3225,-3.99
330,196921,0.417972,0.2501,-0.868884,1.6625,-4.41,-4.025
331,197019,0.41675200000000007,0.24888000000000002,-0.8725440999999999,1.645,-4.34,-4.0075
332,197117,0.41992399999999996,0.245464,-0.8718120999999999,1.68,-4.2525,-3.9025
333,197215,0.42187600000000003,0.243756,-0.8698601,1.61,-4.235,-3.8675
334,197314,0.4209,0.24668400000000001,-0.8720559999999999,1.575,-4.34,-4.0075
335,197412,0.42016800000000004,0.245952,-0.870592,1.575,-4.3575,-4.0425
336,197510,0.4209,0.24790399999999999,-0.8703481,1.5225,-4.2875,-4.025
337,197608,0.42114399999999996,0.24644000000000002,-0.871568,1.54,-4.41,-4.0775
338,197706,0.42138809999999993,0.244732,-0.8698601,1.505,-4.375,-4.165
339,197804,0.417972,0.245952,-0.8713241,1.4875,-4.375,-4.095
340,197903,0.417972,0.247416,-0.86864,1.5925,-4.445,-3.99
341,198001,0.42065600000000003,0.24668400000000001,-0.8701040000000001,1.54,-4.55,-4.1125
342,198099,0.41968,0.245952,-0.8708360999999999,1.4875,-4.41,-4.1125
343,198197,0.41968,0.244,-0.8720559999999999,1.54,-4.48,-4.1825
344,198295,0.41846000000000005,0.24766,-0.8703481,1.4525,-4.515,-4.1825
345,198393,0.42163199999999995,0.248148,-0.8703481,1.505,-4.4275,-4.1475
346,198492,0.424072,0.245464,-0.873276,1.54,-4.3925,-4.0425
347,198590,0.41723999999999994,0.24717199999999998,-0.869128,1.54,-4.445,-4.0775
348,198688,0.42065600000000003,0.246196,-0.8718120999999999,1.575,-4.305,-4.025
349,198786,0.41602,0.24522,-0.869128,1.68,-4.3225,-4.025
350,198884,0.424072,0.244488,-0.8713241,1.6275,-4.4275,-4.025
351,198982,0.41968,0.24912399999999998,-0.869616,1.5575,-4.4625,-4.025
352,199080,0.423584,0.24107199999999998,-0.8698601,1.575,-4.4275,-4.095
353,199179,0.42065600000000003,0.24766,-0.8730319999999999,1.54,-4.48,-4.1475
354,199277,0.42138809999999993,0.244,-0.8703481,1.5925,-4.4975,-4.06
355,199375,0.41968,0.249856,-0.8652241,1.54,-4.375,-4.06
356,199473,0.42114399999999996,0.244732,-0.8708360999999999,1.54,-4.445,-4.06
357,199571,0.42016800000000004,0.247416,-0.8708360999999999,1.5575,-4.4975,-4.1125
358,199669,0.420412,0.24156,-0.87474,1.575,-4.48,-4.095
359,199768,0.418704,0.24644000000000002,-0.8693719999999999,1.5575,-4.5675,-4.1125
360,199866,0.42187600000000003,0.244732,-0.871568,1.54,-4.48,-4.2175
361,199964,0.41968,0.24790399999999999,-0.870592,1.4175,-4.5325,-4.2875
362,200062,0.42016800000000004,0.24668400000000001,-0.8713241,1.4875,-4.6025,-4.235
363,200160,0.422608,0.24497600000000003,-0.8708360999999999,1.435,-4.585,-4.2175
364,200258,0.418216,0.249612,-0.8708360999999999,1.4875,-4.62,-4.34
365,200357,0.42187600000000003,0.246196,-0.871568,1.5575,-4.585,-4.27
366,200455,0.416264,0.24424400000000002,-0.868884,1.5575,-4.5325,-4.2525
367,200553,0.41846000000000005,0.246928,-0.868884,1.575,-4.6025,-4.2
368,200651,0.416264,0.244488,-0.8701040000000001,1.645,-4.585,-4.13
369,200749,0.41553199999999996,0.24644000000000002,-0.869128,1.645,-4.4975,-4.06
370,200847,0.422364,0.246196,-0.869616,1.61,-4.3575,-4.0075
371,200945,0.42065600000000003,0.244488,-0.8708360999999999,1.505,-4.4275,-4.1125
372,201044,0.41675200000000007,0.24863600000000002,-0.8698601,1.5225,-4.34,-4.0775
373,201142,0.42016800000000004,0.246196,-0.871568,1.54,-4.3225,-4.025
374,201240,0.418216,0.24522,-0.87108,1.5225,-4.305,-4.0775
375,201338,0.42163199999999995,0.24522,-0.874252,1.54,-4.375,-4.0775
376,201436,0.417728,0.24863600000000002,-0.868884,1.575,-4.375,-4.0425
377,201535,0.416996,0.244488,-0.870592,1.5925,-4.4275,-4.0425
378,201633,0.42333999999999994,0.244,-0.87108,1.61,-4.4275,-3.955
379,201731,0.41894799999999993,0.249612,-0.8674200000000001,1.6975,-4.4975,-4.025
380,201829,0.416996,0.24668400000000001,-0.8727879999999999,1.8025,-4.4275,-3.9025
381,201927,0.420412,0.245464,-0.8730319999999999,1.7675,-4.41,-3.92
382,202025,0.422608,0.24644000000000002,-0.86864,1.5575,-4.2875,-3.9725
383,202123,0.42114399999999996,0.24717199999999998,-0.871568,1.5225,-4.375,-4.0075
384,202222,0.422608,0.245952,-0.8723001,1.645,-4.41,-3.99
385,202320,0.42187600000000003,0.24644000000000002,-0.871568,1.5925,-4.4625,-4.06
386,202418,0.42065600000000003,0.245952,-0.8730319999999999,1.575,-4.515,-4.165
387,202516,0.42065600000000003,0.24668400000000001,-0.869128,1.435,-4.4625,-4.1825
388,202614,0.417728,0.24863600000000002,-0.868884,1.5575,-4.5325,-4.095
389,202712,0.418216,0.24912399999999998,-0.869128,1.715,-4.6025,-4.025
390,202811,0.419436,0.24497600000000003,-0.8725440999999999,1.8025,-4.6025,-4.0425
391,202909,0.425048,0.243024,-0.8725440999999999,1.6975,-4.4975,-3.99
392,203007,0.43334399999999995,0.237168,-0.8764481,1.19,-4.34,-4.1475
393,203105,0.431392,0.231312,-0.8935280999999999,-0.035,-4.165,-4.76
394,203203,0.46921199999999996,0.216428,-0.9152440000000001,-1.7675,-4.375,-5.6525
395,203301,0.45896400000000004,0.22277199999999997,-0.90402,-5.215,-5.215,-7.245
396,203400,0.45432799999999995,0.239608,-0.887916,-8.82,-6.755,-8.9425
397,203498,0.416264,0.264008,-0.8845,-11.5325,-7.7875,-9.8875
398,203596,0.41675200000000007,0.27084,-0.9140241,-13.5625,-8.0675,-9.8
399,203694,0.521672,0.219844,-0.998692,-21.14,-8.4525,-10.0975
400,203792,0.522648,0.179828,-1.00406,-33.8275,-13.195,-12.32
401,203890,0.539972,0.182268,-1.061156,-46.2,-18.8125,-15.6975
402,203989,0.58194,-0.0793,-1.125816,-48.23,-26.3375,-14.8225
403,204087,0.6007279999999999,0.7034521,-1.1570479999999999,-47.2675,-36.89,-13.265
404,204185,0.67588,0.9240280000000001,-1.1209360000000002,-41.09,-49.07,-20.755
405,204283,0.547536,0.5453399999999999,-0.9079241,-27.755,-58.7825,-22.54
406,204381,0.333304,0.217892,-0.805688,-19.1275,-61.1625,-25.62
407,204479,0.245464,0.13542,-0.688812,-15.785,-59.3425,-25.7075
408,204578,0.244732,0.281088,-0.701012,-13.79,-55.09,-22.8725
409,204676,0.223016,0.380884,-0.69418,-9.1175,-49.7,-20.23
410,204774,0.188124,0.36502399999999996,-0.686128,-3.2375,-42.3675,-18.76
411,204872,0.216916,0.264008,-0.733464,0.595,-34.685,-17.9375
412,204970,0.292312,0.20642399999999997,-0.83204,1.855,-28.63,-16.415
413,205068,0.3355,0.176656,-0.846924,2.415,-27.195,-14.5425
414,205167,0.254492,0.17738800000000002,-0.792024,3.6225,-27.0025,-11.795
415,205265,0.1464,0.157868,-0.67588,4.7075,-23.8,-8.8725
416,205363,-0.000488,0.110044,-0.48995200000000005,8.6625,-15.33,-4.935
417,205461,-0.082716,0.17397200000000002,-0.4514,10.1325,-3.43,-0.63
418,205559,-0.011956,0.209596,-0.488,8.155,13.4925,3.43
419,205657,0.22204000000000002,0.341356,-0.855708,1.96,27.8075,5.425
420,205755,0.860344,0.495076,-1.513044,-10.1675,31.9025,4.6725
421,205854,0.9154880999999999,0.413092,-1.3954360000000001,-4.1475,16.6775,1.05
422,205952,0.428708,0.30378,-1.007232,-0.8925,-12.005,-3.4825
423,206050,0.187392,0.33061999999999997,-0.7600600000000001,-3.255,-17.5,-6.475
424,206148,0.212524,0.372344,-0.74298,-5.0225,-10.71,-5.46
425,206246,0.237656,0.37258800000000003,-0.7537159999999999,-4.4975,-4.8475,-5.075
426,206344,0.185684,0.30744,-0.70516,-3.0975,-0.21,-5.215
427,206443,0.1464,0.244732,-0.660752,-2.66,6.51,-4.2175
428,206541,0.259372,0.30353600000000003,-0.828624,-3.6225,14.4025,-1.89
429,206639,0.579256,0.444568,-1.2221959999999998,-4.5325,18.13,0.0
430,206737,0.8100801,0.470188,-1.322236,-3.71,9.1,-2.065
431,206835,0.529724,0.3721,-1.092632,0.56,-10.29,-6.0025
432,206933,0.262056,0.313784,-0.820572,0.945,-19.7225,-8.68
433,207032,0.2074,0.300852,-0.7366361,-0.1575,-16.9225,-8.54
434,207130,0.268888,0.305976,-0.798124,-0.735,-11.06,-7.2275
435,207228,0.321592,0.31354,-0.8579041,0.8225,-7.77,-5.845
436,207326,0.42895200000000006,0.379176,-1.0262639999999998,1.155,-7.945,-4.83
437,207424,0.5058121,0.3782,-1.0138200000000002,2.065,-10.78,-5.25
438,207522,0.373808,0.335744,-0.9203680000000001,5.74,-17.92,-6.6675
439,207621,0.2562,0.29597199999999996,-0.807884,6.895,-20.195,-7.5775
440,207719,0.223748,0.28426,-0.76982,6.3,-17.1675,-7.1925
441,207817,0.233508,0.288408,-0.7771399999999999,5.985,-12.845,-5.7575
442,207915,0.23058,0.279624,-0.765184,6.8425,-8.54,-4.41
443,208013,0.297192,0.32574000000000003,-0.877668,7.2275,-5.04,-2.975
444,208111,0.435784,0.35892399999999997,-0.989176,6.965,-3.3075,-2.3275
445,208210,0.41382399999999997,0.328912,-0.961116,8.7675,-7.2275,-2.9575
446,208308,0.303048,0.29768,-0.8708360999999999,10.08,-11.5325,-3.71
447,208406,0.255956,0.301584,-0.8357,9.275,-11.515,-3.4825
448,208504,0.2806,0.299632,-0.8359440999999999,7.0,-8.225,-3.0275
449,208602,0.327448,0.326716,-0.9171961,4.62,-6.5625,-3.255
450,208700,0.40748,0.327204,-0.9708760000000001,2.73,-6.335,-3.6575
451,208799,0.388204,0.309392,-0.9479401,2.555,-9.485,-4.5325
452,208897,0.34111199999999997,0.30134,-0.91012,2.3975,-12.7575,-5.2325
453,208995,0.31842,0.322812,-0.9037761000000001,2.135,-13.93,-5.5125
454,209093,0.38552,0.370148,-0.9882001,1.2425,-14.455,-5.5125
455,209191,0.40992,0.37112399999999995,-0.9857600000000001,3.045,-16.3975,-5.5125
456,209289,0.372832,0.34257600000000005,-0.9494040000000001,4.235,-20.3,-6.37
457,209388,0.335744,0.310856,-0.916464,3.6925,-22.82,-7.3325
458,209486,0.293288,0.282552,-0.8720559999999999,3.0625,-23.7125,-7.84
459,209584,0.276696,0.284748,-0.8674200000000001,1.82,-23.485,-8.0675
460,209682,0.265472,0.28011199999999997,-0.849608,1.12,-22.1725,-7.8575
461,209780,0.24912399999999998,0.271328,-0.8271601000000001,-0.0175,-20.7725,-7.9625
462,209878,0.227408,0.24107199999999998,-0.791536,-1.05,-18.0775,-7.945
463,209977,0.196176,0.221308,-0.759328,-2.4675,-15.435,-8.0325
464,210075,0.141764,0.23009200000000002,-0.712236,-3.325,-12.3025,-7.315
465,210173,0.08637601,0.2867,-0.681736,-3.7625,-7.385,-5.635
466,210271,0.07222401,0.342088,-0.6763680000000001,-3.0275,1.8375,-2.5025
467,210369,0.077592,0.366732,-0.689056,-0.56,13.2825,0.945
468,210467,0.046604,0.35892399999999997,-0.67466,4.55,25.2175,5.4775
469,210566,0.007320001,0.337452,-0.669292,12.2675,40.565,13.1775
470,210664,0.066124,0.309392,-0.7895840999999999,22.61,60.5675,26.7925
471,210762,0.306464,0.187148,-0.99918,38.4825,84.84,49.1925
472,210860,0.058316,-0.088328,-1.7204439999999999,52.7275,92.155,78.5925
473,210958,-0.041724000000000004,0.399428,-1.8756279999999999,21.07,98.56,104.6675
474,211056,-0.242536,0.9376921,-1.776564,-8.9075,116.515,118.755
475,211155,-0.52704,0.9252481,-1.9776200000000002,2.415,119.1925,137.0425
476,211253,-0.9230520000000001,0.748836,-1.91052,14.5425,112.245,149.5725
477,211351,-1.351516,0.638792,-1.808772,6.1775,95.76,151.1125
478,211449,-1.7050720000000001,0.6317159999999999,-1.783152,-15.2425,72.135,148.89
479,211547,-1.9605400000000002,0.7032079999999999,-1.849032,-34.0025,46.235,141.2075
480,211645,-2.060824,0.754692,-1.957856,-44.87,18.1475,127.295
481,211744,-2.0586279999999997,0.7376119999999999,-2.0008,-48.93,-14.9975,106.505
482,211842,-1.986404,0.637084,-1.97396,-52.64,-50.61,83.125
483,211940,-1.9000279999999998,0.552172,-1.8590360000000001,-60.0775,-85.295,59.6575
484,212038,-1.7775400000000001,0.582428,-1.7641200000000001,-67.7775,-115.36,35.4725
485,212136,-1.6028360000000001,0.5697399999999999,-1.7111720000000001,-68.845,-135.52,11.8125
486,212234,-1.3583479999999999,0.535824,-1.665056,-65.205,-147.665,-13.965
487,212333,-1.1155680000000001,0.465796,-1.607716,-57.54,-154.7175,-40.6175
488,212431,-0.887916,0.35526399999999997,-1.494744,-46.9525,-155.9425,-64.1025
489,212529,-0.666608,0.226188,-1.280268,-33.67,-149.5725,-80.4825
490,212627,-0.5248441,0.085888,-1.00528,-20.5975,-133.5425,-87.71
491,212725,-0.425048,0.001952,-0.801296,-13.72,-105.0875,-85.6625
492,212824,-0.23009200000000002,-0.026108,-0.6897880999999999,-10.6225,-62.2825,-77.385
493,212922,0.02806,-0.01342,-0.767624,-9.9575,-14.175,-66.4125
494,213020,0.42700000000000005,0.163724,-1.077748,-11.69,26.6875,-55.72
495,213118,0.792024,0.34648,-1.4039760000000001,-10.3075,50.2425,-46.2175
496,213216,1.267336,0.57706,-1.8361,-2.975,53.7075,-42.5075
497,213314,1.9895759999999998,0.553392,-2.256756,14.385,34.2125,-45.5875
498,213413,1.708488,0.533872,-2.281888,27.2475,-17.71,-55.2125
499,213511,1.7089759999999998,0.336476,-1.934432,34.37,-78.8725,-70.14
500,213609,1.594296,0.2318,-1.437648,29.9075,-129.78,-84.4375
501,213707,1.418128,0.124196,-0.697108,28.1225,-164.745,-96.04
502,213805,1.3298,0.057828,-0.12932000000000002,29.75,-174.755,-103.5475
503,213903,1.363228,0.081252,0.23692399999999997,34.5975,-163.7475,-109.7775
504,214002,1.609912,0.202032,0.288408,41.6325,-141.2075,-115.4825
505,214100,1.973716,0.236192,0.26352,54.6875,-118.79,-121.3975
506,214198,2.341668,0.23253200000000002,0.226188,65.6075,-103.005,-128.52
507,214296,2.7542720000000003,0.23521599999999998,0.325496,70.665,-92.225,-133.6825
508,214394,3.13052,-1.0972680000000001,1.6352879999999999,62.7025,-66.78,-122.325
509,214492,3.505304,-0.43505200000000005,3.378424,-21.315,37.975,-122.9025
510,214591,4.180452,0.29158,3.22202,-88.4975,131.04,-108.3775
511,214689,4.447632,-0.12395199999999999,3.289364,-72.0825,209.755,-34.2475
512,214787,0.58804,1.1094680000000001,-2.591036,-149.2925,153.9125,88.53251
513,214885,1.645048,3.3501199999999995,-5.9370080000000005,-133.56,181.2825,73.7275
514,214983,2.4626919999999997,2.384856,-2.2387,38.2025,179.3225,60.9
515,215081,0.323056,0.541192,-0.656116,89.8975,86.34501,41.7725
516,215179,-0.23668000000000003,-0.334768,-0.548756,38.745,100.6775,8.26
517,215278,0.156892,-0.423828,-0.768844,38.92,123.9175,31.255
518,215376,1.455216,0.706624,-2.047648,38.29,135.625,57.5575
519,215474,2.4512240000000003,0.817156,-2.261636,75.8975,98.035,51.555
520,215572,0.379664,-0.5104479999999999,-1.021628,62.86,24.0625,27.23
521,215670,0.111752,0.199348,-0.8481440999999998,38.08,-15.8375,8.9425
522,215768,0.771528,0.279624,-1.391044,22.05,22.855,9.6425
523,215867,0.44896,0.089304,-0.9862479999999999,10.15,-0.5425,-0.035
524,215965,0.163968,0.191052,-0.786656,8.4525,-11.3925,-4.2175
525,216063,0.174948,0.2196,-0.796904,5.8275,-1.54,-2.975
526,216161,0.37502800000000003,0.190808,-0.9691681000000001,2.6075,8.3125,-1.2075
527,216259,0.34404,0.256688,-0.89426,0.7875,7.35,-2.73
528,216357,0.31158800000000003,0.29792399999999997,-0.885476,2.94,7.7875,-2.065
529,216456,0.319884,0.28987199999999996,-0.915732,8.9075,10.3425,0.49
530,216554,0.332572,0.306464,-0.9174399999999999,13.055,10.5175,2.0125
531,216652,0.299388,0.3172,-0.892064,12.355,10.64,1.785
532,216750,0.254736,0.331352,-0.8996280999999999,11.5325,11.3225,2.5025
533,216848,0.284504,0.330864,-0.9037761000000001,12.5475,15.575,4.9
534,216946,0.365512,0.270108,-0.94306,11.6725,17.71,6.51
535,217045,0.41260399999999997,0.25790799999999997,-0.9572120999999999,6.8775,18.795,6.0375
536,217143,0.38966799999999996,0.270596,-0.916464,1.2075,18.7075,3.745
537,217241,0.292312,0.25498000000000004,-0.8908440999999999,-1.5575,18.76,2.555
538,217339,0.42553599999999997,0.24156,-0.9247601000000001,-6.37,24.7975,2.8525
539,217437,0.383324,0.22423600000000002,-0.8605879999999999,-10.4475,27.7725,2.5375
540,217536,0.223748,0.194956,-0.904752,-17.7975,30.45,7.07
541,217634,0.366732,0.22716399999999998,-0.803736,-29.68,43.645,14.4375
542,217732,0.34111199999999997,0.266448,-0.9118280000000001,-36.995,56.6475,12.0575
543,217830,0.355508,0.323544,-0.8483879999999999,-41.6325,66.185,12.2325
544,217928,0.376248,0.337696,-0.8544879999999999,-40.5125,75.4075,13.3875
545,218026,0.35014,0.38503200000000004,-0.873764,-38.2025,91.945,20.1425
546,218125,0.47067600000000004,0.338672,-0.88328,-41.09,103.6175,26.7225
547,218223,0.48678,0.310612,-0.863028,-36.47,110.565,29.8725
548,218321,0.49776000000000004,0.32208000000000003,-0.9296399999999999,-22.995,113.575,37.94
549,218419,0.453108,0.21618400000000002,-0.94916,-4.1125,108.0975,44.9575
550,218517,0.49312399999999995,0.09028,-0.9357401,8.925,117.775,40.425
551,218615,0.688812,0.091744,-0.8298440999999999,21.945,135.5375,25.76
552,218714,0.831308,0.29524,-0.702232,5.32,189.875,15.47
553,218812,0.661484,0.247416,-1.086288,-34.0375,265.4925,14.9625
554,218910,0.64782,0.373564,-1.033096,-18.55,328.8075,11.3575
555,219008,0.614392,0.35258,-0.8252079999999999,3.57,373.765,20.58
556,219106,0.363072,0.10394400000000001,-0.987224,-28.42,440.5275,32.55
557,219204,0.664168,0.18178,-1.273192,-53.305,514.115,20.615
558,219303,0.703696,0.0061,-1.2404959999999998,-64.8725,564.515,9.3975
559,219401,1.34932,0.7171161,-1.386652,-97.475,573.335,-23.94
560,219499,1.4457,0.320372,-1.6570040000000001,-148.6975,573.405,-14.2625
561,219597,2.47538,0.545096,-1.8602560000000001,-190.505,573.195,-20.93
562,219695,2.791116,0.5846241,-2.3650919999999998,-252.9625,554.9775,-21.4025
563,219793,1.358104,0.6107319999999999,-3.090504,-289.87,474.67,0.1575
564,219892,1.1472879999999999,0.883768,-4.308064,-274.9075,372.0325,0.1575
565,219990,2.488312,0.349896,-1.17364,-335.0375,278.25,-57.8725
566,220088,2.80112,2.82552,-7.464936,-404.9675,363.6325,-251.895
567,220186,7.581567999999999,6.166856,-3.8647160000000005,54.3025,133.9275,109.515
568,220284,0.357948,4.499848,-7.990512,-179.375,175.735,123.8475
569,220382,-0.042456,3.447232,-6.460388,115.9375,-73.1325,51.8875
570,220481,-0.692228,1.390556,-3.891068,296.2225,-154.945,20.475
571,220579,-0.718092,0.43334399999999995,-2.950936,332.9725,-203.7525,27.5275
572,220677,-0.582184,0.271084,-2.546872,266.91,-257.25,29.2775
573,220775,-0.24766,0.5458281,-2.466108,182.6825,-329.14,18.83
574,220873,0.091744,1.011624,-2.329956,127.1725,-402.605,2.73
575,220971,0.27571999999999997,1.176812,-1.861232,129.2375,-459.1475,-7.7525
576,221070,0.320616,0.8571719999999999,-0.9486720999999999,161.8575,-492.9225,-11.3575
577,221168,0.12175599999999999,0.25522399999999995,0.007076001,177.45,-501.76,-6.335
578,221266,0.174948,0.100284,0.0854,143.815,-483.1225,0.91
579,221364,0.46896800000000005,0.41723999999999994,-0.373076,93.8525,-456.5575,5.845
580,221462,0.69418,0.8508280999999999,-0.9437921,66.7275,-447.4225,7.8575
581,221561,0.8823040000000001,1.1733959999999999,-1.299544,68.74,-454.1425,-0.805
582,221659,1.117032,1.352004,-1.479372,85.05,-467.8975,-20.2475
583,221757,1.391532,1.2458639999999999,-1.4417959999999999,98.0175,-485.765,-48.7025
584,221855,1.6352879999999999,1.196576,-1.498404,87.2375,-507.6225,-81.4275
585,221953,2.073268,1.1407,-1.5603799999999999,58.52,-526.9774,-116.06
586,222051,2.467084,1.315892,-1.381772,22.8025,-544.005,-158.06
587,222150,2.473672,1.537932,-1.355176,12.3725,-541.975,-194.25
588,222248,2.750124,1.477176,-1.539152,36.54,-511.0525,-206.3775
589,222346,3.197864,1.19804,-1.728984,56.56,-473.795,-214.655
590,222444,3.680252,1.245132,-1.9049080000000003,50.68,-444.115,-221.1475
591,222542,4.019168,1.449848,-1.740452,47.6875,-414.9425,-215.985
592,222641,4.1667879999999995,1.36274,-1.41642,65.7825,-381.815,-189.91
593,222739,4.443728,0.9345201,-1.0321200000000001,77.56,-351.575,-150.3775
594,222837,4.595496,0.601216,-0.501908,49.035,-333.8125,-114.66
595,222935,4.257312000000001,0.6790520999999999,0.22716399999999998,-5.74,-320.3025,-91.6825
596,223033,3.697576,0.9240280000000001,0.9345201,-30.3625,-287.28,-78.19
597,223131,3.335968,1.1350879999999999,1.285392,-4.2525,-223.8425,-67.97
598,223230,3.9042440000000003,0.987712,1.172664,39.9175,-147.735,-59.1675
599,223328,4.4964319999999995,0.598288,1.286612,56.805,-93.7125,-52.85
600,223426,4.308308,0.327936,1.7150759999999998,31.5,-65.6075,-43.89
601,223524,3.697332,0.494832,1.7550919999999999,-5.5825,-34.685,-27.8775
602,223622,3.3530480000000003,0.8491200000000001,1.061156,-7.2625,20.7375,-3.465
603,223720,3.2473959999999997,1.037488,0.21032800000000001,23.8175,80.2025,19.88
604,223819,3.0680560000000003,0.9864921,-0.42626800000000004,48.86,115.6225,24.99
605,223917,2.424628,0.8039801,-0.6973520000000001,47.4425,126.5075,14.14
606,224015,-2.370948,-1.282464,-3.188104,31.395,136.885,53.5675
607,224113,-1.244156,-0.3111,-0.765672,-24.92,228.5325,64.26
608,224211,-3.480172,-0.553392,0.687592,-33.5125,214.935,74.18251
609,224309,-4.325387999999999,-2.608116,5.825988,-65.5375,343.595,199.395
610,224408,7.253144,4.951004,-4.027952,-318.8325,558.1625,173.67
611,224506,5.366048,0.311344,-4.572316000000001,-197.9425,505.365,-60.375
612,224604,1.7275200000000002,-0.8418,-2.49002,-151.48,310.1,76.615
613,224702,4.678212,3.7593080000000003,-7.148712,-86.9925,332.1325,81.5675
614,224800,3.0561,3.240564,-0.687104,97.6675,212.5725,4.7775
615,224899,-0.71492,-1.153632,-1.281,51.87,24.395,28.4025
616,224997,0.23448400000000003,0.488,-1.01504,40.075,11.9875,17.5175
617,225095,0.35697199999999996,1.09312,-0.7317560000000001,53.305,81.165,6.965
618,225193,0.416508,0.024644,-1.109956,59.6225,31.71,29.05
619,225291,0.491904,0.384056,-1.06628,46.9175,44.3275,20.3875
620,225389,0.342088,0.228384,-0.964776,37.3275,24.5525,9.7125
621,225488,0.544852,0.28621199999999997,-1.035536,26.8975,22.6625,10.8675
622,225586,0.401136,0.163968,-0.9433041,22.785,12.6875,7.9275
623,225684,0.513376,0.135664,-1.079456,9.87,11.0075,7.665
624,225782,0.321592,0.241804,-0.9091440000000001,-2.17,10.8325,3.4475
625,225880,0.30134,0.35160399999999997,-0.9415959999999999,-12.1625,16.8875,4.69
626,225978,0.392596,0.384056,-0.8625401,-17.3775,26.4075,4.7775
627,226077,0.366732,0.257176,-0.913292,-21.315,24.36,5.915
628,226175,0.3965,0.293532,-0.924516,-26.215,26.775,5.3375
629,226273,0.330376,0.299388,-0.9186601000000001,-31.2725,23.5375,6.4225
630,226371,0.268888,0.35843600000000003,-0.845216,-38.255,22.7675,10.605
631,226469,0.325008,0.382104,-0.8095920999999999,-40.075,27.3,12.2675
632,226567,0.41284799999999994,0.34257600000000005,-0.80642,-37.5725,31.2375,13.755
633,226666,0.395768,0.4331,-0.6973520000000001,-30.9925,30.31,13.8425
634,226764,0.41260399999999997,0.42724399999999996,-0.735172,-19.8275,30.695,13.0725
635,226862,0.372344,0.355996,-0.763476,-11.935,29.9425,15.855
636,226960,0.42895200000000006,0.38308000000000003,-0.724436,-6.0025,32.9,17.4825
637,227058,0.537776,0.376248,-0.7673800000000001,-2.1875,32.8125,14.35
638,227156,0.380884,0.317932,-0.79178,0.98,21.98,12.6
639,227255,0.5553441,0.280356,-0.7922680000000001,-1.645,22.12,12.11
640,227353,0.534848,0.26156799999999997,-0.84546,-4.6725,19.355,7.0525
641,227451,0.528016,0.254492,-0.8827921000000001,-5.565,12.81,2.7125
642,227549,0.453596,0.28426,-0.8239880999999999,-7.28,9.835,-1.68
643,227647,0.444324,0.333548,-0.8298440999999999,-11.9875,12.32,-4.62
644,227745,0.34867600000000004,0.366244,-0.81618,-17.2725,15.47,-4.2875
645,227844,0.329888,0.362584,-0.8317960999999999,-25.3225,27.265,-0.175
646,227942,0.33818400000000004,0.37258800000000003,-0.844484,-33.4775,43.8375,6.405
647,228040,0.317932,0.332816,-0.8874280999999999,-39.5675,62.79,14.0525
648,228138,0.48165600000000003,0.370148,-1.06994,-31.9725,78.55751,21.7175
649,228236,0.4087,0.334524,-0.919392,-4.165,82.6175,31.5175
650,228334,0.437492,0.282308,-0.9537959999999999,2.0475,100.975,33.8975
651,228432,0.589992,0.292556,-0.954528,-0.735,126.9625,37.555
652,228531,0.8439959999999999,0.441884,-0.9774639999999999,-17.22,172.095,48.09
653,228629,0.8723001,0.429928,-1.122644,-40.2675,242.27,59.1675
654,228727,0.520452,0.44164,-0.585356,-42.07,281.2425,74.5325
655,228825,0.383812,0.44773999999999997,-1.026752,-75.04,315.42,86.9225
656,228923,0.126636,-0.254736,-0.898652,-66.4825,409.0275,109.48
657,229021,0.18251199999999998,-0.20837600000000003,-1.075796,-117.88,517.0725,58.5725
658,229120,1.009916,0.41723999999999994,-1.8048680000000001,-208.6175,569.625,-16.17
659,229218,1.366644,0.6707561,-2.3199520000000002,-238.7525,573.3875,-27.4575
660,229316,2.934832,1.103612,-2.342156,-261.345,573.23,-26.11
661,229414,2.03862,0.832528,-2.755736,-283.0625,534.1,27.3175
662,229512,0.679296,0.422608,-3.5628879999999996,-302.4875,374.9375,52.0275
663,229610,-0.566812,0.6082920999999999,-3.159068,-298.3925,238.595,-1.0325
664,229709,1.748748,1.075308,-0.651968,-315.0,222.39,-89.775
665,229807,6.282268,4.045276,-4.386388,-447.16,283.4475,-202.1075
666,229905,0.9796600000000001,2.570784,-7.59938,-231.9275,120.8025,152.3025
667,230003,0.046116000000000004,3.5070120000000005,-6.625088000000001,-109.97,-19.81,185.6575
668,230101,-0.612684,2.137684,-4.910988,80.0975,-153.755,135.66
669,230199,-1.267092,0.834724,-2.922876,226.3975,-233.03,116.515
670,230298,-1.13216,0.39528,-2.043988,242.83,-281.7675,106.1725
671,230396,-0.885476,0.46311199999999997,-1.696288,198.17,-320.705,95.2
672,230494,-0.545096,0.7129681,-1.55672,148.9075,-356.86,77.735
673,230592,-0.381372,0.9345201,-1.3322399999999999,122.08,-389.4275,55.5625
674,230690,-0.41602,0.955992,-0.691008,125.5975,-412.7025,40.635
675,230788,-0.444324,0.71126,-0.156404,132.895,-413.7175,34.1425
676,230887,-0.271084,0.5980439999999999,-0.1342,119.2975,-391.7025,28.5775
677,230985,0.104432,0.7700640999999999,-0.582184,86.17,-366.345,22.2775
678,231083,0.5655920999999999,1.106784,-1.222684,52.01,-360.605,11.0425
679,231181,0.780068,1.390312,-1.572092,32.095,-380.8175,-12.46
680,231279,0.8071520000000001,1.46278,-1.63114,30.8875,-408.835,-44.4675
681,231377,0.9240280000000001,1.393728,-1.60552,37.59,-427.0,-76.4575
682,231476,1.056032,1.285392,-1.551352,42.77,-434.9275,-103.4075
683,231574,1.2322,1.203164,-1.5701399999999999,42.63,-437.15,-121.975
684,231672,1.437648,1.1346,-1.58356,35.525,-436.8175,-136.36
685,231770,1.60064,1.1241079999999999,-1.543788,21.21,-433.055,-153.7725
686,231868,1.600152,1.2817319999999999,-1.441552,11.585,-421.1375,-170.135
687,231966,1.6387040000000002,1.3163799999999999,-1.301252,18.5675,-394.0125,-177.345
688,232065,1.707756,1.059204,-1.1690040000000002,32.2875,-354.8825,-177.52
689,232163,1.812432,0.7822640000000001,-1.146556,25.8475,-314.09,-179.3925
690,232261,2.0923,0.8491200000000001,-1.431548,0.0525,-276.675,-184.3625
691,232359,2.624708,1.0687200000000001,-1.8885599999999998,-16.8,-244.895,-180.775
692,232457,3.291072,1.1733959999999999,-2.269688,-15.2075,-229.46,-172.4625
693,232555,3.9467,1.1733959999999999,-2.500756,-6.475,-239.26,-169.0675
694,232654,4.47496,1.137772,-2.205516,5.985,-270.165,-172.9175
695,232752,4.571584,0.9301280000000001,-1.253916,24.15,-303.8,-172.6025
696,232850,4.32978,0.5978,-0.038551999999999996,40.53,-311.29,-159.8975
697,232948,4.004528,0.372832,1.120692,49.63,-280.9275,-138.495
698,233046,3.8259199999999995,0.318664,1.749236,44.45,-225.82,-111.195
699,233145,3.927912,0.159088,1.879044,31.2025,-163.0475,-85.71500999999999
700,233243,4.353936,0.064172,1.7707080000000002,12.6,-100.45,-67.62001
701,233341,4.462028,0.279136,1.790716,-3.9375,-52.92,-57.4175
702,233439,4.023072,0.35624,1.6933599999999998,0.5775,-17.92,-43.365
703,233537,3.6673199999999997,0.279868,1.259772,23.625,31.115,-24.5
704,233635,3.483344,0.21032800000000001,0.838628,45.01,96.9675,-11.305
705,233734,-1.1163,-1.035292,-1.379576,39.0075,126.1925,41.825
706,233832,-0.599996,-0.42944,-1.359568,-35.9275,232.575,94.5
707,233930,-2.719868,-0.638548,-2.631296,-55.2475,228.76,68.2325
708,234028,-2.821372,-0.246928,2.618852,-40.495,209.72,140.3325
709,234126,-0.248392,0.092964,3.021696,-5.1625,440.09,245.665
710,234225,7.970016,3.062688,-7.342936999999999,-273.21,510.755,-25.8125
711,234323,1.8175560000000002,-0.264252,-3.035116,-75.8975,232.61,5.3375
712,234421,1.6565159999999999,-0.581696,-1.841468,-5.8275,273.3325,105.8925
713,234519,1.7028759999999998,2.632516,-3.600708,-76.2825,197.505,48.9125
714,234617,1.97396,2.6693599999999997,-1.525488,40.67,166.1625,19.145
715,234715,1.395924,-0.262544,-1.6745720000000002,79.2575,118.65,26.355
716,234814,-0.280844,-0.565104,-1.443992,51.8,-14.1575,30.8525
717,234912,0.385764,1.223416,-0.65758,35.6825,42.0525,-14.2975
718,235010,0.49434399999999995,0.372832,-0.9764879999999999,43.015,33.2325,0.455
719,235108,0.494588,-0.15616,-1.257576,31.5,11.9875,13.755
720,235207,0.262788,0.404796,-0.8359440999999999,16.6075,12.705,-4.9
721,235304,0.244,0.25302800000000003,-0.9113399999999999,10.92,11.62,-3.92
722,235403,0.404552,0.186416,-1.063352,4.0775,15.785,-0.875
723,235501,0.385276,0.287432,-0.9442801,-4.235,13.335,-6.02
724,235599,0.354532,0.118584,-1.010892,-13.1425,9.4675,-3.15
725,235697,0.333304,0.229604,-0.9791719999999999,-23.7825,12.9325,-6.0025
726,235795,0.260836,0.366976,-0.855708,-26.46,16.0475,-6.8425
727,235894,0.274012,0.462868,-0.8149601,-24.01,21.91,-4.48
728,235992,0.30353600000000003,0.44944799999999996,-0.791048,-17.08,23.1525,-0.2625
729,236090,0.340624,0.35624,-0.8203280000000001,-8.68,22.6975,3.9375
730,236188,0.311832,0.36209600000000003,-0.8332601000000001,-1.05,19.565,5.4775
731,236286,0.24107199999999998,0.40992,-0.800564,6.545,18.8125,7.7175
732,236384,0.329156,0.366732,-0.8432639999999999,11.3225,20.755,11.27
733,236483,0.32696,0.324276,-0.8847440999999999,17.1675,18.8825,12.1975
734,236581,0.34281999999999996,0.303048,-0.8991401,19.74,10.7975,18.06
735,236679,0.38552,0.280356,-0.865468,18.375,7.385,22.68
736,236777,0.385764,0.35624,-0.8398479999999999,13.3175,7.0525,26.46
737,236875,0.357948,0.31354,-0.8461921,12.8275,4.6375,27.5275
738,236973,0.343308,0.343064,-0.8479,12.9325,6.2825,25.4275
739,237072,0.4758,0.21276799999999998,-0.912316,9.765,10.2725,23.1
740,237170,0.44408000000000003,0.283528,-0.8674200000000001,2.8175,9.3275,17.5175
741,237268,0.44554399999999994,0.23155599999999998,-0.8757159999999999,-3.43,8.9775,13.685
742,237366,0.410652,0.17763199999999998,-0.919636,-13.37,15.26,9.03
743,237464,0.395036,0.23155599999999998,-0.8576601,-21.7175,26.3725,4.97
744,237562,0.3233,0.23838800000000002,-0.877912,-31.5875,39.725,2.765
745,237661,0.2379,0.265472,-0.8640040000000001,-41.825,56.6825,2.065
746,237759,0.26596,0.279624,-0.9006040999999999,-53.83,76.125,0.8225
747,237857,0.219112,0.27889200000000003,-0.9625799999999999,-60.7425,99.75,5.3375
748,237955,0.384056,0.326472,-1.117764,-57.785,124.67,8.085
749,238053,0.471408,0.29743600000000003,-1.130696,-23.695,135.0825,14.945
750,238152,0.46481999999999996,0.24131599999999997,-1.03334,8.05,148.54,28.6825
751,238250,0.781044,0.509716,-0.72102,-4.8475,192.745,32.9525
752,238348,0.61732,0.4209,-0.989664,-54.6875,270.62,49.35
753,238446,0.743468,0.596092,-1.021872,-79.1525,355.39,70.2275
754,238544,0.404796,0.28938400000000003,-0.8784,-95.00751,381.6575,115.8675
755,238642,-0.1342,-0.22814,-0.7849480999999999,-118.1775,455.7875,112.8575
756,238741,0.16592,0.129076,-1.361764,-164.2375,560.7525,49.77
757,238839,1.16876,0.47702,-2.002264,-204.9075,573.37,17.7975
758,238937,1.7082439999999999,0.8396040000000001,-2.478308,-213.815,573.405,20.7025
759,239035,3.580456,1.052616,-2.477332,-242.4275,573.3875,32.305
760,239133,1.547936,1.0309,-3.0219400000000003,-265.6675,540.995,75.7925
761,239231,0.820816,0.374296,-3.449184,-251.125,404.95,84.0525
762,239330,-0.350628,0.8827921000000001,-3.2788720000000002,-249.9,270.445,2.975
763,239428,2.258952,-0.34257600000000005,-3.26472,-351.5575,318.045,-166.95
764,239526,4.260728,5.391424,-3.5782599999999998,-320.0925,225.855,-116.2525
765,239624,0.355752,2.8313759999999997,-7.9780679999999995,-71.3825,123.305,186.8125
766,239722,-0.044896,3.481148,-6.599467999999999,-32.34,-11.2175,134.435
767,239821,-0.8439959999999999,1.927844,-4.612088,142.7125,-144.62,79.5025
768,239919,-1.34322,0.791536,-2.690344,254.8,-217.9625,59.5175
769,240017,-1.127524,0.385764,-2.057408,252.77,-255.9725,49.5425
770,240115,-0.7929999999999999,0.376492,-1.841468,212.5375,-287.805,44.73
771,240213,-0.40357600000000005,0.573156,-1.785348,167.51,-326.41,38.7275
772,240312,-0.102724,0.8276481,-1.652856,135.8175,-371.6125,27.8075
773,240410,0.123708,1.0206520000000001,-1.479128,128.45,-411.1275,17.7275
774,240508,0.271084,1.077748,-1.164368,140.7,-436.835,11.69
775,240606,0.37698000000000004,0.989908,-0.8127641,156.6775,-449.225,8.8375
776,240704,0.46457600000000004,0.85888,-0.5987760999999999,157.955,-451.01,5.145
777,240802,0.583648,0.8261841000000001,-0.6273241,139.125,-446.32,-2.2225
778,240901,0.83936,0.877668,-0.721264,109.48,-439.4775,-13.02
779,240999,0.9118280000000001,1.0243120000000001,-0.8508280999999999,80.255,-436.555,-27.825
780,241097,0.9054840000000001,1.233908,-1.096292,62.8775,-432.285,-41.3875
781,241195,0.9686799999999999,1.432768,-1.340292,61.1625,-423.745,-55.51
782,241293,0.9862479999999999,1.55672,-1.494988,68.81,-415.7825,-74.9875
783,241392,1.016504,1.60796,-1.652856,74.935,-407.855,-99.19001
784,241490,1.218536,1.513288,-1.736304,73.2725,-395.7975,-129.4125
785,241588,1.6628599999999998,1.443992,-1.7699759999999998,55.44,-384.3875,-158.97
786,241686,1.9712759999999998,1.42008,-1.720932,29.33,-376.915,-180.5475
787,241784,2.29238,1.289784,-1.6592,5.67,-367.57,-191.8175
788,241882,2.498072,1.349564,-1.8817279999999998,-16.485,-358.0675,-202.545
789,241981,2.93044,1.594296,-2.168184,-18.375,-349.6675,-206.5875
790,242079,3.3130319999999998,1.386652,-2.166232,10.675,-344.19,-191.6775
791,242177,3.5902160000000003,0.9110959999999999,-1.8317080000000001,28.5775,-347.3575,-175.7175
792,242275,3.8564199999999995,0.633424,-1.368596,11.165,-353.7625,-165.375
793,242373,4.109204,0.659044,-0.8796200000000001,-20.9475,-351.855,-152.1625
794,242472,4.309528,0.7422481,-0.252296,-38.745,-332.8675,-128.8875
795,242570,4.272196,0.736392,0.553392,-32.8125,-292.425,-100.905
796,242668,3.9759800000000003,0.6893,1.392264,-14.21,-233.3975,-76.4925
797,242766,3.8471480000000002,0.6034121,1.851472,0.665,-161.2275,-58.205
798,242864,4.254384,0.459208,1.7875439999999998,4.235,-84.84,-43.6275
799,242963,4.5427919999999995,0.597312,1.5969799999999998,-12.0225,-28.945,-40.9325
800,243061,4.184844,0.7661600000000001,1.4252040000000001,-27.195,3.675,-47.775
801,243159,3.722952,0.8308200000000001,1.154364,-22.155,46.1125,-53.76
802,243257,3.4301519999999996,0.815448,0.621468,-7.8225,96.0575,-60.585
803,243355,2.27408,0.45286400000000004,0.000244,3.71,136.71,-66.53501
804,243453,-1.441552,-0.656848,-3.6590239999999996,17.08,179.375,-13.405
805,243552,-0.8222799999999999,-0.887184,-1.732156,-1.54,303.905,-47.355
806,243650,-3.708068,-2.228208,1.372256,22.5225,202.125,49.455
807,243748,-4.830223999999999,-3.052684,5.342136,37.7475,377.615,286.23
808,243846,7.932196,2.2021,-5.0244480000000005,-228.9875,565.215,172.9525
809,243944,5.581012,0.8461921,-2.163304,-25.9525,537.2325,-86.7825
810,244042,1.68848,0.46848,-4.542304,-53.025,289.52,193.3225
811,244141,5.156452,5.3204199999999995,-6.680964,35.945,333.935,71.0325
812,244239,4.729696,-0.050508,-1.080432,141.7325,251.8775,-67.6025
813,244337,-1.175836,-1.22976,-0.200568,41.3175,-23.87,142.03
814,244435,0.0976,0.983808,-0.9684360999999999,-16.835,-82.5475,22.12
815,244533,0.9860040999999999,0.355752,-1.033096,19.005,82.845,-56.175
816,244632,0.115168,0.162748,-0.9650200999999999,22.19,-45.0625,16.415
817,244730,0.526308,0.28181999999999996,-1.01016,7.2625,19.915,-8.3475
818,244828,0.48556000000000005,0.16201600000000002,-0.93086,5.3375,-7.5075,-1.3825
819,244926,0.379664,0.21667199999999998,-0.9357401,0.455,-3.2025,-5.1975
820,245024,0.335256,0.130296,-0.9394,1.4525,-4.935,-4.235
821,245122,0.271572,0.176656,-0.9037761000000001,0.1225,-3.4825,-6.265
822,245221,0.244732,0.22935999999999998,-0.889136,-1.96,-0.28,-8.2775
823,245319,0.24424400000000002,0.205204,-0.9037761000000001,-4.0425,2.31,-6.265
824,245417,0.25522399999999995,0.195688,-0.935008,-5.81,6.0725,-2.8175
825,245515,0.27718400000000004,0.33013200000000004,-0.8857200999999999,-9.1525,11.9,-2.205
826,245613,0.2684,0.41016400000000003,-0.8540000000000001,-9.8875,14.28,-1.8725
827,245712,0.277428,0.401868,-0.8581479999999999,-8.68,14.7,1.05
828,245810,0.259128,0.390644,-0.83936,-6.16,15.4175,6.1775
829,245908,0.314272,0.299388,-0.8601,-4.2175,16.38,8.82
830,246006,0.348432,0.21301199999999998,-0.9189040999999999,-3.4825,16.0825,7.2625
831,246104,0.34038,0.23838800000000002,-0.892552,-0.3325,11.41,5.8975
832,246202,0.305976,0.28548,-0.8869401,3.71,8.575,8.855
833,246301,0.311344,0.269864,-0.879864,8.12,6.6675,15.61
834,246399,0.332084,0.263764,-0.8730319999999999,10.255,7.7525,17.8675
835,246497,0.349164,0.269376,-0.880352,10.3075,9.0125,21.945
836,246595,0.323788,0.293288,-0.9042641,6.125,9.9575,25.41
837,246693,0.413092,0.272304,-0.823256,2.135,12.495,28.49
838,246792,0.5121560000000001,0.27571999999999997,-0.9406200000000001,-6.65,19.145,26.5825
839,246890,0.416264,0.203984,-0.901336,-9.87,15.05,23.17
840,246988,0.423584,0.20788800000000002,-0.8927959999999999,-12.2325,19.705,15.6975
841,247086,0.44505600000000006,0.24058400000000002,-0.893284,-14.6125,24.675,10.2725
842,247184,0.37576,0.204716,-0.8666879999999999,-17.395,31.4475,8.645
843,247282,0.333304,0.217404,-0.8801081000000001,-24.29,44.38,8.96
844,247381,0.307684,0.25254,-0.8827921000000001,-35.2625,61.4775,8.7675
845,247479,0.27718400000000004,0.285236,-0.9154880999999999,-48.755,82.04,12.46
846,247577,0.270596,0.276208,-0.9408639999999999,-58.0125,107.4675,20.1425
847,247675,0.5221600000000001,0.31964000000000004,-1.304424,-56.1225,134.5225,28.5425
848,247773,0.5192319999999999,0.282064,-0.915732,-24.1675,142.1875,40.2325
849,247871,0.559004,0.20447200000000001,-0.909632,-25.8475,171.815,50.2425
850,247970,0.70394,0.325008,-0.879376,-57.9775,233.0825,54.67
851,248068,0.590968,0.18666,-1.060668,-99.96,317.31,55.335
852,248166,0.763476,0.7107720000000001,-1.073356,-117.0575,382.55,48.8775
853,248264,0.484828,0.5314321,-0.949892,-131.8275,433.16,90.3875
854,248362,0.8378960999999999,0.128832,-1.470832,-141.8725,504.0,128.065
855,248460,0.45457200000000003,0.2013,-1.601128,-140.56,557.235,104.335
856,248559,0.862784,0.43066000000000004,-1.956148,-158.41,571.7075,75.4775
857,248657,1.5669680000000001,0.6802720999999999,-2.555412,-229.11,573.405,54.25
858,248755,3.3562199999999995,1.0643280000000002,-2.38022,-291.7425,568.6275,19.95
859,248853,1.081652,0.7551800000000001,-2.922632,-324.1875,490.4375,36.54
860,248951,0.192028,0.49873599999999996,-3.464312,-318.78,322.8925,35.5075
861,249049,-0.044896,0.75762,-2.412428,-303.1875,206.9025,18.55
862,249148,4.79582,-0.025863999999999998,-6.6346039999999995,-348.9325,300.0375,-90.2475
863,249246,4.859504,5.482436,-5.315784,-230.055,147.4725,31.605
864,249344,-0.02074,2.841136,-7.341716,-68.81,65.3275,147.5425
865,249442,-0.45896400000000004,2.385832,-5.089352,25.55,-100.2925,84.735
866,249540,-1.56892,1.1350879999999999,-3.1341799999999997,145.53,-190.8725,43.54
867,249638,-1.449848,0.555832,-2.1347560000000003,190.2075,-225.1725,24.15
868,249737,-1.017968,0.27938,-1.964932,182.28,-251.2475,7.8575
869,249835,-0.4941,0.347456,-2.039596,143.4125,-292.7225,-8.05
870,249933,-0.156648,0.552416,-1.980548,105.385,-347.62,-26.775
871,250031,0.093696,0.7044279999999999,-1.771196,91.07,-399.98,-44.59
872,250129,0.323788,0.7422481,-1.525976,98.1925,-436.9925,-55.825
873,250228,0.571936,0.7027201,-1.327604,112.77,-459.235,-60.095
874,250326,0.788852,0.5892601,-1.1394799999999998,122.08,-473.795,-59.535
875,250424,0.9118280000000001,0.454084,-0.9642879999999999,119.14,-484.12,-57.33
876,250522,0.9630681000000001,0.399428,-0.8676640999999999,103.1625,-488.145,-52.7625
877,250620,1.020408,0.368196,-0.8437520000000001,82.0225,-483.875,-46.0075
878,250718,1.066524,0.37502800000000003,-0.907192,59.7275,-473.9525,-39.2
879,250817,1.0504200000000001,0.49654,-1.103612,40.355,-461.23,-31.22
880,250915,1.078968,0.6895439999999999,-1.387384,29.33,-445.3575,-20.9825
881,251013,1.114104,0.8276481,-1.593076,25.515,-430.0625,-15.47
882,251111,1.2160959999999998,0.9052401,-1.7626560000000002,22.82,-416.045,-20.0375
883,251209,1.477908,1.0004,-1.8931959999999999,13.3525,-401.5725,-33.1975
884,251307,1.7646080000000002,1.133868,-1.9398,-1.2775,-386.8025,-54.4425
885,251406,2.070584,1.161196,-1.9598080000000002,-13.1425,-368.025,-78.7675
886,251504,2.428776,1.194868,-2.103524,-17.605,-346.22,-99.1375
887,251602,2.935808,1.267336,-2.1813599999999997,-8.2075,-327.8275,-109.4275
888,251700,3.4926160000000004,1.1733959999999999,-2.0642400000000003,10.045,-318.4825,-111.09
889,251798,3.8693519999999997,0.9442801,-1.7338639999999998,18.9,-316.785,-114.1
890,251897,4.117012,0.7015,-1.199992,13.1425,-316.295,-121.555
891,251995,4.359792,0.6883239999999999,-0.533628,-4.2,-310.17,-128.4675
892,252093,4.472032,0.743468,0.2257,-13.685,-287.2275,-136.92
893,252191,4.306356,0.6451359999999999,1.016504,-3.7275,-249.025,-140.105
894,252289,4.071383999999999,0.524112,1.6469999999999998,12.3375,-196.1575,-136.605
895,252387,3.9698800000000003,0.1586,2.026664,22.68,-131.4075,-128.1875
896,252486,4.310748,-0.055388,1.891244,8.8725,-65.50251,-118.2125
897,252584,4.4464120000000005,0.166408,1.59454,-20.5975,-22.645,-111.1075
898,252682,4.070896,0.318664,1.200236,-35.35,6.0025,-104.3175
899,252780,3.655608,0.359168,0.72346,-28.245,44.0125,-98.7
900,252878,0.36136399999999996,0.1403,-0.196908,4.6725,94.4125,-78.925
901,252976,1.2256120000000001,-0.452132,0.32452,61.2675,297.5,-51.7475
902,253075,-0.45164399999999993,-2.024956,-1.338096,33.53,310.8175,8.89
903,253173,-3.886676,-3.645604,-0.24058400000000002,16.9225,170.065,74.0775
904,253271,-1.1507040000000002,-0.736392,3.3537800000000004,-17.71,416.955,156.9225
905,253369,7.970016,0.234972,-4.649176000000001,-188.7725,558.7224,19.04
906,253467,3.01828,0.13639600000000002,-2.5561439999999997,-94.78,387.52,2.135
907,253565,1.65798,0.715896,-3.6368199999999997,-141.0675,197.085,78.27750999999999
908,253664,3.451624,4.7789839999999995,-4.84218,-26.88,256.97,57.33
909,253762,2.539796,1.2688,-0.686616,79.8175,158.375,-17.185
910,253860,-1.056276,-1.767048,-1.458388,48.4575,12.7925,88.04251
911,253958,0.791536,1.011136,-1.244644,33.495,59.4475,-6.5625
912,254056,0.43236800000000003,0.549244,-0.7522521,32.7775,36.295,-21.735
913,254154,0.48873199999999994,-0.023424,-1.142164,37.345,15.5925,10.29
914,254253,0.397964,0.467992,-0.8727879999999999,23.2925,16.6075,4.9
915,254351,0.42626800000000004,0.12980799999999998,-1.0182120000000001,16.17,8.225,5.4075
916,254449,0.353312,0.288408,-0.9018241,10.5,5.25,3.5875
917,254547,0.335744,0.215452,-0.9291520000000001,7.2975,3.0625,1.3825
918,254645,0.326716,0.255712,-0.9103641,4.0425,4.6025,1.1375
919,254743,0.323788,0.21106,-0.927688,1.89,5.25,0.665
920,254842,0.339404,0.162992,-0.9203680000000001,-0.4725,6.3875,0.525
921,254940,0.30475599999999997,0.2684,-0.90036,-3.955,7.91,0.7
922,255038,0.320372,0.279136,-0.915732,-4.1825,9.555,2.5025
923,255136,0.3294,0.34648,-0.906216,-3.6925,11.4625,3.7275
924,255234,0.288408,0.366,-0.8725440999999999,-0.9625,10.4475,5.11
925,255332,0.386984,0.318176,-0.877424,0.14,10.6225,8.435
926,255431,0.329644,0.307684,-0.8447280999999999,0.245,9.765,10.3775
927,255529,0.363804,0.227652,-0.9174399999999999,-0.63,10.3775,11.4275
928,255627,0.374296,0.26766799999999996,-0.8559521000000001,-0.105,7.7875,12.6
929,255725,0.3782,0.216916,-0.913048,-0.735,7.805,11.6725
930,255823,0.340868,0.26108000000000003,-0.90402,-1.015,5.425,11.3575
931,255921,0.36209600000000003,0.29036,-0.899384,-2.1,4.165,12.6525
932,256020,0.346968,0.20008,-0.841556,-1.995,3.7275,13.23
933,256118,0.424804,0.299632,-0.9108521,-8.3825,9.8875,11.3925
934,256216,0.34404,0.231312,-0.8679081,-8.8725,7.84,11.8825
935,256314,0.353556,0.279136,-0.8945040000000001,-11.62,9.66,14.4725
936,256412,0.434808,0.21594000000000002,-0.87718,-13.3525,13.79,13.58
937,256510,0.44066400000000006,0.204228,-0.8801081000000001,-19.215,18.935,9.1
938,256609,0.396744,0.26913200000000004,-0.886452,-27.2475,22.3825,8.47
939,256707,0.35502,0.21374400000000002,-0.841556,-33.6175,31.4125,7.0875
940,256805,0.317932,0.272548,-0.8744960999999999,-44.7125,45.22,6.8425
941,256903,0.270596,0.239364,-0.886452,-54.075,62.2825,8.61
942,257001,0.249856,0.268888,-0.9228081,-61.565,86.34501,11.4275
943,257099,0.2623,0.28914,-0.924516,-62.615,113.2075,17.5
944,257198,0.535092,0.285236,-1.331508,-62.4225,141.82,28.945
945,257296,0.44066400000000006,0.28328400000000004,-1.0208959999999998,-27.44,150.01,38.4125
946,257394,0.510692,0.135908,-0.9357401,-19.9325,174.4225,41.65
947,257492,0.8510719999999999,0.453108,-0.721996,-45.4125,235.62,35.805
948,257590,0.769088,0.5172800999999999,-1.217316,-98.7,325.9725,32.7775
949,257688,0.608536,0.837408,-0.782508,-122.2375,403.1125,56.245
950,257787,0.208132,-0.10736,-1.10166,-147.805,420.0,122.71
951,257885,0.384788,-0.34404,-1.280756,-186.27,520.905,79.1175
952,257983,0.805932,-0.043676,-2.038864,-254.0125,573.02,-9.3625
953,258081,1.394216,0.617564,-2.235284,-308.525,573.405,-54.565
954,258179,3.121736,0.7883640000000001,-2.898964,-365.995,573.265,-61.915
955,258277,1.906616,1.352004,-3.6173,-362.215,551.5475,-18.0775
956,258376,0.47360399999999997,-0.10004,-3.144672,-320.495,431.1825,20.125
957,258474,-0.347456,1.2404959999999998,-3.146624,-264.985,302.1025,-55.8425
958,258572,2.214544,0.589016,-2.648864,-284.4975,303.2575,-126.525
959,258670,4.304404,4.352472,-4.192408,-318.4825,253.715,-52.7625
960,258768,1.191208,2.093032,-7.512760000000001,-82.11,145.4425,220.5875
961,258866,0.12029200000000001,2.30458,-5.81818,9.6425,-3.9025,232.925
962,258965,-0.701012,1.6391919999999998,-4.101884,121.135,-136.9375,204.61
963,259063,-1.1155680000000001,1.475468,-2.60836,205.3275,-198.03,201.39
964,259161,-1.040904,1.458388,-2.028372,252.14,-221.41,195.51
965,259259,-0.892308,1.455704,-1.814872,285.915,-239.6275,185.43
966,259357,-0.5414359999999999,1.488644,-1.6750599999999998,297.9725,-266.6475,164.78
967,259456,-0.365268,1.505724,-1.440332,293.1075,-304.71,139.4225
968,259554,-0.305732,1.447652,-1.01504,281.5925,-343.665,113.33
969,259652,-0.320372,1.37494,-0.511424,257.6875,-370.9125,88.53251
970,259750,-0.24156,1.460828,-0.40577199999999997,215.5825,-377.79,62.5625
971,259848,-0.042944,1.6814040000000001,-0.677588,170.2925,-369.0925,35.2975
972,259946,0.343308,2.049356,-1.207068,137.9525,-365.12,5.5475
973,260045,0.610488,2.367044,-1.6030799999999998,131.3025,-378.49,-25.4975
974,260143,0.797148,2.4939240000000003,-1.640412,146.3875,-402.3775,-58.8175
975,260241,0.964776,2.389736,-1.512068,166.0575,-421.6625,-91.21
976,260339,1.1041,2.261148,-1.414712,170.7475,-434.1575,-119.8575
977,260437,1.4210559999999999,2.288232,-1.548424,156.205,-443.5025,-144.06
978,260536,1.690432,2.473184,-1.4720520000000001,135.8875,-454.5975,-171.3075
979,260634,1.812432,2.6171439999999997,-1.4278879999999998,120.7325,-463.89,-200.83
980,260732,1.950048,2.805756,-1.396656,113.0325,-460.775,-234.0275
981,260830,2.176968,2.957036,-1.453264,111.3,-444.745,-269.7275
982,260928,2.503196,3.1339360000000003,-1.540616,114.4325,-420.8575,-304.045
983,261026,2.879444,3.344264,-1.636264,121.065,-394.2925,-333.55
984,261125,3.2727720000000002,3.5963160000000003,-1.688968,127.645,-367.57,-360.8325
985,261223,3.7024559999999997,3.609492,-1.512312,139.7725,-341.5475,-386.6625
986,261321,4.07602,3.066348,-1.102392,142.6775,-312.3925,-406.735
987,261419,4.510096,2.76574,-0.557052,117.7575,-288.5575,-424.6025
988,261517,4.803383999999999,2.4260919999999997,0.143228,89.495,-254.415,-418.2325
989,261615,4.83486,1.980548,1.010892,64.9075,-217.9975,-384.65
990,261714,4.585736,1.149728,2.038864,39.515,-177.59,-329.1575
991,261812,4.258776,1.162416,2.611776,6.1075,-122.57,-288.3125
992,261910,4.558896,1.474248,2.032764,-1.6625,-77.595,-239.575
993,262008,5.159868,1.2761200000000001,1.801452,51.1875,9.7475,-169.3825
994,262106,5.197444,0.48922,2.406084,103.8275,88.51501,-113.19
995,262204,3.981348,-0.337452,2.869928,82.1275,103.74,-77.28
996,262303,0.100284,-1.61406,0.665876,-55.1425,82.6875,0.035
997,262401,0.743468,-2.664968,-3.1778560000000002,-172.48,162.435,-30.1525
998,262499,-1.961516,-6.604836,-0.8193521,-213.955,182.385,53.6375
999,262597,-3.0624439999999997,-3.341824,3.7170959999999997,-393.96,321.7375,212.1175
1000,262695,6.697556,4.51034,-2.328248,-501.6375,495.0575,-118.895
1001,262793,2.976312,3.854224,-2.0364240000000002,-360.7275,507.85,-75.985
1002,262892,1.939312,7.990512,-7.990512,-208.285,99.19001,79.8525
1003,262990,4.923188,-0.459208,0.24790399999999999,237.23,356.9825,130.0075
1004,263088,0.6956439999999999,-0.9098761000000001,0.64782,53.2525,264.67,128.7125
1005,263186,0.007564001,1.1094680000000001,-2.695712,74.5325,-429.73,8.4525
1006,263284,-0.027816000000000004,0.285968,-0.16909200000000002,85.47,-48.8775,54.355
1007,263383,0.6414761,0.23668000000000003,-1.231956,14.6475,45.2725,7.5425
1008,263481,0.384788,0.451888,-0.8342360000000001,39.2525,-22.155,29.575
1009,263579,0.330376,0.11541199999999999,-0.9330560999999999,20.6325,19.7225,16.5725
1010,263677,0.398208,0.321104,-0.9325680000000001,20.0375,7.665,16.31
1011,263775,0.30548800000000004,0.2745,-0.9372040999999999,17.08,9.0825,13.3
1012,263873,0.30792800000000004,0.234972,-0.9301280000000001,16.555,8.925,12.81
1013,263972,0.340136,0.191052,-0.942084,15.9425,10.6925,11.34
1014,264070,0.405528,0.126148,-0.9557479999999999,12.8275,10.7975,10.1325
1015,264168,0.35892399999999997,0.211548,-0.912316,7.945,9.38,6.5625
1016,264266,0.336476,0.20837600000000003,-0.927688,5.355,7.875,4.9
1017,264364,0.35477600000000004,0.207156,-0.9174399999999999,3.6575,8.5225,5.005
1018,264462,0.34111199999999997,0.207644,-0.9391560999999999,1.015,9.0825,5.775
1019,264561,0.354044,0.20788800000000002,-0.9137799999999999,0.2625,9.6075,4.9875
1020,264659,0.3416,0.179096,-0.9079241,-0.7525,8.855,4.8825
1021,264757,0.331596,0.17812,-0.9203680000000001,-2.9225,9.2575,4.83
1022,264855,0.317688,0.17641199999999999,-0.918416,-4.7775,10.6575,3.185
1023,264953,0.301584,0.2135,-0.9403761,-6.755,13.2475,2.5725
1024,265051,0.31451599999999996,0.223504,-0.978684,-7.105,16.205,2.5025
1025,265150,0.423828,0.282308,-0.9079241,-6.2125,20.5275,0.6475
1026,265248,0.33623200000000003,0.15274400000000002,-0.9152440000000001,-7.525,21.0175,3.0975
1027,265346,0.366244,0.161772,-0.9030440000000001,-10.15,30.1875,1.3125
1028,265444,0.363804,0.148596,-0.8601,-14.665,40.215,-4.1125
1029,265542,0.28377199999999997,0.195932,-0.9203680000000001,-24.29,50.855,-4.5675
1030,265641,0.3538,0.145912,-0.8964561,-26.11,66.675,-8.2075
1031,265739,0.32818,0.22204000000000002,-0.892552,-28.5425,79.0125,-8.8025
1032,265837,0.290848,0.19959200000000002,-0.9015799999999999,-33.67,97.79,-10.5875
1033,265935,0.327204,0.256932,-0.882548,-37.17,118.5975,-9.835
1034,266033,0.354288,0.28181999999999996,-0.8918200000000001,-42.56,140.7,-7.5425
1035,266131,0.340624,0.29743600000000003,-0.903532,-48.6675,163.31,-2.73
1036,266230,0.5504641,0.42163199999999995,-1.178032,-51.9575,185.115,3.71
1037,266328,0.488976,0.41016400000000003,-0.9803921,-32.795,192.29,22.2075
1038,266426,0.630984,0.370148,-1.121424,-24.2725,220.465,37.73
1039,266524,0.709064,0.419192,-1.033096,-5.81,245.1925,46.515
1040,266622,0.73078,0.4594521,-1.007232,15.3825,273.56,58.8875
1041,266720,1.071648,0.5980439999999999,-1.06384,23.7825,317.87,70.7875
1042,266819,0.5978,0.7217521,-1.450092,24.64,374.0275,94.16751
1043,266917,0.8047121,0.889136,-2.118408,40.565,420.315,133.7175
1044,267015,0.198372,1.262944,-2.646424,106.715,453.7925,193.8825
1045,267113,0.8813280000000001,0.9389120000000001,-2.2640759999999998,177.2225,457.2925,218.3125
1046,267211,0.315492,1.688968,-1.7267880000000002,178.115,427.6825,205.66
1047,267309,0.5170359999999999,1.9244279999999998,-2.207224,187.4425,390.6525,191.8175
1048,267408,3.370372,2.558828,-0.9494040000000001,215.4775,374.0975,163.24
1049,267506,1.513776,2.3372759999999997,-2.8018520000000002,151.9525,472.29,190.9075
1050,267604,0.30378,4.387852,-0.049776,386.26,117.0225,348.0225
1051,267702,2.80844,4.61648,-6.031192,440.9475,98.42,-1.6275
1052,267800,0.7832399999999999,2.8862759999999996,-1.957856,531.825,54.7925,-146.3525
1053,267898,0.10321199999999998,2.027396,-1.934188,572.3725,-101.6925,-122.5525
1054,267997,0.19276,1.7690000000000001,-1.2526959999999998,570.43,-99.9075,-108.5175
1055,268095,0.015372,1.958832,-1.393972,544.285,-128.52,-79.2575
1056,268193,-0.041724000000000004,2.382416,-1.534516,516.67,-143.8675,-58.415
1057,268291,-0.040504000000000005,2.922632,-1.8317080000000001,501.9875,-169.6625,-49.8225
1058,268389,0.037088,3.3903800000000004,-1.94712,505.19,-203.0525,-54.4775
1059,268488,0.055144000000000006,3.6209599999999997,-1.70556,515.97,-241.9025,-68.3025
1060,268586,0.036844,3.6209599999999997,-1.18096,512.3825,-279.8425,-92.47001
1061,268684,0.030012,3.570696,-0.745664,480.6725,-307.79,-122.395
1062,268782,0.316712,3.651704,-0.654896,423.92,-321.825,-156.4675
1063,268880,0.7117479999999999,3.752964,-0.620492,368.7425,-334.075,-185.29
1064,268978,0.8937719999999999,3.6138839999999997,-0.48385200000000006,328.475,-353.745,-201.18
1065,269077,1.043588,3.6026599999999998,-0.36648800000000004,285.7925,-367.255,-211.6625
1066,269175,1.0767719999999998,3.619008,-0.265228,248.045,-369.8975,-220.64
1067,269273,1.092144,3.5858239999999997,-0.203496,219.135,-365.2775,-228.515
1068,269371,1.149972,3.493592,-0.20788800000000002,192.0275,-352.38,-237.9825
1069,269469,1.166808,3.3977,-0.2318,161.28,-339.675,-255.1675
1070,269567,1.207068,3.2239720000000003,-0.35477600000000004,126.98,-327.3725,-276.3775
1071,269666,1.395192,3.113684,-0.514352,88.09501,-312.48,-302.3475
1072,269764,1.592832,3.0280400000000003,-0.5875520000000001,56.77,-296.0825,-327.4425
1073,269862,1.691164,2.842844,-0.569984,41.755,-277.27,-342.685
1074,269960,1.8451279999999999,2.556632,-0.582916,33.5125,-252.8925,-349.2475
1075,270058,2.05326,2.413404,-0.7019880000000001,20.65,-227.71,-354.095
1076,270156,2.248948,2.440488,-0.9701440999999998,7.2975,-209.8775,-357.805
1077,270255,2.453908,2.492216,-1.253916,3.3425,-200.13,-359.45
1078,270353,2.757444,2.379244,-1.247084,14.0,-193.6375,-359.275
1079,270451,2.9858279999999997,1.602592,-0.774212,32.76,-191.2225,-347.935
1080,270549,2.91946,0.9630681000000001,-0.18104800000000001,28.1225,-186.83,-336.9975
1081,270647,3.249836,0.7439560000000001,-0.05929201,6.3875,-189.7,-331.9575
1082,270745,3.3593919999999997,0.278648,0.319396,11.1825,-159.18,-275.38
1083,270844,3.68684,-0.03172,0.479216,2.8175,-132.86,-223.3525
1084,270942,3.8722800000000004,0.062952,0.34281999999999996,-19.32,-118.195,-177.38
1085,271040,4.087488,0.3843,0.032451999999999995,-26.11,-112.595,-135.1
1086,271138,4.122624,0.668316,0.01708,-7.6125,-113.19,-95.7775
1087,271236,3.9027800000000004,0.655628,0.47043199999999996,27.7725,-115.08,-56.7525
1088,271335,3.5658160000000003,0.612196,0.9791719999999999,52.15,-110.8975,-29.19
1089,271433,2.927268,0.803736,1.44692,59.64,-100.3975,-18.375
1090,271531,3.1229560000000003,1.3481,2.33996,92.33001,-7.9975,-54.7575
1091,271629,3.141012,1.2317120000000001,3.719292,122.045,238.9625,-99.7675
1092,271727,0.18104800000000001,-1.455216,2.186484,61.0925,257.53,-49.21
1093,271825,0.800076,-5.396548,-4.86902,-162.47,17.605,-7.385
1094,271923,5.16426,-0.987956,-7.2597320000000005,-189.9975,248.15,21.945
1095,272022,4.521076,0.9323239999999999,-2.373632,-8.4875,314.5625,23.975
1096,272120,-0.24278000000000002,1.629432,-0.373808,8.7325,-27.125,26.285
1097,272218,-2.918972,2.685464,1.6272360000000001,-11.34,-48.2475,24.64
1098,272316,0.695156,1.112884,-1.913448,67.8825,175.0175,67.2
1099,272414,4.588664,-2.0586279999999997,-3.3140080000000003,58.3625,172.9525,71.5225
1100,272513,-0.772992,0.101504,0.28304,48.6325,26.7925,-12.075
1101,272611,-0.048556,1.159732,-1.49328,18.6025,-89.67,-11.445
1102,272709,0.651968,-0.21520799999999998,-0.826428,25.375,79.625,-8.96
1103,272807,0.027327999999999998,0.17641199999999999,-1.154852,17.43,-40.3375,0.385
1104,272905,0.443104,0.49654,-0.81984,6.86,26.4075,-11.2875
1105,273003,0.20618000000000003,0.15128,-0.9772200999999999,10.955,-10.115,-0.175
1106,273102,0.41016400000000003,0.23911999999999997,-0.958432,5.4425,8.4,-2.9225
1107,273200,0.268888,0.22935999999999998,-0.928176,2.3275,-1.0325,-3.325
1108,273298,0.327448,0.215452,-0.9489161,-0.0875,3.7275,-3.99
1109,273396,0.294996,0.24058400000000002,-0.9301280000000001,-1.6275,2.6775,-4.9875
1110,273494,0.27718400000000004,0.30548800000000004,-0.9042641,-2.765,3.3775,-4.9875
1111,273592,0.255956,0.316956,-0.91012,-3.1325,2.765,-4.9525
1112,273691,0.26766799999999996,0.295484,-0.9167081,-2.9575,2.38,-4.3925
1113,273789,0.260592,0.274012,-0.9118280000000001,-3.115,3.9025,-4.0075
1114,273887,0.24326799999999998,0.252052,-0.9150001,-2.03,3.64,-2.9575
1115,273985,0.22716399999999998,0.254736,-0.8954801,-0.21,5.2675,0.245
1116,274083,0.264008,0.21716,-0.9247601000000001,1.1025,7.7875,3.3425
1117,274182,0.317688,0.183488,-0.9413520000000001,0.315,10.64,4.3925
1118,274280,0.318664,0.216916,-0.9330560999999999,-2.7475,11.9525,3.045
1119,274378,0.317688,0.19251600000000002,-0.928176,-5.005,12.5475,3.675
1120,274476,0.35160399999999997,0.209108,-0.916464,-8.3125,15.505,3.3425
1121,274574,0.35526399999999997,0.214232,-0.9230520000000001,-10.5525,16.205,1.715
1122,274672,0.33305999999999997,0.239852,-0.902068,-11.1475,14.9275,1.575
1123,274771,0.359656,0.24863600000000002,-0.898652,-10.6225,15.155,1.715
1124,274869,0.353068,0.261812,-0.8930401,-9.66,13.44,1.9075
1125,274967,0.3477,0.24717199999999998,-0.895236,-9.31,13.0025,2.2225
1126,275065,0.32696,0.26961999999999997,-0.873764,-10.2375,11.8475,3.78
1127,275163,0.364292,0.260836,-0.90402,-9.905,10.8675,2.4675
1128,275262,0.331352,0.24497600000000003,-0.856684,-9.415,7.91,2.8175
1129,275360,0.382104,0.233996,-0.90646,-9.835,9.17,0.49
1130,275458,0.310612,0.24863600000000002,-0.9179280000000001,-10.5,6.965,-0.735
1131,275556,0.2684,0.26352,-0.9301280000000001,-13.0025,10.885,-0.9275
1132,275654,0.263764,0.262544,-0.9110959999999999,-18.6025,19.075,0.2625
1133,275752,0.289628,0.317932,-0.863516,-28.525,35.35,1.9775
1134,275851,0.27279200000000003,0.264496,-0.8976761000000001,-41.58,54.6875,7.1925
1135,275949,0.264496,0.263276,-0.9225639999999999,-53.515,76.405,13.5625
1136,276047,0.28011199999999997,0.2196,-0.990884,-56.7,96.7575,17.3075
1137,276145,0.251076,0.22204000000000002,-0.989176,-48.825,116.27,19.2675
1138,276243,0.5058121,0.28694400000000003,-1.1916959999999999,-31.4475,132.4575,20.86
1139,276342,0.321592,0.279624,-1.049444,4.2,139.125,34.5275
1140,276440,0.500444,0.367464,-0.9225639999999999,3.8675,175.91,36.6975
1141,276538,0.7673800000000001,0.539484,-0.736392,-36.0325,243.285,48.405
1142,276636,0.489708,0.259372,-1.005524,-97.6325,345.5375,68.2675
1143,276734,0.762744,0.452132,-1.250256,-109.7775,443.1,69.7725
1144,276832,0.48726800000000003,0.4941,-1.304424,-104.1775,515.1125,87.2375
1145,276930,0.788852,0.578036,-1.699948,-91.035,556.57,124.4425
1146,277029,0.6326921,0.463844,-1.770952,-68.46,573.1425,141.2775
1147,277127,1.375916,0.9852719999999999,-2.0413040000000002,-102.2875,573.405,142.765
1148,277225,2.055212,0.762012,-2.3807080000000003,-162.75,573.3875,164.43
1149,277323,2.405352,0.998448,-2.326784,-208.6875,547.6275,149.38
1150,277421,0.913536,0.9764879999999999,-2.706448,-241.535,415.065,154.6125
1151,277520,-0.285724,0.394548,-2.6388599999999998,-270.13,258.405,138.8975
1152,277618,-0.043188,0.31964000000000004,-1.208288,-264.1625,191.4325,40.2675
1153,277716,5.192808,3.394772,-4.866092,-261.7825,258.9125,-109.13
1154,277814,1.278804,5.071052,-5.608828,-179.655,142.2225,64.645
1155,277912,-0.044407999999999996,3.9684160000000004,-6.1793,-10.92,1.7675,54.39
1156,278010,-0.815936,2.702788,-4.08212,123.725,-132.2125,-44.1175
1157,278109,-1.37616,1.196332,-2.2631,229.7575,-185.1325,-91.455
1158,278207,-1.120692,0.371612,-1.53964,247.9225,-202.9125,-110.705
1159,278305,-0.673928,0.119804,-1.5081639999999998,206.465,-219.5375,-118.37
1160,278403,-0.180316,0.271328,-1.7638759999999998,144.5675,-251.3175,-122.08
1161,278501,0.09613601,0.543876,-1.8712360000000001,101.535,-297.43,-124.39
1162,278599,0.205448,0.7766521,-1.784372,94.67501,-342.4925,-121.135
1163,278698,0.345748,0.863516,-1.5664799999999999,117.5825,-371.4375,-110.95
1164,278796,0.48531599999999997,0.798124,-1.336388,148.505,-388.605,-96.5125
1165,278894,0.658556,0.711016,-1.131428,164.9725,-402.535,-83.86001
1166,278992,0.79422,0.650748,-0.9972281,157.6925,-415.485,-75.915
1167,279090,0.8788879999999999,0.6558721,-0.9525761,133.665,-426.65,-73.605
1168,279188,0.9679481,0.6902761,-0.9103641,105.0,-432.6525,-75.88
1169,279287,0.9501360999999999,0.7978801,-0.921344,79.8,-433.3875,-77.5775
1170,279385,0.9774639999999999,0.9572120999999999,-1.023824,65.29251,-425.7225,-74.11251
1171,279483,1.081164,1.095316,-1.158024,62.4225,-412.545,-69.0725
1172,279581,1.161196,1.1385040000000002,-1.2749,62.6325,-399.945,-66.7275
1173,279679,1.232688,1.128012,-1.299544,57.75,-389.06,-67.9175
1174,279777,1.334192,1.1660760000000001,-1.288808,45.6925,-376.39,-70.07
1175,279876,1.500356,1.242204,-1.238056,29.47,-360.4825,-68.6
1176,279974,1.6145479999999999,1.081164,-1.037976,8.3475,-341.7575,-68.145
1177,280072,1.6548080000000003,1.136796,-1.01138,-26.635,-319.1825,-78.7325
1178,280170,1.934432,1.277096,-1.1770559999999999,-57.6275,-289.975,-90.755
1179,280268,2.4146240000000003,1.480592,-1.481568,-72.555,-259.525,-100.66
1180,280366,2.928,1.560136,-1.6438279999999998,-67.3575,-239.4,-110.8625
1181,280465,3.47456,1.4435040000000001,-1.645048,-51.03,-233.94,-121.4675
1182,280563,3.897412,1.120692,-1.41398,-31.955,-242.165,-133.1225
1183,280661,4.164104,0.7017439999999999,-0.965752,-20.5625,-255.885,-143.325
1184,280759,4.314408,0.4514,-0.37088000000000004,-14.6475,-262.1325,-144.4625
1185,280857,4.364184,0.34892,0.350628,-7.49,-245.7,-137.585
1186,280955,4.158004,0.232044,1.125328,6.72,-209.9125,-120.12
1187,281054,3.872036,0.021228,1.6677400000000002,12.775,-166.075,-95.8825
1188,281152,3.80396,-0.067344,1.81414,1.2075,-112.315,-75.775
1189,281250,3.7944440000000004,0.118584,1.57136,-25.165,-64.96,-67.13
1190,281348,3.6163239999999996,0.355508,1.254648,-46.1825,-25.165,-69.86
1191,281446,3.3664680000000002,0.430904,0.955016,-44.8,19.425,-77.5775
1192,281544,3.255936,0.42431599999999997,0.476288,-27.02,66.64,-83.94751
1193,281643,0.373076,0.693692,-0.35697199999999996,1.5225,102.76,-84.4025
1194,281741,0.111996,0.75274,-2.7486599999999997,150.57,238.2625,-82.7925
1195,281839,-1.676768,-1.9646880000000002,-2.723284,180.1275,263.6025,-62.4575
1196,281937,-2.082784,-1.9129599999999998,0.47555600000000003,95.9525,153.4225,-41.1425
1197,282035,-2.98656,-4.70066,3.7222199999999996,119.315,276.43,100.2575
1198,282134,5.7898760000000005,-0.327448,-4.45178,-75.53,438.7425,168.315
1199,282232,4.872192,0.332816,-4.28342,-98.0525,311.5875,37.8
1200,282330,1.4010479999999998,-0.153476,-1.938824,-30.8,183.8725,58.38
1201,282428,0.8781559999999999,0.73078,-1.986404,-68.39,185.85,54.915
1202,282526,0.753228,1.518168,-1.6674959999999999,-79.9575,152.25,26.39
1203,282624,0.8693719999999999,1.892952,-1.8121880000000001,-43.8025,123.865,17.29
1204,282723,1.098976,1.096536,-1.519388,9.345,95.4975,14.7175
1205,282821,0.5777920999999999,-0.06880801,-1.2080440000000001,30.3275,62.1425,19.2325
1206,282919,0.34038,0.174948,-1.0626200000000001,24.57,52.885,11.865
1207,283017,0.233996,0.7922680000000001,-0.9977159999999999,30.9925,49.385,7.35
1208,283115,0.484584,0.424804,-1.05408,39.62,34.545,11.445
1209,283213,0.425048,-0.08442401,-1.101904,36.6975,18.62,13.72
1210,283312,0.158112,0.108824,-0.9530641,25.375,15.8375,8.05
1211,283410,0.22326,0.369904,-0.9103641,14.175,20.0375,5.915
1212,283508,0.44383599999999995,0.21057199999999998,-1.081408,1.8375,18.41,4.13
1213,283606,0.310368,0.1464,-0.981612,-5.95,11.7775,1.54
1214,283704,0.208864,0.320128,-0.888648,-9.0825,11.7775,-2.24
1215,283802,0.315004,0.37576,-0.9137799999999999,-9.38,15.05,-2.6425
1216,283901,0.29646,0.34257600000000005,-0.9084121,-7.6125,14.7,-0.245
1217,283999,0.231312,0.48678,-0.812032,-1.4175,14.98,1.5225
1218,284097,0.267424,0.398452,-0.849608,5.3025,16.45,6.7725
1219,284195,0.343064,0.28181999999999996,-0.9340321,7.21,16.3275,9.835
1220,284293,0.32574000000000003,0.263276,-0.9254921,7.5075,15.1375,9.7125
1221,284392,0.32086,0.269376,-0.9140241,6.615,14.5075,8.33
1222,284490,0.304512,0.29792399999999997,-0.90036,5.3025,14.28,7.2275
1223,284588,0.289628,0.312076,-0.898408,5.88,14.3325,6.335
1224,284686,0.274256,0.316712,-0.8796200000000001,5.88,14.21,7.5075
1225,284784,0.2623,0.310368,-0.9228081,4.41,14.665,10.675
1226,284882,0.23009200000000002,0.34038,-0.8840120000000001,5.3025,15.4,13.3875
1227,284981,0.22716399999999998,0.346236,-0.86498,5.3375,16.2225,20.1075
1228,285079,0.3172,0.327692,-0.8652241,3.3775,20.7725,23.2225
1229,285177,0.331352,0.3111,-0.9174399999999999,0.5425,22.3125,25.69
1230,285275,0.380152,0.292068,-0.8461921,-1.68,21.7875,25.865
1231,285373,0.45896400000000004,0.3477,-0.874252,-8.3475,25.0775,24.29
1232,285471,0.393084,0.197152,-0.86498,-10.2375,27.5975,19.6875
1233,285570,0.33305999999999997,0.256444,-0.9030440000000001,-18.6025,34.1775,13.65
1234,285668,0.32696,0.28767600000000004,-0.879376,-26.7225,42.77,12.74
1235,285766,0.320372,0.287432,-0.885964,-35.7,56.9275,15.26
1236,285864,0.255712,0.25498000000000004,-0.9581881,-44.66,71.2775,20.405
1237,285962,0.249612,0.24278000000000002,-0.9738041,-45.71,91.1225,20.195
1238,286060,0.348188,0.256688,-0.9840521000000001,-39.97,109.9875,18.13
1239,286159,0.5233800000000001,0.323788,-1.116056,-17.9375,122.8675,22.2775
1240,286257,0.373076,0.18422,-1.053836,8.33,131.285,35.9625
1241,286355,0.6095119999999999,0.332816,-0.913536,4.97,161.9975,36.015
1242,286453,0.53192,0.23228800000000002,-0.8322841000000001,-13.7725,208.0225,42.105
1243,286551,0.9711200999999999,0.7415161,-1.21024,-60.1125,276.43,49.665
1244,286649,0.6600201,0.522404,-0.789828,-89.67,372.365,79.8525
1245,286748,-0.08174001,-0.212524,-0.836676,-130.0775,387.66,122.08
1246,286846,-0.189832,0.08881599,-0.9167081,-169.155,488.81,94.395
1247,286944,0.8796200000000001,0.250832,-1.747528,-209.72,569.9749,52.85
1248,287042,1.230004,0.5875520000000001,-1.967128,-210.63,573.405,16.3275
1249,287140,1.8934400000000002,0.5441199999999999,-2.342156,-240.3275,573.3875,5.215
1250,287238,3.345972,0.8849879999999999,-2.114992,-305.3925,571.83,-14.5425
1251,287337,1.801696,0.7044279999999999,-3.200792,-349.8425,494.5675,-10.6575
1252,287435,0.450424,0.193004,-2.971676,-320.4425,357.8225,-2.415
1253,287533,-0.228384,0.989908,-2.675216,-295.505,270.7075,-36.2075
1254,287631,1.987868,-1.068476,-3.7837080000000003,-409.6225,314.72,-183.9425
1255,287729,5.135712,5.65958,-4.020632,-398.8425,173.7925,-132.965
1256,287827,0.292312,2.9977840000000002,-7.246312,-161.28,65.275,119.315
1257,287926,0.11614400000000001,3.3218160000000005,-5.995812,-50.295,-69.1425,108.08
1258,288024,-0.562664,1.8243880000000001,-4.134580000000001,148.4525,-185.8325,61.39
1259,288122,-0.8893800999999999,0.659044,-2.417552,266.8225,-243.705,40.8625
1260,288220,-0.7929999999999999,0.18324400000000002,-1.683844,270.725,-276.7625,29.3825
1261,288318,-0.462868,0.194468,-1.512556,226.1525,-304.535,20.8425
1262,288416,-0.125172,0.39284,-1.51768,181.4225,-334.1275,15.4875
1263,288515,0.125904,0.628788,-1.50304,158.2175,-368.1475,12.285
1264,288613,0.351116,0.7707961,-1.3886040000000002,158.8825,-399.28,13.3525
1265,288711,0.5131319999999999,0.767868,-1.15168,172.8125,-421.8375,18.7075
1266,288809,0.567788,0.64904,-0.786656,182.525,-436.625,25.4975
1267,288907,0.5043479999999999,0.520452,-0.49605200000000005,174.93,-443.45,32.515
1268,289005,0.533872,0.596092,-0.49702799999999997,147.8575,-439.915,36.5575
1269,289104,0.679784,0.77104,-0.666852,115.9025,-430.5,36.645
1270,289202,0.8457040000000001,0.9628241,-0.969412,89.39,-423.71,34.2125
1271,289300,0.9864921,1.131428,-1.2160959999999998,70.4725,-423.7625,28.3325
1272,289398,1.054324,1.2841719999999999,-1.390556,56.315,-430.0625,18.48
1273,289496,1.1509479999999999,1.386652,-1.5079200000000001,43.855,-436.38,3.2725
1274,289594,1.242448,1.4335,-1.545496,29.9075,-439.2675,-18.76
1275,289693,1.4191040000000001,1.501088,-1.561844,12.6,-437.1325,-45.08
1276,289791,1.646268,1.624796,-1.549156,-5.7575,-430.115,-71.99501
1277,289889,1.820728,1.7036080000000002,-1.4905959999999998,-21.035,-416.9025,-97.9825
1278,289987,1.998116,1.538664,-1.3085719999999998,-33.53,-397.3025,-126.5425
1279,290085,2.127436,1.633092,-1.52988,-54.215,-374.815,-166.04
1280,290183,2.643008,1.740452,-1.8282919999999998,-57.3475,-347.06,-201.9675
1281,290282,3.212992,1.6433400000000002,-1.9529759999999998,-35.1225,-322.6825,-214.4625
1282,290380,3.7024559999999997,1.2500120000000001,-1.80194,-12.0575,-308.595,-221.795
1283,290478,4.1326279999999995,1.015528,-1.4337440000000001,-7.49,-305.0775,-232.6275
1284,290576,4.439336,0.918416,-0.791292,-5.7225,-297.92,-238.595
1285,290674,4.519368,0.771528,0.16592,8.295,-270.27,-225.9075
1286,290773,4.361744,0.472872,1.212436,26.7925,-222.39,-190.3475
1287,290871,4.04186,0.308172,1.843908,28.2975,-165.41,-142.2575
1288,290969,4.068455999999999,0.273524,1.809748,8.2425,-111.0375,-102.97
1289,291067,4.308552,0.416264,1.6609080000000003,-17.43,-53.55,-78.1375
1290,291165,4.1968,0.613904,1.569896,-36.365,-10.71,-69.825
1291,291263,3.755892,0.5980439999999999,1.307596,-40.67,25.5675,-70.0875
1292,291362,3.4796839999999998,0.542168,0.9821,-29.96,81.0775,-68.1975
1293,291460,2.066924,0.598532,0.44676400000000005,-18.0775,132.0025,-54.32
1294,291558,-0.450912,0.352092,-3.7085559999999997,30.6775,213.255,-38.15
1295,291656,-0.518988,-0.60024,-2.381684,72.03,318.99,-56.8925
1296,291754,-1.766072,-1.3237,-1.795596,22.1375,163.8,-36.1025
1297,291852,-1.95078,-3.4711440000000002,2.722064,39.1125,215.1275,17.9025
1298,291951,0.676856,-1.797548,0.81984,-15.61,370.3875,142.135
1299,292049,7.960012,0.8805960999999999,-7.0740490000000005,-241.7975,400.05,-0.5075
1300,292147,2.173064,0.300852,-2.548336,-57.3475,197.5575,61.32
1301,292245,0.5946279999999999,0.907436,-1.660664,-56.35,176.0325,74.2175
1302,292343,0.344528,2.315316,-1.3978760000000001,-79.4325,164.465,39.4625
1303,292441,0.536556,2.142076,-1.407636,-40.25,144.8825,9.275
1304,292540,1.1995040000000001,0.930372,-1.8170680000000001,22.855,128.1175,25.025
1305,292638,0.892308,-0.179584,-1.40178,60.0775,90.93,38.185
1306,292736,0.5946279999999999,0.167872,-1.410076,42.1575,72.5025,20.5625
1307,292834,0.1586,0.750544,-0.96014,43.3125,57.9075,9.205
1308,292932,0.17324,0.38795999999999997,-0.8759601,57.75,40.705,20.09
1309,293030,0.66246,-0.08052000000000001,-1.32736,51.38,37.38,21.0875
1310,293129,0.355752,0.068076,-1.039196,35.0525,26.04,10.2025
1311,293227,0.254736,0.274256,-0.9113399999999999,23.135,18.3925,1.2775
1312,293325,0.35526399999999997,0.133224,-1.012844,14.5425,17.0275,1.085
1313,293423,0.369904,0.189832,-0.969412,6.3175,14.5075,-2.73
1314,293521,0.299632,0.208132,-0.9379360000000001,0.5425,10.6925,-4.2
1315,293619,0.294508,0.24888000000000002,-0.9525761,-2.24,9.73,-4.6375
1316,293718,0.304268,0.38356799999999996,-0.9274440999999999,-1.0325,9.8525,-4.76
1317,293816,0.28938400000000003,0.37088000000000004,-0.9145120999999999,2.03,8.645,-2.905
1318,293914,0.256688,0.353068,-0.8876719999999999,4.375,7.9625,-0.6475
1319,294012,0.260348,0.327692,-0.89426,6.72,7.56,-0.105
1320,294110,0.274744,0.273524,-0.9110959999999999,8.1375,6.195,3.6575
1321,294208,0.255712,0.233752,-0.9206120000000001,8.5225,3.535,7.8925
1322,294307,0.323544,0.205204,-0.9406200000000001,8.6275,3.7625,8.9075
1323,294405,0.349896,0.22277199999999997,-0.930372,7.63,3.92,7.6825
1324,294503,0.33916,0.251808,-0.9140241,6.825,2.6425,5.9675
1325,294601,0.306464,0.26596,-0.919392,4.97,2.7825,5.5825
1326,294699,0.25986,0.256444,-0.9032879999999999,3.605,2.5725,6.7725
1327,294797,0.281088,0.252052,-0.912316,3.0275,2.9575,9.9925
1328,294896,0.238632,0.275476,-0.9015799999999999,2.415,3.4125,11.8825
1329,294994,0.213988,0.299388,-0.8954801,3.64,4.9,15.085
1330,295092,0.310612,0.28621199999999997,-0.89792,3.2725,8.2775,18.9525
1331,295190,0.361608,0.28987199999999996,-0.897432,0.6475,10.5175,19.8275
1332,295288,0.366,0.282796,-0.9315921,-3.0275,12.285,18.83
1333,295386,0.365512,0.28328400000000004,-0.9206120000000001,-9.6425,13.51,17.71
1334,295485,0.304268,0.25498000000000004,-0.9110959999999999,-19.215,16.0475,17.885
1335,295583,0.28548,0.167628,-0.9120720999999999,-25.235,25.4275,15.4175
1336,295681,0.316956,0.21057199999999998,-0.9235399999999999,-37.2925,43.0675,11.725
1337,295779,0.273036,0.251564,-0.9152440000000001,-49.385,61.6,13.09
1338,295877,0.183732,0.215696,-0.96014,-60.6375,80.85,16.45
1339,295975,0.220088,0.186172,-1.008208,-68.6175,103.88,16.975
1340,296074,0.31012399999999996,0.22667600000000002,-0.992592,-62.7375,131.075,18.1825
1341,296172,0.52704,0.30475599999999997,-1.3266280000000001,-46.2175,155.8375,27.2125
1342,296270,0.431148,0.274012,-1.0377319999999999,-7.8225,162.0325,46.6025
1343,296368,0.546072,0.286456,-0.9079241,-25.725,207.34,50.9775
1344,296466,0.64294,0.32086,-0.904752,-62.3875,287.7875,52.22
1345,296564,0.71736,0.5343600000000001,-1.1733959999999999,-109.8475,377.755,47.18
1346,296663,0.29036,0.727364,-0.787876,-136.6925,449.1725,71.96
1347,296761,-0.08857201,-0.044652,-0.9557479999999999,-164.7625,517.1599,127.54
1348,296859,1.0279719999999999,0.02928,-1.8824599999999998,-200.4975,569.3275,108.36
1349,296957,0.590236,0.6822239999999999,-1.9829880000000002,-202.4225,573.405,64.6275
1350,297055,2.396568,0.7600600000000001,-2.767204,-241.22,573.405,65.975
1351,297154,3.279604,1.12484,-2.1408560000000003,-296.17,569.6599,47.355
1352,297252,1.516704,0.7476161,-3.172732,-346.9725,489.72,58.4675
1353,297350,0.174704,0.277916,-2.9270240000000003,-326.095,332.15,60.305
1354,297448,-0.20496,0.756888,-2.454152,-323.61,233.275,25.0075
1355,297546,3.84544,-1.428132,-6.396948,-393.3475,281.365,-74.27
1356,297644,6.116836,6.284952,-4.474228,-345.135,156.7125,-37.9225
1357,297743,-0.160308,3.189568,-6.950096,-172.0075,44.5375,149.065
1358,297841,-0.05563200000000001,3.221288,-5.4016720000000005,-47.7925,-112.8575,107.2225
1359,297939,-1.103124,1.699704,-3.264232,131.7225,-213.2375,59.6925
1360,298037,-1.291492,0.7556681,-1.891732,210.5775,-252.105,31.15
1361,298135,-1.021872,0.363072,-1.443992,204.2075,-270.445,9.1525
1362,298233,-0.624396,0.37454,-1.4125159999999999,160.79,-292.4775,-7.105
1363,298332,-0.261812,0.5777920999999999,-1.489132,114.0475,-325.7275,-23.065
1364,298430,-0.012931999999999999,0.7820199999999999,-1.45546,89.5125,-365.155,-38.5875
1365,298528,0.125904,0.8549761,-1.250744,92.8025,-397.1975,-48.16
1366,298626,0.227408,0.808372,-0.9852719999999999,111.5975,-414.4525,-50.435
1367,298724,0.35502,0.731024,-0.815692,125.895,-420.175,-49.0175
1368,298823,0.516792,0.666852,-0.762012,126.665,-420.6475,-49.175
1369,298921,0.635864,0.619272,-0.780556,114.0125,-420.7,-53.41
1370,299019,0.790072,0.59536,-0.812276,91.0525,-422.4325,-60.935
1371,299117,0.888648,0.6649,-0.8842561,62.9125,-425.25,-70.2975
1372,299215,0.868884,0.846924,-1.049444,40.8625,-425.0575,-76.3875
1373,299313,0.9476959999999999,1.05164,-1.29808,32.305,-418.32,-79.7125
1374,299412,1.056032,1.1794959999999999,-1.523536,34.1775,-409.57,-87.2375
1375,299510,1.2195120000000002,1.211216,-1.6272360000000001,35.5775,-402.465,-100.7475
1376,299608,1.430084,1.249036,-1.672864,29.715,-396.5675,-117.81
1377,299706,1.6628599999999998,1.3163799999999999,-1.725812,18.305,-389.865,-132.5625
1378,299805,1.8648919999999998,1.323212,-1.7345959999999998,7.035,-381.885,-143.185
1379,299903,2.050088,1.250256,-1.8648919999999998,-5.4075,-374.5175,-155.3125
1380,300001,2.353136,1.238788,-2.0618,-17.4125,-368.9525,-168.3325
1381,300099,2.724992,1.142408,-2.157936,-21.0,-366.5375,-172.935
1382,300197,3.00608,0.9757561,-2.013732,-21.805,-368.2175,-173.0575
1383,300295,3.166632,0.8132520999999999,-1.748504,-25.445,-368.76,-172.9175
1384,300393,3.328404,0.8723001,-1.4600959999999998,-28.2275,-359.625,-173.4425
1385,300492,3.5177480000000005,0.9799041,-1.033584,-16.3275,-334.81,-169.2075
1386,300590,3.710264,0.886452,-0.31402800000000003,13.16,-293.3,-154.7
1387,300688,3.818112,0.615124,0.524112,40.18,-241.535,-129.5175
1388,300786,3.8273839999999995,0.40504,1.249036,43.82,-187.6525,-98.945
1389,300884,3.8244559999999996,0.29133600000000004,1.5616,21.2625,-135.555,-70.455
1390,300983,4.074312,0.406992,1.447652,-13.7375,-85.5925,-49.84
1391,301081,4.134092,0.793976,1.22122,-39.235,-46.2,-44.205
1392,301179,3.8081080000000003,0.9057280999999999,1.162172,-25.8475,-5.985,-41.965
1393,301277,3.46236,0.6836880999999999,1.044076,7.91,46.3925,-40.25
1394,301375,3.227632,0.434076,0.653188,28.6125,97.45749,-46.8825
1395,301473,-0.040504000000000005,-0.0793,-0.544852,44.135,133.805,-47.1625
1396,301572,-0.277672,-0.812032,-2.671068,128.4325,255.745,-42.0875
1397,301670,-2.0234919999999996,-2.2823759999999997,-1.827804,117.39,273.98,-52.325
1398,301768,-2.99998,-1.574776,0.9779521000000001,66.36,175.6125,-4.27
1399,301866,-2.0813200000000003,-3.8905800000000004,3.219092,26.11,307.7025,129.22
1400,301964,7.132852000000001,0.334036,-4.741164,-137.865,465.885,167.79
1401,302062,4.166544,0.17836400000000002,-4.096028,-127.5925,340.2175,73.395
1402,302161,1.8412240000000002,0.061975999999999996,-2.4043759999999996,-71.85501,242.725,83.52750999999999
1403,302259,0.8176439999999999,1.519876,-2.173064,-95.26999,210.245,79.205
1404,302357,0.699548,2.215764,-1.856352,-86.3975,174.9125,42.9275
1405,302455,0.701012,2.026664,-1.622844,-33.46,147.175,21.35
1406,302553,1.042856,0.790804,-1.3290680000000001,21.8575,129.8675,14.3675
1407,302651,0.472628,-0.329644,-1.269776,46.97,98.82251,29.47
1408,302750,0.160308,0.447496,-0.8954801,42.35,90.265,26.565
1409,302848,0.504836,0.7324881,-1.199016,52.3425,89.4075,25.3925
1410,302946,1.17242,-0.042456,-1.63968,36.4875,60.06,16.905
1411,303044,0.135664,0.19959200000000002,-0.9669721,34.055,27.9125,6.86
1412,303142,0.323544,0.293044,-0.965752,18.6375,25.235,-0.735
1413,303240,0.44676400000000005,0.14396,-1.0767719999999998,8.855,19.425,-1.1375
1414,303339,0.395524,0.20984,-1.025044,-2.555,15.505,-5.32
1415,303437,0.342332,0.266448,-0.989664,-13.265,12.95,-8.96
1416,303535,0.31451599999999996,0.351116,-0.9408639999999999,-17.675,11.13,-8.225
1417,303633,0.330864,0.361852,-0.9330560999999999,-19.7225,10.6575,-7.1925
1418,303731,0.315736,0.403088,-0.8888921000000001,-18.585,9.6075,-4.8125
1419,303829,0.302072,0.395036,-0.8486319999999999,-15.225,9.205,-1.5225
1420,303928,0.305732,0.365268,-0.8596120999999999,-11.3225,8.89,1.26
1421,304026,0.30792800000000004,0.351116,-0.858392,-7.0175,8.89,2.3625
1422,304124,0.29036,0.322324,-0.879864,-4.0425,9.1,3.1675
1423,304222,0.28011199999999997,0.32086,-0.8881600000000001,-2.275,9.8175,4.5675
1424,304320,0.339892,0.32208000000000003,-0.86864,-1.1375,10.6575,5.355
1425,304418,0.365512,0.288896,-0.901336,-0.7525,10.15,4.8125
1426,304517,0.319152,0.309392,-0.86864,0.2975,10.045,3.43
1427,304615,0.288408,0.325496,-0.8698601,1.225,9.6425,4.0425
1428,304713,0.23741199999999998,0.3477,-0.8439959999999999,3.8325,9.87,6.3875
1429,304811,0.190076,0.354288,-0.8439959999999999,7.5775,11.865,11.4975
1430,304909,0.191052,0.353068,-0.8332601000000001,11.06,13.6675,18.7775
1431,305008,0.12444000000000001,0.360632,-0.7673800000000001,14.77,15.365,28.6125
1432,305106,0.3843,0.189832,-1.079944,20.51,25.7775,37.7475
1433,305204,0.34257600000000005,0.34428400000000003,-0.8525360000000001,15.2425,26.7225,41.51
1434,305302,0.39405999999999997,0.274744,-0.8615640999999999,14.175,25.8825,42.3675
1435,305400,0.528016,0.331352,-0.838628,6.3525,31.6225,39.445
1436,305498,0.482388,0.24717199999999998,-0.9589200999999999,-1.855,37.52,32.0775
1437,305596,0.41723999999999994,0.172264,-0.9450120000000001,-7.63,39.235,25.865
1438,305695,0.43505200000000005,0.2013,-0.968924,-16.9925,45.01,19.0575
1439,305793,0.30548800000000004,0.20642399999999997,-0.892064,-22.715,51.7825,14.56
1440,305891,0.252784,0.244,-0.9455,-37.1175,69.475,12.0925
1441,305989,0.321348,0.251564,-0.9557479999999999,-49.105,89.9675,10.5
1442,306087,0.46945600000000004,0.262544,-1.103612,-52.2725,110.9675,15.47
1443,306186,0.482388,0.272548,-1.067744,-30.065,122.3775,27.615
1444,306284,0.42700000000000005,0.190808,-1.020408,-12.81,139.055,42.315
1445,306382,0.6329359999999999,0.341356,-0.8332601000000001,-23.1525,172.8825,42.9275
1446,306480,0.444568,0.111996,-1.03578,-61.1275,230.055,45.9725
1447,306578,0.8086161000000001,0.5694961,-1.078236,-82.0575,296.905,42.1225
1448,306677,0.6156119999999999,0.542168,-0.955016,-107.2925,363.65,58.8525
1449,306775,0.056852,0.17397200000000002,-0.76494,-131.5125,408.345,100.17
1450,306873,0.579012,0.07686,-1.313208,-172.235,506.7825,98.9275
1451,306971,1.244888,0.282552,-1.6653,-189.7875,571.655,56.455
1452,307069,0.81374,0.320372,-1.948584,-199.43,573.405,34.0025
1453,307167,1.2251239999999999,0.58072,-1.900516,-236.8275,573.405,18.795
1454,307266,3.160532,1.0723799999999999,-1.946632,-294.4725,568.015,-8.785
1455,307364,1.484008,0.63318,-2.21064,-327.32,480.655,-8.785
1456,307462,0.556808,0.35258,-3.088552,-326.5325,331.765,-2.3275
1457,307560,-0.085888,0.74542,-3.130032,-302.085,248.6575,-15.96
1458,307658,1.414224,0.544852,-0.9796600000000001,-301.3325,212.135,-57.085
1459,307756,5.0939879999999995,4.229984,-4.680651999999999,-381.7975,225.9075,-142.9925
1460,307855,1.619184,3.643652,-6.195892,-183.8025,83.93001,92.62751
1461,307953,0.18251199999999998,3.2164080000000004,-6.296176,-45.3075,-16.205,127.715
1462,308051,-0.239364,2.2526080000000004,-4.504484,124.215,-152.46,72.5375
1463,308149,-0.8486319999999999,1.007232,-2.612264,260.26,-223.6675,46.8125
1464,308247,-0.883524,0.351848,-1.7155639999999999,284.235,-259.56,31.92
1465,308345,-0.70394,0.169824,-1.35664,248.5525,-283.955,23.73
1466,308444,-0.35258,0.24790399999999999,-1.33712,195.58,-307.895,19.18
1467,308542,-0.024888,0.47384799999999994,-1.4374040000000001,150.255,-339.3075,14.07
1468,308640,0.22862800000000003,0.6985720999999999,-1.4593639999999999,126.315,-375.6375,9.66
1469,308738,0.44164,0.7929999999999999,-1.368352,124.145,-407.8375,7.5425
1470,308836,0.60146,0.809836,-1.206092,131.005,-433.405,7.07
1471,308934,0.6688041,0.7954399999999999,-0.975512,135.7825,-452.27,7.6475
1472,309033,0.6810039999999999,0.801784,-0.792024,132.4225,-462.455,8.4
1473,309131,0.714432,0.815936,-0.687348,120.4,-462.665,7.0
1474,309229,0.7483479999999999,0.8481440999999998,-0.682712,101.64,-455.49,2.205
1475,309327,0.838628,0.8991401,-0.8405800999999999,78.48751,-445.095,-5.3375
1476,309425,0.9706319999999999,1.024068,-1.080676,55.475,-437.0275,-14.4725
1477,309523,1.053104,1.1834,-1.348588,38.22,-433.4575,-23.6425
1478,309622,1.138016,1.28954,-1.517192,28.0525,-431.655,-34.685
1479,309720,1.23708,1.38714,-1.61894,18.76,-429.24,-51.4325
1480,309818,1.381284,1.441308,-1.6857959999999999,7.665,-422.2925,-74.4975
1481,309916,1.563308,1.5103600000000001,-1.7458200000000001,-7.42,-411.7575,-102.06
1482,310014,1.8465919999999998,1.41276,-1.695068,-23.6425,-398.1425,-132.3525
1483,310112,2.079612,1.3449280000000001,-1.814872,-47.005,-384.0375,-172.3225
1484,310211,2.550776,1.548912,-2.13988,-64.3125,-367.8675,-214.0075
1485,310309,3.156872,1.7219080000000002,-2.360944,-48.8775,-350.5425,-234.5875
1486,310407,3.6290120000000003,1.588684,-2.158912,-9.38,-338.94,-243.355
1487,310505,3.9532879999999997,1.300764,-1.6865279999999998,27.615,-331.9575,-249.27
1488,310603,4.173864,1.0765280000000002,-0.9725841000000001,49.245,-318.4475,-253.61
1489,310701,4.304648,0.9286639999999999,-0.05563200000000001,62.0725,-286.93,-241.3775
1490,310800,4.402004,0.681492,0.9415959999999999,69.1425,-237.09,-204.365
1491,310898,4.297816,0.447984,1.8173119999999998,56.7,-180.8275,-157.7275
1492,310996,4.057964,0.585356,2.08986,18.6025,-133.315,-124.635
1493,311094,3.992572,0.640012,1.9839639999999998,-15.3825,-81.4275,-104.44
1494,311192,4.032344,0.6541640000000001,1.788764,-31.7975,-19.4425,-92.85501
1495,311291,3.8686199999999995,0.74908,1.43838,-41.58,27.265,-91.2275
1496,311389,3.557032,0.7241920000000001,1.074576,-32.235,77.2275,-85.8725
1497,311487,3.269356,0.620004,0.619028,-16.4325,126.77,-71.4
1498,311585,-1.772416,0.22691999999999998,-1.353956,-4.2175,160.1425,-38.7275
1499,311683,-0.432856,-0.019032,-2.186972,23.24,300.3875,-18.165
1500,311781,-1.70312,-0.636596,-3.286924,2.975,262.395,-43.225
1501,311879,-0.6883239999999999,-0.586332,0.364048,4.9525,193.13,-6.09
1502,311978,-2.091324,-3.965732,3.215188,34.755,252.56,101.85
1503,312076,3.0224279999999997,-0.38308000000000003,-2.085956,-116.4275,434.7,106.225
1504,312174,6.08902,0.937448,-5.548316000000001,-223.2825,375.7075,4.2875
1505,312272,2.215032,0.038064,-2.867,-37.1875,245.63,100.275
1506,312370,1.197308,1.948584,-2.370948,-34.37,211.9075,80.4475
1507,312469,1.4149559999999999,3.531168,-1.86782,9.6775,177.4325,19.285
1508,312567,0.928176,0.9115840000000001,-1.387384,69.405,129.3425,29.33
1509,312665,0.8559521000000001,-1.121424,-1.730936,64.2075,95.6725,46.8825
1510,312763,0.42724399999999996,0.112972,-1.40788,46.2175,76.7725,18.0075
1511,312861,0.248148,1.057984,-0.8820601,44.345,53.9,-3.3075
1512,312959,0.292312,0.192272,-1.0084520000000001,55.195,36.82,12.2325
1513,313058,0.54656,0.036844,-1.244888,46.9175,34.5625,16.3275
1514,313156,0.49898000000000003,0.291824,-1.030656,30.6075,23.5025,2.695
1515,313254,0.320372,0.122244,-0.9777081,19.6175,9.3275,2.0475
1516,313352,0.28987199999999996,0.121024,-0.958432,10.6925,7.0175,1.05
1517,313450,0.37502800000000003,0.21520799999999998,-0.9467200000000001,2.625,8.0675,-2.66
1518,313548,0.316712,0.17812,-0.9386681,-3.5,5.9325,-3.5175
1519,313647,0.227652,0.139324,-0.9167081,-7.0,3.9725,-2.8875
1520,313745,0.293288,0.240096,-0.949892,-13.0375,7.8225,-4.55
1521,313843,0.313052,0.308172,-0.9379360000000001,-15.96,9.555,-4.7425
1522,313941,0.295484,0.316956,-0.9225639999999999,-13.6325,8.8025,-3.22
1523,314039,0.29597199999999996,0.355752,-0.9059721,-9.9575,9.17,-1.5925
1524,314138,0.25254,0.300852,-0.8874280999999999,-5.3725,8.6625,0.5425
1525,314236,0.297192,0.256932,-0.9120720999999999,-1.995,7.7175,2.4325
1526,314334,0.322812,0.23741199999999998,-0.9125601000000001,0.2625,5.8275,4.935
1527,314432,0.34404,0.24326799999999998,-0.9115840000000001,0.805,5.4425,5.0575
1528,314530,0.31451599999999996,0.235704,-0.924516,1.4875,4.795,5.355
1529,314628,0.280844,0.236436,-0.9113399999999999,3.045,4.62,4.7775
1530,314727,0.239852,0.235704,-0.908168,5.285,4.9875,7.7525
1531,314825,0.25864000000000004,0.253272,-0.9037761000000001,7.7,5.845,11.3225
1532,314923,0.282796,0.243024,-0.8959681,9.24,6.9475,15.6625
1533,315021,0.305244,0.263276,-0.904508,7.8575,8.155,19.4775
1534,315119,0.31964000000000004,0.27205999999999997,-0.8913321,7.35,8.47,21.6475
1535,315218,0.358192,0.246928,-0.9108521,5.39,10.9375,21.455
1536,315316,0.35843600000000003,0.250832,-0.8754719999999999,3.3425,10.885,21.4725
1537,315414,0.399916,0.206668,-0.8969440000000001,1.68,11.6725,19.46
1538,315512,0.4594521,0.24717199999999998,-0.877668,-1.3125,12.9325,16.555
1539,315610,0.400404,0.24351199999999998,-0.9079241,-4.6375,12.5125,11.795
1540,315708,0.349652,0.209108,-0.92232,-6.755,11.655,9.5725
1541,315807,0.31842,0.216428,-0.9198799999999999,-11.9175,14.77,7.4725
1542,315905,0.276208,0.171776,-0.902068,-19.495,22.1375,5.7575
1543,316003,0.284016,0.232776,-0.9052401,-34.16,37.065,5.215
1544,316101,0.28694400000000003,0.250832,-0.849852,-49.3675,54.2325,7.7175
1545,316199,0.252784,0.211548,-0.951356,-63.175,72.2925,11.935
1546,316297,0.30475599999999997,0.194712,-0.9479401,-67.48001,93.345,12.6175
1547,316396,0.306464,0.207156,-0.9311040999999999,-64.33,113.7675,18.2175
1548,316494,0.499468,0.288408,-1.24806,-62.055,142.73,25.8475
1549,316592,0.37746799999999997,0.194956,-1.161928,-30.45,150.1675,39.7075
1550,316690,0.519476,0.237168,-0.9267120000000001,-5.8275,171.3775,44.24
1551,316788,0.5516840000000001,0.193004,-0.921832,-35.805,227.465,39.83
1552,316886,0.571692,0.35087199999999996,-1.164368,-77.7525,317.6075,38.99
1553,316985,0.813496,0.7732359999999999,-1.19072,-129.64,432.2675,55.755
1554,317083,-0.434564,-0.193004,-0.593164,-156.065,473.7425,123.83
1555,317181,0.182268,0.155916,-1.337608,-231.7875,539.21,108.4125
1556,317279,1.060912,0.162748,-2.201124,-266.35,573.3525,55.545
1557,317377,1.5908799999999998,0.6075600999999999,-2.5232040000000002,-287.6475,573.405,10.955
1558,317475,2.892376,0.725412,-2.458788,-349.405,568.05,-6.615
1559,317574,1.16144,0.56242,-2.8721240000000003,-372.015,489.4925,8.26
1560,317672,0.839116,0.601216,-2.787456,-324.73,394.17,17.15
1561,317770,-0.241804,0.6605081,-2.399984,-294.8575,303.7475,2.135
1562,317868,1.86294,-0.640256,-2.68522,-345.73,319.6025,-80.605
1563,317966,3.8900919999999997,4.634291999999999,-3.863008,-370.2475,207.55,-99.365
1564,318065,0.611464,2.7959959999999997,-6.207116,-150.99,108.36,116.9175
1565,318163,-0.023912,2.697664,-5.682516000000001,-24.7625,-23.8,140.385
1566,318261,-0.625616,1.761436,-3.9969639999999997,120.8725,-149.2925,86.94
1567,318359,-1.0821399999999999,0.8403360000000001,-2.434876,220.1325,-218.19,56.735
1568,318457,-0.942084,0.349408,-1.645048,242.1475,-252.84,37.6425
1569,318555,-0.7332201,0.127368,-1.264408,221.235,-278.005,25.865
1570,318654,-0.37332,0.195932,-1.259284,176.9075,-303.8,16.8875
1571,318752,0.011956,0.41602,-1.441552,132.93,-335.7375,7.0175
1572,318850,0.324764,0.681492,-1.585024,107.8,-373.8,-4.8825
1573,318948,0.52094,0.8281360999999999,-1.4762,109.7425,-410.5325,-14.42
1574,319046,0.5751081,0.765672,-1.1392360000000001,130.095,-437.0625,-18.375
1575,319144,0.545096,0.596336,-0.7300479999999999,147.6125,-449.4525,-17.2375
1576,319243,0.543144,0.44115200000000004,-0.488,147.1575,-446.81,-13.3175
1577,319341,0.62708,0.364048,-0.46457600000000004,127.2075,-433.09,-9.9225
1578,319439,0.796172,0.37258800000000003,-0.577548,95.26999,-416.78,-10.01
1579,319537,0.8015399999999999,0.494832,-0.8866961,62.9825,-404.0225,-10.9725
1580,319635,0.898408,0.675148,-1.2383,43.505,-393.4175,-7.7175
1581,319734,0.9823440999999999,0.853756,-1.44692,38.605,-386.19,-5.88
1582,319832,0.9921040999999999,0.9686799999999999,-1.5908799999999998,41.86,-380.5375,-9.38
1583,319930,1.111176,1.042124,-1.747284,43.085,-372.89,-18.865
1584,320028,1.3644479999999999,1.104832,-1.815848,36.0675,-365.155,-39.1125
1585,320126,1.5799,1.209264,-1.779248,20.545,-359.73,-70.9975
1586,320225,1.7626560000000002,1.349564,-1.803404,2.8,-351.3825,-109.5675
1587,320323,1.9705439999999999,1.6108879999999999,-1.897588,-5.32,-337.2425,-148.0675
1588,320421,2.234796,1.9061279999999998,-1.9307720000000002,6.58,-318.465,-182.2625
1589,320519,2.6010400000000002,2.081076,-1.850984,37.24,-296.66,-209.8775
1590,320617,2.966064,2.021296,-1.574288,73.90250999999999,-276.85,-229.495
1591,320715,3.3720800000000004,1.945168,-1.211216,96.28501,-263.0425,-243.7225
1592,320814,3.6112,1.7577759999999998,-0.7622561,100.345,-253.68,-255.22
1593,320912,3.7114839999999996,1.514752,-0.31451599999999996,87.8325,-246.4,-263.41
1594,321010,3.8168919999999997,1.419836,0.121512,65.6425,-237.58,-271.39
1595,321108,3.769068,1.373964,0.72224,48.4225,-220.22,-282.73
1596,321206,3.5672800000000002,1.2256120000000001,1.37372,48.4225,-187.075,-288.82
1597,321304,3.421612,0.721508,2.0425240000000002,59.255,-126.91,-274.715
1598,321403,3.6238879999999996,0.280844,2.3419119999999998,47.9325,-54.81,-247.7825
1599,321501,3.653656,0.268888,2.1886799999999997,1.82,-7.7175,-222.215
1600,321599,3.2891199999999996,0.5948720000000001,1.555256,-45.2025,19.2325,-198.3975
1601,321697,2.955572,0.9767321,0.9103641,-58.205,65.275,-174.93
1602,321795,2.55346,1.131672,0.374052,-34.895,119.3675,-153.405
1603,321894,-0.52094,-2.167696,-1.3764040000000002,-49.49,148.47,-66.08
1604,321992,0.6649,0.516304,-0.582428,-205.625,213.045,-71.9775
1605,322090,-1.46644,-0.30988000000000004,-1.9476080000000002,-169.1725,204.47,-35.8225
1606,322188,-0.98088,-2.3672880000000003,0.208132,-76.7725,192.2025,73.5175
1607,322286,-2.00446,-3.5375120000000004,4.149708,-53.97,398.51,161.84
1608,322384,7.540088000000001,3.8388519999999997,-6.167344,-394.8875,466.305,-49.7875
1609,322483,2.77428,1.099708,-4.02234,-212.0475,210.42,-48.7725
1610,322581,1.1407,-0.142984,-2.0374,-39.4975,233.73,133.42
1611,322679,1.507188,3.3469480000000003,-3.4865160000000004,-42.2975,209.1775,52.325
1612,322777,1.872944,4.425428,-0.49117200000000005,94.23751,192.325,-32.1825
1613,322875,0.033184,-1.053348,-1.8295119999999998,108.885,109.935,70.525
1614,322973,0.6514800000000001,-0.284992,-1.59576,106.1725,86.3975,61.565
1615,323072,0.388448,0.9684360999999999,-1.207068,67.69001,65.9575,-2.7125
1616,323170,0.107116,-0.032451999999999995,-0.9181720999999999,72.45,16.9575,31.675
1617,323268,0.588284,0.503372,-0.960384,47.39,23.17,30.8
1618,323366,0.500688,0.20691199999999998,-0.9777081,41.895,12.46,23.4325
1619,323464,0.485804,0.276452,-0.960384,32.165,6.755,20.825
1620,323562,0.37088000000000004,0.1891,-0.916464,25.0075,2.9225,13.1425
1621,323661,0.369904,0.217404,-0.957944,16.8525,3.71,10.1325
1622,323759,0.32866799999999996,0.204716,-0.9179280000000001,11.0425,3.2025,9.1
1623,323857,0.36648800000000004,0.18104800000000001,-0.945744,6.475,5.145,6.79
1624,323955,0.332572,0.17055599999999999,-0.946232,3.36,4.6375,4.6025
1625,324053,0.336476,0.185196,-0.93696,-0.035,5.1275,3.115
1626,324151,0.324764,0.208864,-0.9406200000000001,-4.235,6.9825,1.645
1627,324250,0.336964,0.237168,-0.9189040999999999,-6.72,8.2425,1.47
1628,324348,0.344528,0.235948,-0.9067040000000001,-7.77,9.1875,1.5575
1629,324446,0.366976,0.251808,-0.904752,-7.665,9.205,1.715
1630,324544,0.354532,0.25254,-0.892308,-5.9675,7.3675,1.2075
1631,324642,0.35477600000000004,0.25790799999999997,-0.8937719999999999,-3.9725,5.67,1.19
1632,324740,0.35136,0.23253200000000002,-0.8998719999999999,-1.9075,4.515,1.26
1633,324839,0.360388,0.21374400000000002,-0.9032879999999999,-0.4025,3.1325,1.2775
1634,324937,0.349164,0.212036,-0.907192,0.0175,2.415,1.5575
1635,325035,0.32696,0.21447600000000003,-0.9025559999999999,0.0175,1.4875,1.61
1636,325133,0.338916,0.229116,-0.9093880999999999,-0.945,1.6625,1.7675
1637,325231,0.329888,0.21886799999999998,-0.913292,-1.7325,1.855,2.4325
1638,325329,0.34526,0.22862800000000003,-0.9110959999999999,-3.1675,2.45,3.7975
1639,325428,0.367464,0.223748,-0.9076799999999999,-4.34,2.8,4.2875
1640,325526,0.373076,0.23082399999999997,-0.8881600000000001,-5.145,2.065,4.41
1641,325624,0.358192,0.23911999999999997,-0.9030440000000001,-4.9525,0.595,4.2525
1642,325722,0.35160399999999997,0.238144,-0.9067040000000001,-4.9,-0.595,4.6725
1643,325820,0.340624,0.255956,-0.906948,-6.72,-0.9625,6.2125
1644,325918,0.33305999999999997,0.227408,-0.9059721,-8.225,-0.175,7.0525
1645,326017,0.345992,0.16592,-0.9150001,-12.1975,4.375,6.4925
1646,326115,0.30548800000000004,0.180072,-0.9057280999999999,-18.34,13.4925,4.2875
1647,326213,0.2928,0.200324,-0.9093880999999999,-29.855,26.4075,2.87
1648,326311,0.22814,0.21813600000000002,-0.8725440999999999,-42.91,41.9125,2.87
1649,326409,0.21057199999999998,0.239852,-0.898652,-63.105,66.6575,4.7075
1650,326507,0.181292,0.22057600000000002,-0.9557479999999999,-80.6925,96.67,11.8475
1651,326606,0.182756,0.23155599999999998,-0.987712,-87.395,130.06,21.0875
1652,326704,0.435296,0.296948,-1.3588360000000002,-86.4325,168.0,31.745
1653,326802,0.42456000000000005,0.291824,-1.133624,-52.6925,189.245,51.625
1654,326900,0.533872,0.25986,-0.8117880000000001,-38.535,225.4525,71.4875
1655,326998,0.7366361,0.407236,-0.9950319999999999,-89.075,322.5775,72.4325
1656,327096,0.41968,0.207156,-1.313696,-139.5975,440.79,64.295
1657,327194,0.611952,0.6480640000000001,-1.322968,-165.305,538.3525,51.205
1658,327293,0.248392,0.27328,-1.567944,-167.0375,571.865,88.04251
1659,327391,0.47213999999999995,-0.077836,-2.0510639999999998,-185.255,573.405,86.03
1660,327489,1.5464719999999998,0.235948,-2.8613880000000003,-262.045,573.3875,29.505
1661,327587,2.7547599999999997,0.787388,-2.42902,-293.1425,569.17,-9.695
1662,327685,0.41455600000000004,0.382104,-2.306532,-252.5425,490.2275,19.005
1663,327783,0.6068279999999999,0.839116,-3.042192,-213.1325,362.11,16.2575
1664,327882,0.554124,0.642696,-1.305156,-185.185,290.115,-78.61
1665,327980,2.252852,2.410232,-6.209068,-184.345,363.23,-231.665
1666,328078,3.006812,4.371016,-2.35582,90.70251,220.0275,46.3225
1667,328176,0.8396040000000001,2.0496,-6.204676,257.88,196.2975,86.03
1668,328274,-0.147376,1.174372,-3.3232800000000005,394.205,24.5,21.77
1669,328372,-0.71614,0.329888,-2.00202,429.4325,-63.7875,13.405
1670,328471,-0.7256560000000001,0.247416,-1.414468,420.7525,-98.9975,32.9
1671,328569,-0.492392,0.6573359999999999,-1.554036,394.31,-108.64,69.7025
1672,328667,-0.23887600000000003,1.221708,-1.8573279999999999,388.0275,-124.8625,117.53
1673,328765,-0.057096,1.802184,-2.132804,397.8625,-159.7225,157.9375
1674,328863,0.098576,2.2692,-2.115968,419.72,-214.725,183.96
1675,328962,0.159576,2.684732,-1.8126759999999997,440.685,-275.415,198.485
1676,329060,0.11102000000000001,3.153944,-1.386896,453.5125,-326.8825,208.04
1677,329158,0.044164,3.643164,-0.849608,451.885,-361.83,201.285
1678,329256,-0.054167999999999994,3.9323040000000002,-0.5502199999999999,424.0425,-381.4475,165.305
1679,329354,-0.06588,4.2504800000000005,-0.27084,375.83,-395.955,95.76
1680,329452,-0.0305,4.486184,-0.11248399999999999,321.8425,-397.6525,9.5025
1681,329551,0.009516001,4.70432,-0.008784,284.48,-385.1225,-74.06
