,T,ax,ay,az,gx,gy,gz
0,9199908,0.8045899999999999,-0.108702,-0.30792800000000004,10.8675,-9.9575,-9.03
1,9200051,0.8757159999999999,-0.10345599999999999,-0.39271799999999996,-81.725,-79.4325,-24.6225
2,9200148,0.9558701,-0.11626600000000001,-0.403454,-54.2675,-80.5525,-127.54
3,9200245,0.9633120999999999,-0.116632,-0.392352,27.2125,-103.4425,-51.45
4,9200341,0.9567241,-0.114192,-0.395158,4.7775,-10.8675,-5.565
5,9200438,0.9702661,-0.118218,-0.41199399999999997,5.18,-10.36,-4.62
6,9200535,0.97478,-0.12053599999999999,-0.397354,7.6475,-13.6675,-5.0575
7,9200631,0.9745360000000001,-0.117974,-0.39723200000000003,10.605,-16.87,-5.5125
8,9200728,0.957822,-0.09540401,-0.5893821,9.87,-18.7075,-5.11
9,9200825,0.9337880999999999,-0.12053599999999999,-0.35697199999999996,14.1575,-25.5325,-4.725
10,9200922,0.9484280999999999,-0.101016,-0.43468599999999996,23.0825,-28.665,-5.0925
11,9201018,0.9201241,-0.113826,-0.384422,31.5175,-32.2175,-5.0575
12,9201115,0.8954801,-0.11541199999999999,-0.353556,36.5225,-32.41,-5.7575
13,9201212,0.8792540999999999,-0.11895,-0.31317399999999995,36.1375,-30.38,-7.2975
14,9201309,0.8569280999999999,-0.13298,-0.276452,30.1,-25.7075,-7.945
15,9201405,0.847778,-0.13542,-0.287432,19.74,-18.5675,-7.6825
16,9201502,0.8532681000000001,-0.142618,-0.26779000000000003,10.5175,-11.62,-6.7025
17,9201599,0.8665661,-0.12932000000000002,-0.359534,0.3325,-7.4725,-5.4425
18,9201696,0.8934059999999999,-0.134078,-0.378688,-0.98,-7.35,-5.39
19,9201792,0.9734381,-0.143228,-0.381738,-0.2975,-8.085,-5.4075
20,9201889,0.931348,-0.12383,-0.396378,-1.085,-10.99,-3.6575
21,9201986,0.931958,-0.122732,-0.43005,-1.2775,-12.705,-2.835
22,9202083,0.9354959999999999,-0.118218,-0.44725200000000004,1.3825,-15.82,-3.1325
23,9202179,0.9307380999999999,-0.11431400000000001,-0.42199799999999993,6.125,-20.8075,-3.36
24,9202276,0.91561,-0.141398,-0.272914,8.5575,-22.9425,-3.325
25,9202373,0.9108521,-0.130052,-0.365634,-0.525,-14.8925,-3.2725
26,9202470,0.8957241,-0.12688,-0.41297,-2.415,-10.99,-3.675
27,9202566,0.8940161,-0.13151600000000002,-0.389546,-0.735,-12.0575,-3.92
28,9202663,0.898042,-0.132736,-0.38856999999999997,-1.3475,-12.4425,-3.57
29,9202760,0.8943821,-0.132736,-0.396744,-1.1025,-12.5475,-3.22
30,9202857,0.901214,-0.138836,-0.4026,-0.735,-12.8275,-3.115
31,9202953,0.8977980999999999,-0.13639600000000002,-0.39161999999999997,-0.525,-13.055,-3.0275
32,9203050,0.893284,-0.133102,-0.388814,-0.175,-11.7425,-2.8175
33,9203147,0.8931620000000001,-0.129076,-0.39271799999999996,-0.2275,-10.1675,-2.45
34,9203244,0.89487,-0.125904,-0.392962,-0.1225,-9.1875,-2.4675
35,9203340,0.9082899999999999,-0.120902,-0.391864,-0.63,-8.995,-2.3975
36,9203437,0.9175620000000001,-0.12334200000000001,-0.38247,-0.315,-9.1,-2.45
37,9203534,0.9204901,-0.124928,-0.38064000000000003,-0.4725,-8.995,-2.38
38,9203631,0.9219540999999999,-0.125904,-0.383202,-0.4725,-8.6975,-2.6075
39,9203727,0.918416,-0.130296,-0.374052,0.0875,-8.05,-2.905
40,9203824,0.909632,-0.129198,-0.375272,0.245,-6.545,-3.01
41,9203921,0.9021899999999999,-0.127368,-0.38198200000000004,0.0175,-5.1625,-3.045
42,9204018,0.899384,-0.126636,-0.385886,0.1225,-4.83,-3.36
43,9204114,0.8977980999999999,-0.12675799999999998,-0.39418200000000003,-0.035,-5.0575,-3.3775
44,9204211,0.900726,-0.122244,-0.395524,-0.14,-5.915,-3.5
45,9204308,0.9036540000000001,-0.121146,-0.396866,0.14,-6.8775,-3.605
46,9204404,0.9049959999999999,-0.122976,-0.400404,0.245,-7.175,-3.64
47,9204501,0.904874,-0.125172,-0.401014,0.56,-6.9125,-3.815
48,9204598,0.9086559999999999,-0.12688,-0.396622,0.98,-6.825,-4.0075
49,9204695,0.909998,-0.12871,-0.391498,0.8400001,-6.895,-3.9725
50,9204791,0.910242,-0.130906,-0.393328,0.49,-7.0875,-3.6575
51,9204888,0.907436,-0.134078,-0.38856999999999997,0.3675,-7.07,-3.4825
52,9204985,0.903166,-0.136762,-0.389302,0.28,-6.65,-3.3775
53,9205082,0.8962120000000001,-0.137006,-0.39284,0.0875,-5.9675,-3.325
54,9205178,0.8876719999999999,-0.132736,-0.396378,-0.1225,-5.67,-3.2725
55,9205275,0.8885261000000001,-0.12895399999999999,-0.39955,-0.1575,-5.4775,-3.36
56,9205372,0.8931620000000001,-0.125172,-0.39894,-0.0875,-5.7225,-3.36
57,9205469,0.9001161,-0.12431800000000001,-0.396012,0.105,-5.95,-3.255
58,9205565,0.9051181,-0.12041400000000001,-0.396378,0.1225,-5.985,-3.2025
59,9205662,0.9084121,-0.12322000000000001,-0.396988,0.2975,-5.8275,-3.255
60,9205759,0.9067040000000001,-0.127856,-0.3965,0.3675,-5.81,-3.1325
61,9205856,0.90646,-0.13298,-0.392962,0.2975,-6.0025,-3.08
62,9205952,0.9084121,-0.135298,-0.394426,0.245,-6.37,-3.185
63,9206049,0.9112181,-0.137006,-0.390156,0.4725,-6.335,-3.2725
64,9206146,0.909632,-0.137494,-0.385276,0.21,-6.23,-3.045
65,9206243,0.9108521,-0.137372,-0.38356799999999996,-0.28,-6.3525,-2.7475
66,9206339,0.9028,-0.1281,-0.383324,-0.35,-7.0175,-2.7125
67,9206436,0.9154880999999999,-0.14347200000000002,-0.390156,-0.4725,-7.3675,-3.3075
68,9206533,0.9092661,-0.14213,-0.382714,-0.07,-7.21,-3.15
69,9206630,0.9034101000000001,-0.13664,-0.390644,-0.105,-6.1775,-2.975
70,9206726,0.901214,-0.135054,-0.39405999999999997,-0.14,-5.95,-3.0275
71,9206823,0.8943821,-0.13151600000000002,-0.390644,-0.315,-6.055,-3.045
72,9206920,0.889868,-0.128466,-0.387228,-0.2275,-5.775,-3.1675
73,9207017,0.8874280999999999,-0.12871,-0.390278,-0.3325,-5.0225,-3.0275
74,9207113,0.8893800999999999,-0.129686,-0.39345,-0.4025,-5.075,-2.7125
75,9207210,0.8969440000000001,-0.130052,-0.387594,0.175,-5.775,-2.625
76,9207307,0.9015799999999999,-0.12749000000000002,-0.386008,0.6125,-6.1075,-2.73
77,9207404,0.9001161,-0.124196,-0.3904,0.7875,-5.775,-2.87
78,9207500,0.9097540000000001,-0.128588,-0.388204,0.7,-5.3025,-3.255
79,9207597,0.910242,-0.129442,-0.38966799999999996,0.6825,-5.04,-3.115
80,9207694,0.909632,-0.12932000000000002,-0.386862,0.735,-5.425,-3.2375
81,9207791,0.9106081,-0.12895399999999999,-0.39345,0.49,-6.1075,-3.64
82,9207887,0.9141459999999999,-0.128832,-0.393084,0.525,-6.6325,-4.2875
83,9207984,0.9139021,-0.131638,-0.392352,0.56,-6.7025,-4.515
84,9208081,0.9103641,-0.130174,-0.395646,0.245,-6.3875,-4.4625
85,9208178,0.9057280999999999,-0.129686,-0.395036,-0.0175,-6.16,-4.3225
86,9208274,0.9029221,-0.13151600000000002,-0.392596,-0.35,-5.915,-4.2875
87,9208371,0.899384,-0.1281,-0.389302,-0.315,-5.705,-4.1475
88,9208468,0.8992620000000001,-0.1281,-0.39100999999999997,-0.385,-5.705,-3.85
89,9208564,0.9001161,-0.125904,-0.390278,-0.2625,-6.125,-3.605
90,9208661,0.9002379999999999,-0.127246,-0.390156,0.035,-6.16,-3.5525
91,9208758,0.901336,-0.128588,-0.39271799999999996,0.28,-5.6175,-3.395
92,9208855,0.89792,-0.132126,-0.393694,0.4725,-4.7075,-3.115
93,9208951,0.8962120000000001,-0.133102,-0.395646,0.6125,-4.13,-2.9225
94,9209048,0.8935280999999999,-0.13298,-0.396256,0.5075,-4.0425,-2.7475
95,9209145,0.892918,-0.131638,-0.39528,0.4725,-4.165,-2.695
96,9209241,0.8903561,-0.128344,-0.393328,0.2975,-4.2525,-2.66
97,9209338,0.886574,-0.128466,-0.389546,-0.035,-4.305,-2.8
98,9209435,0.892308,-0.12993,-0.388326,-0.0175,-4.305,-3.0275
99,9209532,0.8918200000000001,-0.12505,-0.387106,0.3675,-3.85,-2.8
100,9209628,0.8936501,-0.125172,-0.387594,0.63,-3.29,-2.625
101,9209725,0.8982860999999999,-0.12761199999999998,-0.391986,0.4725,-2.905,-2.3975
102,9209822,0.904752,-0.127002,-0.39613400000000004,0.1225,-2.7125,-2.45
103,9209919,0.9103641,-0.12358599999999999,-0.396622,0.175,-2.975,-2.7125
104,9210015,0.9110959999999999,-0.12395199999999999,-0.40211199999999997,0.0175,-3.2725,-2.9225
105,9210112,0.9115840000000001,-0.12358599999999999,-0.401502,-0.2275,-3.6925,-3.15
106,9210209,0.9086559999999999,-0.12175599999999999,-0.396866,-0.1575,-4.1125,-3.5
107,9210305,0.901458,-0.119682,-0.396622,-0.1225,-4.025,-3.78
108,9210402,0.898408,-0.121512,-0.394914,0.035,-3.7625,-3.955
109,9210499,0.8999940000000001,-0.123098,-0.394304,0.35,-3.85,-4.0075
110,9210596,0.9021899999999999,-0.12248800000000001,-0.394426,0.455,-4.025,-3.9725
111,9210692,0.9021899999999999,-0.12383,-0.396988,0.49,-4.3225,-4.0075
112,9210789,0.9075581,-0.126636,-0.39284,0.245,-4.34,-3.8675
113,9210886,0.9118280000000001,-0.12993,-0.38795999999999997,0.175,-5.005,-3.8675
114,9210983,0.912926,-0.132248,-0.38613000000000003,-0.07,-5.7925,-3.85
115,9211079,0.9121940999999999,-0.13151600000000002,-0.387228,-0.1925,-6.3875,-3.7625
116,9211176,0.9070700999999999,-0.130174,-0.386008,-0.28,-5.95,-3.7625
117,9211273,0.9063379999999999,-0.132126,-0.387716,-0.105,-4.9175,-3.99
118,9211370,0.906826,-0.132126,-0.39466999999999997,0.1225,-3.955,-4.025
119,9211466,0.8998719999999999,-0.129564,-0.395768,0.455,-3.605,-3.745
120,9211563,0.8962120000000001,-0.127856,-0.39784200000000003,0.7,-3.885,-3.605
121,9211660,0.8930401,-0.12675799999999998,-0.39479200000000003,0.4375,-4.4625,-3.5875
122,9211757,0.8964561,-0.127856,-0.390766,0.315,-5.005,-3.6575
123,9211853,0.8938940000000001,-0.1281,-0.392352,0.1575,-4.9175,-3.4475
124,9211950,0.891576,-0.12675799999999998,-0.39723200000000003,0.2625,-4.6025,-3.43
125,9212047,0.8931620000000001,-0.12395199999999999,-0.39918400000000004,0.56,-4.1825,-3.3075
126,9212143,0.8903561,-0.118828,-0.40016,0.8225,-3.7975,-3.3075
127,9212240,0.8907221,-0.118584,-0.39466999999999997,1.0675,-3.3075,-3.15
128,9212337,0.8897459999999999,-0.120048,-0.396378,0.9625,-2.695,-3.0625
129,9212434,0.8914540000000001,-0.12468399999999999,-0.39161999999999997,0.945,-2.7825,-3.08
130,9212530,0.8987741,-0.131028,-0.391498,0.56,-3.255,-3.4475
131,9212627,0.9034101000000001,-0.13761600000000002,-0.392108,-0.21,-3.5175,-3.4475
132,9212724,0.9060940000000001,-0.139934,-0.393084,-1.225,-2.6075,-3.2375
133,9212821,0.91195,-0.136152,-0.390034,-1.19,-1.1725,-3.4475
134,9212917,0.9175620000000001,-0.13542,-0.38795999999999997,-0.875,-0.805,-3.4125
135,9213014,0.919392,-0.130296,-0.391376,-0.9625,-1.295,-3.01
136,9213111,0.9178061,-0.1281,-0.38795999999999997,-0.525,-2.485,-2.9225
137,9213208,0.91805,-0.122244,-0.385642,-0.245,-3.325,-2.905
138,9213304,0.9147559999999999,-0.119926,-0.382836,-0.0875,-3.535,-2.8875
139,9213401,0.913536,-0.12712400000000001,-0.383202,-0.105,-3.6575,-2.765
140,9213498,0.913048,-0.12749000000000002,-0.389546,0.0525,-3.85,-2.6425
141,9213595,0.9154880999999999,-0.123464,-0.387594,0.4725,-4.655,-2.9575
142,9213691,0.913658,-0.117852,-0.384544,0.7525,-5.5475,-3.0975
143,9213788,0.9097540000000001,-0.11736400000000001,-0.38491,0.8925,-6.16,-3.2025
144,9213885,0.9024341,-0.11955999999999999,-0.381616,1.1725,-6.3525,-3.3775
145,9213982,0.898652,-0.119804,-0.38186,1.575,-6.405,-3.5875
146,9214078,0.89487,-0.12041400000000001,-0.383202,1.8025,-6.0725,-3.71
147,9214175,0.893284,-0.123708,-0.389424,1.7675,-5.6525,-3.7625
148,9214272,0.898164,-0.130052,-0.38795999999999997,1.6625,-5.04,-3.815
149,9214369,0.898164,-0.130052,-0.393572,1.68,-4.34,-3.885
150,9214465,0.904752,-0.129076,-0.391376,1.925,-3.885,-4.025
151,9214562,0.9085340000000001,-0.128344,-0.385642,2.345,-3.955,-3.9725
152,9214659,0.9112181,-0.126026,-0.383812,2.345,-4.62,-3.955
153,9214756,0.9125601000000001,-0.127856,-0.38613000000000003,2.135,-5.5125,-3.9375
154,9214852,0.9134141,-0.13237000000000002,-0.379176,1.68,-6.545,-3.8325
155,9214949,0.913048,-0.133956,-0.369904,1.435,-7.2625,-3.815
156,9215046,0.913536,-0.135542,-0.370514,1.2775,-7.0875,-3.7625
157,9215143,0.9093880999999999,-0.136518,-0.37088000000000004,1.2775,-6.3875,-3.5
158,9215239,0.9090219999999999,-0.137372,-0.37197800000000003,1.33,-5.9325,-3.29
159,9215336,0.9097540000000001,-0.136152,-0.371612,1.0325,-6.0025,-3.185
160,9215433,0.9125601000000001,-0.13078399999999998,-0.375272,0.1575,-6.0375,-3.185
161,9215530,0.91927,-0.12895399999999999,-0.373198,-0.6825,-5.39,-3.4125
162,9215626,0.9189040999999999,-0.127856,-0.365512,-0.4375,-4.34,-3.64
163,9215723,0.9139021,-0.12322000000000001,-0.36661,-0.1225,-3.4825,-3.78
164,9215820,0.9093880999999999,-0.121878,-0.374418,0.1225,-3.395,-3.7625
165,9215917,0.906216,-0.125782,-0.38051799999999997,0.315,-4.0425,-3.675
166,9216013,0.9023121,-0.128588,-0.384178,0.4025,-4.9,-3.605
167,9216110,0.89975,-0.129442,-0.387716,0.3675,-5.7225,-3.535
168,9216207,0.8987741,-0.132736,-0.386862,0.5075,-6.685,-3.7275
169,9216304,0.8938940000000001,-0.133956,-0.383812,0.63,-6.8425,-3.57
170,9216400,0.8876719999999999,-0.13383399999999998,-0.386496,0.42,-5.8975,-3.2725
171,9216497,0.88023,-0.134078,-0.390766,0.14,-4.8475,-2.9575
172,9216594,0.8757159999999999,-0.133346,-0.395158,-0.315,-4.2175,-2.7475
173,9216691,0.8773021000000001,-0.133102,-0.396378,-0.945,-4.2175,-2.6775
174,9216787,0.8893800999999999,-0.13298,-0.40821199999999996,-1.7325,-5.1625,-2.7125
175,9216884,0.9098761000000001,-0.132858,-0.41455600000000004,-2.6075,-6.7375,-2.6775
176,9216981,0.9275661000000001,-0.137006,-0.431392,-3.71,-7.7875,-2.7475
177,9217078,0.9403761,-0.135054,-0.45335200000000003,-4.725,-8.6975,-2.8
178,9217174,0.96319,-0.128588,-0.46628400000000003,-5.5125,-10.045,-3.395
179,9217271,0.969534,-0.139324,-0.47482399999999997,-5.6,-10.5,-3.57
180,9217368,0.954528,-0.14469200000000002,-0.49288000000000004,-3.7625,-9.3625,-2.4675
181,9217465,0.936594,-0.148596,-0.49580799999999997,-0.9625,-7.2275,-0.63
182,9217561,0.908168,-0.125782,-0.46640600000000004,0.7525,-6.0025,1.225
183,9217658,0.879376,-0.1037,-0.401746,3.3075,-5.7225,1.1375
184,9217755,0.86559,-0.09223200000000001,-0.373442,5.0575,-3.675,1.05
185,9217852,0.8647360000000001,-0.096624,-0.345138,4.3225,-3.4125,0.9275
186,9217948,0.87108,-0.11211800000000001,-0.31146599999999997,4.48,-5.425,-0.8400001
187,9218045,0.8741300999999999,-0.13969,-0.320616,3.045,-8.54,-3.5875
188,9218142,0.879986,-0.152256,-0.317688,2.1525,-12.6,-5.0925
189,9218239,0.860344,-0.162504,-0.29768,3.045,-13.93,-7.14
190,9218335,0.853878,-0.162626,-0.28682199999999997,2.905,-11.9875,-8.26
191,9218432,0.8625401,-0.148596,-0.30073,0.8575,-7.0525,-9.415
192,9218529,0.8874280999999999,-0.14896199999999998,-0.325496,-1.4175,-2.2575,-9.6775
193,9218626,0.9231739999999999,-0.152866,-0.346602,-4.3925,-0.0525,-7.6825
194,9218722,0.9528200000000001,-0.171532,-0.38125,-9.7825,0.175,-5.425
195,9218819,1.0056459999999998,-0.19276,-0.375272,-8.2775,-1.0675,-4.6375
196,9218916,1.075552,-0.21838000000000002,-0.3599,-6.79,-1.1725,-5.145
197,9219013,1.0858,-0.252296,-0.346358,-10.8325,-4.095,-3.605
198,9219109,1.0371219999999999,-0.244854,-0.337696,-14.1225,-10.6575,-1.61
199,9219206,0.968558,-0.20837600000000003,-0.314882,-12.8625,-16.8175,-0.0875
200,9219303,0.90402,-0.162138,-0.314272,-12.18,-20.895,2.205
201,9219400,0.8543661,-0.13237000000000002,-0.292556,-11.795,-22.75,4.3225
202,9219496,0.8439959999999999,-0.12468399999999999,-0.271206,-11.375,-20.4225,5.32
203,9219593,0.856806,-0.118584,-0.277672,-12.495,-14.945,6.0375
204,9219690,0.88999,-0.124196,-0.288652,-12.8975,-9.52,6.72
205,9219787,0.9178061,-0.12895399999999999,-0.313052,-13.72,-6.2825,6.5275
206,9219884,0.9390341,-0.11846199999999998,-0.343308,-14.21,-7.21,4.69
207,9219980,0.967094,-0.10687200000000001,-0.35319,-12.8975,-9.7825,1.5575
208,9220077,0.97234,-0.10943399999999999,-0.361608,-12.005,-11.0425,-0.49
209,9220174,0.9555040000000001,-0.10492,-0.383934,-11.27,-11.6375,-1.2425
210,9220271,0.9408639999999999,-0.09613601,-0.374784,-8.1725,-14.035,-2.205
211,9220367,0.906216,-0.09442801,-0.366854,-5.5475,-15.575,-3.045
212,9220464,0.892918,-0.108702,-0.38064000000000003,-6.09,-14.7175,-3.465
213,9220561,0.8959681,-0.134322,-0.377346,-6.8075,-13.5975,-4.095
214,9220658,0.9057280999999999,-0.153232,-0.36112,-6.51,-13.965,-4.655
215,9220754,0.90402,-0.163968,-0.34794400000000003,-6.0375,-16.135,-5.39
216,9220851,0.90646,-0.15579400000000002,-0.346236,-6.0025,-17.9025,-5.8275
217,9220948,0.9181720999999999,-0.14993800000000002,-0.330498,-5.5125,-18.4975,-6.125
218,9221045,0.9386681,-0.146278,-0.33623200000000003,-5.1275,-18.3225,-4.69
219,9221141,0.9547720999999999,-0.140422,-0.34562600000000004,-5.53,-17.325,-2.9925
220,9221238,0.955626,-0.14005599999999999,-0.345382,-5.005,-15.8725,-2.3975
221,9221335,0.9531860000000001,-0.136762,-0.34257600000000005,-4.795,-14.4375,-2.7475
222,9221432,0.931348,-0.133346,-0.32708200000000004,-4.0075,-13.44,-3.465
223,9221528,0.9076799999999999,-0.12688,-0.331108,-4.0425,-12.9325,-4.1825
224,9221625,0.9106081,-0.11955999999999999,-0.34099,-4.34,-14.6475,-4.8125
225,9221722,0.924394,-0.118218,-0.339038,-3.6225,-18.1475,-5.0225
226,9221819,0.934642,-0.124074,-0.34099,-3.0975,-20.37,-4.2525
227,9221915,0.9396440999999999,-0.135054,-0.33976999999999996,-2.73,-20.6675,-3.36
228,9222012,0.939766,-0.145058,-0.325374,-1.4175,-20.405,-2.94
229,9222109,0.9318360000000001,-0.1464,-0.330864,-0.875,-20.265,-2.6425
230,9222206,0.9345201,-0.14713199999999999,-0.349652,-0.7875,-20.65,-2.485
231,9222302,0.9230520000000001,-0.143716,-0.356484,-0.595,-21.84,-2.8525
232,9222399,0.9219540999999999,-0.136152,-0.35868,-0.63,-22.7675,-2.975
233,9222496,0.92781,-0.132858,-0.350628,-0.525,-25.5325,-3.2025
234,9222593,0.922076,-0.131272,-0.354532,-1.155,-28.7175,-3.5525
235,9222689,0.918538,-0.131272,-0.35746,-1.085,-30.6775,-3.4125
236,9222786,0.9351299999999999,-0.125904,-0.33623200000000003,-0.21,-31.22,-3.78
237,9222883,0.9512341000000001,-0.115656,-0.33171799999999996,0.105,-31.5,-3.815
238,9222980,0.9516,-0.109678,-0.34038,0.0175,-31.815,-4.025
239,9223076,0.942694,-0.109556,-0.341966,0.5425,-31.885,-4.69
240,9223173,0.9241501,-0.11834000000000001,-0.33379200000000003,1.3825,-30.205,-6.0375
241,9223270,0.9018241,-0.12358599999999999,-0.337086,1.855,-26.635,-7.245
242,9223367,0.8812059999999999,-0.12627,-0.35282399999999997,2.3275,-23.1875,-8.1725
243,9223463,0.86498,-0.104676,-0.362706,3.6925,-22.7325,-8.9775
244,9223560,0.8547319999999999,-0.06892999999999999,-0.359046,3.3775,-24.4475,-10.2025
245,9223657,0.8402139999999999,-0.06124401,-0.371734,0.245,-26.4425,-11.6375
246,9223754,0.8010520000000001,-0.07698201,-0.396744,-3.71,-27.65,-11.725
247,9223850,0.773968,-0.08918200000000001,-0.40516199999999997,-6.3875,-27.475,-11.165
248,9223947,0.759938,-0.10504200000000001,-0.41272600000000004,-8.295,-27.4575,-9.9925
249,9224044,0.753228,-0.1037,-0.434808,-11.235,-28.175,-7.9975
250,9224141,0.738344,-0.08820599999999999,-0.42822,-14.98,-30.87,-5.53
251,9224237,0.741028,-0.062098,-0.413214,-18.235,-34.09,-2.87
252,9224334,0.73444,-0.03782,-0.399306,-20.125,-36.7675,0.63
253,9224431,0.738588,-0.022448,-0.386374,-21.7525,-37.765,5.7575
254,9224528,0.744566,-0.042578,-0.35099400000000003,-20.65,-34.2825,11.62
255,9224624,0.736758,-0.049288,-0.35526399999999997,-18.515,-22.225,17.6925
256,9224721,0.772992,-0.07832401,-0.356606,-15.8025,-10.4475,22.61
257,9224818,0.8471681000000001,-0.118828,-0.309758,-9.765,-3.2375,26.2675
258,9224914,0.904874,-0.177754,-0.324886,-7.28,1.225,28.07
259,9225011,1.010648,-0.18971,-0.345382,-8.0675,-0.945,25.13
260,9225108,1.13277,-0.188978,-0.35697199999999996,-8.4175,-5.46,13.3175
261,9225205,1.18218,-0.151036,-0.381616,-8.96,-7.4375,3.2025
262,9225301,1.178642,-0.082838,-0.403698,-11.165,-7.9275,-3.0625
263,9225398,1.096292,0.000366,-0.432734,-10.9025,-8.1025,-8.435
264,9225495,1.02724,0.036478,-0.476288,-15.12,-9.8875,-12.81
265,9225592,0.945744,0.019275999999999998,-0.472628,-16.94,-11.0425,-14.525
266,9225688,0.8497299999999999,-0.030378,-0.442738,-16.5725,-11.1825,-13.79
267,9225785,0.7506659999999999,-0.09052401,-0.446032,-16.1175,-9.0125,-12.0575
268,9225882,0.6767340000000001,-0.12248800000000001,-0.45018,-14.6475,-7.3325,-9.87
269,9225979,0.6645340000000001,-0.14566800000000002,-0.37258800000000003,-10.045,-6.2475,-9.555
270,9226075,0.552782,-0.11650999999999999,-0.281088,-2.8875,2.975,-8.6975
271,9226172,0.448716,-0.07869,-0.306586,2.7825,20.16,-9.6425
272,9226269,0.37332,-0.00061,-0.34343,5.46,24.15,-12.425
273,9226366,0.399306,0.08771799999999999,-0.308172,7.3325,8.715,-15.2075
274,9226462,0.43602799999999997,0.090158,-0.11736400000000001,14.3325,-8.47,-20.72
275,9226559,0.577914,0.07600599999999999,0.120048,17.395,-6.475,-31.4825
276,9226656,0.69296,0.095282,0.259738,20.1775,0.28,-41.4575
277,9226753,0.8607100000000001,0.017568,0.164578,15.7325,1.4,-53.06
278,9226849,0.946842,-0.104432,0.07856801,18.515,-6.6675,-47.67
279,9226946,1.17242,-0.12675799999999998,0.181292,36.47,-11.6375,-28.665
280,9227043,1.4453340000000001,-0.069906,0.211914,52.3075,5.4425,-19.11
281,9227140,1.712636,0.050996,0.08906,58.6425,20.7375,-16.5725
282,9227236,1.913936,0.129442,-0.041724000000000004,60.165,12.18,-18.4275
283,9227333,1.952366,0.17140999999999998,-0.095282,60.8825,-5.0225,-21.1575
284,9227430,1.8121880000000001,0.15274400000000002,-0.099186,62.1775,-20.335,-31.85
285,9227527,1.6552959999999999,0.08357,-0.038308,63.1225,-33.775,-49.1575
286,9227624,1.563308,-0.009150001,0.017812,67.7075,-30.1525,-68.46
287,9227720,1.518412,-0.10614000000000001,0.020862000000000002,71.435,-15.4525,-83.66751
288,9227817,1.495476,-0.153354,-0.027816000000000004,70.4025,-4.3225,-95.7075
289,9227914,1.469856,-0.16689600000000002,-0.05002,67.13,4.13,-105.49
290,9228011,1.441308,-0.127002,-0.087474,61.5825,16.5725,-112.56
291,9228107,1.337486,-0.096014,-0.160308,50.6975,32.62,-113.575
292,9228204,1.223538,-0.07283401,-0.204594,43.19,41.265,-109.935
293,9228301,1.20902,-0.05124001,-0.259738,33.845,40.6525,-102.8825
294,9228398,1.2500120000000001,-0.08235001,-0.589016,12.4425,45.0975,-85.645
295,9228494,1.476688,-0.080398,-1.2256120000000001,-27.895,79.275,-62.0375
296,9228591,1.8023060000000002,-0.108946,-0.886452,-4.585,115.3775,-41.02
297,9228688,1.789984,-0.8132520999999999,-0.3721,1.7325,69.125,-12.075
298,9228785,1.18096,-1.072502,-0.18995399999999998,-38.99,12.74,23.8525
299,9228881,0.800198,-0.46176999999999996,-0.470188,-80.3075,3.5175,37.905
300,9228978,1.02724,-0.054412,-0.937326,-94.71,14.7,25.235
301,9229075,1.24501,0.07344400000000001,-1.038708,-69.65,15.645,15.9775
302,9229172,1.233298,0.10418800000000002,-1.028948,-58.625,-6.5975,14.42
303,9229268,1.032486,0.074298,-0.7977581,-47.6525,-21.2625,11.515
304,9229365,0.8221581,0.047824,-0.617686,-40.6525,-26.005,5.39
305,9229462,0.690032,0.048556,-0.5892601,-40.9675,-28.1225,1.2425
306,9229559,0.7077220000000001,0.067588,-0.5875520000000001,-38.64,-31.99,-3.29
307,9229655,0.8448501,0.091378,-0.628178,-34.4225,-33.3025,-10.6925
308,9229752,0.99308,0.160552,-0.5871860999999999,-25.8125,-31.6925,-16.9575
309,9229849,1.040294,0.214232,-0.52765,-16.1875,-31.85,-19.6
310,9229946,1.01931,0.22472399999999998,-0.50203,-8.33,-33.845,-22.505
311,9230042,0.995398,0.230702,-0.406504,2.38,-39.445,-21.945
312,9230139,0.9627020000000001,0.246196,-0.290848,9.065,-40.6175,-15.0675
313,9230236,0.874374,0.24412199999999998,-0.183976,9.905,-36.8025,-10.57
314,9230333,0.700158,0.20947399999999997,-0.133346,6.1425,-31.9025,-8.085
315,9230429,0.560834,0.19337000000000001,-0.09735601,3.92,-27.9825,-5.1975
316,9230526,0.469578,0.12980799999999998,0.005734,10.4125,-17.7625,-1.26
317,9230623,0.385642,0.002928,0.08113001,15.33,-3.92,4.76
318,9230720,0.31232,-0.151158,0.10248,15.2425,5.845,10.92
319,9230817,0.313662,-0.278648,0.063684,14.0525,12.18,14.665
320,9230913,0.39479200000000003,-0.303902,0.051118000000000004,10.7275,15.9075,19.4775
321,9231010,0.511302,-0.327692,0.045506,1.2775,14.105,22.33
322,9231107,0.6380600000000001,-0.30744,0.053314,-11.8125,12.215,26.705
323,9231204,0.712236,-0.228506,0.037088,-25.9525,15.3475,33.285
324,9231300,0.753594,-0.146766,0.017812,-37.345,17.325,36.5925
325,9231397,0.722362,-0.08113001,0.05587601,-44.38,21.5775,38.8675
326,9231494,0.6542859999999999,-0.069052,0.079544,-47.8275,31.6225,41.3
327,9231591,0.577548,-0.10126,0.05453401,-51.695,43.9775,45.5525
328,9231687,0.5627861,-0.189222,0.081618,-53.7075,52.605,47.215
329,9231784,0.61488,-0.248148,0.148596,-53.48,51.4325,47.145
330,9231881,0.6895439999999999,-0.306952,0.148596,-50.9775,49.8925,43.68
331,9231978,0.751276,-0.300852,0.119682,-53.13,41.1775,36.015
332,9232074,0.8536341000000001,-0.18361,0.05160601,-60.7425,24.0625,29.9075
333,9232171,0.9295180000000001,-0.03599,0.021228,-55.09,14.3325,33.285
334,9232268,1.002474,-0.009394,0.012931999999999999,-41.125,20.4925,38.0975
335,9232365,1.057252,-0.09211,-0.116022,-31.36,41.475,45.36
336,9232461,1.122644,-0.085888,-0.26913200000000004,-20.475,74.0075,52.045
337,9232558,1.280634,0.09577000000000001,-0.35563,-8.6275,98.96251,54.1275
338,9232655,1.538298,0.46481999999999996,-0.39284,3.9025,94.29,48.8075
339,9232752,1.769122,0.596336,-0.47811800000000004,13.405,58.835,34.195
340,9232848,1.9422400000000002,0.27876999999999996,-0.222284,21.1575,-10.185,12.845
341,9232945,1.6517580000000003,-0.057096,-0.147498,21.8925,-68.0225,-0.805
342,9233042,1.193892,-0.437126,-0.578036,32.655,-62.4925,6.23
343,9233139,0.702598,-0.7190681,-1.8728220000000002,38.3425,-2.7475,26.3375
344,9233235,0.388814,-0.25315,-2.240164,93.4325,56.665,44.835
345,9233332,0.9476959999999999,0.259128,-1.355298,133.175,136.2375,35.875
346,9233429,1.319674,1.41764,-1.5318319999999999,83.5625,177.0125,56.56
347,9233526,0.949892,1.317234,-1.606374,127.225,79.5375,89.705
348,9233622,0.7327321,0.0034159999999999998,-1.040538,125.93,-61.635,82.2325
349,9233719,1.003328,-0.6895439999999999,-0.8091041,41.7025,-93.625,60.095
350,9233816,1.60247,-0.995886,-0.9021899999999999,11.48,20.02,52.9725
351,9233913,1.8356119999999998,-1.3382180000000001,-0.747128,49.035,114.2575,53.445
352,9234009,2.006534,-1.79767,-0.650138,16.065,40.915,38.99
353,9234106,2.423896,-1.7188580000000002,-0.28621199999999997,-27.0375,-43.19,-10.6575
354,9234203,2.409744,-0.6794180000000001,-0.285968,-41.86,-37.0125,-35.9975
355,9234300,1.6674959999999999,0.004514,-0.432734,-42.2975,-74.25251,-16.3625
356,9234396,0.978074,0.016225999999999997,-0.335988,-27.7725,-108.2725,-4.1825
357,9234493,0.62464,0.12017,-0.08918200000000001,-28.5425,-89.425,2.205
358,9234590,0.42883009999999994,0.216306,0.011834,-18.6375,-49.8225,2.8175
359,9234687,0.352702,0.329278,-0.018178,-15.785,-29.1725,-3.395
360,9234783,0.338428,0.403088,-0.016225999999999997,-13.2125,-31.8325,-10.5
361,9234880,0.271206,0.449082,0.0051240009999999996,-10.22,-36.68,-15.1025
362,9234977,0.207156,0.427854,0.05636401,-6.0725,-30.87,-17.5
363,9235074,0.168482,0.377224,0.077836,2.45,-21.595,-19.8275
364,9235170,0.11736400000000001,0.330742,0.04697001,14.665,-12.4425,-20.6675
365,9235267,0.11285,0.291092,0.09442801,30.555,-1.75,-21.0
366,9235364,0.12017,0.267058,0.080398,47.425,10.3425,-25.305
367,9235461,0.156526,0.22875,0.008174001,61.8625,18.865,-34.23
368,9235557,0.190686,0.25363800000000003,-0.025498,72.3975,21.1925,-43.1375
369,9235654,0.24363400000000002,0.298168,0.038186000000000005,80.92,22.68,-50.1025
370,9235751,0.255346,0.335256,0.06588,89.04,23.7825,-52.99
371,9235848,0.35258,0.257298,0.08845001,97.1075,25.2525,-53.2
372,9235945,0.45640200000000003,0.21899000000000002,0.097966,96.88,33.565,-46.6375
373,9236041,0.509228,0.16348,0.10638399999999999,93.135,40.7575,-38.815
374,9236138,0.5665680000000001,0.060877999999999995,0.119072,91.3675,41.44,-37.345
375,9236235,0.616222,-0.034404000000000004,0.156892,99.5925,37.975,-31.4475
376,9236332,0.7628659999999999,-0.12017,0.124806,104.2125,37.625,-27.58
377,9236428,0.9179280000000001,-0.130296,0.043676,101.5525,49.9975,-26.32
378,9236525,1.1087360000000002,-0.149694,-0.060877999999999995,102.025,55.825,-24.745
379,9236622,1.356152,-0.19154000000000002,-0.17019,95.655,51.9225,-25.62
380,9236719,1.573434,-0.293044,-0.151158,88.0775,47.6525,-26.6525
381,9236815,1.79279,-0.510936,-0.06075601,80.29,28.5075,-30.3625
382,9236912,1.8705040000000002,-0.754692,-0.13847,46.5325,8.295,-30.5025
383,9237009,1.895636,-0.9010921000000001,0.014762,33.2325,-17.325,-32.1475
384,9237105,1.8672099999999998,-0.803736,0.100772,12.0575,-39.0775,-29.925
385,9237202,1.7409400000000002,-0.596092,0.129686,-3.43,-31.5,-23.31
386,9237299,1.4752239999999999,-0.391864,0.171044,-7.805,2.24,-18.3225
387,9237396,1.188768,-0.204594,0.276696,-12.1975,24.115,-16.7475
388,9237492,0.9945440000000001,-0.062952,0.295118,-21.77,25.6375,-14.735
389,9237589,0.8322841000000001,0.04867801,0.124196,-23.2225,18.13,-8.2075
390,9237686,0.6946681,0.156648,-0.285114,-22.085,14.5425,0.5075
391,9237783,0.6753920999999999,0.102846,-1.492792,-39.8475,43.3475,5.0925
392,9237879,0.8643700999999999,-0.624518,-2.008364,-38.605,86.0825,-5.3375
393,9237976,1.2038959999999999,-1.364326,-0.895236,-17.3775,158.69,-3.675
394,9238073,1.381284,-1.858426,-0.64965,-56.3675,147.0175,-32.025
395,9238170,1.4187379999999998,-1.5079200000000001,-1.072502,-122.3775,40.53,-63.8575
396,9238266,1.26636,-0.10943399999999999,-0.8852321,-138.95,-18.0775,-103.25
397,9238363,1.183034,0.446032,-0.572546,-106.12,-27.4225,-113.435
398,9238460,1.2104840000000001,0.50447,-0.299388,-68.2675,-45.255,-111.475
399,9238557,1.077992,0.7861680999999999,-0.43602799999999997,-56.49,-75.9325,-76.2475
400,9238653,1.280634,1.095194,-0.6304960000000001,-25.655,-104.475,-52.36
401,9238750,1.566724,1.067134,-0.392352,11.4625,-103.2675,-34.8425
402,9238847,2.038132,0.597312,-0.22801799999999997,16.6075,-86.9925,-14.175
403,9238944,2.264198,0.056852,-0.20752199999999998,5.5825,-57.9775,21.6475
404,9239040,1.658956,-0.23911999999999997,-0.332572,-12.775,-17.255,36.8025
405,9239137,0.9442801,-0.339404,-0.30683,-16.135,-23.24,28.6475
406,9239234,0.557052,-0.40821199999999996,-0.182634,-14.7175,-30.345,19.145
407,9239331,0.50813,-0.477142,-0.09272000000000001,-13.545,-16.205,1.7675
408,9239428,0.560102,-0.449326,-0.15201199999999998,-19.39,-3.2725,-11.2525
409,9239524,0.608902,-0.367586,-0.17140999999999998,-24.465,-4.5325,-17.29
410,9239621,0.575962,-0.233996,-0.10504200000000001,-25.5675,-11.2875,-17.2725
411,9239718,0.47384799999999994,-0.11053199999999999,-0.09223200000000001,-33.46,-17.9725,-13.825
412,9239815,0.368562,-0.09381801,-0.053191999999999996,-34.0725,-20.4225,-7.1225
413,9239911,0.280356,-0.10248,-0.052826,-35.98,-23.4325,2.205
414,9240008,0.22948200000000002,-0.14579,-0.055510000000000004,-39.69,-24.7625,11.41
415,9240105,0.251442,-0.21801399999999999,-0.025863999999999998,-39.9875,-20.1425,20.825
416,9240202,0.28975,-0.23533800000000002,-0.041236,-45.6225,-14.6825,27.5975
417,9240298,0.37246599999999996,-0.22777399999999998,-0.054046000000000004,-56.4725,-11.69,30.5725
418,9240395,0.444446,-0.230458,-0.023912,-65.8525,-7.6475,32.445
419,9240492,0.5380199999999999,-0.202276,-0.007076001,-70.77,3.5875,34.055
420,9240589,1.0212620000000001,-0.15054800000000002,-0.003782,-73.57,25.2,33.7575
421,9240686,0.732854,-0.029158,0.017812,-80.7625,50.3475,26.95
422,9240782,0.345992,-0.117486,0.02135,-84.1925,83.72001,17.5875
423,9240879,0.328546,-0.265716,0.058926,-88.13,84.8575,13.685
424,9240976,0.365268,-0.403332,0.14786400000000002,-95.9,45.85,13.755
425,9241073,0.31317399999999995,-0.48543800000000004,0.17934,-107.0475,10.36,16.5025
426,9241169,0.446276,-0.4209,0.25132,-114.975,-6.2475,15.6275
427,9241266,0.592432,-0.282186,0.268888,-118.93,-3.6225,14.63
428,9241363,0.8764481,-0.19580999999999998,0.176534,-117.46,9.765,13.755
429,9241460,1.154608,-0.11773,-0.07551801,-105.1575,22.6275,10.7625
430,9241556,1.342732,0.025986000000000002,-0.262666,-73.0625,29.75,8.89
431,9241653,1.659932,0.48433999999999994,-0.27205999999999997,-38.1675,21.84,4.2
432,9241750,2.106208,1.009672,-0.124928,-30.6425,-6.755,-1.33
433,9241847,2.377902,1.2489139999999999,0.055022,-33.04,-36.9075,1.4875
434,9241943,2.091324,0.9208561,0.290238,-13.23,-69.615,9.94
435,9242040,1.732156,0.36941599999999997,0.461892,22.995,-81.865,21.9975
436,9242137,1.368108,-0.079178,0.413336,36.505,-48.685,36.9075
437,9242234,1.062986,-0.371002,0.305244,35.77,-5.18,40.25
438,9242330,0.9404981,-0.614392,0.096868,30.3275,19.915,26.7575
439,9242427,0.8760819999999999,-0.6897880999999999,-0.13054000000000002,24.7975,21.14,12.4425
440,9242524,0.85644,-0.5843801,-0.6569699999999999,31.0275,21.105,2.87
441,9242621,0.8497299999999999,-0.20801,-1.513654,59.6925,31.78,-5.495
442,9242717,1.143994,0.269742,-1.548424,113.2425,53.165,-12.0575
443,9242814,1.522438,0.560102,-0.856806,108.0625,88.44501,4.8125
444,9242911,1.6613959999999999,1.053348,-0.792146,68.72251,45.08,28.5425
445,9243008,1.69397,0.97356,-0.731878,89.5825,-39.1825,77.2975
446,9243105,1.396046,0.227042,-0.5172800999999999,97.5625,-59.64,105.07
447,9243201,0.918416,-0.151646,-0.282308,56.805,-62.79,97.79
448,9243298,0.7381001,-0.5422899999999999,-0.345382,11.935,-59.745,82.215
449,9243395,0.76067,-0.86559,-0.39833,-5.075,-19.0575,71.8025
450,9243492,0.8426540000000001,-1.049688,-0.268766,8.855,28.9975,65.8525
451,9243588,1.143018,-1.286246,-0.23021399999999997,7.3325,10.15,49.2275
452,9243685,1.645658,-1.173152,-0.271572,0.4375,-32.7075,6.9825
453,9243782,1.89893,-0.53009,-0.3416,-2.8,-37.45,-30.9225
454,9243879,1.570506,0.061366,-0.34953,6.965,-39.8825,-34.65
455,9243975,1.083604,0.31049,-0.29463,16.1875,-53.3925,-23.7475
456,9244072,0.853512,0.36966,-0.226798,15.4175,-53.375,-25.445
457,9244169,0.751154,0.389546,-0.168848,23.7125,-35.175,-27.51
458,9244266,0.7407841,0.314394,-0.184098,29.575,-18.025,-28.5775
459,9244362,0.7387100000000001,0.208254,-0.18788,31.1325,-17.7975,-28.8225
460,9244459,0.6720981,0.104066,-0.137982,33.5825,-27.8425,-26.25
461,9244556,0.522038,0.04697001,-0.08052000000000001,35.77,-33.39,-20.5275
462,9244653,0.34038,0.031110000000000002,-0.05002,36.5575,-32.165,-17.22
463,9244749,0.19483399999999998,0.004758,-0.042334,38.5,-29.61,-18.9525
464,9244846,0.113704,0.01281,-0.043066,40.985,-29.47,-22.3125
465,9244943,0.122732,0.055144000000000006,-0.08332601,42.7525,-29.5225,-26.9325
466,9245040,0.19983599999999999,0.064172,-0.08893801,44.2575,-32.27,-33.6
467,9245136,0.30195,0.122732,-0.133468,45.8325,-32.97,-37.205
468,9245233,0.40589400000000003,0.027327999999999998,-0.10931199999999999,51.485,-29.8725,-38.885
469,9245330,0.476654,-0.078202,-0.03294,58.3975,-20.51,-39.1125
470,9245427,0.545096,-0.126148,0.006587999999999999,64.0675,-9.9925,-36.96
471,9245523,0.62342,-0.146644,0.062341999999999995,70.5075,-3.99,-31.22
472,9245620,0.708332,-0.143594,0.036478,69.265,-1.505,-24.4125
473,9245717,0.8115439999999999,-0.12065799999999999,0.035746,70.35,2.0475,-19.6525
474,9245814,0.9154880999999999,-0.058682000000000005,0.059536,72.695,5.5475,-16.695
475,9245910,1.009428,-0.000488,0.08637601,74.6025,5.18,-15.6275
476,9246007,1.080676,0.015128,0.119316,76.2125,5.145,-15.96
477,9246104,1.16693,-0.008906,0.09540401,72.31,6.93,-15.4
478,9246201,1.305644,-0.077836,0.050752,68.355,10.85,-15.4
479,9246298,1.36335,-0.17238599999999998,0.064538,68.2675,13.02,-16.275
480,9246394,1.294176,-0.29792399999999997,0.132736,67.795,15.0675,-19.11
481,9246491,1.254038,-0.42773199999999995,0.185318,61.74,26.705,-23.765
482,9246588,1.25843,-0.51057,0.19642,49.8925,35.56,-29.9775
483,9246685,1.351272,-0.574742,0.195932,33.565,24.71,-35.28
484,9246781,1.4692459999999998,-0.6075600999999999,0.22167399999999998,18.305,3.9025,-38.3775
485,9246878,1.496818,-0.559248,0.24558600000000003,6.405,-11.655,-34.685
486,9246975,1.513776,-0.416386,0.274988,-2.485,-17.675,-30.5025
487,9247072,1.4546059999999998,-0.23058,0.306586,-10.64,-15.6275,-26.8275
488,9247168,1.316746,-0.07600599999999999,0.28621199999999997,-15.5575,-3.57,-22.2075
489,9247265,1.1538760000000001,0.075396,0.135664,-21.4375,12.74,-18.2175
490,9247362,0.9512341000000001,0.10516400000000001,-0.274988,-24.885,32.62,-11.795
491,9247459,0.9073141,-0.035624,-1.113372,-44.415,61.4425,-11.1475
492,9247555,0.9974719999999999,-0.562908,-1.4543620000000002,-37.135,96.86251,-22.085
493,9247652,1.407148,-1.074942,-0.808738,-23.4675,128.1875,-33.1275
494,9247749,1.529148,-1.496086,-0.8263060999999999,-75.5475,72.87,-43.7675
495,9247846,1.336144,-1.206214,-0.558394,-115.01,-4.4625,-60.095
496,9247942,1.043588,-0.09235399999999999,-0.672342,-143.8675,-34.965,-82.2675
497,9248039,1.0029620000000001,0.348554,-0.8375299999999999,-127.1725,-59.465,-95.3225
498,9248136,1.1117860000000002,0.633912,-0.576206,-83.755,-66.0625,-97.8075
499,9248233,1.17059,0.9906401,-0.453596,-55.2825,-64.9775,-74.2175
500,9248329,1.281854,1.0711600000000001,-0.52582,-25.235,-75.8625,-47.0225
501,9248426,1.439478,0.9036540000000001,-0.326594,-0.6125,-79.3625,-27.895
502,9248523,1.6112540000000002,0.524112,-0.20556999999999997,9.1525,-68.1625,-9.0125
503,9248620,1.8117,0.14871800000000002,-0.14457,15.1725,-44.555,14.7875
504,9248716,1.558916,-0.055388,-0.12895399999999999,9.17,-18.935,27.7025
505,9248813,1.0492,-0.135298,-0.12248800000000001,-1.435,-22.47,27.9125
506,9248910,0.736392,-0.202154,-0.113704,-10.745,-40.7225,21.7525
507,9249006,0.612196,-0.28914,-0.12212200000000001,-11.13,-34.8075,9.9575
508,9249103,0.5665680000000001,-0.353556,-0.121512,-9.6775,-21.42,2.3975
509,9249200,0.534726,-0.32561799999999996,-0.12358599999999999,-13.7725,-20.51,0.245
510,9249297,0.48543800000000004,-0.21289,-0.135298,-20.3175,-28.945,-0.4375
511,9249393,0.39771999999999996,-0.07625,-0.07625,-23.2225,-33.8275,1.085
512,9249490,0.3233,-0.009637999999999999,-0.08857201,-25.9,-32.6025,5.32
513,9249587,0.24863600000000002,-0.042578,-0.094306,-31.9725,-38.85,9.24
514,9249684,0.160064,-0.122244,-0.055022,-33.9325,-42.1575,15.1025
515,9249781,0.14566800000000002,-0.242536,-0.036722000000000005,-36.8725,-38.5,21.4725
516,9249877,0.22143000000000002,-0.35197,-0.042334,-42.6125,-30.485,25.795
517,9249974,0.340258,-0.37197800000000003,-0.039406000000000004,-51.905,-22.12,26.8275
518,9250071,0.466528,-0.35026199999999996,-0.024034,-60.305,-16.485,23.0825
519,9250168,0.56547,-0.295606,0.00061,-68.3025,-10.5875,17.64
520,9250264,0.66063,-0.22045399999999998,0.026108,-73.9375,1.1375,13.4225
521,9250361,0.719434,-0.161772,0.05977999999999999,-76.2125,15.19,11.69
522,9250458,0.74725,-0.139324,0.07393200000000001,-79.6775,24.4475,12.25
523,9250555,0.7394421,-0.163846,0.102602,-81.13,31.4825,12.215
524,9250651,0.800442,-0.157868,0.14188599999999998,-83.96500999999999,35.7875,11.13
525,9250748,0.8624181000000001,-0.1586,0.154452,-84.84,38.395,12.7225
526,9250845,0.874252,-0.208132,0.183488,-81.795,36.4525,10.5875
527,9250942,0.8479,-0.132248,0.176778,-77.875,36.9425,7.0175
528,9251038,0.9863700000000001,-0.054412,0.15176800000000001,-74.025,30.0125,2.1175
529,9251135,1.142774,0.03538,0.08442401,-64.6275,15.05,-1.9775
530,9251232,1.300032,0.16287000000000001,-0.014762,-48.5275,11.6375,-4.5325
531,9251329,1.473394,0.282918,-0.11626600000000001,-28.2275,19.4775,-1.855
532,9251425,1.6727419999999997,0.35233600000000004,-0.08576601,-9.485,26.285,6.8775
533,9251522,1.8676979999999999,0.505934,0.000366,1.89,21.07,19.18
534,9251619,1.9644439999999999,0.502884,0.195322,13.02,-6.3175,23.45
535,9251716,1.943216,0.230336,0.277062,25.5325,-38.115,22.47
536,9251812,1.7755880000000002,0.057096,0.195322,33.25,-53.7775,18.3225
537,9251909,1.3710360000000001,-0.12932000000000002,0.028304000000000003,29.26,-38.185,13.58
538,9252006,1.010404,-0.302804,-0.40272199999999997,20.23,0.665,13.265
539,9252103,0.786412,-0.25986,-1.036634,23.7125,40.8975,20.0725
540,9252199,0.78873,0.119926,-1.115812,66.08,55.58,21.2275
541,9252296,1.048468,0.288164,-0.8274040000000001,101.99,49.4375,16.2575
542,9252393,1.488644,0.622078,-0.95465,81.34000999999999,26.0925,34.965
543,9252490,1.52195,0.673928,-0.8907221,95.3225,5.6175,66.85
544,9252586,1.244522,0.329888,-0.679906,103.635,-10.0275,90.86
545,9252683,1.072014,-0.096624,-0.459696,97.79,-50.645,87.4475
546,9252780,0.9059721,-0.44237200000000004,-0.36880599999999997,54.32,-56.35,77.0175
547,9252877,0.8541221,-0.6993041,-0.363682,19.285,-28.4025,68.8275
548,9252973,0.973194,-0.8632719999999999,-0.443592,14.4025,12.8975,56.14
549,9253070,1.1259379999999999,-0.935008,-0.33318200000000003,23.03,31.43,47.0225
550,9253167,1.306498,-0.8906,-0.29743600000000003,7.0875,-1.82,31.5175
551,9253264,1.514142,-0.6946681,-0.344406,-17.3075,-43.6275,5.18
552,9253360,1.642608,-0.288896,-0.296094,-16.8525,-57.1725,-25.55
553,9253457,1.405318,0.065514,-0.249612,-3.395,-53.9525,-35.2275
554,9253554,1.016626,0.21106,-0.22204000000000002,15.6975,-51.38,-30.7825
555,9253651,0.8194739999999999,0.282186,-0.173362,30.1875,-42.735,-31.5175
556,9253747,0.7664041,0.28938400000000003,-0.143716,40.915,-25.095,-29.4875
557,9253844,0.769454,0.239608,-0.185928,47.6,-16.7125,-27.475
558,9253941,0.7409060000000001,0.166774,-0.180316,51.7475,-19.0575,-28.0
559,9254038,0.622688,0.07625,-0.134932,56.28,-22.0325,-27.9125
560,9254134,0.430782,0.038551999999999996,-0.09186601,57.9075,-23.38,-25.375
561,9254231,0.255712,0.048556,-0.058682000000000005,57.575,-23.1175,-22.855
562,9254328,0.13480999999999999,0.07515201,-0.062586,57.505,-21.7,-23.1
563,9254425,0.109922,0.10504200000000001,-0.08893801,56.595,-25.375,-25.375
564,9254521,0.154086,0.155672,-0.075762,56.42,-30.7825,-27.58
565,9254618,0.254736,0.19251600000000002,-0.07222401,58.695,-30.7125,-30.3625
566,9254715,0.386252,0.1708,-0.128344,58.9225,-26.81,-31.5525
567,9254812,0.48068,0.106628,-0.108214,59.7275,-21.455,-29.4525
568,9254908,0.550098,0.0427,-0.026718000000000002,65.0125,-7.945,-25.1125
569,9255005,0.5959701,-0.07978801,0.053314,72.1525,9.7125,-22.2775
570,9255102,0.703574,-0.24888000000000002,0.113094,78.12,21.14,-19.88
571,9255199,0.76555,-0.37637,0.143716,76.195,19.9675,-15.4175
572,9255295,0.85156,-0.407358,0.142862,67.795,7.98,-16.17
573,9255392,0.9784401,-0.346114,0.177876,64.925,1.47,-18.375
574,9255489,1.080432,-0.24156,0.126148,59.9725,1.26,-17.6225
575,9255586,1.15168,-0.119804,0.063928,53.3925,3.815,-18.4975
576,9255682,1.2189020000000002,-0.035868000000000004,0.045872,51.5375,6.02,-21.3325
577,9255779,1.2627,0.006832001,0.059536,54.005,9.695,-26.1275
578,9255876,1.265262,-0.020618,0.06380599999999999,56.1575,15.68,-33.5475
579,9255973,1.20902,-0.102358,0.05624199999999999,54.2325,20.755,-37.8175
580,9256070,1.116788,-0.23533800000000002,0.09589201,50.715,20.7725,-36.715
581,9256166,1.020286,-0.284992,0.20703400000000002,49.1925,14.5425,-30.905
582,9256263,1.072502,-0.41968,0.22801799999999997,36.2775,3.4825,-34.0025
583,9256360,1.1897440000000001,-0.46908999999999995,0.204716,19.425,-3.6925,-36.785
584,9256456,1.360544,-0.5368,0.22277199999999997,8.75,-0.8225,-37.73
585,9256553,1.327604,-0.463844,0.305244,0.0,5.25,-31.045
586,9256650,1.248792,-0.368684,0.379054,-8.4175,3.885,-22.33
587,9256747,1.1239860000000002,-0.197152,0.319274,-16.1175,-4.27,-12.425
588,9256843,1.0255319999999999,-0.013054,0.12566,-21.6475,-2.17,-5.6525
589,9256940,0.8554641,0.121878,-0.620492,-28.63,9.9925,4.41
590,9257037,0.88328,0.05587601,-1.639802,-41.0025,43.5575,5.6875
591,9257134,0.880718,-0.209352,-1.523536,-15.575,102.97,-2.6775
592,9257230,1.339438,-0.775798,-0.49300200000000005,-2.17,122.6575,-20.4575
593,9257327,1.669936,-1.457168,-0.8729100000000001,-66.36,33.425,-43.61
594,9257424,1.589538,-0.8885261000000001,-0.98149,-116.1125,-20.8075,-71.75
595,9257521,1.466928,0.030012,-1.0293139999999998,-120.8725,-14.385,-102.69
596,9257617,1.4934020000000001,0.32866799999999996,-0.8076399999999999,-94.045,-21.7875,-125.6325
597,9257714,1.379576,0.351238,-0.37698000000000004,-54.46,-33.6175,-114.6775
598,9257811,1.368108,0.44688599999999995,-0.44371400000000005,-43.3475,-68.775,-69.58
599,9257908,1.4929139999999999,0.72163,-0.5160600000000001,-32.0775,-93.135,-36.9775
600,9258004,1.637972,0.7659161,-0.369904,-1.085,-77.525,-19.005
601,9258101,1.849032,0.48495,-0.198372,16.625,-54.5825,0.2625
602,9258198,1.781566,0.09028,-0.101382,10.255,-48.0025,26.1625
603,9258295,1.22488,-0.11626600000000001,-0.12529400000000002,-7.8925,-49.735,38.2725
604,9258391,0.7704300000000001,-0.152866,-0.108946,-20.16,-52.3075,32.9
605,9258488,0.587918,-0.18422,-0.016592,-21.2275,-35.7875,21.35
606,9258585,0.5946279999999999,-0.287798,0.003782,-22.68,-11.34,8.3475
607,9258682,0.638548,-0.345382,-0.0549,-29.12,-1.3475,2.9225
608,9258778,0.624274,-0.312686,-0.082838,-33.915,-8.6975,1.9775
609,9258875,0.551806,-0.257054,-0.055510000000000004,-34.7725,-19.2675,1.2425
610,9258972,0.46042799999999995,-0.21838000000000002,-0.00488,-35.42,-26.67,5.0225
611,9259069,0.34526,-0.15311,-0.002684,-37.205,-28.6475,14.49
612,9259165,0.245952,-0.07637200000000001,-0.019154,-40.3725,-27.79,23.065
613,9259262,0.185074,-0.10736,-0.027694,-40.9675,-27.265,28.4725
614,9259359,0.164944,-0.167384,-0.043066,-43.715,-27.055,35.1225
615,9259456,0.213988,-0.21411,-0.036478,-48.16,-24.745,39.7775
616,9259552,0.29792399999999997,-0.222894,-0.033916,-52.99,-18.795,39.6725
617,9259649,0.411872,-0.187392,-0.047945999999999996,-59.22,-12.005,34.0025
618,9259746,0.5058121,-0.126392,-0.02257,-64.89,-5.7925,25.3575
619,9259843,0.6019479999999999,-0.10126,0.00793,-71.6625,2.59,16.0125
620,9259939,0.6828341,-0.08235001,0.03538,-76.1075,12.0925,9.205
621,9260036,0.7479819999999999,-0.079666,0.046116000000000004,-79.485,21.1225,5.005
622,9260133,0.8280139999999999,-0.06661201,0.104676,-78.7675,26.705,2.1525
623,9260230,1.035902,-0.07893401,0.13725,-80.6225,27.685,0.385
624,9260326,1.1514360000000001,-0.107726,0.12212200000000001,-81.2,31.36,-0.1225
625,9260423,0.8755940000000001,-0.071858,0.171532,-79.2925,32.865,0.1225
626,9260520,0.8818159999999999,-0.009882,0.163358,-77.9275,36.715,-2.835
627,9260617,0.958432,0.057584,0.17543599999999998,-72.73,32.06,-5.53
628,9260713,1.0528600000000001,0.08344800000000001,0.117974,-63.0175,23.695,-2.52
629,9260810,1.150216,0.095038,-0.025863999999999998,-49.7,17.01,5.8625
630,9260907,1.221342,0.101138,-0.135298,-30.835,18.0425,16.8875
631,9261004,1.389214,0.10687200000000001,-0.082472,-10.64,17.85,24.465
632,9261100,1.6750599999999998,0.297558,0.011712,-0.2275,4.76,32.1825
633,9261197,1.768268,0.41760600000000003,0.149328,8.715,-19.6525,36.68
634,9261294,1.7317900000000002,0.280844,0.209718,16.345,-32.97,32.4275
635,9261391,1.622966,0.087108,0.163236,18.095,-28.525,27.37
636,9261487,1.312964,-0.035502,-0.024766,19.6875,-16.03,25.0425
637,9261584,1.013942,-0.22582199999999997,-0.538996,10.7275,8.7325,24.8675
638,9261681,0.978318,-0.042456,-1.013454,18.9175,36.1725,26.495
639,9261778,1.137894,0.362706,-0.9030440000000001,70.665,48.4225,29.05
640,9261874,1.369206,0.6171979999999999,-0.61793,83.44001,69.72,40.39
641,9261971,1.693482,0.9091440000000001,-0.838994,78.47,41.02,57.6275
642,9262068,1.554402,0.540948,-1.019066,102.0775,2.73,86.8875
643,9262165,1.125694,0.010614,-0.675758,108.255,-29.3825,97.3525
644,9262261,0.9328120000000001,-0.281088,-0.44639799999999996,70.2625,-62.1775,87.395
645,9262358,0.7422481,-0.6250060000000001,-0.387106,30.8875,-54.5475,79.45
646,9262455,0.8114220999999999,-0.8826700000000001,-0.47787399999999997,5.495,-9.1875,66.3775
647,9262552,1.0704280000000002,-1.014918,-0.478362,10.5,27.1775,55.5625
648,9262648,1.327482,-1.1539979999999999,-0.35282399999999997,6.44,23.1525,43.785
649,9262745,1.5464719999999998,-1.08336,-0.278038,-19.4425,-12.915,20.5625
650,9262842,1.738378,-0.670146,-0.262178,-40.67,-42.8575,-3.5
651,9262939,1.77571,-0.201544,-0.24656199999999998,-38.6575,-45.465,-16.4325
652,9263035,1.4422840000000001,0.047092,-0.192882,-27.58,-44.8,-13.6325
653,9263132,1.092876,0.13639600000000002,-0.18446400000000002,-17.3075,-53.1825,-8.2075
654,9263229,0.8857200999999999,0.216306,-0.134322,-8.155,-45.4125,-7.2975
655,9263326,0.77836,0.217648,-0.11919400000000001,1.3125,-25.585,-9.0475
656,9263422,0.7224841,0.14945,-0.13785999999999998,5.46,-16.7125,-11.865
657,9263519,0.64782,0.081496,-0.10650599999999999,7.5425,-21.6825,-13.965
658,9263616,0.539606,0.035868000000000004,-0.07686,9.1175,-27.3,-15.75
659,9263713,0.424072,0.023668,-0.07002799999999999,9.765,-28.8925,-15.12
660,9263809,0.31049,0.010492,-0.033794,11.0075,-32.3575,-13.23
661,9263906,0.217648,0.028548,-0.0427,12.285,-35.0175,-13.1075
662,9264003,0.20727800000000002,0.056729999999999996,-0.057462,13.1075,-36.3825,-16.2225
663,9264100,0.241804,0.09930800000000001,-0.055265999999999996,17.57,-36.4875,-19.7575
664,9264196,0.30341399999999996,0.12980799999999998,-0.06124401,23.6425,-35.665,-23.8
665,9264293,0.359656,0.16409,-0.07991000000000001,28.9275,-35.105,-26.9325
666,9264390,0.39894,0.188612,-0.05246,36.015,-29.1375,-28.3675
667,9264487,0.46726,0.170922,0.026474,44.52,-16.6075,-27.755
668,9264583,0.5321640000000001,0.148352,0.054167999999999994,48.02,-8.855,-26.39
669,9264680,0.596946,0.08637601,0.05002,50.1375,-2.94,-25.3225
670,9264777,0.677832,-0.00549,0.08967,53.3575,7.4375,-23.8525
671,9264874,0.7399300999999999,-0.10650599999999999,0.09906401,54.4075,23.7475,-22.085
672,9264970,0.8076399999999999,-0.143594,0.15420799999999998,61.4425,38.7625,-19.3375
673,9265067,0.87169,-0.172508,0.165798,64.995,37.8875,-17.3425
674,9265164,0.943426,-0.128344,0.091134,57.3125,25.095,-16.205
675,9265261,1.037366,-0.087108,0.061732,57.61,17.57,-16.8875
676,9265357,1.20414,-0.080154,0.030256,58.695,18.0775,-18.5675
677,9265454,1.3388280000000001,-0.12431800000000001,0.028426,57.5925,30.135,-23.03
678,9265551,1.230858,-0.249246,0.07307801,56.945,46.095,-29.26
679,9265648,1.103856,-0.38552,0.152134,48.16,39.9875,-34.0025
680,9265744,1.2134120000000002,-0.48702399999999996,0.219966,31.4125,16.9925,-46.13
681,9265841,1.3825040000000002,-0.542656,0.23838800000000002,12.3375,-1.575,-53.9175
682,9265938,1.5944180000000001,-0.595238,0.26913200000000004,-0.77,-10.815,-52.0975
683,9266035,1.66225,-0.592432,0.352092,-5.6525,-8.645,-37.485
684,9266131,1.530856,-0.407968,0.350628,-11.375,3.045,-17.8325
685,9266228,1.30235,-0.217892,0.11211800000000001,-24.8675,5.5125,-9.03
686,9266325,1.063352,-0.040016,-0.30792800000000004,-35.0875,5.18,-6.4575
687,9266422,1.080554,0.001952,-1.083726,-50.4875,31.1325,-4.0075
688,9266518,1.013332,-0.17763199999999998,-1.2347620000000001,-39.795,66.53501,-2.1525
689,9266615,1.099586,-0.406016,-0.6703899999999999,-24.85,93.695,-5.8975
690,9266712,1.4330120000000002,-1.1186180000000001,-0.873764,-62.0725,56.8925,-35.7
691,9266809,1.328336,-1.065548,-0.742492,-94.09751,20.58,-54.9325
692,9266905,1.123864,-0.346602,-0.631594,-105.8575,14.07,-73.2725
693,9267002,1.1331360000000001,0.117852,-0.606584,-106.5225,-15.26,-84.01751
694,9267099,1.19804,0.330254,-0.33184,-73.7625,-36.015,-95.5325
695,9267196,1.208166,0.5441199999999999,-0.33061999999999997,-51.485,-43.575,-81.795
696,9267292,1.32675,0.790804,-0.5084960000000001,-32.34,-60.8125,-57.785
697,9267389,1.3917760000000001,0.952942,-0.397476,-9.8875,-61.7225,-40.8975
698,9267486,1.566236,0.8076399999999999,-0.148108,-0.805,-50.3825,-27.1775
699,9267583,1.81414,0.38247,-0.122366,-4.13,-35.91,-13.44
700,9267679,1.693238,-0.0034159999999999998,-0.189344,-5.705,-15.4175,7.6125
701,9267776,1.288076,-0.15396400000000002,-0.16909200000000002,-10.9725,-13.65,12.1275
702,9267873,0.9628241,-0.21862399999999999,-0.107726,-17.29,-23.17,9.24
703,9267970,0.782752,-0.280966,-0.090646,-20.6675,-19.5125,1.2775
704,9268067,0.714554,-0.32208000000000003,-0.082472,-21.105,-9.1525,-5.775
705,9268163,0.68808,-0.320128,-0.064172,-23.975,-6.93,-9.1525
706,9268260,0.6348881,-0.251686,-0.06649,-30.31,-11.725,-9.59
707,9268357,0.5158159999999999,-0.155916,-0.031842,-33.6875,-16.94,-5.0575
708,9268454,0.385642,-0.10321199999999998,-0.00366,-35.455,-17.6225,2.1175
709,9268550,0.34586999999999996,-0.117974,-0.038064,-39.095,-15.3825,8.3825
710,9268647,0.322812,-0.159332,-0.0488,-41.3175,-15.365,17.3775
711,9268744,0.30744,-0.24912399999999998,-0.028548,-43.5925,-13.8075,25.55
712,9268841,0.301584,-0.29524,-0.02623,-48.6325,-7.5425,30.3975
713,9268937,0.3477,-0.27828200000000003,0.014396,-53.7775,-2.1875,30.555
714,9269034,0.422608,-0.24265799999999998,0.052826,-58.8525,-1.61,25.55
715,9269131,0.516426,-0.17946199999999998,0.062586,-65.8,-2.345,16.695
716,9269228,0.615246,-0.12175599999999999,0.081862,-71.015,0.7875,8.435
717,9269324,0.701012,-0.07259,0.122732,-71.4,7.805,1.47
718,9269421,0.745664,-0.026595999999999998,0.147376,-71.6975,10.4475,-2.6425
719,9269518,0.8332601000000001,-0.036722000000000005,0.144082,-71.505,11.9875,-3.85
720,9269615,0.9247601000000001,-0.01952,0.10650599999999999,-68.9325,14.63,-3.2025
721,9269711,0.7993439999999999,0.01464,0.114558,-64.89,9.9925,0.1925
722,9269808,0.735172,0.009150001,0.116632,-57.82,13.5275,2.1175
723,9269905,0.7861680999999999,-0.019764,0.062341999999999995,-50.575,26.6525,2.2225
724,9270002,0.721508,0.016714,0.06771001,-41.09,37.03,2.555
725,9270098,0.700646,0.10394400000000001,0.08052000000000001,-34.615,35.21,-1.26
726,9270195,0.817522,0.17543599999999998,0.00488,-28.7525,18.97,-7.21
727,9270292,0.9638,0.214354,-0.04819,-15.89,5.1275,-8.295
728,9270389,1.022604,0.24631799999999998,-0.02745,-2.1875,7.035,-6.93
729,9270485,1.1331360000000001,0.21301199999999998,0.09186601,9.9925,9.59,-9.0125
730,9270582,1.286246,0.2135,0.177022,19.3375,3.0275,-8.1025
731,9270679,1.3821379999999999,0.179096,0.14152,25.6025,-11.76,-2.6775
732,9270776,1.455826,0.0488,0.07600599999999999,29.4175,-29.085,-0.63
733,9270872,1.4692459999999998,-0.104066,0.152988,28.8225,-30.8175,0.8225
734,9270969,1.253916,-0.38051799999999997,0.081252,10.045,-0.175,7.6825
735,9271066,0.9221981,-0.53741,-0.323178,6.58,48.9125,11.3225
736,9271163,0.742492,-0.247416,-1.297226,23.905,66.4825,6.65
737,9271259,1.051518,-0.020252000000000003,-1.91845,83.195,19.635,-13.6675
738,9271356,1.21939,0.23606999999999997,-0.801296,152.285,14.6475,10.2025
739,9271453,1.4126379999999998,0.636962,-0.377712,95.1125,47.1625,59.815
740,9271550,1.42984,0.72285,-0.987224,89.425,21.2275,91.8225
741,9271646,1.064938,0.023546,-0.9053620000000001,120.3475,-25.9,94.88501
742,9271743,0.8718120999999999,-0.332938,-0.307196,77.2975,-49.84,83.44001
743,9271840,0.745908,-0.49654,-0.310002,23.24,-27.3,68.495
744,9271937,0.95831,-0.685762,-0.55388,4.865,8.505,48.685
745,9272033,1.290394,-0.885476,-0.469578,10.64,16.205,28.21
746,9272130,1.570384,-0.840824,-0.56425,7.875,-14.2975,15.1375
747,9272227,1.997628,-0.401868,-0.57218,-0.4725,-42.07,-4.69
748,9272324,2.243702,0.101382,-0.410042,9.6775,-26.39,-31.465
749,9272420,1.62626,0.357704,-0.30561,32.935,-2.59,-23.905
750,9272517,1.0589600000000001,0.348554,-0.277062,56.4375,-19.95,-13.2125
751,9272614,0.8607100000000001,0.306464,-0.27755,68.075,-25.375,-17.255
752,9272711,0.92232,0.233264,-0.22862800000000003,79.0825,-13.3175,-16.94
753,9272807,1.0377319999999999,0.152866,-0.196908,85.8025,-13.86,-14.2975
754,9272904,1.07726,0.09150001,-0.14164200000000002,89.4425,-21.8925,-17.8325
755,9273001,1.013576,0.061366,-0.111508,91.595,-25.62,-24.605
756,9273098,0.9358620999999999,0.060877999999999995,-0.110654,91.455,-26.6875,-31.4125
757,9273194,0.904752,0.08296,-0.101626,90.89499,-27.6675,-37.1175
758,9273291,0.901702,0.074542,-0.08296,94.115,-27.685,-43.225
759,9273388,0.852902,0.07173600000000001,-0.07722601,100.24,-28.595,-46.1825
760,9273485,0.8033701,0.04867801,-0.06039,108.6225,-33.075,-48.3
761,9273581,0.784216,0.001464,-0.034526,116.6725,-38.22,-48.895
762,9273678,0.78751,-0.07503,0.027694,127.75,-35.5075,-47.8625
763,9273775,0.7787261,-0.12456199999999999,0.093696,136.605,-29.1375,-46.0425
764,9273872,0.737124,-0.097234,0.16958,140.35,-25.8475,-44.59
765,9273968,0.723582,-0.07173600000000001,0.200568,140.5075,-23.625,-45.99
766,9274065,0.745542,-0.06356201,0.192394,138.1975,-20.5975,-47.355
767,9274162,0.759572,-0.07991000000000001,0.170922,136.8325,-17.3075,-45.5525
768,9274259,0.811056,-0.1098,0.13298,135.3975,-15.6275,-43.225
769,9274355,0.821304,-0.139324,0.070638,132.4225,-19.355,-40.4775
770,9274452,0.7816541,-0.141032,0.000122,129.36,-24.4125,-36.7675
771,9274549,0.7204100999999999,-0.10187,-0.05002,122.5525,-21.77,-33.845
772,9274646,0.6851520999999999,-0.06380599999999999,-0.009150001,118.3525,-8.7675,-33.4075
773,9274742,0.668316,-0.07856801,0.009272001,116.865,2.52,-34.125
774,9274839,0.627568,-0.14005599999999999,-0.057462,111.685,3.9375,-33.705
775,9274936,0.614392,-0.20288599999999998,-0.121878,103.25,2.94,-33.53
776,9275033,0.6613621000000001,-0.19959200000000002,-0.132736,96.42501,6.685,-36.19
777,9275129,0.6897880999999999,-0.201544,-0.12895399999999999,91.805,7.63,-38.255
778,9275226,0.676612,-0.29792399999999997,-0.11248399999999999,86.94,-2.2575,-38.045
779,9275323,0.623054,-0.342942,-0.046482,82.32,-15.365,-33.6525
780,9275420,0.573766,-0.288042,-0.125904,85.41751,-21.805,-27.475
781,9275517,0.553148,-0.220698,-0.345992,92.54001,-34.3,-24.0275
782,9275613,0.5914560000000001,-0.193248,-1.030168,105.35,-45.36,-25.8475
783,9275710,0.8188641,-0.292556,-1.277828,106.1725,-40.4775,-30.1
784,9275807,0.940254,-0.794708,-1.111298,85.83751,-23.1175,-38.7975
785,9275904,0.9086559999999999,-1.069696,-0.72102,72.59,30.1875,-30.38
786,9276000,1.11752,-1.1503379999999999,-0.7509100000000001,87.185,16.0825,-39.5325
787,9276097,1.7992560000000002,-0.5757180000000001,-1.69092,51.9575,-32.1125,-42.07
788,9276194,1.908202,0.17641199999999999,-0.46128199999999997,52.7275,-55.0025,-53.7425
789,9276291,2.403278,-0.02928,-0.372344,53.8475,-85.92501,-61.705
790,9276387,2.425604,-0.156404,-0.751642,93.2575,-26.915,-55.055
791,9276484,1.8092599999999999,0.1159,-0.647576,107.6425,-0.7,-28.2975
792,9276581,1.7832740000000002,0.39711,-0.54351,103.6,-32.9175,-42.14
793,9276678,1.710318,0.199226,-0.345382,109.5675,-25.585,-42.2975
794,9276774,1.513288,-0.111142,-0.335622,130.62,-23.66,-30.7125
795,9276871,1.355542,-0.126636,-0.25607800000000003,143.5875,-35.5775,-23.975
796,9276968,1.2639200000000002,-0.05624199999999999,-0.176778,153.9825,-44.2575,-27.8425
797,9277064,1.235494,-0.066246,-0.173362,160.4575,-42.805,-33.3025
798,9277161,1.256356,-0.15433,-0.12322000000000001,163.73,-41.335,-38.395
799,9277258,1.2608700000000002,-0.25046599999999997,-0.056608000000000006,163.4675,-40.7225,-41.3875
800,9277355,1.242692,-0.260714,-0.020374,160.2475,-41.1425,-45.7625
801,9277451,1.211216,-0.20410599999999998,0.00549,153.195,-41.9825,-52.325
802,9277548,1.1239860000000002,-0.140544,-0.0051240009999999996,146.09,-43.19,-57.3825
803,9277645,0.9752681000000001,-0.106018,-0.007442,141.225,-43.82,-60.585
804,9277742,0.8346021,-0.14274,0.004636001,138.0925,-40.1275,-63.805
805,9277838,0.690886,-0.21045,0.028669999999999998,142.5375,-34.4575,-64.855
806,9277935,0.6070720000000001,-0.282918,0.031232,146.8775,-27.3525,-64.855
807,9278032,0.587796,-0.31476,0.041358,151.095,-21.3675,-65.275
808,9278129,0.582306,-0.324886,0.033916,152.32,-19.3725,-66.675
809,9278226,0.592188,-0.33855,0.05355801,152.2675,-18.27,-70.105
810,9278322,0.5675439999999999,-0.360388,0.054167999999999994,150.78,-14.9625,-73.885
811,9278419,0.580476,-0.37746799999999997,0.04392,149.2925,-12.635,-79.3975
812,9278516,0.6156119999999999,-0.360266,-0.00549,152.1275,-15.715,-86.3625
813,9278612,0.656116,-0.277794,-0.006954000000000001,158.2,-17.4825,-93.555
814,9278709,0.701012,-0.163358,0.002562,162.2775,-13.1775,-102.375
815,9278806,0.7496901,-0.07344400000000001,0.024644,168.035,-5.285,-111.2125
816,9278903,0.772016,-0.019764,0.035013999999999997,172.6025,2.135,-117.3375
817,9279000,0.790682,-0.02135,0.07173600000000001,176.995,7.315,-121.0475
818,9279096,0.818498,-0.067832,0.11041,177.275,10.0625,-120.7325
819,9279193,0.8797421000000001,-0.127002,0.135298,175.9625,13.16,-119.2975
820,9279290,0.981124,-0.234118,0.168238,175.595,16.52,-117.145
821,9279387,1.029924,-0.3782,0.164212,176.295,20.8075,-111.2475
822,9279483,1.044564,-0.47994799999999993,0.124196,177.1525,25.795,-102.9525
823,9279580,1.0473700000000001,-0.536434,0.070638,176.435,26.5825,-93.7825
824,9279677,0.9945440000000001,-0.577914,0.011468,171.9025,24.605,-82.81
825,9279774,0.895358,-0.581208,-0.188612,167.6325,36.33,-71.1025
826,9279870,0.8076399999999999,-0.5404601,-0.383934,166.67,57.9425,-58.2575
827,9279967,0.769454,-0.45688999999999996,-0.5172800999999999,165.795,74.8825,-46.5325
828,9280064,0.800198,-0.306342,-0.432856,160.7725,55.6325,-37.8
829,9280161,0.844972,-0.140422,-0.446154,151.9175,8.54,-26.11
830,9280257,0.91012,-0.079178,-0.516914,152.915,-11.69,-14.98
831,9280354,1.047248,-0.060267999999999995,-0.5422899999999999,158.83,-6.93,-9.87
832,9280451,1.19499,-0.013908000000000002,-0.5249659999999999,158.2175,-3.4825,-2.0475
833,9280548,1.296494,0.00427,-0.501054,159.2675,-3.0625,6.3
834,9280644,1.315404,0.010126000000000001,-0.411384,159.3375,-4.7075,8.12
835,9280741,1.308816,0.035624,-0.413336,153.475,-10.4825,2.1175
836,9280838,1.348222,0.07442,-0.4514,149.6425,-17.605,-10.605
837,9280935,1.508286,0.022448,-0.452376,152.1975,-20.6675,-24.325
838,9281031,1.638582,-0.049166,-0.460794,161.6475,-18.095,-28.7525
839,9281128,1.6811599999999998,-0.10540799999999999,-0.46116,172.0075,-13.755,-27.72
840,9281225,1.529148,-0.156892,-0.413214,177.695,-16.7125,-27.3525
841,9281322,1.362252,-0.184952,-0.373564,177.5725,-27.7025,-33.0575
842,9281418,1.263188,-0.13542,-0.38308000000000003,177.38,-31.0975,-42.455
843,9281515,1.18706,-0.036233999999999995,-0.364536,179.0775,-34.1075,-52.36
844,9281612,1.10532,0.045018,-0.32025,180.5125,-41.3,-62.02
845,9281709,1.0521280000000002,0.119316,-0.273768,183.1725,-40.81,-73.0625
846,9281805,1.027728,0.201422,-0.24424400000000002,187.32,-37.135,-82.39
847,9281902,1.004182,0.239242,-0.185928,195.7375,-35.6475,-88.6375
848,9281999,0.9600181000000001,0.25522399999999995,-0.10760399999999999,204.5575,-37.5025,-92.5225
849,9282096,0.9029221,0.24351199999999998,-0.039772,208.74,-40.5475,-95.76
850,9282192,0.8254520000000001,0.252906,-0.03965,207.4975,-40.1975,-98.105
851,9282289,0.780312,0.223504,-0.033916,205.0125,-36.8375,-101.3425
852,9282386,0.7044279999999999,0.131394,-0.04819,203.9275,-29.4875,-101.745
853,9282483,0.6912520000000001,-0.0051240009999999996,-0.012078,207.9175,-20.895,-104.09
854,9282579,0.674782,-0.14945,0.040016,207.48,-8.8025,-104.1075
855,9282676,0.655262,-0.258884,0.074298,201.425,2.835,-101.64
856,9282773,0.6453800000000001,-0.34281999999999996,0.071492,192.29,11.0075,-98.805
857,9282870,0.66551,-0.39723200000000003,0.148108,179.3225,17.5,-91.56
858,9282966,0.64355,-0.44420200000000004,0.20447200000000001,163.03,23.765,-79.0825
859,9283063,0.7259001,-0.4941,0.27718400000000004,152.7925,14.805,-77.9975
860,9283160,0.8692501,-0.502274,0.21411,131.355,-6.5625,-75.25
861,9283257,1.007476,-0.459818,0.16348,113.0675,-15.785,-66.255
862,9283353,1.086166,-0.383446,0.15494000000000002,106.3125,-13.335,-60.7775
863,9283450,1.143506,-0.333426,0.076494,95.48,-8.435,-59.1325
864,9283547,1.1478979999999999,-0.294508,0.067222,89.11,1.2775,-59.605
865,9283644,1.124474,-0.24912399999999998,0.114924,84.14001,11.4275,-62.3525
866,9283740,1.129964,-0.225944,0.160674,80.01,17.2725,-63.5775
867,9283837,1.145092,-0.197762,0.179828,75.67,20.79,-63.105
868,9283934,1.158024,-0.20801,0.173118,71.8375,22.89,-59.0975
869,9284031,1.152046,-0.247538,0.203862,72.1,23.1,-51.6075
870,9284127,1.142652,-0.25058800000000003,0.25424800000000003,73.395,23.59,-42.4725
871,9284224,1.1472879999999999,-0.23387399999999997,0.2684,71.1025,24.92,-33.5825
872,9284321,1.198284,-0.176046,0.25376,67.515,30.975,-26.3725
873,9284418,1.273924,-0.138348,0.21813600000000002,61.5825,34.5975,-20.93
874,9284514,1.295762,-0.14518,0.25925,58.9575,33.39,-15.26
875,9284611,1.256234,-0.14713199999999999,0.196664,56.7525,27.8425,-7.8225
876,9284708,1.207068,-0.125538,0.020130000000000002,51.0825,25.2175,0.4725
877,9284805,1.212436,-0.191052,-0.70638,40.0925,29.75,7.9625
878,9284901,1.6266260000000001,-0.290482,-1.9809139999999998,1.2775,55.65,1.925
879,9284998,1.7868119999999998,0.023912,-0.56303,45.8325,85.6625,-23.835
880,9285095,1.14375,-0.9911281,-0.528626,25.0775,24.7625,-9.4675
881,9285192,0.37881,-1.0584719999999999,-0.19959200000000002,-8.155,17.15,11.935
882,9285288,0.450912,-0.464088,-0.497882,-34.125,31.8675,25.1825
883,9285385,0.8047121,-0.07832401,-0.7515201,-38.7625,25.55,19.3025
884,9285482,1.084946,0.11846199999999998,-0.6612401,-5.0925,2.1175,10.43
885,9285579,1.185108,0.28157600000000005,-0.7208981,4.34,-16.5725,2.3625
886,9285675,1.2944200000000001,0.317688,-0.849242,14.4725,-22.6975,-3.4825
887,9285772,1.5067,0.2684,-0.846924,24.2725,-17.6225,-11.3925
888,9285869,1.6267479999999999,0.157868,-0.621102,39.725,-7.1925,-13.79
889,9285966,1.581608,0.071614,-0.490806,40.88,-9.6075,-5.18
890,9286062,1.321748,0.039406000000000004,-0.47653199999999996,33.425,-17.325,10.0275
891,9286159,1.132282,-0.029036000000000003,-0.446154,34.6325,-17.6225,17.5875
892,9286256,1.148508,-0.06380599999999999,-0.39613400000000004,36.33,-12.6175,18.5675
893,9286353,1.15107,-0.043676,-0.33013200000000004,35.525,-12.39,19.3725
894,9286449,1.0354139999999998,-0.01952,-0.299144,34.2125,-18.6375,20.965
895,9286546,0.8838901,-0.000732,-0.242536,35.0175,-26.5825,19.74
896,9286643,0.7622561,0.045262000000000004,-0.21801399999999999,36.925,-30.905,15.2075
897,9286740,0.65758,0.065148,-0.237046,39.62,-32.9,12.705
898,9286837,0.572912,0.09333,-0.20252,46.9,-34.51,9.2225
899,9286933,0.495442,0.11358199999999999,-0.14396,50.785,-36.225,6.685
900,9287030,0.434198,0.11614400000000001,-0.11895,51.8,-33.39,5.74
901,9287127,0.40821199999999996,0.061366,-0.11028800000000001,50.5225,-23.8875,5.3375
902,9287224,0.407236,-0.055144000000000006,-0.108946,47.7225,-17.4475,4.13
903,9287320,0.39589,-0.17616800000000002,-0.10321199999999998,43.96,-13.65,5.67
904,9287417,0.40052600000000005,-0.303048,-0.0793,38.9025,-7.6125,7.175
905,9287514,0.42419399999999996,-0.36636599999999997,-0.077714,31.85,-1.645,7.6825
906,9287611,0.464942,-0.393938,-0.08052000000000001,25.025,2.8525,5.81
907,9287707,0.523502,-0.40565,-0.063074,17.7625,4.0425,0.875
908,9287804,0.586942,-0.39784200000000003,-0.043066,10.185,3.85,-3.43
909,9287901,0.633912,-0.326594,-0.031964,4.4625,6.895,-5.32
910,9287998,0.658312,-0.261202,-0.016225999999999997,0.5075,13.93,-7.455
911,9288094,0.6764899999999999,-0.17946199999999998,-0.013908000000000002,-5.53,16.1,-9.45
912,9288191,0.657458,-0.065026,0.001342,-13.1775,18.515,-11.0425
913,9288288,0.63379,0.029158,-0.008906,-22.4175,21.7,-11.97
914,9288385,0.6695361,0.027327999999999998,-0.013054,-33.8975,27.685,-13.335
915,9288481,0.732854,-0.030744,-0.05453401,-46.2875,34.5275,-12.425
916,9288578,0.8371639999999999,-0.14688800000000002,-0.062341999999999995,-52.43,34.7025,-9.3975
917,9288675,0.9487940999999999,-0.269742,-0.033794,-53.2,27.7725,-2.975
918,9288772,1.030412,-0.36173,-0.036233999999999995,-49.2275,17.0625,7.1225
919,9288868,1.111664,-0.400404,-0.10418800000000002,-39.1825,12.6525,16.6075
920,9288965,1.230126,-0.377712,-0.150792,-22.19,14.735,23.415
921,9289062,1.391532,-0.318542,-0.177144,0.0,28.595,28.8925
922,9289159,1.52134,-0.185928,-0.146034,17.255,60.165,33.7225
923,9289255,1.719712,0.087962,-0.042822000000000006,22.8725,83.895,34.1775
924,9289352,1.900394,0.360754,0.031964,30.9225,78.6625,31.22
925,9289449,2.01666,0.401502,0.111874,45.5,49.21,27.965
926,9289545,1.7966939999999998,0.1281,0.10004,56.105,14.8925,26.705
927,9289642,1.528416,-0.145058,-0.185684,63.1925,-23.555,14.3675
928,9289739,1.4180059999999999,-0.25437,-0.67161,74.4275,-40.005,4.2
929,9289836,1.462658,-0.30097399999999996,-0.620858,75.7925,-9.87,11.9525
930,9289932,1.425326,-0.014762,-0.571326,61.4075,21.3325,30.0125
931,9290029,1.244522,0.18605,-0.609268,80.2375,12.775,36.68
932,9290126,1.097634,0.091378,-0.543388,77.91,-2.765,32.165
933,9290223,1.001498,-0.0051240009999999996,-0.536556,68.635,-13.9125,16.8875
934,9290319,0.878034,-0.144204,-0.521306,60.7775,-21.3675,7.07
935,9290416,0.8239880999999999,-0.2745,-0.493246,40.7225,-29.155,1.015
936,9290513,0.859002,-0.37271,-0.47555600000000003,25.34,-26.7925,0.49
937,9290610,0.990884,-0.478484,-0.444568,22.54,-10.29,6.72
938,9290706,1.1272799999999998,-0.5404601,-0.44164,21.245,4.795,17.255
939,9290803,1.179008,-0.526308,-0.47458,20.7725,9.17,27.1425
940,9290900,1.150582,-0.47384799999999994,-0.45725600000000005,18.7425,1.3475,30.485
941,9290996,1.071526,-0.45249799999999996,-0.39784200000000003,16.6775,-13.265,27.5975
942,9291093,0.95831,-0.361242,-0.36478,12.67,-21.5425,22.3475
943,9291190,0.89426,-0.23741199999999998,-0.338794,8.715,-23.38,13.2475
944,9291287,0.8773021000000001,-0.119072,-0.316346,6.475,-26.565,2.9225
945,9291383,0.849242,-0.026351999999999997,-0.27389,5.95,-30.135,-5.3725
946,9291480,0.8306979999999999,0.041602,-0.233386,5.285,-31.64,-15.435
947,9291577,0.80093,0.09442801,-0.214232,3.7275,-27.825,-23.8525
948,9291674,0.7330979999999999,0.118096,-0.20447200000000001,4.7425,-22.12,-27.2475
949,9291770,0.643428,0.106018,-0.172508,7.1925,-20.7725,-26.635
950,9291867,0.522892,0.036478,-0.14188599999999998,9.5725,-21.56,-25.2
951,9291964,0.45018,-0.004392,-0.11053199999999999,12.425,-17.3775,-21.0875
952,9292061,0.37502800000000003,-0.01525,-0.112606,12.25,-17.15,-12.81
953,9292157,0.30744,-0.042456,-0.1098,13.405,-20.8075,-6.7725
954,9292254,0.289628,-0.05172801,-0.114436,15.2425,-21.7525,-3.36
955,9292351,0.350506,-0.0061,-0.117486,17.78,-19.32,-1.6275
956,9292448,0.46042799999999995,0.038186000000000005,-0.124196,20.5975,-18.2175,-2.4325
957,9292544,0.5694961,0.07246799999999999,-0.139934,23.765,-15.925,-3.22
958,9292641,0.652822,0.090646,-0.137372,28.63,-10.22,-3.15
959,9292738,0.711992,0.10345599999999999,-0.117852,32.62,-4.83,-3.3775
960,9292835,0.761646,0.08637601,-0.094062,36.3825,3.3425,-5.6175
961,9292931,0.8081281,0.027206,-0.053070000000000006,38.29,10.9025,-8.33
962,9293028,0.8513161,-0.05624199999999999,-0.024522,38.465,17.045,-10.85
963,9293125,0.8846219999999999,-0.151646,0.022813999999999997,40.3375,21.7525,-12.495
964,9293222,0.9131700999999999,-0.21777,0.05624199999999999,42.315,19.46,-13.895
965,9293318,0.94001,-0.227652,0.043432,42.0875,12.075,-16.1
966,9293415,0.980514,-0.205448,-0.055388,40.2675,7.3675,-16.625
967,9293512,1.0462719999999999,-0.159698,-0.130174,40.95,8.085,-16.275
968,9293609,1.1234979999999999,-0.12212200000000001,-0.14493599999999998,48.2825,11.3575,-17.29
969,9293705,1.1923059999999999,-0.07698201,-0.10345599999999999,54.635,13.2825,-19.075
970,9293802,1.224758,-0.049532,-0.009272001,58.6075,17.675,-23.8175
971,9293899,1.2313459999999998,-0.08442401,0.05429,59.01,24.9725,-33.5475
972,9293996,1.182668,-0.15945399999999998,0.101626,53.935,26.635,-44.24
973,9294092,1.168028,-0.260348,0.16201600000000002,46.2,21.175,-52.4825
974,9294189,1.249158,-0.30622,0.169824,36.6975,20.3525,-57.2075
975,9294286,1.4363059999999999,-0.325496,0.12078,31.395,26.215,-57.89
976,9294383,1.6410220000000002,-0.417728,0.135176,34.0375,23.9575,-53.9875
977,9294479,1.6595659999999999,-0.453962,0.254736,38.2375,9.135,-44.345
978,9294576,1.538542,-0.366854,0.312076,29.575,-14.1225,-27.44
979,9294673,1.436428,-0.24997800000000003,0.23838800000000002,20.195,-28.9275,-7.84
980,9294770,1.31577,-0.04148,-0.09784401,5.67,-25.935,13.3525
981,9294866,1.209752,0.142008,-0.55937,-7.91,-5.075,23.6425
982,9294963,1.11569,0.15054800000000002,-1.107272,-22.54,26.04,24.0625
983,9295060,1.0973899999999999,0.052948,-1.185474,-24.7625,50.82,16.8525
984,9295157,1.109834,-0.47031000000000006,-0.9318360000000001,-15.015,49.875,2.1
985,9295253,1.102636,-1.1417979999999999,-1.053836,-43.575,30.345,-19.7225
986,9295350,0.9335440999999999,-1.050176,-0.7494460000000001,-71.71500999999999,16.2925,-36.715
987,9295447,0.752008,-0.429806,-0.42858599999999997,-89.285,-9.205,-45.2025
988,9295544,0.798734,-0.132492,-0.43932200000000005,-95.515,-28.1925,-51.94
989,9295641,0.9883221,0.09235399999999999,-0.373686,-73.1325,-26.53,-57.6625
990,9295737,1.082384,0.38966799999999996,-0.340624,-54.4425,-29.8375,-47.8625
991,9295834,1.12789,0.529724,-0.30292600000000003,-34.5625,-50.785,-30.9225
992,9295931,1.26758,0.599874,-0.41553199999999996,-26.425,-65.1,-11.0775
993,9296028,1.367376,0.5383861,-0.351116,-15.9425,-56.245,4.4975
994,9296124,1.374574,0.24558600000000003,-0.199958,-13.055,-31.955,16.975
995,9296221,1.403122,-0.09272000000000001,-0.248392,-24.99,-24.6225,23.0825
996,9296318,1.19255,-0.282308,-0.243756,-31.0975,-19.775,28.42
997,9296415,1.045906,-0.36892800000000003,-0.14945,-35.525,-21.63,25.8825
998,9296511,0.965752,-0.362462,-0.174094,-40.7925,-13.9825,19.67
999,9296608,0.8410681000000001,-0.30805,-0.186538,-42.245,-7.4025,9.4325
1000,9296705,0.6753920999999999,-0.21301199999999998,-0.172508,-44.975,-15.89,-0.945
1001,9296802,0.54351,-0.15799000000000002,-0.12029200000000001,-48.3525,-25.2875,-11.8125
1002,9296898,0.45286400000000004,-0.11577799999999999,-0.096014,-49.315,-24.6225,-20.9825
1003,9296995,0.33061999999999997,-0.047336,-0.09845401,-48.72,-22.435,-19.145
1004,9297092,0.205326,0.000488,-0.047702,-41.86,-21.3325,-9.1525
1005,9297189,0.20861999999999997,-0.0366,-0.08808401,-39.6025,-21.0175,0.28
1006,9297285,0.289018,-0.099186,-0.09540401,-38.045,-18.445,10.78
1007,9297382,0.3904,-0.146522,-0.074054,-35.9625,-14.875,21.35
1008,9297479,0.509228,-0.17580199999999999,-0.075762,-40.7925,-14.63,28.0525
1009,9297576,0.601338,-0.21228000000000002,-0.08906,-49.7875,-14.6825,28.91
1010,9297672,0.6824680000000001,-0.221552,-0.09906401,-56.6125,-12.0575,25.48
1011,9297769,0.756156,-0.195688,-0.067344,-60.8825,-3.43,18.1125
1012,9297866,0.8033701,-0.130296,-0.045262000000000004,-64.225,6.8425,9.7125
1013,9297963,0.8221581,-0.066246,0.01037,-65.31,14.1925,3.22
1014,9298059,0.8145941,0.005246,0.006587999999999999,-67.0075,18.06,0.1925
1015,9298156,0.8300879999999999,0.027816000000000004,0.002562,-67.1825,20.3,1.26
1016,9298253,0.87474,0.033184,0.016958,-66.885,26.775,3.3075
1017,9298350,0.912316,0.010248,0.017446,-67.025,38.115,5.5125
1018,9298446,0.9378139999999999,-0.055265999999999996,0.011956,-67.3925,48.8425,8.6975
1019,9298543,0.9209780000000001,-0.131394,0.010858,-67.0075,52.0975,9.8
1020,9298640,0.895236,-0.11870599999999999,0.05977999999999999,-63.1225,44.8525,10.955
1021,9298737,0.8826700000000001,-0.01891,0.08784,-56.1925,34.37,10.85
1022,9298833,0.9840521000000001,0.09845401,0.057218,-45.5175,26.005,9.3275
1023,9298930,1.1720540000000002,0.21313400000000002,-0.05172801,-30.3625,18.935,10.92
1024,9299027,1.345172,0.325496,-0.07515201,-13.44,16.2925,16.8
1025,9299124,1.488278,0.401746,0.012444,-6.3175,23.2925,19.565
1026,9299220,1.628212,0.43346599999999996,0.132858,-0.7,27.195,19.46
1027,9299317,1.697874,0.371246,0.134322,12.1625,10.6575,22.75
1028,9299414,1.6776220000000002,0.18666,0.137372,28.2975,-13.0025,22.61
1029,9299511,1.825852,0.0549,0.056729999999999996,31.6225,-29.5225,14.7875
1030,9299607,1.61955,-0.10052799999999999,-0.002196,33.7225,-37.975,9.0125
1031,9299704,1.064084,-0.208132,-0.41370200000000007,38.5875,-2.3625,11.6725
1032,9299801,0.980758,-0.171044,-0.78873,35.2275,49.4375,12.11
1033,9299898,1.06018,0.219234,-0.81435,61.3375,47.18,12.32
1034,9299994,1.271484,0.41406800000000005,-0.6545300000000001,76.1075,23.7475,20.5275
1035,9300091,1.33346,0.537898,-0.720776,81.53251,17.2725,43.9075
1036,9300188,1.097756,0.421022,-0.8281360999999999,93.2225,19.74,65.3275
1037,9300285,0.968192,0.058682000000000005,-0.6036560999999999,91.3675,-1.6275,74.0775
1038,9300381,1.012844,-0.243146,-0.48214399999999996,70.1575,-38.1675,61.9325
1039,9300478,1.00223,-0.534482,-0.461892,35.3675,-45.5525,56.735
1040,9300575,1.003816,-0.753838,-0.432612,17.045,-16.1,52.2025
1041,9300672,1.134112,-0.885842,-0.400404,15.19,19.0575,43.4
1042,9300768,1.274412,-0.9652639999999999,-0.41175,14.14,18.76,32.235
1043,9300865,1.335412,-0.8221581,-0.330986,0.805,-7.9975,12.95
1044,9300962,1.410686,-0.46640600000000004,-0.277062,-12.5475,-35.945,-5.5125
1045,9301059,1.405074,-0.134932,-0.21081599999999998,-13.825,-43.4875,-16.9225
1046,9301155,1.244888,0.041968,-0.173118,-4.2875,-43.0675,-22.155
1047,9301252,1.0151620000000001,0.13078399999999998,-0.179584,4.76,-45.535,-23.3975
1048,9301349,0.871934,0.18629400000000002,-0.15433,11.3575,-40.7925,-26.1275
1049,9301446,0.829966,0.202764,-0.13054000000000002,15.715,-27.4575,-28.0
1050,9301543,0.8195960999999999,0.19154000000000002,-0.171898,17.4125,-19.25,-30.1875
1051,9301639,0.764452,0.13785999999999998,-0.180072,20.58,-20.9125,-30.555
1052,9301736,0.6533100000000001,0.06112201,-0.14396,23.835,-24.29,-28.105
1053,9301833,0.478484,0.010736,-0.09235399999999999,25.3225,-25.27,-22.7675
1054,9301930,0.280844,-0.041968,-0.059048,26.8275,-26.1275,-17.465
1055,9302026,0.203618,-0.031842,-0.031476,29.2775,-25.5325,-15.4875
1056,9302123,0.214598,0.04514,-0.05612,27.615,-24.5525,-12.705
1057,9302220,0.288652,0.098576,-0.075762,28.1225,-26.1625,-14.0525
1058,9302317,0.43236800000000003,0.16775,-0.09272000000000001,32.1475,-27.6325,-17.815
1059,9302413,0.5551,0.17519200000000001,-0.110776,35.105,-28.105,-19.3375
1060,9302510,0.6329359999999999,0.146034,-0.102724,39.7425,-26.53,-18.8125
1061,9302607,0.679784,0.09577000000000001,-0.074786,46.445,-21.21,-17.36
1062,9302704,0.715286,0.0488,-0.028669999999999998,53.935,-13.2825,-14.7
1063,9302800,0.756888,-0.039894,-0.01403,58.4675,-7.0875,-13.44
1064,9302897,0.780922,-0.14347200000000002,-0.025986000000000002,58.31,-1.9775,-13.7725
1065,9302994,0.803614,-0.22045399999999998,-0.009150001,58.345,6.685,-14.0175
1066,9303091,0.845582,-0.24863600000000002,0.028548,60.0075,13.3175,-15.435
1067,9303187,0.90036,-0.208742,0.011224,57.26,12.005,-18.165
1068,9303284,0.9587979999999999,-0.134932,-0.04867801,53.0775,13.1425,-20.93
1069,9303381,1.003816,-0.07332201,-0.023912,55.65,16.66,-22.575
1070,9303478,1.041636,-0.055388,0.024644,59.08,18.5675,-24.535
1071,9303574,1.072502,-0.07991000000000001,0.091012,62.9125,19.9675,-26.4425
1072,9303671,1.1089799999999999,-0.173484,0.1159,62.6675,17.0625,-29.2425
1073,9303768,1.173152,-0.261202,0.12529400000000002,57.3475,14.105,-33.7925
1074,9303865,1.256966,-0.266814,0.197884,50.645,18.8825,-38.6575
1075,9303961,1.3468799999999999,-0.257542,0.21838000000000002,37.9925,25.795,-43.4
1076,9304058,1.419348,-0.304268,0.160186,18.0775,20.37,-43.6275
1077,9304155,1.471808,-0.385886,0.128222,5.0575,7.7875,-39.48
1078,9304252,1.529148,-0.47213999999999995,0.18556199999999998,1.715,-0.0175,-33.215
1079,9304348,1.5104819999999999,-0.427976,0.333914,2.0125,-7.4025,-22.505
1080,9304445,1.468392,-0.34892,0.237168,-6.895,-12.7925,-7.21
1081,9304542,1.461926,-0.154574,-0.028182,-18.375,-7.0175,5.215
1082,9304639,1.239154,-0.049044,-0.34428400000000003,-28.91,3.0975,9.3975
1083,9304735,1.0534700000000001,-0.16652999999999998,-0.8071520000000001,-46.655,20.4575,12.8975
1084,9304832,1.106662,-0.346846,-0.9265901,-47.2675,53.9175,8.085
1085,9304929,1.205848,-0.5949939999999999,-0.780068,-39.41,66.5175,-6.2125
1086,9305026,1.192184,-0.889624,-0.9514780999999999,-73.605,30.8175,-21.245
1087,9305122,0.9696561,-0.678686,-0.581696,-88.02501,-1.1025,-38.7625
1088,9305219,0.790804,-0.230946,-0.438834,-94.325,-12.0225,-51.38
1089,9305316,0.9054840000000001,0.040748,-0.411872,-86.4675,-31.605,-62.965
1090,9305413,1.084214,0.30073,-0.43724799999999997,-64.7675,-34.3175,-72.6075
1091,9305509,1.1981620000000002,0.526308,-0.461892,-42.0525,-36.4,-61.3025
1092,9305606,1.304546,0.619516,-0.388204,-18.305,-53.0775,-43.05
1093,9305703,1.37311,0.632326,-0.379054,-6.9475,-59.0975,-22.785
1094,9305800,1.357738,0.499224,-0.30195,1.6625,-53.795,-5.075
1095,9305896,1.393728,0.196786,-0.26156799999999997,-0.98,-47.635,5.2675
1096,9305993,1.309426,-0.08662001,-0.244854,-3.605,-27.65,13.58
1097,9306090,1.125572,-0.30622,-0.20264200000000002,-4.6025,-12.9325,18.655
1098,9306187,0.958432,-0.438956,-0.167018,-13.055,-15.015,18.935
1099,9306283,0.8359440999999999,-0.472628,-0.115656,-18.725,-14.0,18.025
1100,9306380,0.762134,-0.435784,-0.141154,-25.4275,-10.92,13.405
1101,9306477,0.6960101,-0.343308,-0.18556199999999998,-30.73,-12.845,7.945
1102,9306574,0.627202,-0.21276799999999998,-0.16287000000000001,-33.04,-22.4175,2.0125
1103,9306670,0.513376,-0.055754,-0.09979600000000001,-33.95,-31.22,0.6825
1104,9306767,0.382226,0.057462,-0.071004,-34.9825,-33.0225,1.54
1105,9306864,0.274866,0.08698601,-0.079056,-31.6225,-28.4025,2.03
1106,9306961,0.23777800000000002,0.05185,-0.08723001,-27.3525,-25.0425,6.4575
1107,9307058,0.24997800000000003,-0.053191999999999996,-0.09333,-23.94,-24.745,13.9125
1108,9307154,0.304146,-0.147498,-0.09381801,-24.5,-21.9625,21.0
1109,9307251,0.421022,-0.198006,-0.102846,-29.5925,-18.2,25.55
1110,9307348,0.5206960999999999,-0.22057600000000002,-0.094916,-36.4175,-15.3475,25.8825
1111,9307444,0.597312,-0.20642399999999997,-0.071492,-41.23,-10.7275,21.6825
1112,9307541,0.661484,-0.181536,-0.079666,-45.01,-0.14,12.67
1113,9307638,0.728218,-0.11041,-0.065026,-48.545,10.0975,0.7875
1114,9307735,0.7701859999999999,-0.023058000000000002,-0.030866,-52.115,18.3575,-9.66
1115,9307832,0.79422,0.021228,0.017446,-56.91,23.94,-16.555
1116,9307928,0.776774,0.029524,0.026108,-63.455,25.0425,-17.7275
1117,9308025,0.7503,-0.017568,-0.004514,-65.73,21.8575,-17.36
1118,9308122,0.7877541,-0.07039400000000001,-0.004026,-65.87,19.81,-18.445
1119,9308219,0.8846219999999999,-0.09942999999999999,0.00976,-61.8625,22.0325,-19.81
1120,9308315,1.000156,-0.11846199999999998,0.01769,-57.2075,21.0175,-20.9125
1121,9308412,1.121668,-0.080276,-0.004026,-52.0975,13.1425,-20.65
1122,9308509,1.224148,0.016592,-0.020008,-46.165,2.6425,-19.3725
1123,9308606,1.3255299999999999,0.14579,-0.025498,-35.315,-3.7275,-14.595
1124,9308702,1.430084,0.214964,-0.005002,-22.365,-0.0175,-4.2
1125,9308799,1.499624,0.185196,0.086864,-9.9575,15.715,9.3275
1126,9308896,1.557208,0.28181999999999996,0.12322000000000001,-2.905,26.915,20.8425
1127,9308993,1.621502,0.343918,0.126392,5.145,14.3325,28.595
1128,9309089,1.692384,0.203374,0.191296,15.75,-13.9825,30.065
1129,9309186,1.805234,-0.059658,0.245342,22.785,-28.2275,24.815
1130,9309283,1.982622,-0.320494,0.192394,22.0675,-25.235,18.13
1131,9309380,1.375062,-0.36295,0.038796,23.1175,-8.5225,21.4725
1132,9309476,0.9950319999999999,-0.38051799999999997,-0.320982,13.5625,16.345,11.9875
1133,9309573,0.993202,-0.292556,-0.575962,9.94,28.7,0.5775
1134,9309670,1.007842,0.04331,-0.6588,32.3225,37.38,2.3975
1135,9309767,1.119838,0.394548,-0.6681941,52.22,48.4225,13.1075
1136,9309863,1.2669700000000002,0.612684,-0.627202,51.8875,51.5375,32.34
1137,9309960,1.253428,0.712236,-0.8491200000000001,64.2425,31.255,50.75
1138,9310057,1.00101,0.489708,-0.8103239999999999,81.7075,15.6975,65.6075
1139,9310154,1.0754299999999999,0.109922,-0.5060560000000001,77.1925,-9.38,63.1925
1140,9310251,0.999302,-0.198494,-0.400404,54.4425,-34.3,61.0225
1141,9310347,0.9323239999999999,-0.46335600000000005,-0.35892399999999997,26.53,-50.5925,61.005
1142,9310444,0.8641260000000001,-0.689178,-0.3843,-7.42,-45.29,60.2875
1143,9310541,0.889136,-0.863516,-0.28121,-15.1025,-15.6625,54.88
1144,9310638,1.079944,-0.9974719999999999,-0.239608,-10.99,10.7275,44.765
1145,9310734,1.251476,-0.941108,-0.285602,-21.9625,-0.4375,32.095
1146,9310831,1.349808,-0.642818,-0.282918,-31.9025,-36.68,12.915
1147,9310928,1.416298,-0.20752199999999998,-0.258274,-31.9375,-63.945,-5.81
1148,9311025,1.329312,0.18178,-0.219478,-21.035,-63.0525,-16.205
1149,9311121,1.078602,0.403698,-0.182756,-4.2,-48.0025,-17.0975
1150,9311218,0.88023,0.42907399999999996,-0.177998,0.42,-37.9575,-19.1975
1151,9311315,0.7598161,0.342088,-0.164456,3.64,-33.0575,-19.9675
1152,9311412,0.690032,0.209718,-0.183366,7.1575,-29.015,-18.0425
1153,9311508,0.635254,0.074298,-0.175558,10.535,-25.7775,-12.81
1154,9311605,0.5248441,-0.029524,-0.14469200000000002,14.2275,-23.2225,-5.425
1155,9311702,0.389058,-0.06539201,-0.116022,16.1525,-23.73,2.17
1156,9311799,0.253882,-0.06112201,-0.101382,16.5025,-29.2075,5.5825
1157,9311895,0.219478,-0.024156,-0.09381801,17.0275,-33.9325,3.99
1158,9311992,0.273768,0.090768,-0.11394800000000001,16.5025,-35.42,2.135
1159,9312089,0.391498,0.146766,-0.10809200000000001,19.6875,-36.3475,-2.2575
1160,9312186,0.5294800000000001,0.16104000000000002,-0.104432,24.0275,-34.6675,-8.995
1161,9312282,0.638426,0.152866,-0.12163399999999999,27.72,-27.93,-14.49
1162,9312379,0.725534,0.093574,-0.111996,32.7425,-21.7175,-20.615
1163,9312476,0.785924,0.005734,-0.061975999999999996,38.9725,-16.8,-26.705
1164,9312573,0.8203280000000001,-0.06941801,-0.018056,44.8175,-10.2375,-30.38
1165,9312670,0.8357,-0.148596,-0.00427,49.735,-3.395,-32.4975
1166,9312766,0.823134,-0.18556199999999998,0.013786000000000001,52.5525,1.2425,-32.3575
1167,9312863,0.8042239999999999,-0.18971,0.05941401,55.1075,4.375,-30.9225
1168,9312960,0.7881199999999999,-0.157868,0.07112601,57.9075,6.475,-28.14
1169,9313057,0.7829961,-0.09516001,0.045384,57.7325,6.8425,-25.2175
1170,9313153,0.803858,-0.052948,0.0183,55.895,6.895,-21.7875
1171,9313250,0.8540000000000001,-0.049288,-0.012931999999999999,53.515,7.56,-17.7975
1172,9313347,0.9235399999999999,-0.06929600000000001,-0.021106,49.8925,9.0125,-16.1525
1173,9313444,1.014674,-0.114436,0.021472,49.0525,13.965,-17.2725
1174,9313540,1.103856,-0.159576,0.06795401,48.0375,20.475,-19.0225
1175,9313637,1.181082,-0.198494,0.053314,41.0375,24.395,-21.6125
1176,9313734,1.243058,-0.226066,0.04331,32.375,26.635,-25.025
1177,9313831,1.274046,-0.34343,0.08723001,22.8375,27.8775,-29.4
1178,9313927,1.307108,-0.528016,0.185196,14.6125,28.8225,-32.095
1179,9314024,1.359568,-0.640134,0.301218,8.8725,22.015,-33.0225
1180,9314121,1.370792,-0.505202,0.339404,2.52,14.07,-34.7025
1181,9314218,1.369694,-0.34416199999999997,0.285846,-7.2625,5.1275,-29.1025
1182,9314314,1.369206,-0.249856,0.217648,-6.16,-6.1775,-12.95
1183,9314411,1.473638,-0.022813999999999997,0.011346,-12.9675,-13.335,2.5725
1184,9314508,1.429718,0.263398,-0.41101800000000005,-24.9375,-13.6675,8.7675
1185,9314605,1.157658,0.254858,-1.020408,-40.9325,0.2975,8.5575
1186,9314701,1.105198,0.283894,-1.222806,-48.7375,37.485,8.19
1187,9314798,1.295762,-0.022082,-1.105808,-42.2625,72.1875,-10.57
1188,9314895,1.60796,-0.9363501000000001,-1.251476,-63.1925,66.2025,-36.3825
1189,9314992,1.3412680000000001,-1.355298,-0.8731540999999999,-77.0175,30.52,-49.315
1190,9315088,0.8736421,-0.796782,-0.419558,-97.6325,-20.3875,-54.0575
1191,9315185,0.6442821,-0.23887600000000003,-0.4478621,-117.9675,-45.3075,-54.6
1192,9315282,0.778604,0.09784401,-0.40504,-93.66,-39.3225,-57.9775
1193,9315379,0.97783,0.372344,-0.30622,-57.6975,-38.71,-48.475
1194,9315475,1.229028,0.6646561,-0.315492,-32.4975,-61.88,-28.49
1195,9315572,1.4265459999999999,0.9679481,-0.39955,-15.4,-72.17,-6.1075
1196,9315669,1.438136,0.8464360000000001,-0.24058400000000002,-4.025,-56.28,10.15
1197,9315766,1.500234,0.420534,-0.167506,-11.62,-41.545,16.2225
1198,9315862,1.416298,0.04148,-0.258396,-25.27,-29.19,21.5425
1199,9315959,1.202066,-0.158844,-0.24156,-26.3725,-16.94,17.6225
1200,9316056,1.062376,-0.321226,-0.225212,-26.8975,-11.0075,8.82
1201,9316153,0.9730721,-0.388692,-0.216916,-26.845,-6.5625,-0.7875
1202,9316249,0.9092661,-0.349042,-0.24216999999999997,-27.23,-8.68,-11.2
1203,9316346,0.8504620999999999,-0.253272,-0.24046199999999998,-30.87,-18.4975,-19.8975
1204,9316443,0.7759199999999999,-0.133346,-0.215452,-30.975,-22.5575,-25.6725
1205,9316540,0.629764,-0.050874,-0.17921800000000002,-30.3625,-27.09,-26.355
1206,9316637,0.420412,-0.039772,-0.12468399999999999,-28.1575,-29.6625,-21.1575
1207,9316733,0.29341,-0.057339999999999995,-0.114436,-23.5725,-23.24,-13.23
1208,9316830,0.320616,-0.07698201,-0.131272,-19.7225,-16.2925,-4.095
1209,9316927,0.410286,-0.09906401,-0.136884,-17.1675,-14.7525,5.9325
1210,9317024,0.49995600000000007,-0.112728,-0.12431800000000001,-20.0725,-19.81,13.9125
1211,9317120,0.57828,-0.132736,-0.12444000000000001,-25.2875,-20.895,17.9725
1212,9317217,0.641598,-0.149084,-0.12749000000000002,-30.1875,-16.8175,19.6875
1213,9317314,0.682956,-0.177754,-0.10638399999999999,-37.1,-16.31,18.4975
1214,9317411,0.7065020000000001,-0.181292,-0.0793,-44.03,-15.6975,15.05
1215,9317507,0.7168720000000001,-0.171776,-0.04941,-48.7025,-6.8775,11.9175
1216,9317604,0.732244,-0.12468399999999999,-0.036356,-52.3425,3.9725,9.625
1217,9317701,0.7361481,-0.07002799999999999,-0.014396,-57.365,9.625,10.1325
1218,9317798,0.732122,-0.025863999999999998,0.005978,-62.195,12.2675,12.81
1219,9317894,0.714432,-0.005856,-0.020374,-67.83,17.22,15.085
1220,9317991,0.753472,-0.000732,-0.025254,-72.0825,28.1225,16.45
1221,9318088,0.8081281,-0.009150001,-0.02135,-72.905,41.86,17.64
1222,9318185,0.8457040000000001,-0.07039400000000001,0.024766,-71.1375,50.12,17.3075
1223,9318281,0.8791321,-0.127246,0.042822000000000006,-70.7,49.0525,18.7425
1224,9318378,0.9004821,-0.173362,0.068442,-69.3175,43.33,18.1825
1225,9318475,0.8926741,-0.155916,0.0732,-64.12,35.7175,17.1675
1226,9318572,0.894626,-0.049898000000000005,-0.0122,-57.61,21.0525,15.365
1227,9318668,0.98393,0.08357,-0.156282,-42.4375,4.515,12.7225
1228,9318765,1.1714440000000002,0.21594000000000002,-0.064294,-14.1575,0.4725,7.665
1229,9318862,1.357006,0.360998,0.053924,-5.95,11.935,6.58
1230,9318959,1.516704,0.5596140000000001,0.157502,-6.3525,36.785,6.685
1231,9319055,1.70312,0.671366,0.20313,1.6975,45.0625,7.525
1232,9319152,1.905518,0.499224,0.16226,18.2525,15.785,9.345
1233,9319249,1.8847779999999998,0.258884,0.15762400000000001,38.395,-31.5525,10.9725
1234,9319346,1.699216,0.137372,0.268522,51.17,-61.32,5.3025
1235,9319442,1.60796,-0.082838,0.426756,43.085,-64.26,1.0675
1236,9319539,0.988078,-0.41101800000000005,0.230946,32.4275,-29.8025,4.7425
1237,9319636,0.659654,-0.561322,-0.30536599999999997,10.745,29.1025,5.635
1238,9319733,0.7422481,-0.40076999999999996,-0.570838,21.8925,43.925,-1.925
1239,9319829,0.9148780000000001,-0.10760399999999999,-0.809836,51.3275,24.15,0.07
1240,9319926,1.164612,0.11358199999999999,-0.825574,74.3925,17.08,14.8575
1241,9320023,1.2724600000000001,0.410652,-0.810934,70.2625,20.8775,45.8325
1242,9320120,1.203286,0.568154,-0.8616860000000001,64.8025,31.325,71.71500999999999
1243,9320216,1.042978,0.34257600000000005,-0.807396,76.8075,7.4725,89.18
1244,9320313,1.092632,-0.017324000000000003,-0.681126,66.885,-32.6375,97.3875
1245,9320410,1.114348,-0.29341,-0.5441199999999999,42.7,-40.88,93.485
1246,9320507,1.030168,-0.496174,-0.402844,20.2825,-25.27,81.84751
1247,9320603,0.981002,-0.71614,-0.41809399999999997,-0.175,-10.01,63.385
1248,9320700,1.071282,-0.952332,-0.315614,-4.0425,-2.5375,37.8175
1249,9320797,1.1838879999999998,-0.933666,-0.193492,-10.255,-1.1375,13.93
1250,9320894,1.42679,-0.7248020000000001,-0.249734,-27.2125,-13.79,-11.3925
1251,9320990,1.557574,-0.350628,-0.243024,-27.86,-28.7,-37.3975
1252,9321087,1.349808,-0.05929201,-0.205448,-18.7775,-44.87,-43.365
1253,9321184,1.039928,0.09125599999999999,-0.16165,-6.0725,-53.3575,-42.8925
1254,9321281,0.8306979999999999,0.22423600000000002,-0.12444000000000001,3.8675,-41.5275,-44.415
1255,9321377,0.792024,0.307684,-0.10736,9.5025,-26.53,-46.795
1256,9321474,0.805078,0.321348,-0.137006,13.65,-18.7425,-45.5
1257,9321571,0.7771399999999999,0.281454,-0.16409,17.9375,-17.78,-38.6575
1258,9321668,0.711504,0.196542,-0.14896199999999998,21.945,-20.2475,-29.4175
1259,9321764,0.578646,0.10065,-0.116876,24.1675,-21.4375,-19.2675
1260,9321861,0.424804,0.032086,-0.072956,26.355,-24.745,-10.2025
1261,9321958,0.305122,-0.019154,-0.04453,28.175,-29.96,-7.0
1262,9322055,0.251686,-0.00549,-0.034404000000000004,30.2225,-32.9,-7.9275
1263,9322151,0.290848,0.024644,-0.06563601,32.235,-36.0675,-11.6725
1264,9322248,0.413092,0.030256,-0.074298,35.2275,-38.99,-18.62
1265,9322345,0.529724,0.057462,-0.058072000000000006,39.3225,-34.405,-23.1875
1266,9322442,0.609024,0.05856,-0.07039400000000001,43.1725,-24.955,-22.155
1267,9322538,0.6736840000000001,0.032330000000000005,-0.0671,49.4025,-17.4825,-19.425
1268,9322635,0.713212,-0.0008540001,-0.007686,57.82,-8.505,-16.1525
1269,9322732,0.739686,-0.050142,0.027327999999999998,62.7725,-3.2725,-13.9475
1270,9322829,0.742004,-0.08417999999999999,-0.017202000000000002,61.005,-0.4025,-12.11
1271,9322925,0.7522521,-0.12529400000000002,-0.000732,61.0575,7.6125,-11.55
1272,9323022,0.794342,-0.15616,0.06539201,64.75,15.715,-12.18
1273,9323119,0.8398479999999999,-0.137128,0.043188,63.2625,17.3775,-13.475
1274,9323216,0.9143899999999999,-0.08113001,-0.005246,60.9525,15.085,-15.89
1275,9323312,0.97783,-0.036966000000000006,-0.002562,63.9625,14.07,-17.045
1276,9323409,1.02785,-0.002928,0.031842,67.7775,13.1075,-17.92
1277,9323506,1.0859219999999998,-0.05368,0.031842,69.9475,14.2975,-22.3825
1278,9323603,1.170102,-0.147742,0.03599,66.7975,19.285,-28.2625
1279,9323699,1.276608,-0.23082399999999997,0.10736,63.07,25.0075,-35.5775
1280,9323796,1.377746,-0.30109600000000003,0.16958,50.96,26.6175,-43.0675
1281,9323893,1.437526,-0.357338,0.17507,29.4525,23.1875,-47.8625
1282,9323990,1.43838,-0.43346599999999996,0.199348,11.865,14.7875,-46.6725
1283,9324086,1.45851,-0.48702399999999996,0.243756,5.2675,6.51,-43.0675
1284,9324183,1.4804700000000002,-0.46469799999999994,0.31598000000000004,5.3025,2.5725,-37.59
1285,9324280,1.456436,-0.339038,0.308782,1.1725,2.2925,-25.655
1286,9324377,1.48291,-0.21838000000000002,0.155672,-6.1775,0.98,-10.325
1287,9324474,1.560746,-0.053191999999999996,-0.14493599999999998,-16.0825,2.94,1.435
1288,9324570,1.441308,0.006587999999999999,-0.43468599999999996,-26.145,6.545,6.0375
1289,9324667,1.1285,-0.135908,-0.681492,-35.2625,18.3575,6.755
1290,9324764,1.119716,-0.318786,-0.696498,-35.805,39.7425,-0.0175
1291,9324861,1.117276,-0.531188,-0.7141881,-38.1325,48.3,-10.7275
1292,9324957,1.077992,-0.776774,-0.9394,-62.0025,29.3125,-22.785
1293,9325054,0.9502581,-0.656116,-0.73139,-72.45,10.43,-40.495
1294,9325151,0.8383841000000001,-0.27523200000000003,-0.5726680000000001,-79.485,-1.0675,-54.0925
1295,9325248,0.8524139999999999,0.016592,-0.5231359999999999,-81.515,-16.5025,-60.97
1296,9325344,1.0200420000000001,0.189344,-0.396988,-61.0575,-24.9025,-71.2075
1297,9325441,1.1569260000000001,0.333548,-0.364658,-40.4775,-34.2475,-69.23
1298,9325538,1.268556,0.43761400000000006,-0.42590200000000006,-24.2725,-46.5325,-54.39
1299,9325635,1.405196,0.546194,-0.45323,-6.055,-48.965,-35.9275
1300,9325731,1.460218,0.574498,-0.370392,8.0675,-45.1325,-15.575
1301,9325828,1.541104,0.414312,-0.257054,11.9175,-47.635,0.945
1302,9325925,1.606862,0.1098,-0.20178800000000002,10.7275,-38.08,17.7975
1303,9326022,1.35542,-0.12444000000000001,-0.188002,12.1975,-15.89,32.0425
1304,9326119,1.0858,-0.23301999999999998,-0.21899000000000002,0.28,-20.37,33.8625
1305,9326215,0.862296,-0.288042,-0.200568,-5.3725,-30.5375,29.54
1306,9326312,0.735904,-0.311222,-0.15091400000000002,-4.7425,-24.29,21.245
1307,9326409,0.6722199999999999,-0.32513000000000003,-0.141398,-6.195,-15.9775,10.9725
1308,9326506,0.6156119999999999,-0.277672,-0.141154,-11.69,-17.185,3.8325
1309,9326602,0.537044,-0.155916,-0.115656,-16.0475,-22.995,-2.0125
1310,9326699,0.440054,-0.06832001,-0.102602,-18.3225,-29.1725,-4.305
1311,9326796,0.32086,-0.034282,-0.082106,-19.215,-31.8675,-1.4175
1312,9326893,0.252052,-0.035502,-0.101016,-17.85,-26.285,4.165
1313,9326989,0.248148,-0.08442401,-0.10797000000000001,-16.45,-21.0525,8.9775
1314,9327086,0.28987199999999996,-0.166774,-0.091134,-17.22,-20.5275,12.4075
1315,9327183,0.375882,-0.225456,-0.098332,-21.91,-20.405,15.6625
1316,9327280,0.47946000000000005,-0.24644000000000002,-0.09735601,-28.4025,-18.5325,16.065
1317,9327376,0.5544899999999999,-0.249856,-0.069174,-34.3525,-16.1875,11.83
1318,9327473,0.612684,-0.220088,-0.06283,-41.09,-12.3025,4.9175
1319,9327570,0.653188,-0.1708,-0.044286,-46.3925,-4.76,-2.1525
1320,9327667,0.677344,-0.11773,-0.017568,-51.555,5.985,-9.2575
1321,9327763,0.6974739999999999,-0.051118000000000004,0.007808001,-55.335,17.9375,-14.7
1322,9327860,0.727242,-0.03538,0.045262000000000004,-57.085,29.1725,-17.0625
1323,9327957,0.749812,-0.029524,0.04514,-58.8525,33.3025,-17.01
1324,9328054,0.781776,-0.017446,0.032574,-59.6925,32.83,-16.485
1325,9328150,0.812886,-0.00671,0.054778,-59.0975,34.5975,-16.0475
1326,9328247,0.8712021000000001,-0.016104,0.078202,-59.0625,36.6275,-16.485
1327,9328344,0.9623360999999999,-0.035624,0.09845401,-58.0475,35.8225,-18.305
1328,9328441,1.072746,-0.036233999999999995,0.100772,-57.9775,32.48,-18.865
1329,9328537,1.188158,-0.010248,0.060512,-55.8775,27.1425,-16.03
1330,9328634,1.283562,0.01403,-0.015128,-48.3875,18.935,-10.045
1331,9328731,1.2404959999999998,0.074542,-0.16592,-33.3725,9.5725,-0.1225
1332,9328828,1.271118,0.157502,-0.136884,-9.625,1.3825,6.1425
1333,9328924,1.38165,0.258884,0.002562,6.9125,-2.485,10.78
1334,9329021,1.465586,0.373076,0.107116,12.005,-4.2525,19.6
1335,9329118,1.54269,0.374052,0.156038,15.12,-4.375,27.16
1336,9329215,1.61772,0.258884,0.169336,18.3225,-15.8025,28.6475
1337,9329311,1.61711,0.06941801,0.172264,21.91,-39.1125,24.64
1338,9329408,1.475834,-0.181658,0.16348,26.2325,-40.95,21.1225
1339,9329505,1.192428,-0.334524,-0.10540799999999999,14.595,0.4025,21.7
1340,9329602,1.001986,-0.328302,-0.267546,10.6225,39.7775,15.9775
1341,9329698,0.964776,-0.124806,-0.468724,23.275,36.365,6.4925
1342,9329795,1.1271579999999999,0.183122,-0.60024,47.32,18.62,6.8425
1343,9329892,1.322846,0.312564,-0.525332,58.7825,15.925,19.425
1344,9329989,1.4306940000000001,0.374906,-0.6157341,59.0275,17.3425,40.1625
1345,9330085,1.32431,0.321226,-0.699792,64.995,20.8075,60.3925
1346,9330182,1.078724,0.15067,-0.692106,67.2,0.945,76.755
1347,9330279,1.0942180000000001,-0.15372,-0.596946,57.855,-35.105,75.4775
1348,9330376,0.9650200999999999,-0.36905,-0.506666,39.8475,-34.4575,76.4575
1349,9330472,0.8713241,-0.525088,-0.40882199999999996,22.19,-14.2975,71.6975
1350,9330569,0.9146340000000001,-0.626104,-0.384788,8.155,2.065,59.3775
1351,9330666,0.9952761,-0.7754321,-0.300608,5.915,9.3625,48.195
1352,9330763,1.143628,-0.8509501,-0.221308,-0.595,5.32,29.26
1353,9330860,1.2425700000000002,-0.704062,-0.257786,-17.465,-5.1275,10.15
1354,9330956,1.292468,-0.426878,-0.279624,-24.465,-20.405,-9.24
1355,9331053,1.268678,-0.130174,-0.24668400000000001,-23.345,-32.48,-25.6375
1356,9331150,1.13826,0.08527801,-0.20618000000000003,-13.6675,-35.7175,-32.48
1357,9331247,0.9638,0.249856,-0.193858,-1.3825,-27.6325,-34.6325
1358,9331343,0.8574161,0.333548,-0.163968,6.965,-20.055,-36.96
1359,9331440,0.797392,0.33305999999999997,-0.155672,12.1625,-14.3675,-37.7475
1360,9331537,0.786778,0.274744,-0.169946,17.36,-7.8225,-35.9625
1361,9331634,0.754448,0.159942,-0.17836400000000002,22.365,-4.7775,-30.8525
1362,9331730,0.65514,0.036722000000000005,-0.17812,24.99,-5.2325,-25.27
1363,9331827,0.532774,-0.053924,-0.136152,26.25,-9.065,-19.8975
1364,9331924,0.39589,-0.097966,-0.09040201,27.1425,-13.7375,-15.0325
1365,9332021,0.327936,-0.094916,-0.07832401,27.9825,-15.6975,-14.7
1366,9332117,0.33928200000000003,-0.039284,-0.089304,28.4725,-19.46,-16.485
1367,9332214,0.422242,0.018544,-0.113094,29.26,-24.955,-18.76
1368,9332311,0.5565640000000001,0.06819800000000001,-0.10809200000000001,34.02,-27.8775,-20.4925
1369,9332408,0.686372,0.09235399999999999,-0.099186,39.1825,-26.985,-20.09
1370,9332504,0.772016,0.102724,-0.076494,43.82,-22.365,-15.68
1371,9332601,0.8277700000000001,0.091134,-0.061854,48.1775,-12.985,-10.29
1372,9332698,0.8514379999999999,0.052338,-0.039162,52.6575,-1.12,-6.2475
1373,9332795,0.8271601000000001,0.007686,-0.00305,55.615,8.3825,-3.6225
1374,9332891,0.7999539999999999,-0.043798000000000004,0.035136,57.1375,14.1225,-2.6075
1375,9332988,0.7977581,-0.11016600000000001,0.056608000000000006,58.205,18.6725,-2.9225
1376,9333085,0.819108,-0.171166,0.067588,58.065,20.9825,-3.045
1377,9333182,0.851194,-0.186538,0.069174,59.675,20.2475,-1.785
1378,9333278,0.8963341,-0.146278,0.043798000000000004,63.4725,15.925,-0.7
1379,9333375,0.9415959999999999,-0.041602,0.022326,70.1925,11.34,0.7875
1380,9333472,1.006866,0.06832001,0.03355,80.0275,7.525,0.8925
1381,9333569,1.067012,0.144448,0.02562,86.5025,4.97,-0.4025
1382,9333666,1.115446,0.17812,0.00244,89.425,3.6225,-3.1325
1383,9333762,1.146556,0.13054000000000002,0.03355,87.7975,1.015,-8.3475
1384,9333859,1.124474,0.048312,0.082472,78.6625,4.06,-14.805
1385,9333956,1.02236,-0.08954801,0.08296,69.965,10.2375,-24.605
1386,9334053,0.9394,-0.215574,0.110654,66.01,15.54,-37.38
1387,9334149,0.9311040999999999,-0.283528,0.21166999999999997,63.28,19.7575,-50.5225
1388,9334246,0.9700219999999999,-0.338794,0.268278,56.56,13.72,-62.4925
1389,9334343,1.0056459999999998,-0.370026,0.319274,49.5775,3.92,-69.79
1390,9334440,1.0920219999999998,-0.359412,0.374906,45.7975,-5.2675,-72.52
1391,9334536,1.194502,-0.324886,0.265594,36.6625,-6.86,-69.09
1392,9334633,1.265262,-0.272426,0.014396,23.73,-4.375,-58.52
1393,9334730,1.269166,-0.264862,-0.28072199999999997,12.67,0.8225,-46.3575
1394,9334827,1.228784,-0.377102,-0.794342,-4.13,12.6525,-38.955
1395,9334923,1.2312239999999999,-0.60146,-0.8785219999999999,-4.27,26.7575,-40.0575
1396,9335020,1.279902,-0.9115840000000001,-0.5288701,-1.9775,43.715,-46.6025
1397,9335117,1.281976,-1.111298,-0.596214,-32.6725,36.12,-49.5075
1398,9335214,1.1764459999999999,-0.986614,-0.656238,-59.465,1.82,-54.705
1399,9335310,0.9413520000000001,-0.47604399999999997,-0.573522,-64.8725,-7.0,-64.715
1400,9335407,0.864492,-0.125904,-0.616954,-56.1575,-18.27,-65.205
1401,9335504,1.018944,0.15725799999999998,-0.550952,-32.2525,-32.3575,-60.27
1402,9335601,1.35359,0.476654,-0.493978,0.665,-37.275,-47.8975
1403,9335697,1.6433400000000002,0.746274,-0.38295799999999997,32.445,-26.81,-25.9175
1404,9335794,1.693116,0.7671359999999999,-0.220698,41.4225,-4.9875,5.25
1405,9335891,1.7341080000000002,0.477386,-0.17263,31.535,3.0975,22.61
1406,9335988,1.562088,0.13078399999999998,-0.274622,25.2,-2.625,28.6125
1407,9336084,1.363594,-0.075396,-0.271328,27.3875,-12.5125,22.2425
1408,9336181,1.2189020000000002,-0.200812,-0.294508,35.63,-17.325,8.4525
1409,9336278,1.107638,-0.21679400000000001,-0.26913200000000004,45.9725,-17.9375,-7.4375
1410,9336375,1.050664,-0.188612,-0.21655,51.31,-20.72,-24.5175
1411,9336471,1.0406600000000001,-0.180072,-0.198738,50.75,-23.6775,-39.76
1412,9336568,1.019188,-0.14213,-0.176046,48.6325,-25.095,-49.6825
1413,9336665,0.968558,-0.07393200000000001,-0.129564,43.1025,-26.7575,-55.055
1414,9336762,0.8862081,-0.005612,-0.097478,36.5225,-28.3325,-55.2825
1415,9336859,0.791902,0.041846,-0.086132,32.725,-29.505,-48.7375
1416,9336955,0.7105279999999999,0.040504000000000005,-0.060146000000000005,30.975,-29.1725,-38.92
1417,9337052,0.66551,-0.004758,-0.03904,28.6825,-25.935,-30.1525
1418,9337149,0.639402,-0.066978,-0.039772,23.87,-22.54,-23.415
1419,9337245,0.63867,-0.123464,-0.024888,20.7725,-18.5675,-18.48
1420,9337342,0.654896,-0.20703400000000002,-0.022692,17.7275,-13.86,-14.07
1421,9337439,0.6703899999999999,-0.295362,-0.021716,15.0675,-9.03,-9.8
1422,9337536,0.677954,-0.345504,-0.020130000000000002,13.895,-8.1725,-5.285
1423,9337633,0.6733180000000001,-0.35197,-0.014762,11.9525,-9.205,-1.925
1424,9337729,0.6633141,-0.316224,0.008906,11.0075,-7.7,-0.9625
1425,9337826,0.6638021,-0.28377199999999997,0.023668,9.765,-3.325,-2.6425
1426,9337923,0.670146,-0.257176,0.022326,8.5225,3.1675,-7.2625
1427,9338020,0.666974,-0.206668,0.037942000000000004,7.6825,9.6775,-12.985
1428,9338116,0.6729520999999999,-0.108702,0.09942999999999999,5.88,17.4825,-20.2125
1429,9338213,0.653676,-0.014274,0.122732,2.45,22.7675,-27.755
1430,9338310,0.6265921,0.05160601,0.10430999999999999,-0.805,24.465,-34.965
1431,9338407,0.599386,0.05063,0.08759601,0.7525,24.7625,-38.57
1432,9338503,0.62037,0.029889999999999996,0.081618,7.175,23.7475,-38.5525
1433,9338600,0.686738,-0.003172,0.06356201,15.015,22.26,-34.6675
1434,9338697,0.769576,-0.040016,-0.014518000000000001,24.3075,22.5925,-28.9975
1435,9338794,0.882914,-0.06588,-0.153842,33.705,18.795,-25.2
1436,9338891,1.006744,-0.018178,-0.242048,45.5875,10.885,-23.905
1437,9338987,1.137284,0.113704,-0.186172,58.555,7.0175,-22.225
1438,9339084,1.276974,0.214354,-0.09150001,68.7575,4.83,-19.95
1439,9339181,1.330776,0.16592,-0.047945999999999996,74.11251,8.2075,-16.9925
1440,9339278,1.3255299999999999,0.064416,0.023302,78.9075,10.745,-15.785
1441,9339374,1.227076,-0.038308,-0.00366,81.95251,7.9625,-17.15
1442,9339471,1.1411879999999999,-0.10540799999999999,-0.037942000000000004,86.06501,8.1725,-25.9875
1443,9339568,1.092388,-0.173484,-0.09589201,84.01751,21.2275,-34.86
1444,9339665,1.075186,-0.2074,-0.03965,85.015,38.2025,-38.955
1445,9339761,1.047736,-0.26352,-0.153842,82.4075,34.3175,-37.45
1446,9339858,1.055544,-0.26291,-0.519964,82.18,20.6325,-28.455
1447,9339955,1.19987,-0.192394,-0.8249639999999999,96.005,0.4725,-9.6425
1448,9340052,1.406172,-0.07112601,-0.97173,122.0975,-33.7925,17.325
1449,9340148,1.665788,0.446276,-0.9024341,159.5475,-64.27750999999999,47.635
1450,9340245,1.560868,1.099342,-0.7928781,181.02,-43.75,87.115
1451,9340342,1.264042,0.9557479999999999,-0.550342,171.045,-25.795,110.845
1452,9340439,1.0169920000000001,0.182268,-0.44847200000000004,142.9575,-39.6375,74.9175
1453,9340535,0.9537959999999999,-0.349896,-0.44835,116.7075,-22.5225,36.4
1454,9340632,1.116788,-0.7951961,-0.11712,134.2075,25.3225,17.1675
1455,9340729,1.247816,-0.977342,-0.009516001,139.685,36.855,-2.3625
1456,9340826,1.411784,-0.789218,-0.12431800000000001,119.07,-0.875,-41.72
1457,9340922,1.5018200000000002,-0.348554,-0.265838,111.4925,-41.195,-77.7
1458,9341019,1.493036,0.144448,-0.33794,128.835,-52.9025,-83.44001
1459,9341116,1.368474,0.5499761,-0.24351199999999998,155.0325,-38.2725,-71.1375
1460,9341213,1.2078,0.7241920000000001,-0.166286,170.59,-22.61,-58.4675
1461,9341309,1.0279719999999999,0.73078,-0.17214200000000002,178.115,-24.9375,-45.0625
1462,9341406,0.9784401,0.6170760000000001,-0.14896199999999998,185.6575,-34.09,-37.66
1463,9341503,1.0798219999999998,0.43944399999999995,-0.125172,191.345,-35.6475,-36.855
1464,9341600,1.200602,0.22411399999999998,-0.104676,195.405,-35.945,-39.2525
1465,9341697,1.198284,0.040382,-0.049532,197.3125,-37.6425,-42.42
1466,9341793,1.098122,-0.077714,-0.016592,202.7025,-38.6575,-47.39
1467,9341890,0.9853940999999999,-0.136762,-0.011834,208.7925,-39.2,-55.51
1468,9341987,0.92537,-0.14871800000000002,-0.027083999999999997,212.205,-40.7225,-67.48001
1469,9342084,0.89975,-0.129076,-0.045262000000000004,212.8875,-42.42,-77.875
1470,9342180,0.876692,-0.08417999999999999,-0.031842,213.0625,-42.3325,-84.1925
1471,9342277,0.834968,-0.02684,-0.00305,213.5,-39.445,-86.6425
1472,9342374,0.791536,0.008418,0.018788,214.655,-36.9075,-86.29251
1473,9342471,0.7482261,0.038674,0.027694,215.3025,-35.315,-84.03501
1474,9342567,0.7306581,0.039284,0.0305,216.16,-33.215,-81.97001
1475,9342664,0.7422481,0.016592,0.04941,217.2625,-30.4675,-79.24
1476,9342761,0.772504,-0.03721,0.07600599999999999,219.6775,-23.8875,-75.39
1477,9342858,0.8220360000000001,-0.11846199999999998,0.116388,222.495,-16.905,-70.63
1478,9342955,0.86803,-0.192028,0.14457,221.2525,-14.6125,-67.305
1479,9343051,0.8877940000000001,-0.24936799999999998,0.152988,216.6325,-13.755,-65.135
1480,9343148,0.8957241,-0.27523200000000003,0.13761600000000002,210.4725,-10.185,-66.0625
1481,9343245,0.8901120000000001,-0.27876999999999996,0.11224,202.055,-5.9675,-69.2825
1482,9343342,0.8509501,-0.31232,0.11467999999999999,193.9175,-2.275,-72.625
1483,9343438,0.787632,-0.388204,0.10223600000000001,183.54,-0.245,-74.9875
1484,9343535,0.7168720000000001,-0.42468199999999995,0.11358199999999999,176.19,3.5875,-74.9875
1485,9343632,0.6885680999999999,-0.409554,0.141032,170.9225,5.285,-73.5875
1486,9343729,0.7015,-0.335378,0.14383800000000002,164.36,7.5075,-69.615
1487,9343825,0.752984,-0.2501,0.10223600000000001,157.92,11.305,-64.0325
1488,9343922,0.8341139999999999,-0.21081599999999998,0.087108,152.5475,13.055,-59.6925
1489,9344019,0.9340321,-0.22143000000000002,0.07490801,149.6425,16.5375,-54.4775
1490,9344116,1.027118,-0.230946,0.06600201,147.8925,20.125,-48.7375
1491,9344212,1.090558,-0.23387399999999997,0.06490399999999999,144.2175,21.875,-43.75
1492,9344309,1.098244,-0.23119,0.063318,137.725,21.8925,-39.2
1493,9344406,1.079212,-0.2074,0.08442401,133.035,21.595,-35.105
1494,9344503,1.030778,-0.180072,0.038064,130.34,20.7025,-29.505
1495,9344600,0.9874681000000001,-0.18556199999999998,-0.001586,130.3225,17.815,-22.715
1496,9344696,0.9492821,-0.20984,-0.040016,134.05,13.8775,-15.26
1497,9344793,0.9474520000000001,-0.165554,-0.315736,135.555,8.89,-9.555
1498,9344890,1.00345,-0.127246,-0.847046,132.3,6.825,-9.52
1499,9344987,1.198772,-0.130662,-0.8712021000000001,128.135,17.8325,-19.7575
1500,9345083,1.355542,-0.31463800000000003,-0.43615,126.875,42.9625,-34.5625
1501,9345180,1.2664819999999999,-0.575962,-0.388326,118.72,55.9475,-35.63
1502,9345277,1.086044,-0.579256,-0.41370200000000007,108.22,32.4275,-42.385
1503,9345374,0.9806360000000001,-0.240706,-0.325862,104.825,-1.2775,-54.635
1504,9345470,1.058594,0.0183,-0.343308,109.1475,-10.6575,-60.8475
1505,9345567,1.265628,0.10906800000000001,-0.35197,121.9925,-2.0125,-56.9975
1506,9345664,1.4326459999999999,0.127002,-0.33379200000000003,128.3975,4.585,-40.1275
1507,9345761,1.493036,0.057584,-0.328546,128.17,4.48,-21.1225
1508,9345857,1.529758,-0.051484,-0.28621199999999997,126.1575,5.1975,-10.2725
1509,9345954,1.493036,-0.116876,-0.288896,120.0325,1.295,-5.9675
1510,9346051,1.386042,-0.170434,-0.251076,121.1875,-3.22,-6.4225
1511,9346148,1.285636,-0.23228800000000002,-0.213256,125.37,-6.5625,-7.4025
1512,9346244,1.188402,-0.248148,-0.207156,130.9525,-11.69,-8.225
1513,9346341,1.095682,-0.1952,-0.180072,135.275,-18.935,-10.815
1514,9346438,1.037976,-0.132248,-0.127246,137.9525,-23.9925,-14.6475
1515,9346535,0.9861260000000001,-0.08454600000000001,-0.1159,139.4925,-23.2575,-18.025
1516,9346631,0.9442801,-0.044164,-0.101992,139.1425,-22.8375,-21.525
1517,9346728,0.8982860999999999,0.016225999999999997,-0.053924,139.2475,-23.5725,-27.8075
1518,9346825,0.8344801,0.080886,-0.007442,137.2525,-22.575,-33.95
1519,9346922,0.7510321,0.091012,0.010492,134.4,-21.875,-37.7475
1520,9347019,0.705038,0.007442,0.01403,130.0425,-21.77,-39.375
1521,9347115,0.681492,-0.112606,-0.00488,123.165,-20.685,-36.8375
1522,9347212,0.6527,-0.257786,-0.042822000000000006,119.4725,-19.46,-31.3425
1523,9347309,0.636474,-0.387716,-0.055022,117.635,-20.1425,-26.3025
1524,9347406,0.6512359999999999,-0.46774799999999994,-0.055388,114.8875,-20.5975,-23.5725
1525,9347502,0.681126,-0.4819,-0.046604,113.4875,-20.79,-24.22
1526,9347599,0.7060141,-0.45115600000000006,-0.051484,112.525,-21.525,-26.67
1527,9347696,0.724314,-0.39613400000000004,-0.05819401,110.5825,-21.2275,-28.665
1528,9347793,0.7415161,-0.35197,-0.08723001,108.8675,-20.1775,-29.7675
1529,9347889,0.7390760000000001,-0.281698,-0.09577000000000001,108.2725,-19.285,-30.7475
1530,9347986,0.718946,-0.20788800000000002,-0.071248,105.945,-15.015,-33.46
1531,9348083,0.6681941,-0.153232,-0.060267999999999995,101.2725,-6.545,-37.2925
1532,9348180,0.6311060000000001,-0.140178,-0.06527000000000001,94.30751,1.0675,-41.37
1533,9348276,0.640744,-0.167384,-0.044652,85.575,6.8425,-44.9925
1534,9348373,0.673562,-0.202764,-0.019154,74.3925,10.0625,-46.4975
1535,9348470,0.736514,-0.247538,0.053070000000000006,67.76,9.1875,-46.0075
1536,9348567,0.8247200000000001,-0.320738,0.074664,63.56,5.0575,-42.77
1537,9348663,0.9352520000000001,-0.33013200000000004,0.07515201,63.245,1.365,-38.885
1538,9348760,1.036634,-0.325008,0.07356601,60.6725,6.65,-35.1575
1539,9348857,1.1364299999999998,-0.367098,0.059048,55.1775,15.26,-29.295
1540,9348954,1.240374,-0.44517799999999996,0.013908000000000002,55.9825,19.355,-22.6625
1541,9349050,1.386042,-0.548024,-0.079178,57.715,16.52,-17.3775
1542,9349147,1.519998,-0.531554,-0.11236199999999999,60.375,17.675,-9.7825
1543,9349244,1.612352,-0.40662600000000004,-0.081862,62.16,29.7325,-0.665
1544,9349341,1.649562,-0.279502,-0.0305,53.6025,35.035,4.55
1545,9349437,1.5944180000000001,-0.23448400000000003,0.046116000000000004,44.345,21.35,6.86
1546,9349534,1.502308,-0.269376,0.114924,39.3575,0.1225,7.0175
1547,9349631,1.49999,-0.398696,-0.06527000000000001,43.435,-8.435,8.365
1548,9349728,1.617842,-0.5193541,-0.35831399999999997,66.29,8.1725,16.905
1549,9349825,1.7069020000000001,-0.383324,-0.508984,78.6975,48.51,35.1925
1550,9349921,1.627846,0.15311,-0.4697,71.68,63.98,45.885
1551,9350018,1.361764,0.307318,-0.313906,72.06501,26.7925,39.41
1552,9350115,1.067256,0.09259801,-0.155916,88.935,-22.4875,27.3
1553,9350212,0.89243,-0.061,-0.251808,87.6225,-30.87,1.785
1554,9350308,0.8095920999999999,-0.058803999999999995,-0.391864,69.4575,-24.395,-17.535
1555,9350405,0.774334,-0.109678,-0.387594,57.0675,-31.5875,-27.02
1556,9350502,0.776408,-0.222894,-0.371246,48.0725,-33.39,-29.47
1557,9350599,0.84851,-0.298412,-0.36051,47.1275,-23.205,-21.175
1558,9350695,0.9830760000000001,-0.302804,-0.45323,46.9,-11.1475,-4.97
1559,9350792,1.079944,-0.319884,-0.504104,55.545,-7.525,10.9725
1560,9350889,1.098732,-0.302682,-0.472384,61.53,-9.31,21.84
1561,9350986,1.090314,-0.24461,-0.41687399999999997,67.3575,-10.9025,27.8425
1562,9351082,1.042368,-0.190076,-0.390156,71.71500999999999,-11.0775,32.7775
1563,9351179,0.980514,-0.106262,-0.355142,71.71500999999999,-12.04,31.9725
1564,9351276,0.9602620999999999,-0.02806,-0.338306,67.1475,-15.5925,23.2575
1565,9351373,0.9834421,0.031110000000000002,-0.330986,61.3725,-20.055,9.765
1566,9351469,0.9949100000000001,0.07564,-0.30036399999999996,56.245,-24.1325,-7.3675
1567,9351566,0.9831981,0.070882,-0.271206,51.905,-30.0125,-23.73
1568,9351663,0.93086,0.040748,-0.23753400000000002,49.9625,-36.33,-36.5225
1569,9351760,0.849242,-0.005978,-0.24046199999999998,48.685,-35.6125,-44.0825
1570,9351857,0.7789699999999999,-0.061,-0.2257,48.3,-29.785,-48.265
1571,9351953,0.702842,-0.101992,-0.19959200000000002,49.4375,-25.3225,-47.5125
1572,9352050,0.6049981,-0.14090999999999998,-0.173362,50.89,-21.07,-42.0
1573,9352147,0.532042,-0.164456,-0.131028,53.0075,-18.5325,-35.6125
1574,9352244,0.502274,-0.1708,-0.12334200000000001,52.36,-18.305,-30.205
1575,9352340,0.5058121,-0.156038,-0.137006,50.715,-16.975,-25.2
1576,9352437,0.5363121,-0.112972,-0.116022,51.835,-17.9375,-22.225
1577,9352534,0.57584,-0.039528,-0.10345599999999999,52.5875,-19.3725,-19.7925
1578,9352631,0.628422,0.020008,-0.101504,54.4075,-13.8075,-17.885
1579,9352727,0.681858,0.036233999999999995,-0.097722,57.3475,-5.145,-16.1175
1580,9352824,0.7287060000000001,0.034648000000000005,-0.07222401,60.7075,-1.4175,-15.6975
1581,9352921,0.767624,0.005368,-0.020862000000000002,63.28,2.24,-17.185
1582,9353018,0.791902,-0.057096,0.016225999999999997,65.31,10.675,-18.445
1583,9353115,0.820816,-0.148596,0.047702,67.9525,20.86,-20.615
1584,9353211,0.859856,-0.23485,0.10931199999999999,72.0475,25.375,-23.9575
1585,9353308,0.874374,-0.265106,0.120902,72.7825,20.1075,-27.1075
1586,9353405,0.876326,-0.270352,0.088328,69.79,12.355,-29.8375
1587,9353502,0.892308,-0.254004,0.10394400000000001,67.865,14.07,-32.97
1588,9353598,0.907192,-0.194956,0.11345999999999999,66.46500999999999,20.8075,-34.055
1589,9353695,0.9663620999999999,-0.09979600000000001,0.06527000000000001,61.775,24.71,-34.3525
1590,9353792,1.049078,-0.022692,0.011956,61.0575,31.6575,-35.8575
1591,9353889,1.1477760000000001,-0.030012,-0.042212,61.95,34.02,-36.3475
1592,9353986,1.191452,-0.11138599999999999,-0.04697001,63.2275,30.9925,-34.72
1593,9354082,1.20048,-0.18727,0.007320001,62.65,29.645,-33.95
1594,9354179,1.214266,-0.22801799999999997,0.038674,58.5375,33.67,-35.0
1595,9354276,1.244888,-0.216916,0.08869401,52.395,35.595,-36.12
1596,9354373,1.274778,-0.243146,0.08662001,42.5775,30.0825,-33.985
1597,9354469,1.352858,-0.36209600000000003,0.048922,34.0375,20.23,-30.7125
1598,9354566,1.4837639999999999,-0.508008,0.138958,34.58,8.89,-26.285
1599,9354663,1.441186,-0.528992,0.26156799999999997,34.3175,-1.995,-14.42
1600,9354760,1.3413899999999999,-0.411872,0.214598,18.2875,-12.0925,-1.785
1601,9354856,1.233054,-0.244488,-0.086864,0.2275,-7.4375,6.5625
1602,9354953,1.166808,-0.177022,-0.499834,-8.1725,18.06,8.2075
1603,9355050,1.16083,-0.26535,-0.9379360000000001,-22.085,47.6,2.5725
1604,9355147,1.317844,-0.5605899999999999,-0.8094701,-20.1425,76.2825,-14.6125
1605,9355244,1.3174780000000001,-0.8544879999999999,-0.551928,-32.2175,75.2325,-24.5
1606,9355340,1.1476540000000002,-1.13399,-0.915732,-83.73751,26.5825,-42.5425
1607,9355437,0.9092661,-0.513376,-0.5858439999999999,-105.2275,6.8775,-61.04
1608,9355534,0.903532,-0.025863999999999998,-0.516792,-102.6025,1.8025,-66.53501
1609,9355631,1.0912899999999999,0.181658,-0.644526,-94.51751,-14.105,-70.56
1610,9355727,1.1709559999999999,0.44029799999999997,-0.61122,-73.5875,-27.65,-62.3525
1611,9355824,1.10166,0.586454,-0.49580799999999997,-48.65,-33.705,-44.2925
1612,9355921,1.22183,0.6168319999999999,-0.544852,-28.28,-47.145,-28.595
1613,9356018,1.4579,0.591212,-0.605364,-19.6175,-55.79,-12.635
1614,9356114,1.505236,0.34782199999999996,-0.368684,-1.295,-40.6875,4.5675
1615,9356211,1.489376,0.056852,-0.293288,0.42,-28.6825,15.2425
1616,9356308,1.3268719999999998,-0.07283401,-0.259006,-2.5725,-25.62,23.2925
1617,9356405,1.0645719999999999,-0.098942,-0.208986,-3.64,-30.6425,24.36
1618,9356501,0.8927959999999999,-0.132126,-0.167506,-7.245,-37.4325,21.6475
1619,9356598,0.8114220999999999,-0.172752,-0.15823399999999999,-6.4225,-29.6625,17.5525
1620,9356695,0.7850699999999999,-0.19093,-0.14871800000000002,-7.0175,-17.22,12.1625
1621,9356792,0.7500560000000001,-0.1708,-0.126148,-8.7675,-12.3725,6.6325
1622,9356888,0.657824,-0.082106,-0.133102,-11.1475,-15.75,2.2225
1623,9356985,0.533994,0.029524,-0.121512,-12.9325,-28.0875,0.2625
1624,9357082,0.385276,0.074542,-0.046116000000000004,-9.8,-37.7125,3.7975
1625,9357179,0.280844,0.054046000000000004,-0.042944,-5.3025,-31.92,9.59
1626,9357275,0.21886799999999998,-0.019764,-0.05819401,-1.1025,-19.215,16.0125
1627,9357372,0.242048,-0.11285,-0.060512,1.82,-11.83,20.615
1628,9357469,0.36148600000000003,-0.194224,-0.07710399999999999,-0.9625,-8.575,22.645
1629,9357566,0.506178,-0.250954,-0.09040201,-8.295,-6.9825,20.65
1630,9357663,0.63257,-0.275354,-0.060146000000000005,-15.89,-5.145,17.395
1631,9357759,0.71126,-0.265228,-0.040138,-22.3125,-0.595,11.4975
1632,9357856,0.7531061,-0.225334,-0.029401999999999998,-27.7375,4.7775,4.62
1633,9357953,0.7862901,-0.20691199999999998,0.00305,-32.7425,11.2525,-1.61
1634,9358050,0.780068,-0.127246,0.035136,-39.1825,19.11,-3.9025
1635,9358146,0.759328,-0.058682000000000005,0.025498,-44.52,24.78,-4.9525
1636,9358243,0.762012,-0.01403,0.053924,-48.0025,25.235,-5.3725
1637,9358340,0.760426,0.007686,0.041968,-51.6425,22.9425,-5.88
1638,9358437,0.821304,0.010004,0.044652,-51.1175,24.255,-8.995
1639,9358533,0.89792,0.013908000000000002,0.027327999999999998,-52.2025,27.3875,-9.4675
1640,9358630,0.95831,0.027938,0.041724000000000004,-47.6175,26.215,-8.7675
1641,9358727,1.058106,0.014518000000000001,0.102724,-40.495,18.935,-8.4175
1642,9358824,1.19743,0.008784,0.06270801,-36.26,7.245,-8.54
1643,9358920,1.265018,0.071492,-0.061732,-27.4925,1.7325,-6.16
1644,9359017,1.311134,0.12980799999999998,-0.190442,-15.155,5.18,-2.17
1645,9359114,1.3481,0.11760799999999999,-0.2318,-3.4475,13.4575,4.76
1646,9359211,1.352858,0.080886,-0.166774,5.2675,17.4825,11.9
1647,9359307,1.336388,0.10553,-0.049898000000000005,11.4975,14.7175,19.0575
1648,9359404,1.336876,0.078446,0.06490399999999999,13.7375,7.6825,25.83
1649,9359501,1.3534680000000001,-0.050263999999999996,0.131394,16.0825,-4.5675,31.0975
1650,9359598,1.3618860000000002,-0.241438,0.08369201,17.885,-14.7,29.68
1651,9359694,1.452776,-0.46738199999999996,-0.02623,20.3,-14.875,24.22
1652,9359791,1.468392,-0.582062,-0.14896199999999998,16.625,-10.675,19.145
1653,9359888,1.2561120000000001,-0.323788,-0.33061999999999997,15.75,10.29,15.54
1654,9359985,1.317112,-0.033428,-0.522282,34.72,38.2375,10.4825
1655,9360082,1.419714,0.284138,-0.576084,52.325,52.9725,19.6175
1656,9360178,1.410198,0.566446,-0.473116,61.0575,64.785,35.3325
1657,9360275,1.381284,0.720776,-0.505446,72.03,50.8725,46.7075
1658,9360372,1.152046,0.5543680000000001,-0.621468,83.3875,13.16,59.6225
1659,9360469,0.9827101,0.1952,-0.534482,83.7025,-21.6825,59.4125
1660,9360565,0.9612379999999999,-0.024034,-0.5084960000000001,67.97,-43.575,55.3875
1661,9360662,0.9150001,-0.22045399999999998,-0.543144,47.425,-47.355,58.2225
1662,9360759,0.9345201,-0.41894799999999993,-0.42456000000000005,25.515,-34.6675,57.82
1663,9360856,1.0255319999999999,-0.64782,-0.423462,11.8475,-15.7325,59.5875
1664,9360952,1.1161780000000001,-0.8298440999999999,-0.374052,7.6825,1.3475,57.645
1665,9361049,1.18584,-0.933422,-0.2196,1.4,-0.8575,48.3525
1666,9361146,1.1903540000000001,-0.8463139999999999,-0.213988,-18.2175,-23.065,38.2025
1667,9361243,1.1808379999999998,-0.60878,-0.224358,-30.8175,-42.5775,24.15
1668,9361340,1.14192,-0.31463800000000003,-0.165188,-29.61,-45.6225,8.575
1669,9361436,1.1033680000000001,-0.091012,-0.132004,-24.745,-47.8975,-2.3625
1670,9361533,1.0187,0.10321199999999998,-0.16689600000000002,-19.1975,-41.9125,-9.45
