,T,ax,ay,az,gx,gy,gz
0,19721279,0.8311860999999999,-0.002318,-0.328424,10.745,-10.0975,-9.0825
1,19721422,0.8653460999999999,-0.00793,-0.38125,-82.53,-80.7625,-24.7275
2,19721519,0.9242720999999999,0.00122,-0.422608,-61.46,-78.2425,-126.4025
3,19721615,0.921832,0.005612,-0.437492,16.45,-94.53501,-49.4025
4,19721712,0.9137799999999999,0.012444,-0.44542200000000004,-5.7925,3.71,-2.4675
5,19721809,0.9120720999999999,0.016714,-0.443104,-3.9025,9.0125,-0.9975
6,19721906,0.9151219999999999,0.022082,-0.435906,-0.175,12.7225,-1.365
7,19722002,0.9221981,0.023424,-0.43773599999999996,4.3575,18.62,-2.7825
8,19722099,0.95221,0.04331,-0.458232,10.6575,22.5225,-4.27
9,19722196,0.918782,0.034526,-0.44286000000000003,20.7375,21.2625,-5.25
10,19722293,0.927688,0.030744,-0.434442,19.04,24.045,-6.58
11,19722389,0.9419620999999999,0.015493999999999999,-0.42639,20.055,25.6375,-6.9825
12,19722486,0.9436701,0.017324000000000003,-0.420534,21.175,26.8975,-7.2975
13,19722583,0.956968,0.005612,-0.414434,23.8875,28.6825,-8.19
14,19722679,0.9656300999999999,0.005002,-0.41675200000000007,26.425,30.0825,-9.2925
15,19722776,0.9638,0.014152000000000001,-0.42724399999999996,29.19,32.3575,-10.6925
16,19722873,0.9616040000000001,0.018544,-0.41248199999999996,31.8325,35.8925,-13.1425
17,19722970,0.9613601,0.002318,-0.378688,32.2525,41.6675,-16.345
18,19723066,0.919392,-0.00305,-0.327204,28.6125,50.155,-18.795
19,19723163,0.855342,-0.007808001,-0.28316199999999997,24.08,59.4825,-17.9025
20,19723260,0.8493641,-0.0035380000000000003,-0.285724,21.035,63.35,-12.67
21,19723357,0.8902341,-0.004026,-0.31537,17.115,59.7275,-8.3825
22,19723453,0.9240280000000001,-0.155428,-0.337208,7.1225,51.8875,-8.19
23,19723550,0.944768,0.053924,-0.379054,-24.395,49.07,-15.855
24,19723647,0.865468,0.01708,-0.279014,-26.7225,36.295,-19.845
25,19723744,0.8965780000000001,0.00244,-0.21106,-24.71,6.16,-14.7525
26,19723840,0.9175620000000001,0.054046000000000004,-0.09125599999999999,-15.575,-6.825,-10.0275
27,19723937,0.967094,0.042456,-0.23838800000000002,1.4,-8.3475,-6.265
28,19724034,0.9850280999999999,0.04514,-0.306098,-1.12,-18.655,-6.545
29,19724131,0.9652639999999999,0.044774,-0.313296,-6.6325,-17.85,-7.665
30,19724227,0.9328120000000001,0.03477,-0.30561,-6.335,-13.615,-7.63
31,19724324,0.928176,0.019886,-0.283894,-4.375,-10.605,-5.88
32,19724421,0.9540401,0.01769,-0.279136,-2.17,-6.125,-3.8675
33,19724518,0.953308,0.018056,-0.282308,-0.3675,-2.5025,-3.36
34,19724614,0.945744,0.015616,-0.287432,-0.1925,-3.325,-3.3775
35,19724711,0.9412299999999999,0.017568,-0.283528,0.105,-5.5825,-2.9225
36,19724808,0.9467200000000001,0.022936,-0.29987600000000003,-0.2275,-6.65,-2.5725
37,19724905,0.9548940999999999,0.025986000000000002,-0.29707,-1.855,-9.5375,-2.975
38,19725001,0.953674,0.02684,-0.278648,-1.82,-10.465,-3.325
39,19725098,0.953674,0.027327999999999998,-0.280966,-0.525,-8.435,-3.2375
40,19725195,0.9581881,0.025131999999999998,-0.282918,0.2275,-5.8625,-2.975
41,19725292,0.9612379999999999,0.023546,-0.281698,1.3475,-2.5375,-2.7825
42,19725388,0.966118,0.019764,-0.284016,2.765,0.945,-2.59
43,19725485,0.959774,0.02623,-0.286456,3.465,3.01,-2.59
44,19725582,0.9531860000000001,0.02806,-0.285236,3.4125,3.43,-2.59
45,19725678,0.949892,0.030133999999999998,-0.289628,3.01,2.9575,-2.485
46,19725775,0.9470860000000001,0.038674,-0.29438600000000004,1.855,1.05,-2.6775
47,19725872,0.9440360999999999,0.03599,-0.282186,0.7875,-2.38,-3.535
48,19725969,0.95221,0.033672,-0.27718400000000004,0.5775,-4.9175,-4.1825
49,19726065,0.945256,0.02806,-0.279624,1.47,-6.37,-4.5675
50,19726162,0.9503799999999999,0.026718000000000002,-0.291946,0.0875,-7.9275,-4.2
51,19726259,0.9629459999999999,0.025986000000000002,-0.304634,-3.045,-11.83,-4.1825
52,19726356,0.9680700000000001,0.02928,-0.251076,-3.2725,-14.525,-4.8825
53,19726452,0.952942,0.029158,-0.20410599999999998,4.4275,-6.6325,-5.1275
54,19726549,0.9526979999999999,0.006344,-0.325252,11.795,7.035,-4.725
55,19726646,0.968558,0.035136,-0.320494,3.0275,2.7825,-4.4625
56,19726743,0.9683141,0.020008,-0.29402,0.0875,-4.305,-4.655
57,19726839,0.957944,0.020496,-0.281088,0.455,-8.6625,-4.095
58,19726936,0.9537959999999999,0.023058000000000002,-0.273158,0.5075,-9.45,-3.4475
59,19727033,0.936594,0.037454,-0.2928,0.9625,-7.91,-3.325
60,19727130,0.9476959999999999,0.019642,-0.296704,0.7875,-9.345,-4.1825
61,19727226,0.9591639999999999,0.035013999999999997,-0.267912,0.7,-9.205,-3.255
62,19727323,0.945866,0.024766,-0.288896,1.3825,-3.99,-3.2025
63,19727420,0.9516,0.027327999999999998,-0.288286,1.4,-5.6175,-3.36
64,19727516,0.957334,0.030378,-0.284504,1.1725,-6.1425,-3.395
65,19727613,0.9557479999999999,0.030866,-0.283528,1.295,-6.0725,-3.4825
66,19727710,0.9505020000000001,0.027938,-0.287432,0.9625,-5.495,-3.5525
67,19727807,0.9548940999999999,0.027327999999999998,-0.28938400000000003,1.1375,-5.32,-3.535
68,19727903,0.9540401,0.024888,-0.284992,0.7875,-5.705,-3.535
69,19728000,0.952942,0.023790000000000002,-0.285846,0.9275,-5.425,-3.5175
70,19728097,0.9537959999999999,0.022082,-0.285968,0.8925,-5.39,-3.605
71,19728194,0.954406,0.023058000000000002,-0.2867,0.805,-5.32,-3.535
72,19728290,0.9525761,0.023546,-0.288042,0.5425,-5.4075,-3.6225
73,19728387,0.9528200000000001,0.022813999999999997,-0.288164,0.4725,-5.425,-3.57
74,19728484,0.9531860000000001,0.023912,-0.287188,0.42,-5.3375,-3.5525
75,19728580,0.9528200000000001,0.023668,-0.284748,0.49,-5.4075,-3.465
76,19728677,0.95221,0.023180000000000003,-0.281942,0.63,-5.5125,-3.5175
77,19728774,0.9555040000000001,0.024034,-0.27999,1.12,-6.2825,-3.5875
78,19728871,0.9524540000000001,0.024156,-0.284138,1.8375,-8.26,-3.64
79,19728967,0.952942,0.025254,-0.285358,1.4175,-9.0825,-3.535
80,19729064,0.95221,0.026595999999999998,-0.28914,0.98,-9.135,-3.57
81,19729161,0.9531860000000001,0.025498,-0.28975,1.2075,-8.8725,-3.36
82,19729258,0.953308,0.024522,-0.291946,1.19,-7.7525,-3.1325
83,19729354,0.9558701,0.024522,-0.288408,1.1025,-6.825,-3.185
84,19729451,0.9551379999999999,0.022936,-0.285358,1.26,-6.5275,-3.2725
85,19729548,0.955626,0.023424,-0.281698,1.3475,-6.545,-3.4125
86,19729645,0.9530641,0.0244,-0.282186,1.2075,-6.58,-3.4475
87,19729741,0.9520881,0.023302,-0.282552,1.12,-6.4225,-3.465
88,19729838,0.9502581,0.022203999999999998,-0.28365,0.9625,-6.6325,-3.57
89,19729935,0.9500139999999999,0.024034,-0.284382,0.9275,-7.105,-3.465
90,19730031,0.9497701,0.022082,-0.284016,0.8925,-7.525,-3.57
91,19730128,0.953308,0.023424,-0.284504,1.0325,-7.8225,-3.5175
92,19730225,0.9535521,0.021594,-0.287798,1.12,-7.665,-3.4475
93,19730322,0.9541620000000001,0.022082,-0.28731,0.8400001,-7.1575,-3.4475
94,19730418,0.953674,0.022936,-0.28938400000000003,0.8225,-7.0,-3.395
95,19730515,0.955016,0.020496,-0.291214,0.5075,-6.2475,-3.2725
96,19730612,0.9540401,0.02257,-0.290848,0.315,-5.5475,-3.7625
97,19730709,0.952942,0.023668,-0.291214,0.595,-5.635,-3.7625
98,19730805,0.9531860000000001,0.023912,-0.291458,0.7875,-5.705,-3.57
99,19730902,0.9528200000000001,0.024644,-0.290604,0.735,-5.6175,-3.4825
100,19730999,0.9520881,0.023790000000000002,-0.288286,0.77,-5.67,-3.3425
101,19731095,0.950868,0.024034,-0.290604,0.63,-5.74,-3.3075
102,19731192,0.949526,0.021838,-0.290604,0.525,-5.8975,-3.43
103,19731289,0.949526,0.02074,-0.290238,0.4025,-6.055,-3.5175
104,19731386,0.9490379999999999,0.022203999999999998,-0.29219,0.0525,-5.95,-3.64
105,19731482,0.951356,0.025376,-0.294142,-0.035,-5.74,-3.9025
106,19731579,0.949526,0.022448,-0.29646,-0.105,-5.285,-4.4275
107,19731676,0.9494040000000001,0.027083999999999997,-0.29524,-0.595,-4.48,-4.025
108,19731773,0.9539181000000001,0.026595999999999998,-0.291946,-0.49,-4.4625,-3.605
109,19731869,0.9548940999999999,0.026962,-0.292434,-0.56,-4.6725,-3.4825
110,19731966,0.9519661,0.027572000000000003,-0.29072600000000004,-0.77,-5.04,-3.22
111,19732063,0.9494040000000001,0.026351999999999997,-0.29158,-0.735,-5.0225,-2.9575
112,19732160,0.9494040000000001,0.024644,-0.29402,-0.7,-5.04,-2.8
113,19732256,0.94916,0.023546,-0.29438600000000004,-0.595,-5.3025,-2.7125
114,19732353,0.9484280999999999,0.020862000000000002,-0.295118,-0.49,-5.39,-2.8
115,19732450,0.947574,0.02135,-0.295118,-0.525,-5.565,-3.0975
116,19732547,0.9505020000000001,0.021838,-0.297192,-0.56,-5.53,-3.2375
117,19732643,0.9486720999999999,0.022082,-0.297192,-0.315,-5.39,-3.325
118,19732740,0.9502581,0.023058000000000002,-0.296338,-0.385,-5.32,-3.43
119,19732837,0.9505020000000001,0.0244,-0.29377600000000004,-0.49,-5.25,-3.5175
120,19732934,0.9506241,0.025376,-0.293166,-0.805,-5.0925,-3.36
121,19733030,0.949892,0.024522,-0.294508,-0.9275,-5.0925,-3.185
122,19733127,0.9480620000000001,0.025986000000000002,-0.29572800000000005,-1.0675,-4.76,-3.045
123,19733224,0.948306,0.027083999999999997,-0.29463,-1.4525,-4.5675,-2.8525
124,19733320,0.946232,0.02501,-0.2928,-1.785,-4.41,-2.7125
125,19733417,0.9450120000000001,0.023302,-0.29377600000000004,-1.8375,-4.7425,-2.6075
126,19733514,0.9469641,0.02196,-0.291458,-1.4175,-5.88,-2.695
127,19733611,0.9502581,0.022813999999999997,-0.29572800000000005,-1.3125,-6.5625,-2.8875
128,19733707,0.9537959999999999,0.022692,-0.295118,-1.715,-5.6525,-2.94
129,19733804,0.9539181000000001,0.023546,-0.296948,-2.3975,-3.7975,-3.115
130,19733901,0.9516,0.027327999999999998,-0.292556,-2.8875,-1.5225,-3.0275
131,19733998,0.953674,0.024278,-0.29036,-1.05,-2.625,-2.695
132,19734094,0.95099,0.02501,-0.2928,-0.07,-5.6525,-2.7825
133,19734191,0.9444020000000001,0.024278,-0.293898,-0.7,-7.0175,-2.8175
134,19734288,0.942084,0.0244,-0.294142,-0.875,-6.5975,-2.7475
135,19734385,0.9435479999999999,0.022936,-0.292434,-0.665,-6.16,-2.905
136,19734481,0.945744,0.023058000000000002,-0.29426399999999997,-0.4025,-6.02,-2.905
137,19734578,0.947818,0.023790000000000002,-0.292434,-0.315,-6.1075,-2.9925
138,19734675,0.9505020000000001,0.023912,-0.29377600000000004,-0.28,-6.475,-2.9575
139,19734772,0.9530641,0.024766,-0.29219,-0.3675,-6.7725,-2.94
140,19734868,0.953308,0.025498,-0.291702,-0.42,-6.8425,-2.8525
141,19734965,0.9526979999999999,0.025863999999999998,-0.29341,-0.4725,-6.6325,-2.8875
142,19735062,0.9501360999999999,0.027083999999999997,-0.29377600000000004,-0.63,-6.265,-2.9225
143,19735159,0.949526,0.025986000000000002,-0.292678,-0.665,-5.95,-2.905
144,19735255,0.948306,0.02623,-0.29072600000000004,-0.6125,-5.775,-2.9575
145,19735352,0.9480620000000001,0.025254,-0.2928,-0.4725,-5.8275,-2.9925
146,19735449,0.9484280999999999,0.024644,-0.291458,-0.2975,-5.95,-3.0625
147,19735546,0.9484280999999999,0.023546,-0.29036,-0.1925,-5.8625,-3.115
148,19735642,0.9480620000000001,0.024888,-0.28999400000000003,-0.0875,-5.8625,-3.1675
149,19735739,0.9494040000000001,0.023668,-0.290604,0.07,-5.705,-3.15
150,19735836,0.9501360999999999,0.023424,-0.290238,0.0175,-5.5125,-3.1675
151,19735933,0.9502581,0.024156,-0.289506,0.0525,-5.3375,-3.1675
152,19736030,0.950868,0.024522,-0.28938400000000003,0.21,-5.3025,-3.115
153,19736126,0.950868,0.024156,-0.290848,0.175,-5.3025,-3.1325
154,19736223,0.9507460999999999,0.023668,-0.29072600000000004,0.175,-5.355,-3.045
155,19736320,0.9503799999999999,0.02501,-0.291214,0.105,-5.3025,-3.0975
156,19736417,0.9526979999999999,0.02501,-0.292556,0.2275,-5.4425,-3.01
157,19736513,0.9531860000000001,0.02684,-0.291702,0.245,-5.67,-3.08
158,19736610,0.9541620000000001,0.026474,-0.290238,0.07,-5.6875,-3.2025
159,19736707,0.9531860000000001,0.027327999999999998,-0.288652,0.0525,-5.53,-3.255
160,19736804,0.9526979999999999,0.027938,-0.28792,0.105,-5.355,-3.2725
161,19736900,0.9501360999999999,0.027816000000000004,-0.289628,0.14,-5.1625,-3.22
162,19736997,0.94916,0.025376,-0.28975,0.21,-5.1275,-3.045
163,19737094,0.9465981,0.024888,-0.290238,0.2625,-5.1625,-3.08
164,19737191,0.948184,0.022692,-0.289506,0.2975,-5.2325,-3.185
165,19737287,0.9500139999999999,0.023790000000000002,-0.28926199999999996,0.4375,-5.4075,-3.3075
166,19737384,0.950868,0.022692,-0.28853,0.595,-5.39,-3.4125
167,19737481,0.9519661,0.022692,-0.288652,0.6125,-5.285,-3.43
168,19737578,0.9535521,0.021106,-0.289628,0.5775,-5.11,-3.3775
169,19737674,0.9541620000000001,0.022936,-0.29072600000000004,0.4725,-5.005,-3.325
170,19737771,0.9525761,0.023058000000000002,-0.292312,0.2975,-4.9875,-3.43
171,19737868,0.9511120000000001,0.024278,-0.291458,0.2975,-4.9875,-3.465
172,19737965,0.9520881,0.025498,-0.290116,0.42,-4.7775,-3.3425
173,19738061,0.9503799999999999,0.025131999999999998,-0.288896,0.42,-4.69,-3.3775
174,19738158,0.94916,0.024644,-0.289506,0.5425,-4.515,-3.2725
175,19738255,0.9503799999999999,0.024156,-0.289506,0.595,-4.515,-3.2375
176,19738352,0.9505020000000001,0.023668,-0.28975,0.665,-4.62,-3.22
177,19738448,0.9519661,0.0244,-0.28731,0.7175,-4.7775,-3.2375
178,19738545,0.952332,0.023546,-0.28767600000000004,0.525,-4.795,-3.2375
179,19738642,0.951356,0.023912,-0.291458,0.315,-4.8825,-3.185
180,19738739,0.949892,0.023668,-0.291092,0.2275,-5.005,-3.22
181,19738835,0.9501360999999999,0.023058000000000002,-0.290238,0.4025,-5.1275,-3.1675
182,19738932,0.949892,0.023546,-0.290238,0.4375,-5.32,-3.1675
183,19739029,0.949892,0.022813999999999997,-0.289628,0.3325,-5.39,-3.15
184,19739126,0.9507460999999999,0.023302,-0.289506,0.4375,-5.3725,-3.15
185,19739222,0.9534301,0.023058000000000002,-0.28938400000000003,0.455,-5.425,-3.2025
186,19739319,0.9540401,0.024766,-0.28853,0.3675,-5.6525,-3.1325
187,19739416,0.95465,0.024278,-0.28975,0.4375,-5.6875,-3.0625
188,19739513,0.955016,0.023668,-0.29036,0.4025,-5.7225,-3.0975
189,19739609,0.954528,0.0244,-0.289018,0.21,-5.7575,-3.1675
190,19739706,0.953674,0.024522,-0.28938400000000003,0.0525,-5.74,-3.15
191,19739803,0.9514780999999999,0.02562,-0.287554,-0.0175,-5.705,-3.08
192,19739900,0.9497701,0.024522,-0.28767600000000004,-0.035,-5.7925,-3.08
193,19739996,0.949526,0.023302,-0.28853,0.14,-5.9325,-3.1675
194,19740093,0.950868,0.021594,-0.28926199999999996,0.3325,-6.0025,-3.185
195,19740190,0.9502581,0.021106,-0.28926199999999996,0.5425,-6.09,-3.115
196,19740287,0.951722,0.020618,-0.28926199999999996,0.6475,-6.1775,-3.0275
197,19740383,0.954284,0.022203999999999998,-0.28926199999999996,0.6125,-6.265,-2.905
198,19740480,0.9541620000000001,0.024156,-0.288042,0.49,-6.3,-2.835
199,19740577,0.954406,0.023424,-0.287066,0.1925,-6.37,-2.905
200,19740674,0.952942,0.024644,-0.28792,-0.07,-6.4575,-2.8875
201,19740770,0.9512341000000001,0.02562,-0.289506,-0.0875,-6.405,-2.905
202,19740867,0.951722,0.024766,-0.288896,-0.1575,-6.335,-2.9575
203,19740964,0.949892,0.022448,-0.287188,-0.07,-6.37,-3.01
204,19741061,0.951722,0.023424,-0.288408,-0.14,-6.335,-2.94
205,19741157,0.95221,0.022936,-0.288042,-0.28,-6.44,-2.9225
206,19741254,0.9526979999999999,0.02257,-0.29072600000000004,-0.2625,-6.5975,-2.765
207,19741351,0.9516,0.023912,-0.290604,-0.1925,-6.545,-2.7125
208,19741448,0.9511120000000001,0.024888,-0.28987199999999996,-0.0875,-6.44,-2.695
209,19741544,0.9502581,0.024522,-0.28999400000000003,0.07,-6.335,-2.7475
210,19741641,0.9511120000000001,0.0244,-0.288774,0.1225,-6.2825,-2.765
211,19741738,0.951722,0.024034,-0.287798,0.21,-6.2475,-2.7825
212,19741834,0.9502581,0.020252000000000003,-0.28999400000000003,0.35,-6.405,-2.73
213,19741931,0.9497701,0.020496,-0.290482,0.1575,-6.755,-2.625
214,19742028,0.9505020000000001,0.022203999999999998,-0.290482,-0.105,-6.965,-2.625
215,19742125,0.9505020000000001,0.024034,-0.292556,-0.21,-7.2975,-2.6775
216,19742221,0.9502581,0.024766,-0.293532,-0.14,-7.3325,-2.6775
217,19742318,0.9511120000000001,0.025376,-0.29365399999999997,-0.0175,-7.2275,-2.73
218,19742415,0.95221,0.024278,-0.29219,0.0,-6.895,-2.8
219,19742512,0.9525761,0.021228,-0.289628,0.14,-6.6325,-2.7825
220,19742608,0.950868,0.021472,-0.290116,0.175,-6.615,-2.835
221,19742705,0.9501360999999999,0.02257,-0.288164,-0.1225,-6.5625,-2.7125
222,19742802,0.9484280999999999,0.02135,-0.289628,-0.21,-6.65,-2.6075
223,19742899,0.9474520000000001,0.022448,-0.289506,-0.315,-6.58,-2.59
224,19742995,0.9441579999999999,0.022203999999999998,-0.28792,-0.2275,-6.4925,-2.7125
225,19743092,0.94489,0.021838,-0.288774,-0.21,-6.5275,-2.9225
226,19743189,0.947818,0.021106,-0.287798,-0.2275,-6.72,-2.8175
227,19743286,0.9511120000000001,0.019764,-0.285968,-0.2625,-7.21,-2.8175
228,19743382,0.9555040000000001,0.019275999999999998,-0.284504,-0.49,-7.175,-2.695
229,19743479,0.957822,0.01952,-0.285358,-0.8575,-7.14,-2.5375
230,19743576,0.9577,0.022692,-0.285968,-1.1375,-6.9125,-2.3625
231,19743673,0.955016,0.024522,-0.28243,-1.3825,-6.65,-2.205
232,19743769,0.9540401,0.028304000000000003,-0.282552,-1.785,-6.51,-2.275
233,19743866,0.952942,0.027938,-0.281942,-1.89,-6.195,-2.31
234,19743963,0.9505020000000001,0.028426,-0.278038,-1.9775,-5.985,-2.415
235,19744060,0.9520881,0.024522,-0.273036,-2.1525,-5.9325,-2.4675
236,19744156,0.9552601000000001,0.02257,-0.267302,-2.415,-6.1425,-2.31
237,19744253,0.9581881,0.022203999999999998,-0.268278,-3.115,-6.4925,-2.065
238,19744350,0.956968,0.021594,-0.27266999999999997,-3.7275,-6.93,-1.7325
239,19744447,0.9551379999999999,0.023180000000000003,-0.271816,-4.2175,-6.8775,-1.4875
240,19744543,0.9558701,0.024156,-0.269986,-4.48,-6.1775,-1.4525
241,19744640,0.9562360999999999,0.024766,-0.267302,-4.2,-5.005,-1.6275
242,19744737,0.9558701,0.024156,-0.26474000000000003,-3.8325,-3.7975,-1.855
243,19744834,0.9530641,0.026108,-0.262056,-3.4125,-2.66,-1.9425
244,19744930,0.952942,0.031476,-0.260104,-2.835,-2.0825,-2.0125
245,19745027,0.9548940999999999,0.036966000000000006,-0.26156799999999997,-2.24,-2.3625,-1.9775
246,19745124,0.9561139999999999,0.039284,-0.26169000000000003,-1.6975,-2.975,-1.8375
247,19745220,0.9595300999999999,0.042456,-0.25986,-1.435,-3.43,-1.6275
248,19745317,0.9628241,0.041114,-0.261812,-1.3125,-3.8325,-1.5575
249,19745414,0.9646541,0.038186000000000005,-0.267302,-1.05,-3.92,-1.61
250,19745511,0.9686799999999999,0.031354,-0.27205999999999997,-0.805,-3.85,-1.68
251,19745607,0.967216,0.027938,-0.278648,-0.7175,-3.7625,-1.8025
252,19745704,0.967216,0.024888,-0.284138,-0.6475,-3.7625,-1.855
253,19745801,0.964532,0.020252000000000003,-0.2867,-0.9625,-3.64,-1.68
254,19745898,0.965874,0.017568,-0.29597199999999996,-1.435,-3.815,-1.645
255,19745994,0.9592860000000001,0.018666,-0.29463,-1.7675,-4.235,-1.4175
256,19746091,0.957334,0.021106,-0.28853,-2.52,-5.46,-1.4525
257,19746188,0.955626,0.025986000000000002,-0.28304,-2.6425,-6.685,-1.1725
258,19746285,0.9539181000000001,0.031598,-0.2806,-2.555,-7.525,-0.8400001
259,19746381,0.94916,0.033306,-0.275598,-2.3625,-7.875,-0.63
260,19746478,0.947574,0.03416,-0.27084,-2.135,-7.91,-0.5775
261,19746575,0.9435479999999999,0.034892,-0.266326,-1.9775,-8.0675,-0.49
262,19746671,0.942816,0.035258,-0.2623,-1.715,-8.6275,-0.4375
263,19746768,0.94306,0.034526,-0.253272,-1.505,-9.4325,-0.14
264,19746865,0.94611,0.032330000000000005,-0.2501,-1.4,-10.22,0.2275
265,19746962,0.9524540000000001,0.03172,-0.258762,-0.9975,-10.92,0.5775
266,19747058,0.961726,0.0305,-0.261812,-1.12,-11.655,0.8925
267,19747155,0.9709979999999999,0.02501,-0.260104,-2.31,-12.4075,1.085
268,19747252,0.9772200999999999,0.022203999999999998,-0.262056,-3.605,-13.09,1.26
269,19747349,0.9795381,0.020252000000000003,-0.263764,-4.6375,-13.335,1.54
270,19747445,0.9784401,0.016347999999999998,-0.26413000000000003,-6.16,-13.09,1.7675
271,19747542,0.973194,0.015493999999999999,-0.26291,-8.12,-12.81,2.205
272,19747639,0.9646541,0.01464,-0.25851799999999997,-9.9575,-12.46,3.0975
273,19747736,0.950868,0.018788,-0.250222,-11.1125,-12.2325,4.4975
274,19747832,0.9391560999999999,0.023546,-0.25437,-11.7425,-12.425,6.0725
275,19747929,0.9275661000000001,0.032818,-0.262056,-12.0925,-13.1425,7.5075
276,19748026,0.9141459999999999,0.043432,-0.268888,-11.83,-13.3875,8.61
277,19748122,0.9009700999999999,0.054046000000000004,-0.264984,-10.71,-12.985,9.485
278,19748219,0.8940161,0.062464,-0.254492,-8.7675,-12.495,10.1325
279,19748316,0.8869401,0.06636801,-0.254126,-6.125,-12.2325,10.3775
280,19748413,0.880474,0.06075601,-0.256932,-3.36,-12.6175,9.975
281,19748509,0.8669319999999999,0.057218,-0.25851799999999997,-0.56,-13.8425,9.1525
282,19748606,0.85644,0.047458,-0.251442,3.605,-15.33,7.0875
283,19748703,0.8420440999999999,0.030866,-0.244488,7.4725,-17.0625,3.885
284,19748800,0.82045,0.010736,-0.23753400000000002,10.745,-19.04,-0.735
285,19748896,0.796416,-0.014762,-0.23887600000000003,13.2125,-20.475,-6.405
286,19748993,0.7931220999999999,-0.042456,-0.241804,14.91,-22.225,-12.6
287,19749090,0.81984,-0.059536,-0.248148,15.8025,-26.81,-18.725
288,19749187,0.8744960999999999,-0.06490399999999999,-0.26596,15.365,-36.2425,-24.1675
289,19749283,0.9456220999999999,-0.055022,-0.25681,13.6675,-48.265,-29.575
290,19749380,1.024434,-0.043798000000000004,-0.25058800000000003,9.905,-57.4875,-34.7375
291,19749477,1.100074,-0.020374,-0.261812,10.3775,-58.0475,-38.395
292,19749574,1.167784,0.018666,-0.300608,7.4025,-52.6925,-36.82
293,19749670,1.2341520000000001,0.054778,-0.33366999999999997,3.71,-41.58,-33.705
294,19749767,1.274046,0.063074,-0.3477,2.6075,-29.715,-26.9325
295,19749864,1.265994,0.055754,-0.32025,1.645,-19.8625,-18.6725
296,19749961,1.204628,0.052826,-0.263398,-0.7875,-11.025,-11.9875
297,19750057,1.113494,0.03294,-0.216428,-2.17,-3.605,-6.8775
298,19750154,1.044564,-0.01098,-0.203374,1.5225,1.5575,-2.8
299,19750251,1.001254,-0.039772,-0.22191799999999998,7.63,3.29,0.735
300,19750348,0.9653860000000001,-0.05172801,-0.24107199999999998,12.4425,2.3625,2.73
301,19750444,0.921344,-0.05355801,-0.237168,16.275,-0.42,4.4975
302,19750541,0.8881600000000001,-0.05587601,-0.223748,20.335,-4.3225,6.7375
303,19750638,0.863028,-0.06527000000000001,-0.215574,23.0475,-8.12,9.065
304,19750735,0.8346021,-0.06527000000000001,-0.21520799999999998,23.485,-11.41,11.1125
305,19750831,0.823744,-0.063196,-0.208498,21.7875,-14.805,11.7425
306,19750928,0.833992,-0.062586,-0.20727800000000002,18.4275,-17.8675,10.4475
307,19751025,0.850584,-0.053924,-0.20752199999999998,13.8425,-18.795,6.9125
308,19751121,0.8841341,-0.051972000000000004,-0.19947,7.98,-17.5875,2.345
309,19751218,0.9239059999999999,-0.05929201,-0.188368,3.3775,-16.59,-2.03
310,19751315,0.9440360999999999,-0.049898000000000005,-0.183854,0.5775,-14.1575,-6.79
311,19751412,0.9322021,-0.038308,-0.166774,-2.5375,-11.0075,-9.2575
312,19751508,0.930006,-0.0366,-0.142618,-5.9675,-7.77,-11.5675
313,19751605,0.924394,-0.0183,-0.136152,-8.19,-4.4275,-13.37
314,19751702,0.920734,-0.008540001,-0.127978,-8.4525,-3.5175,-13.755
315,19751799,0.9325680000000001,-0.000976,-0.13480999999999999,-8.2075,-5.1275,-12.9325
316,19751895,0.9502581,0.012565999999999999,-0.142252,-8.05,-7.4375,-11.2525
317,19751992,0.9714860000000001,0.026595999999999998,-0.149206,-7.63,-8.6975,-9.9925
318,19752089,0.9825879999999999,0.034282,-0.14469200000000002,-7.4375,-9.0825,-7.9975
319,19752186,0.9946659999999999,0.036966000000000006,-0.15054800000000002,-5.8625,-9.975,-6.1775
320,19752282,1.0025959999999998,0.025986000000000002,-0.169702,-2.8525,-10.7275,-4.76
321,19752379,1.004426,0.007564001,-0.20483800000000002,-0.63,-11.6725,-3.2025
322,19752476,1.000522,-0.009272001,-0.23009200000000002,0.77,-13.0025,-1.645
323,19752573,0.9995460999999999,-0.029524,-0.23973000000000003,1.3125,-14.3325,-0.0875
324,19752669,0.9964959999999999,-0.050508,-0.249002,0.735,-16.45,2.1875
325,19752766,0.985516,-0.07490801,-0.24766,-0.175,-18.305,3.85
326,19752863,0.98393,-0.090158,-0.24631799999999998,-3.92,-19.705,5.53
327,19752959,0.9796600000000001,-0.08771799999999999,-0.24156,-9.1175,-19.88,7.4025
328,19753056,0.993202,-0.08052000000000001,-0.231068,-13.9475,-18.9,8.47
329,19753153,1.001986,-0.067832,-0.211304,-19.4775,-17.2725,8.2775
330,19753250,1.01199,-0.060146000000000005,-0.173118,-25.5325,-15.0675,7.9975
331,19753346,1.042368,-0.037454,-0.13847,-29.9075,-13.9825,7.21
332,19753443,1.0645719999999999,-0.002318,-0.125538,-32.69,-13.055,6.3525
333,19753540,1.092388,0.008540001,-0.128832,-32.6375,-13.405,6.5275
334,19753637,1.134356,0.004514,-0.21374400000000002,-30.3275,-13.58,6.44
335,19753733,1.216828,0.0064659999999999995,-0.441762,-19.81,-17.3075,6.9475
336,19753830,1.305034,0.066246,-0.6319600000000001,-5.285,-21.175,7.7525
337,19753927,1.295396,0.104554,-0.52277,-6.9825,-10.0275,9.6075
338,19754023,1.256478,0.12627,-0.315126,-18.7775,15.05,11.41
339,19754120,1.240008,0.175314,-0.244488,-7.4375,35.0,10.78
340,19754217,1.196576,0.09028,-0.31598000000000004,18.27,34.475,9.6775
341,19754314,1.167052,0.10187,-0.462868,27.4225,17.3775,7.105
342,19754410,1.128378,0.118828,-0.553758,21.7175,0.1575,5.0225
343,19754507,1.12667,0.080886,-0.570106,15.295,-10.815,5.8275
344,19754604,1.164856,0.039894,-0.552172,11.8125,-18.4975,7.91
345,19754701,1.18889,0.000122,-0.543388,6.79,-27.3,9.765
346,19754797,1.17791,-0.05856,-0.552904,1.5925,-36.8375,10.1675
347,19754894,1.139602,-0.111752,-0.5918220999999999,-3.85,-42.21,11.0425
348,19754991,1.088484,-0.138714,-0.612196,-9.975,-39.655,13.3
349,19755088,1.036878,-0.133956,-0.613294,-18.375,-29.7325,16.065
350,19755184,0.9567241,-0.10394400000000001,-0.6052420000000001,-26.7575,-18.4275,20.5625
351,19755281,0.8443620999999999,-0.047092,-0.609634,-31.535,-10.5,24.255
352,19755378,0.730292,-0.001098,-0.572912,-34.405,-7.4025,27.65
353,19755474,0.6579461,0.029524,-0.538996,-33.4775,-8.365,32.83
354,19755571,0.697962,0.026595999999999998,-0.49885799999999997,-27.6675,-17.2025,39.5675
355,19755668,0.729804,0.039528,-0.510814,-21.385,-21.1575,46.305
356,19755765,0.772382,0.019398,-0.515084,-17.5,-18.2,43.1375
357,19755861,0.789706,-0.010614,-0.49849209999999994,-18.795,-21.6125,34.02
358,19755958,0.8364321,-0.043188,-0.46640600000000004,-19.3375,-28.7175,24.2375
359,19756055,0.9002379999999999,-0.07625,-0.443104,-17.115,-32.795,11.795
360,19756152,0.942206,-0.079056,-0.41101800000000005,-14.98,-33.0575,-1.3475
361,19756248,0.9379360000000001,-0.030744,-0.34953,-13.8075,-30.1875,-12.81
362,19756345,0.895236,0.017324000000000003,-0.28011199999999997,-11.7775,-23.485,-18.9525
363,19756442,0.8165460999999999,0.06819800000000001,-0.244732,-10.1675,-11.5325,-21.42
364,19756538,0.7306581,0.12139000000000001,-0.251686,-13.44,3.7275,-20.965
365,19756635,0.6469659999999999,0.181536,-0.270474,-20.72,18.165,-18.235
366,19756732,0.578036,0.231312,-0.29072600000000004,-27.72,25.69,-13.3525
367,19756829,0.553636,0.24351199999999998,-0.28633400000000003,-32.1825,21.63,-8.645
368,19756925,0.55937,0.217892,-0.26779000000000003,-33.075,10.5875,-5.075
369,19757022,0.553026,0.183732,-0.24558600000000003,-31.2725,-2.4675,-2.065
370,19757119,0.539484,0.152134,-0.235094,-29.295,-13.09,-1.2425
371,19757215,0.563884,0.099186,-0.263398,-24.9725,-16.975,-3.8325
372,19757312,0.6157341,0.042944,-0.296216,-19.4775,-22.155,-6.4225
373,19757409,0.653432,0.015616,-0.312198,-13.895,-31.3775,-8.5225
374,19757506,0.7055260999999999,-0.0122,-0.309636,-6.0725,-39.4625,-10.7625
375,19757602,0.721874,-0.014152000000000001,-0.28975,4.4625,-43.2075,-10.325
376,19757699,0.725534,-0.010858,-0.25656599999999996,13.6325,-42.35,-9.485
377,19757796,0.7005239999999999,0.01586,-0.22643200000000002,20.895,-33.8275,-7.805
378,19757893,0.6736840000000001,0.049654000000000004,-0.19983599999999999,24.64,-21.3675,-4.9525
379,19757989,0.654774,0.091988,-0.190686,26.5125,-9.87,-2.205
380,19758086,0.64965,0.130662,-0.187636,26.635,1.05,-0.6475
381,19758183,0.6695361,0.12139000000000001,-0.19556600000000002,24.3075,13.02,0.3325
382,19758279,0.695156,0.126392,-0.219112,20.4575,24.3425,0.98
383,19758376,0.737246,0.122244,-0.23911999999999997,16.3975,31.255,-0.1575
384,19758473,0.800808,0.097478,-0.246074,12.8625,29.82,-0.945
385,19758569,0.8819381,0.040504000000000005,-0.265106,10.92,22.26,-0.5075
386,19758666,0.9684360999999999,-0.013786000000000001,-0.309758,7.63,14.14,-0.385
387,19758763,1.043954,-0.04941,-0.332084,6.5625,9.52,-0.3675
388,19758860,1.0967799999999999,-0.085156,-0.325984,7.1575,8.365,0.6825
389,19758956,1.118252,-0.0976,-0.29365399999999997,8.9075,8.05,2.345
390,19759053,1.125694,-0.09418401,-0.2745,10.57,6.9475,5.2325
391,19759150,1.136552,-0.09162200000000001,-0.257054,13.1775,3.955,7.875
392,19759247,1.167418,-0.06270801,-0.273524,13.4575,-0.175,9.0125
393,19759343,1.203652,-0.042944,-0.345504,13.125,-7.525,8.26
394,19759440,1.2611139999999998,-0.02623,-0.512278,11.375,-19.5475,5.1625
395,19759537,1.372012,0.0034159999999999998,-0.787876,2.1,-37.2575,0.735
396,19759633,1.557452,-0.11333800000000001,-1.02114,-19.95,-59.7275,-6.9125
397,19759730,1.69702,-0.303048,-0.9700219999999999,-48.405,-73.3425,-16.52
398,19759827,1.727886,-0.338306,-0.526552,-56.7875,-43.1375,-25.7075
399,19759923,1.514508,-0.229848,-0.062586,-50.19,28.4025,-27.16
400,19760020,1.182424,-0.07222401,-0.11407,-59.2025,79.24,-27.755
401,19760117,1.082506,0.10004,-0.519964,-56.63,67.165,-31.43
402,19760214,1.224148,0.23155599999999998,-1.057984,-39.9175,8.1025,-25.1825
403,19760310,1.256722,0.288408,-1.270508,-14.2975,-35.6825,-19.495
404,19760407,1.1417979999999999,0.156404,-0.8860860999999999,-7.945,-16.45,-20.3875
405,19760504,1.04615,0.183,-0.5479021,-21.1925,1.785,-18.34
406,19760601,0.9553821,0.26156799999999997,-0.561932,-6.825,14.63,-13.1075
407,19760697,0.8169121,0.174216,-0.77104,16.275,39.935,-9.6075
408,19760794,0.687348,0.040626,-0.784582,20.405,55.405,-13.58
409,19760891,0.596092,-0.043554,-0.6763680000000001,7.1925,39.445,-21.6125
410,19760987,0.551074,-0.102358,-0.60329,7.8925,9.2225,-34.72
411,19761084,0.561322,-0.153354,-0.605974,12.145,-21.3675,-46.76
412,19761181,0.657092,-0.161162,-0.6141479999999999,14.1225,-50.54,-54.5125
413,19761278,0.835822,-0.15237799999999999,-0.563884,11.9875,-71.4875,-56.8925
414,19761374,1.059326,-0.08442401,-0.5249659999999999,10.5175,-76.72,-53.9175
415,19761471,1.234518,0.059658,-0.49129399999999995,10.7275,-69.405,-38.0275
416,19761568,1.26819,0.207644,-0.43761400000000006,8.225,-52.6225,-17.1325
417,19761665,1.152534,0.255712,-0.385764,0.9275,-29.4525,1.1025
418,19761761,0.9566020000000001,0.257664,-0.292312,-1.61,-5.425,12.9675
419,19761858,0.766892,0.212646,-0.273768,-3.43,15.855,18.9875
420,19761955,0.615368,0.067222,-0.30536599999999997,5.7925,35.4725,16.87
421,19762051,0.5198421,-0.032086,-0.343186,17.43,48.055,9.7125
422,19762148,0.4594521,-0.054167999999999994,-0.330498,22.085,51.8175,0.2275
423,19762245,0.40589400000000003,-0.12529400000000002,-0.276452,24.325,50.6275,-10.2375
424,19762342,0.368684,-0.23680199999999998,-0.22935999999999998,28.2625,39.9,-17.43
425,19762438,0.367342,-0.28975,-0.23228800000000002,26.53,15.0325,-18.025
426,19762535,0.399916,-0.286578,-0.164944,23.03,-16.3625,-15.61
427,19762632,0.43639399999999995,-0.25351599999999996,-0.135786,23.975,-28.035,-16.135
428,19762729,0.46116,-0.23741199999999998,-0.192028,21.735,-21.1925,-16.6075
429,19762825,0.5437541,-0.206546,-0.255468,16.065,-15.5225,-11.2
430,19762922,0.6396460999999999,-0.127734,-0.27938,8.225,-17.045,-3.2725
431,19763019,0.7017439999999999,-0.04941,-0.278038,3.5175,-19.6,0.77
432,19763116,0.7340741,0.00671,-0.24363400000000002,-2.59,-23.31,1.5575
433,19763212,0.732854,0.040504000000000005,-0.187026,-14.1225,-23.695,0.945
434,19763309,0.732366,0.039528,-0.117974,-26.425,-14.1575,-1.9075
435,19763406,0.7204100999999999,0.038918,-0.11431400000000001,-35.4025,3.2025,-6.8425
436,19763503,0.7034521,0.021594,-0.168604,-40.95,20.335,-11.27
437,19763599,0.702842,-0.013054,-0.219356,-42.4025,32.2,-14.3675
438,19763696,0.737124,-0.044652,-0.252052,-42.8925,40.5475,-17.99
439,19763793,0.790072,-0.055144000000000006,-0.255956,-42.14,44.0825,-20.405
440,19763889,0.849608,-0.046238,-0.26291,-40.215,39.9,-19.9675
441,19763986,0.9239059999999999,-0.022082,-0.26352,-35.35,26.635,-16.8
442,19764083,1.0182120000000001,0.010492,-0.318176,-27.895,9.7825,-13.44
443,19764180,1.114958,0.08649801,-0.33855,-16.6775,-1.47,-9.66
444,19764276,1.169248,0.177144,-0.282552,-12.635,0.105,-7.8225
445,19764373,1.1930379999999998,0.338428,-0.18849000000000002,-11.2525,12.705,-9.0825
446,19764470,1.17547,0.43468599999999996,-0.163846,-2.555,24.1325,-11.0775
447,19764567,1.173518,0.33976999999999996,-0.183732,9.5725,20.055,-8.9775
448,19764663,1.239032,0.22143000000000002,-0.190198,13.4225,13.0725,-1.9075
449,19764760,1.29259,0.11236199999999999,-0.174582,5.8625,10.0275,5.2675
450,19764857,1.352858,0.046482,-0.18446400000000002,-2.45,3.6225,10.6925
451,19764954,1.463878,-0.018056,-0.30195,-7.98,-0.91,9.625
452,19765050,1.6440720000000002,-0.08784,-0.659288,2.485,-6.93,9.31
453,19765147,1.803404,-0.02196,-0.9191481,18.445,-26.6525,14.4025
454,19765244,1.7694880000000002,0.046848,-0.785558,-5.0925,-26.3025,11.48
455,19765341,1.6844540000000001,0.112972,-0.691496,-33.425,6.1075,7.2275
456,19765437,1.597834,0.142984,-0.668438,-4.55,19.7575,12.0225
457,19765534,1.410564,0.041236,-0.619394,15.505,-7.245,34.23
458,19765631,1.1744940000000001,0.078202,-0.59719,15.435,-30.8525,54.81
459,19765727,0.935008,0.324886,-0.7771399999999999,22.7325,-21.8925,60.8125
460,19765824,0.744688,0.38064000000000003,-0.8998719999999999,16.905,-6.615,60.1825
461,19765921,0.69418,0.266204,-0.777628,-4.4625,-6.37,53.3925
462,19766018,0.6952781,0.189222,-0.637206,-16.135,-25.0775,45.7975
463,19766114,0.678442,0.147498,-0.551806,-3.43,-50.82,34.72
464,19766211,0.689666,0.138348,-0.567666,5.46,-74.48,32.3925
465,19766308,0.7135779999999999,0.04331,-0.639524,7.385,-84.4725,35.455
466,19766405,0.712358,-0.087352,-0.713212,16.45,-64.12,43.8375
467,19766501,0.772504,-0.231068,-0.795562,12.53,-36.54,47.145
468,19766598,0.9091440000000001,-0.320982,-0.7226060000000001,-0.4025,-25.8825,36.9075
469,19766695,1.017724,-0.32879,-0.587796,-15.8375,-32.865,26.7225
470,19766792,1.026386,-0.378688,-0.373564,-20.0375,-44.205,14.21
471,19766888,0.960384,-0.49031800000000003,-0.152622,-15.68,-46.9525,-3.5175
472,19766985,0.813496,-0.44639799999999996,0.064538,-4.6025,-34.02,-15.26
473,19767082,0.69662,-0.296094,0.137738,-1.715,-4.4275,-22.2075
474,19767179,0.6390359999999999,-0.085156,-0.01037,-9.7475,35.0875,-24.9375
475,19767275,0.5988979999999999,0.106262,-0.421266,-22.085,69.1075,-27.4925
476,19767372,0.5474140000000001,0.171166,-0.621346,-27.195,76.055,-30.17
477,19767469,0.5388741,0.248148,-0.45298599999999994,-47.1275,45.255,-24.0275
478,19767566,0.537166,0.35197,-0.287066,-59.9025,15.225,-15.47
479,19767662,0.5099600000000001,0.41858199999999995,-0.27828200000000003,-45.0275,6.9125,-6.3875
480,19767759,0.487146,0.44237200000000004,-0.292068,-33.6175,7.8225,-1.6975
481,19767856,0.438834,0.43798000000000004,-0.22582199999999997,-32.235,8.785,-1.1025
482,19767953,0.37881,0.377834,-0.159942,-27.685,11.2175,-4.165
483,19768049,0.308782,0.318298,-0.176778,-15.9425,14.9275,-8.75
484,19768146,0.32818,0.22045399999999998,-0.21057199999999998,-2.8175,8.4525,-13.65
485,19768243,0.35026199999999996,0.14518,-0.23228800000000002,7.735,-7.735,-13.5625
486,19768340,0.409066,0.106018,-0.26095799999999997,21.07,-26.565,-10.9375
487,19768436,0.502884,0.07893401,-0.304634,37.625,-47.04,-9.66
488,19768533,0.60573,0.053191999999999996,-0.29743600000000003,55.2125,-65.1175,-8.61
489,19768630,0.69479,0.032574,-0.229116,67.3575,-71.78501,-6.1775
490,19768727,0.763476,0.015006,-0.16104000000000002,72.5725,-58.52,-4.795
491,19768823,0.8253299999999999,-0.001342,-0.15616,72.2225,-26.39,-3.5525
492,19768920,0.9315921,0.008540001,-0.213256,66.5,13.475,-1.54
493,19769017,1.077382,0.062098,-0.299998,58.73,47.635,1.1725
494,19769114,1.2164620000000002,0.11870599999999999,-0.35697199999999996,53.8825,61.635,4.2525
495,19769210,1.32187,0.15006,-0.35892399999999997,49.7175,52.395,2.1175
496,19769307,1.3235780000000001,0.151646,-0.285602,47.3375,28.8925,-0.8925
497,19769404,1.2469620000000001,0.110044,-0.21081599999999998,44.485,9.275,-5.495
498,19769501,1.146068,0.030012,-0.17385,38.9375,4.9525,-10.4475
499,19769597,1.087386,-0.102602,-0.156526,28.5775,10.045,-12.3375
500,19769694,1.08702,-0.302072,-0.16775,17.01,13.685,-12.355
501,19769791,1.178398,-0.360388,-0.210694,7.035,10.92,-13.8775
502,19769887,1.267824,-0.317688,-0.26303200000000004,1.19,1.96,-13.6675
503,19769984,1.292834,-0.329644,-0.217404,10.465,-11.41,-10.22
504,19770081,1.280756,-0.273646,-0.138836,15.9425,-24.92,-4.2525
505,19770178,1.290394,-0.13151600000000002,-0.06124401,17.3075,-39.9525,5.3375
506,19770274,1.375062,0.072102,-0.317932,11.2525,-55.9825,13.02
507,19770371,1.60735,0.175314,-0.8608319999999999,15.2775,-71.8025,11.8825
508,19770468,1.6888459999999998,0.01342,-1.050298,11.4625,-79.94,5.2325
509,19770565,1.479982,-0.069662,-1.047736,-38.5875,-51.9925,-13.44
510,19770661,1.159122,0.068076,-0.5845020000000001,-40.6525,7.035,-32.8125
511,19770758,0.9744141,-0.0244,-0.5016641,-35.805,57.8725,-50.8375
512,19770855,0.8084939999999999,-0.108458,-0.673562,-16.7825,104.7375,-64.1025
513,19770952,0.7548140999999999,-0.24875799999999998,-1.1927940000000001,-3.78,134.435,-77.1575
514,19771048,0.783728,-0.281454,-1.339194,14.4725,95.655,-79.135
515,19771145,0.86193,-0.215086,-0.8193521,0.98,-9.905,-77.98
516,19771242,0.818986,-0.153232,-0.527162,-16.03,-44.1175,-77.7875
517,19771338,0.6877141,-0.153598,-0.578158,-2.66,-34.0725,-64.715
518,19771435,0.67893,-0.125904,-0.713334,0.7175,-38.955,-50.2775
519,19771532,0.8398479999999999,-0.015128,-0.8016621,-8.5575,-55.965,-41.965
520,19771629,1.142652,0.21838000000000002,-0.8908440999999999,-14.3675,-66.7975,-32.97
521,19771725,1.493036,0.43737,-0.9052401,-7.945,-68.0925,-21.21
522,19771822,1.59881,0.522038,-0.61,1.3475,-66.7625,-7.6125
523,19771919,1.36884,0.5875520000000001,-0.24461,-5.25,-63.945,1.3825
524,19772016,1.010282,0.670268,0.11126400000000002,4.305,-52.99,6.2825
525,19772112,0.7269979999999999,0.518744,0.22472399999999998,15.6975,-26.0225,2.695
526,19772209,0.596214,0.197274,0.041724000000000004,25.7075,23.485,-1.785
527,19772306,0.546072,-0.09455001,-0.407602,43.33,78.3825,4.6725
528,19772403,0.5858439999999999,-0.211914,-0.630374,51.835,90.2475,4.0425
529,19772499,0.579012,-0.228994,-0.5115460000000001,33.9675,58.905,-3.8325
530,19772596,0.494832,-0.25071,-0.299388,30.52,32.9875,-9.73
531,19772693,0.43249,-0.31659,-0.1708,38.92,15.225,-11.7425
532,19772790,0.431392,-0.3965,-0.17641199999999999,32.4625,1.1375,-10.815
533,19772886,0.449204,-0.385642,-0.14152,22.9075,-9.1525,-9.625
534,19772983,0.428464,-0.341966,-0.15018199999999998,18.3225,-7.35,-8.015
535,19773080,0.41711800000000004,-0.349164,-0.17836400000000002,11.5325,-1.68,-6.65
536,19773177,0.41358,-0.32403200000000004,-0.167872,0.7525,-2.5025,-0.3675
537,19773273,0.440176,-0.276696,-0.163358,-10.7975,-2.87,6.1075
538,19773370,0.460794,-0.206546,-0.16128399999999998,-23.52,-4.1475,8.015
539,19773467,0.492514,-0.13151600000000002,-0.12980799999999998,-38.2025,-9.66,7.0
540,19773564,0.533506,-0.051118000000000004,-0.081496,-52.6225,-13.44,4.935
541,19773660,0.571936,0.013297999999999999,-0.06746601,-61.5125,-6.51,1.085
542,19773757,0.616344,0.07234600000000001,-0.09442801,-62.93,9.87,-3.465
543,19773854,0.68747,0.12078,-0.152622,-58.6075,26.215,-8.0325
544,19773950,0.805566,0.14884,-0.226798,-50.925,34.755,-11.1125
545,19774047,0.9678261,0.168848,-0.295362,-39.1475,33.18,-13.3
546,19774144,1.1364299999999998,0.16909200000000002,-0.338062,-27.4225,25.3225,-13.055
547,19774241,1.2550139999999999,0.13176,-0.28609,-22.015,15.96,-13.265
548,19774337,1.251476,0.09223200000000001,-0.22045399999999998,-22.9075,12.915,-13.09
549,19774434,1.174128,0.093574,-0.183,-25.2,18.7075,-12.1625
550,19774531,1.1003180000000001,0.137372,-0.198006,-25.62,23.485,-9.52
551,19774628,1.0676219999999998,0.21081599999999998,-0.208498,-25.025,20.895,-5.2675
552,19774724,1.0765280000000002,0.23460599999999998,-0.17995,-24.7275,14.8925,0.735
553,19774821,1.1259379999999999,0.211914,-0.162992,-20.615,13.265,7.7175
554,19774918,1.180228,0.188002,-0.167506,-20.2125,12.46,13.405
555,19775015,1.247328,0.141032,-0.24522,-21.56,6.9825,18.095
556,19775111,1.4245940000000001,0.14884,-0.556686,-12.81,-6.755,20.8075
557,19775208,1.7386220000000001,0.23301999999999998,-1.048346,8.2775,-36.8025,24.92
558,19775305,1.891488,0.368318,-1.069818,12.6525,-70.56,29.995
559,19775401,1.832928,0.48214399999999996,-0.71004,-32.795,-54.67,29.82
560,19775498,1.7172720000000001,0.45030200000000004,-0.390888,-34.615,-8.96,20.3525
561,19775595,1.383846,0.149084,-0.32256799999999997,31.4475,18.1125,19.6
562,19775692,1.080432,0.09589201,-0.5103260000000001,64.1375,13.265,38.815
563,19775788,0.9716081,0.18117,-0.675026,53.9175,11.725,48.475
564,19775885,0.8611979999999999,0.125416,-0.7470060000000001,35.175,13.055,54.845
565,19775982,0.762988,0.009516001,-0.7489581,17.78,4.1825,55.615
566,19776079,0.7823859999999999,-0.015738,-0.7543261,0.805,-21.28,46.83
567,19776176,0.8270379999999999,0.026108,-0.71492,-7.77,-48.5975,36.9425
568,19776272,0.8581479999999999,-0.009394,-0.706624,-9.485,-57.9775,34.2475
569,19776369,0.8609540999999999,-0.134322,-0.719434,-9.59,-55.3525,35.84
570,19776466,0.9287861,-0.290238,-0.681126,-9.135,-41.7375,36.3825
571,19776562,1.022604,-0.389302,-0.6663640000000001,-14.7,-22.645,36.96
572,19776659,1.113738,-0.423706,-0.6707561,-22.3125,-9.0125,26.5825
573,19776756,1.173518,-0.389912,-0.592554,-29.995,-10.4825,6.23
574,19776853,1.04493,-0.314882,-0.399428,-25.6725,-21.0525,-2.6425
575,19776949,0.8364321,-0.24082800000000001,-0.17921800000000002,-15.1375,-30.135,-3.7625
576,19777046,0.692472,-0.147376,-0.03843,-7.735,-24.4125,-5.0575
577,19777143,0.6480640000000001,-0.025131999999999998,-0.06661201,-10.71,1.8725,-6.3
578,19777240,0.678076,0.104066,-0.20508200000000001,-21.2275,38.5525,-7.6825
579,19777336,0.665144,0.19983599999999999,-0.359412,-31.9725,68.7575,-8.9075
580,19777433,0.5997520000000001,0.260104,-0.407358,-40.2675,69.93,-10.5525
581,19777530,0.549244,0.312686,-0.334646,-49.7525,39.4625,-8.505
582,19777627,0.5260640000000001,0.34831,-0.27279200000000003,-51.9925,13.335,-4.9525
583,19777723,0.48848800000000003,0.367952,-0.290482,-46.55,4.0075,-1.54
584,19777820,0.47153,0.37271,-0.254004,-41.125,-1.8025,-0.245
585,19777917,0.44517799999999996,0.372832,-0.20447200000000001,-34.7725,-2.7825,-0.7175
586,19778014,0.41297,0.35172600000000004,-0.1647,-23.3275,-2.0825,-2.0125
587,19778111,0.401014,0.28694400000000003,-0.166408,-9.8875,-1.1025,-4.6375
588,19778207,0.40809,0.20642399999999997,-0.199348,4.025,-2.7125,-5.25
589,19778304,0.46591800000000005,0.08808401,-0.21752600000000002,16.7475,-13.0375,-5.355
590,19778401,0.5185,0.038918,-0.22862800000000003,26.9325,-27.1775,-2.9225
591,19778498,0.6019479999999999,-0.010248,-0.242414,38.955,-40.565,-0.98
592,19778594,0.688934,-0.046604,-0.20703400000000002,53.655,-53.7425,3.85
593,19778691,0.717482,-0.072712,-0.158966,61.32,-57.0325,8.12
594,19778788,0.7394421,-0.04941,-0.081618,62.5275,-40.6,9.94
595,19778885,0.767624,-0.030744,-0.019764,62.2125,-8.085,10.815
596,19778981,0.815814,0.0064659999999999995,-0.03782,58.275,30.2925,11.725
597,19779078,0.9009700999999999,0.05453401,-0.148474,52.92,59.465,13.09
598,19779175,1.03395,0.10638399999999999,-0.33171799999999996,52.4475,64.9775,13.5275
599,19779272,1.162172,0.141764,-0.33379200000000003,49.98,35.6825,11.06
600,19779368,1.1381379999999999,0.155306,-0.203984,34.7025,-0.735,3.3075
601,19779465,1.0734780000000002,0.168604,-0.051362,24.6225,-12.53,-8.0675
602,19779562,1.040416,0.159088,0.023058000000000002,22.575,-10.1675,-13.895
603,19779659,1.014674,0.0793,-0.031476,20.5625,-8.3825,-14.2975
604,19779755,1.012722,-0.067832,-0.16909200000000002,12.0925,-6.5975,-15.3125
605,19779852,1.090924,-0.21276799999999998,-0.26779000000000003,-1.715,-7.7,-18.34
606,19779949,1.214266,-0.270352,-0.27816,-2.9925,-12.495,-21.735
607,19780046,1.293444,-0.259006,-0.35892399999999997,10.7975,-18.4275,-20.5975
608,19780142,1.4094659999999999,-0.23167800000000002,-0.737978,23.9225,-34.475,-16.1875
609,19780239,1.606496,-0.345138,-1.072868,22.715,-58.1175,-11.9
610,19780336,1.7493580000000002,-0.521306,-1.1028799999999999,-6.86,-77.91,-11.0775
611,19780433,1.740818,-0.432856,-0.6472100000000001,-14.5075,-81.095,-14.0
612,19780529,1.488522,-0.281332,-0.33684200000000003,-22.6975,-61.18,-17.29
613,19780626,1.1594879999999999,-0.100772,-0.3538,-31.3425,-22.225,-26.2325
614,19780723,0.907436,0.07808001,-0.5857220000000001,-25.8825,26.565,-44.8175
615,19780820,0.7248020000000001,0.137982,-0.8489979999999999,-17.0975,79.66001,-58.8175
616,19780916,0.727242,0.11248399999999999,-1.17913,-4.9875,97.7725,-70.5425
617,19781013,0.8541221,0.115534,-0.936594,-0.8225,48.3,-78.62751
618,19781110,0.924516,0.107726,-0.645746,-31.5875,-14.91,-75.9325
619,19781207,0.9375700000000001,0.077592,-0.530822,-10.5525,-23.5025,-74.5325
620,19781303,0.9203680000000001,0.044774,-0.658068,11.27,-17.36,-58.5725
621,19781400,1.039318,0.064172,-0.7679901,7.6125,-33.1625,-42.4025
622,19781497,1.2877100000000001,0.162504,-0.759084,0.3325,-52.5175,-38.22
623,19781594,1.529758,0.299998,-0.650748,5.005,-54.285,-32.7425
624,19781690,1.515484,0.356606,-0.462258,15.295,-36.645,-22.2075
625,19781787,1.22,0.3416,-0.324398,17.5,-18.6025,-10.08
626,19781884,0.9691681000000001,0.341478,-0.246074,19.425,-19.215,-7.14
627,19781981,0.8392381,0.28377199999999997,-0.21142600000000003,24.8325,-23.52,-6.4575
628,19782077,0.785192,0.12627,-0.211182,27.5975,-5.7225,-6.3175
629,19782174,0.735416,-0.0305,-0.26303200000000004,25.9175,28.5075,-4.655
630,19782271,0.665632,-0.159942,-0.309392,26.3375,53.69,-2.625
631,19782368,0.573278,-0.24766,-0.28548,29.2425,56.035,-4.55
632,19782465,0.483608,-0.279746,-0.25986,32.1125,44.94,-7.6825
633,19782561,0.42028999999999994,-0.30341399999999996,-0.24778200000000003,35.8925,32.4625,-6.9825
634,19782658,0.416386,-0.344528,-0.241804,36.015,19.95,-6.0375
635,19782755,0.399306,-0.36441399999999996,-0.160918,30.415,3.535,-4.6375
636,19782852,0.36966,-0.31781,-0.139934,26.39,-5.1625,-1.5225
637,19782948,0.352458,-0.28316199999999997,-0.15982000000000002,21.77,-8.3475,0.245
638,19783045,0.364536,-0.239608,-0.153354,10.9375,-12.845,3.36
639,19783142,0.396744,-0.179096,-0.15091400000000002,-2.6075,-16.5725,5.4425
640,19783239,0.435296,-0.134688,-0.151402,-13.2825,-21.1575,7.0525
641,19783335,0.48958599999999997,-0.070882,-0.14884,-21.14,-27.2475,8.155
642,19783432,0.5499761,-0.015493999999999999,-0.14871800000000002,-30.205,-31.255,5.285
643,19783529,0.615124,0.03599,-0.12529400000000002,-37.5725,-29.085,0.385
644,19783626,0.658068,0.06771001,-0.100162,-44.4675,-16.2925,-6.9475
645,19783722,0.692472,0.09625801,-0.08052000000000001,-48.6675,4.2525,-13.5625
646,19783819,0.7269979999999999,0.079666,-0.09540401,-46.3575,25.655,-18.97
647,19783916,0.787144,0.06588,-0.14396,-41.1775,39.3225,-21.3675
648,19784012,0.8762040000000001,0.05246,-0.235704,-38.8325,40.0575,-21.0175
649,19784109,0.9861260000000001,0.025986000000000002,-0.29072600000000004,-33.67,28.455,-19.25
650,19784206,1.077748,-0.00671,-0.292678,-31.5875,13.02,-17.29
651,19784303,1.154364,-0.032574,-0.26303200000000004,-34.4575,2.485,-14.8925
652,19784399,1.18157,-0.020130000000000002,-0.218502,-33.425,1.0325,-11.83
653,19784496,1.147532,-0.004514,-0.154452,-29.47,7.07,-8.6275
654,19784593,1.052738,0.10614000000000001,-0.09259801,-27.2475,13.9475,-8.6975
655,19784690,0.9978379999999999,0.23680199999999998,-0.06039,-28.9975,11.9525,-10.3075
656,19784786,1.048224,0.284138,-0.060024,-23.5025,0.105,-7.455
657,19784883,1.172786,0.27071799999999996,-0.095648,-15.9425,-9.2575,-1.9775
658,19784980,1.260748,0.228994,-0.16835999999999998,-16.5025,-11.8475,2.2225
659,19785077,1.369206,0.20483800000000002,-0.347578,-14.84,-16.6075,4.6725
660,19785173,1.596004,0.172508,-0.7567659999999999,4.4625,-30.6775,7.42
661,19785270,1.829146,0.25961599999999996,-0.9370821,25.8825,-55.02,14.805
662,19785367,1.833416,0.366244,-0.6686821,-1.82,-55.545,19.005
663,19785464,1.8074299999999999,0.396256,-0.549854,-26.11,-27.685,13.755
664,19785560,1.6914080000000002,0.323544,-0.700646,22.505,-12.0575,13.3525
665,19785657,1.389458,0.053924,-0.74664,54.67,-16.9225,30.835
666,19785754,1.197552,0.00183,-0.5919439999999999,39.725,-7.2275,52.1325
667,19785851,1.057252,0.154696,-0.460916,29.4875,19.7575,59.535
668,19785947,0.870714,0.19251600000000002,-0.628666,21.2625,32.095,61.74
669,19786044,0.74725,0.135054,-0.8827921000000001,9.59,9.8175,63.42
670,19786141,0.791048,0.122244,-0.865834,-11.2175,-27.3875,55.8425
671,19786238,0.798246,0.11333800000000001,-0.658922,-20.4225,-48.2475,45.465
672,19786334,0.805688,0.012322,-0.5936520000000001,-11.585,-57.82,42.2975
673,19786431,0.8840120000000001,-0.17140999999999998,-0.6125619999999999,1.645,-61.2675,44.6075
674,19786528,0.9479401,-0.345016,-0.7065020000000001,6.58,-41.16,49.735
675,19786624,1.057862,-0.38735,-0.777628,-0.14,-10.535,38.71
676,19786721,1.216218,-0.356118,-0.72407,-17.4475,3.2375,13.055
677,19786818,1.206824,-0.32086,-0.514352,-27.125,-2.765,-1.365
678,19786915,1.071892,-0.343186,-0.282674,-24.3425,-18.7425,-12.39
679,19787011,0.868152,-0.30341399999999996,0.009394,-10.7275,-29.995,-15.785
680,19787108,0.724924,-0.18971,0.17873,-9.8525,-25.5675,-15.575
681,19787205,0.692106,-0.006954000000000001,0.18971,-14.9275,3.325,-13.5275
682,19787302,0.7019880000000001,0.165432,-0.11736400000000001,-25.8125,47.0225,-12.25
683,19787398,0.6512359999999999,0.259982,-0.561566,-30.8,76.44001,-13.09
684,19787495,0.58194,0.328424,-0.5980439999999999,-29.3125,69.4925,-13.3175
685,19787592,0.520818,0.36173,-0.3965,-57.1375,32.4975,-7.91
686,19787689,0.457866,0.399428,-0.21886799999999998,-55.79,19.25,-6.0375
687,19787785,0.42065600000000003,0.377956,-0.24216999999999997,-41.5625,17.6225,-4.27
688,19787882,0.374662,0.361242,-0.255468,-33.285,15.0675,-4.7775
689,19787979,0.34428400000000003,0.343552,-0.197518,-30.9225,12.0575,-8.9075
690,19788076,0.328058,0.322446,-0.145424,-20.79,7.2625,-12.845
691,19788172,0.312076,0.263154,-0.143716,-2.8875,0.1575,-14.3675
692,19788269,0.340258,0.15506199999999998,-0.176656,12.1625,-8.82,-12.95
693,19788366,0.383446,0.062952,-0.205936,26.355,-17.85,-8.1375
694,19788463,0.43334399999999995,0.040260000000000004,-0.22862800000000003,39.7425,-24.675,-2.7825
695,19788559,0.5060560000000001,0.02501,-0.24265799999999998,50.3125,-31.2375,1.2075
696,19788656,0.5857220000000001,0.015493999999999999,-0.20447200000000001,61.495,-36.715,6.2475
697,19788753,0.6533100000000001,0.030866,-0.147376,66.885,-38.7975,11.06
698,19788850,0.72529,0.04087,-0.10638399999999999,65.205,-31.885,13.7375
699,19788946,0.8224021,0.049898000000000005,-0.08308201,63.1575,-15.1025,15.1375
700,19789043,0.974658,0.054167999999999994,-0.133346,61.145,7.3675,16.0475
701,19789140,1.17669,0.102724,-0.254004,61.67,27.055,17.3075
702,19789237,1.3735979999999999,0.156648,-0.28938400000000003,61.6,27.7025,16.3975
703,19789333,1.442772,0.134078,-0.186172,49.5425,10.045,9.905
704,19789430,1.37494,0.11224,-0.019154,40.6175,-6.23,-0.5425
705,19789527,1.158146,0.052582000000000004,0.017934000000000002,43.61,-10.5875,-4.6025
706,19789624,0.9567241,-0.034404000000000004,-0.09979600000000001,44.0475,-9.6775,-8.7675
707,19789720,0.9179280000000001,-0.138836,-0.24034,26.4075,-0.385,-12.46
708,19789817,1.043954,-0.211182,-0.25742,-0.21,13.4225,-18.095
709,19789914,1.166808,-0.265472,-0.217892,-4.3225,8.5925,-22.4875
710,19790010,1.2317120000000001,-0.261446,-0.22948200000000002,9.485,-9.555,-17.3775
711,19790107,1.346026,-0.196176,-0.396256,18.6025,-32.515,-7.0875
712,19790204,1.531588,-0.133956,-0.731146,18.3925,-64.75,5.005
713,19790301,1.79157,-0.27571999999999997,-0.885842,3.675,-96.42501,6.3525
714,19790397,1.9537080000000002,-0.41113999999999995,-0.653554,-22.33,-97.0375,-4.305
715,19790494,1.7812,-0.273036,-0.266692,-34.0375,-57.89,-11.9175
716,19790591,1.334192,-0.07259,-0.228384,-36.54,-9.9575,-23.73
717,19790688,0.9863700000000001,0.06661201,-0.5231359999999999,-37.87,22.3475,-39.655
718,19790784,0.8103239999999999,0.208132,-0.8547319999999999,-27.475,54.18,-49.49
719,19790881,0.8254520000000001,0.13359000000000001,-1.045906,-13.5625,90.475,-56.0175
720,19790978,0.904386,0.061366,-1.16327,-0.1575,75.46,-59.4475
721,19791075,0.9398880999999999,0.07344400000000001,-0.744444,2.835,0.7175,-58.4325
722,19791171,0.9376921,-0.005734,-0.46506400000000003,-19.5475,-23.5725,-60.375
723,19791268,0.8931620000000001,-0.08771799999999999,-0.5322861,1.5575,3.01,-56.5075
724,19791365,0.874984,-0.125172,-0.668438,14.3325,3.5175,-39.41
725,19791461,0.9535521,-0.100772,-0.7195560000000001,0.42,-21.9625,-26.5125
726,19791558,1.092998,-0.025986000000000002,-0.721508,-10.7275,-41.3875,-25.9
727,19791655,1.227808,0.10553,-0.6928380000000001,-4.4975,-48.72,-23.87
728,19791752,1.305156,0.191174,-0.580842,2.8525,-46.7425,-18.41
729,19791848,1.216218,0.232776,-0.39894,0.4375,-41.6675,-10.955
730,19791945,1.005036,0.28987199999999996,-0.21594000000000002,-2.8875,-35.77,-3.57
731,19792042,0.8030041,0.30256,-0.068076,-1.3825,-23.275,-2.1
732,19792139,0.6588,0.198372,-0.07246799999999999,-0.21,6.2475,-0.735
733,19792235,0.603046,0.071248,-0.169946,7.21,50.54,0.595
734,19792332,0.5978,-0.032574,-0.331596,13.58,79.24,1.4175
735,19792429,0.57462,-0.132492,-0.359168,22.225,73.2025,0.525
736,19792526,0.522038,-0.20178800000000002,-0.28621199999999997,25.3925,50.015,-4.9875
737,19792622,0.46164799999999995,-0.25559,-0.243756,25.0775,31.325,-11.0075
738,19792719,0.420534,-0.28316199999999997,-0.194712,29.4875,15.12,-12.775
739,19792816,0.444934,-0.319274,-0.157746,27.965,3.0975,-13.02
740,19792912,0.437004,-0.31585799999999997,-0.11614400000000001,19.355,-3.01,-10.0975
741,19793007,0.429562,-0.271572,-0.121146,11.6375,-4.9875,-5.4425
742,19793103,0.421022,-0.232044,-0.124074,4.9,-7.5075,-2.1875
743,19793200,0.43249,-0.167262,-0.142496,-4.27,-8.435,1.645
744,19793297,0.451766,-0.11138599999999999,-0.147498,-17.22,-9.835,5.0225
745,19793394,0.486292,-0.054412,-0.132736,-28.1225,-11.9,4.97
746,19793490,0.526918,-0.000366,-0.11394800000000001,-37.765,-13.3525,2.695
747,19793587,0.587918,0.043554,-0.091012,-46.9175,-11.97,-0.945
748,19793684,0.648552,0.06600201,-0.050263999999999996,-52.99,-3.3775,-7.6825
749,19793781,0.6994260999999999,0.085522,-0.033672,-55.0375,11.0775,-13.3875
750,19793877,0.764208,0.086132,-0.062098,-53.6375,23.975,-17.43
751,19793974,0.862784,0.081618,-0.10675,-51.45,22.7675,-17.8675
752,19794071,1.006256,0.046482,-0.18605,-47.355,11.2,-16.6425
753,19794168,1.14375,0.024278,-0.267058,-39.4275,-3.2025,-15.6975
754,19794264,1.2347620000000001,0.001342,-0.26352,-34.335,-15.2775,-14.7175
755,19794361,1.258186,-0.032208,-0.185318,-37.03,-11.7775,-14.735
756,19794458,1.230858,-0.013786000000000001,-0.129442,-40.0925,7.5075,-13.9475
757,19794555,1.15046,0.11407,-0.17934,-37.485,20.23,-8.9425
758,19794651,1.082262,0.23973000000000003,-0.215086,-32.165,10.92,-4.55
759,19794748,1.053348,0.310856,-0.177022,-28.8225,1.015,-0.9975
760,19794845,1.079212,0.3111,-0.115534,-24.885,5.4075,5.4775
761,19794942,1.141066,0.26291,-0.069174,-24.36,12.565,10.5525
762,19795038,1.250256,0.228262,-0.22265,-20.02,7.4375,13.8075
763,19795135,1.503894,0.198494,-0.628178,2.4675,-19.845,18.1125
764,19795232,1.785714,0.269864,-0.8643700999999999,23.45,-70.3675,26.0925
765,19795329,1.7890080000000002,0.415288,-0.61061,-3.325,-102.865,30.9225
766,19795425,1.711782,0.5060560000000001,-0.322202,-36.5575,-79.4675,27.44
767,19795522,1.632482,0.369904,-0.447374,4.935,-42.07,20.6325
768,19795619,1.415322,0.145424,-0.77165,60.5675,-39.6375,32.375
769,19795715,1.286734,0.005734,-0.8254520000000001,52.0975,-49.9975,48.9125
770,19795812,1.233908,0.019642,-0.59109,26.11,-26.4425,54.3375
771,19795909,1.0656700000000001,-0.03599,-0.49739399999999995,23.555,4.2175,58.765
772,19796006,0.889136,-0.10540799999999999,-0.6514800000000001,32.34,7.035,54.39
773,19796102,0.830332,-0.064294,-0.8782780000000001,15.9775,-21.5075,46.41
774,19796199,0.8762040000000001,0.021716,-0.8782780000000001,-9.03,-50.0675,43.82
775,19796296,0.9333,0.034892,-0.731146,-21.525,-55.2825,43.7325
776,19796393,0.886574,-0.041358,-0.665754,-19.11,-44.45,44.0475
777,19796489,0.9282981,-0.166286,-0.60939,-14.875,-35.91,43.1025
778,19796586,0.9174399999999999,-0.203862,-0.592066,-14.63,-21.8225,45.1325
779,19796683,0.942572,-0.21520799999999998,-0.631838,-18.9875,-5.18,36.9425
780,19796780,0.996008,-0.248392,-0.5988979999999999,-25.305,-4.6025,20.1075
781,19796876,0.942084,-0.256444,-0.5077640999999999,-27.9475,-20.65,8.5225
782,19796973,0.8270379999999999,-0.219844,-0.38064000000000003,-21.525,-39.095,0.9625
783,19797070,0.7468840999999999,-0.167506,-0.237046,-14.6125,-48.4575,-5.3725
784,19797167,0.725534,-0.11211800000000001,-0.09052401,-15.54,-42.665,-9.1525
785,19797263,0.7199220000000001,-0.010492,-0.0017079999999999999,-22.3825,-17.5175,-8.365
786,19797360,0.703574,0.114192,-0.070638,-30.59,20.6325,-6.0725
787,19797457,0.667218,0.20861999999999997,-0.27755,-34.58,50.3825,-5.4425
788,19797554,0.6034121,0.257786,-0.413092,-30.9575,51.065,-5.4075
789,19797650,0.5543680000000001,0.310246,-0.374418,-34.9475,26.74,-0.6475
790,19797747,0.502762,0.365268,-0.29158,-41.125,10.395,3.1325
791,19797844,0.46591800000000005,0.37112399999999995,-0.216916,-37.03,5.6875,4.025
792,19797941,0.425292,0.359412,-0.182756,-28.1925,5.95,1.925
793,19798037,0.364658,0.34648,-0.165798,-20.2125,6.93,-3.15
794,19798134,0.337574,0.31537,-0.134444,-13.0375,3.6225,-8.295
795,19798231,0.335134,0.259006,-0.123464,-2.835,0.4025,-10.08
796,19798328,0.358802,0.16835999999999998,-0.159332,7.91,-3.6575,-9.5375
797,19798424,0.41760600000000003,0.09442801,-0.21838000000000002,19.04,-9.7125,-8.9075
798,19798521,0.492758,0.033794,-0.284992,29.435,-17.045,-7.35
799,19798618,0.558638,0.032695999999999996,-0.30182800000000004,40.635,-24.3425,-4.76
800,19798715,0.643306,0.014884,-0.283894,49.525,-28.035,-3.4125
801,19798811,0.725168,-0.016104,-0.20288599999999998,57.6275,-24.535,-0.5075
802,19798908,0.7721380999999999,-0.00976,-0.12431800000000001,59.7975,-8.8725,0.3675
803,19799005,0.835456,0.016958,-0.108214,56.6125,17.7625,-0.1925
804,19799102,0.9602620999999999,0.052948,-0.191052,55.1425,42.4025,1.89
805,19799198,1.143384,0.127856,-0.36648800000000004,58.1,49.84,5.775
806,19799295,1.2526959999999998,0.188124,-0.39100999999999997,62.4225,30.345,7.2275
807,19799392,1.22122,0.19642,-0.262666,56.175,3.395,1.4
808,19799489,1.125816,0.203984,-0.10430999999999999,52.815,-6.8075,-6.475
809,19799586,1.053714,0.167018,-0.027938,56.9625,-10.6225,-10.3075
810,19799682,0.9514780999999999,0.05355801,-0.041358,58.3275,-19.005,-10.395
811,19799779,0.9117061,-0.10321199999999998,-0.11712,47.7225,-26.11,-11.8125
812,19799876,1.0046700000000002,-0.250832,-0.233386,32.9875,-21.7875,-15.5225
813,19799973,1.218536,-0.29743600000000003,-0.334524,27.86,-19.075,-17.5525
814,19800069,1.398852,-0.31232,-0.574498,33.845,-32.6375,-15.26
815,19800166,1.5967360000000002,-0.374418,-0.9827101,30.24,-57.715,-15.05
816,19800263,1.8419560000000001,-0.5203300000000001,-1.1712,2.03,-82.8275,-18.235
817,19800360,2.013244,-0.69967,-0.8544879999999999,-31.9375,-78.96,-23.1525
818,19800456,1.9052740000000001,-0.73383,-0.298046,-48.685,-44.3625,-22.9075
819,19800553,1.46827,-0.5404601,-0.072712,-61.6,-11.375,-22.6975
820,19800650,1.063718,-0.15006,-0.260592,-75.0575,-8.295,-28.14
821,19800747,0.8876719999999999,0.210694,-0.5404601,-66.0975,-30.73,-31.92
822,19800843,0.8489979999999999,0.36002199999999995,-0.8483879999999999,-42.6825,-42.4725,-33.04
823,19800940,0.844118,0.31463800000000003,-1.013576,-20.86,-0.42,-40.11
824,19801037,0.8532681000000001,0.197518,-1.306376,-23.1875,42.5425,-49.385
825,19801134,0.924394,0.249612,-0.943426,-11.8825,13.7725,-57.5225
826,19801230,0.9291520000000001,0.299144,-0.594262,-22.8375,-20.0725,-55.545
827,19801327,0.9451341000000001,0.302072,-0.495442,8.68,-9.6075,-50.4525
828,19801424,0.939766,0.22045399999999998,-0.678076,30.8525,1.225,-41.16
829,19801521,0.989908,0.12041400000000001,-0.8215481,19.2325,-20.125,-40.6525
830,19801617,1.06323,0.101504,-0.715774,-1.1725,-49.5775,-45.6575
831,19801714,1.127402,0.11016600000000001,-0.53009,-5.8625,-54.3025,-45.92
832,19801811,1.0687200000000001,0.06356201,-0.42114399999999996,6.6675,-35.56,-36.925
833,19801908,0.9379360000000001,0.040992,-0.441396,13.4575,-23.975,-21.6125
834,19802004,0.8729100000000001,0.05819401,-0.447374,10.5,-29.4175,-11.7425
835,19802101,0.82045,0.07002799999999999,-0.42700000000000005,4.7075,-32.34,-1.5925
836,19802198,0.75762,0.011956,-0.371612,4.2,-20.965,4.48
837,19802295,0.664412,-0.047580000000000004,-0.320128,3.71,-0.42,5.18
838,19802391,0.5587601,-0.12993,-0.256688,4.2875,18.2175,2.8525
839,19802488,0.501542,-0.138226,-0.178242,7.4375,28.5075,-1.435
840,19802585,0.451034,-0.155306,-0.13054000000000002,11.34,35.0525,-8.68
841,19802682,0.40894400000000003,-0.185074,-0.09455001,18.515,35.5075,-14.1575
842,19802778,0.398696,-0.227042,-0.06600201,21.77,28.35,-18.5675
843,19802875,0.380152,-0.243146,-0.058926,21.21,24.7975,-20.1425
844,19802972,0.35526399999999997,-0.23301999999999998,-0.07612801,19.25,30.8,-20.1775
845,19803069,0.34343,-0.202398,-0.117486,13.6675,38.64,-20.5275
846,19803165,0.388692,-0.197152,-0.190808,5.5475,37.625,-18.8825
847,19803262,0.446032,-0.131638,-0.170678,0.805,21.35,-12.04
848,19803359,0.47982600000000003,-0.079178,-0.164578,-4.7075,6.09,-8.155
849,19803456,0.5039819999999999,-0.039894,-0.149206,-9.6075,-2.52,-5.81
850,19803552,0.5325300000000001,-0.011590000000000001,-0.13908,-18.5325,-3.7975,-5.4425
851,19803649,0.582306,0.029158,-0.12383,-27.685,3.7275,-6.1775
852,19803746,0.647332,0.064538,-0.13908,-33.8625,19.565,-10.465
853,19803843,0.7227279999999999,0.08881599,-0.18178,-37.555,36.19,-15.4525
854,19803939,0.8283799999999999,0.10126,-0.21166999999999997,-37.8175,45.36,-19.495
855,19804036,0.94489,0.095038,-0.2501,-35.6475,47.355,-22.575
856,19804133,1.042612,0.07393200000000001,-0.256444,-34.2475,43.68,-24.0625
857,19804230,1.145824,0.028426,-0.244,-37.2925,38.955,-25.1125
858,19804326,1.185718,-0.002806,-0.23606999999999997,-38.5525,36.1025,-26.11
859,19804423,1.162172,-0.00366,-0.24912399999999998,-36.5925,35.5425,-24.15
860,19804520,1.07726,-0.000732,-0.213988,-32.935,37.135,-21.0
861,19804617,0.9547720999999999,0.027816000000000004,-0.18727,-30.975,35.9625,-14.5075
862,19804713,0.921222,0.107116,-0.132858,-26.6,27.9825,-6.965
863,19804810,0.99918,0.132858,-0.07234600000000001,-21.5075,17.395,3.22
864,19804907,1.121668,0.139568,-0.11650999999999999,-15.4175,12.11,9.2925
865,19805004,1.2608700000000002,0.15725799999999998,-0.450546,-12.075,-1.1375,14.945
866,19805100,1.522316,0.249856,-1.029558,4.3925,-41.7375,24.6225
867,19805197,1.8065759999999997,0.43005,-1.1415540000000002,12.25,-101.85,38.0275
868,19805294,1.79157,0.662094,-0.6150021,-30.0475,-108.15,52.71
869,19805391,1.8252419999999998,0.865956,-0.439688,-62.0025,-48.0375,47.915
870,19805487,1.693848,0.647332,-0.61366,0.665,-23.1175,31.605
871,19805584,1.3285799999999999,0.124196,-0.7198,51.275,-42.0525,34.335
872,19805681,1.188768,-0.068686,-0.535092,40.25,-30.9225,42.8575
873,19805778,1.115812,-0.091378,-0.36148600000000003,20.0725,16.9925,40.425
874,19805874,0.9418401,-0.18788,-0.48104600000000003,37.1525,35.56,37.31
875,19805971,0.8816940000000001,-0.18971,-0.7722600000000001,51.415,1.3125,30.2225
876,19806068,0.95709,-0.05648601,-0.883524,27.7375,-44.0125,29.0675
877,19806165,1.033218,0.019275999999999998,-0.711504,2.2925,-62.475,32.55
878,19806261,1.036024,0.04819,-0.555222,-5.74,-47.845,35.3325
879,19806358,0.957822,0.0034159999999999998,-0.569984,-10.6925,-25.06,34.5625
880,19806455,0.8916980999999999,-0.106018,-0.6289100000000001,-16.03,-15.9075,31.1675
881,19806552,0.898652,-0.13859200000000002,-0.6317159999999999,-23.3625,-14.175,33.11
882,19806648,0.924882,-0.125172,-0.614758,-23.66,-11.0775,32.025
883,19806745,1.001498,-0.135054,-0.583282,-18.69,-12.495,20.86
884,19806842,0.9777081,-0.12358599999999999,-0.5206960999999999,-12.1625,-18.0775,10.4475
885,19806939,0.889624,-0.101504,-0.41663,-4.0425,-22.5925,2.3975
886,19807035,0.8103239999999999,-0.057339999999999995,-0.292556,0.6475,-22.365,-1.925
887,19807132,0.803126,-0.020618,-0.20618000000000003,-2.1175,-13.545,-2.835
888,19807229,0.8311860999999999,0.017446,-0.20008,-7.8925,3.85,-1.26
889,19807326,0.827892,0.08674201,-0.282064,-13.9475,19.215,2.1175
890,19807422,0.788852,0.166774,-0.34733400000000003,-19.53,22.4525,2.6775
891,19807519,0.7047939999999999,0.21374400000000002,-0.328546,-24.7625,17.4825,2.03
892,19807616,0.604388,0.238144,-0.257054,-27.4225,14.0525,3.29
893,19807713,0.5158159999999999,0.28486999999999996,-0.221796,-26.4425,15.6975,4.7775
894,19807809,0.47689799999999993,0.3111,-0.1891,-24.045,18.165,3.78
895,19807906,0.444446,0.317322,-0.15054800000000002,-20.825,21.0875,1.26
896,19808003,0.407724,0.31354,-0.13602999999999998,-15.9775,22.645,-2.66
897,19808100,0.374906,0.283406,-0.108458,-8.5225,16.765,-6.2475
898,19808196,0.358558,0.21032800000000001,-0.101748,0.0,9.205,-8.4525
899,19808293,0.34831,0.15372,-0.109678,7.9275,6.3875,-7.49
900,19808390,0.393084,0.080154,-0.14078800000000002,13.9475,6.3875,-6.2475
901,19808487,0.44639799999999996,0.040260000000000004,-0.185318,20.3525,5.46,-3.0975
902,19808583,0.5165481,0.017202000000000002,-0.2135,26.2325,1.8375,0.21
903,19808680,0.6068279999999999,0.00061,-0.21472,31.57,-1.26,1.82
904,19808777,0.688934,-0.0032939999999999996,-0.21008400000000002,36.4875,-2.45,4.3575
905,19808873,0.7640859999999999,0.008052001,-0.221308,42.0,0.56,6.3175
906,19808970,0.825574,0.047336,-0.24412199999999998,47.005,7.63,6.0375
907,19809067,0.918538,0.09223200000000001,-0.259128,49.595,14.8925,6.0025
908,19809164,1.023336,0.140544,-0.294996,52.465,17.5,9.205
909,19809260,1.110688,0.200202,-0.305122,55.2125,13.405,10.99
910,19809357,1.1385040000000002,0.24131599999999997,-0.245464,54.355,9.0125,8.9075
911,19809454,1.114958,0.261446,-0.130662,51.31,12.0925,3.955
912,19809551,1.089216,0.2379,-0.020984,49.385,17.325,-2.94
913,19809647,0.9797819999999999,0.14152,0.020008,45.745,13.9125,-5.635
914,19809744,0.8466800999999999,0.010614,-0.007442,40.46,3.1325,-8.1375
915,19809841,0.81313,-0.12627,-0.10736,26.0225,-1.4525,-14.49
916,19809938,0.981124,-0.187148,-0.14566800000000002,8.995,1.12,-18.69
917,19810034,1.2019440000000001,-0.28621199999999997,-0.141764,7.6475,-2.94,-18.7075
918,19810131,1.312232,-0.349774,-0.183976,11.795,-10.4475,-14.42
919,19810228,1.3949479999999999,-0.317688,-0.272304,13.44,-11.0425,-8.5925
920,19810325,1.516948,-0.2013,-0.44639799999999996,14.0,-13.895,-1.05
921,19810421,1.62565,-0.121268,-0.621712,1.505,-37.835,6.125
922,19810518,1.6959220000000002,-0.28328400000000004,-0.5620541,-23.87,-72.31,0.455
923,19810615,1.706048,-0.335744,-0.44115200000000004,-51.7125,-83.825,-15.575
924,19810711,1.517314,-0.256322,-0.46323400000000003,-56.875,-59.1325,-27.4575
925,19810808,1.333826,-0.260592,-0.5516840000000001,-48.1075,-18.6025,-46.06
926,19810905,1.107638,-0.128222,-0.60329,-36.925,12.9675,-57.61
927,19811002,0.9858819999999999,0.05368,-0.6348881,-14.8575,21.7,-66.99
928,19811098,0.91561,0.215574,-0.8192299999999999,1.7325,28.14,-67.3225
929,19811195,0.9398880999999999,0.29463,-0.96014,15.225,24.3075,-63.245
930,19811292,0.942084,0.254614,-0.7285841,2.625,-5.6525,-61.9325
931,19811389,0.882548,0.15921,-0.508618,-20.37,4.8475,-65.8875
932,19811485,0.8277700000000001,0.05636401,-0.513498,-10.7975,26.2325,-61.635
933,19811582,0.8378960999999999,-0.034282,-0.600484,5.46,18.5675,-49.035
934,19811679,0.8724219999999999,-0.09882,-0.7138220000000001,-1.2775,-10.43,-39.7775
935,19811776,0.9479401,-0.108214,-0.755302,-14.6825,-38.045,-41.02
936,19811872,1.11874,-0.025131999999999998,-0.726388,-14.6475,-55.335,-43.4
937,19811969,1.3096700000000001,0.133224,-0.6140260000000001,-8.6625,-59.92,-35.2275
938,19812066,1.32797,0.25193000000000004,-0.417484,-4.725,-50.6275,-22.4
939,19812163,1.190598,0.31293000000000004,-0.28365,-6.3,-37.03,-10.5875
940,19812259,1.0354139999999998,0.335012,-0.17507,-5.46,-25.4975,-4.0425
941,19812356,0.9120720999999999,0.24790399999999999,-0.175924,-2.2225,-9.6775,-2.5375
942,19812453,0.791902,0.132248,-0.225212,6.265,15.4,-2.345
943,19812550,0.690398,0.008052001,-0.311222,14.735,43.505,-3.325
944,19812646,0.583404,-0.1159,-0.349286,23.2575,60.27,-3.3425
945,19812743,0.5342380999999999,-0.185074,-0.31146599999999997,26.25,60.6025,-4.5325
946,19812840,0.506544,-0.2196,-0.24631799999999998,25.1125,54.3375,-8.1725
947,19812937,0.477386,-0.267912,-0.22106399999999998,27.2125,42.175,-12.215
948,19813033,0.49556400000000006,-0.32208000000000003,-0.17055599999999999,28.385,19.635,-12.6
949,19813130,0.485072,-0.3172,-0.123708,21.1925,2.1525,-10.43
950,19813227,0.468236,-0.28792,-0.103578,13.93,-4.585,-7.875
951,19813323,0.470554,-0.2318,-0.09381801,12.425,-6.7725,-7.0175
952,19813420,0.494588,-0.161772,-0.108946,3.185,-9.9575,-6.7375
953,19813517,0.51789,-0.08820599999999999,-0.09479401,-11.62,-12.7925,-4.69
954,19813614,0.54595,-0.041968,-0.07112601,-27.16,-11.3575,-3.5525
955,19813710,0.5845020000000001,0.007320001,-0.08369201,-40.565,-5.6525,-4.5675
956,19813807,0.6293981,0.063318,-0.087474,-50.19,1.295,-6.51
957,19813904,0.665266,0.12139000000000001,-0.098942,-57.855,10.7625,-8.785
958,19814001,0.732244,0.12139000000000001,-0.10504200000000001,-60.6725,22.3125,-13.0725
959,19814097,0.7914140000000001,0.10906800000000001,-0.13944600000000001,-56.2975,31.9025,-19.6875
960,19814194,0.8331381,0.09516001,-0.17580199999999999,-48.3,34.5275,-24.5875
961,19814291,0.88328,0.069784,-0.215574,-40.075,27.895,-27.335
962,19814388,0.930616,0.030012,-0.22106399999999998,-33.46,22.68,-27.5975
963,19814484,0.974658,0.034892,-0.23680199999999998,-30.59,24.01,-27.58
964,19814581,1.021994,0.056608000000000006,-0.23753400000000002,-28.525,23.5025,-25.655
965,19814678,1.033706,0.111996,-0.2013,-25.1125,19.0575,-22.7675
966,19814774,1.003572,0.17641199999999999,-0.17995,-20.2475,13.8075,-20.3
967,19814871,0.9669721,0.255102,-0.141032,-16.065,8.365,-19.0225
968,19814968,0.9605060999999999,0.339038,-0.132492,-14.385,4.69,-19.18
969,19815065,1.003206,0.354898,-0.158478,-13.4225,1.9425,-18.34
970,19815161,1.087386,0.316834,-0.291458,-12.6875,-4.4625,-15.47
971,19815258,1.243424,0.25986,-0.6985720999999999,-5.3025,-24.745,-11.4275
972,19815355,1.486448,0.269254,-1.068476,13.685,-77.63,-4.9
973,19815452,1.586244,0.37685799999999997,-1.124474,19.915,-130.095,1.085
974,19815548,1.695312,0.482998,-0.8982860999999999,22.1725,-150.7625,6.3175
975,19815645,1.682014,0.662704,-0.674538,36.4875,-125.9125,11.1125
976,19815742,1.4454559999999999,0.666608,-0.624274,51.2925,-60.5675,10.36
977,19815839,1.20414,0.2806,-0.34892,64.6625,-12.2675,19.6875
978,19815935,1.046394,-0.04514,-0.04087,68.425,15.6625,40.95
979,19816032,0.88999,-0.27510999999999997,-0.081496,73.7275,35.595,31.4125
980,19816129,0.7184581,-0.269864,-0.580598,86.5025,24.6925,5.635
981,19816226,0.720166,-0.146034,-1.003816,84.08751,-29.26,-6.2475
982,19816322,0.780434,-0.072712,-0.965996,64.435,-70.63,-6.9475
983,19816419,0.859002,-0.02196,-0.6785640000000001,50.855,-67.515,-8.96
984,19816516,0.8967,0.045262000000000004,-0.49959,50.4525,-41.9475,-15.3825
985,19816613,0.96929,0.018666,-0.5726680000000001,58.3275,-15.96,-22.75
986,19816709,1.097634,-0.07417601,-0.698816,70.6125,-2.73,-22.855
987,19816806,1.2286620000000001,-0.0427,-0.72163,68.705,-8.4,-18.3575
988,19816903,1.272704,0.08113001,-0.6161,65.17,-15.2075,-18.9875
989,19817000,1.149728,0.19702999999999998,-0.496662,75.7575,-7.7175,-24.815
990,19817096,0.9446460999999999,0.29951,-0.399306,91.4375,4.76,-31.6575
991,19817193,0.817156,0.322202,-0.370636,99.45251,19.425,-36.365
992,19817290,0.764818,0.323178,-0.43493000000000004,100.7125,35.2275,-40.1275
993,19817387,0.715408,0.327936,-0.49519799999999997,99.47001,38.3775,-44.7825
994,19817483,0.672708,0.29792399999999997,-0.47518999999999995,101.0275,27.0375,-50.085
995,19817580,0.660142,0.250832,-0.404308,103.145,11.9525,-54.4075
996,19817677,0.674782,0.21972199999999997,-0.328546,106.8725,0.735,-57.4525
997,19817774,0.697962,0.20508200000000001,-0.279014,111.1425,-5.39,-59.745
998,19817870,0.7165060000000001,0.198982,-0.254736,115.2025,-5.95,-61.04
999,19817967,0.723582,0.179096,-0.250222,119.665,0.1575,-62.5625
1000,19818064,0.7269979999999999,0.163358,-0.26156799999999997,123.9875,9.695,-64.505
1001,19818161,0.7296819999999999,0.163968,-0.281454,128.485,18.1825,-65.73
1002,19818257,0.7378560000000001,0.160796,-0.28121,133.525,21.9275,-65.905
1003,19818354,0.7506659999999999,0.13859200000000002,-0.251442,137.5325,18.515,-65.065
1004,19818451,0.766526,0.111142,-0.219844,141.68,11.1125,-63.735
1005,19818547,0.7738461,0.077348,-0.198982,145.81,4.585,-62.5275
1006,19818644,0.7792140000000001,0.059902,-0.196298,148.8725,1.015,-62.1075
1007,19818741,0.78751,0.047580000000000004,-0.200568,151.34,2.31,-62.265
1008,19818838,0.7978801,0.030012,-0.194468,153.8775,6.9475,-61.67
1009,19818934,0.8133739999999999,0.010492,-0.17946199999999998,156.905,13.475,-60.83
1010,19819031,0.8437520000000001,-0.011712,-0.12212200000000001,158.935,17.5875,-57.82
1011,19819128,0.882182,-0.03599,-0.08808401,159.6,13.7725,-50.575
1012,19819225,0.924394,-0.050263999999999996,-0.115656,168.3675,1.05,-42.7525
1013,19819321,0.936716,-0.09345201,-0.18068199999999998,178.4825,-17.3075,-36.0675
1014,19819418,0.892064,-0.164578,-0.1647,178.115,-31.6925,-31.85
1015,19819515,0.814472,-0.207156,-0.108824,167.615,-27.825,-31.8325
1016,19819612,0.757498,-0.21813600000000002,-0.107848,152.285,-9.1525,-32.585
1017,19819708,0.7421260000000001,-0.223992,-0.13054000000000002,136.395,2.415,-30.275
1018,19819805,0.7452979999999999,-0.18751400000000001,-0.17140999999999998,121.24,-0.6475,-29.0675
1019,19819902,0.7390760000000001,-0.127734,-0.17324,104.615,-5.88,-31.745
1020,19819999,0.743712,-0.122,-0.153354,89.93251,-3.3075,-35.175
1021,19820095,0.815326,-0.16409,-0.201422,84.735,0.525,-36.6625
1022,19820192,0.9179280000000001,-0.254736,-0.32561799999999996,89.67,-3.0625,-36.4175
1023,19820289,1.00223,-0.35392199999999996,-0.617686,97.51,-10.185,-35.2975
1024,19820386,1.125328,-0.49300200000000005,-0.793244,103.4775,-12.1975,-36.54
1025,19820482,1.339438,-0.69845,-0.9001161,74.69,-9.135,-43.715
1026,19820579,1.555134,-0.835334,-1.003572,39.48,-15.05,-57.0325
1027,19820676,1.6754259999999999,-0.8773021000000001,-0.8666879999999999,26.8275,-20.09,-73.7975
1028,19820772,1.527074,-0.728218,-0.550586,24.4825,-17.71,-91.2275
1029,19820869,1.190476,-0.294996,-0.43029399999999995,54.2325,-10.6925,-97.1775
1030,19820966,0.9890540000000001,0.090768,-0.6265921,92.575,0.735,-99.2075
1031,19821063,0.898042,0.327448,-0.8760819999999999,94.51751,21.98,-99.6275
1032,19821159,0.889868,0.41016400000000003,-0.829722,64.995,38.6925,-95.305
1033,19821256,0.9563581,0.41504399999999997,-0.5893821,53.9875,42.735,-96.0225
1034,19821353,0.9451341000000001,0.377956,-0.389058,64.5225,36.785,-95.165
1035,19821450,0.9082899999999999,0.305732,-0.351238,93.065,21.7175,-92.62751
1036,19821546,0.99308,0.378932,-0.43737,122.045,-12.6525,-80.78
1037,19821643,1.145702,0.362462,-0.488122,130.8825,-46.06,-68.74
1038,19821740,1.238422,0.233508,-0.525942,131.39,-51.5025,-71.1725
1039,19821837,1.24928,0.14823,-0.523746,134.68,-40.9325,-76.3525
1040,19821933,1.217194,0.08466801,-0.44554399999999994,136.15,-27.8075,-77.0525
1041,19822030,1.1625379999999998,0.028792,-0.322934,136.5175,-17.7975,-78.48751
1042,19822127,1.09861,-0.053070000000000006,-0.24863600000000002,146.93,-7.28,-84.8925
1043,19822224,0.9950319999999999,-0.138836,-0.24522,169.295,5.2325,-90.00251
1044,19822320,0.883036,-0.215574,-0.280478,189.7175,19.0575,-94.6225
1045,19822417,0.793488,-0.239364,-0.305976,199.2025,31.4125,-98.61251
1046,19822514,0.737124,-0.19154000000000002,-0.295362,199.045,37.415,-99.225
1047,19822611,0.705038,-0.145424,-0.23240999999999998,193.935,37.03,-97.7025
1048,19822707,0.6706340000000001,-0.101992,-0.15006,185.9025,30.835,-93.3975
1049,19822804,0.636962,-0.066246,-0.076738,177.625,21.1225,-87.97251
1050,19822901,0.6405,-0.057462,-0.038551999999999996,169.295,10.955,-84.875
1051,19822997,0.650138,-0.06356201,-0.011834,157.92,3.6925,-83.615
1052,19823094,0.680638,-0.05172801,-0.010736,143.85,0.5775,-84.01751
1053,19823191,0.7034521,-0.06344,-0.040626,134.6975,-0.0525,-85.155
1054,19823288,0.7239479999999999,-0.087352,-0.10321199999999998,129.0275,-3.0275,-84.455
1055,19823384,0.7551800000000001,-0.107482,-0.15799000000000002,121.7125,-10.045,-83.86001
1056,19823481,0.79971,-0.156038,-0.168604,114.6425,-18.2175,-84.7525
1057,19823578,0.833626,-0.223992,-0.13602999999999998,107.5025,-20.8775,-87.325
1058,19823675,0.87108,-0.28181999999999996,-0.095038,104.2825,-16.4675,-91.14
1059,19823771,0.892918,-0.334646,-0.065026,106.26,-5.0225,-95.1475
1060,19823868,0.887184,-0.39113200000000004,-0.07332201,110.53,11.2175,-98.035
1061,19823965,0.8731540999999999,-0.41150600000000004,-0.12212200000000001,114.73,29.3475,-98.54251
1062,19824062,0.8596120999999999,-0.38795999999999997,-0.151036,114.765,47.88,-97.335
1063,19824158,0.833016,-0.348188,-0.173484,106.1725,66.2025,-93.3625
1064,19824255,0.796782,-0.279258,-0.177754,100.695,77.21,-85.085
1065,19824352,0.795562,-0.19983599999999999,-0.220698,100.1875,77.56,-75.7925
1066,19824448,0.8407021000000001,-0.122366,-0.306952,97.965,64.0325,-70.1225
1067,19824545,0.8881600000000001,-0.059658,-0.2867,93.17,34.055,-67.1825
1068,19824642,0.9232961,0.011590000000000001,-0.205814,80.78,5.6175,-65.415
1069,19824739,0.995764,0.09674601,-0.135908,69.7025,-3.7275,-65.695
1070,19824835,1.088118,0.15701400000000001,-0.11773,63.0525,0.9275,-65.765
1071,19824932,1.1655879999999998,0.167384,-0.14762,59.43,8.33,-65.0125
1072,19825029,1.2056040000000001,0.133712,-0.305854,58.94,15.26,-64.54
1073,19825126,1.285636,0.05453401,-0.756888,75.845,7.0875,-62.405
1074,19825222,1.3947040000000002,-0.006587999999999999,-1.1923059999999999,112.7175,-33.985,-54.6175
1075,19825319,1.39873,-0.025863999999999998,-1.0290700000000002,137.795,-63.28,-46.6375
1076,19825416,1.374818,-0.045384,-0.44286000000000003,119.9975,-39.6375,-40.7925
1077,19825513,1.178886,0.09552601,0.055388,108.5525,16.135,-24.57
1078,19825609,0.9264680000000001,0.189832,-0.052338,126.0525,67.5325,-14.98
1079,19825706,0.817278,0.06075601,-0.41809399999999997,132.125,62.86,-5.88
1080,19825803,0.8671761,-0.12029200000000001,-0.671854,106.295,18.725,1.96
1081,19825900,0.956968,-0.170434,-0.717482,86.13501,-4.06,-8.5225
1082,19825996,0.95221,-0.182268,-0.6767340000000001,90.265,-4.6375,-22.365
1083,19826093,0.921832,-0.20178800000000002,-0.621346,101.045,-10.64,-32.165
1084,19826190,0.9856379999999999,-0.184098,-0.58011,98.28,-20.86,-35.9975
1085,19826287,1.130208,-0.11846199999999998,-0.5785241,90.1075,-19.7925,-36.61
1086,19826383,1.272094,-0.077714,-0.6049981,85.26,-8.5575,-34.405
1087,19826480,1.32492,-0.07234600000000001,-0.612928,82.1625,4.7425,-32.1825
1088,19826577,1.2465959999999998,-0.01769,-0.5903579999999999,78.75,12.4425,-32.935
1089,19826674,1.095072,0.07393200000000001,-0.524234,81.91751,13.37,-37.695
1090,19826770,0.995764,0.17873,-0.44225,92.295,11.55,-41.405
1091,19826867,0.9663620999999999,0.251442,-0.412238,104.825,15.12,-44.275
1092,19826964,0.9322021,0.294508,-0.44078599999999996,115.2025,25.1825,-48.8075
1093,19827060,0.885476,0.35258,-0.46908999999999995,115.2375,32.865,-55.895
1094,19827157,0.8250860000000001,0.36892800000000003,-0.425292,113.12,35.9975,-63.9275
1095,19827254,0.7795801,0.324276,-0.363804,116.1825,34.615,-69.2125
1096,19827351,0.7679901,0.2379,-0.318176,122.9725,27.125,-72.8
1097,19827447,0.788974,0.16530999999999998,-0.280478,129.01,15.9075,-74.795
1098,19827544,0.8195960999999999,0.149206,-0.23485,132.2825,6.825,-75.635
1099,19827641,0.8480221,0.137738,-0.200568,130.795,2.3275,-77.6475
1100,19827738,0.8365541,0.109922,-0.166286,127.295,2.9575,-79.3275
1101,19827834,0.8091041,0.07076001,-0.158478,123.1825,5.8975,-79.2925
1102,19827931,0.772504,0.029889999999999996,-0.170922,120.085,7.805,-78.365
1103,19828028,0.752008,0.002318,-0.204594,117.355,6.1075,-77.525
1104,19828125,0.748836,-0.00793,-0.24082800000000001,116.41,-0.21,-75.775
1105,19828221,0.7625,-0.009272001,-0.249246,116.3225,-10.395,-72.2925
1106,19828318,0.777384,0.00488,-0.269864,115.29,-20.615,-68.11
1107,19828415,0.79605,0.0549,-0.29768,114.6775,-32.375,-62.545
1108,19828512,0.8543661,0.083204,-0.27084,115.465,-49.84,-54.775
1109,19828608,0.9107301,0.07344400000000001,-0.18556199999999998,116.76,-61.6,-45.6225
1110,19828705,0.9203680000000001,0.06539201,-0.116388,113.54,-59.465,-38.325
1111,19828802,0.92171,0.045872,-0.09674601,107.52,-44.73,-34.1775
1112,19828899,0.9052401,0.000488,-0.09845401,102.69,-24.5525,-32.4275
1113,19828995,0.9234180000000001,-0.06795401,-0.101016,97.44,-6.405,-37.275
1114,19829092,0.9552601000000001,-0.135542,-0.119682,94.1325,7.4725,-39.935
1115,19829189,0.957944,-0.195444,-0.08637601,92.645,17.745,-40.0225
1116,19829286,0.9175620000000001,-0.228384,-0.050996,87.46500999999999,27.02,-39.5325
1117,19829383,0.8489979999999999,-0.22509,-0.027938,81.2,33.46,-38.99
1118,19829479,0.8106899999999999,-0.206668,-0.111874,70.35,34.8425,-38.15
1119,19829576,0.818986,-0.15091400000000002,-0.239486,58.3975,28.98,-34.79
1120,19829673,0.862174,-0.11333800000000001,-0.312808,50.1375,16.765,-30.3625
1121,19829770,0.8957241,-0.11028800000000001,-0.303658,45.57,4.2875,-24.5175
1122,19829866,0.9345201,-0.10614000000000001,-0.25656599999999996,40.425,-5.0225,-20.0025
1123,19829963,0.9952761,-0.10650599999999999,-0.20679,35.245,-11.235,-15.6275
1124,19830060,1.077382,-0.12139000000000001,-0.170068,34.3525,-15.365,-11.235
1125,19830157,1.15168,-0.12749000000000002,-0.126148,38.9375,-15.2775,-7.14
1126,19830253,1.204872,-0.078446,-0.122732,44.625,-12.0575,-4.235
1127,19830350,1.234518,0.004514,-0.177754,51.835,-11.1475,-0.6825
1128,19830447,1.272826,0.072956,-0.348188,54.74,-16.03,0.1575
1129,19830544,1.316136,0.068686,-0.662704,46.4625,-28.0875,-1.3825
1130,19830640,1.393484,-0.064538,-0.8971879999999999,30.7475,-45.5,-7.0875
1131,19830737,1.450336,-0.15311,-0.8133739999999999,10.1675,-54.3025,-14.1925
1132,19830834,1.419226,-0.189222,-0.435418,6.02,-34.5275,-21.0175
1133,19830931,1.159,-0.155916,-0.258762,6.965,14.9625,-23.9925
1134,19831027,0.9500139999999999,-0.171898,-0.465308,5.005,56.1925,-28.105
1135,19831124,0.952332,-0.24827,-0.83204,10.4125,61.2325,-34.125
1136,19831221,0.9878341,-0.192272,-1.195722,13.0025,36.26,-35.8575
1137,19831318,0.898042,-0.083204,-1.268434,25.41,7.175,-38.9025
1138,19831414,0.74054,-0.050263999999999996,-1.034194,32.8125,-8.4875,-41.895
1139,19831511,0.6673399999999999,0.029401999999999998,-0.838994,33.0575,-17.85,-42.805
1140,19831608,0.72407,0.144082,-0.739564,36.5925,-23.5025,-45.045
1141,19831704,0.811666,0.20837600000000003,-0.751154,38.5875,-28.07,-49.2275
1142,19831801,0.9108521,0.22326,-0.8365541,39.5325,-37.905,-60.095
1143,19831898,1.03883,0.217892,-0.8797421000000001,47.88,-52.9725,-62.8425
1144,19831995,1.19987,0.257054,-0.74542,60.69,-58.9925,-59.29
1145,19832091,1.227442,0.23216599999999998,-0.5246,58.8,-40.425,-59.4125
1146,19832188,1.094706,0.24875799999999998,-0.412238,51.38,-11.655,-62.23
1147,19832285,1.02785,0.35831399999999997,-0.389302,51.275,-4.48,-53.7425
1148,19832382,1.039806,0.371612,-0.390522,53.5675,-14.6825,-39.55
1149,19832478,0.99369,0.22557800000000003,-0.390156,53.3225,-22.4525,-29.6975
1150,19832575,0.868762,0.061975999999999996,-0.362462,58.1525,-18.27,-26.915
1151,19832672,0.681614,0.001342,-0.358802,59.92,-1.7325,-28.105
1152,19832769,0.54168,0.03416,-0.356362,63.91,16.135,-30.31
1153,19832865,0.518256,0.011834,-0.366122,69.195,25.4975,-32.34
1154,19832962,0.577426,-0.07856801,-0.331474,75.32,23.4675,-33.04
1155,19833059,0.626104,-0.18287799999999999,-0.26535,77.6825,17.3775,-33.6175
1156,19833156,0.598288,-0.254858,-0.250954,77.54251,16.0125,-33.775
1157,19833252,0.5463161,-0.29829,-0.255102,76.0025,15.015,-33.04
1158,19833349,0.5058121,-0.311344,-0.219966,71.1025,13.0025,-29.2425
1159,19833446,0.501054,-0.283528,-0.199104,64.2425,17.675,-24.1325
1160,19833543,0.542778,-0.252418,-0.21374400000000002,55.895,22.5925,-18.9
1161,19833639,0.60573,-0.19580999999999998,-0.23240999999999998,48.055,17.745,-15.2775
1162,19833736,0.63989,-0.12285399999999999,-0.25302800000000003,41.7025,3.3425,-13.825
1163,19833833,0.668438,-0.06039,-0.23606999999999997,36.5575,-14.2275,-15.015
1164,19833929,0.7019880000000001,-0.0035380000000000003,-0.170434,29.3825,-24.465,-17.0275
1165,19834026,0.7141881,0.046238,-0.09040201,19.075,-19.18,-19.1275
1166,19834123,0.7237041,0.07356601,-0.028792,9.24,-1.1725,-20.1775
1167,19834220,0.727608,0.060146000000000005,-0.06771001,0.6475,19.985,-19.5475
1168,19834316,0.728218,0.02806,-0.160918,-3.2725,32.2,-17.7275
1169,19834413,0.7506659999999999,-0.019398,-0.25742,-5.67,33.495,-16.1525
1170,19834510,0.803126,-0.079666,-0.332572,-7.875,30.5725,-13.9825
1171,19834607,0.879376,-0.139812,-0.375638,-6.3175,26.6875,-10.6575
1172,19834703,0.9801479999999999,-0.18971,-0.38979,-0.7175,20.9125,-6.02
1173,19834800,1.0920219999999998,-0.21289,-0.36844,3.6575,17.4475,-1.4175
1174,19834897,1.166442,-0.223992,-0.330986,6.125,18.3575,4.06
1175,19834994,1.16266,-0.18788,-0.277428,9.1525,24.0625,11.235
1176,19835090,1.113982,-0.077592,-0.251442,7.595,34.615,17.22
1177,19835187,1.077626,0.09516001,-0.22716399999999998,3.5,42.7175,21.4725
1178,19835284,1.06628,0.21813600000000002,-0.223748,-1.61,43.0325,24.8325
1179,19835380,1.08031,0.24936799999999998,-0.228506,-0.14,37.065,28.8925
1180,19835477,1.133746,0.24131599999999997,-0.421754,1.5575,29.715,33.6875
1181,19835574,1.3298,0.316102,-1.0309,15.4,2.45,42.6825
1182,19835671,1.5731899999999999,0.391498,-1.414712,45.745,-43.54,53.3575
1183,19835767,1.455582,0.337818,-1.0681100000000001,10.3075,-44.6775,61.635
1184,19835864,1.36091,0.280844,-0.46603999999999995,-40.32,9.52,49.9625
1185,19835961,1.308938,0.10418800000000002,-0.323666,10.675,47.5475,25.55
1186,19836058,1.195478,-0.039528,-0.457866,76.37001,34.5625,20.86
1187,19836155,1.100074,-0.042822000000000006,-0.705038,58.2225,3.2025,25.9875
1188,19836251,1.015772,-0.058072000000000006,-0.766526,34.58,-21.9975,19.9675
1189,19836348,0.9263459999999999,-0.143594,-0.809836,27.58,-32.865,15.75
1190,19836445,0.964044,-0.14335,-0.8458261,16.345,-37.205,15.9425
1191,19836541,1.0675,-0.103334,-0.8685181000000001,-2.765,-37.3625,22.3825
1192,19836638,1.155218,-0.064416,-0.829234,-12.3025,-31.36,33.25
1193,19836735,1.160464,-0.07015,-0.808372,-15.1375,-19.81,43.365
1194,19836832,1.0828719999999998,-0.152866,-0.8192299999999999,-22.6625,-12.11,52.395
1195,19836928,1.003694,-0.23460599999999998,-0.796782,-33.5475,-10.85,55.965
1196,19837025,0.9772200999999999,-0.262788,-0.7617681,-45.1325,-10.78,56.07
1197,19837122,1.02236,-0.282186,-0.650382,-45.045,-8.82,50.1375
1198,19837219,0.9803921,-0.259494,-0.5282600000000001,-36.225,1.715,37.205
1199,19837316,0.8422879999999999,-0.211792,-0.45298599999999994,-27.3,15.9425,22.8375
1200,19837412,0.7518859999999999,-0.134078,-0.41053,-22.1375,18.9875,15.2425
1201,19837509,0.73383,-0.054655999999999996,-0.371612,-21.14,17.465,11.6375
1202,19837606,0.7200439999999999,-0.00549,-0.346968,-24.465,21.1575,9.135
1203,19837703,0.688934,0.042822000000000006,-0.34404,-31.0625,26.5475,7.2975
1204,19837799,0.6525781,0.08601,-0.339648,-39.445,25.655,6.335
1205,19837896,0.5913341,0.109556,-0.32025,-47.53,21.8575,7.49
1206,19837993,0.514352,0.137128,-0.282918,-54.5475,19.6175,10.29
1207,19838089,0.46738199999999996,0.17507,-0.232654,-60.4275,20.0725,13.4575
1208,19838186,0.44334799999999996,0.21301199999999998,-0.193736,-62.7375,24.115,14.6825
1209,19838283,0.42907399999999996,0.228506,-0.203496,-60.725,25.62,12.9675
1210,19838380,0.44090799999999997,0.23472800000000002,-0.174704,-57.0675,19.3375,9.7125
1211,19838476,0.416142,0.225334,-0.15921,-50.8375,19.0575,8.26
1212,19838573,0.35014,0.182268,-0.19459,-42.1225,19.5825,5.3725
1213,19838670,0.36880599999999997,0.111508,-0.205814,-34.1425,10.57,2.6775
1214,19838767,0.43773599999999996,0.06819800000000001,-0.20069,-26.5125,-3.36,3.605
1215,19838863,0.545706,0.012078,-0.21362199999999998,-19.215,-16.6075,3.9025
1216,19838960,0.636352,-0.006222,-0.24192600000000003,-7.7,-24.9725,6.7375
1217,19839057,0.7169939999999999,-0.014762,-0.254492,4.585,-26.2675,6.825
1218,19839154,0.768844,-0.02074,-0.22277199999999997,17.9375,-20.86,8.2075
1219,19839250,0.8086161000000001,0.004148001,-0.174704,29.9075,-13.0025,10.71
1220,19839347,0.8306979999999999,0.06563601,-0.16287000000000001,41.055,-5.0225,11.69
1221,19839444,0.876814,0.13639600000000002,-0.20178800000000002,50.1025,1.575,11.4275
1222,19839541,0.9191481,0.21166999999999997,-0.2562,56.0,4.55,12.495
1223,19839637,0.9668501,0.263764,-0.266814,57.7325,4.3575,12.1625
1224,19839734,0.9901521000000001,0.281454,-0.22045399999999998,54.0925,7.9975,10.2375
1225,19839831,0.9791719999999999,0.260226,-0.134322,45.8325,18.48,6.2125
1226,19839928,0.966728,0.19093,-0.036966000000000006,33.7925,33.2325,-0.1575
1227,19840024,0.9592860000000001,0.13969,0.000976,18.9175,45.7975,-7.6125
1228,19840121,0.969412,0.05246,-0.020496,2.31,46.3925,-13.7375
1229,19840218,0.976,-0.10736,-0.071004,-10.535,37.5725,-20.58
1230,19840315,0.9587979999999999,-0.30109600000000003,-0.08918200000000001,-17.9025,34.23,-26.53
1231,19840411,0.9376921,-0.39223,-0.08527801,-20.09,40.04,-27.265
1232,19840508,0.971242,-0.40992,-0.071004,-11.935,47.32,-23.695
1233,19840605,1.022848,-0.38356799999999996,-0.185196,6.23,48.9125,-18.2525
1234,19840702,1.189134,-0.338306,-0.8842561,18.935,26.5825,-10.8325
1235,19840799,1.504992,-0.540094,-1.521584,12.775,-23.6425,-8.575
1236,19840895,1.633702,-0.7686,-1.612474,-38.7275,-65.6775,-19.635
1237,19840992,1.54025,-0.395158,-0.7199220000000001,-42.175,-88.655,-30.6425
1238,19841089,1.360422,-0.170922,-0.308172,-43.5925,-82.565,-37.7475
1239,19841185,0.9514780999999999,-0.074054,-0.619516,-43.6275,-28.6125,-52.7625
1240,19841282,0.6442821,0.034526,-1.239032,-30.0475,47.635,-65.3275
1241,19841379,0.80886,0.06563601,-1.475468,-18.515,63.49,-67.0425
1242,19841476,1.159122,0.19483399999999998,-1.036634,-32.0425,-17.7625,-72.2575
1243,19841572,1.340414,0.275476,-0.590968,-57.6275,-53.1125,-83.2125
1244,19841669,1.286246,0.175924,-0.619516,-22.9075,-20.65,-75.6875
1245,19841766,1.264408,0.097478,-0.8369200000000001,4.4625,3.885,-45.7625
1246,19841863,1.400682,0.194956,-0.926834,-3.9025,2.1875,-31.2725
1247,19841959,1.550864,0.411262,-0.790194,-21.42,-3.605,-31.8325
1248,19842056,1.53903,0.501054,-0.5214281,-18.7075,0.105,-35.945
1249,19842153,1.232932,0.49898000000000003,-0.343186,4.27,0.735,-26.0575
1250,19842250,0.9439139999999999,0.43053800000000003,-0.28011199999999997,32.725,-16.9925,-18.0075
1251,19842346,0.8188641,0.30805,-0.291458,44.9225,-41.9125,-13.195
1252,19842443,0.792512,0.18971,-0.271206,45.0975,-43.155,-8.3825
1253,19842540,0.779824,0.08820599999999999,-0.248392,37.1,-13.37,-5.005
1254,19842637,0.745542,0.003172,-0.26596,30.695,24.7625,-3.6225
1255,19842733,0.70943,-0.11236199999999999,-0.313418,29.855,43.68,-3.9375
1256,19842830,0.671366,-0.25437,-0.340258,33.53,36.8725,-3.815
1257,19842927,0.6292760000000001,-0.318298,-0.323056,34.265,17.955,-3.255
1258,19843024,0.560956,-0.32818,-0.27279200000000003,31.22,8.4525,-3.2025
1259,19843120,0.5368,-0.38247,-0.247538,25.8125,10.9025,-2.52
1260,19843217,0.510204,-0.409188,-0.116876,19.215,13.965,0.28
1261,19843314,0.46030600000000005,-0.39967199999999997,-0.09418401,13.475,26.4075,5.67
1262,19843411,0.406504,-0.35319,-0.13969,7.3325,36.225,10.5175
1263,19843507,0.349408,-0.285724,-0.14701,-1.8725,30.1875,14.4725
1264,19843604,0.30341399999999996,-0.254492,-0.135664,-14.0175,14.9275,15.995
1265,19843701,0.28377199999999997,-0.17446,-0.07246799999999999,-27.0375,-4.1825,19.075
1266,19843798,0.30134,-0.10309000000000001,-0.08332601,-40.53,-14.035,17.9375
1267,19843894,0.345138,-0.05941401,-0.103334,-52.43,-19.3375,13.5275
1268,19843991,0.404918,-0.00671,-0.128344,-60.7775,-23.31,6.5975
1269,19844088,0.482876,0.02562,-0.107116,-66.7975,-20.02,-3.605
1270,19844185,0.539362,0.069174,-0.104798,-70.7525,-7.14,-12.95
1271,19844281,0.616588,0.102846,-0.09698999999999999,-66.4125,10.4125,-19.9675
1272,19844378,0.691008,0.133224,-0.12749000000000002,-57.4525,26.9325,-23.4675
1273,19844475,0.7984899999999999,0.116998,-0.18287799999999999,-49.5775,34.685,-23.7125
1274,19844572,0.948184,0.100162,-0.21777,-44.38,29.4175,-21.1575
1275,19844668,1.0942180000000001,0.066856,-0.26461799999999996,-44.485,16.73,-17.325
1276,19844765,1.192916,0.04392,-0.30012,-47.4775,0.1575,-12.9675
1277,19844862,1.21207,0.032086,-0.2867,-50.7325,-12.2325,-8.19
1278,19844959,1.183522,0.082472,-0.22691999999999998,-50.295,-14.7875,-6.02
1279,19845055,1.116788,0.17738800000000002,-0.160674,-46.585,-3.9375,-6.6675
1280,19845152,1.09007,0.24522,-0.131638,-40.39,9.2925,-9.5725
1281,19845249,1.136308,0.25803000000000004,-0.10650599999999999,-31.9375,9.7125,-6.7725
1282,19845346,1.2526959999999998,0.235704,-0.094672,-21.91,3.01,-0.14
1283,19845442,1.322846,0.21679400000000001,-0.090036,-15.5575,-0.8575,3.71
1284,19845539,1.3291899999999999,0.199348,-0.09333,-13.2475,-1.7675,3.7975
1285,19845636,1.369694,0.17848599999999998,-0.177144,-9.8175,-1.085,0.9625
1286,19845733,1.482178,0.10065,-0.39418200000000003,5.0925,-5.0225,1.47
1287,19845829,1.6837220000000002,0.21362199999999998,-0.6686821,21.315,-23.8,8.855
1288,19845926,1.812432,0.369172,-0.72773,14.21,-52.8675,12.2325
1289,19846023,1.811822,0.461892,-0.6390359999999999,-1.645,-67.9875,12.8275
1290,19846120,1.6211360000000001,0.5233800000000001,-0.604754,2.695,-70.9975,25.7425
1291,19846216,1.328336,0.4148,-0.659166,31.01,-66.745,47.1275
1292,19846313,1.071282,0.251198,-0.6790520999999999,60.2525,-47.9325,70.6125
1293,19846410,0.909632,0.15067,-0.684908,61.7925,-13.3525,90.405
1294,19846507,0.82411,0.087474,-0.714432,36.9425,18.0775,90.09000999999999
1295,19846603,0.754204,0.094916,-0.8788879999999999,20.685,9.8875,78.0675
1296,19846700,0.78446,0.07978801,-0.889258,11.235,-30.9925,61.1625
1297,19846797,0.759084,0.029768,-0.73627,7.0175,-58.8875,46.795
1298,19846894,0.8427761,0.044774,-0.595238,11.4625,-65.24,43.4
1299,19846990,0.89792,-0.063318,-0.6156119999999999,21.5775,-45.0275,43.7325
1300,19847087,0.9343981,-0.261324,-0.738588,33.46,-14.1225,45.1325
1301,19847184,1.003938,-0.3782,-0.7822640000000001,26.6,-0.3675,38.885
1302,19847281,1.126792,-0.418216,-0.7183361,5.95,-1.33,18.41
1303,19847378,1.082506,-0.406992,-0.530212,-4.2875,-16.03,6.335
1304,19847474,0.969412,-0.41236000000000006,-0.344894,-2.205,-39.9175,-4.235
1305,19847571,0.836676,-0.39589,-0.160186,2.4325,-56.1925,-12.9675
1306,19847668,0.750544,-0.293044,0.028792,6.4225,-51.555,-15.6975
1307,19847765,0.745908,-0.12017,0.098576,-1.435,-19.25,-15.96
1308,19847861,0.77836,0.066124,-0.008662000999999999,-13.4575,36.54,-17.1325
1309,19847958,0.746274,0.18483,-0.402478,-22.855,92.0675,-19.3025
1310,19848055,0.7288279999999999,0.232776,-0.549854,-22.6275,90.02,-19.845
1311,19848152,0.69845,0.29365399999999997,-0.434808,-37.7825,39.305,-13.1775
1312,19848248,0.6502600000000001,0.357338,-0.323788,-44.7125,12.635,-9.765
1313,19848345,0.6141479999999999,0.374418,-0.303048,-34.65,9.7475,-4.935
1314,19848442,0.558638,0.35026199999999996,-0.265838,-28.6825,11.3575,-0.07
1315,19848539,0.50142,0.335744,-0.2013,-26.11,15.225,-2.695
1316,19848635,0.439566,0.327326,-0.130906,-22.2075,18.1825,-5.53
1317,19848732,0.418216,0.273768,-0.11773,-11.2,19.0575,-7.5425
1318,19848829,0.407236,0.18043800000000002,-0.129198,3.2725,15.0675,-6.7025
1319,19848926,0.414922,0.08649801,-0.18629400000000002,13.72,6.755,-6.0025
1320,19849022,0.44896,0.01891,-0.235094,26.8975,-2.2575,-9.66
1321,19849119,0.48653599999999997,0.010004,-0.21520799999999998,41.2125,-13.72,-9.8875
1322,19849216,0.55693,-0.013908000000000002,-0.14786400000000002,50.6275,-22.715,-9.695
1323,19849313,0.6224441,-0.059902,-0.09320801,56.7525,-20.72,-7.9975
1324,19849409,0.6472100000000001,-0.06270801,-0.07112601,58.8525,-7.2975,-5.7225
1325,19849506,0.693204,-0.019642,-0.0854,58.9925,17.395,-5.2325
1326,19849603,0.7977581,0.033062,-0.171654,59.605,42.49,-0.455
1327,19849700,0.972828,0.08881599,-0.28999400000000003,63.2275,50.5575,6.405
1328,19849796,1.118252,0.117974,-0.30317,62.5625,32.7075,12.985
1329,19849893,1.148752,0.134078,-0.197152,53.2525,6.6325,14.4725
1330,19849990,1.133502,0.13859200000000002,-0.07612801,44.345,-6.1775,8.2775
1331,19850087,1.079334,0.108702,-0.007808001,39.2,-1.9775,1.855
1332,19850183,0.958432,0.042334,0.004026,32.235,10.7975,-2.8525
1333,19850280,0.874374,-0.026718000000000002,-0.01586,21.21,25.55,-9.555
1334,19850377,0.9173181,-0.134078,-0.038918,6.265,34.055,-11.4975
1335,19850473,1.0498100000000001,-0.2867,-0.039162,-0.8400001,33.5475,-11.585
1336,19850570,1.179374,-0.320738,-0.081374,4.375,23.205,-11.1475
1337,19850667,1.25355,-0.311222,-0.117486,13.3175,3.9025,-7.0175
1338,19850764,1.296982,-0.27523200000000003,-0.08332601,22.5225,-10.6925,-1.68
1339,19850860,1.3557860000000002,-0.146034,-0.1586,25.76,-24.7275,7.3675
1340,19850957,1.519876,-0.007442,-0.637938,21.665,-51.17,15.2775
1341,19851054,1.668106,-0.145912,-0.83631,18.6725,-78.155,8.9075
1342,19851151,1.633092,-0.353068,-0.879376,-26.7225,-76.72,-7.14
1343,19851247,1.42984,-0.282064,-0.543388,-31.115,-47.9675,-29.68
1344,19851344,1.286246,-0.360266,-0.496784,-26.0925,-27.72,-57.085
1345,19851441,0.9219540999999999,-0.168848,-0.721386,-26.46,-7.4725,-66.9725
1346,19851538,0.720288,-0.04148,-0.9964959999999999,-14.77,38.815,-83.2125
1347,19851634,0.775798,-0.067344,-1.283806,-8.8725,62.9125,-91.0525
1348,19851731,1.0551780000000002,0.051484,-0.8853540000000001,-10.8675,10.5875,-91.7
1349,19851828,1.17303,0.11358199999999999,-0.55205,-42.9975,-15.575,-91.84000999999999
1350,19851925,1.096902,0.11577799999999999,-0.548024,-21.1925,7.315,-78.75
1351,19852021,1.021628,-0.041236,-0.7582300000000001,-0.735,3.7625,-46.9875
1352,19852118,1.063108,-0.09186601,-0.8407021000000001,-0.7875,-27.2475,-23.03
1353,19852215,1.2322,0.045262000000000004,-0.8103239999999999,-11.445,-37.7825,-21.4725
1354,19852312,1.440942,0.29951,-0.7021101,-14.1575,-25.2175,-22.365
1355,19852408,1.473638,0.455182,-0.494954,-8.6625,-10.92,-14.0175
1356,19852505,1.345416,0.50935,-0.331352,-0.2625,-9.8875,-5.775
1357,19852602,1.136552,0.527284,-0.138714,17.815,-20.37,-1.225
1358,19852699,0.9459880999999999,0.382836,0.022813999999999997,24.92,-32.2,-2.03
1359,19852795,0.809226,0.135664,0.08430201,29.3825,-28.035,-5.425
1360,19852892,0.709796,-0.045627999999999995,-0.05002,39.4625,-3.2025,-5.075
1361,19852989,0.668438,-0.159576,-0.282186,46.6375,24.8325,-5.2675
1362,19853086,0.607804,-0.280966,-0.42700000000000005,47.11,43.1375,-6.335
1363,19853182,0.558516,-0.373808,-0.41663,35.2625,45.36,-9.345
1364,19853279,0.529968,-0.34794400000000003,-0.306342,18.0775,29.5225,-10.43
1365,19853376,0.550342,-0.32403200000000004,-0.20679,10.99,7.4025,-10.185
1366,19853473,0.5620541,-0.368684,-0.130174,7.105,-5.7225,-11.1125
1367,19853569,0.5322861,-0.398818,-0.134932,-0.8225,-3.325,-10.955
1368,19853666,0.5009319999999999,-0.390522,-0.142008,-7.2975,1.12,-10.22
1369,19853763,0.46640600000000004,-0.302072,-0.16530999999999998,-13.8075,-5.7575,-6.125
1370,19853860,0.450912,-0.217038,-0.156038,-21.98,-17.6925,-1.995
1371,19853956,0.447008,-0.151036,-0.14188599999999998,-30.3975,-22.47,1.54
1372,19854053,0.4553041,-0.091988,-0.11943800000000002,-41.2475,-18.76,4.9175
1373,19854150,0.5039819999999999,-0.031842,-0.07893401,-51.485,-11.62,5.67
1374,19854247,0.530822,0.061732,-0.025986000000000002,-57.33,-2.6075,3.64
1375,19854343,0.560346,0.13176,0.011468,-60.3225,6.615,0.49
1376,19854440,0.590846,0.1769,0.01403,-57.8725,13.9475,-3.22
1377,19854537,0.63135,0.164822,-0.048068,-50.68,17.3775,-5.915
1378,19854633,0.690032,0.141398,-0.124928,-42.1575,13.8775,-6.0025
1379,19854730,0.780678,0.116388,-0.18873399999999999,-40.425,6.86,-7.2975
1380,19854827,0.8731540999999999,0.074664,-0.24192600000000003,-40.705,5.7925,-9.8525
1381,19854924,0.97783,0.022326,-0.276696,-39.34,8.1725,-11.725
1382,19855020,1.056642,0.006344,-0.284992,-41.79,11.2,-11.3575
1383,19855117,1.097634,-0.02562,-0.26156799999999997,-47.6,15.4,-7.6475
1384,19855214,1.130208,-0.048922,-0.247416,-45.4825,14.2625,-3.6225
1385,19855311,1.114104,-0.019398,-0.211304,-43.05,5.46,-2.835
1386,19855407,1.093486,0.020130000000000002,-0.096868,-43.8725,-5.2675,-6.3175
1387,19855504,1.124962,0.13542,-0.010248,-38.78,-8.4875,-8.19
1388,19855601,1.2080440000000001,0.24058400000000002,0.014152000000000001,-30.9925,-10.6225,-7.35
1389,19855698,1.279292,0.277916,0.0366,-25.7425,-13.9125,-4.27
1390,19855794,1.34566,0.279136,0.048434,-27.1075,-14.595,-4.27
1391,19855891,1.410564,0.241194,-0.025986000000000002,-27.475,-10.1325,-7.21
1392,19855988,1.580876,0.142862,-0.290116,-11.6025,-14.35,-7.9625
1393,19856085,1.8633060000000001,0.21276799999999998,-0.66246,13.0025,-42.42,2.555
1394,19856181,1.959442,0.44164,-0.7150420999999999,19.215,-83.44001,14.0525
1395,19856278,1.771196,0.59048,-0.5352140000000001,1.925,-90.16001,17.29
1396,19856375,1.511092,0.621712,-0.578158,6.9825,-73.01,26.5475
1397,19856472,1.195722,0.5296021,-0.66673,49.7525,-69.1075,55.055
1398,19856568,1.010892,0.27023,-0.656726,71.645,-47.8275,73.09751
1399,19856665,0.9347639999999999,0.14566800000000002,-0.615978,65.1875,-2.205,90.02
1400,19856762,0.9037761000000001,0.026595999999999998,-0.69418,48.0025,24.7625,92.68001
1401,19856859,0.824232,-0.059902,-0.8182541,43.89,10.1675,80.29
1402,19856955,0.7442,-0.036722000000000005,-0.8808401,29.3475,-27.23,64.925
1403,19857052,0.7775061,0.032574,-0.729316,11.5325,-54.425,48.545
1404,19857149,0.801784,0.06344,-0.61793,11.34,-64.1725,42.49
1405,19857246,0.8906,-0.023790000000000002,-0.6290319999999999,20.475,-62.3875,42.805
1406,19857342,0.9863700000000001,-0.257664,-0.747128,30.38,-37.555,45.08
1407,19857439,1.0521280000000002,-0.405406,-0.769698,32.7775,-0.0875,40.8625
1408,19857536,1.102148,-0.416142,-0.7217521,11.095,23.94,26.67
1409,19857633,1.109956,-0.43163599999999996,-0.553758,-7.56,16.17,11.6375
1410,19857729,1.026752,-0.460794,-0.339892,-10.8325,-14.84,-0.6125
1411,19857826,0.88328,-0.454938,-0.192882,-7.98,-43.1375,-6.2825
1412,19857923,0.7733581,-0.376736,-0.050386,-4.655,-51.4325,-11.935
1413,19858020,0.7169939999999999,-0.233508,0.03294,-9.94,-36.7675,-14.63
1414,19858116,0.744566,-0.05246,0.00488,-21.91,-2.31,-16.8
1415,19858213,0.7539600000000001,0.104554,-0.183122,-31.43,44.8175,-17.0975
1416,19858310,0.727364,0.16775,-0.402844,-36.0325,76.79,-18.1475
1417,19858407,0.70638,0.245464,-0.41504399999999997,-38.465,62.685,-13.9825
1418,19858503,0.68808,0.309392,-0.32818,-47.8275,23.5025,-5.355
1419,19858600,0.63989,0.4026,-0.27145,-42.595,13.09,-0.14
1420,19858697,0.586576,0.457744,-0.25522399999999995,-34.16,19.0225,2.66
1421,19858794,0.5355800999999999,0.44029799999999997,-0.18141400000000002,-29.75,22.6975,1.015
1422,19858890,0.435662,0.41455600000000004,-0.114192,-23.625,25.62,-2.66
1423,19858987,0.35441,0.366122,-0.06771001,-14.35,27.37,-6.1075
1424,19859084,0.30256,0.31598000000000004,-0.06880801,-1.4525,28.6475,-8.0675
1425,19859180,0.305,0.23216599999999998,-0.085888,13.1425,23.3275,-8.2775
1426,19859277,0.33916,0.149328,-0.11870599999999999,25.8475,13.4225,-9.275
1427,19859374,0.388448,0.10553,-0.137738,37.8525,2.275,-9.66
1428,19859471,0.4575,0.07612801,-0.163846,48.125,-9.065,-10.0625
1429,19859567,0.538508,0.045262000000000004,-0.142252,59.22,-16.7825,-8.7675
1430,19859664,0.638304,0.046238,-0.109556,65.345,-15.9075,-5.7225
1431,19859761,0.7448100999999999,0.004026,-0.100406,67.1825,-5.425,-3.1675
1432,19859858,0.853878,0.005856,-0.141154,67.4625,6.6675,2.415
1433,19859954,0.9834421,0.018056,-0.23301999999999998,65.36251,10.325,8.4175
1434,19860051,1.144482,0.054412,-0.30353600000000003,65.555,3.115,15.3125
1435,19860148,1.251232,0.061732,-0.281454,61.5125,-7.8575,17.08
1436,19860245,1.29564,0.038918,-0.171044,54.3375,-10.8325,9.345
1437,19860341,1.2219520000000001,-0.010248,-0.040016,49.315,-4.1825,0.2275
1438,19860438,1.055666,-0.08503401,0.028304000000000003,45.115,5.145,-5.915
1439,19860535,0.8977980999999999,-0.14688800000000002,-0.008174001,32.095,12.9675,-10.01
1440,19860632,0.873886,-0.199226,-0.079178,10.29,20.93,-12.8625
1441,19860728,1.013454,-0.29402,-0.07551801,-6.685,23.415,-11.97
1442,19860825,1.181692,-0.34099,-0.06039,-9.17,14.28,-7.91
1443,19860922,1.296494,-0.32208000000000003,-0.09516001,-5.285,1.575,-4.69
1444,19861019,1.364326,-0.27633,-0.10736,1.89,-11.4625,-2.835
1445,19861115,1.43533,-0.17934,-0.214598,6.2125,-32.9875,5.285
1446,19861212,1.562698,-0.098088,-0.518134,1.6275,-71.1025,15.3125
1447,19861309,1.752896,-0.254126,-0.6771,-12.46,-111.3,9.555
1448,19861406,1.829146,-0.4023561,-0.6581899999999999,-42.5075,-116.9,-9.38
1449,19861502,1.581242,-0.25498000000000004,-0.506422,-49.245,-72.975,-28.0175
1450,19861599,1.2841719999999999,-0.193492,-0.496906,-36.82,-21.42,-51.485
1451,19861696,0.996008,-0.09320801,-0.63989,-28.6825,17.4825,-60.4275
1452,19861793,0.8592460999999999,0.09882,-0.8569280999999999,-12.635,49.105,-63.42
1453,19861889,0.9139021,0.25790799999999997,-1.156316,3.325,52.92,-65.555
1454,19861986,1.03395,0.35038400000000003,-0.8685181000000001,5.7925,4.1125,-64.5925
1455,19862083,1.065548,0.255834,-0.524356,-28.07,-6.7025,-69.545
1456,19862180,0.9772200999999999,0.12065799999999999,-0.49519799999999997,-19.5825,32.9175,-72.5375
1457,19862276,0.904752,0.0051240009999999996,-0.621346,-1.2425,37.2575,-53.7075
1458,19862373,0.882182,-0.09930800000000001,-0.712358,-2.5375,1.7325,-38.9025
1459,19862470,0.9320801,-0.142374,-0.73383,-15.05,-35.875,-39.41
1460,19862566,1.06018,-0.085888,-0.75213,-15.435,-54.46,-46.6025
1461,19862663,1.251598,0.061488,-0.6794180000000001,-7.49,-61.53,-43.3475
1462,19862760,1.381284,0.198738,-0.5191100000000001,-1.5575,-58.4325,-32.725
1463,19862857,1.350174,0.319762,-0.342942,1.89,-49.595,-14.035
1464,19862953,1.190964,0.356484,-0.137006,-2.275,-39.1825,0.175
1465,19863050,0.9886881,0.336354,0.006832001,-10.2375,-23.205,3.4125
1466,19863147,0.80703,0.231922,0.037332,-4.1825,5.67,3.3425
1467,19863244,0.670878,0.052826,-0.18141400000000002,9.205,42.245,2.415
1468,19863340,0.612684,-0.104676,-0.390156,21.56,61.425,4.69
1469,19863437,0.580964,-0.23911999999999997,-0.46896800000000005,24.5,57.995,5.565
1470,19863534,0.5471701,-0.288286,-0.379786,17.43,48.8775,0.6125
1471,19863631,0.493612,-0.30341399999999996,-0.257054,6.79,44.0475,-6.02
1472,19863727,0.42553599999999997,-0.343918,-0.172508,6.51,36.2775,-10.255
1473,19863824,0.39405999999999997,-0.394304,-0.11724200000000001,6.6325,19.915,-10.1675
1474,19863921,0.366122,-0.373808,-0.063928,1.995,7.7875,-7.315
1475,19864018,0.467016,-0.399062,-0.118096,-5.32,1.5225,-3.5
1476,19864114,0.441884,-0.29902199999999995,-0.09345201,-12.4075,-9.24,3.6575
1477,19864211,0.40894400000000003,-0.209108,-0.136152,-20.615,-16.975,8.4525
1478,19864308,0.42590200000000006,-0.171166,-0.133468,-29.295,-20.37,11.725
1479,19864405,0.49605200000000005,-0.132126,-0.128588,-41.3525,-17.8675,12.215
1480,19864501,0.5814520000000001,-0.07283401,-0.089792,-54.8275,-9.2225,8.155
1481,19864598,0.634156,0.00244,-0.05185,-65.695,3.2725,6.58
1482,19864695,0.6883239999999999,0.063074,-0.000366,-68.705,16.135,4.7425
1483,19864792,0.726266,0.11333800000000001,-0.009150001,-65.835,27.9825,1.085
1484,19864888,0.7692101,0.134322,-0.052826,-61.285,35.56,-1.4
1485,19864985,0.8244761,0.12932000000000002,-0.114192,-55.825,36.505,-3.5875
1486,19865082,0.8792540999999999,0.13383399999999998,-0.177144,-53.9,31.01,-2.73
1487,19865179,0.953308,0.109556,-0.221796,-54.81,20.7375,-2.1
1488,19865275,1.004182,0.106262,-0.242048,-55.9825,12.775,-0.6825
1489,19865372,1.064938,0.074664,-0.217404,-57.4875,14.5075,2.8175
1490,19865469,1.098854,0.042944,-0.145302,-52.0625,25.97,4.2
1491,19865566,1.084702,0.014152000000000001,-0.101748,-44.6075,30.1525,2.45
1492,19865662,1.020286,0.08967,-0.066856,-38.325,23.695,-0.385
1493,19865759,0.99308,0.238998,-0.02196,-35.3675,13.51,-4.9
1494,19865856,1.058106,0.370392,0.014274,-33.5825,5.215,-8.295
1495,19865953,1.1679059999999999,0.41589799999999993,0.06112201,-28.0,1.0675,-9.485
1496,19866049,1.251476,0.35465399999999997,0.105774,-27.545,-2.24,-7.6475
1497,19866146,1.339194,0.296582,0.130174,-28.8225,-0.245,-10.255
1498,19866243,1.379576,0.220088,0.13298,-23.835,9.9225,-16.52
1499,19866340,1.4210559999999999,0.131028,0.049288,-11.48,16.1175,-21.035
1500,19866436,1.51524,-0.007808001,-0.219234,2.6075,7.875,-15.925
1501,19866533,1.665666,-0.019764,-0.6198821,7.2275,-19.495,-1.995
1502,19866630,1.690798,0.07856801,-0.78141,11.6375,-62.125,1.3125
1503,19866727,1.5669680000000001,0.145424,-0.797148,12.9325,-103.67,10.64
1504,19866824,1.4204459999999999,0.24949000000000002,-0.769942,11.235,-147.035,41.23
1505,19866920,1.263798,0.28731,-0.7176041,31.43,-130.8125,69.335
1506,19867017,1.176202,0.31146599999999997,-0.746274,22.4,-74.375,101.745
1507,19867114,1.083238,0.429806,-0.7870221,5.11,-35.3675,123.55
1508,19867211,0.999668,0.464088,-0.898164,-4.4625,-12.18,106.4175
1509,19867307,0.9702661,0.19251600000000002,-0.786778,-18.1825,-26.075,89.53
1510,19867404,0.9206120000000001,-0.014274,-0.612318,-14.6825,-40.18,73.3425
1511,19867501,0.868274,-0.085522,-0.6137819999999999,-1.9075,-39.6725,55.5975
1512,19867598,0.922076,-0.137372,-0.677588,14.14,-34.825,46.62
1513,19867694,1.023824,-0.321104,-0.712114,24.5175,-19.4075,40.39
1514,19867791,1.139602,-0.5260640000000001,-0.725168,19.04,4.1125,23.5025
1515,19867888,1.247938,-0.63318,-0.6810039999999999,1.2425,18.095,0.49
1516,19867985,1.21146,-0.614636,-0.47153,-10.745,12.565,-14.5775
1517,19868081,1.014308,-0.531554,-0.20447200000000001,-22.2425,-10.7275,-22.085
1518,19868178,0.79056,-0.37088000000000004,0.116632,-19.7575,-37.0825,-24.045
1519,19868275,0.637694,-0.19702999999999998,0.31598000000000004,-11.1825,-44.905,-20.8425
1520,19868372,0.682712,-0.024888,0.24058400000000002,-15.785,-15.505,-18.0075
1521,19868468,0.78446,0.178852,-0.177754,-20.2475,53.62,-15.505
1522,19868565,0.8849879999999999,0.341356,-0.800564,-22.5925,95.3925,-16.555
1523,19868662,0.869128,0.40748,-0.5577840000000001,-23.8525,40.4075,-12.5475
1524,19868759,0.756278,0.438834,-0.329522,-55.23,-5.7225,-12.88
1525,19868855,0.64965,0.487756,-0.251442,-34.2125,8.68,-13.1775
1526,19868952,0.577182,0.560834,-0.269742,-24.9375,22.33,-8.365
1527,19869049,0.541802,0.548512,-0.20996199999999998,-21.77,22.8725,-9.9225
1528,19869146,0.502274,0.4933681,-0.14090999999999998,-19.2675,18.3575,-11.7075
1529,19869242,0.42700000000000005,0.43005,-0.134444,-5.4425,11.655,-16.03
1530,19869339,0.37027,0.34721199999999997,-0.14274,10.3425,-2.275,-19.9325
1531,19869436,0.36502399999999996,0.236558,-0.17202,28.4375,-15.155,-20.3
1532,19869533,0.407236,0.101626,-0.203496,48.5975,-26.915,-19.3375
1533,19869629,0.475434,0.032574,-0.196298,66.99,-37.1525,-19.5475
1534,19869726,0.53863,0.00061,-0.196298,81.375,-43.1375,-19.39
1535,19869823,0.618052,-0.012931999999999999,-0.14798599999999998,95.8475,-42.1575,-17.465
1536,19869920,0.69296,-0.06124401,-0.07612801,102.41,-30.8525,-17.115
1537,19870016,0.7374901,-0.125782,-0.013054,100.87,-7.0875,-16.52
1538,19870113,0.7556681,-0.11504600000000001,0.009272001,95.13,24.4125,-12.1975
1539,19870210,0.856196,-0.060634,-0.08454600000000001,87.115,52.01,-9.555
1540,19870307,1.032974,0.00366,-0.224602,83.6325,53.2,-3.115
1541,19870403,1.127646,0.047824,-0.237046,78.54,30.3975,1.015
1542,19870500,1.0821399999999999,0.07039400000000001,-0.11041,66.185,13.2825,-3.15
1543,19870597,1.003816,0.06588,0.03172,57.9075,12.635,-9.1
1544,19870693,0.961482,-0.014152000000000001,0.07234600000000001,53.025,15.085,-10.5
1545,19870790,0.92171,-0.125416,0.031598,47.11,13.685,-10.7625
1546,19870887,0.9234180000000001,-0.230458,-0.01403,31.4125,14.805,-12.845
1547,19870984,1.00101,-0.322202,-0.022813999999999997,13.37,16.0475,-12.005
1548,19871081,1.1289879999999999,-0.330864,-0.006222,11.1125,11.5325,-10.6925
1549,19871177,1.180228,-0.30744,-0.023180000000000003,16.6425,4.2525,-7.105
1550,19871274,1.187182,-0.276208,-0.007198,24.4125,-2.625,-1.8725
1551,19871371,1.181936,-0.16348,0.054412,33.11,-13.7725,6.335
1552,19871468,1.2695319999999999,-0.033306,-0.12529400000000002,37.45,-36.015,15.8725
1553,19871564,1.451068,0.058316,-0.60024,45.115,-64.34751,21.77
1554,19871661,1.566114,-0.127246,-0.7643300000000001,33.8275,-89.25,13.825
1555,19871758,1.3804299999999998,-0.30182800000000004,-0.9082899999999999,-15.505,-94.57,-7.35
1556,19871855,1.023336,-0.31842,-0.664778,-10.115,-45.2375,-36.4525
1557,19871951,1.145702,-0.560956,-0.6573359999999999,-8.9075,-8.19,-67.83
1558,19872048,1.05469,-0.414312,-0.9239059999999999,-10.5,5.4075,-75.6
1559,19872145,0.9323239999999999,-0.167018,-1.133014,-8.8725,6.1425,-79.765
1560,19872242,1.065792,-0.062586,-0.8903561,-9.94,-24.465,-82.2325
1561,19872338,1.1892559999999999,0.08649801,-0.714066,-29.0325,-34.02,-81.3575
1562,19872435,1.29015,0.11211800000000001,-0.612074,-21.8925,-16.9575,-82.355
1563,19872532,1.236104,0.097966,-0.599996,-8.12,-6.72,-57.5575
1564,19872629,1.210118,0.0976,-0.68381,-4.3575,-6.51,-32.3225
1565,19872725,1.285758,0.270352,-0.736514,-15.5575,-7.63,-18.3575
1566,19872822,1.447652,0.48214399999999996,-0.640378,-24.325,-7.5075,-10.1325
1567,19872919,1.387994,0.496662,-0.41663,-24.395,2.17,-3.4825
1568,19873016,1.143506,0.405406,-0.2684,-12.565,4.4625,-4.2
1569,19873112,0.9525761,0.36722,-0.206546,13.895,-10.5525,-10.2375
1570,19873209,0.869616,0.298534,-0.199714,33.81,-24.675,-10.36
1571,19873306,0.8544879999999999,0.146644,-0.192394,40.5475,-18.165,-10.71
1572,19873403,0.8371639999999999,-0.026108,-0.19983599999999999,39.8125,3.8325,-10.5175
1573,19873499,0.809714,-0.14701,-0.254614,37.8875,22.4,-10.3075
1574,19873596,0.7761640999999999,-0.219966,-0.312442,38.5875,29.9425,-9.065
1575,19873693,0.7345619999999999,-0.285968,-0.328912,35.595,30.5375,-6.7375
1576,19873790,0.6886899999999999,-0.305732,-0.282918,23.52,29.05,-5.3725
1577,19873886,0.623908,-0.2928,-0.191296,11.1825,27.3,-4.865
1578,19873983,0.580476,-0.33623200000000003,-0.153598,8.6975,33.4775,-5.6175
1579,19874080,0.5936520000000001,-0.480558,-0.20264200000000002,2.2575,32.0775,-4.5675
1580,19874177,0.518012,-0.463844,-0.09150001,-7.6125,21.6125,2.555
1581,19874273,0.435662,-0.418338,-0.052703999999999994,-16.8525,27.265,5.4075
1582,19874370,0.38918,-0.385886,-0.096868,-22.8375,33.0225,6.825
1583,19874467,0.348066,-0.337696,-0.110654,-35.805,25.235,11.025
1584,19874564,0.34428400000000003,-0.268522,-0.04575,-51.7125,13.1775,10.395
1585,19874660,0.37112399999999995,-0.15921,-0.010248,-67.0425,5.8625,7.8925
1586,19874757,0.41284799999999994,-0.028304000000000003,-0.010248,-74.4275,2.52,5.4775
1587,19874854,0.4933681,0.06405001,-0.034282,-75.915,0.0875,2.59
1588,19874951,0.5483899999999999,0.15311,-0.050874,-73.675,1.0325,0.7525
1589,19875047,0.6262260000000001,0.20788800000000002,-0.069662,-69.965,6.09,-2.0125
1590,19875144,0.733464,0.252052,-0.07686,-60.9175,13.6675,-5.1275
1591,19875241,0.8670540999999999,0.28328400000000004,-0.09674601,-49.315,18.9175,-7.7175
1592,19875338,0.984296,0.263154,-0.116632,-41.65,16.5725,-9.7825
1593,19875434,1.049566,0.198494,-0.113704,-37.4325,5.3025,-10.535
1594,19875531,1.077504,0.18666,-0.135664,-37.275,-7.77,-8.7675
1595,19875628,1.1204479999999999,0.121878,-0.15372,-37.45,-8.47,-6.02
1596,19875725,1.125084,0.07137001,-0.12505,-36.1025,4.8125,-4.2875
1597,19875821,1.135332,0.046604,-0.057218,-36.295,15.4,-4.9175
1598,19875918,1.136796,0.059048,0.010858,-34.1075,18.725,-6.09
1599,19876015,1.145946,0.09418401,0.028182,-30.3975,17.99,-5.2325
1600,19876112,1.1808379999999998,0.11541199999999999,0.07564,-28.175,13.895,-2.45
1601,19876208,1.220854,0.11394800000000001,0.12041400000000001,-34.65,13.755,-1.33
1602,19876305,1.248548,0.10833599999999999,0.15555,-40.53,19.2675,-3.99
1603,19876402,1.304302,0.07978801,0.005612,-35.2625,19.11,-5.3375
1604,19876499,1.43594,0.102968,-0.329888,-19.9325,-6.7375,3.1675
1605,19876595,1.575264,0.19483399999999998,-0.633302,-11.865,-54.355,6.7025
1606,19876692,1.5584280000000001,0.385764,-0.723582,-16.205,-87.5875,2.765
1607,19876789,1.588684,0.463844,-0.7257781,-21.2275,-110.32,5.74
1608,19876886,1.550986,0.52582,-0.651358,-7.3325,-129.8325,26.5825
1609,19876982,1.340902,0.43798000000000004,-0.593042,17.3425,-91.98001,54.1625
1610,19877079,1.191086,0.27523200000000003,-0.475434,32.8475,-33.915,87.74501
1611,19877176,1.148874,0.127368,-0.516914,20.615,8.2425,101.36
1612,19877273,1.1009280000000001,0.058803999999999995,-0.6883239999999999,-0.14,16.2925,89.6175
1613,19877369,1.051396,-0.023668,-0.8690061,-20.265,-15.89,76.93
1614,19877466,1.045662,-0.060024,-0.818986,-22.155,-45.255,61.32
1615,19877563,1.041392,-0.057584,-0.6956439999999999,-21.0875,-51.1175,49.91
1616,19877660,1.075552,-0.09638,-0.65087,-13.4225,-35.77,42.1575
1617,19877756,1.1529,-0.276208,-0.647698,-4.585,-12.565,34.1075
1618,19877853,1.236958,-0.435662,-0.6098779999999999,-5.46,10.3775,24.7625
1619,19877950,1.2489139999999999,-0.44835,-0.49105,-20.44,27.755,16.59
1620,19878046,1.1651,-0.36502399999999996,-0.35672800000000005,-34.5625,31.7275,8.54
1621,19878143,1.026142,-0.264496,-0.230458,-40.4775,19.18,3.3075
1622,19878240,0.874374,-0.171044,-0.128222,-36.5925,-2.1175,3.78
1623,19878337,0.8030041,-0.09577000000000001,-0.0549,-29.89,-22.4175,5.74
1624,19878433,0.8049561,0.012565999999999999,-0.040138,-29.68,-27.51,5.8625
1625,19878530,0.8298440999999999,0.165432,-0.186172,-34.5625,-13.16,4.4275
1626,19878627,0.825574,0.291702,-0.368684,-29.0675,4.8125,1.4875
1627,19878724,0.7788480999999999,0.334402,-0.36941599999999997,-30.3275,5.88,-1.4175
1628,19878820,0.715164,0.386008,-0.287066,-39.6025,-0.8925,-2.1875
1629,19878917,0.648552,0.42212,-0.222284,-33.845,-2.275,-2.0125
1630,19879014,0.5892601,0.424926,-0.199714,-28.35,0.665,-2.9925
1631,19879111,0.5131319999999999,0.422364,-0.174826,-26.81,7.5075,-6.7025
1632,19879207,0.462746,0.39113200000000004,-0.131394,-25.8475,11.76,-10.185
1633,19879304,0.432734,0.324642,-0.121024,-15.435,11.0775,-13.7025
1634,19879401,0.401624,0.23729,-0.126392,0.3325,2.66,-15.5925
1635,19879498,0.38966799999999996,0.141154,-0.14469200000000002,13.825,-5.635,-15.9075
1636,19879594,0.40748,0.069052,-0.165432,26.88,-12.075,-14.98
1637,19879691,0.438834,0.019275999999999998,-0.174826,36.715,-21.6475,-11.7775
1638,19879788,0.483242,-0.044164,-0.163846,44.9575,-29.47,-10.1675
1639,19879885,0.544852,-0.0793,-0.135542,53.305,-29.33,-8.3475
1640,19879981,0.6080479999999999,-0.06588,-0.08637601,58.24,-21.1575,-6.335
1641,19880078,0.658312,-0.0671,-0.069174,59.675,-7.9275,-5.005
1642,19880175,0.6993041,-0.05624199999999999,-0.07259,61.915,9.415,-3.7625
1643,19880272,0.77104,-0.012688,-0.128832,61.775,25.095,-1.33
1644,19880368,0.8812059999999999,0.041724000000000004,-0.160796,62.6325,27.685,2.94
1645,19880465,0.967094,0.09284201,-0.19861600000000001,61.3725,18.55,7.8225
1646,19880562,1.011258,0.122976,-0.16201600000000002,59.815,8.3825,8.5225
1647,19880659,1.06323,0.113704,-0.061854,53.34,4.8125,3.43
1648,19880755,1.07055,0.11760799999999999,0.01586,41.7375,6.65,-1.6275
1649,19880852,1.041636,0.09125599999999999,0.049776,35.315,4.3225,-5.8625
1650,19880949,0.972218,0.015616,-0.036233999999999995,28.8575,2.2225,-10.71
1651,19881046,0.8991401,-0.059658,-0.102602,17.5,6.125,-15.1375
1652,19881143,0.912926,-0.13115,-0.09162200000000001,5.845,8.1025,-18.0075
1653,19881239,1.029558,-0.271572,-0.060877999999999995,4.5675,2.135,-19.88
1654,19881336,1.146312,-0.294508,-0.06539201,8.995,-3.43,-21.6475
1655,19881433,1.244644,-0.24436599999999997,-0.192394,13.7025,-10.3075,-18.83
1656,19881529,1.3474899999999999,-0.17433800000000002,-0.40967600000000004,24.3775,-23.94,-9.2225
1657,19881626,1.426424,-0.162748,-0.5885281,22.9775,-42.5075,2.87
1658,19881723,1.513166,-0.30707399999999996,-0.6451359999999999,-4.2875,-54.5125,2.6775
1659,19881820,1.66347,-0.41675200000000007,-0.668316,-29.925,-59.325,-7.9975
1660,19881916,1.634556,-0.407846,-0.687348,-36.015,-56.7525,-19.3025
1661,19882013,1.413248,-0.348066,-0.5873079999999999,-37.3275,-38.9375,-34.51
1662,19882110,1.159732,-0.1952,-0.413214,-30.905,-19.9675,-52.64
1663,19882207,0.992226,-0.008540001,-0.46726,-17.85,0.525,-69.3875
1664,19882303,0.8834021000000001,0.135664,-0.7626221,-6.0025,27.895,-72.975
