,T,ax,ay,az,gx,gy,gz
0,175952,0.42700000000000005,0.15176800000000001,-0.7017439999999999,19.4075,-18.9175,-17.7975
1,176111,0.45554799999999995,0.160064,-0.807884,108.7975,-111.6675,-12.5825
2,176209,0.476288,0.153476,-0.85888,64.82,-132.8425,39.34
3,176307,0.477508,0.155184,-0.861808,48.055,-114.6075,-15.6975
4,176405,0.477264,0.15420799999999998,-0.862296,2.5725,-7.07,-4.4275
5,176504,0.478728,0.15396400000000002,-0.8615640999999999,1.47,-4.4275,-4.06
6,176602,0.478972,0.154696,-0.8625401,1.4175,-4.41,-4.13
7,176700,0.47994799999999993,0.154696,-0.861808,1.435,-4.4275,-4.0775
8,176798,0.476288,0.155184,-0.863516,1.4,-4.48,-4.0425
9,176896,0.477264,0.15616,-0.8632719999999999,1.47,-4.55,-4.1475
10,176994,0.47677600000000003,0.156404,-0.8632719999999999,1.5225,-4.5325,-4.1475
11,177092,0.479216,0.155428,-0.863516,1.4175,-4.4275,-4.13
12,177191,0.477996,0.15420799999999998,-0.8620521000000001,1.47,-4.41,-4.0775
13,177289,0.476288,0.154696,-0.8632719999999999,1.4875,-4.4975,-4.1125
14,177387,0.47946000000000005,0.155184,-0.862296,1.435,-4.515,-4.1475
15,177485,0.477264,0.154696,-0.8625401,1.435,-4.4625,-4.13
16,177583,0.47823999999999994,0.15420799999999998,-0.8637601,1.4525,-4.4625,-4.0775
17,177681,0.477264,0.155672,-0.8637601,1.435,-4.5325,-4.095
18,177779,0.47653199999999996,0.155916,-0.8637601,1.4175,-4.48,-4.1475
19,177877,0.47555600000000003,0.154696,-0.863516,1.3825,-4.48,-4.0425
20,177976,0.47604399999999997,0.154696,-0.8647360000000001,1.4175,-4.5325,-4.0775
21,178074,0.477264,0.15420799999999998,-0.86498,1.4525,-4.515,-4.0775
22,178172,0.47677600000000003,0.155428,-0.8640040000000001,1.4875,-4.48,-4.1125
23,178270,0.478972,0.15396400000000002,-0.8613200000000001,1.54,-4.3925,-4.13
24,178368,0.47775200000000007,0.15372,-0.863028,1.5225,-4.4975,-4.1125
25,178466,0.478972,0.15396400000000002,-0.862296,1.47,-4.5675,-4.1125
26,178565,0.477264,0.157136,-0.8637601,1.505,-4.55,-4.1125
27,178663,0.477508,0.155184,-0.863028,1.505,-4.5325,-4.06
28,178761,0.476288,0.15494000000000002,-0.864492,1.54,-4.515,-3.99
29,178859,0.47823999999999994,0.15616,-0.8642481,1.5225,-4.4275,-3.955
30,178957,0.479216,0.155428,-0.8642481,1.5225,-4.375,-4.0425
31,179055,0.47677600000000003,0.15494000000000002,-0.8640040000000001,1.54,-4.4625,-4.06
32,179153,0.4758,0.155184,-0.863516,1.5575,-4.4625,-4.095
33,179252,0.47677600000000003,0.156892,-0.8632719999999999,1.68,-4.48,-4.06
34,179350,0.479216,0.15494000000000002,-0.8637601,1.505,-4.4275,-4.025
35,179448,0.477508,0.155428,-0.86498,1.47,-4.445,-4.0425
36,179546,0.4758,0.157868,-0.862296,1.505,-4.4625,-4.025
37,179644,0.477264,0.155916,-0.863028,1.4525,-4.3925,-4.095
38,179742,0.4758,0.155428,-0.8620521000000001,1.4525,-4.4275,-4.13
39,179840,0.47653199999999996,0.155916,-0.8632719999999999,1.5575,-4.34,-4.1475
40,179939,0.47677600000000003,0.15762400000000001,-0.8637601,1.5575,-4.515,-4.0775
41,180037,0.475312,0.154696,-0.8640040000000001,1.505,-4.585,-4.1475
42,180135,0.4758,0.15420799999999998,-0.864492,1.5225,-4.585,-4.06
43,180233,0.47506800000000005,0.156648,-0.8610761,1.4875,-4.4975,-4.06
44,180331,0.478728,0.154696,-0.8632719999999999,1.4525,-4.41,-3.99
45,180429,0.47775200000000007,0.154452,-0.8637601,1.4525,-4.445,-4.06
46,180528,0.47482399999999997,0.15762400000000001,-0.8608319999999999,1.5925,-4.3575,-4.0075
47,180626,0.477996,0.15494000000000002,-0.8632719999999999,1.575,-4.48,-4.025
48,180724,0.47775200000000007,0.154696,-0.8637601,1.54,-4.445,-4.0425
49,180822,0.47702,0.154696,-0.8632719999999999,1.54,-4.48,-4.06
50,180920,0.477508,0.154452,-0.8620521000000001,1.5225,-4.4625,-4.025
51,181018,0.47702,0.155672,-0.8637601,1.4175,-4.445,-4.0075
52,181116,0.47677600000000003,0.156648,-0.863516,1.47,-4.3925,-4.025
53,181215,0.478972,0.155672,-0.864492,1.54,-4.41,-4.025
54,181313,0.47555600000000003,0.156648,-0.8632719999999999,1.435,-4.445,-4.0775
55,181411,0.47775200000000007,0.155184,-0.8615640999999999,1.5225,-4.48,-3.9725
56,181509,0.47702,0.15396400000000002,-0.863028,1.505,-4.5325,-4.0075
57,181607,0.478484,0.156892,-0.8640040000000001,1.47,-4.48,-3.99
58,181705,0.47506800000000005,0.15494000000000002,-0.8632719999999999,1.5225,-4.375,-4.0075
59,181804,0.477508,0.15396400000000002,-0.8615640999999999,1.5575,-4.41,-4.025
60,181902,0.47653199999999996,0.15762400000000001,-0.8625401,1.4525,-4.3925,-4.0775
61,182000,0.477508,0.15396400000000002,-0.8620521000000001,1.4875,-4.41,-4.0775
62,182098,0.47823999999999994,0.155916,-0.8632719999999999,1.47,-4.3225,-4.025
63,182196,0.477264,0.155916,-0.862784,1.4,-4.375,-3.9725
64,182294,0.47653199999999996,0.154452,-0.8632719999999999,1.505,-4.34,-4.095
65,182393,0.476288,0.15420799999999998,-0.86498,1.5225,-4.375,-4.06
66,182491,0.47775200000000007,0.153232,-0.861808,1.505,-4.445,-4.06
67,182589,0.47506800000000005,0.154452,-0.85888,1.505,-4.4625,-4.0075
68,182687,0.47506800000000005,0.156648,-0.860344,1.5575,-4.445,-4.0425
69,182785,0.47653199999999996,0.15420799999999998,-0.8620521000000001,1.47,-4.48,-4.06
70,182883,0.477508,0.154452,-0.8615640999999999,1.4525,-4.4975,-4.0425
71,182982,0.47702,0.155672,-0.8637601,1.47,-4.41,-3.9375
72,183080,0.47702,0.156892,-0.861808,1.5575,-4.41,-3.99
73,183178,0.47555600000000003,0.154696,-0.8605879999999999,1.5575,-4.3575,-3.9725
74,183276,0.476288,0.15616,-0.8591241,1.5225,-4.2875,-4.0075
75,183374,0.47653199999999996,0.15420799999999998,-0.8615640999999999,1.505,-4.3575,-4.1125
76,183472,0.47653199999999996,0.15616,-0.8615640999999999,1.4,-4.2875,-4.095
77,183570,0.47677600000000003,0.154696,-0.8601,1.4,-4.3225,-4.06
78,183669,0.47702,0.154452,-0.8615640999999999,1.435,-4.3225,-4.095
79,183767,0.47677600000000003,0.15420799999999998,-0.863028,1.4875,-4.375,-4.025
80,183865,0.47506800000000005,0.156404,-0.8601,1.4875,-4.445,-4.025
81,183963,0.47458,0.15762400000000001,-0.861808,1.5925,-4.375,-3.955
82,184061,0.47482399999999997,0.155672,-0.859368,1.68,-4.3925,-3.955
83,184159,0.477264,0.155184,-0.861808,1.5925,-4.375,-3.9725
84,184257,0.47775200000000007,0.154452,-0.8632719999999999,1.4875,-4.3575,-3.99
85,184355,0.47677600000000003,0.155428,-0.8601,1.435,-4.3575,-4.0425
86,184454,0.47775200000000007,0.15616,-0.8620521000000001,1.365,-4.3575,-3.9725
87,184552,0.47946000000000005,0.15494000000000002,-0.862784,1.33,-4.3575,-4.025
88,184650,0.478484,0.15420799999999998,-0.8615640999999999,1.3825,-4.4275,-4.025
89,184748,0.477508,0.15396400000000002,-0.863516,1.4875,-4.41,-4.0425
90,184846,0.478728,0.15494000000000002,-0.862296,1.435,-4.3575,-4.0425
91,184944,0.47384799999999994,0.152256,-0.8632719999999999,1.3125,-4.375,-4.0425
92,185042,0.47604399999999997,0.157136,-0.8605879999999999,1.4,-4.375,-4.06
93,185141,0.47823999999999994,0.15201199999999998,-0.8613200000000001,1.33,-4.34,-4.1475
94,185239,0.47702,0.154452,-0.8605879999999999,1.12,-4.34,-4.1475
95,185337,0.47702,0.158356,-0.8615640999999999,0.9275,-4.2875,-4.235
96,185435,0.477264,0.158112,-0.860344,0.945,-4.2,-4.2
97,185533,0.47555600000000003,0.159332,-0.8610761,1.015,-4.2175,-4.2525
98,185631,0.4758,0.15982000000000002,-0.8605879999999999,1.12,-4.235,-4.165
99,185729,0.476288,0.153232,-0.8608319999999999,1.26,-4.2175,-4.1125
100,185828,0.47994799999999993,0.15420799999999998,-0.8625401,1.1725,-4.2175,-4.165
101,185926,0.47823999999999994,0.155916,-0.862296,1.085,-4.165,-4.27
102,186024,0.486048,0.153232,-0.8613200000000001,1.015,-3.9375,-4.445
103,186122,0.4819,0.155428,-0.8637601,0.7875,-3.5525,-4.76
104,186220,0.48214399999999996,0.155916,-0.8625401,0.6825,-3.08,-5.215
105,186318,0.477508,0.158356,-0.8596120999999999,0.8575,-2.8175,-5.5475
106,186416,0.476288,0.16201600000000002,-0.85888,1.05,-2.905,-5.5125
107,186515,0.48848800000000003,0.161528,-0.8581479999999999,1.365,-3.0625,-5.355
108,186613,0.47360399999999997,0.156648,-0.8647360000000001,1.3825,-2.8,-5.495
109,186711,0.480436,0.158356,-0.8569280999999999,1.8725,-2.87,-5.5475
110,186809,0.467992,0.15274400000000002,-0.8576601,2.2575,-2.9575,-5.3725
111,186907,0.474092,0.150792,-0.8581479999999999,2.3625,-3.115,-5.1625
112,187005,0.4758,0.15274400000000002,-0.8591241,2.135,-3.3775,-4.9525
113,187104,0.47482399999999997,0.155916,-0.8574161,2.1875,-3.7975,-4.76
114,187202,0.467504,0.167628,-0.8601,2.205,-3.955,-4.4975
115,187300,0.477508,0.16226,-0.8559521000000001,2.5375,-3.885,-3.9375
116,187398,0.477996,0.15494000000000002,-0.8549761,2.695,-4.0425,-3.5525
117,187496,0.46848,0.15982000000000002,-0.8581479999999999,2.45,-4.2875,-3.465
118,187594,0.47823999999999994,0.16201600000000002,-0.8540000000000001,2.5025,-4.095,-3.08
119,187692,0.48092399999999996,0.151036,-0.8586360000000001,2.6075,-4.0775,-2.8
120,187791,0.484096,0.152256,-0.861808,2.3275,-4.165,-2.9925
121,187889,0.490196,0.15054800000000002,-0.8666879999999999,1.925,-4.1825,-3.22
122,187987,0.49824799999999997,0.147376,-0.8662001,1.2425,-3.7625,-3.955
123,188085,0.479216,0.16226,-0.8610761,0.7875,-3.9725,-4.4625
124,188183,0.47775200000000007,0.162504,-0.859368,1.085,-4.305,-4.375
125,188281,0.47823999999999994,0.1586,-0.8586360000000001,1.365,-4.515,-4.2525
126,188379,0.47653199999999996,0.157868,-0.85888,1.5225,-4.445,-4.0425
127,188478,0.477508,0.155184,-0.8615640999999999,1.54,-4.4625,-3.9725
128,188576,0.476288,0.159332,-0.85644,1.435,-4.48,-3.9725
129,188674,0.481412,0.157136,-0.860344,1.575,-4.3925,-3.9725
130,188772,0.481412,0.158844,-0.8596120999999999,1.6625,-4.375,-3.99
131,188870,0.479704,0.158356,-0.859856,1.645,-4.34,-4.0425
132,188968,0.484828,0.156648,-0.859368,1.645,-4.2,-4.1125
133,189066,0.48116800000000004,0.1586,-0.8613200000000001,1.54,-4.2175,-4.27
134,189165,0.48092399999999996,0.159332,-0.8591241,1.715,-4.4275,-4.1125
135,189263,0.484096,0.158844,-0.8605879999999999,1.785,-4.585,-4.0075
136,189361,0.496296,0.157868,-0.864492,1.925,-4.725,-4.0075
137,189459,0.489708,0.151524,-0.8759601,1.6275,-5.2675,-4.1125
138,189557,0.48214399999999996,0.16592,-0.861808,0.9625,-5.6525,-4.27
139,189655,0.494832,0.15054800000000002,-0.865468,0.8225,-5.2325,-4.6375
140,189754,0.49776000000000004,0.15982000000000002,-0.868884,0.42,-5.1625,-5.04
141,189852,0.49605200000000005,0.14493599999999998,-0.8652241,0.315,-5.215,-5.4775
142,189950,0.477264,0.173484,-0.8579041,0.56,-5.705,-5.67
143,190048,0.449204,0.16811600000000002,-0.8513161,1.61,-6.0025,-5.39
144,190146,0.45579200000000003,0.155428,-0.8725440999999999,2.2575,-5.845,-4.6025
145,190244,0.490196,0.16226,-0.8640040000000001,1.925,-4.9525,-4.2175
146,190343,0.47336000000000006,0.181536,-0.8554641,1.89,-5.5825,-4.0075
147,190441,0.45554799999999995,0.16201600000000002,-0.8520479999999999,2.975,-6.1075,-3.36
148,190539,0.472872,0.1525,-0.8579041,3.255,-6.125,-2.7125
149,190637,0.501908,0.16909200000000002,-0.8601,2.835,-6.37,-2.6425
150,190735,0.482388,0.155916,-0.8540000000000001,2.625,-7.665,-2.8175
151,190833,0.47604399999999997,0.17812,-0.8479,2.6075,-8.645,-3.185
152,190931,0.488,0.171044,-0.8459479999999999,3.01,-9.345,-3.465
153,191030,0.493856,0.16714,-0.8525360000000001,3.465,-10.745,-4.13
154,191128,0.532652,0.17397200000000002,-0.8549761,3.255,-12.2325,-5.075
155,191226,0.5063,0.174704,-0.8532681000000001,3.535,-15.2425,-6.23
156,191324,0.46848,0.138348,-0.8549761,4.48,-17.78,-7.315
157,191422,0.471896,0.13078399999999998,-0.8552200000000001,4.7075,-18.8125,-7.7875
158,191520,0.45603599999999994,0.112728,-0.8740081000000001,4.3225,-19.215,-8.715
159,191619,0.444324,0.10687200000000001,-0.879376,3.01,-18.6725,-9.6425
160,191717,0.434564,0.12248800000000001,-0.8735200000000001,1.26,-17.1325,-10.2725
161,191815,0.430904,0.134932,-0.8781559999999999,-0.3675,-15.015,-10.885
162,191913,0.42748800000000003,0.149328,-0.87718,-1.5925,-12.9325,-10.745
163,192011,0.44652,0.16201600000000002,-0.8805960999999999,-2.31,-11.0075,-10.0975
164,192109,0.45628,0.16909200000000002,-0.8784,-2.24,-9.8175,-9.415
165,192207,0.440176,0.173484,-0.873276,-1.47,-9.4675,-8.4875
166,192306,0.431392,0.163724,-0.8703481,-0.595,-8.6275,-7.49
167,192404,0.42456000000000005,0.16226,-0.8735200000000001,0.1225,-7.455,-6.4575
168,192502,0.42895200000000006,0.16592,-0.8708360999999999,0.2625,-5.985,-5.4775
169,192600,0.435784,0.168604,-0.8720559999999999,0.455,-4.795,-4.6375
170,192698,0.426512,0.166408,-0.8632719999999999,1.1025,-3.99,-3.7975
171,192796,0.4148,0.163724,-0.8554641,2.2225,-3.0275,-2.9225
172,192895,0.403332,0.158356,-0.8532681000000001,3.5175,-1.5575,-1.8375
173,192993,0.42578,0.148108,-0.862296,4.5325,0.455,-0.8400001
174,193091,0.430172,0.15420799999999998,-0.8552200000000001,5.425,1.575,0.07
175,193189,0.41894799999999993,0.155672,-0.8522921,6.125,2.2575,0.9625
176,193287,0.438956,0.15616,-0.8608319999999999,6.5275,3.185,1.9775
177,193385,0.416508,0.156648,-0.8574161,6.1075,3.4125,2.695
178,193483,0.465796,0.139812,-0.883768,4.935,3.85,2.9225
179,193581,0.459208,0.153232,-0.8674200000000001,3.64,3.43,2.765
180,193680,0.4594521,0.146644,-0.8708360999999999,3.2375,2.975,2.485
181,193778,0.439688,0.162748,-0.876692,2.8875,2.73,2.8875
182,193876,0.45871999999999996,0.166164,-0.8847440999999999,2.975,2.5725,3.57
183,193974,0.47677600000000003,0.165676,-0.8703481,3.3075,2.765,3.7625
184,194072,0.47336000000000006,0.13151600000000002,-0.8818159999999999,3.7625,2.765,3.395
185,194170,0.47555600000000003,0.157868,-0.8805960999999999,4.2175,3.5175,3.43
186,194269,0.500688,0.142496,-0.8815719999999999,5.5825,4.025,3.185
187,194367,0.49898000000000003,0.14078800000000002,-0.8703481,6.265,4.2525,2.2225
188,194465,0.493856,0.142984,-0.8625401,6.3,4.235,0.7525
189,194563,0.483608,0.13639600000000002,-0.8652241,5.6875,4.3925,-0.5425
190,194661,0.48068,0.15006,-0.862784,4.6725,4.935,-1.505
191,194759,0.477508,0.14762,-0.8642481,3.8325,5.74,-1.9425
192,194857,0.486292,0.14518,-0.861808,3.3775,6.545,-1.575
193,194956,0.49263599999999996,0.157136,-0.8637601,3.4825,6.9125,-0.77
194,195054,0.49434399999999995,0.15054800000000002,-0.8591241,3.85,7.0525,-0.385
195,195152,0.480192,0.14688800000000002,-0.8640040000000001,3.7625,7.7,-0.28
196,195250,0.471408,0.150792,-0.86864,3.4125,9.03,-0.1575
197,195348,0.473116,0.1464,-0.8652241,3.5,11.6725,0.105
198,195446,0.4594521,0.1525,-0.876692,3.5,15.19,0.7
199,195545,0.47775200000000007,0.160308,-0.868884,3.395,20.72,1.54
200,195643,0.44505600000000006,0.152988,-0.8720559999999999,2.59,27.7375,2.38
201,195741,0.48824399999999996,0.139324,-0.873764,0.63,38.2025,3.605
202,195839,0.45725600000000005,0.13664,-0.8849879999999999,-1.1375,47.7925,4.06
203,195937,0.46311199999999997,0.140544,-0.897432,-3.43,58.8,4.27
204,196035,0.46726,0.132248,-0.8918200000000001,-5.4075,71.2775,4.76
205,196133,0.480436,0.128832,-0.90402,-8.225,84.6475,4.69
206,196232,0.495076,0.149816,-0.8991401,-13.195,95.8475,5.1275
207,196330,0.47482399999999997,0.15274400000000002,-0.944524,-17.43,106.785,6.6675
208,196428,0.465552,0.142984,-0.9562360999999999,-16.73,118.86,9.2925
209,196526,0.4636,0.16958,-0.9745360000000001,-15.6275,130.305,11.305
210,196624,0.490684,0.21276799999999998,-0.9772200999999999,-12.4775,142.835,14.875
211,196722,0.395768,0.239364,-1.0199200000000002,-6.405,159.04,22.4525
212,196820,0.428708,0.246928,-0.9152440000000001,3.2025,176.575,29.47
213,196919,0.5577840000000001,0.239852,-0.819108,12.355,200.9175,39.2
214,197017,0.413092,0.370148,-0.9928360999999999,21.21,232.75,55.51
215,197115,0.50752,0.339892,-0.8701040000000001,41.4925,266.6825,71.89
216,197213,0.55998,0.379176,-0.889624,53.935,308.8925,92.41751
217,197311,1.617232,0.21838000000000002,-0.9228081,60.375,360.4825,116.725
218,197409,0.8371639999999999,0.334036,-1.218536,65.555,423.3075,147.875
219,197508,1.48474,0.259128,-1.848788,36.9775,477.68,154.035
220,197606,1.582096,0.168848,-1.83122,9.2925,473.3575,131.8975
221,197704,1.6433400000000002,0.11053199999999999,-1.63602,1.645,457.5025,113.3475
222,197802,2.364848,0.520452,-2.0874200000000003,-17.0275,434.14,78.1375
223,197900,2.6837560000000003,0.5063,-2.653012,-61.7225,410.4275,31.01
224,197998,1.332484,0.446032,-2.4809919999999996,-90.28251,391.23,55.475
225,198097,0.49434399999999995,1.819264,-3.707336,-54.1625,340.095,141.4175
226,198195,0.8906,1.526708,-3.338896,32.865,171.78,75.35501
227,198293,0.582428,1.434476,-2.701568,35.875,45.36,6.8775
228,198391,-0.018056,1.009916,-2.38876,63.5075,-83.265,-30.4675
229,198489,-0.43724799999999997,0.540704,-1.735816,75.4775,-142.6425,-45.01
230,198587,-0.288652,0.408456,-1.500844,56.0875,-161.4725,-55.475
231,198685,-0.135176,0.39405999999999997,-1.4884,26.6175,-186.445,-66.71
232,198784,-0.050996,0.478728,-1.44204,6.2125,-220.15,-76.1775
233,198882,-0.022692,0.554124,-1.2939319999999999,1.015,-251.4225,-79.905
234,198980,0.046604,0.562908,-1.17974,9.555,-276.045,-79.5375
235,199078,0.158112,0.48092399999999996,-1.075064,21.7875,-295.33,-78.61
236,199176,0.23838800000000002,0.365512,-0.9911281,26.285,-311.115,-79.2925
237,199274,0.296948,0.283528,-0.9408639999999999,19.4775,-322.7175,-81.76001
238,199372,0.3904,0.268156,-0.9474520000000001,4.7075,-328.8075,-85.365
239,199471,0.498004,0.28377199999999997,-0.9840521000000001,-10.675,-331.8525,-88.935
240,199569,0.610244,0.261324,-1.060668,-20.9125,-333.3225,-91.2625
241,199667,0.754692,0.205936,-1.158024,-27.335,-334.6,-90.7375
242,199765,0.9440360999999999,0.142008,-1.279048,-34.335,-338.6075,-86.87
243,199863,1.057008,0.063196,-1.3090600000000001,-42.455,-346.7975,-80.5525
244,199961,1.1270360000000001,-0.03538,-1.311256,-52.0625,-354.0075,-72.905
245,200059,1.2153639999999999,-0.13054000000000002,-1.35054,-63.105,-356.44,-64.1025
246,200158,1.321504,-0.20861999999999997,-1.4088559999999999,-75.4775,-355.5825,-52.99
247,200256,1.3644479999999999,-0.28914,-1.414712,-88.8475,-352.7825,-41.055
248,200354,1.3847,-0.35843600000000003,-1.4130040000000001,-103.635,-344.8025,-30.2575
249,200452,1.499624,-0.32256799999999997,-1.556476,-116.445,-331.0125,-21.6125
250,200550,1.759484,-0.167872,-1.730692,-121.38,-318.885,-14.875
251,200648,2.0281279999999997,-0.051972000000000004,-1.759484,-114.8175,-315.8225,-12.3375
252,200747,2.084492,-0.014884,-1.500844,-99.38251,-317.2575,-17.0625
253,200845,2.0632639999999998,-0.001464,-1.1150799999999998,-80.90250999999999,-309.9775,-28.7175
254,200943,2.154276,0.10126,-0.76372,-62.2125,-289.345,-44.31
255,201041,2.329224,0.236436,-0.42748800000000003,-40.39,-262.1675,-59.78
256,201139,2.541992,0.273524,-0.046360000000000005,-14.3325,-234.01,-75.4775
257,201237,2.635688,0.002684,0.4575,7.0525,-205.17,-90.3875
258,201336,2.731824,-0.36234,0.873764,6.3525,-170.5725,-105.35
259,201434,2.912384,-0.588284,1.116056,-12.7925,-128.6425,-116.9
260,201532,3.125884,-0.7019880000000001,1.159244,-27.2825,-84.5775,-116.2
261,201630,3.175904,-0.785192,1.17486,-20.3875,-44.94,-100.135
262,201728,3.102216,-0.820084,1.129476,2.52,-6.4575,-72.345
263,201826,2.986072,-0.774212,0.951844,27.125,32.305,-39.795
264,201924,3.054392,-1.009428,1.635532,32.585,76.4225,-1.33
265,202023,0.474092,-0.000732,1.2761200000000001,11.445,178.4475,23.59
266,202121,-0.18422,1.45912,-3.82104,4.725,211.295,35.6475
267,202219,1.826828,0.8108121,-2.547848,42.4025,241.045,42.1575
268,202317,2.1423200000000002,0.06539201,-1.205848,67.375,215.565,48.825
269,202415,1.812432,-0.332816,-1.973716,72.765,198.5375,21.945
270,202513,0.783728,-0.414312,-1.4274,58.7825,156.17,10.535
271,202611,-0.06832001,-0.270108,-0.5292359999999999,45.36,130.0425,23.31
272,202710,0.46018400000000004,0.07246799999999999,-0.8357,20.9475,146.5975,20.265
273,202808,1.334436,0.163724,-1.499136,18.34,149.5725,20.265
274,202906,1.1411879999999999,0.271816,-1.3419999999999999,31.675,116.0075,27.09
275,203004,1.10776,0.6563601,-1.484984,42.0175,83.405,27.5625
276,203102,0.819108,0.22667600000000002,-1.1289879999999999,64.68,54.39,25.97
277,203200,0.56852,-0.155428,-1.047492,58.87,32.655,19.04
278,203298,0.662704,0.120048,-1.032608,38.885,23.3975,13.4575
279,203397,0.537288,0.219844,-0.964532,27.23,11.06,7.735
280,203495,0.43798000000000004,0.17812,-0.904752,22.7675,5.5125,3.605
281,203593,0.4023561,0.13664,-0.8962120000000001,18.4275,5.0925,1.68
282,203691,0.41358,0.06929600000000001,-0.898164,13.0725,7.7525,-1.8025
283,203789,0.40016,0.128344,-0.899384,7.7175,9.03,-3.1325
284,203887,0.416996,0.154452,-0.8969440000000001,4.2,10.9025,-3.9725
285,203986,0.43602799999999997,0.18666,-0.8813280000000001,3.045,11.6025,-4.0425
286,204084,0.43041599999999997,0.24570799999999998,-0.9057280999999999,3.4825,11.8475,-2.6775
287,204182,0.46164799999999995,0.21716,-0.895236,5.8625,10.9375,-0.5775
288,204280,0.505324,0.242048,-0.893284,6.335,9.1875,1.645
289,204378,0.478728,0.24888000000000002,-0.8930401,7.21,6.615,3.185
290,204476,0.45261999999999997,0.23155599999999998,-0.874252,8.925,5.32,5.11
291,204574,0.433832,0.205692,-0.883524,11.2525,5.0925,7.4375
292,204673,0.46335600000000005,0.16592,-0.889136,12.88,5.355,9.5025
293,204771,0.469944,0.1281,-0.8910879999999999,12.04,5.775,9.765
294,204869,0.467504,0.133712,-0.889136,9.03,6.4925,8.89
295,204967,0.46945600000000004,0.141276,-0.8808401,7.035,6.895,8.295
296,205065,0.468724,0.156648,-0.864492,6.055,7.07,8.33
297,205163,0.466528,0.137372,-0.868152,4.4975,7.4375,7.84
298,205261,0.47555600000000003,0.156648,-0.8640040000000001,3.115,7.875,7.63
299,205360,0.478484,0.149572,-0.8674200000000001,2.8525,7.6475,7.8225
300,205458,0.47213999999999995,0.151036,-0.865956,2.8175,7.3675,7.7525
301,205556,0.45603599999999994,0.149816,-0.862784,2.9225,7.35,8.1725
302,205654,0.48263199999999995,0.154696,-0.8581479999999999,3.15,7.7875,8.575
303,205752,0.480192,0.134932,-0.8547319999999999,2.9575,8.75,7.77
304,205850,0.472628,0.142984,-0.8640040000000001,2.6775,9.1,6.8775
305,205949,0.47604399999999997,0.14884,-0.8586360000000001,3.115,9.835,6.6675
306,206047,0.46896800000000005,0.15616,-0.85644,3.605,10.6925,6.72
307,206145,0.46335600000000005,0.13908,-0.862296,4.27,12.5825,7.21
308,206243,0.47702,0.138836,-0.8571719999999999,4.5675,15.75,6.615
309,206341,0.480192,0.12053599999999999,-0.862784,4.2525,19.5475,5.635
310,206439,0.484096,0.12566,-0.8620521000000001,3.01,23.5725,4.48
311,206538,0.49702799999999997,0.166408,-0.8596120999999999,0.77,27.4575,3.5525
312,206636,0.480436,0.128344,-0.8518040000000001,0.7875,30.38,3.185
313,206734,0.506544,0.141276,-0.8610761,0.035,34.4925,2.3975
314,206832,0.500688,0.15274400000000002,-0.8669319999999999,-0.7875,38.9375,0.945
315,206930,0.48263199999999995,0.124928,-0.9049959999999999,0.0175,44.66,0.875
316,207028,0.420412,0.110776,-0.879864,0.1575,52.5875,1.47
317,207127,0.482876,0.149328,-0.8971879999999999,-3.045,70.28,0.6475
318,207225,0.43212399999999995,0.154452,-0.9296399999999999,-5.6,86.905,1.1025
319,207323,0.482876,0.124196,-0.9608721,-8.8375,106.0675,2.24
320,207421,0.404064,0.16226,-0.9994241,-14.035,124.74,5.11
321,207519,0.384056,0.15274400000000002,-1.037976,-14.77,145.985,8.295
322,207617,0.313784,0.122,-1.081652,-13.0375,165.2,8.7325
323,207715,0.290604,0.152256,-1.048224,-12.95,187.81,7.245
324,207814,0.33818400000000004,0.15762400000000001,-1.009184,-11.725,224.2975,11.9175
325,207912,0.173728,0.384056,-1.004792,-5.425,271.8625,25.235
326,208010,0.219112,0.331352,-0.967216,16.1525,324.45,44.555
327,208108,1.0736,0.22667600000000002,-1.111908,33.2325,389.6375,70.21
328,208206,0.5887720000000001,0.47555600000000003,-0.956968,49.98,468.4225,119.9625
329,208304,1.6704240000000001,0.552904,-1.967128,19.5825,565.215,168.2975
330,208403,1.1794959999999999,0.212524,-1.8483,25.06,573.405,180.005
331,208501,2.484408,0.299388,-2.639836,-18.235,572.985,137.2175
332,208599,1.555744,0.292068,-1.44692,-40.9675,544.7225,99.4875
333,208697,3.950848,1.130696,-3.8166480000000003,-47.495,443.1875,62.65
334,208795,3.7680919999999998,0.6375721,-3.141988,-47.705,384.055,10.22
335,208893,-0.638304,1.0309,-4.4976519999999995,-133.77,401.52,95.305
336,208991,1.420568,1.637484,-3.303028,-85.89,259.2975,139.02
337,209090,1.143872,1.903932,-4.085536,-53.3575,119.49,76.2825
338,209188,0.45335200000000003,1.80804,-3.275944,0.385,-47.495,43.9075
339,209286,-0.18422,1.208532,-2.595916,48.545,-159.11,16.17
340,209384,-0.35672800000000005,0.8396040000000001,-2.0303240000000002,65.415,-214.13,-4.0075
341,209482,-0.282552,0.6878361,-1.687016,53.62,-242.235,-27.9125
342,209580,-0.128588,0.6219561,-1.575264,33.3375,-273.7175,-51.66
343,209679,0.0122,0.599996,-1.475956,18.3225,-309.7675,-68.9325
344,209777,0.027572000000000003,0.57584,-1.27124,14.0,-342.475,-77.28
345,209875,0.086132,0.49556400000000006,-1.102392,16.765,-363.1775,-79.5375
346,209973,0.17324,0.388448,-0.9903959999999999,20.195,-374.08,-79.8175
347,210071,0.370636,0.29646,-0.998692,19.0225,-378.5775,-79.7475
348,210169,0.528504,0.26474000000000003,-1.012356,11.725,-383.32,-79.17
349,210267,0.635376,0.277916,-1.042368,1.1375,-388.7975,-78.925
350,210366,0.73444,0.28377199999999997,-1.103856,-8.05,-392.35,-80.6575
351,210464,0.8757159999999999,0.280356,-1.2078,-14.9275,-393.0675,-84.14001
352,210562,1.062864,0.29158,-1.360056,-21.0875,-394.1175,-87.0975
353,210660,1.244888,0.268644,-1.482056,-26.46,-399.07,-89.005
354,210758,1.415932,0.167384,-1.57746,-33.25,-406.21,-90.965
355,210856,1.525976,0.045627999999999995,-1.604056,-45.045,-412.965,-92.3125
356,210954,1.615524,-0.063684,-1.6562720000000002,-61.0575,-415.0825,-90.825
357,211053,1.758264,-0.0976,-1.76656,-79.7475,-411.1625,-85.1025
358,211151,1.9834759999999998,-0.09589201,-1.911252,-97.8425,-403.9,-77.77
359,211249,2.320928,-0.173728,-2.0051919999999996,-112.105,-396.2,-75.21500999999999
360,211347,2.593964,-0.165188,-1.920768,-122.7975,-393.26,-78.645
361,211445,2.7589080000000004,-0.088328,-1.6735959999999999,-124.95,-389.9525,-82.1625
362,211543,2.8321080000000003,0.06929600000000001,-1.232932,-110.5825,-379.4525,-81.2875
363,211642,2.883348,0.194712,-0.6856399999999999,-79.835,-355.565,-73.885
364,211740,3.06708,0.237168,-0.085888,-42.5425,-319.5325,-59.465
365,211838,3.194204,0.020252000000000003,0.559004,-15.715,-277.62,-41.055
366,211936,3.437472,-0.359656,0.9952761,-22.855,-231.7875,-30.24
367,212034,3.6024160000000003,-0.57462,1.344684,-69.055,-188.09,-33.775
368,212133,3.554104,-0.378688,1.671644,-117.5475,-143.5875,-54.8975
369,212230,3.665368,-0.09272000000000001,1.731424,-117.6175,-84.8225,-79.8
370,212329,3.7170959999999997,-0.062220000000000004,1.6704240000000001,-60.13,-17.64,-86.7475
371,212427,3.59778,-0.433832,1.3949479999999999,10.115,42.63,-73.1325
372,212525,3.307176,-0.6109760000000001,1.025044,35.77,86.6425,-60.76
373,212623,2.8321080000000003,-0.406016,0.500688,18.9,118.86,-54.1975
374,212721,2.362652,-0.018056,-0.029768,-0.7875,142.1525,-49.0525
375,212819,-0.186416,0.5553441,-1.236348,2.765,149.345,-50.75
376,212918,-1.8778240000000002,0.536068,-1.8971,91.455,133.805,-99.8025
377,213016,-4.602084,-0.646844,-2.477576,71.1725,211.47,-94.46500999999999
378,213114,3.055124,-0.987224,-1.524268,14.525,360.7975,-9.9575
379,213212,4.979796,-2.096448,-2.132072,103.635,360.955,61.355
380,213310,2.3006759999999997,-0.356484,-3.044632,72.6775,242.4625,52.78
381,213408,0.45506,1.21512,-0.8332601000000001,75.9675,168.6825,80.045
382,213506,0.798856,1.0443200000000001,-1.033828,65.345,178.5525,37.0825
383,213605,1.12972,-0.771528,-1.486448,94.7625,183.785,6.055
384,213703,1.327116,-0.7288279999999999,-1.571116,81.165,147.2625,28.4725
385,213801,0.935008,0.470188,-1.345172,40.04,102.7075,33.145
386,213899,1.114592,0.48263199999999995,-1.355908,45.6575,72.94,21.9625
387,213997,0.476288,-0.363316,-1.070916,59.6925,41.16,15.7675
388,214095,0.612928,0.06636801,-0.9828321,31.535,28.525,10.955
389,214194,0.624396,0.44725200000000004,-0.9738041,16.52,19.2675,7.98
390,214292,0.48531599999999997,0.19154000000000002,-0.9269561,21.07,14.8225,3.9725
391,214390,0.5009319999999999,0.278404,-0.90646,16.8525,11.8825,4.5325
392,214488,0.46726,0.225456,-0.8998719999999999,14.56,9.87,3.675
393,214586,0.44822799999999996,0.21008400000000002,-0.8849879999999999,13.37,9.24,4.3225
394,214684,0.477508,0.174704,-0.892064,12.3375,9.38,4.48
395,214782,0.453108,0.154452,-0.8976761000000001,10.15,9.24,3.57
396,214881,0.456524,0.17397200000000002,-0.8893800999999999,7.945,10.0275,2.73
397,214979,0.457744,0.20984,-0.8815719999999999,6.9475,10.85,2.7825
398,215077,0.468724,0.215452,-0.885964,7.63,11.2175,4.0425
399,215175,0.468724,0.182268,-0.8781559999999999,8.5225,11.3225,5.3375
400,215273,0.450668,0.17519200000000001,-0.8762040000000001,8.19,11.1825,6.265
401,215371,0.472628,0.149816,-0.8718120999999999,7.9625,11.6725,7.595
402,215470,0.457012,0.13542,-0.868396,6.685,11.8475,8.0325
403,215568,0.462136,0.124928,-0.863028,5.5125,12.7575,7.84
404,215666,0.45457200000000003,0.134932,-0.863516,3.64,13.9825,6.86
405,215764,0.47555600000000003,0.12029200000000001,-0.8532681000000001,2.065,15.7325,6.23
406,215862,0.48385200000000006,0.134932,-0.862296,0.105,17.2375,5.74
407,215960,0.48702399999999996,0.12712400000000001,-0.85888,-1.5225,19.425,4.935
408,216059,0.48116800000000004,0.13078399999999998,-0.8679081,-3.57,21.84,4.1125
409,216157,0.49702799999999997,0.13078399999999998,-0.856684,-4.7775,24.5175,3.675
410,216255,0.506544,0.126392,-0.8552200000000001,-5.6875,26.32,3.1675
411,216353,0.492392,0.14469200000000002,-0.8559521000000001,-7.56,28.8575,2.1
412,216451,0.508984,0.153232,-0.8425321,-9.6425,33.88,1.96
413,216549,0.5219159999999999,0.226188,-0.8576601,-11.8825,39.83,2.6425
414,216648,0.47775200000000007,0.154452,-0.8464360000000001,-12.04,45.9725,4.06
415,216746,0.517768,0.12029200000000001,-0.822768,-11.13,52.71,3.815
416,216844,0.555588,0.209596,-0.8481440999999998,-9.835,55.93,2.3275
417,216942,0.5602239999999999,0.133468,-0.8527800999999999,-6.8075,57.47,2.9225
418,217040,0.42285200000000006,0.176656,-0.8596120999999999,-6.8075,58.52,5.005
419,217138,0.5231359999999999,0.18056,-0.8620521000000001,-7.4025,68.0225,6.545
420,217237,0.49776000000000004,0.155428,-0.8810841,-9.205,76.65,9.1175
421,217335,0.451888,0.13639600000000002,-0.9186601000000001,-8.7325,88.70749,10.325
422,217433,0.467504,0.14713199999999999,-0.949892,-7.5775,102.095,8.6625
423,217531,0.438224,0.177144,-0.9889319999999999,-6.5975,117.6525,7.2975
424,217629,0.350628,0.17763199999999998,-1.0084520000000001,-4.2175,135.3625,7.4375
425,217727,0.417972,0.10687200000000001,-0.9198799999999999,-1.505,157.185,7.07
426,217825,0.404064,0.11955999999999999,-0.9333,-5.11,190.6275,11.725
427,217924,0.268156,0.203008,-0.983808,-2.4675,229.5475,18.83
428,218022,0.244732,0.19032000000000002,-0.9301280000000001,12.355,276.99,26.285
429,218120,0.7734800000000001,0.245464,-1.077504,23.1875,337.26,39.6375
430,218218,0.8640040000000001,0.438956,-0.8195960999999999,42.98,405.615,86.24
431,218316,1.5647719999999998,0.6439159999999999,-1.7385,17.4475,528.22,138.285
432,218414,1.1594879999999999,0.46164799999999995,-1.789252,33.1275,572.845,164.0625
433,218512,1.138992,0.134932,-1.8031599999999999,35.7525,573.405,160.79
434,218611,2.4268240000000003,0.31402800000000003,-2.215276,-36.3825,573.37,104.7725
435,218709,1.499136,0.118096,-1.567944,-49.84,561.33,79.8175
436,218807,3.5221400000000003,0.548268,-2.4644,-100.94,487.9175,32.7075
437,218905,4.303428,0.6368401,-3.316204,-137.69,338.2225,-30.94
438,219003,0.635864,0.7854361,-3.941332,-149.03,348.9325,25.795
439,219101,2.23748,1.1538760000000001,-2.82064,-133.875,275.8,115.9725
440,219199,1.8236560000000002,1.435208,-4.105055999999999,-94.08,119.49,78.365
441,219298,0.9442801,1.358104,-3.144184,-51.065,-57.295,56.3325
442,219396,0.171776,1.019432,-2.4668400000000004,-13.23,-166.4425,32.725
443,219494,-0.189588,0.819108,-1.884168,14.77,-220.6925,15.3825
444,219592,-0.24424400000000002,0.70394,-1.5342719999999999,25.3575,-243.705,-2.9575
445,219690,-0.16201600000000002,0.625128,-1.380796,27.02,-263.2175,-20.86
446,219788,-0.0051240009999999996,0.581208,-1.323212,27.02,-286.335,-38.7275
447,219887,0.070516,0.534848,-1.206092,27.2825,-312.865,-52.5175
448,219985,0.147376,0.47092,-1.116056,29.2425,-335.7375,-61.2675
449,220083,0.251076,0.346236,-1.031144,29.855,-354.3925,-67.2175
450,220181,0.330376,0.24668400000000001,-0.981124,25.69,-370.5975,-72.0825
451,220279,0.416264,0.166408,-0.975024,17.1675,-382.2875,-75.0225
452,220377,0.490928,0.14566800000000002,-0.9572120999999999,6.895,-391.1425,-75.7575
453,220476,0.589504,0.167628,-0.9911281,-1.8725,-396.5325,-75.495
454,220574,0.692716,0.17128800000000002,-1.041636,-5.6525,-398.51,-75.6875
455,220672,0.8613200000000001,0.142984,-1.164856,-7.84,-398.265,-76.125
456,220770,1.064816,0.148596,-1.308816,-12.04,-400.5925,-76.6325
457,220868,1.221708,0.17568,-1.42374,-19.25,-407.7325,-78.0675
458,220966,1.33956,0.157868,-1.527684,-26.81,-415.7825,-83.02
459,221064,1.474248,0.160552,-1.672132,-35.665,-421.8025,-90.65001
460,221162,1.683112,0.21008400000000002,-1.855376,-44.695,-426.615,-99.295
461,221261,1.9551720000000001,0.130296,-1.916864,-48.93,-431.4975,-110.285
462,221359,2.228452,-0.23546,-1.8422,-49.49,-433.685,-122.99
463,221457,2.495388,-0.543144,-1.7775400000000001,-57.3475,-429.2925,-124.6
464,221555,2.74378,-0.6380600000000001,-1.649684,-72.5725,-423.8675,-110.705
465,221653,2.712792,-0.45335200000000003,-1.414468,-81.865,-416.15,-90.8075
466,221751,2.763056,-0.15762400000000001,-1.164124,-73.78,-397.5125,-73.36
467,221850,2.9941240000000002,0.221796,-0.839116,-42.9275,-365.1375,-59.5
468,221948,3.28546,0.47213999999999995,-0.19032000000000002,1.89,-330.925,-39.0775
469,222046,3.5492239999999997,0.122976,0.6070720000000001,39.34,-294.0525,-11.795
470,222144,3.7593080000000003,-0.5009319999999999,1.4274,22.9425,-253.4875,9.5725
471,222242,3.6478,-0.7922680000000001,2.079368,-59.3425,-203.4025,11.06
472,222340,3.643408,-0.3782,2.084248,-160.125,-138.1975,-21.2275
473,222438,3.9181519999999996,0.276696,1.7141,-188.5275,-67.3925,-62.0025
474,222537,4.0240480000000005,0.550952,1.5006,-116.0075,-5.0925,-78.1375
475,222635,3.770288,0.06563601,1.305156,-2.0475,49.175,-60.9175
476,222733,2.827472,-0.483608,0.796416,56.7175,90.23001,-41.86
477,222831,1.279048,-0.678808,0.8252079999999999,48.4575,124.3725,-49.8225
478,222929,-2.6232439999999997,0.312564,-2.209908,-0.8225,233.5725,-69.475
479,223027,0.029036000000000003,0.37576,-2.363872,-58.38,318.0975,-35.4025
480,223125,3.8983879999999997,-1.260504,-0.7376119999999999,19.845,369.3375,35.0875
481,223224,3.16834,-0.9093880999999999,-2.81332,35.77,335.685,32.4275
482,223322,2.088152,-0.314272,-2.394128,33.8975,269.325,56.63
483,223420,0.7551800000000001,1.280512,-0.9225639999999999,30.38,204.1725,73.15
484,223518,1.168272,1.087508,-1.387384,28.525,207.5675,26.6
485,223616,1.289296,-0.321592,-1.4339879999999998,68.72251,193.4275,16.0475
486,223714,1.653832,0.219112,-1.854644,76.3525,159.0925,37.9225
487,223812,0.75762,0.713212,-1.104832,82.0225,93.625,41.2125
488,223911,0.625128,-0.032695999999999996,-1.202676,88.16501,63.7525,30.31
489,224009,0.863028,-0.091744,-1.142408,74.3575,46.865,27.4225
490,224107,0.49263599999999996,0.23741199999999998,-0.9394,48.8775,18.585,22.085
491,224205,0.6514800000000001,0.14274,-0.9979600000000001,39.025,15.54,15.505
492,224303,0.5072760000000001,0.191052,-0.9201241,30.2575,9.3975,12.8625
493,224401,0.508984,0.1525,-0.919636,24.5,7.14,10.57
494,224500,0.46335600000000005,0.14274,-0.90036,20.65,6.2825,9.4675
495,224598,0.45896400000000004,0.10004,-0.9054840000000001,16.6775,6.5625,7.4025
496,224696,0.450668,0.1037,-0.8910879999999999,11.62,7.7875,4.3925
497,224794,0.44066400000000006,0.125904,-0.892064,7.63,9.8175,1.61
498,224892,0.44554399999999994,0.17055599999999999,-0.893284,5.425,11.3225,0.175
499,224990,0.45506,0.17812,-0.893284,5.1275,11.9525,0.7
500,225089,0.466528,0.19764,-0.8842561,5.4775,11.83,2.7125
501,225187,0.47043199999999996,0.20642399999999997,-0.877912,5.6525,11.2525,5.1275
502,225285,0.477508,0.193004,-0.870592,5.95,10.1675,7.5775
503,225383,0.48726800000000003,0.16689600000000002,-0.862296,6.1425,8.6275,9.835
504,225481,0.473116,0.144448,-0.8625401,6.1775,6.7025,11.165
505,225579,0.48068,0.129564,-0.8549761,5.985,6.055,11.4275
506,225677,0.47946000000000005,0.11736400000000001,-0.8652241,5.11,6.3,10.4475
507,225776,0.4758,0.120048,-0.8620521000000001,4.1825,6.545,9.5025
508,225874,0.47336000000000006,0.133224,-0.8605879999999999,3.3425,7.1575,8.47
509,225972,0.478484,0.13908,-0.8610761,2.8525,8.225,7.56
510,226070,0.483608,0.12980799999999998,-0.85644,2.59,8.75,7.2975
511,226168,0.48824399999999996,0.126148,-0.8522921,2.3625,8.8025,6.86
512,226266,0.47775200000000007,0.128344,-0.860344,1.6275,9.205,5.635
513,226365,0.47653199999999996,0.122976,-0.8554641,1.33,11.34,4.6725
514,226463,0.47823999999999994,0.129564,-0.8574161,0.4725,14.77,4.0775
515,226561,0.48556000000000005,0.14078800000000002,-0.865468,-0.9275,19.215,3.7275
516,226659,0.494588,0.15494000000000002,-0.8640040000000001,-0.8575,23.9925,3.6225
517,226757,0.5063,0.153232,-0.844484,0.28,28.4375,4.06
518,226856,0.489464,0.141032,-0.849608,0.8225,32.3225,4.8475
519,226954,0.489464,0.128832,-0.850096,0.665,36.2425,5.18
520,227052,0.49776000000000004,0.133712,-0.8461921,-0.6475,40.4425,4.725
521,227150,0.5016641,0.17202,-0.854244,-2.5375,46.0075,4.69
522,227248,0.49727200000000005,0.083936,-0.8949921000000001,-3.71,54.075,5.565
523,227346,0.413336,0.08442401,-0.888648,-7.4375,60.2175,5.495
524,227445,0.446032,0.12078,-0.9015799999999999,-12.3375,74.935,2.8
525,227543,0.43212399999999995,0.12078,-0.9347639999999999,-15.8375,92.85501,1.12
526,227641,0.414312,0.12932000000000002,-0.9857600000000001,-17.5525,113.505,-0.105
527,227739,0.398696,0.142008,-1.017968,-16.625,133.7875,-1.785
528,227837,0.456524,0.131028,-1.0140639999999999,-14.6825,153.5975,-3.99
529,227935,0.352092,0.12322000000000001,-1.0406600000000001,-11.935,177.9225,-2.59
530,228033,0.320616,0.09247601,-0.97356,-7.4375,205.5025,-0.3325
531,228132,0.279868,0.258152,-1.038952,-9.9225,250.04,9.1
532,228230,0.20642399999999997,0.3965,-0.9964959999999999,2.66,304.7975,30.9925
533,228328,0.243024,0.47213999999999995,-0.9186601000000001,22.1375,368.9175,60.7775
534,228426,2.334592,0.6307401,-0.9852719999999999,40.6525,447.1425,106.435
535,228524,1.333704,0.58804,-1.4213,41.3525,544.81,171.5175
536,228622,1.343952,0.557052,-2.167452,33.3025,573.405,205.31
537,228721,2.127924,-0.07710399999999999,-2.1996599999999997,13.7725,573.405,175.98
538,228819,2.02642,0.081252,-1.996652,-40.46,571.8825,120.33
539,228917,3.71978,0.5958479999999999,-2.8665119999999997,-87.0625,513.3275,61.075
540,229015,4.1358,0.8410681000000001,-3.20494,-105.77,385.595,-10.7975
541,229113,0.05587601,0.22862800000000003,-3.743936,-147.805,396.7775,56.175
542,229211,2.0742439999999998,0.637084,-2.192828,-127.5925,299.8625,175.385
543,229309,1.6443159999999999,1.7223959999999998,-4.899276,-118.7025,182.4375,130.795
544,229408,0.6993041,1.907836,-3.3630519999999997,-84.175,-25.235,88.06
545,229506,-0.17763199999999998,1.578436,-2.566392,-21.98,-160.3175,49.8225
546,229604,-0.702232,1.175592,-1.950536,24.9725,-218.5925,19.32
547,229702,-0.582428,0.9403761,-1.634556,47.7225,-233.1875,-12.81
548,229800,-0.33428,0.748836,-1.51524,47.74,-250.495,-44.5725
549,229898,-0.021472,0.6124400999999999,-1.552816,37.765,-282.8875,-72.625
550,229996,0.179584,0.5119121,-1.518656,25.305,-327.6175,-92.2425
551,230095,0.27328,0.466528,-1.340292,16.3625,-370.125,-102.8475
552,230193,0.35868,0.378932,-1.166564,13.2825,-399.3325,-105.8575
553,230291,0.438468,0.302316,-1.02358,11.6375,-416.0275,-105.0525
554,230389,0.5043479999999999,0.239852,-0.9396440999999999,8.7675,-420.63,-102.235
555,230487,0.638792,0.19764,-0.9772200999999999,2.8175,-416.6925,-99.435
556,230585,0.81862,0.183488,-1.087996,-5.67,-411.215,-98.5075
557,230684,0.9894200000000001,0.15982000000000002,-1.22244,-14.9625,-408.7825,-99.505
558,230782,1.151192,0.148596,-1.34932,-23.7475,-409.43,-100.87
559,230880,1.28344,0.160064,-1.485228,-31.395,-411.8275,-100.66
560,230978,1.453752,0.133468,-1.635532,-37.45,-414.4175,-100.17
561,231076,1.586244,0.03416,-1.7282520000000001,-43.295,-417.76,-101.395
562,231174,1.711416,-0.071492,-1.789984,-52.6925,-420.385,-102.795
563,231273,1.862696,-0.14078800000000002,-1.8053560000000002,-64.9075,-419.755,-100.2225
564,231371,2.028372,-0.34526,-1.773636,-77.07,-413.35,-93.065
565,231469,2.279448,-0.49556400000000006,-1.8170680000000001,-93.065,-400.645,-82.0575
566,231567,2.597868,-0.471408,-1.9144240000000001,-112.7875,-390.6525,-70.84000999999999
567,231665,2.7711080000000003,-0.238144,-1.819996,-122.605,-390.1275,-62.4575
568,231763,2.870416,0.085156,-1.493036,-109.62,-391.055,-56.9625
569,231861,2.9026240000000003,0.37990799999999997,-0.9418401,-70.0,-378.56,-51.5725
570,231960,2.9951,0.38356799999999996,-0.203496,-16.24,-347.515,-42.8925
571,232058,3.2427599999999996,-0.06344,0.510936,20.5625,-302.75,-27.2125
572,232156,3.5492239999999997,-0.628544,1.1507040000000002,3.9375,-257.145,-10.6925
573,232254,3.6917199999999997,-0.8754719999999999,1.672132,-66.745,-210.5425,-12.04
574,232352,3.697088,-0.582428,1.9144240000000001,-143.605,-157.3075,-36.2075
575,232450,3.782,-0.08637601,1.837564,-160.0025,-92.5925,-62.3875
576,232548,3.895948,0.241804,1.6213799999999998,-98.525,-20.265,-72.625
577,232647,3.793468,0.09272000000000001,1.341756,1.33,45.6225,-65.22251
578,232745,3.5672800000000002,-0.220088,1.064816,68.0225,94.36,-60.2875
579,232843,2.549312,-0.05856,0.534604,68.845,131.88,-74.305
580,232941,0.29426399999999997,0.3965,-0.295484,71.3475,161.3325,-106.1375
581,233039,-2.42048,0.174948,-2.640324,58.9225,251.8775,-137.585
582,233137,0.016347999999999998,0.628544,-1.8297560000000002,-20.195,316.365,-102.025
583,233236,3.7024559999999997,-2.0752200000000003,-0.915976,41.265,373.17,-7.0
584,233334,3.274724,-1.707024,-2.645448,82.495,329.035,11.305
585,233432,1.9883560000000002,-1.070916,-2.459276,69.3,255.1675,56.5775
586,233530,0.483364,1.263676,-0.6707561,40.32,188.2125,75.4775
587,233628,1.170468,1.0645719999999999,-1.3834799999999998,42.28,200.3225,37.66
588,233726,1.444724,-0.496296,-1.53598,82.285,191.7825,20.4925
589,233825,1.028948,-0.328912,-1.352492,70.735,142.9575,29.89
590,233923,1.107516,0.832528,-1.48718,48.7025,109.55,32.2875
591,234021,1.104344,0.07027201,-1.3200399999999999,62.0025,75.775,18.7425
592,234119,0.44725200000000004,-0.289628,-0.9933241,56.175,38.465,12.425
593,234217,0.60024,0.298656,-0.9818561,28.035,29.96,11.4275
594,234315,0.542656,0.19032000000000002,-0.9686799999999999,23.2575,25.76,7.175
595,234413,0.55266,0.13542,-0.935008,19.0575,21.1225,4.8125
596,234512,0.48824399999999996,0.22423600000000002,-0.9091440000000001,11.655,17.3425,3.2725
597,234610,0.476288,0.17738800000000002,-0.9006040999999999,10.78,15.61,2.7125
598,234708,0.498004,0.15616,-0.8971879999999999,9.3275,14.3325,3.71
599,234806,0.472384,0.174216,-0.8866961,7.49,13.1425,3.15
600,234904,0.46945600000000004,0.165188,-0.8927959999999999,5.3725,12.6175,2.6075
601,235002,0.479704,0.194712,-0.8874280999999999,4.3225,12.635,3.3775
602,235101,0.484828,0.239608,-0.889624,4.235,12.0575,5.0225
603,235199,0.49166000000000004,0.22496799999999997,-0.870592,6.125,10.85,7.8225
604,235297,0.48531599999999997,0.207156,-0.868884,7.1575,9.87,10.4125
605,235395,0.49288000000000004,0.172752,-0.8701040000000001,7.5425,9.555,12.6
606,235493,0.491904,0.15396400000000002,-0.8615640999999999,7.735,8.3475,14.1925
607,235591,0.478484,0.123708,-0.8605879999999999,8.1025,6.405,15.1025
608,235689,0.494588,0.111508,-0.85156,7.49,6.37,14.525
609,235788,0.48922,0.110776,-0.8547319999999999,5.9325,6.825,12.3725
610,235886,0.49824799999999997,0.101992,-0.84546,4.375,7.7175,10.1325
611,235984,0.49654,0.113704,-0.8464360000000001,3.115,7.805,8.47
612,236082,0.49141599999999996,0.12029200000000001,-0.8510719999999999,2.5375,7.5425,7.4725
613,236180,0.4941,0.14005599999999999,-0.8491200000000001,2.4325,7.5775,7.07
614,236278,0.509228,0.143228,-0.832528,2.6775,7.5775,6.93
615,236377,0.5060560000000001,0.13078399999999998,-0.844484,3.2725,7.3325,6.685
616,236475,0.494588,0.13151600000000002,-0.8439959999999999,3.85,7.7,6.16
617,236573,0.48702399999999996,0.13054000000000002,-0.8486319999999999,3.85,8.6975,5.32
618,236671,0.48385200000000006,0.11614400000000001,-0.85156,3.1325,11.0775,4.5675
619,236769,0.503128,0.131272,-0.8461921,1.645,13.7725,4.13
620,236867,0.492148,0.142008,-0.850096,0.595,16.3625,4.06
621,236965,0.493856,0.138348,-0.8574161,0.105,20.3,3.5
622,237064,0.48263199999999995,0.13542,-0.8625401,0.035,24.3775,2.835
623,237162,0.48726800000000003,0.111752,-0.859368,-0.21,29.8725,1.9425
624,237260,0.49288000000000004,0.156404,-0.863028,-1.89,37.7125,0.8925
625,237358,0.486292,0.150304,-0.8620521000000001,-3.815,47.4075,1.19
626,237456,0.514596,0.190808,-0.85644,-6.5975,60.5325,1.8725
627,237554,0.43676000000000004,0.112728,-0.906948,-7.945,73.8325,3.29
628,237653,0.44944799999999996,0.116876,-0.9442801,-9.9575,88.6025,4.2175
629,237751,0.45164399999999993,0.172752,-0.930372,-14.455,105.0525,5.005
630,237849,0.399428,0.137128,-0.9796600000000001,-16.0125,123.2525,8.085
631,237947,0.42822,0.122244,-1.0279719999999999,-14.7175,142.94,9.03
632,238045,0.37942,0.114192,-1.109956,-11.06,165.41,8.715
633,238143,0.24888000000000002,0.064172,-1.08092,-5.46,193.3575,7.1925
634,238241,0.28914,0.077836,-1.03578,-5.6,233.065,6.16
635,238340,0.19397999999999999,0.35136,-0.995764,-10.1675,287.245,23.205
636,238438,0.167384,0.3782,-0.9713639999999999,8.54,348.32,53.9
637,238536,1.087264,0.285236,-1.01626,31.325,424.2525,85.5925
638,238634,0.9389120000000001,0.627812,-1.095072,48.335,506.1,134.05
639,238732,1.7328880000000002,0.300852,-2.2692,27.2475,570.7274,181.4225
640,238830,1.176324,-0.020252000000000003,-2.18014,25.165,573.3875,170.31
641,238929,2.288964,0.152256,-2.1413439999999997,-27.5975,573.405,107.5025
642,239027,1.188524,0.214232,-1.73118,-34.51,570.36,77.7525
643,239125,3.6780559999999998,0.6368401,-3.493104,-78.7325,504.56,27.265
644,239223,4.1870400000000005,0.7227279999999999,-2.8914,-140.21,387.2925,-31.99
645,239321,0.072956,0.640256,-4.645028,-231.945,403.1475,60.13
646,239419,2.7284080000000004,1.7104400000000002,-3.5467839999999997,-218.3475,257.3025,100.555
647,239517,1.339804,1.8592799999999998,-4.30538,-172.7425,71.82,52.2375
648,239616,0.7015,1.5142639999999998,-3.176148,-102.1475,-157.8675,22.05
649,239714,-0.390156,1.232932,-2.125728,-39.655,-245.7175,-4.5675
650,239812,-0.5119121,0.9903959999999999,-1.559404,10.43,-260.365,-23.625
651,239910,-0.17128800000000002,0.8317960999999999,-1.391532,41.825,-260.9775,-43.75
652,240008,0.04392,0.590236,-1.354444,62.3875,-282.2925,-55.8775
653,240106,0.157136,0.446276,-1.23586,63.42,-316.68,-68.215
654,240205,0.214964,0.37088000000000004,-1.112152,53.6375,-348.6,-78.2425
655,240303,0.29987600000000003,0.27938,-1.003084,39.7075,-372.015,-83.405
656,240401,0.345748,0.221552,-0.9052401,24.71,-388.9375,-85.76751
657,240499,0.396012,0.205448,-0.8845,10.325,-397.5475,-86.0125
658,240597,0.543144,0.203496,-0.94306,-1.12,-399.5075,-85.1375
659,240695,0.6753920999999999,0.190564,-1.012844,-9.7125,-401.9925,-85.2425
660,240793,0.7666480999999999,0.169336,-1.08092,-16.5025,-405.8075,-86.4325
661,240892,0.8513161,0.15006,-1.141432,-20.9825,-408.1875,-87.3775
662,240990,0.9818561,0.131272,-1.239276,-25.515,-407.645,-86.4675
663,241088,1.154608,0.125416,-1.3847,-31.2025,-406.9625,-84.63
664,241186,1.363716,0.08662001,-1.563796,-39.3575,-409.0975,-84.5425
665,241284,1.492548,0.035624,-1.679452,-50.3125,-415.03,-87.6225
666,241382,1.593076,-0.019275999999999998,-1.770952,-62.3875,-420.245,-91.1575
667,241481,1.7099520000000001,-0.047092,-1.8287799999999999,-72.45,-420.63,-91.0175
668,241579,1.8766040000000002,-0.164212,-1.8153599999999999,-78.5925,-414.26,-86.9925
669,241677,2.1813599999999997,-0.432856,-1.8480560000000001,-84.455,-399.8225,-81.235
670,241775,2.595428,-0.47506800000000005,-1.885144,-99.64499,-388.29,-74.935
671,241873,2.799656,-0.2806,-1.77876,-111.1775,-386.0675,-67.7425
672,241971,2.811612,-0.138104,-1.493524,-105.805,-382.4625,-62.3175
673,242069,2.8487,-0.15420799999999998,-1.114104,-83.73751,-363.23,-64.0675
674,242168,3.0927,0.048312,-0.5636399999999999,-57.225,-332.4825,-69.755
675,242266,3.3733,0.5846241,0.186904,-17.2375,-303.0475,-61.53
676,242364,3.619008,0.07978801,1.080188,44.9575,-262.4125,-29.365
677,242462,3.7878559999999997,-0.8784,1.8465919999999998,46.83,-213.5525,-1.8725
678,242560,3.665856,-1.110688,2.375096,-43.9775,-158.375,-9.555
679,242658,3.6060760000000003,-0.40138,2.2972599999999996,-141.0675,-91.0875,-46.34
680,242757,3.805668,0.19959200000000002,1.802916,-139.79,-14.7,-65.5725
681,242855,3.66,0.25742,1.334192,-49.3675,51.8525,-55.58
682,242953,3.3379199999999996,0.173728,1.915156,59.99,111.16,-36.8725
683,243051,-0.72956,-0.126148,1.577704,132.23,253.3475,-24.01
684,243149,-1.6028360000000001,0.90402,-4.350032,46.8825,316.82,-1.47
685,243247,4.613796,-1.479372,-1.63602,79.2925,402.955,3.36
686,243345,2.12036,-1.364692,-1.2517200000000002,104.09,307.79,9.17
687,243444,2.67912,-1.090924,-3.16102,66.85,308.77,21.245
688,243542,1.6043,-0.13542,-1.592588,63.665,229.775,57.61
689,243640,0.7442,0.39723200000000003,-1.198772,36.96,184.8,46.235
690,243738,0.8735200000000001,0.281088,-1.117276,35.7875,181.3175,28.7175
691,243836,0.9479401,0.124928,-1.174372,52.15,164.92,40.3025
692,243934,1.779004,0.8513161,-2.0120240000000003,62.5975,146.2475,49.0
693,244033,1.235616,0.378688,-1.358592,97.7375,85.1725,45.5175
694,244131,0.528992,-0.312076,-1.109224,96.79251,34.825,32.41
695,244229,0.913048,0.010248,-1.161196,60.5675,24.955,26.4075
696,244327,0.490684,0.128832,-0.9235399999999999,38.7625,2.5375,14.6475
697,244425,0.595604,0.15372,-0.9537959999999999,29.3825,-0.0875,8.2075
698,244523,0.496296,0.111508,-0.918416,23.94,-2.9575,5.5825
699,244622,0.44896,0.08466801,-0.8322841000000001,18.795,-3.4825,2.205
700,244720,0.5009319999999999,0.057339999999999995,-0.8857200999999999,12.18,-0.7,-0.385
701,244818,0.431148,0.08174001,-0.892552,9.7825,-1.715,-1.26
702,244916,0.45432799999999995,0.10809200000000001,-0.8959681,5.775,0.105,-3.0975
703,245014,0.42431599999999997,0.1281,-0.889624,3.7625,0.5425,-4.3225
704,245112,0.459208,0.16104000000000002,-0.8862081,2.8175,1.8025,-4.655
705,245211,0.45579200000000003,0.17324,-0.8808401,2.6775,2.2575,-4.6375
706,245309,0.439688,0.18104800000000001,-0.885476,3.3425,2.0125,-3.955
707,245407,0.46335600000000005,0.196176,-0.8791321,4.13,2.0125,-2.17
708,245505,0.4148,0.20178800000000002,-0.8669319999999999,5.8625,1.225,0.21
709,245603,0.417484,0.19276,-0.8620521000000001,7.9625,0.9625,3.01
710,245701,0.42212,0.162504,-0.8605879999999999,10.0275,1.26,5.6
711,245799,0.37698000000000004,0.110776,-0.8605879999999999,11.4625,1.645,6.615
712,245898,0.41113999999999995,0.071492,-0.87108,11.2875,3.045,6.8775
713,245996,0.39918400000000004,0.008784,-0.8615640999999999,9.905,3.3775,6.6675
714,246094,0.403332,0.01586,-0.859856,7.21,3.395,5.7925
715,246192,0.399916,0.014396,-0.868396,5.075,4.0075,5.705
716,246290,0.439688,0.059536,-0.8723001,3.7275,4.7075,7.07
717,246389,0.476288,0.08369201,-0.8769360999999999,3.3775,5.495,8.82
718,246487,0.444568,0.12761199999999998,-0.886452,4.4275,6.09,10.465
719,246585,0.5011760000000001,0.12444000000000001,-0.8881600000000001,5.67,6.0725,12.11
720,246683,0.492148,0.148596,-0.8823040000000001,5.6875,5.11,11.2875
721,246781,0.47384799999999994,0.15054800000000002,-0.8781559999999999,6.2125,3.5525,10.0975
722,246879,0.49044,0.146644,-0.87718,7.1575,2.66,9.6775
723,246977,0.46603999999999995,0.130052,-0.8652241,8.5575,3.6575,8.155
724,247076,0.47092,0.120048,-0.8801081000000001,9.24,6.755,6.6325
725,247174,0.5124001,0.11760799999999999,-0.8754719999999999,9.1875,9.2225,6.51
726,247272,0.46945600000000004,0.126148,-0.893284,8.7325,10.22,6.6325
727,247370,0.45457200000000003,0.133956,-0.8913321,8.61,12.6,8.5225
728,247468,0.46042799999999995,0.110044,-0.8893800999999999,8.0325,18.025,11.41
729,247566,0.388448,0.0793,-0.9115840000000001,6.1775,27.2125,12.845
730,247665,0.39918400000000004,0.111752,-0.9106081,4.935,42.9625,11.9175
731,247763,0.372344,0.09882,-0.9298841,3.5,61.775,11.41
732,247861,0.404796,0.083204,-0.9652639999999999,-1.6975,84.42,12.7225
733,247959,0.377956,0.038064,-1.0147959999999998,-9.625,101.955,13.9125
734,248057,0.249856,0.047824,-1.033096,-13.8425,121.555,13.58
735,248155,0.305244,0.046848,-1.146556,-16.8,156.485,9.2225
736,248253,0.294752,0.10687200000000001,-1.2639200000000002,-15.33,189.63,2.94
737,248352,0.31476,0.100772,-1.1041,-7.21,222.145,-3.01
738,248450,0.24522,0.121024,-1.140456,-9.31,263.6375,0.175
739,248548,0.18666,0.17543599999999998,-1.098244,-10.6575,318.36,14.8225
740,248646,0.07832401,0.47067600000000004,-1.24074,-2.3625,388.01,47.4775
741,248744,-0.002928,0.49263599999999996,-1.131184,28.91,470.715,98.0
742,248842,3.178588,0.468236,-1.227808,50.715,552.6675,144.5325
743,248941,1.7707080000000002,0.278404,-2.375584,34.9475,573.3875,175.63
744,249039,2.253828,0.209108,-2.4927040000000003,13.1425,573.405,157.0975
745,249137,1.9612720000000001,0.543632,-2.3260520000000002,-7.385,569.4149,118.2125
746,249235,3.570696,0.9703879999999999,-3.3201080000000003,-10.78,507.7975,93.1525
747,249333,3.1888360000000002,0.7861680999999999,-3.3674440000000003,-66.675,431.5675,58.7125
748,249431,-1.235616,0.791048,-4.217784,-112.6475,397.075,120.0325
749,249530,1.726056,1.975424,-4.49814,-109.4275,263.935,108.7275
750,249628,0.7686,1.595272,-3.457968,-96.81,59.01,46.55
751,249726,-0.298168,1.43594,-2.645448,-58.94,-121.8175,1.7325
752,249824,-1.05774,1.0765280000000002,-1.664812,-19.915,-160.405,-31.57
753,249922,-0.5614439999999999,0.8815719999999999,-1.51524,2.8525,-155.1375,-57.5225
754,250020,-0.041724000000000004,0.693204,-1.5706280000000001,19.67,-167.055,-74.3575
755,250119,0.0976,0.459696,-1.542568,27.7375,-211.4175,-83.335
756,250217,0.017568,0.32086,-1.3298,22.19,-265.1425,-92.995
757,250315,-0.024156,0.271816,-1.097024,12.6525,-300.685,-97.72
758,250413,0.08417999999999999,0.21667199999999998,-0.983808,5.2675,-318.5525,-96.8975
759,250511,0.268888,0.16592,-0.9882001,-0.7525,-329.805,-92.925
760,250609,0.404064,0.130052,-0.99918,-7.2975,-341.11,-87.5525
761,250707,0.517524,0.123708,-1.0279719999999999,-14.3675,-352.6425,-83.02
762,250806,0.6117081,0.13078399999999998,-1.057496,-19.635,-363.2475,-79.8
763,250904,0.706136,0.11760799999999999,-1.08946,-21.7175,-371.0,-77.21
764,251002,0.8015399999999999,0.083204,-1.1289879999999999,-23.905,-376.425,-74.18251
765,251100,0.9089001,0.058316,-1.186572,-29.1375,-380.765,-71.05
766,251198,1.011868,0.070516,-1.264896,-38.01,-384.4925,-68.46
767,251297,1.129964,0.10004,-1.397632,-48.9475,-387.485,-67.13
768,251395,1.263676,0.07686,-1.521584,-59.115,-390.0575,-68.3375
769,251493,1.3888479999999999,0.042212,-1.5969799999999998,-69.195,-392.525,-70.8575
770,251591,1.4964520000000001,0.07344400000000001,-1.6613959999999999,-80.115,-392.6125,-70.91001
771,251689,1.646512,0.14884,-1.7753439999999998,-88.9,-388.0975,-68.88
772,251787,1.9068599999999998,0.198372,-1.951268,-93.6425,-380.5025,-71.05
773,251885,2.250656,-0.05368,-2.051308,-94.51751,-375.0775,-81.6375
774,251984,2.473184,-0.162748,-1.992016,-101.5,-375.795,-95.8825
775,252082,2.576884,-0.0732,-1.7409400000000002,-107.135,-377.9825,-105.8575
776,252180,2.664968,0.045872,-1.369084,-92.5925,-367.7975,-110.2675
777,252278,2.792336,0.154696,-0.780556,-57.925,-339.6225,-110.95
778,252376,3.0768400000000002,0.273524,-0.068076,-13.09,-299.46,-99.68
779,252474,3.453332,-0.162748,0.6375721,28.7525,-254.0475,-70.0175
780,252573,3.7485720000000002,-0.9049959999999999,1.39446,20.615,-211.54,-37.695
781,252671,3.724904,-1.1714440000000002,2.004948,-56.7875,-168.735,-29.3475
782,252769,3.534828,-0.687348,2.194048,-143.9025,-112.7175,-47.4425
783,252867,3.6717120000000003,-0.029768,1.8646479999999999,-155.33,-39.5325,-60.7075
784,252965,3.670004,0.159332,1.477176,-80.255,32.865,-50.575
785,253063,3.385012,-0.129564,1.064084,14.035,88.795,-33.5125
786,253162,3.065616,-0.364292,0.640012,57.4175,127.225,-30.2225
787,253260,0.085156,0.621468,-1.1831559999999999,58.73,147.4025,-47.11
788,253358,-1.9246720000000002,0.7861680999999999,-1.58844,135.6075,208.5825,-103.74
789,253456,-3.8554440000000003,-0.361852,-3.5970480000000005,80.43,256.1825,-68.39
790,253554,3.257644,-1.521828,-0.45628,42.455,359.485,-13.58
791,253652,3.57216,-2.3321520000000002,-0.9730721,102.8125,347.235,11.5325
792,253751,2.493436,-1.534516,-3.62828,50.96,306.6175,24.7975
793,253849,1.3285799999999999,0.24107199999999998,-1.155584,48.8425,225.2775,81.3575
794,253947,0.6453800000000001,1.5921,-1.039684,19.6,200.6025,60.2
795,254045,1.6145479999999999,0.581696,-1.677744,49.49,218.05,19.005
796,254143,1.7699759999999998,-0.035868000000000004,-1.8004759999999997,103.775,181.125,35.56
797,254241,0.9242720999999999,-0.012444,-1.373964,111.3175,104.4225,48.4575
798,254340,0.909632,-0.142008,-1.30174,79.3625,59.325,31.7625
799,254438,0.647576,0.24570799999999998,-1.089704,53.7075,28.5775,24.3425
800,254536,0.662216,0.015128,-0.9911281,40.53,15.2075,18.3575
801,254634,0.510936,0.11736400000000001,-0.942572,28.455,7.5775,12.635
802,254732,0.51118,0.171532,-0.91622,19.705,7.0175,8.5225
803,254830,0.49288000000000004,0.194956,-0.918416,15.6975,5.915,5.565
804,254929,0.47994799999999993,0.148596,-0.909632,13.0025,5.6875,4.7075
805,255027,0.49654,0.15372,-0.8996280999999999,11.165,5.4425,4.935
806,255125,0.48214399999999996,0.12248800000000001,-0.8869401,9.8175,4.34,4.235
807,255223,0.464088,0.09345201,-0.8845,7.9625,4.41,2.45
808,255321,0.456524,0.11760799999999999,-0.8840120000000001,5.565,5.495,0.1925
809,255419,0.463844,0.170068,-0.8818159999999999,3.29,7.14,-1.0325
810,255517,0.468724,0.19251600000000002,-0.8845,3.185,7.7,-0.175
811,255616,0.481412,0.17543599999999998,-0.8805960999999999,4.655,6.7025,2.1
812,255714,0.486048,0.160796,-0.87474,5.5475,4.9875,4.1475
813,255812,0.48068,0.145424,-0.8730319999999999,5.915,3.22,5.8275
814,255910,0.478484,0.13298,-0.8727879999999999,6.0375,2.135,6.6325
815,256008,0.478484,0.111508,-0.865956,5.6525,1.715,6.3175
816,256106,0.479216,0.11126400000000002,-0.8674200000000001,5.0225,1.54,5.3725
817,256205,0.48068,0.10345599999999999,-0.864492,4.83,1.3125,4.585
818,256303,0.4819,0.10858,-0.8625401,4.48,0.805,3.7625
819,256401,0.471896,0.1098,-0.86864,4.165,0.4725,3.5175
820,256499,0.4819,0.10394400000000001,-0.8605879999999999,4.13,0.1225,3.6225
821,256597,0.48385200000000006,0.09784401,-0.8615640999999999,3.92,-0.5425,3.7275
822,256695,0.48214399999999996,0.09979600000000001,-0.8613200000000001,4.305,-1.5225,3.4825
823,256793,0.48092399999999996,0.12029200000000001,-0.862784,4.8825,-2.6775,3.535
824,256892,0.48165600000000003,0.119072,-0.8579041,5.81,-3.5175,3.9725
825,256990,0.46848,0.125172,-0.865468,6.16,-3.85,4.235
826,257088,0.47506800000000005,0.13298,-0.8637601,6.44,-3.57,4.375
827,257186,0.479704,0.12761199999999998,-0.859856,6.965,-2.8175,4.7425
828,257284,0.46018400000000004,0.10760399999999999,-0.860344,7.5425,-1.9425,4.9525
829,257382,0.4594521,0.0976,-0.865468,7.8575,-1.1025,4.3925
830,257481,0.452376,0.10614000000000001,-0.873764,7.8575,0.9275,3.9025
831,257579,0.438956,0.115168,-0.8818159999999999,6.755,5.6875,3.0975
832,257677,0.429684,0.116632,-0.8827921000000001,4.865,12.8975,2.905
833,257775,0.417972,0.10809200000000001,-0.8884040000000001,3.01,22.0675,3.255
834,257873,0.41260399999999997,0.107848,-0.887916,0.8925,33.8975,2.38
835,257971,0.395524,0.090768,-0.891576,-3.3075,48.545,1.2425
836,258070,0.379176,0.08637601,-0.9098761000000001,-9.73,66.85,-0.4725
837,258168,0.4743361,0.142496,-0.90646,-18.1825,89.915,-2.3275
838,258266,0.265228,0.049776,-1.074332,-26.53,112.9275,-4.3575
839,258364,0.29377600000000004,0.028792,-1.039684,-36.295,135.4675,-7.42
840,258462,0.299632,0.089792,-1.203408,-45.64,173.1625,-11.445
841,258560,0.22643200000000002,0.169336,-1.299056,-47.8275,211.47,-15.8725
842,258658,0.05587601,0.244,-1.32736,-42.945,253.015,-16.31
843,258757,0.119072,0.205448,-1.136552,-36.61,309.68,-3.9725
844,258855,-0.191296,0.331352,-1.139968,-33.0925,393.5575,20.6325
845,258953,-0.1342,0.151524,-1.017724,-11.5325,491.365,43.155
846,259051,1.689212,0.372832,-1.305644,-7.49,565.2325,81.67251
847,259149,1.8214599999999999,0.24497600000000003,-2.552972,-40.5125,573.405,122.675
848,259247,2.272616,0.28011199999999997,-2.739388,-69.1425,573.405,76.9475
849,259346,1.833172,0.347456,-1.7028759999999998,-35.21,561.3125,59.29
850,259444,3.730028,0.8784,-3.378424,3.9725,459.76,27.72
851,259542,2.1045,0.200812,-3.4550400000000003,-26.285,417.7775,-11.305
852,259640,-1.27978,0.077592,-3.654144,-64.645,393.75,55.8075
853,259738,2.5622439999999997,1.135332,-3.96866,-59.395,293.4575,68.74
854,259836,1.1263040000000002,0.640256,-3.914248,-10.29,76.9125,83.125
855,259934,-0.138348,0.7017439999999999,-2.512468,8.925,-147.4375,87.22
856,260033,-0.945256,0.705892,-1.3917760000000001,45.7625,-193.6375,120.4175
857,260131,-0.5309441,0.9699,-1.24928,66.255,-183.6275,144.69
858,260229,-0.105896,1.2993,-1.336632,88.48001,-187.8625,148.995
859,260327,0.128588,1.558916,-1.4515559999999998,113.4175,-224.9975,141.96
860,260425,0.168604,1.696288,-1.311988,140.4375,-275.0475,110.9325
861,260523,0.20642399999999997,1.749724,-1.108248,163.1,-317.275,68.46
862,260622,0.305,1.69702,-0.8740081000000001,180.3375,-344.995,21.2975
863,260720,0.349896,1.516704,-0.606096,191.2575,-360.675,-20.65
864,260818,0.3843,1.30174,-0.43163599999999996,186.2525,-364.105,-51.03
865,260916,0.5663239999999999,1.19438,-0.50142,161.2275,-356.755,-69.72
866,261014,0.8396040000000001,1.2256120000000001,-0.705404,124.11,-349.8775,-79.415
867,261112,1.0784799999999999,1.441308,-0.9186601000000001,87.1675,-354.41,-85.47
868,261210,1.251476,1.6826240000000001,-1.060668,64.7325,-368.9,-92.68001
869,261309,1.311988,1.831952,-1.075552,61.0575,-386.7675,-103.1625
870,261407,1.3351680000000001,1.825852,-0.9982040000000001,67.4975,-400.0675,-117.4425
871,261505,1.400072,1.7504560000000002,-0.9852719999999999,69.965,-403.655,-136.255
872,261603,1.525,1.7223959999999998,-1.048712,60.305,-399.175,-158.0075
873,261701,1.713124,1.7694880000000002,-1.230004,39.4975,-391.8425,-184.2925
874,261799,1.938092,1.9144240000000001,-1.3893360000000001,16.0825,-386.715,-217.0
875,261898,2.1718439999999997,2.1581799999999998,-1.504504,2.5725,-384.0025,-252.175
876,261996,2.384368,2.3894919999999997,-1.536224,8.4175,-379.365,-288.5925
877,262094,2.592012,2.5193,-1.510604,33.635,-370.8425,-327.0925
878,262192,2.78892,2.479772,-1.452532,67.55001,-355.845,-367.01
879,262290,2.774768,2.618364,-1.272216,99.47001,-336.5775,-405.37
880,262388,2.912872,2.8674880000000003,-0.9152440000000001,131.075,-313.215,-441.35
881,262486,3.2530080000000003,2.02886,-0.286456,171.99,-282.9225,-474.6875
882,262585,3.7778519999999998,0.8327720999999999,0.515328,176.0325,-253.3125,-478.5725
883,262683,3.952556,0.08637601,1.279292,96.6175,-220.0275,-431.165
884,262781,3.814696,-0.284992,1.827072,-14.665,-171.8325,-365.5575
885,262879,3.6158360000000003,0.08954801,1.7746119999999999,-106.2775,-110.5125,-325.7275
886,262977,4.0240480000000005,0.71858,1.213168,-116.8125,-42.315,-306.0225
887,263075,4.218272,0.631228,1.243424,-34.5275,8.1375,-285.1275
888,263174,3.000956,-0.42212,1.6406560000000001,62.405,35.98,-248.36
889,263272,3.715876,-1.4483840000000001,2.7425599999999997,21.0875,118.02,-231.665
890,263370,0.9791719999999999,0.8569280999999999,1.6621279999999998,-139.6675,244.02,-241.325
891,263468,1.1594879999999999,-0.335988,-3.128812,-101.5525,324.94,-243.7575
892,263566,1.598444,-3.313764,-2.514908,-13.7725,361.0075,-118.23
893,263664,3.974272,-0.8718120999999999,-2.8792,-82.845,337.47,17.045
894,263763,2.8835919999999997,0.7829961,-2.82064,-74.4275,228.865,48.615
895,263861,0.648796,0.9618481,-1.1775440000000001,-40.8625,124.285,50.4525
896,263959,0.979416,1.4722959999999998,-1.398364,-17.78,113.5225,46.305
897,264057,1.7036080000000002,0.8906,-1.563796,38.78,85.97751,41.3875
898,264155,0.34477199999999997,-0.20618000000000003,-1.066524,70.4375,22.9075,30.8
899,264253,0.532896,0.359412,-0.9901521000000001,53.9875,11.1125,32.7075
900,264351,0.509472,0.330864,-0.9440360999999999,52.85,5.04,34.1775
901,264450,0.372832,0.006587999999999999,-0.9206120000000001,56.77,0.6825,33.5125
902,264548,0.528992,0.018788,-0.9696561,43.19,2.275,29.47
903,264646,0.367708,0.17738800000000002,-0.9106081,28.0175,1.12,22.4875
904,264744,0.4819,0.146156,-0.9301280000000001,24.465,2.7125,18.8475
905,264842,0.379176,0.219844,-0.9230520000000001,21.91,1.4525,16.94
906,264940,0.381128,0.082228,-0.94306,24.4475,2.835,18.6025
907,265039,0.384788,0.10931199999999999,-0.9318360000000001,22.7325,6.895,17.815
908,265137,0.434808,0.0793,-0.9289081,20.7725,9.73,16.3275
909,265235,0.429196,0.071492,-0.9225639999999999,20.3875,10.29,15.3125
910,265333,0.45115600000000006,0.05172801,-0.9167081,19.215,9.45,13.1425
911,265431,0.438224,0.03416,-0.9140241,16.135,9.4675,10.22
912,265529,0.43798000000000004,0.03904,-0.9120720999999999,13.0025,9.87,7.805
913,265627,0.42065600000000003,0.050752,-0.913048,10.29,10.815,5.7575
914,265726,0.439932,0.059048,-0.9147559999999999,8.855,12.1275,4.235
915,265824,0.44164,0.014152000000000001,-0.906216,8.7325,12.4075,3.29
916,265922,0.423096,0.017324000000000003,-0.9128040000000001,7.875,12.565,1.75
917,266020,0.395036,0.010492,-0.9128040000000001,7.56,13.3875,-0.0525
918,266118,0.411628,-0.008052001,-0.8949921000000001,6.7725,15.5575,-3.185
919,266216,0.42016800000000004,0.021716,-0.8967,5.04,17.9025,-6.0725
920,266315,0.438468,0.044896,-0.8967,3.1325,19.1975,-6.9825
921,266413,0.452376,0.028792,-0.879376,2.73,20.825,-7.0525
922,266511,0.43602799999999997,0.094672,-0.8862081,2.135,22.2075,-6.44
923,266609,0.45261999999999997,0.083204,-0.8857200999999999,2.03,23.6075,-4.7775
924,266707,0.465552,0.06563601,-0.883036,2.52,24.395,-3.15
925,266805,0.46848,0.049044,-0.874984,3.78,23.8525,-2.38
926,266903,0.46335600000000005,0.057828,-0.880352,4.725,23.205,-2.0125
927,267002,0.462136,0.066856,-0.8823040000000001,5.4425,23.905,-1.54
928,267100,0.464088,0.072712,-0.8752280000000001,5.81,25.7425,-0.595
929,267198,0.468236,0.06466001,-0.8840120000000001,6.37,28.0875,0.7
930,267296,0.465308,0.051484,-0.8820601,7.385,30.835,1.26
931,267394,0.454816,0.027083999999999997,-0.887916,8.54,33.775,1.435
932,267492,0.44212799999999997,-0.007320001,-0.9042641,9.1875,37.87,0.315
933,267591,0.43773599999999996,-0.01464,-0.9103641,8.6975,44.8525,-2.695
934,267689,0.427976,-0.0034159999999999998,-0.9289081,8.0675,54.425,-6.2125
935,267787,0.434808,0.016347999999999998,-0.9394,7.875,66.675,-9.0825
936,267885,0.4392,0.025376,-0.964044,8.6975,81.0075,-11.3575
937,267983,0.467504,0.081496,-1.0025959999999998,9.555,96.3725,-12.635
938,268081,0.46042799999999995,0.122244,-1.012844,9.2575,109.655,-10.92
939,268180,0.4453,0.1159,-1.050908,13.23,125.79,-4.445
940,268278,0.41260399999999997,0.11053199999999999,-1.115324,22.75,146.3525,4.2875
941,268376,0.406016,0.173728,-1.251232,30.8875,170.66,15.1375
942,268474,0.354532,0.24424400000000002,-1.361276,44.905,203.6825,32.095
943,268572,0.331596,0.304512,-1.350296,70.8925,244.685,55.545
944,268670,0.290116,0.52094,-1.52378,94.44751,292.9675,85.83751
945,268769,0.344528,0.792512,-1.5013319999999999,127.6975,341.74,129.0975
946,268867,0.693692,1.087264,-1.9041759999999999,184.2225,390.4425,187.845
947,268965,1.2587959999999998,0.993568,-2.360456,274.5925,440.44,241.5
948,269063,1.967128,0.8403360000000001,-2.295064,343.28,476.455,252.1225
949,269161,2.10816,1.1838879999999998,-2.3262959999999997,382.7775,471.0825,225.7325
950,269259,2.2469959999999998,1.1777879999999998,-2.193316,395.43,428.8375,159.74
951,269358,1.7624119999999999,1.194624,-2.146712,389.7775,383.04,86.17
952,269456,-1.569652,2.501976,-2.984364,412.79,369.81,88.76
953,269554,2.04228,1.6291879999999999,-1.7821759999999998,529.13,265.055,82.04
954,269652,1.626016,1.975424,-3.047804,493.395,90.335,-124.0925
955,269750,0.846924,1.280024,-1.9398,482.9125,-96.4075,-213.675
956,269848,0.18422,0.954284,-1.0765280000000002,468.5625,-153.475,-212.415
957,269946,0.35282399999999997,0.6319600000000001,-1.078968,445.375,-156.205,-166.81
958,270045,0.582184,0.53192,-1.310036,404.11,-173.39,-117.3025
959,270143,0.646112,0.649528,-1.450092,340.795,-219.4675,-79.94
960,270241,0.596336,0.9828321,-1.429352,279.51,-277.025,-48.195
961,270339,0.56242,1.4518,-1.250256,238.56,-330.6625,-18.5675
962,270437,0.5697399999999999,1.826096,-0.9950319999999999,225.68,-369.4775,7.1925
963,270535,0.5838920999999999,2.039108,-0.6939361,225.4525,-390.075,15.2425
964,270634,0.5038600000000001,2.1169439999999997,-0.387472,221.3575,-397.11,1.8725
965,270732,0.581208,2.210884,-0.2867,201.25,-389.69,-26.6
966,270830,0.84424,2.3419119999999998,-0.422608,168.315,-374.4475,-62.4575
967,270928,1.060668,2.476844,-0.542656,135.135,-365.75,-98.2625
968,271026,1.18096,2.5705400000000003,-0.5636399999999999,110.985,-364.21,-130.3925
969,271124,1.299056,2.579812,-0.5975560000000001,97.335,-359.9225,-155.435
970,271222,1.431792,2.543456,-0.7015,86.18751,-353.0625,-177.4675
971,271321,1.5311,2.4622040000000003,-0.8335040000000001,72.4675,-348.8275,-203.9275
972,271419,1.628944,2.30702,-0.9189040999999999,57.6275,-347.235,-231.9975
973,271517,1.6853080000000003,2.10938,-0.9701440999999998,42.035,-345.9225,-254.625
974,271615,1.754848,1.9244279999999998,-1.067988,26.0925,-340.2525,-269.955
975,271713,1.7507,1.789252,-1.15534,9.94,-331.8875,-279.37
976,271811,1.6933599999999998,1.677012,-1.226344,-6.1075,-319.6375,-286.405
977,271910,1.9898200000000001,1.6836,-1.539152,-22.0675,-299.005,-291.445
978,272008,2.27774,1.7672919999999999,-1.7328880000000002,-32.8125,-288.155,-292.845
979,272106,2.461472,1.7575319999999999,-1.7099520000000001,-32.0075,-290.395,-287.7
980,272204,2.612508,1.6213799999999998,-1.513776,-24.9725,-294.84,-273.63
981,272302,2.503684,0.490196,-1.050908,-23.345,-297.0275,-253.2075
982,272400,3.090016,-0.306464,-0.8727879999999999,-73.185,-291.2875,-223.545
983,272498,3.144184,-0.35697199999999996,-0.624884,-172.1475,-297.9375,-165.4275
984,272597,3.039996,-0.346236,-0.270352,-238.07,-299.565,-99.9425
985,272695,2.724992,-0.268888,0.262544,-268.1,-285.775,-56.035
986,272793,2.639104,0.294508,0.49654,-262.395,-241.605,-44.8525
987,272891,2.9153119999999997,0.676856,0.633668,-198.765,-177.45,-62.335
988,272989,3.114904,0.28548,1.023824,-96.81,-117.6,-90.59751
989,273087,3.1964,-0.302072,1.46522,-25.3925,-63.2975,-115.745
990,273186,3.097092,-0.588284,1.5967360000000002,-13.195,-7.1575,-130.4975
991,273284,2.95972,-0.5397281,1.301984,-24.745,50.5575,-137.585
992,273382,2.9260479999999998,-0.42456000000000005,0.751276,-21.4725,104.09,-141.435
993,273480,2.877736,-0.44505600000000006,0.239364,7.14,142.03,-138.95
994,273578,2.025444,1.116056,-0.6202479999999999,64.68,164.5525,-130.305
995,273677,-0.07417601,-1.556964,-0.102968,225.0325,247.695,-132.9825
996,273775,-0.285236,-1.249524,-3.3201080000000003,146.58,295.435,-128.24
997,273873,2.693516,-3.0741560000000003,-2.063996,93.8525,323.3475,-92.40001
998,273971,3.090016,-2.92434,-2.159888,76.4225,292.5825,19.67
999,274069,2.434388,-0.49434399999999995,-2.755736,30.6775,220.0625,57.4525
1000,274167,0.09979600000000001,0.869616,-0.686372,33.635,122.675,88.11251
1001,274265,-0.046604,1.7812,-0.237168,32.0075,123.6725,66.57
1002,274364,1.366644,0.5856,-1.533296,62.4925,169.3475,25.6725
1003,274462,2.060092,-0.356484,-2.3367880000000003,104.0025,137.8125,26.8275
1004,274560,1.136064,0.548268,-1.27368,113.82,57.505,52.78
1005,274658,0.777628,0.07832401,-1.188524,86.975,18.935,32.76
1006,274756,0.618052,-0.14005599999999999,-0.9952761,67.2175,10.64,22.75
1007,274854,0.5958479999999999,0.20252,-0.9320801,33.32,4.9875,13.2125
1008,274953,0.533628,0.2257,-0.898164,23.66,0.98,4.025
1009,275051,0.516304,0.23058,-0.8869401,19.11,-0.56,1.5225
1010,275149,0.47946000000000005,0.161772,-0.887184,17.01,-2.345,-0.2275
1011,275247,0.461404,0.179828,-0.8823040000000001,12.915,-2.24,-1.4525
1012,275345,0.42163199999999995,0.1159,-0.8815719999999999,10.57,-1.4,-2.135
1013,275443,0.45335200000000003,0.14469200000000002,-0.8730319999999999,7.21,0.9275,-2.555
1014,275541,0.43554,0.131028,-0.8642481,4.165,2.8175,-3.395
1015,275640,0.414312,0.14078800000000002,-0.8640040000000001,2.3975,4.34,-3.7975
1016,275738,0.45164399999999993,0.209108,-0.868396,0.5425,6.9475,-3.395
1017,275836,0.45286400000000004,0.246196,-0.8652241,0.2275,8.5575,-2.0825
1018,275934,0.423096,0.24766,-0.8637601,1.9075,8.75,0.175
1019,276032,0.43236800000000003,0.251808,-0.8632719999999999,4.8475,9.31,3.535
1020,276130,0.42748800000000003,0.202032,-0.8522921,7.9275,9.4675,6.58
1021,276228,0.44944799999999996,0.180804,-0.858392,10.5875,10.01,9.135
1022,276327,0.4941,0.158112,-0.8823040000000001,11.8475,11.1825,10.2725
1023,276425,0.50508,0.133712,-0.873764,12.285,10.3075,10.535
1024,276523,0.479704,0.139324,-0.868396,11.2875,9.59,9.2225
1025,276621,0.467992,0.142252,-0.865468,10.2025,9.94,7.5775
1026,276719,0.48556000000000005,0.13859200000000002,-0.860344,9.1,12.0925,5.67
1027,276817,0.489708,0.133712,-0.8610761,7.455,14.3675,2.905
1028,276916,0.506544,0.147376,-0.856196,5.4775,16.1,0.525
1029,277014,0.495076,0.140544,-0.862296,4.3225,17.36,-0.9975
1030,277112,0.49312399999999995,0.134932,-0.862784,2.9925,18.97,-2.555
1031,277210,0.4819,0.094916,-0.8642481,1.435,21.4375,-4.935
1032,277309,0.47555600000000003,0.142984,-0.86498,-2.52,26.04,-6.4225
1033,277406,0.49849209999999994,0.142984,-0.8357,-5.2325,32.6025,-6.2825
1034,277504,0.46945600000000004,0.18470799999999998,-0.8554641,-8.12,40.355,-5.2325
1035,277603,0.47946000000000005,0.18324400000000002,-0.862296,-8.9425,50.0325,-4.515
1036,277701,0.5170359999999999,0.162992,-0.8430200999999999,-10.43,59.535,-3.5175
1037,277799,0.534848,0.162504,-0.8244761,-11.2525,66.955,-2.73
1038,277897,0.5516840000000001,0.15982000000000002,-0.8471681000000001,-11.9175,73.1325,-1.8375
1039,277995,0.567788,0.20252,-0.8281360999999999,-11.095,75.8275,-1.75
1040,278093,0.5043479999999999,0.198372,-0.8327720999999999,-9.66,78.89,-0.245
1041,278192,0.54778,0.219844,-0.8344801,-7.945,85.92501,2.6775
1042,278290,0.5294800000000001,0.199348,-0.853512,-5.8975,93.73,6.58
1043,278388,0.5443640000000001,0.144204,-0.9032879999999999,-5.845,102.2875,10.395
1044,278486,0.48995200000000005,0.144448,-0.9323239999999999,-7.21,109.8475,12.5475
1045,278584,0.461892,0.162504,-0.9535521,-3.2375,122.045,13.5975
1046,278682,0.46481999999999996,0.151524,-0.9179280000000001,1.2075,137.095,14.07
1047,278780,0.47653199999999996,0.167872,-0.913048,2.485,158.2875,14.875
1048,278879,0.438468,0.20374,-0.9333,2.5025,184.905,19.705
1049,278977,0.379664,0.22935999999999998,-0.9455,12.005,215.4775,27.755
1050,279075,0.37112399999999995,0.32866799999999996,-0.9552601000000001,27.44,256.725,39.515
1051,279173,0.242048,0.46433199999999997,-0.8571719999999999,46.515,307.1075,62.265
1052,279271,2.2753,0.638548,-1.28588,60.9,366.765,98.21
1053,279369,0.742492,0.757376,-1.040904,97.0375,452.34,168.945
1054,279468,1.612352,0.730536,-1.8214599999999999,86.6075,555.7125,228.97
1055,279566,1.563308,0.58194,-2.2323560000000002,94.43,573.3875,254.7825
1056,279664,2.162084,0.311344,-2.042768,81.97001,573.335,242.7425
1057,279762,1.6272360000000001,0.11028800000000001,-1.398852,23.03,556.71,194.32
1058,279860,3.8564199999999995,1.114592,-3.856176,-61.18,486.7275,94.43
1059,279958,3.172244,1.00284,-4.099444,-113.75,440.51,16.1875
1060,280057,-0.8698601,2.321904,-4.48594,-130.62,423.5,126.2275
1061,280155,1.749968,2.233576,-3.314496,3.64,306.565,177.4325
1062,280253,1.124352,2.358016,-4.005504,30.5375,98.98001,6.86
1063,280351,0.828624,1.754116,-3.569964,56.805,-110.7925,-85.27750999999999
1064,280449,-0.215452,0.9384239999999999,-2.163304,105.14,-201.7225,-121.31
1065,280547,0.006832001,0.4743361,-1.7990119999999998,114.625,-215.0925,-128.52
1066,280645,0.39894,0.188612,-1.775832,95.41,-237.615,-132.51
1067,280744,0.47702,0.11248399999999999,-1.6479759999999999,61.6175,-282.905,-141.33
1068,280842,0.461404,0.141032,-1.443748,30.9225,-328.0725,-142.695
1069,280940,0.45871999999999996,0.182268,-1.206092,16.38,-359.6775,-135.135
1070,281038,0.423096,0.141032,-0.9638,15.8375,-379.5925,-121.1875
1071,281136,0.395036,0.05856,-0.7327321,18.6025,-385.8575,-106.085
1072,281234,0.462136,-0.007564001,-0.694912,15.8025,-378.5775,-93.2225
1073,281333,0.624396,-0.028792,-0.8142281,5.3725,-366.1175,-85.96
1074,281431,0.73932,-0.007564001,-0.9818561,-9.4675,-360.4825,-86.6775
1075,281529,0.8437520000000001,0.06490399999999999,-1.1714440000000002,-21.21,-362.6525,-91.2975
1076,281627,1.0077200000000002,0.114924,-1.29198,-24.1675,-370.1425,-92.225
1077,281725,1.1350879999999999,0.111996,-1.312232,-20.615,-381.4125,-85.76751
1078,281823,1.190232,0.07442,-1.27978,-18.0425,-392.8225,-74.8825
1079,281922,1.22244,0.050752,-1.263676,-22.61,-401.415,-65.555
1080,282020,1.253916,0.080276,-1.316868,-34.3175,-405.755,-61.5475
1081,282118,1.334192,0.161772,-1.4715639999999999,-47.6875,-405.8075,-61.9325
1082,282216,1.473516,0.33794,-1.652856,-56.9625,-405.0025,-65.485
1083,282314,1.613816,0.462624,-1.6692040000000001,-56.7,-405.055,-73.2725
1084,282412,1.8480560000000001,0.236192,-1.611376,-50.7325,-399.6475,-88.53251
1085,282510,2.2579759999999998,-0.18544000000000002,-1.6440720000000002,-57.6275,-388.1325,-110.74
1086,282609,2.6354439999999997,-0.337208,-1.7153200000000002,-81.90001,-381.0275,-130.3575
1087,282707,2.8609,-0.181536,-1.663348,-95.55,-377.7725,-139.3875
1088,282805,2.922144,0.040504000000000005,-1.342976,-74.095,-370.7375,-137.69
1089,282903,2.992416,0.165676,-0.8244761,-19.3725,-347.27,-125.72
1090,283001,3.284728,0.1342,-0.179096,44.835,-311.6925,-101.9375
1091,283099,3.554104,-0.12566,0.6375721,85.6625,-277.3225,-69.1075
1092,283198,3.8290919999999997,-0.5665680000000001,1.584048,75.28501,-239.2075,-40.0925
1093,283296,3.9159559999999995,-0.9486720999999999,2.320928,6.3875,-187.0225,-23.66
1094,283394,3.8703279999999998,-0.6729520999999999,2.353136,-95.13,-118.9825,-34.58
1095,283492,4.176304,0.058316,1.920768,-143.535,-46.9,-58.9575
1096,283590,4.1297,0.35087199999999996,1.657736,-91.8925,13.16,-55.895
1097,283688,3.631208,0.033672,1.5579399999999999,-1.3825,64.7675,-34.545
1098,283787,3.174928,-0.187636,1.1631479999999998,38.2725,112.56,-26.5825
1099,283885,0.31524800000000003,-0.134444,-0.250344,12.4425,142.1,-33.67
1100,283983,-3.394772,-0.029768,-1.032608,-24.2725,176.575,-60.1475
1101,284081,-4.775812,1.0438319999999999,-3.133448,-110.0225,311.9025,-49.735
1102,284179,5.917000000000001,-0.22057600000000002,-0.8752280000000001,-56.5775,502.3375,85.71500999999999
1103,284277,4.529128,-0.9969841,-1.9129599999999998,48.09,434.4725,95.48
1104,284376,2.584936,-0.6736840000000001,-3.244712,50.925,349.545,55.755
1105,284474,1.373476,1.3527360000000002,-0.987712,62.545,257.0925,104.2475
1106,284572,2.45586,2.747928,-2.721088,82.46,241.5,73.885
1107,284670,1.8065759999999997,-0.9655081,-1.77876,196.35,162.7675,60.3925
1108,284768,0.9562360999999999,-0.9025559999999999,-1.2993,144.4975,62.9125,59.605
1109,284866,0.891576,0.7376119999999999,-1.155584,52.43,33.7925,32.1475
1110,284964,0.69296,0.07417601,-0.9567241,48.1775,15.855,19.1975
1111,285063,0.559004,0.1952,-0.9025559999999999,35.0175,8.75,15.085
1112,285161,0.527284,0.207156,-0.8927959999999999,23.625,10.78,8.54
1113,285259,0.520208,0.288408,-0.8852321,17.3075,10.43,4.83
1114,285357,0.528992,0.173484,-0.877912,15.1025,10.8675,5.39
1115,285455,0.494588,0.216916,-0.8757159999999999,12.25,10.5,5.845
1116,285554,0.49580799999999997,0.130296,-0.868396,10.5525,10.675,5.5475
1117,285652,0.48678,0.155916,-0.863516,7.63,11.3925,3.5875
1118,285750,0.47775200000000007,0.1342,-0.859856,5.25,12.7575,1.33
1119,285848,0.482388,0.19154000000000002,-0.8669319999999999,2.0125,14.455,-1.085
1120,285946,0.496784,0.2135,-0.8610761,0.14,15.5225,-1.2775
1121,286044,0.483608,0.22057600000000002,-0.8664440000000001,0.0875,15.715,0.1925
1122,286143,0.48726800000000003,0.219112,-0.860344,0.735,16.1175,2.2225
1123,286241,0.488976,0.204228,-0.8581479999999999,0.8575,17.3075,4.6025
1124,286339,0.50508,0.18446400000000002,-0.8471681000000001,0.1225,18.4975,6.2825
1125,286437,0.518744,0.16811600000000002,-0.8410681000000001,-1.505,19.1275,6.79
1126,286535,0.512644,0.15054800000000002,-0.8361879999999999,-3.1675,19.4425,6.265
1127,286634,0.501908,0.13176,-0.8376520000000001,-4.4625,19.775,4.76
1128,286732,0.51118,0.139324,-0.843508,-5.5825,20.055,3.2725
1129,286830,0.52704,0.156892,-0.8364321,-6.0375,20.02,2.485
1130,286928,0.531676,0.167872,-0.8254520000000001,-4.8475,19.2675,2.6775
1131,287026,0.524112,0.171776,-0.8193521,-3.7625,17.8325,3.2725
1132,287124,0.549732,0.178608,-0.8147161,-2.0475,16.7125,3.5525
1133,287223,0.549732,0.19642,-0.817156,-0.035,14.5775,4.025
1134,287321,0.55632,0.18056,-0.8149601,2.625,13.3875,4.9875
1135,287419,0.5511961,0.201544,-0.815448,4.3225,12.355,6.0025
1136,287517,0.555588,0.221796,-0.80276,6.1775,11.585,7.56
1137,287615,0.5309441,0.195688,-0.8052,7.805,11.41,9.0475
1138,287713,0.545096,0.172752,-0.797148,8.505,13.1075,9.695
1139,287812,0.528504,0.13785999999999998,-0.805688,8.3825,15.365,8.7675
1140,287910,0.536068,0.14884,-0.8113001,6.4575,18.3575,6.8075
1141,288008,0.53314,0.15006,-0.8127641,4.795,22.085,4.9175
1142,288106,0.531188,0.172264,-0.821304,3.535,26.46,4.3575
1143,288204,0.542168,0.190808,-0.8276481,2.345,32.4625,4.8825
1144,288303,0.508252,0.148108,-0.8437520000000001,2.0125,40.6,5.4775
1145,288401,0.484096,0.147376,-0.8447280999999999,-0.1925,50.6275,5.1975
1146,288499,0.515084,0.160064,-0.8676640999999999,-4.13,62.9825,4.5675
1147,288597,0.473116,0.172752,-0.8910879999999999,-8.47,74.6725,5.46
1148,288695,0.47067600000000004,0.1586,-0.921588,-11.2525,92.82001,6.405
1149,288793,0.44652,0.1647,-0.94916,-12.11,112.3325,6.6325
1150,288892,0.41894799999999993,0.14786400000000002,-0.993568,-10.605,130.55,3.8675
1151,288990,0.395768,0.156892,-1.021628,-8.12,150.815,0.2975
1152,289088,0.43334399999999995,0.10833599999999999,-0.93696,-7.525,177.765,-0.07
1153,289186,0.354288,0.203496,-0.9818561,-13.5625,215.25,5.95
1154,289284,0.239852,0.327204,-0.9335440999999999,-6.9125,259.945,19.2325
1155,289382,0.24717199999999998,0.4209,-0.8959681,7.6825,314.79,39.97
1156,289481,1.2761200000000001,0.312076,-1.1131280000000001,23.0475,382.3575,70.8225
1157,289579,0.7954399999999999,0.5443640000000001,-1.007232,43.0325,461.685,123.445
1158,289677,1.594296,0.43602799999999997,-1.86172,26.8625,561.89,171.57
1159,289775,0.9323239999999999,0.17324,-1.8292680000000001,10.5525,573.405,175.665
1160,289873,2.6471560000000003,0.200812,-2.3311759999999997,-37.975,573.3525,125.895
1161,289971,1.5767280000000001,0.14274,-1.557208,-62.79,557.8475,86.32751
1162,290070,3.5375120000000004,0.552904,-3.4469879999999997,-82.81,472.85,39.6375
1163,290168,3.4743160000000004,0.8735200000000001,-2.971188,-80.90250999999999,399.9275,-5.3725
1164,290266,-0.057584,0.011468,-3.570696,-145.0925,426.335,77.47251
1165,290364,2.36802,0.44505600000000006,-2.839916,-149.6075,329.8575,159.2675
1166,290462,2.0632639999999998,1.367376,-4.5281519999999995,-141.435,189.14,144.165
1167,290560,1.148508,1.578924,-3.4264919999999996,-123.0775,-15.7325,125.44
1168,290658,0.214964,1.452288,-2.60836,-67.585,-161.49,100.3275
1169,290757,-0.265228,1.2275639999999999,-1.8636720000000002,-25.48,-229.4425,64.33
1170,290855,-0.35868,1.111908,-1.468636,6.8075,-248.43,25.7425
1171,290953,-0.239364,0.9620920000000001,-1.343708,29.05,-260.225,-13.0025
1172,291051,0.003172,0.772748,-1.33956,42.28,-284.0775,-47.88
1173,291149,0.155428,0.6409881,-1.291248,43.715,-318.6575,-78.645
1174,291247,0.275476,0.534848,-1.222684,39.865,-350.6475,-101.92
1175,291346,0.388936,0.409188,-1.125816,34.6675,-377.8425,-116.97
1176,291444,0.45286400000000004,0.29572800000000005,-1.042368,28.84,-399.525,-124.495
1177,291542,0.48385200000000006,0.16104000000000002,-0.964532,22.155,-410.97,-125.615
1178,291640,0.5665680000000001,0.076616,-0.9506241,13.79,-412.3175,-119.7
1179,291738,0.701256,0.040504000000000005,-1.031144,5.075,-411.1275,-109.6375
1180,291836,0.8769360999999999,0.051484,-1.1716879999999998,-3.8675,-410.795,-100.24
1181,291935,1.0645719999999999,0.044652,-1.3005200000000001,-12.0925,-413.945,-93.7825
1182,292033,1.1951120000000002,0.039284,-1.4069040000000002,-20.02,-420.8575,-89.6875
1183,292131,1.30784,0.06466001,-1.514508,-28.0175,-427.91,-85.76751
1184,292229,1.430572,0.076616,-1.647244,-35.525,-433.1775,-83.265
1185,292327,1.562332,0.04392,-1.80804,-42.35,-436.275,-84.7875
1186,292425,1.771928,0.045627999999999995,-1.9398,-51.7825,-438.7775,-88.51501
1187,292524,1.9459,0.00366,-1.913936,-61.18,-441.0875,-92.8025
1188,292622,2.1164560000000003,-0.288408,-1.836588,-68.9325,-435.89,-98.42
1189,292720,2.410232,-0.480436,-1.8992959999999999,-84.2625,-421.3475,-99.1375
1190,292818,2.7847720000000002,-0.457012,-1.9947,-105.1925,-409.22,-93.0125
1191,292916,2.904332,-0.17543599999999998,-1.8573279999999999,-113.82,-406.1575,-84.5775
1192,293014,3.032676,0.12175599999999999,-1.524512,-95.02501,-399.42,-76.6675
1193,293112,3.098312,0.467016,-0.8193521,-45.255,-378.0,-65.9925
1194,293211,3.2898519999999998,0.49751599999999996,0.165676,22.225,-337.8025,-40.9675
1195,293309,3.540196,-0.206668,1.034804,70.9975,-282.6775,-4.1475
1196,293407,3.843976,-1.0553,1.742648,34.3175,-227.3425,19.88
1197,293505,3.66854,-1.068476,2.275056,-82.2325,-178.5525,10.5875
1198,293603,3.6748839999999996,-0.280844,2.157204,-181.8775,-118.72,-26.4425
1199,293701,3.9920839999999997,0.429928,1.759484,-168.21,-48.265,-52.2025
1200,293800,3.917176,0.447496,1.568676,-58.275,16.345,-53.6375
1201,293898,3.54776,-0.11102000000000001,1.288808,50.61,68.32,-47.6875
1202,293996,3.194204,-0.438224,0.9228081,78.19,108.115,-55.8075
1203,294094,2.8421119999999997,-0.298412,0.356484,39.095,137.4975,-73.045
1204,294192,0.5614439999999999,0.100772,-0.68686,-5.11,152.6,-86.4675
1205,294290,-3.4650440000000002,-0.030987999999999998,-3.023648,6.8425,140.9975,-117.4775
1206,294388,-6.489424,-1.6796959999999999,-2.053504,-65.66,231.4375,-120.715
1207,294487,3.170048,0.691496,-0.648552,-168.3675,421.68,2.5375
1208,294585,5.809883999999999,-1.2341520000000001,-1.3832360000000001,-13.8425,453.5825,88.3575
1209,294683,2.632516,0.05368,-3.8713040000000003,2.275,346.15,39.655
1210,294781,1.648464,1.398852,-0.9010921000000001,38.78,255.92,78.8725
1211,294879,1.3542,2.024468,-1.545496,72.695,243.9675,68.5475
1212,294977,2.5132,0.040260000000000004,-2.230892,151.1125,230.195,40.6525
1213,295076,0.953308,-0.8823040000000001,-1.393972,170.275,106.435,62.335
1214,295174,0.9828321,-0.0034159999999999998,-1.432036,87.395,51.1,41.44
1215,295272,0.734196,0.366,-0.9115840000000001,47.5475,17.6925,26.3375
1216,295370,0.5736441,0.019275999999999998,-0.9433041,42.56,13.0725,19.25
1217,295468,0.5653481,0.156892,-0.9211,28.0,11.165,13.3875
1218,295566,0.49434399999999995,0.293532,-0.9042641,18.5325,10.6575,6.825
1219,295664,0.527772,0.187148,-0.886452,16.0825,11.445,6.0375
1220,295763,0.5172800999999999,0.19959200000000002,-0.879376,12.6175,10.5875,5.6525
1221,295861,0.515572,0.151524,-0.8720559999999999,9.5725,9.6425,4.795
1222,295959,0.487756,0.141764,-0.87108,7.1225,10.115,3.08
1223,296057,0.477264,0.12322000000000001,-0.868396,4.235,10.955,0.91
1224,296155,0.475312,0.177144,-0.870592,1.12,12.3725,-1.4
1225,296253,0.49044,0.205936,-0.865468,-0.3675,13.545,-1.9775
1226,296352,0.48702399999999996,0.19983599999999999,-0.862296,-0.105,12.985,-1.75
1227,296450,0.48726800000000003,0.216428,-0.8664440000000001,0.2275,12.1275,-1.4
1228,296548,0.484096,0.19764,-0.8669319999999999,0.1575,11.8125,-0.1225
1229,296646,0.49434399999999995,0.185684,-0.8608319999999999,-0.5075,12.075,1.4
1230,296744,0.49288000000000004,0.167384,-0.8510719999999999,-1.61,12.53,2.0475
1231,296842,0.49312399999999995,0.1586,-0.8464360000000001,-3.185,13.02,1.3475
1232,296941,0.5011760000000001,0.15054800000000002,-0.8432639999999999,-5.3025,14.0,0.0
1233,297039,0.5009319999999999,0.16958,-0.843508,-7.07,14.8575,-0.4725
1234,297137,0.504836,0.163968,-0.840824,-7.21,15.715,-0.56
1235,297235,0.5119121,0.183,-0.8357,-6.86,15.925,-0.42
1236,297333,0.5233800000000001,0.19861600000000001,-0.8256960999999999,-6.1425,15.7675,0.2975
1237,297431,0.527528,0.187148,-0.830576,-4.97,14.98,1.435
1238,297530,0.52094,0.18251199999999998,-0.8249639999999999,-2.9225,14.035,2.4325
1239,297628,0.533384,0.19983599999999999,-0.815692,-1.1025,12.95,3.6575
1240,297726,0.5343600000000001,0.187636,-0.813984,1.365,11.5675,5.075
1241,297824,0.542656,0.19959200000000002,-0.8108121,3.7975,9.905,6.1425
1242,297922,0.539972,0.20984,-0.8117880000000001,6.2475,7.735,7.735
1243,298020,0.540216,0.209352,-0.811056,8.505,5.9325,9.625
1244,298119,0.528504,0.195444,-0.8054439999999999,10.6575,4.025,11.1475
1245,298217,0.509228,0.174948,-0.8103239999999999,12.1625,3.0625,12.04
1246,298315,0.50142,0.149572,-0.8308200000000001,12.4425,3.7975,11.5325
1247,298413,0.49605200000000005,0.155916,-0.8400921,11.2175,7.2975,10.395
1248,298511,0.48726800000000003,0.160064,-0.8491200000000001,9.1875,14.1575,9.38
1249,298609,0.48068,0.150792,-0.8513161,5.46,24.57,8.12
1250,298707,0.489464,0.165676,-0.8437520000000001,0.9275,37.5725,6.5275
1251,298806,0.478972,0.126392,-0.865468,-3.2375,51.3275,5.11
1252,298904,0.423096,0.138104,-0.8664440000000001,-8.75,67.06,2.8875
1253,299002,0.490196,0.17128800000000002,-0.954528,-14.7,88.2175,0.6125
1254,299100,0.432856,0.17324,-0.925736,-20.265,101.885,1.12
1255,299198,0.41358,0.16104000000000002,-0.981124,-24.0975,122.395,2.8175
1256,299296,0.431148,0.163236,-1.024556,-22.75,144.5325,2.73
1257,299395,0.398696,0.163968,-1.06018,-16.5375,165.515,1.3825
1258,299493,0.324764,0.12248800000000001,-1.015772,-10.1675,189.245,-0.49
1259,299591,0.37332,0.132004,-0.9752681000000001,-12.4425,224.0175,0.63
1260,299689,0.25058800000000003,0.364048,-0.9860040999999999,-17.57,273.7175,13.335
1261,299787,0.214232,0.465552,-0.8910879999999999,-3.78,328.09,39.375
1262,299885,0.08857201,0.384544,-0.863028,16.765,396.5675,72.6425
1263,299983,1.509628,0.619028,-0.87718,35.4375,468.6675,118.5625
1264,300082,1.568432,0.5958479999999999,-1.801452,26.565,556.29,175.525
1265,300180,0.9962521000000001,0.30792800000000004,-2.071072,13.7025,573.405,187.95
1266,300278,2.287256,0.132248,-1.992748,-17.15,573.405,145.32
1267,300376,1.820484,0.035136,-1.6506599999999998,-37.1875,569.4675,95.26999
1268,300474,3.542392,0.6368401,-3.792736,-87.3775,491.4,38.57
1269,300572,3.557032,1.0972680000000001,-3.0878200000000002,-103.985,408.4675,-27.5975
1270,300671,-0.39918400000000004,0.10345599999999999,-3.892532,-171.5,407.015,63.1575
1271,300769,2.626904,0.82594,-3.165168,-151.7075,295.1375,156.0475
1272,300867,1.83854,1.563308,-4.550356,-129.78,143.7975,126.28
1273,300965,0.797392,1.448872,-3.457968,-98.56,-108.3775,93.24
1274,301063,-0.15054800000000002,1.282708,-2.299456,-63.4375,-229.6,53.7075
1275,301161,-0.6170760000000001,1.136308,-1.630652,-31.57,-255.78,22.995
1276,301260,-0.313296,1.1102,-1.482788,-4.97,-250.5825,-13.965
1277,301358,0.07686,1.0321200000000001,-1.49694,24.9375,-261.0475,-44.2925
1278,301456,0.254004,0.822524,-1.447164,55.265,-296.975,-67.0775
1279,301554,0.204716,0.586332,-1.1960879999999998,71.7325,-341.3025,-85.505
1280,301652,0.143716,0.37454,-0.915976,73.22,-369.495,-97.9475
1281,301750,0.198128,0.200568,-0.7788480999999999,61.11,-379.4525,-104.2825
1282,301849,0.390888,0.09418401,-0.833992,40.0575,-380.485,-106.2425
1283,301947,0.5919439999999999,0.040992,-0.9598959999999999,17.0275,-382.7075,-104.09
1284,302045,0.7478600000000001,0.036112,-1.060668,-3.8325,-391.2825,-97.93
1285,302143,0.8142281,0.07002799999999999,-1.106296,-18.0075,-402.6925,-88.37501
1286,302241,0.873764,0.06490399999999999,-1.1326479999999999,-25.9175,-409.2375,-77.77
1287,302339,0.995764,0.002928,-1.1770559999999999,-32.1475,-410.2525,-68.6875
1288,302437,1.1716879999999998,-0.008052001,-1.274168,-43.295,-409.745,-61.9325
1289,302536,1.349564,0.047092,-1.42862,-58.4675,-411.25,-58.3625
1290,302634,1.4844959999999998,0.089304,-1.55062,-71.435,-415.3625,-59.1325
1291,302732,1.554768,0.115168,-1.6460240000000002,-80.395,-419.58,-63.3325
1292,302830,1.6438279999999998,0.160308,-1.7568,-86.5725,-420.665,-67.2875
1293,302928,1.7338639999999998,0.172752,-1.827072,-90.9125,-418.0925,-72.2575
1294,303026,1.91418,0.052703999999999994,-1.860744,-96.075,-410.62,-82.775
1295,303125,2.262124,-0.317932,-1.9032,-103.6175,-397.5475,-98.75251
1296,303223,2.5805439999999997,-0.37332,-1.9022240000000001,-121.2225,-387.4675,-110.3375
1297,303321,2.810392,-0.187148,-1.7824200000000001,-129.1325,-381.3775,-113.47
1298,303419,3.006812,0.115656,-1.524024,-105.84,-370.335,-110.18
1299,303517,3.026088,0.3904,-0.9015799999999999,-48.6325,-348.705,-101.3775
1300,303615,3.182492,0.471164,0.025376,27.65,-313.005,-83.23001
1301,303714,3.457968,-0.15201199999999998,0.951356,89.775,-265.3525,-49.2275
1302,303812,3.8083519999999997,-1.049688,1.753628,76.265,-214.9525,-16.4675
1303,303910,3.843976,-1.359568,2.326784,-30.415,-163.5375,-12.18
1304,304008,3.68318,-0.66246,2.306532,-151.2,-104.2125,-41.8775
1305,304106,3.835436,0.187148,1.8182880000000001,-172.7425,-32.5325,-68.3025
1306,304204,3.8449519999999997,0.45115600000000006,1.4015360000000001,-81.6375,38.4825,-64.5225
1307,304303,3.5999760000000003,-0.023912,1.099952,36.89,93.835,-46.8825
1308,304401,3.291072,-0.44408000000000003,0.784216,83.65001,129.9725,-43.8725
1309,304499,2.54736,-0.317932,0.313784,53.515,156.6775,-56.6475
1310,304597,-0.9179280000000001,0.25498000000000004,-1.5640399999999999,24.71,160.0025,-71.78501
1311,304695,-3.813964,0.714432,-2.8965240000000003,-6.8075,234.2375,-96.93251
1312,304793,-1.009672,0.49751599999999996,-1.42618,-78.3825,299.845,-13.965
1313,304892,5.163284,-1.178032,-0.180072,-5.04,407.365,59.85
1314,304990,3.2412959999999997,-0.6219561,-3.1356439999999997,19.4075,363.7725,38.15
1315,305088,1.8934400000000002,-0.038064,-2.073268,22.3475,281.82,54.8275
1316,305186,0.862784,1.397144,-0.8113001,21.6475,220.9375,72.45
1317,305284,1.7575319999999999,1.380552,-1.7284959999999998,38.465,227.99,37.5025
1318,305382,1.9949439999999998,0.249612,-1.730448,111.9125,192.3775,48.4925
1319,305481,0.9001161,-0.296216,-1.295396,142.73,117.3025,58.835
1320,305579,0.799588,0.160796,-1.24806,105.4725,78.3125,46.7425
1321,305677,1.110932,-0.227652,-1.48596,84.5425,50.12,36.575
1322,305775,0.41382399999999997,0.28157600000000005,-0.785192,50.12,13.195,27.9825
1323,305873,0.7078439999999999,0.11541199999999999,-1.007476,34.0725,9.8875,17.605
1324,305971,0.494832,0.21472,-0.8759601,26.3375,11.3925,10.535
1325,306070,0.552172,0.155428,-0.89792,18.34,11.655,7.525
1326,306168,0.522648,0.188612,-0.8784,13.72,10.71,5.1975
1327,306266,0.5058121,0.148352,-0.8647360000000001,9.065,10.6575,2.975
1328,306364,0.49580799999999997,0.11541199999999999,-0.869128,6.02,12.0925,0.3325
1329,306462,0.49849209999999994,0.154696,-0.8579041,1.2075,14.0175,-3.2025
1330,306560,0.49873599999999996,0.193492,-0.8625401,-1.6975,15.8025,-4.515
1331,306659,0.5121560000000001,0.20178800000000002,-0.855708,-2.2925,16.4325,-4.2
1332,306757,0.512644,0.216428,-0.8540000000000001,-1.89,15.3825,-3.4125
1333,306855,0.5060560000000001,0.225944,-0.85888,-1.015,14.2275,-2.0825
1334,306953,0.5058121,0.209596,-0.854244,-0.455,14.0875,-0.14
1335,307051,0.51484,0.18470799999999998,-0.8481440999999998,-1.12,14.91,1.47
1336,307149,0.5170359999999999,0.171776,-0.8432639999999999,-2.45,15.9075,2.0825
1337,307248,0.51972,0.164944,-0.8413120000000001,-3.6925,16.7475,2.0125
1338,307346,0.50508,0.145912,-0.8296,-4.865,17.8325,1.3475
1339,307444,0.523624,0.15372,-0.8300879999999999,-6.965,19.18,0.1225
1340,307542,0.5170359999999999,0.16909200000000002,-0.821304,-8.3125,20.0725,-1.19
1341,307640,0.537776,0.18056,-0.814472,-8.3475,20.7025,-1.995
1342,307738,0.535824,0.18470799999999998,-0.8100801,-8.05,20.7375,-2.555
1343,307837,0.5453399999999999,0.194712,-0.807884,-7.07,20.055,-2.6775
1344,307935,0.562176,0.186416,-0.799588,-5.3025,18.27,-2.45
1345,308033,0.562176,0.193736,-0.7978801,-3.15,15.6275,-2.17
1346,308131,0.559736,0.205204,-0.793488,-1.015,13.265,-1.4525
1347,308229,0.5607121,0.200568,-0.7883640000000001,0.875,11.7425,-0.2625
1348,308327,0.5594920999999999,0.203496,-0.796904,1.61,11.585,0.0875
1349,308425,0.54168,0.208864,-0.8054439999999999,1.5225,12.81,0.8400001
1350,308524,0.546804,0.21472,-0.8044680999999999,2.6075,15.6975,2.52
1351,308622,0.577304,0.221308,-0.797148,3.9725,17.745,4.3575
1352,308720,0.539484,0.190076,-0.807884,5.74,18.69,5.635
1353,308818,0.51972,0.19959200000000002,-0.813984,5.04,21.91,6.055
1354,308916,0.530456,0.220088,-0.829356,3.4825,30.17,7.175
1355,309014,0.51118,0.193736,-0.83204,2.205,39.4975,9.0125
1356,309113,0.5158159999999999,0.160796,-0.8274040000000001,-0.1575,50.6625,9.73
1357,309211,0.5002,0.15762400000000001,-0.845216,-3.9375,62.6325,8.3825
1358,309309,0.492148,0.15396400000000002,-0.8640040000000001,-8.155,76.8775,6.8075
1359,309407,0.5231359999999999,0.164944,-0.9272,-13.0375,94.02750999999999,6.1425
1360,309505,0.461404,0.194224,-0.9379360000000001,-16.4325,108.3075,6.5275
1361,309603,0.449692,0.160064,-0.9577,-15.7325,126.5775,7.21
1362,309702,0.36087600000000003,0.139812,-0.9745360000000001,-15.4525,145.4775,5.11
1363,309800,0.437492,0.119804,-0.9147559999999999,-18.06,168.6825,0.3675
1364,309898,0.39113200000000004,0.174216,-0.944768,-23.7475,203.245,3.2025
1365,309996,0.199104,0.26961999999999997,-0.9084121,-20.195,245.3675,12.145
1366,310094,0.259372,0.188612,-0.9189040999999999,-10.0625,299.81,22.9775
1367,310192,2.3431319999999998,0.394304,-1.02968,-0.315,364.07,43.3825
1368,310291,0.815692,0.40821199999999996,-0.9708760000000001,-1.155,455.805,103.6
1369,310389,1.587464,0.626104,-1.7641200000000001,-26.8275,560.63,140.105
1370,310487,0.8757159999999999,0.196908,-1.520364,-11.0425,573.405,146.1775
1371,310585,2.465864,0.071004,-2.606652,-59.255,573.3875,106.1025
1372,310683,1.980548,0.07856801,-1.4818120000000001,-109.27,564.48,54.1275
1373,310781,2.775012,0.640012,-2.624464,-126.1925,486.395,40.67
1374,310880,3.4157559999999996,0.843508,-3.384036,-119.8925,380.6775,-17.9375
1375,310978,1.874164,0.018788,-2.60226,-96.2675,369.565,14.805
1376,311076,1.94712,-0.543632,-3.296196,-153.65,406.945,167.1075
1377,311174,2.2143,0.577548,-4.298304,-166.5475,263.865,212.52
1378,311272,1.857084,0.9335440999999999,-3.8051800000000005,-218.855,92.3125,202.02
1379,311370,1.205848,1.263188,-3.022916,-221.655,-94.115,183.8375
1380,311469,0.136152,1.493768,-2.066924,-208.285,-218.9075,146.3175
1381,311567,-0.23692399999999997,1.60552,-1.530856,-169.4,-275.9925,90.9825
1382,311665,-0.40821199999999996,1.629432,-1.203164,-109.7425,-296.3975,39.5675
1383,311763,-0.327448,1.59332,-1.086532,-42.0175,-302.3125,-8.0325
1384,311861,-0.034404000000000004,1.4435040000000001,-1.063596,27.8425,-309.19,-49.665
1385,311959,0.27694,1.1065399999999999,-1.0889719999999998,86.17,-326.4975,-82.14499
1386,312057,0.432612,0.744444,-1.0438319999999999,113.575,-352.9925,-110.2675
1387,312156,0.5368,0.45506,-0.9716081,110.565,-379.925,-135.4325
1388,312254,0.647332,0.239852,-0.921832,86.0125,-402.9725,-151.7425
1389,312352,0.692472,0.16592,-0.877668,53.6025,-421.4525,-156.4675
1390,312450,0.7288279999999999,0.203008,-0.892064,24.675,-431.305,-150.22
1391,312548,0.8483879999999999,0.268156,-0.965996,7.9975,-432.145,-136.6225
1392,312646,1.026508,0.283528,-1.045784,2.7475,-429.5725,-121.24
1393,312745,1.14924,0.228872,-1.09922,1.05,-427.4725,-107.5725
1394,312843,1.2519639999999999,0.160308,-1.204628,-7.2975,-424.5675,-94.88501
1395,312941,1.4844959999999998,0.101992,-1.33346,-26.775,-421.9075,-84.42
1396,313039,1.6479759999999999,0.111752,-1.455216,-54.32,-421.68,-79.66001
1397,313137,1.7507,0.193736,-1.569652,-82.6,-422.03,-78.4
1398,313235,1.849276,0.293044,-1.664812,-102.935,-419.055,-78.26
1399,313333,2.0459400000000003,0.416996,-1.825852,-114.2925,-410.83,-78.9775
1400,313432,2.393152,0.56242,-1.9666400000000002,-117.0925,-402.955,-82.74
1401,313530,2.695224,0.355752,-1.827316,-111.4225,-401.38,-94.1325
1402,313628,2.893596,0.041236,-1.575752,-109.2875,-400.6625,-112.2275
1403,313726,2.9077479999999998,-0.0732,-1.238544,-119.0175,-394.7825,-119.245
1404,313824,2.907504,-0.00122,-0.9254921,-125.6675,-376.0225,-122.815
1405,313922,2.957768,0.271328,-0.486048,-111.37,-342.51,-130.2
1406,314021,3.125884,0.42773199999999995,0.063684,-64.785,-298.0425,-131.5125
1407,314119,3.75394,0.11541199999999999,0.679784,-3.535,-249.1475,-114.3975
1408,314217,4.04796,-0.5814520000000001,1.454972,22.785,-213.8325,-86.13501
1409,314315,3.8366559999999996,-1.0431,2.3780240000000004,-15.6275,-176.3475,-74.34
1410,314413,3.7048959999999997,-0.782752,2.616412,-91.2275,-113.33,-84.21
1411,314511,3.965732,-0.25058800000000003,2.142808,-128.485,-32.41,-96.84501
1412,314609,4.050888,-0.019032,1.575508,-96.0575,33.9325,-93.765
1413,314708,3.7044080000000004,-0.16835999999999998,1.242936,-32.2875,79.6425,-78.2075
1414,314806,3.28546,-0.326716,0.863516,9.3975,119.9625,-66.4825
1415,314904,2.9028680000000002,-0.204228,0.31232,10.5,157.71,-63.4375
1416,315002,-1.28954,1.0345600000000001,-2.347524,8.295,169.8725,-70.1225
1417,315100,-3.536292,1.029924,-3.021208,133.0875,189.105,-143.815
1418,315198,-6.017284,-1.305156,-3.060736,90.965,267.5925,-94.395
1419,315296,4.504728,-2.41926,-0.308904,51.87,457.0475,40.5475
1420,315395,5.64738,-2.1996599999999997,-1.9534639999999999,115.08,442.715,67.235
1421,315493,2.3201959999999997,-0.459208,-3.151992,72.0825,315.49,60.6725
1422,315591,0.9269561,1.7043400000000002,-0.548268,94.185,248.2375,101.325
1423,315689,2.031544,2.208444,-2.7603720000000003,105.1925,270.5325,55.7025
1424,315787,2.518812,-1.257332,-2.186484,213.64,212.6775,56.28
1425,315885,1.109224,-1.437648,-1.2688,132.055,53.375,55.02
1426,315984,0.570716,0.586332,-1.074088,33.0925,22.0325,25.0425
1427,316082,0.7415161,0.229604,-0.9010921000000001,27.72,23.6075,11.6725
1428,316180,0.605608,0.050752,-0.8903561,31.2725,13.8775,14.385
1429,316278,0.5429,0.138348,-0.9067040000000001,19.8975,13.755,6.6325
1430,316376,0.5753520000000001,0.248148,-0.883524,10.7625,13.65,1.12
1431,316474,0.5636399999999999,0.12029200000000001,-0.8591241,10.395,13.5275,0.8925
1432,316573,0.514596,0.194224,-0.8718120999999999,6.4225,11.69,0.2975
1433,316671,0.541192,0.102968,-0.8547319999999999,5.4425,11.8125,0.245
1434,316769,0.50142,0.136884,-0.8662001,2.0475,11.515,-1.3475
1435,316867,0.50264,0.119072,-0.861808,0.105,12.6175,-2.4675
1436,316965,0.5009319999999999,0.146644,-0.8601,-2.1,14.105,-4.0075
1437,317063,0.52094,0.180072,-0.853512,-3.2375,15.295,-4.445
1438,317161,0.49288000000000004,0.181292,-0.8640040000000001,-3.0625,15.2075,-3.78
1439,317260,0.50508,0.172996,-0.860344,-3.0975,17.15,-2.5025
1440,317358,0.517524,0.154452,-0.8483879999999999,-4.41,20.1425,-1.505
1441,317456,0.508252,0.140544,-0.841556,-6.3175,21.875,-0.8400001
1442,317554,0.504104,0.12932000000000002,-0.8383841000000001,-8.575,24.7975,-0.7
1443,317652,0.534848,0.12980799999999998,-0.8369200000000001,-10.325,27.79,-1.4175
1444,317750,0.528504,0.12175599999999999,-0.833016,-11.3575,28.945,-2.8
1445,317849,0.5165481,0.139324,-0.831308,-12.74,30.1875,-3.4475
1446,317947,0.531188,0.17446,-0.8315520000000001,-13.51,32.1475,-2.59
1447,318045,0.553636,0.1708,-0.8195960999999999,-12.25,33.3375,-0.665
1448,318143,0.572912,0.14884,-0.7998321,-10.2375,32.795,0.6475
1449,318241,0.5743761,0.153232,-0.787632,-8.7675,30.24,0.0175
1450,318339,0.583648,0.135908,-0.787388,-7.1225,26.81,-1.3475
1451,318437,0.581208,0.15494000000000002,-0.79056,-5.95,24.29,-2.415
1452,318536,0.5795,0.176656,-0.7903161,-4.3925,23.3275,-2.38
1453,318634,0.5897479999999999,0.20618000000000003,-0.7881199999999999,-2.6075,23.415,-0.8575
1454,318732,0.611952,0.250832,-0.7808001,-0.0875,23.6075,2.24
1455,318830,0.5636399999999999,0.189344,-0.787388,3.36,22.9425,5.6
1456,318928,0.5575399999999999,0.178852,-0.781776,4.025,22.68,7.77
1457,319026,0.5838920999999999,0.1708,-0.791536,4.375,25.5325,8.4525
1458,319125,0.547048,0.167872,-0.8066641,4.13,28.5775,8.9775
1459,319223,0.534848,0.15054800000000002,-0.8188641,3.045,34.755,9.415
1460,319321,0.5441199999999999,0.154696,-0.830576,0.9275,44.345,9.2925
1461,319419,0.543388,0.139324,-0.8569280999999999,-1.2775,54.4425,9.415
1462,319517,0.509716,0.150304,-0.868884,-3.7975,63.735,9.5025
1463,319615,0.49117200000000005,0.154452,-0.8949921000000001,-4.8825,76.2125,8.1375
1464,319713,0.495076,0.142252,-0.9142680000000001,-6.23,91.805,6.9825
1465,319812,0.441884,0.116388,-0.9818561,-8.5925,110.8975,6.9125
1466,319910,0.44408000000000003,0.10052799999999999,-0.942084,-9.31,131.145,4.9875
1467,320008,0.429684,0.088328,-0.89792,-9.905,156.3275,2.8875
1468,320106,0.4087,0.111508,-0.8869401,-11.235,188.3175,5.04
1469,320204,0.36136399999999996,0.133956,-0.883524,-8.365,229.075,11.6025
1470,320302,0.370392,0.239852,-0.907192,-2.8175,280.7175,21.14
1471,320401,0.616344,0.261812,-0.883768,3.57,338.5375,37.2925
1472,320499,1.0443200000000001,0.438468,-0.8049561,5.32,402.185,75.46
1473,320597,1.315892,0.583648,-1.566236,-19.7225,526.5225,126.2625
1474,320695,0.9408639999999999,0.23911999999999997,-1.612108,-4.13,572.8625,145.5125
1475,320793,1.377868,0.04392,-2.2018560000000003,-36.3825,573.3875,117.25
1476,320891,2.3973,0.132004,-1.772416,-76.65,573.02,65.17
1477,320990,1.532564,0.07490801,-1.5464719999999998,-75.7225,547.3475,54.1275
1478,321088,3.317668,0.563396,-2.506856,-128.3975,452.9525,-7.84
1479,321186,3.9349879999999997,0.6229319999999999,-3.078304,-172.1125,324.9575,-55.0025
1480,321284,-0.194224,-0.007808001,-4.2029,-204.9425,341.3025,32.5675
1481,321382,2.4221880000000002,0.9240280000000001,-3.596072,-202.9825,245.1575,104.6675
1482,321480,1.85074,1.3224799999999999,-4.114084,-156.0125,85.83751,115.7975
1483,321578,0.653188,1.250256,-3.014376,-91.84000999999999,-134.855,120.54
1484,321677,-0.112972,1.004304,-2.068876,-42.4025,-231.28,103.32
1485,321775,-0.385276,0.9796600000000001,-1.488888,-10.36,-257.565,81.5675
1486,321873,-0.17202,0.9845401,-1.284904,13.58,-259.8225,50.015
1487,321971,0.098088,0.8908440999999999,-1.2463520000000001,34.4225,-271.6875,20.23
1488,322069,0.32818,0.743224,-1.266604,46.515,-300.5275,-7.91
1489,322167,0.373076,0.61366,-1.119472,47.4075,-337.96,-36.1725
1490,322266,0.344528,0.514352,-0.9347639999999999,42.42,-367.36,-59.605
1491,322364,0.323056,0.40504,-0.7571321,36.47,-382.97,-74.5325
1492,322462,0.360632,0.274988,-0.7005239999999999,29.505,-385.8225,-81.32251
1493,322560,0.445788,0.14762,-0.721996,19.355,-381.4825,-82.0925
1494,322658,0.5743761,0.08052000000000001,-0.8239880999999999,3.99,-377.0375,-79.24
1495,322756,0.7278521,0.06661201,-0.9459880999999999,-13.79,-376.1625,-75.3375
1496,322854,0.8910879999999999,0.050263999999999996,-1.050176,-29.2425,-378.63,-71.82
1497,322953,1.017724,0.023424,-1.1089799999999999,-40.775,-383.355,-67.9
1498,323051,1.109712,0.020496,-1.166808,-50.0675,-388.2725,-61.6175
1499,323149,1.1773,0.028548,-1.262456,-57.8725,-391.7375,-55.2825
1500,323247,1.26636,0.028548,-1.39568,-65.38,-393.365,-53.4625
1501,323345,1.361032,0.029524,-1.517924,-72.6775,-394.59,-57.54
1502,323443,1.441308,0.036356,-1.5859999999999999,-78.3125,-394.73,-64.085
1503,323542,1.572336,0.008296000999999999,-1.6438279999999998,-81.2175,-390.39,-71.0325
1504,323640,1.856108,-0.071492,-1.739232,-83.6325,-381.43,-80.185
1505,323738,2.267248,-0.305732,-1.902468,-84.245,-373.3975,-91.3325
1506,323836,2.591524,-0.335988,-1.915888,-86.25751,-373.59,-96.0925
1507,323934,2.6388599999999998,-0.15128,-1.7165400000000002,-83.16001,-379.645,-92.365
1508,324032,2.678144,0.16958,-1.386896,-62.86,-375.375,-87.85
1509,324130,2.768912,0.61122,-0.9286639999999999,-23.7825,-355.0225,-87.5875
1510,324229,2.7896520000000002,0.781776,-0.246196,28.56,-321.2125,-88.70749
1511,324327,3.195668,0.355996,0.513864,71.85501,-276.9025,-83.16001
1512,324425,3.576064,-0.44115200000000004,1.216828,56.3325,-236.3725,-68.5125
1513,324523,3.5206760000000004,-1.011136,2.009096,-32.3225,-196.28,-62.8425
1514,324621,3.338164,-0.845216,2.218692,-153.2475,-146.02,-84.315
1515,324719,3.5338519999999995,-0.294996,1.893684,-213.01,-81.74251,-111.44
1516,324817,3.8107919999999997,0.24766,1.526952,-167.5625,-18.165,-112.49
1517,324916,3.5404400000000003,0.07978801,1.398364,-51.8175,37.2575,-75.6875
1518,325014,3.22324,-0.42700000000000005,1.048956,39.3575,82.635,-33.9675
1519,325112,0.9025559999999999,-0.534604,-0.197152,50.4875,109.9,-20.86
1520,325210,-1.346392,-0.20374,0.160552,43.2075,180.1975,-49.91
1521,325308,-4.035516,-0.079056,-3.4911519999999996,-33.2675,272.545,-43.085
1522,325406,3.750768,0.121024,-1.497428,-47.915,419.825,15.19
1523,325505,3.2469080000000003,-1.316868,-0.677588,60.48,383.3025,64.96
1524,325603,2.706692,-0.7241920000000001,-3.384768,42.42,359.905,46.8125
1525,325701,2.353624,0.355752,-1.4337440000000001,59.08,298.7425,82.53
1526,325799,1.232444,1.939312,-1.579412,79.1525,258.9475,95.69
1527,325897,2.205028,1.12362,-2.038864,153.265,241.5525,73.7275
1528,325995,1.447408,-1.470344,-1.946632,194.0925,142.0825,65.2575
1529,326093,1.142164,-0.24644000000000002,-1.063108,98.2975,53.165,51.0475
1530,326192,0.891576,0.32452,-1.013088,38.29,18.935,28.875
1531,326290,0.668316,0.131272,-0.9247601000000001,35.8575,7.4025,17.22
1532,326388,0.6158561,0.027083999999999997,-0.8910879999999999,24.885,7.0,16.5025
1533,326486,0.543876,0.12248800000000001,-0.892552,18.9875,3.535,7.315
1534,326584,0.5441199999999999,0.16226,-0.882548,11.585,4.0775,2.4675
1535,326682,0.540948,0.12712400000000001,-0.8586360000000001,9.66,4.795,0.665
1536,326780,0.5072760000000001,0.146644,-0.8698601,6.93,5.4425,-0.1575
1537,326879,0.510692,0.10638399999999999,-0.856684,5.495,5.915,0.035
1538,326977,0.49849209999999994,0.094672,-0.8625401,3.29,7.525,-1.365
1539,327075,0.496296,0.09418401,-0.8615640999999999,0.7,9.7125,-3.36
1540,327173,0.50508,0.1342,-0.8610761,-1.715,11.7075,-4.6025
1541,327271,0.511668,0.165188,-0.854244,-2.6775,12.5825,-4.235
1542,327369,0.5158159999999999,0.17812,-0.8571719999999999,-2.1,12.6,-2.66
1543,327467,0.51118,0.16201600000000002,-0.8579041,-1.015,12.3025,-0.49
1544,327566,0.5321640000000001,0.140544,-0.847412,-0.5775,12.4425,1.4175
1545,327664,0.525332,0.134444,-0.8461921,-0.735,11.9175,2.17
1546,327762,0.528504,0.118096,-0.8388721,-1.2425,11.9525,2.2575
1547,327860,0.512888,0.11102000000000001,-0.83936,-2.275,12.5125,1.9425
1548,327958,0.502152,0.12688,-0.8403360000000001,-3.605,14.21,1.6625
1549,328056,0.5463161,0.125904,-0.8310639999999999,-4.0075,16.975,1.9425
1550,328155,0.529968,0.121268,-0.82594,-4.1475,17.4125,2.45
1551,328253,0.546072,0.11760799999999999,-0.820084,-3.955,17.8675,2.5025
1552,328351,0.547536,0.13176,-0.8203280000000001,-3.4825,17.64,2.485
1553,328449,0.554124,0.132248,-0.8132520999999999,-2.38,16.9225,3.08
1554,328547,0.553636,0.126392,-0.812032,-1.1025,15.925,4.06
1555,328645,0.553636,0.127368,-0.8127641,0.175,14.8925,4.655
1556,328743,0.556808,0.11834000000000001,-0.8047121,1.3475,14.0875,4.8475
1557,328842,0.556076,0.10736,-0.807396,1.995,13.6675,4.795
1558,328940,0.5546121,0.10614000000000001,-0.806908,2.5025,13.44,4.375
1559,329038,0.555588,0.10809200000000001,-0.805688,2.975,13.65,3.6225
1560,329136,0.558028,0.112972,-0.805688,3.045,14.1225,2.52
1561,329234,0.544852,0.11345999999999999,-0.806908,2.5725,15.645,1.3125
1562,329332,0.543876,0.116632,-0.8149601,1.8025,18.8125,0.42
1563,329431,0.537044,0.10345599999999999,-0.823744,0.6825,23.1175,-0.14
1564,329529,0.543144,0.098332,-0.83936,-1.68,27.93,-0.98
1565,329627,0.568032,0.11736400000000001,-0.8352120000000001,-5.1975,33.2675,-2.0125
1566,329725,0.45286400000000004,0.086132,-0.8664440000000001,-8.9775,41.3525,-3.1675
1567,329823,0.48165600000000003,0.07588400000000001,-0.860344,-14.4725,54.32,-5.9325
1568,329921,0.492392,0.09320801,-0.882548,-20.6325,70.595,-8.96
1569,330019,0.482388,0.10223600000000001,-0.9154880999999999,-26.5125,87.7625,-11.9175
1570,330118,0.47067600000000004,0.120048,-0.9352520000000001,-31.0975,106.33,-14.9625
1571,330216,0.438956,0.119804,-0.9833200000000001,-33.5475,126.035,-17.6925
1572,330314,0.41723999999999994,0.143228,-0.964776,-35.525,147.245,-19.285
1573,330412,0.36966,0.13542,-1.0279719999999999,-35.595,170.205,-19.7225
1574,330510,0.282552,0.086132,-0.9311040999999999,-37.94,200.445,-18.5325
1575,330608,0.277672,0.21008400000000002,-0.9362280000000001,-40.6175,254.3975,-11.9
1576,330706,0.149328,0.41504399999999997,-1.239276,-38.4125,324.6075,2.94
1577,330805,2.113772,0.20691199999999998,-1.143384,-20.5275,399.525,31.4475
1578,330903,0.7600600000000001,0.338428,-1.242692,-34.8075,499.2225,87.7625
1579,331001,1.3607879999999999,0.085888,-1.896856,-47.565,572.005,116.7075
1580,331099,0.9001161,-0.26961999999999997,-2.128168,-52.1675,573.405,79.695
1581,331197,2.578104,0.48092399999999996,-1.8417119999999998,-76.51,572.3025,15.3475
1582,331295,1.2961280000000002,0.114436,-1.7036080000000002,-32.0425,530.495,7.1575
1583,331394,3.022184,0.5221600000000001,-2.453908,-32.095,424.6725,-52.535
1584,331492,2.878956,0.635376,-2.6522799999999997,-55.475,341.0225,-89.215
1585,331590,0.07490801,-0.03538,-3.184688,-112.6475,379.4,-5.6
1586,331688,2.73524,0.571936,-3.405996,-116.4625,313.7925,75.6
1587,331786,1.958832,0.6497721,-4.53474,-44.45,121.66,133.9275
1588,331884,1.0077200000000002,0.6197600000000001,-3.088552,-40.4075,-148.47,142.3975
1589,331982,-0.132736,0.597068,-1.7753439999999998,-18.0775,-266.49,176.3125
1590,332081,-0.374784,0.8439959999999999,-1.200236,-18.375,-299.845,203.0875
1591,332179,-0.07710399999999999,1.119716,-1.05774,-10.0975,-295.4,211.785
1592,332277,0.246196,1.547936,-1.194136,0.4375,-309.015,204.2775
1593,332375,0.5248441,1.9490720000000001,-1.309304,22.925,-343.2975,173.915
1594,332473,0.510692,2.03618,-1.11752,66.5175,-384.65,118.1075
1595,332571,0.41113999999999995,1.9722520000000001,-0.8857200999999999,115.7625,-417.0775,46.515
1596,332670,0.33379200000000003,1.743136,-0.5404601,154.2625,-432.8625,-23.87
1597,332768,0.19178399999999998,1.359324,-0.193004,180.6525,-422.6425,-78.6625
1598,332866,0.10345599999999999,0.9174399999999999,-0.03904,179.34,-389.235,-112.9975
1599,332964,0.448716,0.677588,-0.341844,142.31,-345.835,-127.5575
1600,333062,1.036756,0.71492,-0.819108,85.8025,-320.18,-125.65
1601,333160,1.45668,0.9823440999999999,-1.236104,31.99,-327.3025,-119.49
1602,333259,1.561356,1.3083280000000002,-1.380796,4.27,-356.055,-115.78
1603,333357,1.5020639999999998,1.485716,-1.292468,6.3875,-385.315,-111.475
1604,333455,1.579412,1.487668,-1.193648,21.0525,-400.61,-106.26
1605,333553,1.794132,1.486692,-1.1958440000000001,27.9125,-405.3875,-105.9625
1606,333651,2.037888,1.559648,-1.220976,21.21,-408.0475,-115.9725
1607,333749,2.1838,1.70068,-1.1770559999999999,8.855,-409.2025,-139.1775
1608,333847,2.370948,1.8512279999999999,-1.104588,-1.155,-403.9,-173.7575
1609,333946,2.5049040000000002,1.851472,-1.019188,-3.15,-391.3875,-213.8325
1610,334044,2.626904,1.8195080000000001,-0.965752,-1.75,-371.8225,-255.0625
1611,334142,2.7547599999999997,1.7829080000000002,-0.9962521000000001,0.2975,-347.0425,-292.495
1612,334240,3.00852,1.5464719999999998,-1.117032,4.27,-319.4975,-323.855
1613,334338,2.514176,1.057008,-0.667096,8.33,-296.2925,-347.865
1614,334436,2.7337759999999998,0.8195960999999999,-0.454816,-0.1225,-271.0225,-366.2225
1615,334535,3.3781800000000004,0.9677040000000001,-0.101992,1.9425,-233.835,-362.0575
1616,334633,3.5741120000000004,0.45725600000000005,0.6373281,25.7425,-210.9275,-296.205
1617,334731,3.435032,-0.135908,1.36152,12.3375,-181.79,-226.8525
1618,334829,3.3069319999999998,-0.344528,1.87758,-51.695,-146.195,-182.42
1619,334927,3.060736,0.034892,1.9544400000000002,-124.74,-95.165,-163.345
1620,335025,3.00486,0.625616,1.71166,-146.265,-26.7575,-166.0225
1621,335124,2.9331240000000003,0.9769760000000001,1.327848,-95.235,41.685,-176.5575
1622,335222,2.685708,0.7788480999999999,0.9337880999999999,-5.74,98.595,-186.69
1623,335320,2.5110040000000002,0.262788,0.513864,60.9525,139.6325,-200.9175
1624,335418,0.7373681,0.23448400000000003,-0.37942,71.75,161.9275,-218.5225
1625,335516,0.308904,-0.5575399999999999,-0.166652,81.11251,212.24,-275.9225
1626,335614,0.115656,-2.465132,-1.258308,40.95,322.28,-309.9075
1627,335712,2.267736,-2.991196,-1.8519599999999998,-29.0675,391.5625,-280.91
1628,335811,3.171268,-3.0927,-2.16184,-47.705,395.325,-129.85
1629,335909,3.4467440000000003,-1.548668,-2.910676,-47.985,337.6625,10.395
1630,336007,1.7324,0.763476,-1.920036,-71.47,237.3,73.09751
1631,336105,0.989664,2.19112,-1.267824,-56.1925,179.2175,87.64
1632,336203,2.970212,2.3467919999999998,-1.8173119999999998,39.9525,169.5225,60.9
1633,336301,0.9796600000000001,-0.603168,-1.295396,123.655,59.885,36.155
1634,336399,0.60512,0.09028,-1.09556,75.1625,17.0275,42.525
1635,336498,0.8357,0.401624,-0.973316,42.1225,9.0825,37.905
1636,336596,0.42333999999999994,0.205204,-0.90402,42.98,-1.0325,25.6725
1637,336694,0.6117081,0.217404,-0.8910879999999999,31.9725,-5.215,28.2975
1638,336792,0.484828,0.211304,-0.8757159999999999,25.34,-5.0575,20.755
1639,336890,0.5072760000000001,0.23521599999999998,-0.8805960999999999,18.2175,-2.135,16.2925
1640,336988,0.503616,0.216916,-0.8703481,18.4975,-2.065,14.595
1641,337087,0.5382640000000001,0.223992,-0.87108,17.01,-1.61,14.49
1642,337185,0.487512,0.11834000000000001,-0.8698601,18.76,-3.71,14.63
1643,337283,0.46433199999999997,0.163968,-0.8818159999999999,15.4525,-3.01,11.865
1644,337381,0.46457600000000004,0.1525,-0.8801081000000001,12.6,0.455,9.8875
1645,337479,0.483364,0.130052,-0.8730319999999999,12.0575,2.7125,9.73
1646,337577,0.479216,0.104432,-0.869616,10.99,3.2725,9.1175
1647,337675,0.486048,0.10906800000000001,-0.8698601,9.5025,2.9575,7.665
1648,337774,0.482388,0.125416,-0.8754719999999999,8.2075,3.045,6.0025
1649,337872,0.47384799999999994,0.125172,-0.8730319999999999,8.1025,3.185,5.2675
1650,337970,0.48678,0.096868,-0.873276,7.8575,2.8175,5.1625
1651,338068,0.479216,0.10345599999999999,-0.873764,7.1925,2.87,4.34
1652,338166,0.47384799999999994,0.115656,-0.8757159999999999,6.2825,3.5,3.15
1653,338264,0.4743361,0.111752,-0.8730319999999999,5.9325,4.2175,2.765
1654,338362,0.476288,0.091744,-0.8657120999999999,6.1775,5.075,2.45
1655,338461,0.48824399999999996,0.1159,-0.862784,5.5825,5.9325,1.4875
1656,338559,0.490684,0.11321600000000001,-0.8549761,5.565,6.1075,1.015
1657,338657,0.48214399999999996,0.09418401,-0.8554641,6.0725,5.32,0.6825
1658,338755,0.48214399999999996,0.098088,-0.8569280999999999,6.0025,4.6025,-0.3325
1659,338853,0.48824399999999996,0.107848,-0.854244,6.0025,4.6725,-1.1375
1660,338951,0.48702399999999996,0.112972,-0.858392,6.0375,5.2325,-1.365
1661,339050,0.498004,0.11541199999999999,-0.846924,6.72,5.4775,-1.365
1662,339148,0.49288000000000004,0.127368,-0.8476561,7.0875,5.8625,-0.8925
1663,339246,0.486292,0.112972,-0.8540000000000001,7.3325,5.81,0.4375
1664,339344,0.47823999999999994,0.09223200000000001,-0.8657120999999999,7.2625,6.405,1.05
1665,339442,0.462868,0.082472,-0.8730319999999999,6.4925,9.1,0.28
1666,339540,0.477996,0.060267999999999995,-0.8693719999999999,5.7225,13.3875,-1.295
1667,339638,0.4636,0.067344,-0.868396,3.5525,17.7275,-2.6425
1668,339737,0.46921199999999996,0.068564,-0.8769360999999999,2.065,22.9425,-3.9725
1669,339835,0.46433199999999997,0.071248,-0.880352,0.9275,29.12,-5.565
1670,339933,0.452376,0.06588,-0.887916,-0.1925,36.5225,-7.2975
1671,340031,0.444324,0.06490399999999999,-0.89426,-1.085,45.815,-9.2575
1672,340129,0.43651599999999996,0.08906,-0.916952,-2.1875,57.96,-11.6725
1673,340227,0.435784,0.091988,-0.921344,-3.57,74.48,-14.2975
1674,340325,0.423828,0.118584,-0.9730721,-5.635,94.4125,-15.925
1675,340424,0.432856,0.155184,-1.06994,-7.1225,116.1125,-16.8
1676,340522,0.396256,0.248392,-1.131672,-6.825,142.8,-17.1325
1677,340620,0.40138,0.329644,-1.1794959999999999,0.665,175.49,-10.115
1678,340718,0.44944799999999996,0.33623200000000003,-1.193892,13.895,204.225,8.365
1679,340816,0.38503200000000004,0.35746,-1.2343959999999998,28.315,234.85,35.3325
1680,340914,0.377712,0.426756,-1.341512,49.9275,276.29,65.5375
1681,341013,0.374784,0.72224,-1.441308,71.96,325.2375,101.185
1682,341111,0.47482399999999997,0.912316,-1.700436,114.5025,378.49,153.1075
