,T,ax,ay,az,gx,gy,gz
0,15784,0.508984,0.23155599999999998,-0.63318,19.88,-20.02,-17.85
1,15938,0.56608,0.25376,-0.753228,100.065,-97.07251,-17.465
2,16036,0.6097560000000001,0.242536,-0.7893399999999999,71.2425,-127.54,43.925
3,16134,0.605608,0.277672,-0.7869,55.475,-102.1825,-10.92
4,16233,0.59048,0.28011199999999997,-0.782508,16.6075,0.28,1.925
5,16331,0.587064,0.23838800000000002,-0.754204,19.39,1.47,3.745
6,16429,0.563396,0.22643200000000002,-0.8042239999999999,20.16,1.8025,3.885
7,16527,0.55632,0.184952,-0.788608,21.945,1.33,3.85
8,16625,0.55266,0.2013,-0.791048,20.545,-0.49,3.185
9,16723,0.5575399999999999,0.20496,-0.792512,17.78,-1.2425,2.5025
10,16821,0.5543680000000001,0.179828,-0.781776,15.6275,-2.66,1.9075
11,16919,0.560956,0.193736,-0.7856801,13.6675,-2.9575,1.12
12,17017,0.5690081,0.22082,-0.789828,12.1625,-3.395,0.4375
13,17115,0.5673,0.190076,-0.7883640000000001,11.7425,-3.57,0.2275
14,17214,0.565836,0.18324400000000002,-0.788608,10.8325,-3.8675,0.035
15,17312,0.5575399999999999,0.181536,-0.78446,9.38,-4.2175,-0.63
16,17410,0.554856,0.170068,-0.774456,7.5075,-4.515,-1.4875
17,17508,0.542168,0.165676,-0.7700640999999999,4.7425,-4.795,-2.52
18,17606,0.552172,0.171776,-0.772748,1.3125,-4.725,-3.71
19,17704,0.5587601,0.17543599999999998,-0.783972,-1.4875,-4.6375,-4.76
20,17802,0.576816,0.197884,-0.7869,-2.94,-4.34,-5.2675
21,17900,0.586332,0.20984,-0.792756,-2.6425,-4.095,-5.3375
22,17998,0.5934081,0.21594000000000002,-0.794708,-1.435,-4.095,-5.04
23,18096,0.582184,0.21276799999999998,-0.794952,-0.0525,-3.99,-4.4975
24,18195,0.5797441,0.20105599999999998,-0.792512,0.98,-4.0075,-4.1125
25,18293,0.58072,0.203252,-0.7903161,1.3825,-4.1475,-3.99
26,18391,0.5736441,0.19885999999999998,-0.79056,1.54,-4.27,-3.9375
27,18489,0.572912,0.200568,-0.7895840999999999,1.5225,-4.27,-3.9375
28,18587,0.571204,0.199104,-0.7903161,1.4875,-4.34,-3.9725
29,18685,0.571936,0.194956,-0.7883640000000001,1.33,-4.2175,-4.0075
30,18783,0.57462,0.19764,-0.791536,1.085,-4.1475,-4.095
31,18881,0.5797441,0.20252,-0.788852,1.2775,-4.0075,-4.06
32,18980,0.577304,0.200812,-0.7861680999999999,1.5225,-4.1475,-4.0775
33,19078,0.5753520000000001,0.19885999999999998,-0.7883640000000001,1.61,-4.27,-3.99
34,19176,0.57462,0.202032,-0.7895840999999999,1.6275,-4.27,-4.025
35,19274,0.571692,0.200568,-0.7890961,1.715,-4.2875,-4.0075
36,19372,0.572912,0.199348,-0.787876,1.82,-4.34,-3.85
37,19470,0.5726680000000001,0.203252,-0.79056,1.8375,-4.3225,-3.78
38,19568,0.5738880000000001,0.19983599999999999,-0.7893399999999999,1.8375,-4.375,-3.64
39,19666,0.5814520000000001,0.202276,-0.794708,2.065,-4.1825,-3.465
40,19765,0.587064,0.2013,-0.790804,2.5725,-3.9025,-3.395
41,19863,0.575596,0.204228,-0.7944641,3.325,-4.1125,-3.2025
42,19961,0.5777920999999999,0.20374,-0.7869,3.9025,-4.515,-3.0625
43,20059,0.579012,0.202032,-0.7881199999999999,4.025,-4.34,-2.8175
44,20157,0.5738880000000001,0.194468,-0.7903161,3.99,-4.3575,-2.7825
45,20255,0.5734,0.193004,-0.7890961,3.815,-4.3575,-2.8525
46,20353,0.579256,0.197884,-0.788608,3.64,-4.165,-3.01
47,20451,0.57096,0.187636,-0.785924,3.5,-4.27,-3.0975
48,20550,0.5673,0.185928,-0.785192,2.8875,-4.27,-3.325
49,20648,0.5751081,0.187148,-0.786656,1.9425,-4.2525,-3.7975
50,20746,0.576328,0.186904,-0.783972,1.435,-4.13,-4.1125
51,20844,0.5694961,0.185196,-0.7890961,0.77,-4.165,-4.445
52,20942,0.570472,0.196664,-0.784704,0.0875,-4.0425,-4.6725
53,21040,0.5738880000000001,0.195688,-0.790072,-0.28,-3.885,-4.76
54,21138,0.5777920999999999,0.200324,-0.7922680000000001,-0.2625,-3.955,-4.7075
55,21236,0.5843801,0.202276,-0.791536,0.3325,-4.0075,-4.6025
56,21335,0.5838920999999999,0.19764,-0.79056,0.875,-3.99,-4.375
57,21433,0.573156,0.194712,-0.7893399999999999,1.155,-4.1125,-4.27
58,21531,0.609268,0.200812,-0.797148,1.2425,-3.7975,-4.2
59,21629,0.587796,0.217648,-0.793976,2.66,-3.22,-3.3775
60,21727,0.5614439999999999,0.150792,-0.780068,3.4475,-3.5175,-3.1675
61,21825,0.550952,0.148596,-0.7664041,0.7175,-3.71,-4.55
62,21923,0.571448,0.18251199999999998,-0.8010520000000001,-2.835,-3.2725,-6.6675
63,22021,0.55388,0.225944,-0.788852,-3.7275,-2.975,-7.105
64,22120,0.5663239999999999,0.201544,-0.776896,-3.675,-2.9575,-6.79
65,22218,0.571448,0.20496,-0.7771399999999999,-4.725,-2.7125,-6.7725
66,22316,0.567788,0.204716,-0.7893399999999999,-5.495,-3.01,-7.0875
67,22414,0.5724239999999999,0.227408,-0.796172,-5.1275,-3.185,-6.7725
68,22512,0.56608,0.21301199999999998,-0.770308,-4.095,-3.64,-6.1425
69,22610,0.5663239999999999,0.209108,-0.8188641,-5.565,-4.55,-6.1075
70,22708,0.567056,0.189588,-0.785192,-5.635,-4.6725,-6.405
71,22806,0.552416,0.191052,-0.78446,-6.615,-6.44,-7.1925
72,22905,0.547292,0.19983599999999999,-0.77836,-9.8875,-8.7675,-8.2075
73,23003,0.553392,0.194468,-0.781532,-12.6175,-10.5875,-9.2225
74,23101,0.5675439999999999,0.21081599999999998,-0.7854361,-14.1225,-11.7775,-9.8875
75,23199,0.5734,0.242536,-0.793976,-13.895,-12.1975,-9.7825
76,23297,0.594384,0.244488,-0.7954399999999999,-12.3025,-11.7425,-8.645
77,23395,0.596336,0.23424,-0.792024,-9.8525,-10.4475,-7.28
78,23493,0.610244,0.229116,-0.8025161,-7.5075,-8.925,-6.4575
79,23591,0.623908,0.23692399999999997,-0.7812880999999999,-3.8325,-1.995,-4.9175
80,23690,0.571936,0.217648,-0.794952,-2.1175,0.105,-4.83
81,23788,0.581208,0.235948,-0.792512,-1.5225,-0.6125,-5.005
82,23886,0.576572,0.231068,-0.7890961,-0.945,-0.5075,-4.69
83,23984,0.5726680000000001,0.22862800000000003,-0.787144,-0.175,-0.07,-4.305
84,24082,0.5675439999999999,0.22277199999999997,-0.7808001,0.0525,-0.5075,-4.165
85,24180,0.565836,0.2257,-0.780068,-0.07,-1.085,-4.2525
86,24278,0.5653481,0.22472399999999998,-0.7793359999999999,-0.1575,-1.61,-4.3925
87,24376,0.549488,0.23155599999999998,-0.781532,-0.3325,-2.415,-4.3925
88,24475,0.5502199999999999,0.243024,-0.782508,-0.49,-3.045,-4.2525
89,24573,0.5604680000000001,0.237656,-0.7793359999999999,-0.3675,-3.395,-3.6225
90,24671,0.574132,0.22667600000000002,-0.780312,-0.21,-3.885,-3.2375
91,24769,0.576328,0.225944,-0.777384,-0.2975,-4.3575,-3.255
92,24867,0.577304,0.23301999999999998,-0.776408,-0.665,-4.97,-3.3075
93,24965,0.601216,0.22716399999999998,-0.7954399999999999,-0.42,-4.515,-3.3075
94,25063,0.6156119999999999,0.22033200000000003,-0.79178,0.5775,-0.8925,-3.3075
95,25161,0.56852,0.23253200000000002,-0.7890961,0.98,-1.3125,-4.095
96,25260,0.5655920999999999,0.24156,-0.7766521,1.4525,-1.82,-3.9025
97,25358,0.5663239999999999,0.229604,-0.776896,1.575,-1.4175,-3.3775
98,25456,0.5655920999999999,0.22204000000000002,-0.774456,1.4,-1.6975,-3.255
99,25554,0.5648601,0.23155599999999998,-0.7707961,1.1725,-2.1875,-3.36
100,25652,0.56242,0.236436,-0.774212,1.1725,-2.9225,-3.115
101,25750,0.562664,0.234972,-0.774212,1.3825,-3.2025,-2.73
102,25848,0.5673,0.24058400000000002,-0.7766521,1.015,-3.7625,-2.59
103,25946,0.5675439999999999,0.23424,-0.785924,0.6125,-4.4975,-2.38
104,26045,0.57218,0.22789600000000002,-0.765672,0.7875,-5.4075,-2.065
105,26143,0.583648,0.220088,-0.777628,0.42,-5.5475,-2.1525
106,26241,0.593164,0.217404,-0.7829961,0.3325,-5.495,-2.5725
107,26339,0.580476,0.24058400000000002,-0.7832399999999999,0.4025,-5.7225,-2.9575
108,26437,0.576816,0.22496799999999997,-0.778116,0.91,-5.9675,-2.8
109,26535,0.5858439999999999,0.208864,-0.77836,1.19,-5.7575,-2.695
110,26633,0.558272,0.219112,-0.7793359999999999,0.6125,-6.23,-3.4825
111,26731,0.552416,0.22643200000000002,-0.7861680999999999,-0.315,-7.2975,-3.955
112,26830,0.572912,0.23911999999999997,-0.780312,-0.6825,-6.965,-3.6225
113,26928,0.5777920999999999,0.22252800000000003,-0.78446,-0.735,-6.335,-3.3425
114,27026,0.58072,0.231312,-0.7832399999999999,-0.7175,-5.95,-3.5
115,27124,0.5897479999999999,0.238144,-0.780312,-0.14,-3.5175,-2.9225
116,27222,0.5958479999999999,0.226188,-0.781044,0.525,-0.2625,-2.4675
117,27320,0.585112,0.22667600000000002,-0.781532,1.085,0.4375,-2.6075
118,27418,0.577548,0.228872,-0.773968,1.0675,-0.4375,-2.9575
119,27516,0.57584,0.233264,-0.7771399999999999,1.12,-1.3825,-3.2375
120,27615,0.5690081,0.236436,-0.774212,1.225,-2.3975,-3.325
121,27713,0.5648601,0.23155599999999998,-0.783728,1.2425,-3.3075,-3.045
122,27811,0.565104,0.243024,-0.7754321,1.435,-4.06,-2.7125
123,27909,0.5743761,0.235704,-0.7766521,1.4875,-4.34,-2.31
124,28007,0.58194,0.230336,-0.776408,1.2775,-5.0575,-2.0825
125,28105,0.58316,0.23082399999999997,-0.775188,1.33,-5.8975,-2.17
126,28203,0.582916,0.21886799999999998,-0.7812880999999999,1.505,-6.72,-2.2575
127,28301,0.590724,0.21813600000000002,-0.779092,1.54,-7.7175,-2.66
128,28399,0.577548,0.22082,-0.772504,1.5925,-8.435,-3.2725
129,28498,0.5694961,0.22472399999999998,-0.7893399999999999,1.365,-9.1175,-3.8675
130,28596,0.572912,0.237656,-0.781532,1.2075,-9.31,-4.095
131,28694,0.5726680000000001,0.22691999999999998,-0.7793359999999999,1.4,-8.8375,-3.675
132,28792,0.5795,0.22204000000000002,-0.779092,1.855,-6.125,-2.975
133,28890,0.582184,0.22082,-0.780068,1.575,-4.4625,-3.0625
134,28988,0.577548,0.23009200000000002,-0.7832399999999999,1.47,-4.2525,-3.535
135,29086,0.553148,0.23228800000000002,-0.775188,1.505,-4.4625,-3.7275
136,29184,0.538508,0.23009200000000002,-0.7869,1.05,-5.04,-3.4475
137,29283,0.549488,0.24766,-0.784704,0.7175,-5.25,-3.08
138,29381,0.562664,0.232776,-0.7881199999999999,0.4375,-4.9525,-2.415
139,29479,0.552172,0.22204000000000002,-0.787876,0.6825,-5.1275,-1.8025
140,29577,0.525332,0.24034,-0.784216,0.8400001,-5.6525,-1.33
141,29675,0.5214281,0.212036,-0.793976,0.2975,-5.9675,-0.56
142,29773,0.5675439999999999,0.22204000000000002,-0.791048,-0.42,-4.8475,0.21
143,29871,0.57706,0.21520799999999998,-0.779092,-2.1525,-1.0325,0.0
144,29969,0.57828,0.22252800000000003,-0.788608,-3.7275,1.89,-0.665
145,30068,0.592432,0.21032800000000001,-0.780312,-4.1125,3.85,-1.1725
146,30166,0.6075600999999999,0.21374400000000002,-0.7707961,-4.55,5.67,-2.03
147,30264,0.6082920999999999,0.22472399999999998,-0.7747001,-4.795,7.0175,-3.045
148,30362,0.6009720000000001,0.239852,-0.7671359999999999,-4.7425,7.035,-3.8325
149,30460,0.606584,0.24156,-0.764452,-4.41,7.2275,-4.2
150,30558,0.605608,0.234972,-0.7622561,-3.605,6.2475,-4.1825
151,30656,0.595604,0.232776,-0.765672,-2.6775,4.445,-3.9725
152,30754,0.5968241,0.22691999999999998,-0.765184,-1.855,2.66,-3.9725
153,30853,0.59902,0.23546,-0.768356,-1.54,1.505,-4.3225
154,30951,0.601704,0.229848,-0.7666480999999999,-1.1725,0.4025,-4.62
155,31049,0.60634,0.23058,-0.768844,-0.91,-0.42,-5.075
156,31147,0.608536,0.235948,-0.7659161,-0.665,-1.6975,-5.565
157,31245,0.604144,0.228384,-0.764696,-0.105,-3.2375,-5.8275
158,31343,0.60268,0.22691999999999998,-0.7622561,0.175,-4.8125,-6.405
159,31441,0.601216,0.24034,-0.7666480999999999,0.35,-6.2125,-7.035
160,31539,0.5997520000000001,0.244732,-0.768844,1.12,-7.3675,-7.0875
161,31638,0.5814520000000001,0.23741199999999998,-0.75274,1.9775,-8.6975,-6.79
162,31736,0.564616,0.265716,-0.768356,2.1,-9.765,-6.475
163,31834,0.57828,0.257664,-0.769088,2.1175,-8.995,-5.25
164,31932,0.5843801,0.231312,-0.773724,1.9425,-7.7,-4.2875
165,32030,0.5887720000000001,0.233264,-0.774456,1.225,-6.9475,-4.3575
166,32128,0.5887720000000001,0.22862800000000003,-0.7686,1.1375,-6.65,-4.445
167,32226,0.5887720000000001,0.22935999999999998,-0.771772,1.12,-6.615,-4.795
168,32324,0.578036,0.24644000000000002,-0.7712840999999999,1.085,-6.405,-5.145
169,32423,0.583648,0.238144,-0.7712840999999999,1.3475,-5.39,-4.9175
170,32521,0.578036,0.229848,-0.766892,1.6625,-3.9025,-4.4975
171,32619,0.5799880000000001,0.2379,-0.7600600000000001,2.135,0.0525,-3.99
172,32717,0.62342,0.22204000000000002,-0.7732359999999999,3.08,4.83,-3.6225
173,32815,0.622688,0.233264,-0.771772,3.2375,2.905,-4.9
174,32913,0.6109760000000001,0.24570799999999998,-0.7664041,4.06,-0.105,-5.4075
175,33011,0.6124400999999999,0.25058800000000003,-0.764452,5.3725,-2.24,-5.355
176,33109,0.60268,0.242292,-0.765672,6.6325,-5.04,-5.1275
177,33208,0.5968241,0.242536,-0.763476,7.5425,-7.245,-5.1975
178,33306,0.6009720000000001,0.23692399999999997,-0.759084,7.6825,-8.7675,-5.6875
179,33404,0.58804,0.248392,-0.7639640999999999,7.595,-9.7125,-6.055
180,33502,0.593164,0.243024,-0.7539600000000001,7.7,-10.5875,-6.1775
181,33600,0.61122,0.211792,-0.7376119999999999,7.945,-9.975,-6.6675
182,33698,0.5926760999999999,0.190564,-0.758352,6.195,-10.3425,-8.9775
183,33796,0.571204,0.25058800000000003,-0.7664041,3.8675,-10.9025,-11.55
184,33894,0.530456,0.22496799999999997,-0.785192,3.08,-12.67,-12.81
185,33993,0.55266,0.2318,-0.782508,1.6625,-11.9175,-13.23
186,34091,0.57706,0.24863600000000002,-0.762744,0.7,-9.205,-12.5125
187,34189,0.563884,0.22935999999999998,-0.7788480999999999,1.05,-8.4875,-12.6175
188,34287,0.526552,0.265228,-0.798124,1.015,-10.22,-12.67
189,34385,0.553148,0.22082,-0.780556,1.82,-10.3775,-10.78
190,34483,0.571692,0.211548,-0.780556,0.91,-6.7375,-9.4325
191,34581,0.536556,0.23301999999999998,-0.80276,-0.245,-6.055,-9.5375
192,34679,0.5655920999999999,0.2379,-0.79056,-0.8575,-3.815,-8.7675
193,34778,0.572912,0.2074,-0.779824,-1.4,-0.8575,-8.54
194,34876,0.556808,0.228872,-0.787388,-2.5025,-0.8925,-8.5575
195,34974,0.535092,0.204228,-0.7883640000000001,-3.325,0.1925,-7.4725
196,35072,0.5429,0.195932,-0.796172,-5.6,3.115,-7.245
197,35170,0.54778,0.19959200000000002,-0.798856,-8.3475,7.4375,-7.595
198,35268,0.52094,0.233752,-0.7937320999999999,-11.34,10.9725,-7.0175
199,35366,0.5463161,0.237656,-0.7808001,-12.915,14.3675,-8.0325
200,35464,0.558272,0.255468,-0.781776,-14.105,16.87,-7.2975
201,35563,0.574864,0.244488,-0.774212,-14.14,18.41,-7.07
202,35661,0.567788,0.25132,-0.7759199999999999,-15.0675,19.8275,-7.1575
203,35759,0.6141479999999999,0.252296,-0.7705521,-16.17,22.925,-8.0675
204,35857,0.589504,0.255712,-0.75762,-16.3975,27.09,-8.5225
205,35955,0.597068,0.28914,-0.7537159999999999,-16.065,29.61,-8.9775
206,36053,0.616588,0.306708,-0.746396,-14.735,31.7625,-8.0675
207,36151,0.549732,0.363804,-0.733708,-11.8125,32.1825,-6.93
208,36249,0.6182960999999999,0.24034,-0.768844,-9.6425,34.8075,-6.3525
209,36347,0.580476,0.351116,-0.727364,-13.02,36.1725,-6.09
210,36446,0.571936,0.366244,-0.794708,-9.9225,38.6225,-2.3975
211,36544,0.618784,0.412116,-0.708576,-10.5,38.2025,5.46
212,36642,0.6405,0.35014,-0.72102,-6.0725,43.505,15.0675
213,36740,0.64294,0.316224,-0.680028,-3.36,43.8725,21.2275
214,36838,0.664168,0.278648,-0.692228,-2.1875,44.17,24.535
215,36936,0.658556,0.24790399999999999,-0.6695361,-0.945,42.8575,26.32
216,37034,0.6466,0.25742,-0.6795401,-0.525,44.1525,28.595
217,37133,0.6541640000000001,0.21228000000000002,-0.698328,-1.4,48.825,29.61
218,37231,0.654408,0.217648,-0.6993041,-2.205,54.3725,27.72
219,37329,0.663192,0.22789600000000002,-0.6944241,-1.6275,60.375,25.6025
220,37427,0.695156,0.20105599999999998,-0.6729520999999999,-1.1375,67.2,24.7625
221,37525,0.6832,0.216916,-0.669048,-2.8175,73.29,23.8875
222,37623,0.6851520999999999,0.204716,-0.6734399999999999,-3.465,80.64,22.085
223,37721,0.6856399999999999,0.235704,-0.6558721,-4.2,88.25251,19.6525
224,37819,0.6917399999999999,0.261324,-0.656116,-4.585,97.335,18.4975
225,37918,0.69418,0.287432,-0.686128,-4.34,108.0275,19.95
226,38016,0.711504,0.284016,-0.671732,-2.0825,119.84,23.8875
227,38114,0.71126,0.268888,-0.66856,-0.1225,133.105,28.2625
228,38212,0.7224841,0.2623,-0.6563601,-0.1225,147.7525,32.4625
229,38310,0.7373681,0.276452,-0.6392800000000001,-0.665,163.345,37.975
230,38408,0.7659161,0.270352,-0.6258600000000001,-2.31,177.625,44.695
231,38506,0.7771399999999999,0.262056,-0.5663239999999999,-5.1625,192.2025,51.625
232,38605,0.83936,0.243024,-0.544852,-8.4,208.25,58.9575
233,38703,0.930616,0.197152,-0.526552,-8.785,228.4275,67.515
234,38801,1.03944,0.154452,-0.5070319999999999,-8.225,249.6375,73.325
235,38899,1.15534,0.14396,-0.5551,-4.5675,269.4125,76.2825
236,38997,1.1631479999999998,0.16835999999999998,-0.5975560000000001,-3.605,293.6325,78.48751
237,39095,1.16876,0.10614000000000001,-0.6161,-15.1025,333.69,76.195
238,39193,1.218536,0.150792,-0.585356,-20.3875,397.0225,79.205
239,39291,1.6387040000000002,0.36282800000000004,-0.624884,-30.5375,452.9875,87.3425
240,39390,1.892952,0.671976,-0.7500560000000001,-45.71,481.39,105.28
241,39488,2.385344,0.704916,-0.85034,-47.0575,481.4075,118.3175
242,39586,2.341424,0.738344,-0.873276,-45.92,493.8675,134.3475
243,39684,2.3555759999999997,0.696132,-0.477508,-77.0,499.065,125.265
244,39782,3.4077040000000003,0.5826720000000001,-0.7032079999999999,-105.0875,433.825,107.485
245,39880,3.144428,1.2214639999999999,-2.1240200000000002,-131.8275,271.5475,101.185
246,39978,4.342956,1.0645719999999999,-1.468148,-43.155,165.025,19.285
247,40077,0.8554641,1.11874,-2.3077520000000002,-7.7175,207.97,92.3825
248,40175,2.24114,-0.25864000000000004,0.025863999999999998,41.5625,65.5725,90.93
249,40273,2.550776,1.528904,-3.0927,-8.54,128.2225,78.96
250,40371,1.277584,0.9140241,-2.208688,-12.6525,3.5,43.5925
251,40469,0.7034521,0.830332,-1.782664,-18.585,-54.25,15.82
252,40567,0.22106399999999998,0.648796,-1.543056,-15.715,-77.35,13.72
253,40665,0.020984,0.544608,-1.283196,-15.96,-88.1475,13.4925
254,40763,0.046360000000000005,0.547536,-1.271728,-15.2425,-90.72001,14.63
255,40862,0.2806,0.558028,-1.3144280000000002,-17.325,-99.785,8.3475
256,40960,0.473116,0.62464,-1.369816,-19.7575,-126.56,-8.0675
257,41058,0.59902,0.653432,-1.365424,-20.125,-163.7125,-33.1275
258,41156,0.562664,0.616344,-1.2587959999999998,-12.4075,-206.3425,-59.3425
259,41254,0.4933681,0.503616,-1.098732,1.4175,-242.235,-78.925
260,41352,0.502152,0.37698000000000004,-0.9711200999999999,14.49,-268.3975,-92.2425
261,41450,0.56242,0.26303200000000004,-0.869128,22.645,-287.805,-102.48
262,41549,0.643184,0.162504,-0.796416,24.9375,-304.8325,-109.9175
263,41647,0.7237041,0.093696,-0.760304,20.3525,-320.495,-115.4125
264,41745,0.752984,0.08100801,-0.71004,12.565,-334.9675,-118.79
265,41843,0.7417600000000001,0.06563601,-0.664412,7.21,-344.8025,-116.6025
266,41941,0.8327720999999999,0.07881200000000001,-0.710284,3.045,-347.55,-108.99
267,42039,0.993812,0.122976,-0.752496,-0.6125,-348.88,-98.455
268,42137,1.06994,0.149816,-0.758352,-4.41,-355.985,-87.74501
269,42236,1.117276,0.144204,-0.745664,-14.07,-363.8425,-80.4825
270,42334,1.200968,0.1586,-0.7732359999999999,-30.975,-369.285,-78.365
271,42432,1.314916,0.23472800000000002,-0.8447280999999999,-52.22,-372.75,-81.7075
272,42530,1.4234959999999999,0.34867600000000004,-0.9706319999999999,-68.355,-375.13,-86.6075
273,42628,1.582096,0.44090799999999997,-1.13582,-75.21500999999999,-376.0925,-90.86
274,42726,1.7326439999999999,0.46921199999999996,-1.2500120000000001,-74.2875,-378.8575,-93.6425
275,42824,1.85562,0.48263199999999995,-1.336388,-74.305,-383.8275,-96.74
276,42923,1.9807919999999999,0.5675439999999999,-1.4093440000000002,-80.78,-389.83,-102.935
277,43021,2.1069400000000003,0.748104,-1.471076,-87.36,-395.57,-112.945
278,43119,2.3079959999999997,0.835456,-1.43594,-88.32251,-397.6,-129.325
279,43217,2.395836,0.49044,-1.167052,-84.6825,-395.57,-158.8125
280,43315,2.567368,0.5099600000000001,-1.158268,-84.525,-380.2925,-196.945
281,43413,2.934588,0.42187600000000003,-0.94916,-72.2575,-360.885,-218.8725
282,43511,3.387208,0.328424,-0.576084,-46.655,-338.975,-225.1725
283,43609,3.611444,0.149084,0.087352,-16.1525,-314.6325,-217.875
284,43708,3.6482879999999995,-0.27084,0.853512,7.56,-281.4875,-195.16
285,43806,3.694404,-0.7954399999999999,1.574532,2.065,-236.3025,-167.51
286,43904,3.682692,-0.8698601,2.038864,-31.3425,-185.01,-148.8725
287,44002,3.5136,-0.8052,2.258464,-44.485,-129.325,-132.4225
288,44100,3.4343,-1.0065,2.304824,-13.0725,-63.875,-115.535
289,44198,3.509208,-1.2383,2.317512,38.92,0.5775,-96.1625
290,44296,3.3977,-1.5257319999999999,2.162328,77.9275,56.0175,-58.1875
291,44394,3.3306,-1.591124,1.68238,78.26,102.7425,-10.465
292,44493,1.939068,-1.838296,0.64782,51.9575,131.915,41.93
293,44591,-0.5307,0.00366,-2.476844,26.8275,129.955,120.645
294,44689,-1.771684,3.0927,-2.4104759999999996,31.5175,141.89,235.27
295,44787,0.08759601,0.696132,-0.190564,110.32,304.0975,321.02
296,44885,4.0338080000000005,-0.386496,-0.367952,170.975,337.6975,253.3475
297,44983,3.9537760000000004,-0.00244,-2.612264,21.0,280.0,71.85501
298,45081,1.943704,-0.583648,-1.75558,23.135,231.5075,17.78
299,45179,0.5455840000000001,-0.5131319999999999,-0.6958880000000001,25.48,200.3225,63.035
300,45278,0.6919841,0.5997520000000001,-0.564128,3.955,184.485,56.5425
301,45376,4.209732,1.207068,-3.257888,27.6325,148.3475,63.875
302,45474,1.362252,0.023668,-0.048068,84.595,25.2875,74.025
303,45572,0.223992,0.106628,-1.311744,33.4775,47.215,31.7975
304,45670,1.079944,-0.139568,-0.94306,39.3925,27.51,23.4325
305,45768,0.7895840999999999,0.222284,-0.809348,21.3325,5.4075,19.6
306,45866,0.619516,0.123464,-0.886452,7.875,-0.0875,2.135
307,45964,0.6980841,0.381372,-0.7417600000000001,4.83,-0.8225,1.2075
308,46063,0.6527,0.08003201,-0.7903161,4.235,2.4325,-0.7
309,46161,0.599996,0.16348,-0.807884,-2.73,6.16,-5.4425
310,46259,0.607804,0.132004,-0.786656,-7.455,9.24,-9.7825
311,46357,0.5968241,0.18178,-0.788852,-12.3725,13.055,-13.265
312,46455,0.593164,0.153476,-0.787632,-15.785,14.805,-16.0475
313,46553,0.577304,0.178852,-0.800076,-18.5675,16.7475,-18.165
314,46651,0.5614439999999999,0.278404,-0.788608,-19.7225,17.5525,-18.235
315,46749,0.588284,0.266692,-0.781776,-17.0975,19.1275,-16.7825
316,46847,0.6158561,0.32452,-0.741272,-15.9075,22.9775,-14.8925
317,46946,0.6351319999999999,0.342332,-0.7056479999999999,-13.685,23.73,-12.6
318,47044,0.611952,0.307684,-0.7356600000000001,-11.095,22.9775,-10.6925
319,47142,0.598532,0.28304,-0.735172,-10.2375,20.4575,-9.6075
320,47240,0.5787680000000001,0.243024,-0.743712,-10.185,19.74,-9.6425
321,47338,0.571204,0.24790399999999999,-0.7515201,-11.3225,21.245,-9.625
322,47436,0.550708,0.24790399999999999,-0.72224,-12.67,24.2725,-8.8375
323,47534,0.640012,0.282064,-0.711016,-13.9475,27.86,-8.4875
324,47632,0.626104,0.262788,-0.699792,-15.3475,28.5425,-7.385
325,47731,0.599264,0.29743600000000003,-0.7107720000000001,-19.3375,27.3525,-6.7025
326,47829,0.6161,0.335012,-0.705892,-20.265,26.005,-5.775
327,47927,0.6695361,0.292068,-0.687104,-16.73,28.28,-3.7275
328,48025,0.6883239999999999,0.274988,-0.671976,-16.975,25.2525,-2.24
329,48123,0.699792,0.30475599999999997,-0.656116,-15.575,22.54,-2.0475
330,48221,0.661728,0.321836,-0.6661201,-13.0025,18.9525,-2.205
331,48319,0.64172,0.301584,-0.6832,-10.885,16.205,-0.9975
332,48418,0.656848,0.27328,-0.665632,-8.995,16.345,1.3125
333,48516,0.6673399999999999,0.255956,-0.680516,-8.3125,19.8625,2.9925
334,48614,0.686372,0.21301199999999998,-0.6558721,-8.68,23.24,3.045
335,48712,0.61854,0.22667600000000002,-0.7183361,-10.9725,28.2625,1.9075
336,48810,0.5743761,0.271328,-0.764208,-12.4775,38.955,1.015
337,48908,0.56852,0.285236,-0.7515201,-14.5075,55.6325,4.4275
338,49006,0.583648,0.253272,-0.771772,-17.92,76.545,10.22
339,49104,0.5897479999999999,0.19251600000000002,-0.7666480999999999,-22.155,99.9775,13.475
340,49203,0.61122,0.180316,-0.756888,-28.525,125.125,12.285
341,49301,0.617564,0.22277199999999997,-0.791536,-34.1775,152.1625,10.08
342,49399,0.63562,0.24107199999999998,-0.756156,-39.06,181.6325,8.8025
343,49497,0.643428,0.271572,-0.749568,-44.31,212.8175,8.12
344,49595,0.651968,0.355508,-0.7881199999999999,-51.5025,244.5625,7.455
345,49693,0.6082920999999999,0.43163599999999996,-0.7991,-59.255,277.445,11.1125
346,49791,0.735904,0.450912,-0.8857200999999999,-69.7025,310.38,23.0825
347,49889,0.8522921,0.49605200000000005,-0.98088,-80.2725,359.66,37.4675
348,49988,0.983808,0.48873199999999994,-1.296616,-85.92501,439.285,49.455
349,50086,1.179008,0.607316,-0.869128,-92.9425,533.3125,68.74
350,50184,2.11548,0.432612,-1.3527360000000002,-83.7025,573.23,105.9275
351,50282,3.32816,1.19926,-1.538176,-125.9825,573.405,110.425
352,50380,4.006968,1.204872,-0.9093880999999999,-203.0875,573.405,86.8875
353,50478,2.9750919999999996,1.8297560000000002,-1.056764,-205.17,566.86,117.635
354,50576,4.429332,1.609424,-1.9117400000000002,-154.98,510.3875,206.185
355,50674,4.643808,2.131584,-2.600308,-35.0,379.9075,235.7075
356,50773,1.813164,1.9307720000000002,-4.028196,-16.275,317.415,135.5375
357,50871,1.073112,0.229848,-0.2684,34.7375,89.075,143.5175
358,50969,3.335724,2.190388,-5.269668,-27.44,123.725,101.325
359,51067,1.19682,1.2038959999999999,-2.822104,-29.4175,-91.1225,43.54
360,51165,-0.345992,0.9952761,-1.9351639999999999,8.785,-212.765,32.3575
361,51263,-0.403088,0.802272,-1.7284959999999998,23.5725,-200.9175,46.655
362,51361,-0.30744,0.5846241,-1.416908,36.4,-208.39,57.1025
363,51459,-0.068564,0.5690081,-1.374696,43.785,-213.5525,66.9725
364,51557,0.14005599999999999,0.5231359999999999,-1.284416,40.0225,-236.74,60.7775
365,51656,0.280356,0.50752,-1.14436,32.095,-271.495,43.715
366,51754,0.28304,0.49288000000000004,-1.0004,19.985,-307.9125,21.8225
367,51852,0.271084,0.466528,-0.7983680000000001,10.99,-335.6675,3.675
368,51950,0.302804,0.461892,-0.655384,4.865,-352.765,-10.1325
369,52048,0.450912,0.46481999999999996,-0.5934081,1.33,-361.8125,-20.65
370,52146,0.6319600000000001,0.48873199999999994,-0.56608,-1.9075,-368.6725,-30.9925
371,52244,0.778116,0.516304,-0.58072,-3.8325,-376.6525,-40.2675
372,52342,0.915732,0.5355800999999999,-0.595116,-7.4025,-385.5775,-50.155
373,52441,1.048224,0.5892601,-0.634644,-11.69,-395.3775,-59.6225
374,52539,1.19194,0.63318,-0.668316,-16.59,-404.845,-69.2475
375,52637,1.301496,0.68808,-0.697596,-21.63,-413.7875,-79.275
376,52735,1.4210559999999999,0.71736,-0.7266321,-25.7075,-419.3525,-89.6875
377,52833,1.49084,0.710284,-0.7442,-31.605,-423.01,-101.745
378,52931,1.553304,0.727364,-0.80642,-41.755,-423.7975,-115.8675
379,53030,1.708732,0.8222799999999999,-0.9720960999999999,-55.1425,-420.77,-131.8275
380,53128,1.985428,0.9596520000000001,-1.203164,-66.4825,-415.765,-148.6975
381,53226,2.375584,1.068232,-1.4156879999999998,-71.82,-412.0375,-169.1375
382,53324,2.76452,1.194136,-1.5079200000000001,-70.3675,-409.43,-191.135
383,53422,3.293512,1.297592,-1.522804,-63.4375,-407.54,-211.89
384,53520,3.642432,0.913048,-1.1392360000000001,-50.995,-410.6025,-228.13
385,53618,3.568256,0.22643200000000002,-0.70516,-51.9225,-409.57,-256.41
386,53716,3.927424,0.258396,-0.200568,-72.8175,-383.985,-279.72
387,53814,3.9837879999999997,0.088328,0.411628,-56.245,-352.94,-256.9175
388,53913,3.7893199999999996,-0.313052,1.110688,-27.8775,-302.5575,-209.93
389,54011,3.8652040000000003,-0.8283799999999999,1.9102759999999999,-15.7325,-242.585,-160.685
390,54109,3.872524,-0.9906401,2.4992919999999996,-38.08,-186.2175,-119.7175
391,54207,3.749304,-1.196332,2.7179159999999998,-72.87,-126.77,-86.22251
392,54305,3.723928,-1.143872,2.719624,-87.7975,-61.845,-77.07
393,54403,3.470168,-0.803492,2.631296,-48.055,1.4175,-71.71500999999999
394,54501,3.305712,-1.118252,2.2845720000000003,40.775,75.5125,-35.6125
395,54600,3.3125440000000004,-1.378112,1.6143040000000002,88.76,139.9475,1.6975
396,54698,1.036756,0.029036000000000003,-1.776564,76.7725,161.035,25.2875
397,54796,-3.255936,0.149572,-4.270487999999999,92.68001,64.19,42.665
398,54894,-2.191364,1.130208,-0.366732,97.685,238.385,206.185
399,54992,3.179564,-3.069764,2.170136,168.945,403.27,275.485
400,55090,5.390936,-0.21081599999999998,-3.2117720000000003,-12.6525,383.18,183.3825
401,55188,3.1400360000000003,0.35892399999999997,-2.09596,-25.48,276.8675,61.8275
402,55286,0.9567241,0.7095520000000001,-1.060424,-0.4375,226.3975,80.3075
403,55385,0.8337481,1.1812040000000001,-0.5170359999999999,10.0975,223.195,71.82
404,55483,2.4856279999999997,2.499048,-1.920036,49.63,190.3825,58.4675
405,55581,3.118808,-1.000888,-0.9291520000000001,165.165,140.07,89.46
406,55679,0.638548,-0.343308,-1.363228,78.6975,61.9675,79.275
407,55777,0.9686799999999999,0.335012,-1.1155680000000001,51.9225,13.615,63.63
408,55875,0.847412,-0.015372,-0.7288279999999999,43.155,-10.395,46.025
409,55973,0.678076,-0.06344,-0.8764481,31.605,-9.695,23.9225
410,56071,0.714432,0.434564,-0.7551800000000001,17.8325,-10.3775,16.065
411,56170,0.684664,0.046604,-0.80642,18.2525,-6.4225,12.6
412,56268,0.641232,0.149572,-0.8066641,11.7425,-2.31,8.0675
413,56366,0.6319600000000001,0.079544,-0.805688,5.8275,2.8,2.5025
414,56464,0.6390359999999999,0.142252,-0.7700640999999999,-0.1225,7.56,-2.765
415,56562,0.607804,0.141032,-0.774456,-5.845,10.9725,-7.945
416,56660,0.608536,0.209352,-0.774212,-10.605,13.755,-11.8825
417,56758,0.61366,0.242292,-0.76372,-13.1425,15.8375,-13.37
418,56857,0.609024,0.28914,-0.756888,-13.5625,15.82,-12.5475
419,56955,0.630984,0.322812,-0.7500560000000001,-13.055,14.4025,-9.8875
420,57053,0.656848,0.310612,-0.7237041,-10.8675,12.81,-6.2825
421,57151,0.650748,0.29524,-0.735904,-8.925,10.5,-3.92
422,57249,0.638304,0.23838800000000002,-0.741272,-7.315,7.385,-2.975
423,57347,0.610244,0.22667600000000002,-0.75762,-7.77,4.9875,-3.22
424,57445,0.583404,0.22716399999999998,-0.7666480999999999,-8.7675,4.9525,-3.7975
425,57543,0.545096,0.20496,-0.7754321,-9.625,8.19,-3.5525
426,57642,0.6009720000000001,0.16835999999999998,-0.753228,-12.0575,14.3675,-2.66
427,57740,0.628788,0.120048,-0.7451760000000001,-16.0125,20.44,-2.73
428,57838,0.627568,0.21618400000000002,-0.70028,-21.665,25.7075,-2.9575
429,57936,0.5690081,0.237656,-0.674172,-21.0175,28.77,-1.645
430,58034,0.672708,0.21838000000000002,-0.658068,-11.6025,33.25,-0.665
431,58132,0.6795401,0.319884,-0.652456,-11.2175,27.825,-0.07
432,58230,0.6649,0.28767600000000004,-0.663924,-4.7075,22.2775,3.78
433,58329,0.65514,0.30548800000000004,-0.692716,-2.0825,17.885,7.9275
434,58427,0.647576,0.27816,-0.6749041,0.5775,18.655,11.76
435,58525,0.6326921,0.29524,-0.69418,0.14,23.135,16.1875
436,58623,0.624884,0.246196,-0.71492,-0.42,29.925,21.07
437,58721,0.634644,0.243024,-0.7378560000000001,-2.485,37.6075,23.87
438,58819,0.618052,0.22814,-0.742492,-4.305,47.2675,26.2675
439,58917,0.615124,0.21374400000000002,-0.763476,-6.965,60.48,28.875
440,59016,0.60878,0.191052,-0.792512,-9.3975,76.72,31.395
441,59114,0.6080479999999999,0.15274400000000002,-0.8015399999999999,-11.445,97.14251,32.76
442,59212,0.61122,0.142496,-0.8508280999999999,-12.9325,122.7625,32.2875
443,59310,0.596092,0.17738800000000002,-0.845216,-13.8425,153.3875,32.0075
444,59408,0.580476,0.23155599999999998,-0.8274040000000001,-14.8225,189.3675,34.405
445,59506,0.6265921,0.27523200000000003,-0.8378960999999999,-16.5025,228.62,38.99
446,59604,0.59292,0.263764,-0.812276,-16.205,267.6275,49.28
447,59703,0.6326921,0.17202,-0.783972,-24.92,304.2375,63.1575
448,59801,0.815204,0.142008,-0.792512,-48.685,348.005,72.7825
449,59899,1.0736,0.7451760000000001,-0.9181720999999999,-56.91,412.37,77.525
450,59997,1.367864,0.657092,-1.00894,-47.74,497.9275,113.4525
451,60095,1.655784,0.415288,-1.949316,-75.5825,567.875,158.41
452,60193,2.216008,0.6512359999999999,-0.853512,-106.26,573.405,186.9
453,60291,3.4362519999999996,1.236836,-1.7341080000000002,-113.995,573.405,189.875
454,60389,4.0033080000000005,1.524512,-1.63236,-122.8325,573.405,147.0175
455,60488,3.8674,1.8995400000000002,-1.6438279999999998,-118.0725,558.5825,222.25
456,60586,4.131164,2.394616,-3.0036400000000003,-85.015,425.915,301.805
457,60684,4.45788,1.771928,-3.556544,46.1475,307.3875,180.355
458,60782,-0.7564001,0.267424,-4.086024,71.05,217.49,183.12
459,60880,2.2448,1.247328,-3.833972,56.8225,50.925,103.635
460,60978,1.890512,1.950292,-3.8674,-72.7825,0.7,22.925
461,61076,-0.340136,1.3607879999999999,-2.0864439999999997,-7.4725,-240.835,-10.675
462,61175,-0.435784,1.247084,-2.0215400000000003,17.7625,-226.4325,6.615
463,61273,-0.435296,0.8113001,-1.632116,44.7475,-217.1575,14.63
464,61371,-0.35038400000000003,0.631228,-1.3978760000000001,52.85,-230.1425,13.2475
465,61469,-0.115168,0.5119121,-1.2883200000000001,35.6125,-241.01,-2.8175
466,61567,0.328424,0.599264,-1.339072,5.46,-266.0175,-34.9125
467,61665,0.571936,0.713212,-1.2383,-15.54,-306.53,-68.65250999999999
468,61763,0.612684,0.718824,-1.031144,-18.8825,-349.51,-94.2725
469,61861,0.652212,0.632204,-0.86498,-11.6025,-379.785,-111.9475
470,61960,0.681248,0.50508,-0.6895439999999999,0.0,-397.3375,-122.36
471,62058,0.80276,0.41894799999999993,-0.642696,5.6875,-404.2675,-129.605
472,62156,1.0016200000000002,0.395768,-0.6463561,5.565,-406.8225,-133.1925
473,62254,1.1228879999999999,0.404796,-0.655628,1.4,-413.525,-134.4175
474,62352,1.2275639999999999,0.410896,-0.745908,-4.48,-416.9025,-134.995
475,62450,1.39568,0.468724,-0.820084,-12.32,-419.265,-136.0625
476,62548,1.553792,0.49873599999999996,-0.8376520000000001,-21.56,-424.6375,-137.7775
477,62646,1.627968,0.509716,-0.763232,-34.5975,-428.925,-141.3475
478,62745,1.720932,0.567056,-0.7808001,-55.79,-428.05,-148.505
479,62843,1.979084,0.81984,-0.975512,-75.74,-415.73,-157.045
480,62941,2.2667599999999997,1.0521280000000002,-1.22976,-79.625,-401.8175,-166.25
481,63039,2.6949799999999997,1.260016,-1.539152,-67.9175,-387.38,-176.89
482,63137,3.2229959999999997,1.347856,-1.6108879999999999,-52.9725,-382.8475,-193.8825
483,63235,3.693428,1.347856,-1.386408,-40.25,-390.1275,-216.3875
484,63333,3.543856,0.373808,-0.6263479999999999,-30.205,-401.1,-241.2375
485,63431,3.518236,0.318664,-0.317932,-50.6625,-389.5325,-278.6
486,63530,3.7114839999999996,0.232044,0.15176800000000001,-58.7125,-365.855,-286.0025
487,63628,3.6534120000000003,-0.104432,0.624152,-41.3,-332.7975,-256.83
488,63726,3.554836,-0.50142,1.102392,-23.9225,-284.97,-212.415
489,63824,3.73686,-0.8276481,1.5462280000000002,-25.9,-234.57,-166.18
490,63922,3.742716,-0.954528,1.9180840000000001,-46.3575,-191.4675,-124.495
491,64020,3.7053839999999996,-1.22854,2.238212,-63.91,-148.365,-96.98501
492,64118,3.769312,-1.115324,2.509052,-67.1825,-95.8825,-90.405
493,64217,3.43186,-0.9821,2.639592,-24.9375,-36.4175,-71.89
494,64315,3.3332839999999995,-1.2993,2.3323959999999997,45.4475,38.0625,-27.44
495,64413,3.452112,-1.398364,1.585024,73.3425,102.4625,10.5
496,64511,3.47822,-1.160952,0.7549359999999999,57.96,137.8825,31.7625
497,64609,1.101172,1.044564,-4.170936,49.805,111.195,56.175
498,64707,-4.523516000000001,-0.013663999999999999,-1.9190599999999998,107.94,29.8725,102.9875
499,64805,-2.515396,1.171932,0.337452,58.835,252.42,230.58
500,64903,4.4976519999999995,-1.360056,0.438224,128.52,444.64,292.215
501,65002,5.351896,0.26352,-2.437072,19.25,363.9125,188.3175
502,65100,2.364116,0.5233800000000001,-1.7580200000000001,9.9225,258.195,59.1325
503,65198,0.7229720000000001,0.39918400000000004,-1.067012,24.2375,237.475,65.765
504,65296,1.2883200000000001,0.619516,-0.83814,30.7475,230.6325,57.1025
505,65394,3.3959919999999997,1.077748,-3.2178720000000003,52.8675,189.6125,64.89
506,65492,2.161596,-0.438224,0.051484,110.95,65.6775,81.2
507,65590,0.21618400000000002,0.6326921,-1.0145520000000001,64.9075,44.0475,66.85
508,65689,1.463268,-0.46335600000000005,-1.4112959999999999,51.5025,34.895,43.4
509,65787,0.5692520000000001,0.262788,-0.7954399999999999,33.215,1.3825,35.42
510,65885,0.685884,0.11345999999999999,-0.7922680000000001,17.045,-5.285,14.0875
511,65983,0.68686,0.29646,-0.772748,14.385,-5.3375,10.9725
512,66081,0.67832,0.10736,-0.793244,11.2525,-2.6075,7.315
513,66179,0.6156119999999999,0.108824,-0.822768,4.3225,2.695,1.9075
514,66277,0.635864,0.11467999999999999,-0.7890961,-1.5225,7.175,-3.4825
515,66375,0.6344,0.181536,-0.760792,-6.755,11.935,-8.6275
516,66474,0.609024,0.166164,-0.773968,-9.59,13.72,-12.7925
517,66572,0.585356,0.251808,-0.775676,-11.9,14.2975,-15.505
518,66670,0.614636,0.30475599999999997,-0.752496,-12.8975,15.365,-15.155
519,66768,0.617564,0.370392,-0.739808,-12.7225,14.525,-12.565
520,66866,0.62952,0.327692,-0.726876,-10.5,10.92,-8.7675
521,66964,0.648308,0.295484,-0.724924,-8.4875,8.19,-6.265
522,67062,0.619028,0.310368,-0.73932,-8.085,5.6525,-5.075
523,67160,0.58804,0.28157600000000005,-0.762012,-7.035,3.3075,-3.5175
524,67259,0.59048,0.24766,-0.7598161,-6.2475,2.45,-2.2925
525,67357,0.5673,0.212036,-0.758352,-6.86,3.85,-2.1175
526,67455,0.590236,0.201544,-0.750544,-7.945,8.0675,-1.4525
527,67553,0.614392,0.18788,-0.734684,-8.9075,12.39,-1.8025
528,67651,0.6097560000000001,0.182024,-0.71736,-10.955,15.54,-3.1675
529,67749,0.60634,0.29158,-0.706136,-14.0525,18.7775,-3.0625
530,67847,0.633912,0.27694,-0.6763680000000001,-10.5175,20.86,0.5075
531,67946,0.663924,0.309392,-0.6661201,-6.0725,20.9125,4.655
532,68044,0.638548,0.29426399999999997,-0.6785640000000001,-3.4475,16.695,8.4175
533,68142,0.6107319999999999,0.30012,-0.699548,0.28,15.2425,12.6175
534,68240,0.622688,0.24497600000000003,-0.711504,2.7125,19.3725,16.625
535,68338,0.630252,0.27938,-0.679784,2.59,28.8575,18.7075
536,68436,0.599996,0.242292,-0.721264,0.35,37.87,19.81
537,68534,0.619028,0.219844,-0.7378560000000001,-0.2975,47.775,22.575
538,68633,0.58682,0.20618000000000003,-0.764208,-2.345,59.8675,22.8025
539,68731,0.581208,0.217404,-0.7795801,-5.7925,75.32,22.8375
540,68829,0.5917,0.229604,-0.78446,-9.38,95.9525,25.3925
541,68927,0.5948720000000001,0.179096,-0.782752,-13.51,120.855,29.2075
542,69025,0.60146,0.15006,-0.8081281,-17.22,148.7675,30.8525
543,69123,0.60268,0.192272,-0.850096,-18.8475,180.04,29.0325
544,69221,0.60024,0.25522399999999995,-0.868884,-15.9075,216.9125,28.455
545,69319,0.61854,0.276696,-0.8559521000000001,-11.06,256.2,34.51
546,69418,0.571448,0.248148,-0.8569280999999999,-14.3675,295.645,44.345
547,69516,0.599508,0.10321199999999998,-0.774212,-28.28,337.365,55.405
548,69614,1.04188,0.229604,-0.9403761,-56.2275,391.5275,60.34
549,69712,1.3207719999999998,0.8703481,-1.202432,-55.895,465.955,65.87
550,69810,1.40056,0.660996,-1.328824,-51.03,550.9525,112.0875
551,69908,2.024712,0.515572,-1.460584,-87.1325,573.3875,161.8575
552,70006,3.534096,1.028216,-1.210972,-124.7225,573.405,184.3625
553,70104,3.973296,1.3527360000000002,-1.538908,-109.655,573.405,192.6925
554,70203,3.5145760000000004,1.7870560000000002,-0.8744960999999999,-140.2275,572.8275,202.895
555,70301,4.748972,1.61406,-1.8656240000000002,-141.9075,549.5,273.7175
556,70399,5.02762,2.298236,-3.245932,-62.9475,375.935,238.9975
557,70497,2.07766,1.973716,-4.0521080000000005,-19.11,297.01,112.665
558,70595,0.5692520000000001,0.22496799999999997,0.173484,25.515,-1.3825,118.72
559,70693,3.8320199999999995,2.732068,-5.577108,-74.11251,82.1625,51.415
560,70791,0.29377600000000004,1.361276,-2.382904,-26.0225,-166.5475,6.7025
561,70890,-0.5577840000000001,1.221708,-1.887584,2.52,-232.4175,7.2975
562,70988,-0.419192,0.8642481,-1.7343520000000001,25.1125,-199.4125,25.8125
563,71086,-0.31232,0.576816,-1.426668,29.6275,-213.3075,21.035
564,71184,-0.195688,0.528992,-1.307596,13.7025,-221.6375,8.33
565,71282,0.050263999999999996,0.536068,-1.2341520000000001,-15.2075,-240.8,-20.8075
566,71380,0.3782,0.674172,-1.2160959999999998,-37.7825,-268.065,-55.5975
567,71478,0.518256,0.7190681,-1.114348,-42.91,-304.535,-85.365
568,71577,0.601704,0.637084,-0.9830760000000001,-33.39,-335.65,-106.68
569,71675,0.691496,0.504104,-0.8369200000000001,-21.9275,-359.4325,-124.95
570,71773,0.7890961,0.39161999999999997,-0.730292,-14.84,-377.16,-140.14
571,71871,0.930372,0.324764,-0.700036,-14.3675,-389.06,-152.355
572,71969,1.0650600000000001,0.335256,-0.7300479999999999,-16.9925,-398.5625,-159.5475
573,72067,1.21756,0.342088,-0.8052,-17.7625,-406.49,-160.965
574,72165,1.373232,0.32574000000000003,-0.853756,-18.6025,-415.38,-161.385
575,72263,1.47376,0.380884,-0.889136,-20.895,-424.8125,-161.035
576,72362,1.539152,0.370392,-0.8662001,-22.1025,-432.32,-159.18
577,72460,1.581608,0.36941599999999997,-0.853512,-25.76,-434.735,-157.9025
578,72558,1.7150759999999998,0.42016800000000004,-0.9562360999999999,-34.895,-431.62,-157.9025
579,72656,1.951512,0.6141479999999999,-1.202676,-44.345,-424.5325,-160.44
580,72754,2.2784720000000003,0.89426,-1.540616,-43.575,-420.105,-165.9175
581,72852,2.695468,1.042612,-1.764364,-32.7075,-421.575,-176.47
582,72950,3.14882,1.0323639999999998,-1.7714400000000001,-21.8225,-427.315,-193.9875
583,73049,3.4016040000000003,0.670512,-1.369328,-20.755,-432.915,-212.87
584,73147,3.4316160000000004,0.246928,-0.9345201,-41.7375,-432.985,-238.35
585,73245,3.7766319999999998,0.401624,-0.43627200000000005,-74.725,-414.89,-249.725
586,73343,3.994036,0.389912,0.284504,-73.6925,-391.055,-225.4525
587,73441,3.615592,-0.020496,1.135332,-56.2275,-345.345,-182.4725
588,73539,3.3842800000000004,-0.61854,1.8114560000000002,-55.4575,-280.2275,-147.245
589,73637,3.439668,-0.6068279999999999,2.0632639999999998,-83.16001,-208.635,-130.3575
590,73736,3.737836,-0.780312,2.200392,-100.7825,-144.2875,-117.8625
591,73834,4.261948,-0.9272,2.611776,-94.88501,-88.27,-122.78
592,73932,3.7266120000000003,-0.7017439999999999,3.004372,-58.345,-39.9875,-128.8
593,74030,3.078548,-0.9208561,2.7896520000000002,12.9325,32.865,-96.8975
594,74128,3.177124,-1.079456,1.9488279999999998,63.105,119.35,-58.9925
595,74226,3.4057519999999997,-0.8047121,0.9091440000000001,65.835,172.235,-42.735
596,74324,2.309704,0.581208,-0.9777081,76.755,181.3175,-28.315
597,74423,-2.3555759999999997,0.027327999999999998,-2.92434,135.975,161.98,19.9325
598,74521,-2.685464,-0.193492,-2.469036,126.77,266.6475,165.9525
599,74619,2.6537439999999997,-3.4711440000000002,2.356064,152.46,385.07,283.4475
600,74717,6.865428,-0.145424,-3.406484,-1.225,439.145,246.925
601,74815,4.0277080000000005,1.249036,-2.46562,-16.695,307.7375,109.5675
602,74913,0.787388,1.292224,-0.735904,53.6725,218.9775,108.3425
603,75011,2.182092,1.054324,-1.77388,85.85501,223.1775,85.41751
604,75109,4.516684,-1.341756,-2.02886,154.56,108.9025,99.5225
605,75208,-0.66856,0.380396,-0.39161999999999997,74.0775,18.8475,82.845
606,75306,0.9884440000000001,0.50874,-1.047736,33.6175,9.31,40.5825
607,75404,0.8398479999999999,-0.1891,-0.8820601,48.65,-8.8025,37.3625
608,75502,0.83204,-0.02806,-0.7991,26.32,-6.825,21.175
609,75600,0.672708,0.390644,-0.8195960999999999,9.205,-2.1875,8.015
610,75698,0.7171161,0.16348,-0.748836,9.66,2.03,4.865
611,75796,0.6231760999999999,0.199104,-0.817156,4.7775,4.7775,1.1375
612,75895,0.596336,0.133224,-0.815448,0.0875,7.1225,-3.3775
613,75993,0.6319600000000001,0.16128399999999998,-0.7747001,-5.0575,12.215,-7.1575
614,76091,0.614636,0.176656,-0.779092,-10.045,14.875,-11.5325
615,76189,0.6080479999999999,0.21813600000000002,-0.7734800000000001,-13.2475,16.0475,-14.98
616,76287,0.6070720000000001,0.26961999999999997,-0.772992,-15.505,17.15,-16.765
617,76385,0.601704,0.287432,-0.764696,-15.4525,17.5525,-15.925
618,76483,0.6178081,0.31890799999999997,-0.75274,-14.735,17.6225,-13.93
619,76581,0.624396,0.309148,-0.7366361,-13.7375,17.0275,-12.0925
620,76680,0.619516,0.281088,-0.74298,-13.3,16.6075,-11.0425
621,76778,0.607316,0.277428,-0.734928,-14.2625,16.66,-10.7275
622,76876,0.5997520000000001,0.298656,-0.740052,-15.5225,17.535,-10.1325
623,76974,0.5692520000000001,0.280356,-0.748836,-15.8725,18.095,-9.135
624,77072,0.616588,0.23521599999999998,-0.741028,-15.225,20.02,-7.6825
625,77170,0.5607121,0.254004,-0.720532,-18.795,21.105,-7.21
626,77268,0.48385200000000006,0.298412,-0.714432,-21.455,26.32,-5.775
627,77366,0.6378159999999999,0.25961599999999996,-0.6856399999999999,-18.375,36.5575,-4.27
628,77465,0.647576,0.28426,-0.669048,-20.965,38.0625,-2.9225
629,77563,0.668072,0.313052,-0.5975560000000001,-17.9375,37.345,-1.8025
630,77661,0.688812,0.29426399999999997,-0.634156,-16.52,34.65,-1.715
631,77759,0.6688041,0.331108,-0.6273241,-13.37,29.365,-0.665
632,77857,0.6466,0.361608,-0.666608,-9.975,30.3975,2.59
633,77955,0.606584,0.306464,-0.7027201,-8.2075,32.8475,6.6675
634,78053,0.619028,0.297192,-0.693204,-8.225,39.0075,10.4825
635,78151,0.6317159999999999,0.288896,-0.6832,-8.0325,46.7425,13.3175
636,78250,0.632448,0.254004,-0.699792,-7.3325,54.495,15.295
637,78348,0.619028,0.263276,-0.6993041,-8.225,63.9975,15.8025
638,78446,0.590236,0.256932,-0.729804,-11.55,80.22,17.2725
639,78544,0.60634,0.24522,-0.759328,-16.87,104.6675,21.2625
640,78642,0.623908,0.23668000000000003,-0.7812880999999999,-21.1925,131.25,25.9525
641,78740,0.6368401,0.186416,-0.797392,-23.45,160.265,28.1925
642,78838,0.643428,0.1952,-0.769576,-26.53,192.1325,25.2175
643,78936,0.644648,0.25864000000000004,-0.785924,-31.64,228.165,18.655
644,79034,0.630008,0.30036399999999996,-0.769088,-36.2075,266.6125,14.63
645,79133,0.671488,0.22252800000000003,-0.7278521,-42.42,303.66,16.66
646,79231,0.79666,0.17641199999999999,-0.8025161,-62.9125,341.8625,19.005
647,79329,1.028216,0.464088,-1.046516,-79.5025,391.4925,19.215
648,79427,1.2465959999999998,0.8388721,-1.2343959999999998,-77.7175,471.17,35.525
649,79525,1.271484,0.450424,-1.081652,-80.3775,560.0175,76.1425
650,79623,2.5949400000000002,0.681492,-1.425448,-117.46,573.3875,105.9625
651,79721,4.068212,0.45506,-1.96786,-167.125,573.405,100.5375
652,79820,3.8571519999999997,1.691652,-0.571448,-197.4,573.3875,78.1725
653,79918,2.9031119999999997,1.482788,-1.341024,-204.3475,558.3725,127.3125
654,80016,4.16386,1.926868,-2.6901,-171.36,495.775,183.75
655,80114,5.066904,1.7345959999999998,-3.2408080000000004,-27.72,351.33,149.7125
656,80212,1.354932,0.870592,-4.966376,-55.4225,305.515,89.25
657,80310,1.420324,0.649528,-1.790228,-22.2075,50.61,71.6275
658,80408,3.1842,2.175504,-4.920992,-150.395,61.0925,26.075
659,80506,0.40894400000000003,1.2280520000000001,-2.636176,-50.1025,-244.7375,0.385
660,80605,-0.221308,1.04188,-2.237724,-15.7325,-277.235,20.1075
661,80703,-0.25790799999999997,0.662704,-1.7702200000000001,13.3875,-281.4175,34.4225
662,80801,-0.17397200000000002,0.450424,-1.494744,26.5125,-294.0875,44.345
663,80899,0.085888,0.372832,-1.378844,14.21,-303.6425,38.99
664,80997,0.360388,0.376248,-1.2688,-8.89,-329.56,16.5375
665,81095,0.5119121,0.450424,-1.174128,-29.4175,-362.9325,-12.5125
666,81193,0.6141479999999999,0.457988,-1.0147959999999998,-39.445,-395.185,-40.0225
667,81291,0.68076,0.430172,-0.8579041,-37.66,-419.615,-61.9325
668,81390,0.802272,0.400892,-0.7881199999999999,-30.17,-434.2625,-79.31
669,81488,1.02968,0.356484,-0.783728,-21.07,-444.115,-92.645
670,81586,1.100684,0.290604,-0.71492,-13.335,-455.595,-103.7925
671,81684,1.118496,0.251076,-0.7239479999999999,-11.4275,-462.56,-112.7875
672,81782,1.257332,0.237168,-0.7598161,-15.0325,-462.875,-121.555
673,81880,1.36274,0.28694400000000003,-0.8169121,-19.46,-461.755,-129.3075
674,81978,1.489376,0.37258800000000003,-0.9337880999999999,-21.2625,-456.3125,-133.5075
675,82077,1.63602,0.42773199999999995,-1.043344,-19.705,-449.5575,-136.255
676,82175,1.765584,0.513864,-1.2056040000000001,-17.2025,-444.045,-139.58
677,82273,1.9959200000000001,0.697596,-1.4278879999999998,-15.3125,-439.425,-145.4775
678,82371,2.337764,0.8054439999999999,-1.6696919999999997,-10.395,-437.465,-156.065
679,82469,2.693516,0.772016,-1.773148,-5.88,-440.1775,-175.14
680,82567,2.973872,0.59902,-1.6796959999999999,-8.155,-444.1325,-200.13
681,82665,3.2305599999999997,0.494588,-1.45302,-18.6375,-443.4675,-221.5675
682,82763,3.5231160000000004,0.542168,-1.052616,-26.3025,-435.2775,-227.745
683,82862,3.7332,0.756888,-0.35160399999999997,-18.8125,-415.94,-211.47
684,82960,3.706116,0.610244,0.632448,9.8175,-381.535,-169.295
685,83058,3.470412,-0.101992,1.610156,31.5875,-325.255,-116.27
686,83156,3.361588,-0.7320001,2.224304,-5.4075,-252.4725,-83.335
687,83254,3.4142919999999997,-0.495076,2.1459799999999998,-85.7325,-180.11,-81.515
688,83352,3.945968,-0.543388,1.9951880000000002,-113.9425,-115.57,-89.4425
689,83450,4.496676,-0.471164,2.398032,-83.825,-65.17,-106.7325
690,83548,3.675616,-0.643184,2.977776,-1.435,-26.53,-95.69
691,83647,3.094164,-1.211948,2.769888,80.8675,49.1925,-37.8175
692,83745,2.689612,-1.389092,1.7221520000000001,93.975,125.615,10.0625
693,83843,1.4269120000000002,-1.072624,1.76656,86.20501,210.945,74.3575
694,83941,-0.404064,0.310856,-3.873012,15.0675,227.955,145.88
695,84039,-0.346236,0.54168,-2.854556,48.9125,324.1,274.0325
696,84137,4.323924,-0.606096,1.211216,110.74,366.8525,328.9825
697,84235,4.829248000000001,1.123864,-2.6837560000000003,27.3875,345.59,202.7025
698,84334,2.918484,1.191452,-2.104012,9.6425,282.45,78.34751
699,84432,0.532652,0.050752,-0.649284,67.725,221.55,77.07
700,84530,1.521584,0.604632,-1.946632,50.75,230.7375,52.605
701,84628,5.027132,-0.785192,-1.192428,84.735,104.055,75.075
702,84726,-0.407968,0.7241920000000001,-0.698816,64.505,-13.3525,85.33
703,84824,1.01626,-0.563884,-1.060912,6.2475,30.9225,28.8925
704,84922,0.783972,0.349164,-0.9450120000000001,23.415,-4.6025,29.12
705,85020,0.664412,0.083936,-0.856196,10.2025,-5.845,14.7875
706,85119,0.709064,0.293288,-0.787144,10.7975,-1.8375,8.925
707,85217,0.731024,0.228872,-0.784704,10.57,0.77,7.0
708,85315,0.598532,0.119804,-0.8388721,9.765,1.82,3.675
709,85413,0.6390359999999999,0.13761600000000002,-0.8030041,3.99,5.9325,0.6475
710,85511,0.6283,0.149084,-0.786412,-1.8375,9.9925,-3.5875
711,85609,0.618052,0.14762,-0.7869,-6.44,11.7775,-7.2625
712,85707,0.6170760000000001,0.23082399999999997,-0.7834840000000001,-10.5175,12.7575,-10.2025
713,85806,0.6170760000000001,0.21862399999999999,-0.783728,-11.8125,12.9325,-11.025
714,85904,0.619516,0.216916,-0.785192,-13.335,13.2125,-11.62
715,86002,0.6082920999999999,0.259128,-0.787876,-15.5575,14.455,-12.1975
716,86100,0.621224,0.270352,-0.768112,-16.275,15.435,-12.5475
717,86198,0.586088,0.271572,-0.766892,-16.45,15.3825,-12.7225
718,86296,0.6161,0.288408,-0.756156,-16.135,15.855,-12.145
719,86394,0.577548,0.245464,-0.7564001,-16.5375,15.7325,-11.34
720,86493,0.5546121,0.23668000000000003,-0.75884,-18.375,18.1475,-10.185
721,86591,0.528992,0.25132,-0.7761640999999999,-20.7025,26.8275,-6.825
722,86689,0.533872,0.19178399999999998,-0.752008,-20.7375,38.325,-3.6575
723,86787,0.595604,0.197884,-0.74542,-21.6125,50.7675,-3.3775
724,86885,0.627568,0.255468,-0.7137001000000001,-23.7475,56.2275,-3.6575
725,86983,0.6168319999999999,0.27084,-0.687104,-21.84,58.8175,-2.66
726,87081,0.653676,0.285968,-0.6602640000000001,-20.0375,57.9775,-1.2775
727,87179,0.6785640000000001,0.29158,-0.628544,-17.255,55.09,0.9625
728,87278,0.686128,0.305732,-0.643428,-12.74,50.0325,2.94
729,87376,0.694912,0.305732,-0.615124,-8.365,43.89,5.32
730,87474,0.67832,0.29402,-0.6414761,-5.495,43.26,9.03
731,87572,0.675148,0.282796,-0.67466,-4.4975,47.2325,12.7925
732,87670,0.6653880999999999,0.298168,-0.666608,-5.25,49.6475,16.6425
733,87768,0.67588,0.25254,-0.6771,-3.465,53.5325,20.8075
734,87866,0.670024,0.233752,-0.686128,-2.4325,59.2025,23.2575
735,87965,0.649284,0.23155599999999998,-0.71126,-2.52,69.335,24.745
736,88063,0.656848,0.239364,-0.735416,-3.535,85.05,27.4225
737,88161,0.6602640000000001,0.272304,-0.7881199999999999,-3.955,105.945,31.4825
738,88259,0.6292760000000001,0.262056,-0.806908,-2.2575,131.4075,35.7875
739,88357,0.5978,0.21862399999999999,-0.813008,-0.805,162.225,38.78
740,88455,0.5777920999999999,0.233996,-0.818376,-3.71,199.885,39.6725
741,88553,0.542168,0.29036,-0.782508,-9.59,241.465,41.5275
742,88651,0.62342,0.29646,-0.711504,-15.3125,281.0675,49.1225
743,88750,0.887916,0.30792800000000004,-0.6944241,-23.5375,318.815,57.7675
744,88848,1.1468,0.16689600000000002,-0.740052,-29.9775,365.295,63.0875
745,88946,1.311256,0.273036,-0.9906401,-36.9075,424.34,59.08
746,89044,1.352492,0.360144,-1.17242,-54.5125,513.0825,64.33
747,89142,1.9002720000000002,0.7388319999999999,-1.4879120000000001,-85.0675,569.87,83.80751
748,89240,3.062932,0.9823440999999999,-1.071892,-101.2025,573.405,123.8825
749,89338,3.541172,1.372256,-1.468636,-156.31,573.405,124.075
750,89437,3.6138839999999997,1.0650600000000001,-1.159,-184.8,568.9425,127.8725
751,89535,5.660068,1.506212,-2.3018959999999997,-216.51,451.955,151.2175
752,89633,4.59696,1.486692,-2.7215759999999998,-63.56,167.93,141.2425
753,89731,-0.29987600000000003,1.913936,-2.430484,-34.5975,91.2625,88.9875
754,89829,1.237568,1.062376,-1.055544,-3.5175,60.5675,127.12
755,89927,3.3062,2.812344,-5.184268,-95.3925,152.1975,105.4025
756,90025,-0.43163599999999996,1.033828,-1.777784,61.1275,-198.065,92.4525
757,90123,-0.254004,1.00894,-2.044232,43.0325,-161.84,117.95
758,90222,-0.044164,0.8254520000000001,-1.674816,51.415,-176.9775,136.8675
759,90320,0.079544,0.9269561,-1.511336,51.5725,-205.9925,147.42
760,90418,0.10833599999999999,0.9479401,-1.292468,46.305,-240.6075,141.6975
761,90516,0.22814,1.028216,-1.125572,39.655,-275.3275,120.8025
762,90614,0.18251199999999998,1.022604,-0.8493641,35.455,-309.5225,93.695
763,90712,0.139568,0.9830760000000001,-0.633668,31.57,-331.065,63.2975
764,90810,0.23448400000000003,0.93696,-0.537532,24.2375,-337.12,29.225
765,90909,0.410652,0.942084,-0.504592,12.11,-341.8275,-10.6575
766,91007,0.617564,1.036268,-0.518744,1.3825,-348.075,-51.835
767,91105,0.778604,1.156316,-0.543876,0.385,-356.9825,-87.97251
768,91203,0.9228081,1.281488,-0.5777920999999999,11.55,-366.2575,-116.62
769,91301,1.131672,1.314916,-0.659776,29.12,-374.255,-140.455
770,91399,1.348832,1.328092,-0.73078,42.0,-387.7825,-166.7225
771,91497,1.485716,1.292468,-0.696864,45.9375,-405.965,-194.845
772,91596,1.4191040000000001,1.188524,-0.45896400000000004,35.6825,-424.2,-224.63
773,91694,1.232688,1.116788,-0.193248,11.1125,-425.2325,-252.245
774,91792,1.263188,1.2312239999999999,-0.193248,-21.735,-402.7275,-278.425
775,91890,1.5982,1.626016,-0.49898000000000003,-46.2175,-363.7025,-303.415
776,91988,2.081076,2.112064,-0.9337880999999999,-47.3025,-333.7075,-328.195
777,92086,2.5705400000000003,2.3597240000000004,-1.2343959999999998,-17.955,-322.14,-354.6375
778,92184,2.81698,2.255292,-1.242448,28.6125,-328.7025,-377.72
779,92282,2.9548400000000004,1.9193040000000001,-0.99918,66.675,-337.2425,-390.53
780,92381,3.046096,1.6443159999999999,-0.6497721,85.435,-340.375,-392.07
781,92479,3.2034759999999998,1.428132,-0.34038,88.41001,-335.4925,-377.545
782,92577,3.3733,1.2312239999999999,-0.041968,79.3625,-325.185,-352.5725
783,92675,3.43186,0.300852,0.372832,57.54,-309.8025,-327.3375
784,92773,3.2147,0.343308,0.40138,2.2575,-280.315,-324.1875
785,92871,3.6412120000000003,0.8927959999999999,0.644892,-49.9625,-231.4375,-312.375
786,92969,3.731736,0.588284,1.11386,-17.3425,-195.3875,-263.1825
787,93067,3.5758199999999998,0.0427,1.766316,29.8025,-155.3825,-217.77
788,93166,3.390868,-0.42114399999999996,2.4295080000000002,47.4425,-106.505,-183.3125
789,93264,3.228852,-0.468724,2.590792,36.4175,-40.005,-154.875
790,93362,3.114416,-0.299388,2.28872,34.9125,32.165,-134.7675
791,93460,3.119784,-0.296704,1.783396,57.5225,98.21,-121.1175
792,93558,3.027552,-0.349652,1.1960879999999998,80.43,148.0675,-109.8125
793,93656,2.194292,-0.225944,0.388936,86.8,182.4725,-93.485
794,93754,1.26148,-1.004548,0.44676400000000005,81.235,202.2125,-78.5225
795,93853,-1.024556,-2.132072,-0.740052,20.265,247.8875,-76.9825
796,93951,-0.577548,-2.163304,-1.380064,-62.0375,390.6525,-21.7525
797,94049,3.766628,-0.21813600000000002,-1.1033680000000001,-148.9425,475.9125,86.7125
798,94147,5.0569,1.907348,-1.737524,-140.4375,470.68,155.435
799,94245,3.0561,2.0398400000000003,-1.9612720000000001,-65.765,381.605,149.52
800,94343,3.310104,2.583228,-2.430972,37.1875,254.03,125.93
801,94441,5.622492,-0.6634359999999999,-2.1945360000000003,144.48,91.1925,127.3475
802,94540,-1.41764,0.364048,-0.337208,59.2025,50.085,87.81501
803,94638,1.4156879999999998,0.8901120000000001,-0.35282399999999997,8.3475,23.695,63.315
804,94736,0.5441199999999999,-0.134444,-1.3856760000000001,32.0775,30.0825,55.44
805,94834,0.76494,0.9203680000000001,-0.797392,33.25,-8.645,49.105
806,94932,0.69906,0.027816000000000004,-0.725412,38.6225,-17.99,43.2075
807,95030,0.6497721,0.402844,-0.757864,40.1275,-28.2625,35.2275
808,95128,0.552904,0.378932,-0.8147161,36.8725,-25.4275,31.605
809,95226,0.6463561,0.22448,-0.819108,39.0425,-25.5325,33.7925
810,95325,0.69418,0.088328,-0.7881199999999999,32.9525,-17.0975,32.13
811,95423,0.711016,0.09052401,-0.791292,26.635,-8.2075,24.6575
812,95521,0.6095119999999999,0.1525,-0.7929999999999999,18.585,-5.9675,17.36
813,95619,0.6007279999999999,0.166408,-0.8210601000000001,15.2775,-3.4825,13.7375
814,95717,0.6095119999999999,0.165676,-0.763476,10.78,0.525,10.01
815,95815,0.585112,0.162504,-0.8081281,5.5125,6.2825,6.6675
816,95914,0.5734,0.208864,-0.8054439999999999,0.8225,10.3775,2.765
817,96012,0.580232,0.199348,-0.779092,-2.8525,15.6625,-0.35
818,96110,0.604632,0.19178399999999998,-0.780312,-4.7775,19.6875,-3.4125
819,96208,0.59536,0.22204000000000002,-0.7598161,-6.51,22.1025,-6.6675
820,96306,0.61122,0.266692,-0.759328,-6.8775,25.2875,-8.155
821,96404,0.604388,0.262788,-0.733952,-4.305,25.9175,-7.315
822,96502,0.596336,0.181292,-0.7324881,-3.2025,26.6,-6.23
823,96600,0.5873079999999999,0.328424,-0.760304,-10.605,28.4725,-6.86
824,96699,0.616344,0.29036,-0.7227279999999999,-12.67,31.3775,-5.25
825,96797,0.6058520000000001,0.28938400000000003,-0.7105279999999999,-11.4975,31.8675,-1.75
826,96895,0.634156,0.28548,-0.7044279999999999,-9.8175,32.55,1.4175
827,96993,0.634644,0.27694,-0.6917399999999999,-9.7825,29.7325,3.605
828,97091,0.6517241,0.274744,-0.6919841,-8.5925,27.615,5.18
829,97189,0.6605081,0.26108000000000003,-0.677588,-7.0175,25.4975,6.44
830,97287,0.664168,0.25790799999999997,-0.684176,-3.885,24.2375,7.63
831,97386,0.647576,0.24034,-0.679296,0.0525,21.385,8.225
832,97484,0.646844,0.22033200000000003,-0.7015,3.08,21.455,8.435
833,97582,0.633424,0.236192,-0.719312,4.9,23.3975,8.435
834,97680,0.62464,0.268156,-0.73688,6.1075,26.8275,8.925
835,97778,0.6141479999999999,0.28767600000000004,-0.7388319999999999,6.6675,34.125,12.04
836,97876,0.60146,0.300608,-0.745664,6.65,43.8725,17.395
837,97974,0.5897479999999999,0.28426,-0.785192,6.9825,58.345,23.7825
838,98073,0.5919439999999999,0.291092,-0.7993439999999999,8.365,76.615,29.9775
839,98171,0.590236,0.277672,-0.799588,11.025,96.70501,35.245
840,98269,0.6082920999999999,0.281332,-0.8344801,13.0725,119.455,39.4625
841,98367,0.5926760999999999,0.225456,-0.805688,16.6425,139.4225,43.435
842,98465,0.5856,0.176656,-0.794952,19.04,168.4025,47.215
843,98563,0.5614439999999999,0.196908,-0.7195560000000001,20.195,203.2275,51.2575
844,98661,0.5675439999999999,0.20252,-0.757376,16.4675,236.9325,55.405
845,98760,0.5736441,0.21374400000000002,-0.815692,10.6925,275.7475,65.0475
846,98858,0.64904,0.23692399999999997,-0.758596,3.6575,323.5225,82.6525
847,98956,1.0711600000000001,0.31158800000000003,-0.941108,-8.1725,393.085,103.81
848,99054,1.802184,0.363804,-0.9345201,9.5375,428.0675,125.2125
849,99152,1.5318319999999999,0.465308,-1.3583479999999999,21.9975,486.2375,167.58
850,99250,2.306044,1.542812,-2.122312,24.71,547.8025,195.7375
851,99348,2.747684,1.369572,-1.8302439999999998,70.2975,535.15,244.965
852,99447,3.3201080000000003,1.547448,-1.387872,128.24,473.6025,293.5975
853,99545,2.981436,1.085068,-1.972984,209.895,393.6275,316.33
854,99643,2.93532,1.4600959999999998,-2.197708,283.185,293.4925,298.62
855,99741,1.7585080000000002,0.44676400000000005,-0.9091440000000001,341.985,174.2825,219.4675
856,99839,0.125904,0.6304960000000001,-0.8520479999999999,301.315,193.27,172.865
857,99937,2.976556,1.0079639999999999,-3.35134,260.505,193.515,137.655
858,100036,2.360944,0.813984,-2.8313759999999997,123.9525,28.5775,33.075
859,100134,0.298656,0.903532,-1.812432,143.0975,-149.4325,21.315
860,100232,0.047092,0.6883239999999999,-1.319796,132.9475,-140.7,44.485
861,100330,0.021472,0.8195960999999999,-1.11386,154.84,-156.66,69.685
862,100428,0.058316,0.9108521,-0.9913719999999999,181.5625,-147.14,105.84
863,100526,0.189344,1.009916,-0.9318360000000001,207.1475,-149.73,128.94
864,100624,0.520208,1.148752,-1.033584,222.3375,-157.605,134.9425
865,100723,0.754692,1.295396,-1.046028,227.92,-185.2025,122.36
866,100821,0.8769360999999999,1.488156,-0.9674601,225.8725,-224.805,97.23001
867,100919,0.8757159999999999,1.6928720000000002,-0.8310639999999999,224.525,-264.39,69.475
868,101017,0.822768,1.8785560000000001,-0.666852,229.95,-293.86,43.085
869,101115,0.9467200000000001,2.073756,-0.553636,240.3275,-311.6575,17.3075
870,101213,1.160952,2.2301599999999997,-0.48433999999999994,251.9825,-326.445,-8.4175
871,101311,1.350296,2.345572,-0.40992,259.805,-344.2075,-34.3875
872,101410,1.408612,2.446344,-0.28328400000000004,263.13,-362.53,-60.305
873,101508,1.3705479999999999,2.4795279999999997,-0.126148,263.165,-375.235,-83.1425
874,101606,1.336388,2.473916,0.034892,258.335,-378.1575,-102.2
875,101704,1.375184,2.495388,0.14347200000000002,244.3875,-372.855,-120.085
876,101802,1.462292,2.6110439999999997,0.141276,222.11,-363.1075,-137.9525
877,101900,1.6391919999999998,2.797948,0.047824,197.8375,-353.815,-157.675
878,101999,1.8048680000000001,2.952888,-0.052948,179.655,-350.525,-181.3175
879,102097,1.8995400000000002,3.016084,-0.09906401,168.1225,-352.5725,-207.9875
880,102195,1.944436,2.962648,-0.114924,158.9,-355.39,-236.81
881,102293,1.9964080000000002,2.846016,-0.10638399999999999,147.84,-355.3025,-265.9825
882,102391,2.105232,2.715964,-0.138836,132.3175,-350.4725,-291.2175
883,102489,2.25822,2.554924,-0.194956,112.0525,-344.3125,-310.695
884,102587,2.37778,2.38022,-0.267424,87.2375,-338.0125,-324.7475
885,102686,2.460252,2.312388,-0.376492,58.17,-330.82,-333.1475
886,102784,2.566392,2.256024,-0.48995200000000005,33.145,-323.6625,-335.7725
887,102882,2.626416,2.173308,-0.5392399999999999,15.9775,-316.0675,-336.5775
888,102980,2.712548,2.053992,-0.527772,0.175,-305.1125,-338.9225
889,103078,2.790628,1.8605,-0.38356799999999996,-17.43,-292.53,-345.1875
890,103176,2.892132,1.7214200000000002,-0.178608,-39.62,-273.8925,-355.145
891,103274,3.036092,1.664812,0.054655999999999996,-60.55,-246.6625,-363.8775
892,103373,3.24154,0.8544879999999999,0.348188,-70.4375,-215.6175,-370.5625
893,103471,2.587376,0.288164,0.841556,-88.46251,-185.9025,-395.36
894,103569,2.93776,0.696864,0.8115439999999999,-134.8025,-114.6425,-419.37
895,103667,3.2815559999999997,0.951356,0.769576,-81.32251,-46.795,-407.3475
896,103765,3.586068,0.5206960999999999,1.097756,35.56,4.3225,-380.45
897,103863,3.666832,-0.47067600000000004,1.41032,130.41,29.5575,-334.5475
898,103962,3.3698839999999994,-0.9752681000000001,1.681648,120.89,49.805,-295.7675
899,104060,2.6108,-0.63318,1.260748,57.75,81.74251,-266.98
900,104158,2.999492,-0.419192,2.248704,66.2375,134.8725,-251.1775
901,104256,4.377116,-0.9293961,2.704984,73.7625,237.1775,-252.315
902,104354,3.468948,-1.0919,-0.244488,4.2175,308.6475,-262.4825
903,104452,2.691808,-3.5345839999999997,-4.962716,20.825,292.7225,-189.91
904,104550,2.023248,-4.323192,-2.293844,0.28,219.2575,-30.1525
905,104648,1.749236,-0.12566,-1.4457,-141.1375,182.84,122.8675
906,104747,0.657092,3.4408879999999997,-0.211304,-149.065,178.255,174.44
907,104845,-0.307684,3.51482,0.769088,-65.835,197.295,94.5525
908,104943,1.479616,0.71126,-1.36396,28.63,230.2825,1.855
909,105041,3.4157559999999996,-1.441064,-3.461872,87.92,208.425,22.0325
910,105139,1.404952,-0.6795401,-0.09735601,59.36,42.6825,81.88251
911,105237,-0.102968,2.9248279999999998,-0.797636,19.39,-46.2525,81.81251
912,105335,0.8315520000000001,-0.48848800000000003,-0.919392,46.6025,19.075,42.5075
913,105434,0.696376,-0.138104,-0.7998321,26.53,39.375,52.6225
914,105532,0.7754321,0.8945040000000001,-0.635376,-7.0525,23.065,46.515
915,105630,0.576816,0.19764,-1.005524,14.875,5.705,31.255
916,105728,0.66246,0.484828,-0.8652241,14.9975,-12.67,21.1575
917,105826,0.661728,0.10345599999999999,-0.8296,16.6775,-15.4525,12.25
918,105924,0.607804,0.290604,-0.812032,10.4125,-9.7475,6.2125
919,106022,0.625128,0.227652,-0.7929999999999999,12.5475,-6.895,5.565
920,106121,0.61,0.28181999999999996,-0.8015399999999999,9.1525,-2.5025,5.5825
921,106219,0.6009720000000001,0.223748,-0.803492,6.5275,-0.98,4.0775
922,106317,0.570472,0.305244,-0.800076,2.1875,3.325,3.5
923,106415,0.544852,0.291824,-0.792756,0.07,5.845,3.5
924,106513,0.5441199999999999,0.283528,-0.794952,-0.7175,10.71,4.0775
925,106611,0.53192,0.26303200000000004,-0.8188641,0.0175,16.275,3.78
926,106709,0.536556,0.158356,-0.8471681000000001,5.8975,22.1725,0.77
927,106808,0.62464,0.06344,-0.7639640999999999,9.8875,31.3075,-5.7925
928,106906,0.42212,0.387716,-0.830576,-2.835,45.57,-11.0425
929,107004,0.5043479999999999,0.23668000000000003,-0.7617681,-13.58,56.945,-8.015
930,107102,0.589992,0.27694,-0.745664,-12.7225,72.1175,-3.3775
931,107200,0.635376,0.2623,-0.73078,-13.685,77.9975,-3.815
932,107298,0.6466,0.3538,-0.650016,-11.83,77.245,-4.235
933,107396,0.697108,0.349164,-0.624152,-10.0275,77.49,-1.1025
934,107495,0.678808,0.335256,-0.647332,-8.2425,73.2375,3.78
935,107593,0.702964,0.325008,-0.613904,-4.9175,65.73,7.7525
936,107691,0.690032,0.325496,-0.628788,-2.625,59.57,11.2525
937,107789,0.6832,0.328912,-0.633424,-0.875,52.6925,15.1375
938,107887,0.6856399999999999,0.324764,-0.6265921,0.2275,50.2425,19.2675
939,107985,0.682956,0.303292,-0.6663640000000001,1.1025,52.0975,23.2925
940,108083,0.6836880999999999,0.28011199999999997,-0.677588,1.6625,56.735,26.04
941,108182,0.6790520999999999,0.24522,-0.681248,2.065,62.055,27.1425
942,108280,0.681736,0.223016,-0.674416,2.1875,70.245,26.075
943,108378,0.686372,0.255468,-0.6795401,1.68,81.305,23.6425
944,108476,0.671488,0.299388,-0.6993041,2.695,93.765,22.995
945,108574,0.6566041,0.30256,-0.712724,6.3,107.94,24.885
946,108672,0.66246,0.305976,-0.704916,10.185,125.0725,29.295
947,108771,0.68076,0.287432,-0.698328,12.4075,145.075,37.2575
948,108869,0.6649,0.28181999999999996,-0.714676,13.79,167.4225,46.305
949,108967,0.6675840000000001,0.291824,-0.7129681,15.365,188.3175,56.665
950,109065,0.6939361,0.250344,-0.659532,19.145,213.3075,70.9275
951,109163,0.7076001000000001,0.27718400000000004,-0.658312,16.38,247.0125,91.9975
952,109261,0.7822640000000001,0.195932,-0.601216,11.6725,287.2975,111.475
953,109359,1.018944,0.171044,-0.743712,6.405,323.015,126.07
954,109457,1.227808,0.294508,-0.894748,8.96,364.6825,134.6975
955,109556,1.74948,0.517768,-0.8230120999999999,15.3825,411.075,147.525
956,109654,1.722884,0.843508,-1.293444,1.365,484.435,178.0625
957,109752,2.557608,1.009672,-1.3005200000000001,-0.2625,547.995,245.4375
958,109850,3.174196,0.8569280999999999,-1.15656,17.15,541.31,297.0275
959,109948,3.5136,1.1651,-1.289052,39.76,476.455,302.295
960,110046,2.88042,1.360056,-1.389092,49.56,398.3525,306.5475
961,110144,3.51116,1.808772,-2.169892,43.75,283.22,270.4275
962,110242,2.9872919999999996,1.913936,-2.1167,111.335,188.3525,196.1925
963,110341,0.194468,1.468148,-2.765984,112.0875,148.9425,142.5725
964,110439,2.151348,2.630808,-3.4860279999999997,117.95,100.5375,96.5475
965,110537,1.488156,2.073268,-2.9136040000000003,88.9875,20.5625,4.3225
966,110635,0.07710399999999999,1.6857959999999999,-2.1191400000000002,143.325,-109.3925,-26.5125
967,110733,-0.318176,1.086532,-1.6731080000000003,169.9425,-120.33,-24.6225
968,110831,-0.217648,0.720776,-1.482544,171.9725,-108.01,-27.3875
969,110929,0.0183,0.54656,-1.4513120000000002,146.755,-109.13,-36.155
970,111028,0.18104800000000001,0.529724,-1.42008,107.45,-130.9875,-55.16
971,111126,0.438468,0.687104,-1.432768,69.7025,-162.6975,-80.045
972,111224,0.621712,0.809348,-1.360056,55.3875,-203.875,-99.7325
973,111322,0.6939361,0.807396,-1.192428,63.0525,-247.0475,-112.1225
974,111420,0.7134560999999999,0.7019880000000001,-0.9828321,79.275,-283.9375,-121.0125
975,111518,0.7317560000000001,0.540216,-0.779092,92.48751,-311.71,-127.6275
976,111616,0.758352,0.384788,-0.607804,96.3375,-331.03,-132.8425
977,111715,0.8405800999999999,0.290116,-0.5653481,89.6175,-341.3375,-136.535
978,111813,0.93696,0.302316,-0.576328,76.685,-346.115,-138.95
979,111911,1.007476,0.29792399999999997,-0.5885281,65.43251,-352.3625,-139.09
980,112009,1.073844,0.315736,-0.5917,56.56,-357.6475,-137.095
981,112107,1.154608,0.309636,-0.5897479999999999,47.88,-361.55,-133.2275
982,112205,1.148264,0.335012,-0.525088,37.24,-363.7025,-129.605
983,112303,1.182668,0.37990799999999997,-0.535824,24.8325,-360.185,-126.07
984,112402,1.348832,0.46481999999999996,-0.654408,12.6175,-350.5775,-125.1775
985,112500,1.516704,0.5577840000000001,-0.818132,2.31,-343.7175,-129.08
986,112598,1.731912,0.7256560000000001,-1.0521280000000002,-6.23,-340.3925,-138.425
987,112696,2.0242240000000002,0.86864,-1.197308,-10.2375,-343.7875,-151.9525
988,112794,2.28018,0.859368,-1.200724,-7.2625,-354.095,-167.5625
989,112892,2.482944,0.6836880999999999,-1.118008,-2.17,-364.8925,-183.015
990,112990,2.581276,0.42700000000000005,-0.969412,0.9975,-373.345,-190.96
991,113088,2.696932,0.17324,-0.854244,-1.8725,-374.08,-188.475
992,113187,2.821616,0.030012,-0.6422081000000001,-11.2525,-367.0975,-179.865
993,113285,2.786236,-0.09735601,-0.178608,-20.0025,-350.21,-162.5925
994,113383,2.9028680000000002,0.003904,0.246928,-29.26,-312.1475,-137.1475
995,113481,3.0002240000000002,0.03416,0.758596,-30.1,-265.93,-105.875
996,113579,3.371836,-0.008784,1.051884,-35.49,-220.045,-82.81
997,113677,3.5258,-0.16835999999999998,1.3290680000000001,-52.7275,-188.475,-75.145
998,113775,3.3835480000000002,-0.30622,1.5523280000000002,-67.34000999999999,-161.6825,-75.35501
999,113874,3.2208,-0.475312,1.7158080000000002,-58.38,-125.4575,-67.8475
1000,113972,3.0683,-0.637084,1.8104799999999999,-24.85,-79.8175,-51.065
1001,114070,3.017304,-0.773968,1.7565560000000002,16.7825,-29.3125,-27.8775
1002,114168,3.049756,-0.8632719999999999,1.532808,45.6225,16.6775,-0.665
1003,114266,3.2605720000000002,-0.9054840000000001,1.8529360000000001,55.9475,57.89,29.8375
1004,114364,1.024556,-1.143628,3.366224,53.4625,159.04,84.08751
1005,114462,1.609424,-0.160796,-2.11426,-8.6975,205.695,116.025
1006,114560,0.261812,0.9623360999999999,-3.66854,-59.7275,238.84,99.9075
1007,114659,2.511736,1.55306,-0.323544,-11.97,239.68,146.3175
1008,114757,2.633492,1.616012,-1.106784,22.2775,247.24,144.0425
1009,114855,1.8878279999999998,1.139968,-1.526464,44.45,199.5525,58.135
1010,114953,0.614392,-0.22496799999999997,-0.898408,60.1475,154.7,34.16
1011,115051,0.6605081,-0.8493641,-0.6375721,47.425,164.43,46.0075
1012,115149,1.3473680000000001,0.181536,-1.25416,4.62,151.1475,38.9725
1013,115247,3.766628,0.633668,-2.0400840000000002,-25.445,44.59,36.0675
1014,115346,0.357948,0.889868,-1.101172,14.455,-31.605,49.9625
1015,115444,0.149084,0.148108,-0.71004,0.49,33.2325,30.2575
1016,115542,0.868152,-0.07198,-0.60634,2.5725,19.5475,28.1225
1017,115640,0.6405,0.548512,-0.8554641,7.945,1.47,19.075
1018,115738,0.6378159999999999,0.13664,-0.860344,12.39,-9.9925,6.02
1019,115836,0.641964,0.298168,-0.7617681,6.9825,-8.925,3.8325
1020,115934,0.636596,0.154452,-0.792024,3.7975,-2.7825,-0.35
1021,116033,0.5653481,0.20252,-0.81984,-3.0625,1.9775,-6.4925
1022,116131,0.593164,0.246928,-0.7793359999999999,-8.33,5.565,-10.92
1023,116229,0.571692,0.266448,-0.782752,-11.76,10.2725,-13.5275
1024,116327,0.5653481,0.32696,-0.7664041,-13.8775,11.9875,-14.7
1025,116425,0.5675439999999999,0.316224,-0.760792,-13.755,13.93,-14.3325
1026,116523,0.58072,0.33428,-0.7556681,-13.825,15.0325,-13.23
1027,116621,0.611952,0.36478,-0.7356600000000001,-13.3175,16.345,-11.3925
1028,116719,0.59048,0.340624,-0.73688,-12.2325,15.6975,-8.96
1029,116818,0.5726680000000001,0.338916,-0.752984,-11.4625,14.3325,-7.0175
1030,116916,0.558028,0.354044,-0.756644,-11.48,13.3875,-6.37
1031,117014,0.5455840000000001,0.32696,-0.76982,-11.4975,13.2125,-5.6875
1032,117112,0.5604680000000001,0.290604,-0.755912,-11.62,15.4,-5.1625
1033,117210,0.56852,0.30792800000000004,-0.754204,-13.055,18.69,-4.3925
1034,117308,0.61122,0.31476,-0.7137001000000001,-12.39,22.295,-4.1475
1035,117406,0.596336,0.2989,-0.721508,-12.1625,22.4175,-4.4975
1036,117504,0.577548,0.2501,-0.6902761,-12.7225,23.45,-5.285
1037,117603,0.6563601,0.316224,-0.6709999999999999,-16.4675,26.4775,-6.3175
1038,117701,0.626836,0.34867600000000004,-0.6851520999999999,-16.1525,24.885,-5.5125
1039,117799,0.640744,0.32086,-0.658556,-14.0875,22.47,-4.76
1040,117897,0.637084,0.355752,-0.677588,-13.09,19.285,-4.2175
1041,117995,0.623908,0.34648,-0.6917399999999999,-11.6725,15.61,-2.905
1042,118093,0.61732,0.338428,-0.68198,-9.6425,15.2775,-0.5425
1043,118191,0.6219561,0.331352,-0.702476,-8.855,17.36,1.19
1044,118289,0.60634,0.31402800000000003,-0.7015,-8.7325,19.845,2.485
1045,118388,0.579256,0.30841599999999997,-0.7176041,-9.38,24.0625,3.255
1046,118486,0.580232,0.337208,-0.72102,-9.8525,30.975,4.935
1047,118584,0.576816,0.341844,-0.716384,-9.3975,38.0275,7.98
1048,118682,0.5692520000000001,0.315736,-0.740052,-8.5575,46.725,10.9725
1049,118780,0.5443640000000001,0.346724,-0.7468840999999999,-9.345,60.1825,14.35
1050,118878,0.5353359999999999,0.33061999999999997,-0.741272,-12.005,78.9775,18.9
1051,118976,0.582184,0.236192,-0.7388319999999999,-16.6775,104.09,22.54
1052,119075,0.6156119999999999,0.211548,-0.770308,-23.135,132.265,22.575
1053,119173,0.61,0.25424800000000003,-0.780556,-30.31,158.585,19.39
1054,119271,0.597068,0.315492,-0.8095920999999999,-36.6625,188.8425,17.22
1055,119369,0.5702281,0.338672,-0.791292,-41.2475,221.8475,19.18
1056,119467,0.5577840000000001,0.447008,-0.7622561,-50.54,255.9725,20.7725
1057,119565,0.571448,0.47604399999999997,-0.7666480999999999,-58.52,287.945,25.97
1058,119663,0.7500560000000001,0.371612,-0.8132520999999999,-62.9475,319.1825,40.74
1059,119762,0.93086,0.46726,-1.033828,-73.4825,366.52,51.6425
1060,119860,1.317844,0.7017439999999999,-1.09556,-74.375,445.8475,61.7925
1061,119958,1.230004,0.658068,-1.1899879999999998,-72.1175,544.04,87.7975
1062,120056,2.124752,0.6505041,-1.1770559999999999,-82.2675,573.3525,120.8725
1063,120154,3.3308440000000004,1.032608,-1.5677,-108.7625,573.405,154.8575
1064,120252,3.8957040000000003,1.765828,-1.08092,-139.2125,573.405,141.54
1065,120350,2.886032,1.543788,-1.09922,-163.59,566.3525,161.8925
1066,120449,3.759064,1.7385,-2.366068,-138.8975,478.0125,222.845
1067,120547,4.310992,2.131584,-2.628124,-18.69,355.74,192.4125
1068,120645,1.8292680000000001,1.6574919999999997,-4.239256,10.745,288.9075,55.58
1069,120743,0.6141479999999999,0.08759601,-0.5631520000000001,20.8775,104.3525,104.195
1070,120841,3.4386919999999996,2.1996599999999997,-5.2496599999999995,-60.165,129.01,73.36
1071,120939,0.8888921000000001,1.139968,-2.632516,-27.965,-108.6925,28.805
1072,121037,-0.209596,1.0784799999999999,-2.099132,9.6075,-204.33,29.5925
1073,121136,-0.174704,0.8317960999999999,-1.7631439999999998,34.5625,-205.3975,47.145
1074,121234,-0.141764,0.659532,-1.457168,59.22,-219.0125,63.7175
1075,121332,-0.04392,0.55632,-1.30418,69.9475,-227.535,75.5475
1076,121430,0.11955999999999999,0.484828,-1.148508,63.7525,-246.4175,69.44
1077,121528,0.312076,0.51362,-1.076284,47.67,-271.95,51.555
1078,121626,0.410896,0.55998,-0.948184,31.08,-302.9075,28.315
1079,121724,0.45993999999999996,0.590236,-0.79422,20.44,-332.4825,7.9275
1080,121822,0.515572,0.589992,-0.6649,15.6275,-354.445,-7.7175
1081,121921,0.5612,0.575596,-0.550708,14.9275,-369.53,-21.035
1082,122019,0.642452,0.56242,-0.478728,14.0,-378.1925,-34.0375
1083,122117,0.7442,0.563884,-0.472628,11.83,-382.2875,-44.9225
1084,122215,0.9272,0.573156,-0.516792,6.6325,-384.7725,-55.7375
1085,122313,1.111176,0.6280560000000001,-0.57584,-0.2275,-390.4775,-68.0925
1086,122411,1.230736,0.714432,-0.633668,-5.2325,-399.6475,-79.0825
1087,122509,1.37372,0.749568,-0.688812,-6.755,-408.8175,-88.02501
1088,122608,1.50426,0.7539600000000001,-0.702476,-7.9975,-417.165,-97.3
1089,122706,1.4776639999999999,0.692228,-0.6107319999999999,-14.3675,-424.6375,-109.2525
1090,122804,1.506212,0.7044279999999999,-0.636352,-31.01,-421.435,-123.62
1091,122902,1.767048,0.869616,-0.8342360000000001,-51.905,-405.51,-138.9675
1092,123000,2.2191799999999997,1.143628,-1.152412,-65.15250999999999,-387.7475,-155.1725
1093,123098,2.7020560000000002,1.42862,-1.393728,-63.8925,-378.35,-173.5825
1094,123196,3.105876,1.5525719999999998,-1.412028,-48.615,-380.8875,-195.7375
1095,123295,3.355488,1.517924,-1.123132,-26.635,-388.6925,-220.7975
1096,123393,3.3774480000000002,0.9916161,-0.540948,-3.4475,-390.8625,-241.43
1097,123491,3.21592,0.33818400000000004,-0.094672,1.645,-377.9825,-266.9625
1098,123589,3.567768,0.151036,0.252052,-19.075,-343.945,-281.7325
1099,123687,3.7190480000000004,-0.063196,0.576816,-21.4375,-310.345,-256.34
1100,123785,3.72588,-0.38966799999999996,1.05408,-12.25,-272.1425,-205.695
1101,123883,3.738324,-0.765672,1.628944,-12.04,-230.0025,-148.155
1102,123981,3.669028,-0.964044,2.117676,-34.895,-186.095,-97.05501
1103,124080,3.6009519999999995,-1.152656,2.454884,-65.8525,-137.27,-62.5625
1104,124178,3.4650440000000002,-0.9745360000000001,2.496364,-79.03,-80.85,-46.83
1105,124276,3.269844,-0.811056,2.341424,-41.0375,-18.445,-23.2925
1106,124374,3.243004,-0.99918,1.978352,26.25,49.5775,15.365
1107,124472,2.490264,-0.9301280000000001,1.344684,71.96,103.705,54.565
1108,124570,-0.181292,-1.1241079999999999,-1.429108,126.14,157.6575,94.15
1109,124668,-1.42252,-0.533872,-3.7512559999999997,88.48001,176.82,123.0075
1110,124767,0.598532,-0.9079241,0.102968,49.28,277.48,151.1825
1111,124865,3.276432,0.110776,-1.0262639999999998,0.49,314.2475,168.8925
1112,124963,3.2783839999999995,0.697596,-1.9412639999999999,-28.875,262.71,117.11
1113,125061,1.6918959999999998,1.26758,-1.414468,-30.345,206.9725,67.9
1114,125159,0.774944,1.1568040000000002,-0.8015399999999999,-1.89,180.635,73.115
1115,125257,0.630984,0.7088201,-0.44286000000000003,18.095,165.5325,50.505
1116,125355,1.3542,0.321104,-1.032852,25.34,162.575,27.5275
1117,125453,3.282288,1.124596,-3.8503199999999995,38.745,113.6625,47.6175
1118,125552,1.188036,-0.1769,1.212192,56.875,-12.0575,73.5875
1119,125650,0.06880801,0.8574161,-0.9455,12.4075,22.155,43.155
1120,125748,0.8764481,-0.444324,-0.8888921000000001,18.4625,22.1025,22.33
1121,125846,0.6939361,0.38064000000000003,-0.8210601000000001,14.945,4.62,23.205
1122,125944,0.574132,0.25961599999999996,-0.7954399999999999,8.82,-8.295,5.705
1123,126042,0.6156119999999999,0.25254,-0.777872,10.745,-10.5875,3.85
1124,126140,0.6824680000000001,0.183732,-0.7664041,6.3,-4.6375,1.925
1125,126238,0.570472,0.183488,-0.8261841000000001,-0.49,1.61,-4.375
1126,126337,0.5753520000000001,0.257176,-0.788608,-5.775,4.7075,-9.2575
1127,126435,0.591212,0.256932,-0.773724,-9.1525,8.7325,-12.215
1128,126533,0.5663239999999999,0.31476,-0.768356,-12.2675,9.1,-14.2975
1129,126631,0.564616,0.35624,-0.754692,-13.3175,7.875,-14.735
1130,126729,0.5502199999999999,0.369904,-0.75274,-12.7225,7.35,-13.4925
1131,126827,0.5631520000000001,0.393084,-0.74542,-11.165,6.895,-10.465
1132,126925,0.5726680000000001,0.396988,-0.7320001,-8.61,6.1075,-7.14
1133,127024,0.5631520000000001,0.35624,-0.7390760000000001,-6.2125,4.5675,-4.2175
1134,127122,0.5543680000000001,0.315736,-0.7617681,-5.145,3.29,-2.8875
1135,127220,0.5489999999999999,0.29036,-0.765184,-5.11,2.7475,-2.8875
1136,127318,0.54656,0.299632,-0.7659161,-5.6525,1.995,-3.5175
1137,127416,0.5648601,0.282064,-0.7451760000000001,-5.005,2.17,-3.71
1138,127514,0.562176,0.294996,-0.731268,-4.41,2.5375,-3.7975
1139,127612,0.6036560999999999,0.319884,-0.7046720999999999,-3.57,2.7475,-3.0625
1140,127711,0.6231760999999999,0.326228,-0.6885680999999999,-1.9775,1.085,-1.6975
1141,127809,0.6007279999999999,0.340624,-0.69296,-0.4375,-2.8525,-0.8925
1142,127907,0.568276,0.378444,-0.72346,1.8025,-8.4175,0.7875
1143,128005,0.530212,0.371368,-0.737124,4.41,-12.3025,4.6025
1144,128103,0.62098,0.24131599999999997,-0.71858,5.9325,-8.645,8.6975
1145,128201,0.580232,0.24424400000000002,-0.7883640000000001,3.7275,-1.575,7.98
1146,128300,0.571204,0.261812,-0.7571321,2.31,3.185,4.83
1147,128398,0.55388,0.302316,-0.768112,-0.35,9.1525,2.45
1148,128496,0.571936,0.32403200000000004,-0.7517640999999999,-1.3475,15.7675,1.645
1149,128594,0.5309441,0.296704,-0.743468,-2.6775,20.2825,1.575
1150,128692,0.543388,0.285968,-0.77836,-4.165,27.615,2.73
1151,128790,0.499468,0.302804,-0.807884,-8.4,38.1325,4.5675
1152,128888,0.47775200000000007,0.309392,-0.82594,-13.8425,53.3225,7.8225
1153,128987,0.47336000000000006,0.345016,-0.8540000000000001,-18.2875,74.9175,13.0375
1154,129085,0.5016641,0.238144,-0.833992,-17.1675,101.71,17.1325
1155,129183,0.529968,0.233996,-0.8432639999999999,-23.38,129.92,18.4975
1156,129281,0.546804,0.25351599999999996,-0.815692,-29.3825,161.98,19.7925
1157,129379,0.556808,0.3599,-0.8632719999999999,-39.375,200.235,22.68
1158,129477,0.5206960999999999,0.364048,-0.87474,-41.44,239.96,29.3125
1159,129575,0.49263599999999996,0.401868,-0.8235001000000001,-36.8025,275.5025,37.94
1160,129673,0.450668,0.36112,-0.915976,-32.97,315.8225,45.71
1161,129772,0.48848800000000003,0.28011199999999997,-0.8740081000000001,-36.925,356.9125,53.9
1162,129870,0.7893399999999999,0.49776000000000004,-0.8647360000000001,-53.8475,399.0,64.61
1163,129968,1.1599760000000001,0.7517640999999999,-0.9435479999999999,-61.215,448.63,92.3825
1164,130066,1.6206479999999999,0.6541640000000001,-1.009672,-56.28,525.595,141.1725
1165,130164,1.879776,0.7390760000000001,-1.27978,-80.325,571.9525,174.23
1166,130262,2.934344,0.898408,-1.937604,-91.56,573.405,223.825
1167,130360,3.964268,1.3603,-1.2505,-91.035,573.3875,244.93
1168,130459,3.56972,1.575752,-0.9716081,-103.425,573.37,226.1525
1169,130557,3.7861480000000003,1.872212,-1.901736,-101.3775,536.62,273.14
1170,130655,3.8410480000000002,2.4522,-3.217384,-7.63,390.74,250.88
1171,130753,3.317668,1.6643240000000001,-3.6177879999999996,69.66751,299.88,78.33
1172,130851,-0.360388,0.180316,-1.815848,76.58,154.385,146.51
1173,130949,2.8652919999999997,1.712392,-5.289187999999999,41.545,88.6725,84.14001
1174,131047,1.2214639999999999,1.341024,-3.11222,-38.6575,-57.5225,-0.0875
1175,131146,-0.460672,1.148264,-2.112552,2.24,-227.0975,-21.315
1176,131244,-0.30256,0.931348,-1.9776200000000002,18.2875,-206.29,-5.075
1177,131342,-0.191296,0.657092,-1.6574919999999997,39.83,-210.0,0.4025
1178,131440,-0.079056,0.532408,-1.528904,47.5825,-223.0375,5.705
1179,131538,0.09930800000000001,0.398452,-1.3534680000000001,34.685,-246.855,-7.0875
1180,131636,0.31476,0.439932,-1.288808,12.7575,-278.845,-30.0825
1181,131734,0.39161999999999997,0.47555600000000003,-1.140944,-4.7075,-316.12,-54.39
1182,131832,0.46774799999999994,0.42700000000000005,-0.9901521000000001,-11.445,-346.71,-71.9775
1183,131931,0.5948720000000001,0.34526,-0.8815719999999999,-13.405,-367.745,-84.98
1184,132029,0.73932,0.288164,-0.782752,-15.5925,-385.7175,-96.3025
1185,132127,0.8852321,0.268888,-0.7361481,-18.55,-399.63,-104.4225
1186,132225,1.005036,0.270352,-0.702964,-20.09,-410.8125,-107.17
1187,132323,1.054568,0.23301999999999998,-0.668316,-20.1425,-418.8275,-103.9325
1188,132421,1.1958440000000001,0.24107199999999998,-0.750788,-24.2025,-419.8425,-100.205
1189,132519,1.374208,0.31402800000000003,-0.8571719999999999,-30.7125,-420.7525,-98.40250999999999
1190,132617,1.450092,0.396988,-0.935984,-37.59,-425.32,-98.2275
1191,132716,1.481568,0.431148,-0.9557479999999999,-42.875,-428.9775,-99.26001
1192,132814,1.571116,0.442616,-1.037488,-52.535,-427.7525,-105.3675
1193,132912,1.7653400000000001,0.536556,-1.2080440000000001,-64.8375,-421.4875,-117.25
1194,133010,2.001532,0.762988,-1.5013319999999999,-73.02750999999999,-415.135,-133.035
1195,133108,2.395348,1.000888,-1.832928,-70.105,-411.3725,-149.905
1196,133206,2.772328,1.047492,-1.8849,-54.7225,-414.75,-171.5175
1197,133304,2.93044,0.42773199999999995,-1.528904,-38.2375,-418.0925,-201.005
1198,133403,3.2427599999999996,0.26352,-1.363472,-39.1825,-408.625,-231.07
1199,133501,3.7105080000000004,0.30841599999999997,-1.0582280000000002,-33.915,-396.0775,-230.93
1200,133599,4.049424,0.581208,-0.47702,-9.1525,-383.32,-207.025
1201,133697,4.006480000000001,0.323788,0.531188,31.2375,-363.685,-171.955
1202,133795,3.5772839999999997,-0.49605200000000005,1.7326439999999999,44.555,-327.6,-142.2575
1203,133893,3.267404,-0.992348,2.503196,-7.245,-264.005,-129.535
1204,133991,3.361832,-0.806176,2.579812,-87.15,-184.6775,-129.2725
1205,134089,3.6051,-0.873764,2.502952,-102.27,-104.16,-123.725
1206,134188,4.10286,-0.840824,2.440244,-62.335,-29.82,-121.9225
1207,134286,3.918884,-0.9010921000000001,2.441464,18.3925,24.29,-95.7775
1208,134384,3.5797239999999997,-1.432768,2.214788,92.6625,79.7475,-39.41
1209,134482,3.4279559999999996,-1.42496,1.622844,96.74,128.1175,3.29
1210,134580,1.041636,-1.242448,0.178852,53.655,147.84,34.335
1211,134678,-1.6084479999999999,-0.8410681000000001,-3.939136,-7.5775,92.69751,64.365
1212,134776,-2.616412,0.854244,-1.667252,-14.2625,164.9025,174.0025
1213,134875,1.724836,0.740296,1.49694,-5.5475,358.54,252.9275
1214,134973,4.84828,1.6104,-1.9529759999999998,0.91,396.9525,196.1575
1215,135071,3.948164,1.097756,-2.4490279999999998,-7.735,276.4475,62.965
1216,135169,1.51768,0.05002,-1.4393559999999999,29.8025,210.525,42.5075
1217,135267,0.49605200000000005,-0.13176,-0.5736441,36.3125,179.515,69.86
1218,135365,0.571936,0.290116,-0.48702399999999996,14.315,169.1725,50.7325
1219,135463,1.802916,1.2153639999999999,-2.033008,12.39,159.2325,54.5475
1220,135562,3.4438160000000004,0.282552,-1.017724,65.24,55.7375,66.1675
1221,135660,0.28767600000000004,-0.14688800000000002,-0.820816,63.8575,-10.8325,60.095
1222,135758,0.376248,0.561688,-0.9555040000000001,16.695,37.3275,37.1175
1223,135856,0.8805960999999999,0.18544000000000002,-0.6161,13.9475,13.93,29.61
1224,135954,0.611952,0.213256,-0.8422879999999999,12.8275,0.77,16.555
1225,136052,0.549488,0.42553599999999997,-0.8308200000000001,9.065,-6.895,8.575
1226,136150,0.658068,0.24570799999999998,-0.755424,10.4125,-8.6625,7.9625
1227,136248,0.617564,0.15762400000000001,-0.792756,7.945,-3.2025,3.815
1228,136347,0.571448,0.257664,-0.7861680999999999,1.68,0.8925,-2.345
1229,136445,0.598532,0.265472,-0.760792,-1.505,4.62,-5.635
1230,136543,0.5785241,0.312808,-0.756156,-4.3925,7.175,-7.945
1231,136641,0.5489999999999999,0.3233,-0.7610359999999999,-6.265,5.985,-9.0825
1232,136739,0.5368,0.331596,-0.768844,-8.015,5.6175,-9.1
1233,136837,0.564616,0.340136,-0.765428,-10.115,6.37,-8.5575
1234,136935,0.58804,0.3233,-0.749812,-10.8325,7.91,-7.56
1235,137034,0.597312,0.345504,-0.749324,-10.5,7.8925,-6.8075
1236,137132,0.596336,0.34404,-0.7510321,-9.5375,6.5975,-6.265
1237,137230,0.586332,0.302316,-0.755424,-8.5225,5.25,-6.0375
1238,137328,0.571448,0.273036,-0.7666480999999999,-9.1,4.6025,-6.8775
1239,137426,0.5697399999999999,0.26596,-0.755424,-10.2375,5.04,-8.4175
1240,137524,0.54656,0.282308,-0.747128,-11.7425,6.5275,-9.7825
1241,137622,0.564372,0.27889200000000003,-0.727608,-11.9875,8.715,-9.94
1242,137721,0.574132,0.30353600000000003,-0.7139439999999999,-12.0575,10.1675,-9.4325
1243,137819,0.5934081,0.3477,-0.696864,-11.095,9.52,-8.295
1244,137917,0.633912,0.343308,-0.676856,-9.1175,8.54,-6.16
1245,138015,0.599996,0.37258800000000003,-0.6944241,-7.6475,6.1775,-3.745
1246,138113,0.563884,0.371612,-0.715896,-5.46,1.3825,-0.875
1247,138211,0.577548,0.362584,-0.7156520000000001,-3.465,-0.3675,2.59
1248,138309,0.5663239999999999,0.33818400000000004,-0.7439560000000001,0.8225,-0.105,6.125
1249,138408,0.611952,0.32403200000000004,-0.72224,2.4675,2.8,8.225
1250,138506,0.579012,0.316956,-0.745664,1.19,9.2225,9.135
1251,138604,0.5777920999999999,0.29377600000000004,-0.746152,-1.085,14.9275,9.2225
1252,138702,0.545096,0.280844,-0.7771399999999999,-3.9725,22.96,9.87
1253,138800,0.5131319999999999,0.28694400000000003,-0.7869,-5.985,35.3675,11.55
1254,138898,0.5009319999999999,0.27084,-0.798856,-8.085,52.15,14.1925
1255,138996,0.502884,0.24936799999999998,-0.80276,-10.815,72.2575,16.765
1256,139094,0.499468,0.20178800000000002,-0.8254520000000001,-17.71,95.4625,17.675
1257,139193,0.519964,0.28328400000000004,-0.8479,-24.9375,123.0775,18.4625
1258,139291,0.549244,0.305976,-0.812032,-30.3975,155.26,21.0875
1259,139389,0.5673,0.334768,-0.836676,-36.4175,191.8875,25.8125
1260,139487,0.543876,0.310856,-0.8174001000000001,-40.3725,229.3375,31.15
1261,139585,0.512644,0.43676000000000004,-0.8103239999999999,-44.0475,266.6825,35.455
1262,139683,0.453596,0.410408,-0.841556,-42.7,304.2375,40.95
1263,139781,0.5160600000000001,0.285968,-0.8488761,-44.6075,344.4875,49.595
1264,139880,0.811056,0.456524,-0.8845,-65.7475,386.435,56.6125
1265,139978,1.087752,0.708332,-0.8949921000000001,-68.145,442.61,74.4275
1266,140076,1.51768,0.712236,-1.14802,-59.22,522.445,113.05
1267,140174,1.537444,0.909632,-1.210972,-73.36,571.27,154.98
1268,140272,2.751588,0.757376,-1.110444,-88.7425,573.405,201.7575
1269,140370,4.112864,0.8698601,-1.867576,-104.195,573.405,223.5625
1270,140468,3.170292,1.7821759999999998,-0.859856,-125.475,573.3,191.1875
1271,140567,3.4574800000000003,1.6918959999999998,-1.867088,-125.615,537.1975,229.95
1272,140665,3.5048160000000004,2.13378,-2.894084,-65.38,452.585,251.44
1273,140763,4.600376,1.3163799999999999,-3.579968,14.455,332.0625,83.125
1274,140861,-0.576084,0.48922,-4.047716,25.7775,222.04,139.965
1275,140959,1.9646880000000002,1.0147959999999998,-3.632428,47.425,28.5075,91.875
1276,141057,1.928332,1.594052,-3.656828,-78.34751,-13.3875,28.945
1277,141155,-0.187636,1.05408,-2.007876,-24.99,-242.4625,1.5225
1278,141253,-0.217648,1.047248,-1.993968,-6.6325,-229.53,24.0975
1279,141352,-0.050752,0.780556,-1.659688,17.9375,-224.49,36.085
1280,141450,0.030744,0.645868,-1.443748,34.965,-245.91,43.9425
1281,141548,0.128588,0.526552,-1.241716,29.89,-268.275,36.2775
1282,141646,0.28914,0.5063,-1.1041,11.095,-296.1175,13.2475
1283,141744,0.380396,0.5734,-0.9784401,-8.4525,-324.975,-15.0325
1284,141842,0.448716,0.600484,-0.8459479999999999,-18.655,-349.8075,-39.8125
1285,141940,0.5368,0.596336,-0.7366361,-18.375,-367.0275,-59.255
1286,142038,0.661728,0.590724,-0.6709999999999999,-12.1275,-379.085,-75.0925
1287,142137,0.781776,0.5577840000000001,-0.620492,-3.5,-387.1875,-86.7475
1288,142235,0.868884,0.5246,-0.5897479999999999,3.78,-392.8925,-94.395
1289,142333,0.953308,0.4758,-0.599264,5.775,-395.08,-100.345
1290,142431,1.124596,0.467016,-0.666608,0.6475,-395.4825,-107.1175
1291,142529,1.320284,0.542412,-0.741272,-8.3475,-399.5075,-114.625
1292,142627,1.4598520000000001,0.6156119999999999,-0.805688,-16.2225,-407.155,-121.4675
1293,142725,1.555012,0.6480640000000001,-0.8471681000000001,-20.44,-413.4725,-127.295
1294,142823,1.6091799999999998,0.657092,-0.8620521000000001,-23.975,-417.4975,-132.8425
1295,142922,1.7453319999999999,0.707356,-0.9696561,-30.52,-415.415,-139.335
1296,143020,1.889048,0.8142281,-1.139724,-38.64,-410.8125,-148.6975
1297,143118,2.179164,1.029436,-1.441552,-44.9575,-405.72,-160.23
1298,143216,2.5988439999999997,1.158756,-1.653832,-46.2,-403.1125,-176.2075
1299,143314,3.058296,1.170712,-1.62626,-44.5725,-402.85,-197.295
1300,143412,3.4189279999999997,1.130452,-1.3290680000000001,-46.515,-401.7825,-218.6975
1301,143510,3.499692,0.643184,-0.6756361,-48.895,-399.5425,-232.0325
1302,143609,3.4550400000000003,0.1769,-0.236192,-62.4225,-385.4725,-254.4675
1303,143707,3.8168919999999997,0.260592,0.386008,-83.755,-351.4525,-266.805
1304,143805,3.796396,-0.011224,0.9057280999999999,-65.24,-309.96,-235.62
1305,143903,3.578992,-0.5577840000000001,1.5464719999999998,-37.59,-252.8575,-193.8825
1306,144001,3.62218,-0.9010921000000001,2.037644,-26.4425,-189.7175,-158.095
1307,144099,3.952068,-1.324188,2.406816,-25.8125,-130.48,-122.535
1308,144197,4.375164,-1.476444,2.827228,-33.11,-80.0275,-96.5825
1309,144296,3.770776,-1.343464,3.000712,-25.3225,-35.21,-64.2425
1310,144394,3.200792,-1.209752,2.587132,14.6825,36.995,-9.2575
1311,144492,3.3242559999999997,-1.151924,1.7970599999999999,54.1975,113.4175,40.355
1312,144590,1.194868,-0.678808,-0.29036,58.1,150.5175,68.7575
1313,144688,-1.196576,-0.837408,-3.217384,89.72251,106.6625,77.98
1314,144786,-1.9232080000000003,0.06270801,-2.3921759999999996,70.245,181.0725,143.9025
1315,144884,1.13216,-0.1769,0.8727879999999999,29.75,344.3475,218.225
1316,144983,4.31758,-0.1647,-1.647732,29.1375,369.11,209.5275
1317,145081,4.049912,0.6158561,-2.279692,-19.25,272.02,97.51
1318,145179,1.8351240000000002,0.755912,-1.4988920000000001,-11.7775,207.8125,54.81
1319,145277,0.472384,1.039928,-0.67466,12.3025,171.8675,77.3325
1320,145375,0.293532,0.9345201,-0.255956,26.285,161.28,48.0375
1321,145473,2.431216,1.12606,-2.691076,63.14,162.82,54.1625
1322,145571,3.1634599999999997,-1.15656,-0.413092,113.68,48.125,90.65001
1323,145670,-0.388692,0.8796200000000001,-0.9779521000000001,33.145,5.1275,60.0425
1324,145768,0.7324881,-0.098576,-0.695156,12.355,7.14,25.2525
1325,145866,0.8210601000000001,0.17446,-0.8805960999999999,26.705,-9.03,28.8575
1326,145964,0.671976,0.18422,-0.828868,18.0425,-13.1775,12.53
1327,146062,0.572912,0.361852,-0.801296,10.3425,-8.61,5.0575
1328,146160,0.6539201,0.239364,-0.759572,9.1875,-5.845,4.1825
1329,146258,0.6368401,0.16592,-0.8030041,6.8425,0.735,1.61
1330,146356,0.565104,0.232776,-0.806908,-0.07,3.4825,-4.0075
1331,146455,0.602436,0.22082,-0.7761640999999999,-3.885,7.4375,-7.6475
1332,146553,0.565104,0.284748,-0.7795801,-7.6825,8.505,-10.2725
1333,146651,0.5697399999999999,0.294508,-0.7747001,-9.5725,7.7175,-11.655
1334,146749,0.5751081,0.321104,-0.7734800000000001,-10.745,7.5425,-11.8475
1335,146847,0.588284,0.33379200000000003,-0.766892,-10.955,7.21,-10.9725
1336,146945,0.581696,0.369904,-0.7517640999999999,-10.3775,7.0175,-9.17
1337,147043,0.5826720000000001,0.367952,-0.752496,-8.855,6.0025,-6.8775
1338,147142,0.5846241,0.33379200000000003,-0.7478600000000001,-7.7,4.41,-5.1275
1339,147240,0.558028,0.28694400000000003,-0.758108,-7.98,3.325,-4.8475
1340,147338,0.5404601,0.278648,-0.781044,-9.5725,4.13,-5.5825
1341,147436,0.522404,0.261324,-0.7712840999999999,-11.13,7.595,-6.0725
1342,147534,0.57828,0.253272,-0.7503,-12.5825,12.9675,-6.7375
1343,147632,0.5919439999999999,0.264008,-0.73688,-14.3675,16.625,-8.75
1344,147730,0.5736441,0.297192,-0.7288279999999999,-15.155,18.55,-10.1325
1345,147829,0.594384,0.303292,-0.7171161,-14.5775,19.075,-10.045
1346,147927,0.6168319999999999,0.30988000000000004,-0.6834439999999999,-13.1775,19.0225,-9.2225
1347,148025,0.5887720000000001,0.36112,-0.6883239999999999,-11.4625,17.5525,-7.595
1348,148123,0.590236,0.415288,-0.697108,-9.205,13.23,-4.41
1349,148221,0.57096,0.38674000000000003,-0.718092,-4.6375,9.9925,0.7525
1350,148319,0.57096,0.35502,-0.72102,-1.1025,8.9075,5.88
1351,148417,0.582428,0.318176,-0.7200439999999999,-0.5075,10.325,8.785
1352,148516,0.5738880000000001,0.273524,-0.718824,-1.645,14.1575,9.135
1353,148614,0.5946279999999999,0.285968,-0.765672,-4.865,20.79,7.4375
1354,148712,0.57096,0.28181999999999996,-0.72712,-6.475,26.8625,6.9125
1355,148810,0.571204,0.2806,-0.764452,-8.26,37.625,7.035
1356,148908,0.535092,0.29792399999999997,-0.8020281,-11.1125,49.0525,8.505
1357,149006,0.5233800000000001,0.277428,-0.7869,-12.425,67.9875,11.4975
1358,149104,0.5206960999999999,0.267424,-0.783972,-16.765,88.9525,14.5775
1359,149202,0.539484,0.227652,-0.8054439999999999,-20.51,112.875,16.7125
1360,149301,0.542656,0.251076,-0.784704,-27.5975,140.56,17.325
1361,149399,0.593896,0.30134,-0.8332601000000001,-35.945,179.2525,17.815
1362,149497,0.594384,0.313296,-0.8174001000000001,-40.355,214.62,20.02
1363,149595,0.5690081,0.36234,-0.815448,-44.135,246.89,23.345
1364,149693,0.55388,0.449692,-0.813008,-47.9325,280.525,26.25
1365,149791,0.582916,0.365512,-0.892552,-51.485,313.775,33.7225
1366,149889,0.71126,0.35526399999999997,-0.868152,-64.61,347.7075,44.3975
1367,149988,0.9777081,0.7832399999999999,-0.9503799999999999,-79.3975,393.33,60.0425
1368,150086,1.298324,0.844484,-0.983808,-77.49,461.2125,98.0
1369,150184,1.321504,0.821792,-1.312476,-80.22,549.99,148.89
1370,150282,2.496852,0.7571321,-1.328824,-96.39,573.3875,192.5525
1371,150380,3.4050199999999995,0.9037761000000001,-1.511336,-114.4675,573.405,240.275
1372,150478,3.26472,1.573556,-0.869128,-135.555,573.405,210.35
1373,150576,2.778428,1.1831559999999999,-0.983564,-137.5675,566.195,205.1175
1374,150675,3.266184,1.545008,-2.181848,-109.865,494.655,265.1425
1375,150773,4.2517,2.023248,-2.73768,-40.1275,400.715,196.4375
1376,150871,2.599576,1.7043400000000002,-4.055768,-23.4325,334.32,48.23
1377,150969,0.7612800999999999,0.157136,-0.9852719999999999,22.26,124.145,137.445
1378,151067,3.3725680000000002,2.108892,-5.344576,-5.95,69.8425,79.9925
1379,151165,1.330532,1.3146719999999998,-2.989244,-27.3,-128.8,12.565
1380,151263,-0.21838000000000002,1.080188,-2.051552,9.975,-265.8775,-4.0775
1381,151362,-0.173728,0.77104,-1.8282919999999998,31.955,-243.0225,12.4775
1382,151460,-0.08564401,0.5011760000000001,-1.4593639999999999,42.9625,-253.68,18.5325
1383,151558,-0.01464,0.42456000000000005,-1.291492,38.535,-260.82,19.2675
1384,151656,0.23741199999999998,0.423584,-1.2019440000000001,16.5725,-277.235,0.91
1385,151754,0.47165200000000007,0.5502199999999999,-1.16754,-4.83,-304.6925,-27.2125
1386,151852,0.5814520000000001,0.643428,-1.086288,-13.58,-338.8175,-55.475
1387,151950,0.6344,0.6182960999999999,-0.9486720999999999,-9.0825,-369.4775,-78.9075
1388,152049,0.677344,0.561932,-0.802272,2.38,-390.67,-97.965
1389,152147,0.8076399999999999,0.5124001,-0.72468,13.615,-403.235,-113.505
1390,152245,0.8752280000000001,0.45383999999999997,-0.621468,23.8525,-413.245,-124.5475
1391,152343,0.85888,0.453108,-0.531188,36.0325,-416.5875,-125.9125
1392,152441,0.9235399999999999,0.380884,-0.486048,45.395,-411.25,-119.56
1393,152539,1.050176,0.330864,-0.5455840000000001,46.41,-402.0275,-111.4925
1394,152637,1.369328,0.35160399999999997,-0.754692,36.8375,-394.205,-106.9425
1395,152736,1.66652,0.467992,-0.942572,21.0875,-399.3325,-107.8175
1396,152834,1.7873,0.5856,-1.029924,9.8525,-412.545,-108.15
1397,152932,1.851716,0.641232,-1.13826,1.6625,-423.5525,-107.485
1398,153030,1.9949439999999998,0.6946681,-1.2641639999999998,-8.4875,-430.15,-110.0225
1399,153128,2.204052,0.8396040000000001,-1.440332,-20.405,-434.1575,-117.495
1400,153226,2.5583400000000003,1.041636,-1.6043,-34.93,-434.9625,-129.99
1401,153325,2.9504479999999997,1.194868,-1.593076,-46.8475,-436.73,-147.1575
1402,153423,3.266916,1.191208,-1.291248,-51.3275,-435.0675,-165.69
1403,153521,3.421124,1.0384639999999998,-0.752984,-55.6675,-425.565,-180.635
1404,153619,3.133204,0.221308,-0.052948,-65.31,-407.47,-196.9275
1405,153717,3.475536,0.389912,0.343064,-98.5075,-366.2925,-217.2975
1406,153815,3.488956,0.18178,0.892308,-100.3275,-319.7775,-204.5225
1407,153913,3.386964,-0.183488,1.2822200000000001,-88.55,-255.885,-183.54
1408,154012,3.5089639999999997,-0.398452,1.689456,-66.5875,-190.26,-173.285
1409,154110,4.152392,-0.8291120999999999,2.0996200000000003,-33.1975,-131.9325,-162.6625
1410,154208,4.794844,-1.242692,2.965332,-0.385,-86.66,-147.0175
1411,154306,3.838364,-1.527196,3.66244,27.6325,-51.87,-109.4625
1412,154404,2.813564,-1.339804,3.244712,47.7575,31.465,-41.6325
1413,154502,3.011448,-1.03334,2.108892,67.69001,131.2325,14.8225
1414,154600,2.637884,-0.49044,0.773724,66.3075,187.145,32.2175
1415,154698,1.667252,1.013576,-3.8205519999999997,71.1725,169.5225,43.1725
1416,154797,-2.712792,-0.195932,-2.0474040000000002,83.0375,118.79,76.2825
1417,154895,-0.7078439999999999,0.378444,-0.068076,33.4775,324.905,200.2175
1418,154993,4.69334,-0.603168,-0.9208561,36.575,416.815,251.895
1419,155091,4.7992360000000005,0.113704,-2.106208,8.05,307.825,162.96
1420,155189,2.582496,0.392596,-2.036668,2.87,232.3825,42.9625
1421,155287,0.23155599999999998,0.380152,-0.786412,9.555,176.75,54.0925
1422,155385,0.219356,0.8720559999999999,-0.190564,13.2825,182.28,58.765
1423,155483,4.718716000000001,1.58722,-3.991108,57.4875,157.5175,69.195
1424,155582,1.086288,-1.3969,1.136552,139.3175,5.0575,103.7925
1425,155680,0.044407999999999996,0.359656,-1.4034879999999998,-7.42,-7.4725,34.4575
1426,155778,1.0018639999999999,0.40357600000000005,-0.74664,39.97,-20.3875,27.4925
1427,155876,0.655384,0.000976,-0.828624,23.1,-17.9725,20.895
1428,155974,0.656116,0.14762,-0.815692,15.75,-8.5575,9.4325
1429,156072,0.61732,0.319884,-0.796172,4.2,-2.38,0.56
1430,156170,0.645868,0.194468,-0.785192,3.29,3.395,-1.5925
1431,156268,0.590968,0.23692399999999997,-0.81618,-1.4,6.685,-4.9
1432,156367,0.620492,0.19032000000000002,-0.7849480999999999,-5.39,9.905,-8.4
1433,156465,0.598532,0.2562,-0.781776,-9.0475,13.44,-11.5675
1434,156563,0.574864,0.252052,-0.777628,-11.1475,13.8425,-13.16
1435,156661,0.571204,0.28987199999999996,-0.7793359999999999,-12.6875,14.455,-14.2625
1436,156759,0.56852,0.288408,-0.781044,-13.615,14.5075,-14.84
1437,156857,0.5887720000000001,0.346236,-0.766892,-13.79,15.3125,-14.0525
1438,156955,0.59658,0.367708,-0.74908,-12.8275,13.86,-11.9
1439,157054,0.566812,0.308172,-0.7556681,-10.78,11.6725,-10.08
1440,157152,0.5787680000000001,0.304268,-0.765184,-10.4825,12.1625,-9.4325
1441,157250,0.546804,0.253272,-0.765672,-11.095,12.8975,-9.8
1442,157348,0.5734,0.21838000000000002,-0.771528,-15.54,17.535,-10.3425
1443,157446,0.570472,0.22252800000000003,-0.765428,-20.37,24.535,-12.005
1444,157544,0.5753520000000001,0.239608,-0.735416,-24.3075,29.085,-13.335
1445,157642,0.514108,0.332572,-0.7168720000000001,-25.1475,33.3725,-12.915
1446,157740,0.6319600000000001,0.361852,-0.692228,-21.945,40.6,-9.94
1447,157839,0.620736,0.355752,-0.673928,-19.6,41.1075,-6.2125
1448,157937,0.648308,0.366732,-0.6566041,-16.415,36.54,-3.185
1449,158035,0.6844201,0.34794400000000003,-0.650748,-13.195,29.4175,-1.295
1450,158133,0.6688041,0.354288,-0.6566041,-7.91,21.42,1.6275
1451,158231,0.644648,0.37258800000000003,-0.670512,-3.0275,14.07,4.76
1452,158329,0.622688,0.360632,-0.68686,1.645,9.0475,8.4175
1453,158427,0.604632,0.328912,-0.692228,5.495,7.805,12.1275
1454,158526,0.6263479999999999,0.338428,-0.7007680000000001,6.86,9.9225,14.6125
1455,158624,0.6109760000000001,0.274988,-0.695156,7.28,10.955,15.9775
1456,158722,0.62708,0.25351599999999996,-0.71614,6.195,15.225,16.0125
1457,158820,0.5726680000000001,0.266692,-0.7600600000000001,3.22,21.385,15.1725
1458,158918,0.5602239999999999,0.25790799999999997,-0.7600600000000001,0.595,33.495,15.61
1459,159016,0.5724239999999999,0.246196,-0.783728,-3.745,50.4175,17.85
1460,159114,0.5463161,0.180316,-0.8076399999999999,-8.3475,69.52750999999999,18.725
1461,159213,0.567788,0.182756,-0.7722600000000001,-14.42,93.8,18.0425
1462,159311,0.58194,0.19154000000000002,-0.823744,-21.2275,125.1775,16.485
1463,159409,0.5858439999999999,0.21838000000000002,-0.8047121,-26.67,158.97,14.28
1464,159507,0.562664,0.245464,-0.7983680000000001,-34.02,193.6725,12.9675
1465,159605,0.53314,0.2684,-0.7991,-42.8575,230.5275,12.985
1466,159703,0.57218,0.413092,-0.8086161000000001,-55.7025,268.3625,12.2675
1467,159801,0.60634,0.5063,-0.9235399999999999,-69.3,301.1225,14.805
1468,159899,0.7239479999999999,0.5443640000000001,-0.9010921000000001,-80.885,335.23,26.67
1469,159997,1.031388,0.5587601,-0.9296399999999999,-80.605,389.7425,46.7775
1470,160096,1.3083280000000002,0.45725600000000005,-1.279536,-77.805,471.8,69.80751
1471,160194,1.22732,0.68076,-1.430816,-84.01751,558.2325,90.00251
1472,160292,2.01056,0.8744960999999999,-1.217316,-76.1075,573.405,123.795
1473,160390,3.6773239999999996,1.335412,-0.9801479999999999,-117.0575,573.405,129.4475
1474,160488,3.8593480000000002,1.05774,-0.9269561,-199.85,572.67,136.675
1475,160586,3.6473120000000003,1.266604,-1.354932,-214.13,525.35,166.915
1476,160684,4.06626,1.83,-2.653988,-94.01,340.6375,197.715
1477,160783,3.1781,1.102392,-2.007144,33.2675,190.6975,102.9525
1478,160881,-0.8388721,0.760304,-2.695712,-20.405,147.315,81.025
1479,160979,2.41316,1.611376,-3.8349480000000002,-24.745,146.3175,84.5425
1480,161077,1.341756,1.49938,-3.4630919999999996,-31.045,8.155,70.315
1481,161175,-0.373564,0.8857200999999999,-1.987624,30.2225,-171.255,56.8925
1482,161273,-0.262544,0.8708360999999999,-1.938092,33.6,-152.5825,80.29
1483,161371,-0.267424,0.71126,-1.547448,56.9975,-177.7475,101.8325
1484,161469,-0.127368,0.726876,-1.43472,70.6125,-190.1725,121.7125
1485,161568,0.07002799999999999,0.712724,-1.289784,74.4275,-212.87,127.5225
1486,161666,0.263276,0.74664,-1.180472,69.9475,-244.6675,118.475
1487,161764,0.351848,0.780312,-1.037,59.675,-281.3475,99.4875
1488,161862,0.386496,0.8042239999999999,-0.846924,48.755,-315.8225,76.405
1489,161960,0.46116,0.8657120999999999,-0.683932,40.39,-341.005,55.265
1490,162058,0.5873079999999999,0.94306,-0.595604,33.7575,-358.295,35.9625
1491,162156,0.6836880999999999,1.019188,-0.5043479999999999,30.135,-372.89,16.24
1492,162255,0.786656,1.1102,-0.47555600000000003,28.6475,-383.145,-4.5675
1493,162353,0.9179280000000001,1.2043840000000001,-0.471408,28.8575,-389.0775,-25.585
1494,162451,1.034316,1.250988,-0.464088,30.8875,-393.9425,-47.46
1495,162549,1.135576,1.281976,-0.471408,32.4975,-396.76,-68.6
1496,162647,1.302716,1.299788,-0.5038600000000001,30.1175,-397.3725,-89.1975
1497,162745,1.4835200000000002,1.333704,-0.5429,22.89,-397.7575,-109.06
1498,162843,1.597956,1.363228,-0.575596,11.8475,-399.6125,-128.66
1499,162942,1.730448,1.504504,-0.6954,-1.96,-398.65,-147.6825
1500,163040,2.0230040000000002,1.680916,-0.8901120000000001,-13.02,-394.66,-167.02
1501,163138,2.316292,1.767048,-1.015772,-15.5225,-392.91,-187.9325
1502,163236,2.619828,1.6921400000000002,-1.038708,-16.0825,-392.175,-213.885
1503,163334,2.8469919999999997,1.60796,-0.9418401,-24.0275,-388.0625,-243.635
1504,163432,3.067324,1.581364,-0.7625,-37.2225,-379.785,-271.6875
1505,163530,3.266184,1.571848,-0.504592,-45.5525,-366.45,-293.895
1506,163629,3.47212,1.5494,-0.21057199999999998,-43.5225,-344.9075,-309.0325
1507,163727,3.603636,1.40056,0.158112,-32.8825,-316.6275,-317.6425
1508,163825,3.2408080000000004,0.397476,0.621468,-23.5375,-284.095,-325.4125
1509,163923,3.286924,0.52704,0.8261841000000001,-53.9525,-235.4975,-356.0725
1510,164021,3.568256,0.712724,1.247328,-65.345,-176.225,-368.375
1511,164119,3.6173,0.680028,1.687016,-22.0675,-121.4325,-345.415
1512,164217,3.417464,0.05612,2.2648080000000004,43.0325,-68.425,-306.7575
1513,164316,3.404532,-0.58804,2.614948,78.41751,-12.495,-276.605
1514,164414,3.100508,-0.7722600000000001,2.632516,61.95,43.12,-259.245
1515,164512,2.863584,-0.501908,2.234064,38.0625,106.9075,-242.9
1516,164610,2.9731400000000003,-0.180072,1.54208,48.37,171.64,-217.5775
1517,164708,3.001932,-0.191296,0.948184,86.27501,213.5175,-185.1675
1518,164806,2.84748,-0.43798000000000004,0.454816,111.7725,231.07,-156.3275
1519,164904,0.8010520000000001,0.441396,-1.288076,107.415,221.8825,-139.44
1520,165003,-0.187636,-1.667252,-2.663992,155.855,174.9475,-138.2325
1521,165101,-0.284016,-3.487248,-1.22732,138.3025,237.4925,-112.8575
1522,165199,1.6540759999999999,-3.6275480000000004,-0.506788,-11.235,325.115,-71.2425
1523,165297,3.6426760000000002,-1.874652,-2.237968,-105.9625,338.5375,27.405
1524,165395,3.738324,1.004792,-2.413648,-150.92,263.0075,90.00251
1525,165493,1.884412,3.29156,-0.9459880999999999,-133.4025,171.535,90.3175
1526,165591,1.6104,4.115548,-0.42578,-14.6125,112.2975,49.28
1527,165690,0.41553199999999996,-0.8935280999999999,-0.92232,135.835,90.8075,30.6425
1528,165788,2.4817240000000003,-2.36558,-2.287256,85.83751,97.6675,55.2125
1529,165886,0.459208,1.926136,-0.332816,-19.7225,20.6325,53.445
1530,165984,0.339404,0.9633120999999999,-0.645868,-9.73,33.4075,37.975
1531,166082,0.8383841000000001,-0.564616,-1.1333799999999998,30.24,6.8075,43.435
1532,166180,0.6527,1.017724,-0.7332201,12.4775,-29.3475,42.63
1533,166278,0.5653481,-0.002928,-0.945744,36.0675,-24.92,28.9625
1534,166376,0.6558721,0.40967600000000004,-0.7256560000000001,27.335,-18.62,23.2925
1535,166475,0.623908,0.128344,-0.845216,27.265,-10.78,20.65
1536,166573,0.6304960000000001,0.203252,-0.818376,22.5225,-6.2125,18.095
1537,166671,0.661728,0.133956,-0.806908,14.3675,2.345,13.44
1538,166769,0.60634,0.24058400000000002,-0.8108121,8.505,6.1075,9.8
1539,166867,0.596336,0.24131599999999997,-0.806176,6.1075,6.1075,7.455
1540,166965,0.599996,0.23228800000000002,-0.8020281,4.06,6.545,6.125
1541,167063,0.584136,0.228872,-0.7922680000000001,0.805,8.19,4.2875
1542,167162,0.5675439999999999,0.221552,-0.8164239999999999,-1.4,9.1,2.1
1543,167260,0.537532,0.205204,-0.8149601,-2.415,10.7975,-0.63
1544,167358,0.538996,0.24497600000000003,-0.780068,-4.025,16.73,-3.3425
1545,167456,0.5738880000000001,0.21008400000000002,-0.787144,-4.025,26.5125,-4.795
1546,167554,0.580232,0.23009200000000002,-0.760304,-2.9925,33.2325,-6.8775
1547,167652,0.478972,0.284504,-0.784216,-9.31,39.76,-7.1225
1548,167751,0.5697399999999999,0.261812,-0.749324,-15.33,49.2975,-3.85
1549,167849,0.585356,0.292068,-0.746396,-14.91,56.0875,-0.0875
1550,167947,0.609024,0.263764,-0.7229720000000001,-14.98,57.6975,1.645
1551,168045,0.616344,0.28987199999999996,-0.70516,-14.7525,57.33,2.52
1552,168143,0.630252,0.286456,-0.692716,-14.2275,55.0025,3.7275
1553,168241,0.644404,0.271572,-0.69296,-12.4775,52.1325,4.655
1554,168339,0.650748,0.273036,-0.6824680000000001,-10.2375,47.775,4.7775
1555,168437,0.657824,0.277672,-0.6785640000000001,-8.3475,44.0825,4.5675
1556,168536,0.667096,0.282552,-0.664412,-6.8425,41.7725,4.1475
1557,168634,0.667828,0.29133600000000004,-0.6763680000000001,-5.915,39.795,4.1825
1558,168732,0.666852,0.291092,-0.6709999999999999,-3.045,37.6425,4.445
1559,168830,0.652212,0.305244,-0.686616,-1.575,36.8375,5.53
1560,168928,0.653432,0.302072,-0.6902761,-0.2275,37.4325,7.98
1561,169026,0.655628,0.284016,-0.6883239999999999,2.31,40.1625,10.815
1562,169124,0.6290319999999999,0.266692,-0.71614,4.165,43.8375,12.74
1563,169223,0.6258600000000001,0.260104,-0.728096,5.6875,52.185,15.47
1564,169321,0.630008,0.237656,-0.7283400999999999,6.5275,65.065,18.2
1565,169419,0.6197600000000001,0.2623,-0.7329760000000001,5.8275,79.5725,20.3525
1566,169517,0.605364,0.31476,-0.75884,3.5175,100.415,24.4825
1567,169615,0.606584,0.35233600000000004,-0.785192,2.66,126.8925,31.3775
1568,169713,0.59902,0.30182800000000004,-0.746152,3.7275,153.755,39.795
1569,169811,0.5875520000000001,0.234972,-0.766892,1.82,183.1725,46.6725
1570,169910,0.5785241,0.198128,-0.754448,-5.7225,216.9475,50.505
1571,170008,0.622688,0.23058,-0.7571321,-18.165,253.5575,53.2875
1572,170106,0.6824680000000001,0.306464,-0.813496,-30.7825,285.2675,59.815
1573,170204,0.8725440999999999,0.182756,-0.8342360000000001,-30.6425,324.9225,72.3625
1574,170302,1.311256,0.23838800000000002,-0.895236,-25.83,382.1825,81.305
1575,170400,1.348588,0.151524,-1.1033680000000001,-18.4275,458.2725,93.205
1576,170498,2.00812,0.7178479999999999,-1.025044,-34.7725,546.455,99.5575
1577,170596,2.891156,1.6704240000000001,-2.042768,-45.5525,573.23,157.92
1578,170695,3.518968,1.5706280000000001,-1.836832,-23.0125,560.9975,230.6325
1579,170793,3.627792,1.0145520000000001,-0.8874280999999999,64.82,469.28,292.32
1580,170891,3.3408480000000003,1.3886040000000002,-1.928088,148.015,374.0975,350.4375
1581,170989,3.27448,1.5445200000000001,-1.927112,230.2475,228.375,227.465
1582,171087,0.655628,1.0765280000000002,-2.053016,252.805,127.715,117.285
1583,171185,0.364536,0.05587601,-0.9147559999999999,200.4275,123.8475,114.2575
1584,171283,2.360456,1.57136,-3.475536,145.705,135.87,95.6025
1585,171382,0.7500560000000001,0.8188641,-1.889048,124.67,-7.9275,66.745
1586,171480,-0.009516001,0.7856801,-1.466928,130.69,-93.0125,64.2075
1587,171578,-0.067344,0.71614,-1.27368,129.2725,-77.105,93.52
1588,171676,0.06270801,0.8015399999999999,-1.180472,141.47,-89.5825,117.075
1589,171774,0.24936799999999998,0.9142680000000001,-1.2014559999999999,156.9925,-98.35,139.2125
1590,171872,0.388936,0.9840521000000001,-1.154852,170.0825,-122.71,146.2125
1591,171970,0.568276,1.0528600000000001,-1.142896,175.875,-158.1125,138.8275
1592,172069,0.613904,1.107272,-1.0321200000000001,172.655,-203.1225,118.615
1593,172167,0.606096,1.217072,-0.8906,166.32,-247.24,94.1325
1594,172265,0.6351319999999999,1.3529799999999998,-0.753472,162.2425,-283.395,70.35
1595,172363,0.738588,1.481568,-0.615124,165.55,-312.6025,51.8525
1596,172461,0.7707961,1.559892,-0.432612,174.8075,-337.75,38.8675
1597,172559,0.7195560000000001,1.60796,-0.245952,183.225,-355.075,26.81
1598,172657,0.638304,1.73118,-0.12980799999999998,185.325,-360.64,10.4125
1599,172756,0.729072,1.9129599999999998,-0.124196,184.1525,-351.8725,-14.2275
1600,172854,0.9486720999999999,2.128168,-0.1647,181.3875,-340.8475,-49.7875
1601,172952,1.186328,2.373144,-0.183976,182.035,-335.5975,-91.21
1602,173050,1.357616,2.576152,-0.117852,192.2725,-334.46,-128.4325
1603,173148,1.504016,2.601772,-0.000976,210.175,-333.97,-154.6125
1604,173246,1.688968,2.5268639999999998,0.067344,221.0775,-331.555,-175.175
1605,173344,1.809016,2.56078,0.029524,214.55,-328.615,-196.0175
1606,173443,2.01666,2.725724,-0.121512,198.73,-325.3075,-217.2275
1607,173541,2.322636,2.907016,-0.235948,190.6625,-327.1625,-236.7925
1608,173639,2.5815200000000003,2.96338,-0.205204,194.0925,-337.8025,-250.46
1609,173737,2.685952,2.8130759999999997,0.0017079999999999999,197.9775,-350.7,-256.305
1610,173835,2.631052,2.5632200000000003,0.20691199999999998,185.8325,-354.34,-258.1775
1611,173933,2.527352,2.384368,0.322812,147.77,-343.8225,-264.88
1612,174031,2.459032,2.266516,0.310612,94.57,-322.385,-277.865
1613,174130,2.455616,2.219668,0.193248,42.63,-295.4875,-294.2625
1614,174228,2.578104,2.1823360000000003,0.018056,3.6225,-268.66,-309.82
1615,174326,2.6596,2.0874200000000003,-0.09930800000000001,-20.125,-247.73,-324.4325
1616,174424,2.803316,2.0681439999999998,-0.162504,-33.355,-228.8125,-337.645
1617,174522,2.907504,1.946388,-0.066856,-33.7225,-211.085,-347.8475
1618,174620,2.957036,1.462292,0.194712,-26.6875,-194.95,-357.35
1619,174718,2.2189360000000002,0.06344,0.7076001000000001,-28.4725,-182.0525,-382.095
1620,174817,2.620804,0.691008,0.515084,-92.47001,-134.855,-424.1125
1621,174915,2.8604119999999997,0.8949921000000001,0.506544,-90.49251,-83.73751,-419.545
1622,175013,3.194936,0.909632,0.5453399999999999,-27.72,-40.8275,-386.645
1623,175111,3.306688,0.523868,1.022116,54.9675,-13.6325,-350.6125
1624,175209,3.2988800000000005,-0.159576,1.468148,102.13,5.0225,-309.26
1625,175307,2.821128,-0.44652,1.569896,78.295,28.245,-282.135
1626,175405,2.255536,0.123464,1.3268719999999998,35.5425,61.5825,-280.385
1627,175503,3.029016,-0.05612,2.0474040000000002,83.30001,134.435,-297.3775
1628,175602,4.053328,-0.164212,2.7398759999999998,141.9775,230.9125,-313.005
1629,175700,3.952312,-1.8004759999999997,0.073688,159.215,309.9775,-345.59
1630,175798,3.5079879999999997,-3.142964,-3.505548,93.1,320.1975,-342.86
1631,175896,2.445856,-5.69496,-2.6108,89.65250999999999,243.11,-210.525
1632,175994,1.8695279999999999,-4.5915919999999995,-2.477576,-38.0975,176.645,-22.645
1633,176092,0.77836,-0.9264680000000001,-1.010648,-176.61,119.0175,100.275
1634,176190,0.205204,3.326696,-0.06466001,-220.01,128.1,134.785
1635,176289,0.049288,5.617612,0.687104,-132.965,150.675,81.11251
1636,176387,1.571848,2.432436,-0.35892399999999997,90.615,187.3375,36.12
1637,176485,3.773704,-3.067324,-3.898632,202.9825,164.955,61.915
1638,176583,0.540216,-0.534116,-0.4148,84.5775,-2.275,81.91751
1639,176681,0.14396,2.9585,-0.009028000999999999,0.6125,-20.265,72.31
1640,176779,1.176568,-1.0406600000000001,-1.5525719999999998,58.03,34.0025,56.5425
1641,176877,0.643428,0.29133600000000004,-0.839116,31.2025,5.0925,57.5925
1642,176976,0.598532,0.634644,-0.727608,9.1,-25.515,32.2875
1643,177074,0.6707561,-0.001952,-0.807396,34.265,-15.4875,25.725
1644,177172,0.667828,0.306464,-0.786656,19.5825,-14.56,16.8525
1645,177270,0.633668,0.16592,-0.833992,21.2975,-4.9875,12.88
1646,177368,0.6329359999999999,0.200568,-0.802272,15.5225,0.6825,9.5375
1647,177466,0.619028,0.200812,-0.8166680000000001,9.31,5.6525,5.95
1648,177564,0.6290319999999999,0.141276,-0.798124,4.865,8.33,2.695
1649,177662,0.5516840000000001,0.24082800000000001,-0.8086161000000001,-1.1025,11.865,-0.49
1650,177761,0.56242,0.20691199999999998,-0.815692,-1.8025,16.45,-1.995
1651,177859,0.562908,0.22496799999999997,-0.8479,-0.21,22.1375,-4.8825
1652,177957,0.587064,0.150792,-0.8308200000000001,10.7275,30.1525,-9.73
1653,178055,0.50264,-0.011712,-0.7356600000000001,14.245,39.76,-17.115
1654,178153,0.43724799999999997,0.41406800000000005,-0.7834840000000001,-13.93,47.9325,-19.6525
1655,178251,0.580232,0.221552,-0.763476,-10.43,69.335,-11.1825
1656,178349,0.6070720000000001,0.316224,-0.735172,-16.7825,83.52750999999999,-8.855
1657,178448,0.589016,0.307684,-0.7168720000000001,-17.4825,89.565,-5.6525
1658,178546,0.6329359999999999,0.36502399999999996,-0.650016,-17.535,93.835,-0.63
1659,178644,0.648796,0.298168,-0.589504,-15.1025,97.79,4.725
1660,178742,0.7019880000000001,0.232776,-0.6117081,-11.2525,97.5275,10.08
1661,178840,0.684176,0.307684,-0.62708,-11.4275,90.755,12.4425
1662,178938,0.6851520999999999,0.294752,-0.6222,-10.3425,87.2725,16.065
1663,179036,0.7156520000000001,0.296948,-0.6229319999999999,-7.63,84.07001,20.2125
1664,179134,0.7285841,0.278404,-0.6158561,-3.15,80.97251,22.61
1665,179232,0.706624,0.292312,-0.624884,-0.7,78.785,23.345
1666,179331,0.712724,0.276208,-0.6117081,0.5425,79.5725,25.0425
1667,179429,0.711016,0.236192,-0.634156,1.3475,86.0125,26.985
1668,179527,0.72346,0.202032,-0.61,0.7525,93.485,27.545
1669,179625,0.742004,0.198128,-0.60634,-1.1375,101.5525,26.25
1670,179723,0.754204,0.238632,-0.619028,-0.4375,107.0825,24.8675
1671,179821,0.7422481,0.24326799999999998,-0.625372,1.645,114.9575,25.445
1672,179919,0.714676,0.25351599999999996,-0.6409881,3.29,125.79,28.945
1673,180018,0.705404,0.176656,-0.6378159999999999,5.04,141.19,33.845
1674,180116,0.737124,0.163724,-0.641232,3.535,159.6175,35.8925
1675,180214,0.756644,0.17836400000000002,-0.6158561,1.6275,178.045,36.855
1676,180312,0.763232,0.223748,-0.5948720000000001,-0.91,195.685,39.8125
1677,180410,0.8754719999999999,0.26961999999999997,-0.55266,-3.6225,218.8025,45.115
1678,180508,0.9540401,0.29524,-0.56608,-5.81,244.405,54.3725
1679,180606,1.090192,0.345016,-0.569984,-5.4075,273.8225,66.57
1680,180705,1.31028,0.400892,-0.7200439999999999,-11.41,312.13,83.3875
1681,180803,1.3729879999999999,0.49580799999999997,-0.689056,-15.61,373.8,105.8925
1682,180901,1.7394759999999998,0.424072,-0.6795401,-23.2925,462.3675,146.8075
1683,180999,2.297016,1.21146,-1.135332,-22.4,535.5875,218.12
1684,181097,2.845528,1.192672,-1.2561120000000001,-16.6075,527.9575,291.9525
1685,181195,2.747684,1.101416,-1.093852,7.175,466.0775,324.1875
1686,181293,2.601284,1.3351680000000001,-0.524356,20.335,431.2,321.685
1687,181392,3.4401559999999995,0.660752,-1.228784,9.6425,404.145,306.5475
1688,181490,3.931084,2.224304,-2.39974,24.2025,239.4525,240.0825
1689,181588,2.354356,1.6796959999999999,-2.31434,61.8625,177.555,111.6325
1690,181686,0.198372,1.6628599999999998,-2.182092,60.6725,150.3775,170.03
1691,181784,1.9734720000000001,2.1874599999999997,-2.442196,101.0975,88.34000999999999,113.645
1692,181882,1.771196,2.19844,-2.9031119999999997,69.0375,42.385,43.61
1693,181980,0.8252079999999999,1.6326040000000002,-2.01056,117.075,-115.605,-25.4275
1694,182079,0.13761600000000002,1.19072,-1.6565159999999999,147.1225,-155.61,-38.1675
1695,182177,-0.085888,0.658556,-1.32492,155.54,-158.515,-44.7475
1696,182275,0.036356,0.416264,-1.231956,139.44,-160.0375,-51.0125
1697,182373,0.14493599999999998,0.303292,-1.190232,106.575,-170.3625,-57.75
1698,182471,0.26156799999999997,0.333548,-1.146556,69.1775,-192.3425,-68.8625
1699,182569,0.42212,0.42016800000000004,-1.1211799999999998,41.7025,-219.275,-78.9775
1700,182667,0.5543680000000001,0.490196,-1.073356,28.3675,-250.7925,-86.8875
1701,182765,0.6258600000000001,0.499224,-0.9828321,27.72,-283.325,-92.19001
1702,182864,0.6646561,0.459208,-0.8147161,30.3275,-312.2525,-98.8575
1703,182962,0.7134560999999999,0.43798000000000004,-0.7449321,31.115,-336.14,-106.3475
1704,183060,0.6844201,0.40381999999999996,-0.62952,33.6175,-352.065,-111.2825
1705,183158,0.7329760000000001,0.40894400000000003,-0.590724,33.0925,-358.9425,-115.535
1706,183256,0.8591241,0.401868,-0.590236,32.305,-361.6025,-118.6675
1707,183354,0.9564799999999999,0.40992,-0.6029241,28.2625,-365.6625,-123.2875
1708,183452,1.040904,0.4514,-0.614636,20.23,-369.3725,-129.185
1709,183551,1.160708,0.5121560000000001,-0.628544,11.3225,-372.1375,-135.66
1710,183649,1.2078,0.5575399999999999,-0.6029241,4.6725,-374.4125,-141.0325
1711,183747,1.2756319999999999,0.57462,-0.6097560000000001,-0.8400001,-370.195,-143.6575
1712,183845,1.43106,0.583648,-0.6856399999999999,-6.5975,-359.0825,-146.475
1713,183943,1.615524,0.677344,-0.877424,-17.255,-348.355,-153.51
1714,184041,1.9407759999999998,0.9572120999999999,-1.138992,-30.31,-340.34,-162.5225
1715,184140,2.3733880000000003,1.234884,-1.3649360000000001,-33.9325,-338.0125,-171.7275
1716,184238,2.725236,1.3207719999999998,-1.37494,-25.9175,-344.435,-186.585
1717,184336,2.8313759999999997,1.2561120000000001,-1.1385040000000002,-17.7275,-356.4225,-207.5675
