,T,ax,ay,az,gx,gy,gz
0,10195813,0.7978801,0.07637200000000001,-0.352458,10.85,-10.115,-8.645
1,10195955,0.834968,0.10187,-0.407114,-59.255,-3.22,-63.4025
2,10196052,0.917684,0.121024,-0.42602399999999996,-61.18,-82.3025,-126.5775
3,10196149,0.9137799999999999,0.128222,-0.42395,17.3775,-104.055,-48.685
4,10196246,0.889624,0.11467999999999999,-0.423462,-1.75,-5.25,-2.2225
5,10196342,0.88328,0.116876,-0.427976,1.68,1.2075,0.6125
6,10196439,0.877912,0.120048,-0.443592,4.2875,3.99,1.82
7,10196536,0.8794981,0.122244,-0.45591400000000004,5.005,4.2525,2.38
8,10196633,0.8777901,0.111752,-0.45298599999999994,3.8325,1.9075,2.8525
9,10196729,0.892552,0.12334200000000001,-0.44469,3.0625,-0.105,3.64
10,10196826,0.90036,0.12041400000000001,-0.429196,3.255,-0.6125,2.485
11,10196923,0.9141459999999999,0.11712,-0.43651599999999996,4.06,0.1225,0.6125
12,10197020,0.9139021,0.116388,-0.444812,6.125,2.0825,-1.8375
13,10197116,0.904752,0.11394800000000001,-0.459208,9.2925,3.6575,-3.605
14,10197213,0.8964561,0.114802,-0.441762,14.105,5.7925,-4.69
15,10197310,0.8906,0.10052799999999999,-0.61,19.46,6.335,-5.1975
16,10197406,0.820572,0.110776,-0.453962,22.6275,6.3,-7.0175
17,10197503,0.7975140000000001,0.12175599999999999,-0.43029399999999995,34.3175,14.35,-7.49
18,10197600,0.863516,0.11955999999999999,-0.40211199999999997,46.4975,18.55,-8.89
19,10197697,0.9740479999999999,0.09845401,-0.396378,54.0575,20.51,-10.045
20,10197793,0.9680700000000001,0.096624,-0.388204,62.195,27.335,-9.1175
21,10197890,0.944768,0.09821001,-0.393816,66.57,31.92,-8.8025
22,10197987,0.931958,0.100162,-0.377834,66.4475,30.45,-9.6425
23,10198084,0.9272,0.09186601,-0.36417,54.9325,22.4875,-9.2575
24,10198180,0.9202459999999999,0.07637200000000001,-0.381006,38.99,13.125,-8.89
25,10198277,0.909632,0.06661201,-0.387228,29.68,9.1175,-9.2925
26,10198374,0.889624,0.05917000000000001,-0.36966,24.045,8.1375,-9.905
27,10198470,0.8510719999999999,0.054412,-0.43322200000000005,12.0225,4.13,-8.9075
28,10198567,0.9025559999999999,0.070638,-0.309392,11.2875,7.8575,-7.7875
29,10198664,0.9085340000000001,0.080276,-0.311832,15.33,8.7675,-7.2625
30,10198761,0.9141459999999999,0.09150001,-0.354898,3.4125,1.82,-5.4075
31,10198857,0.9004821,0.08893801,-0.371368,1.155,-1.89,-4.165
32,10198954,0.934642,0.082838,-0.366976,-2.135,-5.0925,-4.095
33,10199051,0.916342,0.08308201,-0.37197800000000003,2.31,0.21,-3.6225
34,10199148,0.910486,0.08771799999999999,-0.38003000000000003,0.4725,-0.245,-3.57
35,10199244,0.9065821,0.09235399999999999,-0.38369000000000003,0.4375,-2.31,-3.6925
36,10199341,0.9085340000000001,0.09381801,-0.37515,-0.1225,-4.9175,-4.0425
37,10199438,0.9110959999999999,0.09211,-0.371002,-0.2625,-5.1975,-4.2175
38,10199534,0.9143899999999999,0.08564401,-0.371246,0.07,-3.605,-4.2
39,10199631,0.9140241,0.07856801,-0.368562,0.385,-2.485,-4.095
40,10199728,0.9171961,0.07698201,-0.36892800000000003,0.1925,-2.905,-3.9375
41,10199825,0.9230520000000001,0.075396,-0.364292,-0.035,-3.29,-4.0075
42,10199921,0.9261021,0.077592,-0.362462,-0.665,-2.555,-4.1825
43,10200018,0.9264680000000001,0.078202,-0.36356,-0.77,-2.0825,-4.1825
44,10200115,0.9259799999999999,0.07869,-0.363316,-1.26,-2.31,-3.885
45,10200212,0.921222,0.08405800000000001,-0.36722,-1.4525,-2.5025,-3.57
46,10200308,0.9201241,0.08771799999999999,-0.37088000000000004,-1.645,-2.7125,-3.535
47,10200405,0.917684,0.09040201,-0.369904,-1.5225,-2.905,-3.4475
48,10200502,0.91561,0.091988,-0.37197800000000003,-1.575,-3.22,-3.535
49,10200599,0.91622,0.089792,-0.374784,-1.05,-3.1325,-3.5175
50,10200695,0.918782,0.087962,-0.37551599999999996,-0.56,-3.15,-3.5525
51,10200792,0.9208561,0.08893801,-0.38198200000000004,-0.4375,-3.5,-3.5875
52,10200889,0.9235399999999999,0.08893801,-0.37990799999999997,-0.3325,-3.745,-3.7975
53,10200986,0.9250040999999999,0.08906,-0.372832,-0.07,-3.885,-3.92
54,10201082,0.927932,0.089426,-0.374784,-0.1925,-3.9375,-3.885
55,10201179,0.928176,0.08784,-0.37551599999999996,-0.175,-3.78,-3.8325
56,10201276,0.9242720999999999,0.085888,-0.373198,0.0175,-3.8325,-3.7625
57,10201373,0.9178061,0.08417999999999999,-0.373198,0.105,-3.955,-3.7975
58,10201469,0.9158540999999999,0.08503401,-0.37393000000000004,0.105,-4.41,-3.8325
59,10201566,0.9145120999999999,0.08723001,-0.372222,0.28,-4.5325,-3.815
60,10201663,0.9126820999999999,0.08771799999999999,-0.369294,0.525,-4.7775,-3.9725
61,10201760,0.9120720999999999,0.08918200000000001,-0.371246,0.6475,-4.97,-3.9725
62,10201856,0.913658,0.087962,-0.371368,0.98,-4.9875,-4.025
63,10201953,0.9179280000000001,0.087352,-0.373808,1.0675,-5.18,-4.165
64,10202050,0.92171,0.08454600000000001,-0.371002,1.085,-5.32,-4.1825
65,10202147,0.9252481,0.082228,-0.37027,1.1025,-5.5825,-4.025
66,10202243,0.924638,0.081862,-0.367464,1.085,-5.81,-3.885
67,10202340,0.9259799999999999,0.08637601,-0.365634,1.085,-6.1075,-3.815
68,10202437,0.9231739999999999,0.087108,-0.366244,0.77,-6.615,-3.7275
69,10202534,0.919636,0.087962,-0.365268,0.665,-6.5275,-3.605
70,10202630,0.916098,0.08662001,-0.365634,0.49,-6.475,-3.5175
71,10202727,0.9145120999999999,0.08454600000000001,-0.36502399999999996,0.5775,-6.405,-3.4825
72,10202824,0.9168301,0.08479,-0.365146,0.525,-6.23,-3.5
73,10202921,0.9189040999999999,0.081984,-0.361852,0.5075,-6.055,-3.395
74,10203018,0.9198799999999999,0.082106,-0.362218,0.4725,-5.95,-3.255
75,10203114,0.9198799999999999,0.083204,-0.362462,0.2975,-5.88,-3.2375
76,10203211,0.9171961,0.08454600000000001,-0.36417,0.1225,-5.8275,-3.1675
77,10203308,0.9168301,0.08954801,-0.364658,0.0525,-5.74,-3.185
78,10203404,0.91805,0.09028,-0.359168,0.315,-5.6875,-3.2725
79,10203501,0.9186601000000001,0.092964,-0.36234,0.42,-6.2125,-3.4825
80,10203598,0.9232961,0.09320801,-0.36661,0.4725,-6.6675,-3.5175
81,10203695,0.9232961,0.09272000000000001,-0.362218,0.7525,-6.8075,-3.64
82,10203791,0.9224421,0.091988,-0.362584,0.63,-6.5275,-3.675
83,10203888,0.9240280000000001,0.090036,-0.360998,0.5775,-6.09,-3.7275
84,10203985,0.9206120000000001,0.09162200000000001,-0.362218,0.455,-6.16,-3.745
85,10204082,0.9191481,0.093086,-0.36282800000000004,0.2625,-6.3,-3.8325
86,10204179,0.9168301,0.09162200000000001,-0.365512,-0.0525,-6.2125,-3.8675
87,10204275,0.91622,0.08906,-0.36441399999999996,-0.175,-6.0025,-3.71
88,10204372,0.91805,0.08857201,-0.365634,-0.0525,-6.0725,-3.675
89,10204469,0.9214661,0.08906,-0.364902,-0.07,-6.2825,-3.8675
90,10204566,0.924882,0.09186601,-0.366122,-0.175,-6.7025,-3.9025
91,10204662,0.925126,0.09211,-0.368562,-0.385,-7.35,-3.85
92,10204759,0.924638,0.09089001,-0.36478,-0.2625,-7.7175,-3.6925
93,10204856,0.9240280000000001,0.089914,-0.367952,-0.2275,-7.9625,-3.465
94,10204953,0.9239059999999999,0.091378,-0.366244,-0.2275,-8.155,-3.4825
95,10205049,0.9237841,0.091012,-0.36880599999999997,-0.3675,-8.5225,-3.5525
96,10205146,0.9208561,0.090646,-0.367952,-0.735,-8.715,-3.3775
97,10205243,0.916342,0.090646,-0.37197800000000003,-0.9975,-8.3125,-3.1325
98,10205340,0.912316,0.09028,-0.371002,-1.0325,-7.8225,-3.0625
99,10205436,0.9112181,0.09247601,-0.369294,-1.05,-7.455,-2.94
100,10205533,0.9103641,0.093574,-0.370392,-1.19,-7.49,-2.87
101,10205630,0.9090219999999999,0.09333,-0.36783000000000005,-1.365,-7.63,-2.8175
102,10205727,0.90951,0.09442801,-0.367952,-1.2425,-7.7,-2.8
103,10205823,0.91195,0.091012,-0.371368,-0.9975,-7.9625,-3.0275
104,10205920,0.916586,0.08954801,-0.366976,-0.7875,-8.0675,-3.185
105,10206017,0.91805,0.08771799999999999,-0.363194,-0.8225,-8.12,-3.3775
106,10206114,0.921588,0.08771799999999999,-0.366732,-1.05,-7.805,-3.15
107,10206210,0.9209780000000001,0.09333,-0.366122,-1.155,-7.4375,-3.0275
108,10206307,0.9158540999999999,0.095038,-0.36953800000000003,-1.435,-7.315,-3.0625
109,10206404,0.9126820999999999,0.094672,-0.368562,-1.26,-6.93,-3.0625
110,10206501,0.9121940999999999,0.094672,-0.370392,-1.1025,-6.965,-3.115
111,10206597,0.91195,0.09394001,-0.373808,-0.7,-7.07,-3.1675
112,10206694,0.9151219999999999,0.098332,-0.371246,-0.42,-6.965,-3.3075
113,10206791,0.913536,0.090158,-0.371856,0.0175,-6.7725,-3.8675
114,10206888,0.918416,0.093574,-0.37502800000000003,0.07,-7.035,-3.885
115,10206984,0.91927,0.09272000000000001,-0.37417399999999995,0.21,-7.245,-3.9375
116,10207081,0.919392,0.09040201,-0.376248,0.14,-7.3675,-3.885
117,10207178,0.918294,0.08918200000000001,-0.372344,0.3675,-7.2625,-3.78
118,10207275,0.9195141,0.089792,-0.37271,0.455,-7.455,-3.7275
119,10207371,0.9179280000000001,0.088328,-0.37454,0.3325,-7.56,-3.5525
120,10207468,0.9151219999999999,0.08881599,-0.374052,0.28,-7.35,-3.325
121,10207565,0.9107301,0.08918200000000001,-0.377834,0.1225,-7.2975,-3.15
122,10207662,0.910486,0.089426,-0.377712,0.105,-7.2275,-3.0275
123,10207758,0.9092661,0.08869401,-0.38003000000000003,0.28,-7.28,-3.0975
124,10207855,0.910242,0.08845001,-0.378688,0.3675,-7.4025,-3.255
125,10207952,0.9079241,0.08893801,-0.37881,0.28,-7.4725,-3.22
126,10208049,0.9065821,0.08954801,-0.378078,0.245,-7.5775,-3.22
127,10208145,0.9080459999999999,0.09333,-0.379786,0.315,-7.665,-2.9925
128,10208242,0.909632,0.102358,-0.382592,0.4025,-7.6125,-2.8875
129,10208339,0.904874,0.09394001,-0.37990799999999997,0.63,-7.1925,-3.1675
130,10208436,0.906826,0.096868,-0.386008,0.525,-7.105,-2.59
131,10208532,0.9052401,0.09381801,-0.387228,0.805,-7.0875,-2.7825
132,10208629,0.9060940000000001,0.09162200000000001,-0.387228,0.98,-6.8775,-3.01
133,10208726,0.90646,0.091012,-0.384788,1.05,-6.79,-3.2725
134,10208823,0.9056061,0.094062,-0.37881,0.8925,-6.93,-3.4125
135,10208919,0.9059721,0.10065,-0.381006,0.63,-7.105,-3.3425
136,10209016,0.9059721,0.10553,-0.382226,0.6475,-7.2275,-3.255
137,10209113,0.906216,0.107482,-0.387106,0.9275,-7.245,-3.045
138,10209210,0.9046301,0.10931199999999999,-0.392596,1.3825,-6.7725,-2.8
139,10209306,0.9090219999999999,0.108458,-0.399794,2.1175,-6.2825,-3.01
140,10209403,0.9141459999999999,0.10065,-0.40528400000000003,2.6775,-6.0375,-3.57
141,10209500,0.9228081,0.09589201,-0.401624,3.5525,-5.7225,-4.2
142,10209597,0.9241501,0.098088,-0.396622,3.7275,-5.18,-5.11
143,10209693,0.9178061,0.099674,-0.38979,3.605,-4.6025,-6.58
144,10209790,0.9121940999999999,0.09516001,-0.39271799999999996,3.36,-4.235,-7.6475
145,10209887,0.9079241,0.088328,-0.388326,3.6225,-4.0775,-7.875
146,10209984,0.8990181,0.08906,-0.382714,4.4625,-4.5325,-7.56
147,10210080,0.889868,0.091012,-0.379298,4.8125,-5.25,-7.315
148,10210177,0.8862081,0.09394001,-0.379176,4.97,-5.0925,-7.14
149,10210274,0.8834021000000001,0.095648,-0.374662,5.565,-4.69,-6.6675
150,10210371,0.8888921000000001,0.09333,-0.375394,6.3175,-4.305,-6.09
151,10210467,0.8960899999999999,0.091988,-0.372954,6.8425,-4.0075,-5.775
152,10210564,0.9037761000000001,0.09089001,-0.36880599999999997,6.9475,-3.885,-5.81
153,10210661,0.91195,0.08723001,-0.36844,6.895,-4.235,-5.7925
154,10210758,0.919636,0.08503401,-0.368562,6.615,-4.55,-5.53
155,10210854,0.9204901,0.081984,-0.370148,6.265,-5.005,-4.935
156,10210951,0.9198799999999999,0.081374,-0.371002,5.4775,-4.7075,-4.4625
157,10211048,0.919026,0.082106,-0.374784,4.83,-4.585,-4.095
158,10211145,0.9178061,0.08332601,-0.379054,4.34,-4.3225,-4.095
159,10211241,0.920734,0.08454600000000001,-0.379054,4.235,-3.9725,-4.095
160,10211338,0.921588,0.08771799999999999,-0.378078,4.0775,-3.71,-4.165
161,10211435,0.9221981,0.089304,-0.376004,3.9375,-3.9375,-4.2875
162,10211532,0.9204901,0.09259801,-0.373198,3.4825,-3.8675,-4.445
163,10211628,0.9150001,0.08771799999999999,-0.37332,2.975,-3.3775,-4.445
164,10211725,0.9134141,0.08235001,-0.372222,2.4325,-3.0975,-4.1125
165,10211822,0.9128040000000001,0.079056,-0.373442,1.995,-3.1675,-3.85
166,10211919,0.9113399999999999,0.079422,-0.37197800000000003,1.3125,-3.5,-3.43
167,10212015,0.91012,0.080398,-0.36892800000000003,0.7175,-3.64,-3.045
168,10212112,0.9080459999999999,0.080764,-0.370392,-0.0175,-3.78,-2.8175
169,10212209,0.9089001,0.08052000000000001,-0.371612,-0.56,-4.0425,-2.24
170,10212306,0.910974,0.080276,-0.371612,-0.56,-4.235,-1.75
171,10212402,0.9121940999999999,0.08308201,-0.37393000000000004,-1.0325,-4.3225,-1.4525
172,10212499,0.9108521,0.08674201,-0.374906,-1.6625,-4.3575,-1.505
173,10212596,0.9128040000000001,0.08967,-0.376126,-2.2225,-4.1475,-1.715
174,10212693,0.91561,0.09150001,-0.378078,-2.695,-4.1475,-2.065
175,10212789,0.916464,0.094306,-0.377712,-2.94,-4.06,-2.205
176,10212886,0.91561,0.098576,-0.376248,-2.9925,-3.7625,-2.3275
177,10212983,0.9154880999999999,0.10418800000000002,-0.376736,-3.0975,-3.43,-2.66
178,10213080,0.9175620000000001,0.105652,-0.376492,-2.9925,-2.9925,-3.1675
179,10213176,0.9171961,0.101992,-0.373198,-2.485,-3.01,-3.325
180,10213273,0.917074,0.094916,-0.37576,-1.9775,-3.185,-2.975
181,10213370,0.9152440000000001,0.09247601,-0.376126,-1.785,-3.3425,-2.73
182,10213467,0.9143899999999999,0.08954801,-0.375882,-1.7675,-3.3075,-2.975
183,10213563,0.913658,0.091744,-0.373442,-1.7675,-3.5525,-3.255
184,10213660,0.9115840000000001,0.089304,-0.371002,-1.75,-4.165,-3.395
185,10213757,0.910242,0.08576601,-0.37112399999999995,-1.8025,-4.34,-3.4125
186,10213853,0.91195,0.0854,-0.368196,-1.995,-4.06,-3.255
187,10213950,0.9087780000000001,0.08820599999999999,-0.367708,-2.345,-3.78,-3.08
188,10214047,0.9128040000000001,0.08857201,-0.367098,-2.5375,-3.5875,-2.9225
189,10214144,0.91927,0.08637601,-0.365634,-2.6075,-3.675,-2.5375
190,10214240,0.921222,0.082228,-0.36356,-2.5725,-3.745,-1.995
191,10214337,0.9201241,0.07856801,-0.363804,-2.7125,-3.92,-1.6275
192,10214434,0.9173181,0.081374,-0.36539,-3.22,-4.3225,-1.47
193,10214531,0.9140241,0.08759601,-0.365146,-3.5525,-4.6375,-1.47
194,10214627,0.9167081,0.09625801,-0.367464,-3.57,-4.6025,-1.33
195,10214724,0.91927,0.100284,-0.368196,-3.85,-4.375,-1.435
196,10214821,0.919392,0.09991799999999999,-0.36880599999999997,-4.025,-4.165,-1.47
197,10214918,0.916098,0.096014,-0.36722,-4.095,-3.71,-1.505
198,10215014,0.916098,0.086132,-0.36539,-3.9375,-3.0625,-1.295
199,10215111,0.9175620000000001,0.077348,-0.360998,-3.85,-2.6425,-0.805
200,10215208,0.916586,0.07381001,-0.349286,-3.92,-3.0625,-0.5075
201,10215305,0.9168301,0.075396,-0.34721199999999997,-4.235,-3.43,-0.21
202,10215401,0.916586,0.07808001,-0.343186,-4.935,-3.71,0.2275
203,10215498,0.916098,0.08417999999999999,-0.339892,-5.25,-3.71,0.42
204,10215595,0.9211,0.08784,-0.33305999999999997,-5.46,-3.43,0.4375
205,10215692,0.9214661,0.08625401,-0.333548,-5.6525,-3.2725,0.6125
206,10215788,0.92537,0.080764,-0.338306,-5.845,-2.9225,0.8225
207,10215885,0.925858,0.0732,-0.335378,-5.495,-2.415,0.945
208,10215982,0.9284200999999999,0.06819800000000001,-0.335866,-5.3025,-2.38,1.1025
209,10216079,0.928542,0.067344,-0.34123400000000004,-5.74,-2.5025,1.3125
210,10216175,0.9301280000000001,0.069906,-0.34831,-5.845,-2.4325,1.4
211,10216272,0.93086,0.07551801,-0.353556,-5.8625,-2.2575,1.33
212,10216369,0.9343981,0.07747001,-0.354898,-6.0025,-2.3625,0.8925
213,10216466,0.9386681,0.07856801,-0.353556,-6.09,-3.08,0.5425
214,10216562,0.934642,0.081984,-0.35929,-6.2825,-3.7975,0.0
215,10216659,0.9270780999999999,0.08564401,-0.363682,-6.5275,-4.1125,-0.4375
216,10216756,0.9219540999999999,0.093086,-0.35782600000000003,-6.65,-4.3925,-0.805
217,10216853,0.919758,0.101992,-0.3599,-6.6325,-4.4275,-1.015
218,10216950,0.917684,0.11626600000000001,-0.360632,-6.615,-4.1825,-1.1375
219,10217046,0.9231739999999999,0.12566,-0.362462,-6.125,-3.815,-1.085
220,10217143,0.9340321,0.12688,-0.36002199999999995,-5.5125,-3.535,-0.875
221,10217240,0.9450120000000001,0.112606,-0.352092,-3.955,-2.59,-0.91
222,10217337,0.9418401,0.086864,-0.34172199999999997,-2.5725,-1.68,-0.7
223,10217433,0.930006,0.060024,-0.33379200000000003,-2.065,-1.0325,-0.2625
224,10217530,0.9142680000000001,0.049288,-0.32208000000000003,-1.9775,-1.0675,0.035
225,10217627,0.9025559999999999,0.047580000000000004,-0.315736,-2.8875,-1.3475,-0.28
226,10217724,0.9065821,0.053801999999999996,-0.312442,-4.0425,-1.9775,-0.525
227,10217820,0.912926,0.060267999999999995,-0.31293000000000004,-4.865,-2.1175,-0.5775
228,10217917,0.9201241,0.07112601,-0.31463800000000003,-5.565,-1.8725,-0.8400001
229,10218014,0.93147,0.082594,-0.322446,-6.3875,-2.1875,-1.33
230,10218111,0.9372040999999999,0.094306,-0.33318200000000003,-7.6125,-2.905,-1.4525
231,10218207,0.94916,0.105774,-0.335744,-8.05,-3.3425,-1.33
232,10218304,0.954284,0.11211800000000001,-0.33818400000000004,-7.9975,-3.605,-0.7175
233,10218401,0.9470860000000001,0.12029200000000001,-0.34050199999999997,-8.19,-3.3075,0.105
234,10218498,0.9465981,0.115168,-0.335988,-7.9975,-2.7125,0.4725
235,10218594,0.9372040999999999,0.105774,-0.32879,-7.5425,-3.0975,0.56
236,10218691,0.9224421,0.097966,-0.329278,-7.5425,-3.325,0.6825
237,10218788,0.9065821,0.08820599999999999,-0.324642,-7.0525,-3.2025,0.8225
238,10218885,0.90951,0.091744,-0.323788,-6.755,-3.7625,0.9975
239,10218981,0.910974,0.091134,-0.329766,-6.3,-4.41,0.49
240,10219078,0.9147559999999999,0.094306,-0.33123,-5.565,-4.725,0.07
241,10219175,0.9200021,0.099186,-0.323422,-4.9,-4.5325,-0.49
242,10219272,0.9228081,0.10943399999999999,-0.30744,-4.9875,-3.955,-1.3125
243,10219368,0.936716,0.12761199999999998,-0.310734,-4.7075,-2.7475,-1.54
244,10219465,0.946232,0.12017,-0.320006,-4.1475,-2.8525,-2.2225
245,10219562,0.96319,0.09613601,-0.325008,-3.3425,-3.22,-1.7325
246,10219659,0.9472079999999999,0.083814,-0.326106,-2.94,-4.2,-0.6125
247,10219755,0.9333,0.083814,-0.326594,-3.01,-4.3925,-0.56
248,10219852,0.9459880999999999,0.094062,-0.33000999999999997,-2.5725,-4.5675,-0.5425
249,10219949,0.9502581,0.09930800000000001,-0.329644,-2.2225,-5.04,-0.7175
250,10220045,0.9494040000000001,0.105896,-0.33916,-1.925,-5.67,-0.8575
251,10220142,0.9470860000000001,0.11285,-0.34867600000000004,-1.8375,-6.51,-1.4
252,10220239,0.9391560999999999,0.115168,-0.34867600000000004,-1.715,-7.315,-2.0825
253,10220336,0.9272,0.119682,-0.347578,-1.505,-7.49,-2.065
254,10220433,0.9198799999999999,0.114924,-0.351116,-0.875,-7.3325,-2.1175
255,10220529,0.9106081,0.10736,-0.343918,0.175,-7.14,-2.065
256,10220626,0.9010921000000001,0.093086,-0.33818400000000004,1.05,-6.4575,-2.205
257,10220723,0.90402,0.07881200000000001,-0.336354,1.19,-6.6675,-2.2575
258,10220819,0.9131700999999999,0.06661201,-0.33171799999999996,0.91,-7.49,-1.995
259,10220916,0.9256141,0.064294,-0.329278,0.1925,-8.575,-1.7675
260,10221013,0.9362280000000001,0.063684,-0.325008,-1.085,-8.925,-1.575
261,10221110,0.9472079999999999,0.08723001,-0.3233,-2.2575,-8.8725,-1.0675
262,10221206,0.9453780999999999,0.11053199999999999,-0.331962,-3.22,-9.485,-0.7875
263,10221303,0.9490379999999999,0.11163,-0.337818,-2.905,-10.2025,-1.225
264,10221400,0.9440360999999999,0.1098,-0.334402,-2.065,-10.675,-1.2775
265,10221497,0.936472,0.098088,-0.33305999999999997,-1.6275,-10.395,-1.3825
266,10221594,0.9381801,0.09223200000000001,-0.33379200000000003,-0.7525,-10.2725,-1.365
267,10221690,0.9379360000000001,0.09625801,-0.33855,-0.175,-11.025,-1.0325
268,10221787,0.940132,0.09333,-0.341966,-0.07,-11.6375,-1.015
269,10221884,0.940132,0.09455001,-0.34526,0.14,-12.2675,-0.77
270,10221981,0.936472,0.100284,-0.35014,-0.385,-13.16,-0.6475
271,10222077,0.9301280000000001,0.107482,-0.353434,-1.0325,-13.5975,-0.6475
272,10222174,0.9242720999999999,0.10394400000000001,-0.354288,-1.2775,-13.9125,-0.8575
273,10222271,0.9189040999999999,0.09638,-0.34953,-0.8400001,-13.9475,-1.225
274,10222368,0.926834,0.102724,-0.34281999999999996,-0.315,-13.02,-1.6625
275,10222464,0.9414741,0.10553,-0.35258,-0.6125,-12.8275,-1.995
276,10222561,0.955992,0.108458,-0.368562,-1.155,-13.2125,-2.0475
277,10222658,0.9718521000000001,0.094916,-0.387594,0.105,-13.16,-2.135
278,10222755,0.9846620999999999,0.08174001,-0.390278,1.085,-13.44,-2.3975
279,10222851,0.984906,0.07710399999999999,-0.39271799999999996,0.805,-14.0,-2.5025
280,10222948,0.9779521000000001,0.08308201,-0.40565,-0.385,-14.35,-3.045
281,10223045,0.957456,0.08479,-0.411262,-1.05,-14.91,-3.6225
282,10223142,0.9353741,0.07710399999999999,-0.40528400000000003,-0.8575,-15.54,-3.71
283,10223238,0.917074,0.073688,-0.399306,0.2625,-16.4675,-3.2375
284,10223335,0.892064,0.08649801,-0.393938,0.735,-19.25,-2.7475
285,10223432,0.8904780000000001,0.097722,-0.390644,0.9625,-21.035,-3.535
286,10223529,0.879986,0.098576,-0.390034,0.8400001,-20.5625,-3.395
287,10223625,0.8547319999999999,0.100162,-0.388814,0.9975,-19.6,-1.89
288,10223722,0.859856,0.074664,-0.392108,2.275,-18.095,-1.4
289,10223819,0.8607100000000001,0.064782,-0.38552,3.99,-16.8875,-0.49
290,10223916,0.8602221,0.063074,-0.379298,4.235,-17.115,-0.5775
291,10224013,0.8563181000000001,0.054167999999999994,-0.37515,3.675,-17.6925,-1.4175
292,10224109,0.859002,0.042578,-0.36941599999999997,2.905,-17.465,-1.96
293,10224206,0.8575379999999999,0.040260000000000004,-0.364658,2.3275,-17.3075,-1.96
294,10224303,0.856684,0.043188,-0.363804,1.3475,-18.2,-1.995
295,10224400,0.855708,0.052338,-0.36356,0.6475,-18.8475,-1.855
296,10224496,0.8574161,0.07259,-0.36197399999999996,0.0175,-18.9,-1.54
297,10224593,0.8672979999999999,0.08869401,-0.36575599999999997,-0.595,-18.8125,-1.435
298,10224690,0.8834021000000001,0.08759601,-0.376614,-1.05,-18.69,-1.1725
299,10224787,0.9030440000000001,0.07686,-0.377956,-0.5425,-17.745,-0.7875
300,10224883,0.918294,0.06746601,-0.37551599999999996,-0.4725,-17.115,-0.7
301,10224980,0.92537,0.06283,-0.378688,-1.365,-16.555,-1.2425
302,10225077,0.9264680000000001,0.06270801,-0.375638,-2.8175,-16.73,-1.5925
303,10225174,0.9174399999999999,0.065514,-0.36783000000000005,-4.0075,-17.3775,-1.6275
304,10225270,0.9125601000000001,0.066856,-0.36636599999999997,-4.2,-17.745,-1.9425
305,10225367,0.91561,0.066734,-0.36173,-4.3925,-17.955,-2.625
306,10225464,0.9351299999999999,0.066856,-0.35624,-4.7775,-18.6025,-2.8
307,10225561,0.943426,0.07173600000000001,-0.358558,-5.215,-19.7575,-2.0125
308,10225657,0.9284200999999999,0.085156,-0.349408,-6.09,-21.1575,-0.3675
309,10225754,0.916098,0.089426,-0.335988,-6.3,-21.4025,1.085
310,10225851,0.9085340000000001,0.098332,-0.320494,-5.9325,-22.1025,2.8
311,10225948,0.8897459999999999,0.116876,-0.309636,-6.51,-22.4875,5.215
312,10226044,0.8762040000000001,0.130906,-0.32391,-7.8575,-20.9825,7.56
313,10226141,0.8677860000000001,0.133712,-0.32757,-7.4725,-19.25,8.645
314,10226238,0.8834021000000001,0.11846199999999998,-0.335988,-5.67,-17.955,8.5575
315,10226335,0.9030440000000001,0.10065,-0.32391,-2.6075,-18.165,8.505
316,10226431,0.9091440000000001,0.094916,-0.316712,-0.3325,-19.8625,8.47
317,10226528,0.913292,0.108824,-0.31890799999999997,1.4875,-22.61,8.4
318,10226625,0.9143899999999999,0.093086,-0.34586999999999996,4.7775,-24.4825,9.1175
319,10226722,0.92232,0.081374,-0.38856999999999997,9.9225,-25.9,10.8675
320,10226818,0.9147559999999999,0.08637601,-0.42443800000000004,16.5375,-27.825,11.025
321,10226915,0.9037761000000001,0.10430999999999999,-0.43249,26.11,-29.6975,7.4375
322,10227012,0.890966,0.128832,-0.437126,35.35,-33.775,1.3475
323,10227109,0.8439959999999999,0.1098,-0.43639399999999995,41.1075,-38.2025,-5.74
324,10227206,0.777872,0.070638,-0.383324,46.025,-36.54,-13.3
325,10227302,0.7340741,0.030378,-0.34123400000000004,50.5575,-27.58,-22.295
326,10227399,0.7357821,0.010492,-0.3355,51.1875,-21.245,-30.59
327,10227496,0.779702,-0.0017079999999999999,-0.343918,48.1075,-20.1425,-38.115
328,10227593,0.868762,-0.0305,-0.305,44.975,-19.4075,-45.15
329,10227689,0.990762,-0.044407999999999996,-0.21618400000000002,39.4625,-12.8975,-50.7325
330,10227786,1.087386,-0.10723800000000001,-0.090158,34.4925,10.045,-51.94
331,10227883,1.1364299999999998,-0.12285399999999999,-0.174216,31.4825,57.085,-46.3575
332,10227980,1.2791700000000001,-0.12431800000000001,-0.30353600000000003,32.9525,100.7125,-32.1825
333,10228076,1.312476,-0.10321199999999998,-0.360998,38.08,101.815,-9.03
334,10228173,1.449848,-0.09455001,-0.154696,34.9825,45.5,9.345
335,10228270,1.36457,-0.045627999999999995,-0.127734,6.3875,7.315,23.1525
336,10228367,1.149606,-0.093696,-0.28023400000000004,3.5525,17.6575,28.4375
337,10228464,1.054202,-0.107482,-0.387106,20.5625,28.8575,34.335
338,10228560,1.093852,-0.055754,-0.33671999999999996,29.8725,9.17,36.96
339,10228657,1.052616,0.031110000000000002,-0.265472,29.6625,-18.0425,35.8575
340,10228754,0.950868,0.08869401,-0.24717199999999998,26.4775,-35.84,33.18
341,10228851,0.8489979999999999,0.152256,-0.24558600000000003,26.11,-42.525,30.0475
342,10228947,0.747128,0.158478,-0.258152,26.705,-36.61,25.795
343,10229044,0.678808,0.14274,-0.25803000000000004,27.825,-26.88,20.7725
344,10229141,0.6517241,0.07015,-0.262666,26.53,-18.69,16.345
345,10229238,0.631838,-0.027694,-0.26047,22.54,-11.025,13.2475
346,10229334,0.634522,-0.10833599999999999,-0.25254,16.0825,-6.405,12.4775
347,10229431,0.659166,-0.135786,-0.23911999999999997,9.2225,-1.9775,13.37
348,10229528,0.701256,-0.163602,-0.226066,2.275,3.8325,13.7375
349,10229625,0.7296819999999999,-0.169946,-0.228384,-4.9875,8.295,13.475
350,10229722,0.7539600000000001,-0.170434,-0.21520799999999998,-11.0425,8.505,13.0725
351,10229818,0.777018,-0.17751,-0.165676,-18.3575,7.0175,12.845
352,10229915,0.802272,-0.21362199999999998,-0.108702,-28.7,8.68,13.37
353,10230012,0.8169121,-0.199348,-0.079666,-39.4275,11.48,15.2425
354,10230109,0.8365541,-0.164212,-0.07381001,-45.8675,14.525,17.2025
355,10230205,0.8718120999999999,-0.11626600000000001,-0.089304,-52.6575,19.1975,17.9725
356,10230302,0.9036540000000001,-0.082594,-0.100284,-57.4525,23.7825,17.6225
357,10230399,0.95221,-0.058316,-0.06539201,-60.4625,25.55,16.8875
358,10230496,0.9985700999999999,-0.0366,-0.009637999999999999,-65.6775,26.7225,16.7475
359,10230592,1.031754,-0.010248,-0.000122,-67.025,27.7375,16.5725
360,10230689,1.062986,0.021106,-0.0366,-64.7675,27.545,15.505
361,10230786,1.127646,0.060634,-0.047945999999999996,-62.0375,26.6,15.8725
362,10230883,1.239886,0.098942,-0.010858,-58.9575,27.5975,18.4625
363,10230980,1.354688,0.11760799999999999,0.026962,-55.93,32.55,22.1725
364,10231076,1.4568020000000002,0.11577799999999999,0.063196,-53.2525,35.8575,24.43
365,10231173,1.50365,0.06636801,0.07722601,-53.0075,34.2475,24.325
366,10231270,1.497672,-0.018544,0.09150001,-52.5525,25.0775,22.435
367,10231367,1.5018200000000002,-0.07747001,0.15799000000000002,-52.22,10.2725,19.635
368,10231463,1.539396,-0.106018,0.165432,-54.845,-4.9,16.9575
369,10231560,1.49755,-0.115656,0.196298,-55.8775,-24.15,13.9475
370,10231657,1.280024,-0.09979600000000001,0.222894,-62.65,-43.4,10.815
371,10231754,1.244278,-0.15311,-0.216306,-66.9725,-60.515,10.4125
372,10231850,1.590514,0.043066,-1.6287,-28.07,-62.2125,18.13
373,10231947,1.604178,0.605364,-1.00711,28.14,6.685,47.32
374,10232044,1.02846,0.8327720999999999,-0.579012,-50.1025,89.2325,56.2625
375,10232141,0.5361899999999999,0.452254,-0.8256960999999999,-4.6725,26.425,34.475
376,10232238,0.6856399999999999,-0.013908000000000002,-0.8754719999999999,107.0825,-69.7725,8.1025
377,10232334,0.6319600000000001,-0.171044,-0.554002,52.43,-51.695,13.09
378,10232431,0.635498,-0.266448,-0.292434,-0.9625,-2.3275,-0.1575
379,10232528,0.772382,-0.270596,-0.588162,-18.7075,21.9275,-19.0575
380,10232625,0.9862479999999999,-0.215452,-0.8249639999999999,-36.225,50.9425,-25.48
381,10232721,1.161684,-0.08235001,-0.8102020000000001,-46.0775,67.305,-17.3775
382,10232818,1.2038959999999999,-0.08442401,-0.684542,-32.2175,49.4025,-9.87
383,10232915,1.224636,-0.069174,-0.60207,-19.285,18.0425,-7.42
384,10233012,1.262334,0.029158,-0.49422200000000005,-7.7,5.285,-2.1
385,10233109,1.3540780000000001,0.06490399999999999,-0.41272600000000004,4.27,18.095,-1.68
386,10233205,1.363472,0.094306,-0.498004,13.0725,42.385,-4.8825
387,10233302,1.2641639999999998,0.05355801,-0.5734,18.0775,44.4325,-7.8575
388,10233399,1.2347620000000001,0.007442,-0.47946000000000005,20.0025,4.795,-7.385
389,10233496,1.148752,-0.028669999999999998,-0.41577600000000003,15.9075,-29.925,-6.7375
390,10233592,0.9969841,-0.095038,-0.3477,9.345,-35.805,-11.7425
391,10233689,0.9079241,-0.109678,-0.300608,5.145,-25.9525,-16.625
392,10233786,0.8977980999999999,-0.098942,-0.29572800000000005,4.6725,-10.64,-21.8575
393,10233883,0.9404981,-0.09345201,-0.279136,5.88,-3.1325,-25.55
394,10233980,0.9699,-0.137738,-0.235948,3.36,-6.545,-29.0675
395,10234076,0.8608319999999999,-0.177144,-0.212402,-2.625,-12.1275,-30.3275
396,10234173,0.6828341,-0.180072,-0.223504,-8.2425,-17.15,-30.695
397,10234270,0.543144,-0.18727,-0.21472,-13.16,-24.0275,-31.395
398,10234367,0.46628400000000003,-0.11541199999999999,-0.17873,-17.255,-26.7925,-28.735
399,10234463,0.4668941,-0.015128,-0.20008,-19.1625,-19.005,-25.6725
400,10234560,0.46421,0.027694,-0.196054,-18.4975,-11.025,-24.1675
401,10234657,0.43944399999999995,0.116388,-0.208132,-19.32,-6.2475,-22.4875
402,10234754,0.467138,0.15018199999999998,-0.20984,-20.335,-3.36,-22.8725
403,10234850,0.491782,0.22033200000000003,-0.236314,-16.1175,6.755,-22.82
404,10234947,0.560346,0.252784,-0.269742,-9.0475,16.3625,-25.655
405,10235044,0.589504,0.250832,-0.228506,0.28,18.1825,-27.5975
406,10235141,0.61549,0.25071,-0.227042,12.3025,25.2875,-28.49
407,10235237,0.6439159999999999,0.250344,-0.235704,20.2125,28.3675,-32.34
408,10235334,0.7044279999999999,0.19702999999999998,-0.162626,28.1575,23.905,-35.14
409,10235431,0.745908,0.135176,-0.11138599999999999,28.0875,18.3925,-35.315
410,10235528,0.72529,0.077836,-0.10858,22.995,13.9825,-34.02
411,10235624,0.684786,0.042456,-0.144326,19.7575,10.8325,-30.625
412,10235721,0.665266,0.04404201,-0.12431800000000001,21.1925,8.855,-27.93
413,10235818,0.663192,0.008540001,-0.078446,22.9075,9.625,-25.865
414,10235915,0.6545300000000001,-0.010004,-0.09381801,25.3225,9.8525,-20.8775
415,10236011,0.6497721,0.02257,-0.158844,29.435,-2.66,-15.855
416,10236108,0.603534,0.06527000000000001,-0.2013,32.9,-30.0475,-11.515
417,10236205,0.741028,0.15006,-0.21386599999999997,38.3075,-50.4,-7.91
418,10236302,0.87718,0.20105599999999998,-0.209718,50.89,-43.3125,-5.8975
419,10236398,0.9317141,0.21801399999999999,-0.162504,70.3675,-24.605,-2.24
420,10236495,0.9772200999999999,0.22106399999999998,-0.189466,81.585,-4.48,-0.6825
421,10236592,0.9950319999999999,0.174826,-0.169336,88.865,9.38,-4.4625
422,10236689,1.003328,0.10858,-0.12248800000000001,91.595,17.5875,-11.3225
423,10236785,1.054934,0.055265999999999996,-0.040260000000000004,83.93001,24.5525,-20.8425
424,10236882,1.179618,0.001952,0.04697001,73.325,34.125,-31.535
425,10236979,1.352248,-0.111142,0.108214,53.62,35.1925,-38.815
426,10237076,1.43777,-0.22277199999999997,0.177022,31.1325,24.3775,-37.6075
427,10237172,1.4119059999999999,-0.21093800000000001,0.239486,16.765,10.5525,-29.1725
428,10237269,1.380796,-0.048556,0.24156,11.62,-4.2,-21.4025
429,10237366,1.4629020000000001,0.11407,-0.191662,8.3475,-20.2125,-10.6225
430,10237463,1.6380940000000002,0.094672,-0.980758,-4.515,-36.26,-2.625
431,10237559,1.591246,-0.174582,-1.43411,-2.6775,-0.9975,-14.4025
432,10237656,1.5761180000000001,-0.40443,-0.615124,44.9575,84.735,-45.36
433,10237753,1.470588,-0.7065020000000001,-0.068076,24.8325,105.5425,-70.6475
434,10237850,1.113372,-0.395524,-0.441762,-87.5,43.8725,-62.335
435,10237946,0.5936520000000001,0.222162,-0.6224441,-121.1,30.94,-34.5275
436,10238043,0.500444,0.38918,-0.506422,-92.1725,48.545,-33.355
437,10238140,0.6912520000000001,0.380274,-0.43798000000000004,-57.26,33.9675,-33.915
438,10238236,0.8331381,0.546194,-0.8653460999999999,-49.5075,7.4375,-15.0675
439,10238333,1.054446,0.637938,-0.9351299999999999,-13.265,7.9275,-9.45
440,10238430,1.471686,0.535702,-0.62708,41.5275,39.5325,-27.8775
441,10238527,1.86355,0.44078599999999996,-0.531798,53.1475,50.47,-42.6825
442,10238623,1.9857939999999998,0.31232,-0.496174,22.155,16.555,-43.2425
443,10238720,1.631384,0.22996999999999998,-0.474092,-5.2675,-15.6975,-35.035
444,10238817,1.351394,0.124928,-0.5191100000000001,-13.2125,-34.195,-27.2825
445,10238914,1.218292,0.132492,-0.5170359999999999,-11.27,-51.45,-11.9875
446,10239010,1.040538,0.120902,-0.46896800000000005,-4.4975,-71.6625,-1.05
447,10239107,0.951356,0.137738,-0.376004,-0.14,-89.86251,4.34
448,10239204,0.8995059999999999,0.15018199999999998,-0.271206,9.9925,-83.4225,11.0425
449,10239301,0.85705,0.156526,-0.205326,23.205,-62.8775,18.025
450,10239397,0.7333420999999999,0.079178,-0.163724,26.0925,-50.26,20.825
451,10239494,0.6280560000000001,0.009150001,-0.12761199999999998,19.915,-42.42,18.9175
452,10239591,0.621468,-0.068076,-0.119316,13.475,-33.2675,15.785
453,10239688,0.53192,-0.111508,-0.089914,6.7725,-25.305,13.615
454,10239784,0.479216,-0.154574,-0.10906800000000001,-3.0275,-15.085,12.8625
455,10239881,0.43371000000000004,-0.12322000000000001,-0.074664,-7.84,-5.95,16.94
456,10239978,0.45164399999999993,-0.183,-0.23301999999999998,-9.5725,5.53,20.265
457,10240075,0.472872,-0.17214200000000002,-0.17995,-3.605,-1.33,27.265
458,10240171,0.45506,-0.186172,-0.186782,-13.615,-11.1825,28.945
459,10240268,0.38795999999999997,-0.168604,-0.111508,-20.79,-12.425,30.94
460,10240365,0.39174200000000003,-0.189222,-0.12334200000000001,-28.315,-3.9375,32.5325
461,10240462,0.44713,-0.17616800000000002,-0.160674,-33.46,0.7175,34.7725
462,10240558,0.479338,-0.15274400000000002,-0.142252,-48.2825,-9.415,33.0225
463,10240655,0.475922,-0.10650599999999999,-0.09040201,-63.805,-16.975,29.4175
464,10240752,0.506788,-0.070882,-0.051484,-73.08,-13.72,24.22
465,10240849,0.536068,-0.029646,-0.009150001,-79.1525,-7.595,21.1925
466,10240946,0.567666,0.027694,0.02928,-82.775,-8.855,18.305
467,10241042,0.636718,0.10345599999999999,0.040016,-83.93001,-16.66,15.5575
468,10241139,0.73627,0.149328,-0.03477,-80.08,-23.6075,13.9825
469,10241236,0.823622,0.180316,-0.100284,-73.99,-29.1725,13.86
470,10241333,0.8949921000000001,0.202154,-0.15054800000000002,-71.365,-26.3025,13.79
471,10241429,1.004426,0.191174,-0.151036,-62.2475,-15.4,13.7025
472,10241526,1.138992,0.166042,-0.261934,-53.165,-6.8075,12.7575
473,10241623,1.1953559999999999,0.148352,-0.340258,-48.7375,-7.6125,13.3875
474,10241720,1.211948,0.137982,-0.321226,-45.185,-7.07,15.1375
475,10241816,1.262944,0.156404,-0.271084,-30.6075,0.9275,17.115
476,10241913,1.3255299999999999,0.205448,-0.170678,-15.155,-0.35,19.53
477,10242010,1.283074,0.278526,-0.09381801,-9.905,-6.2125,21.1225
478,10242107,1.23159,0.292068,0.004026,-6.6325,-8.6625,17.8675
479,10242203,1.25904,0.24436599999999997,0.102358,-10.08,-10.2375,12.495
480,10242300,1.30784,0.12712400000000001,0.19093,-16.415,-10.675,5.425
481,10242397,1.396656,-0.036233999999999995,-0.054412,-30.1875,-9.1,-1.7675
482,10242494,1.547448,-0.08113001,-0.654042,-39.3925,-15.75,-0.7175
483,10242590,1.73606,0.097234,-0.9075581,-29.8375,-17.6575,12.7225
484,10242687,1.752286,0.361608,-0.790926,-8.785,28.8575,30.7475
485,10242784,1.450214,0.48922,-0.945866,10.43,58.45,52.605
486,10242881,1.013332,0.491782,-0.885964,39.2175,42.735,66.36
487,10242977,0.773724,0.266448,-0.670268,46.165,35.1925,61.4075
488,10243074,0.69845,-0.01342,-0.396622,35.315,35.175,53.375
489,10243171,0.606096,-0.169946,-0.362706,11.5675,41.51,46.585
490,10243268,0.6329359999999999,-0.365268,-0.5249659999999999,-9.2925,47.6525,34.6325
491,10243364,0.8596120999999999,-0.42883009999999994,-0.488976,-17.185,33.145,23.975
492,10243461,1.263798,-0.396378,-0.49995600000000007,-19.6525,21.21,18.4625
493,10243558,1.730936,-0.37759000000000004,-0.5751081,-17.045,21.315,7.0175
494,10243655,1.9720080000000002,-0.154452,-0.536434,-8.015,17.3075,-8.365
495,10243751,2.0886400000000003,0.126636,-0.316224,0.7525,-13.6325,-21.21
496,10243848,1.6389479999999998,0.234118,-0.33123,0.6125,-29.2775,-20.8775
497,10243945,1.159366,0.22265,-0.502518,-0.4025,-43.0675,-16.135
498,10244042,0.937448,0.165188,-0.5410699999999999,0.5075,-66.0625,-17.045
499,10244138,0.809714,0.135176,-0.332816,8.2775,-82.495,-22.7325
500,10244235,0.739808,0.133102,-0.23521599999999998,10.15,-80.36,-26.9325
501,10244332,0.7018661,0.09735601,-0.21057199999999998,14.035,-65.7475,-30.5025
502,10244429,0.671976,0.058072000000000006,-0.241438,13.755,-48.4575,-33.04
503,10244525,0.5596140000000001,0.006344,-0.23448400000000003,12.0225,-34.895,-34.09
504,10244622,0.46908999999999995,0.01403,-0.22057600000000002,15.925,-20.02,-35.385
505,10244719,0.411384,0.07612801,-0.21093800000000001,23.905,-7.4725,-38.045
506,10244816,0.31890799999999997,0.158844,-0.199958,29.225,1.085,-39.725
507,10244912,0.27071799999999996,0.15006,-0.22057600000000002,32.865,6.685,-45.2725
508,10245009,0.24412199999999998,0.170434,-0.159088,30.87,2.7125,-48.44
509,10245106,0.263886,0.195688,-0.21581799999999998,31.8325,5.075,-49.3325
510,10245203,0.286578,0.24717199999999998,-0.236192,34.16,0.28,-47.8625
511,10245300,0.36941599999999997,0.227408,-0.270474,33.4775,-5.11,-46.2175
512,10245396,0.42212,0.21655,-0.23301999999999998,40.39,-5.8975,-42.0525
513,10245493,0.5043479999999999,0.129564,-0.15054800000000002,48.6325,-2.0125,-35.2975
514,10245590,0.5612,0.081374,-0.094916,53.3925,5.495,-24.675
515,10245687,0.578036,0.052948,-0.077958,59.01,10.6925,-14.3325
516,10245783,0.724436,0.0488,-0.049288,65.66,12.74,-10.3775
517,10245880,0.8820601,0.020496,-0.082716,61.81,11.025,-9.24
518,10245977,0.9978379999999999,-0.007808001,-0.08064199,58.765,3.8675,-6.8425
519,10246074,1.0473700000000001,-0.050263999999999996,-0.105652,57.575,-4.795,-5.1975
520,10246170,1.008208,-0.106994,-0.164212,57.3125,-10.5,-7.77
521,10246267,0.9878341,-0.10760399999999999,-0.212646,54.18,-15.3825,-11.025
522,10246364,0.9282981,-0.050752,-0.21801399999999999,51.415,-9.8525,-16.17
523,10246461,0.818376,0.00244,-0.110044,48.3875,1.225,-22.2775
524,10246557,0.8777901,0.053924,0.046726,43.2425,14.28,-27.405
525,10246654,1.04249,0.0793,0.00305,40.775,30.66,-28.105
526,10246751,1.086654,0.054778,-0.09455001,32.5325,24.78,-26.6525
527,10246848,1.120204,0.032330000000000005,-0.171166,15.645,14.35,-25.34
528,10246945,1.1958440000000001,0.025742,-0.19397999999999999,8.5925,27.51,-25.9875
529,10247041,1.334924,-0.031110000000000002,-0.098942,16.03,38.0275,-25.9175
530,10247138,1.455826,-0.045506,0.077958,18.9175,28.875,-23.345
531,10247235,1.5013319999999999,0.009150001,0.22265,17.08,9.135,-17.465
532,10247332,1.41215,0.087962,0.23301999999999998,13.1075,-3.5175,-6.3175
533,10247428,1.275266,0.165554,-0.04392,10.29,-15.4875,3.64
534,10247525,1.249158,0.12175599999999999,-0.74237,1.9775,-39.3925,8.225
535,10247622,1.266604,-0.10797000000000001,-1.2913700000000001,3.78,-25.515,-4.0425
536,10247719,1.425448,-0.300852,-0.888648,32.5675,61.9325,-41.405
537,10247815,1.4661959999999998,-0.523746,-0.29682600000000003,38.5,94.255,-81.77750999999999
538,10247912,1.192916,-0.360632,-0.484096,-62.8775,26.8625,-94.4825
539,10248009,0.65941,0.097478,-0.52277,-111.475,-0.1225,-70.0525
540,10248106,0.393694,0.47092,-0.392474,-82.5825,33.5125,-57.225
541,10248202,0.49446599999999996,0.552294,-0.238632,-37.765,26.6875,-56.7175
542,10248299,0.681736,0.60695,-0.6810039999999999,-30.03,12.1275,-39.9
543,10248396,0.9674601,0.61122,-0.8890140999999999,-6.09,9.59,-25.9525
544,10248493,1.487058,0.512034,-0.793366,39.095,26.985,-31.0275
545,10248590,1.954562,0.343918,-0.653554,61.5475,53.13,-38.08
546,10248686,2.248094,0.154086,-0.338794,48.5275,34.5275,-28.7525
547,10248783,2.1343900000000002,-0.091012,-0.31402800000000003,1.9075,-15.5225,-8.2425
548,10248880,1.558062,-0.096868,-0.458232,-34.125,-49.3675,3.465
549,10248977,1.1720540000000002,-0.068076,-0.525332,-37.03,-69.80751,11.4275
550,10249073,1.01016,-0.08503401,-0.44200600000000007,-21.175,-79.6425,21.455
551,10249170,0.9641661,-0.069784,-0.256322,-7.175,-71.4525,27.825
552,10249267,0.980758,-0.011101999999999999,-0.198006,-1.4175,-54.565,30.1
553,10249364,0.8840120000000001,0.087108,-0.18141400000000002,2.8175,-43.1025,30.8525
554,10249460,0.7168720000000001,0.183732,-0.135908,2.6425,-40.8625,27.685
555,10249557,0.733464,0.145424,-0.162382,-0.28,-32.795,21.8575
556,10249654,0.693082,0.11248399999999999,-0.11919400000000001,1.1375,-20.7025,19.985
557,10249751,0.590114,0.03965,-0.06283,-10.3425,-20.1075,17.01
558,10249847,0.528626,-0.03904,-0.064172,-25.55,-21.945,18.6725
559,10249944,0.453474,-0.135908,-0.181536,-29.0675,-23.52,24.7975
560,10250041,0.38369000000000003,-0.14493599999999998,-0.112606,-18.6375,-28.5075,31.1325
561,10250138,0.395768,-0.13969,-0.10052799999999999,-10.7975,-19.845,36.05
562,10250234,0.421022,-0.17629,-0.170312,-5.8975,-12.18,39.515
563,10250331,0.41663,-0.177266,-0.09869801,-7.035,-15.89,40.7925
564,10250428,0.419436,-0.156404,-0.089426,-18.7775,-18.06,38.36
565,10250525,0.41858199999999995,-0.13383399999999998,-0.074542,-29.2075,-22.2075,34.44
566,10250622,0.389302,-0.10931199999999999,-0.079422,-44.0475,-31.605,27.2825
567,10250718,0.36905,-0.10736,-0.056852,-58.1175,-36.1375,19.1625
568,10250815,0.38064000000000003,-0.102358,-0.024522,-70.2275,-34.0375,12.11
569,10250912,0.42773199999999995,-0.074298,-0.09272000000000001,-78.19,-25.41,7.0175
570,10251009,0.5267960999999999,-0.02806,-0.1769,-80.745,-22.3475,3.4825
571,10251105,0.61061,0.016714,-0.203496,-85.0675,-20.7375,-0.4025
572,10251202,0.6542859999999999,0.101382,-0.181536,-86.29251,-9.52,-1.8025
573,10251299,0.761524,0.13383399999999998,-0.119316,-76.335,4.165,0.56
574,10251396,0.8784,0.160064,-0.13944600000000001,-68.425,7.1575,4.9875
575,10251492,0.9941780000000001,0.16652999999999998,-0.21667199999999998,-63.7875,-0.105,9.9575
576,10251589,1.14009,0.18629400000000002,-0.28328400000000004,-51.765,-4.5325,12.88
577,10251686,1.27185,0.21813600000000002,-0.262544,-33.0225,4.55,14.8225
578,10251783,1.430572,0.318542,-0.155184,-16.17,20.3875,15.995
579,10251879,1.508286,0.397354,-0.05929201,-4.865,24.3425,18.9525
580,10251976,1.501576,0.368562,0.05124001,0.5775,9.87,22.1025
581,10252073,1.4696120000000001,0.239608,0.137494,-6.3,-5.5825,21.805
582,10252170,1.444236,0.117852,0.191174,-12.9325,-11.4975,15.645
583,10252266,1.390922,0.014396,0.20313,-21.0525,-11.5675,6.8775
584,10252363,1.3826260000000001,-0.064538,0.06649,-41.2125,-7.385,-0.9625
585,10252460,1.489498,-0.156282,-0.46323400000000003,-56.3325,-4.585,-4.2525
586,10252557,1.631262,0.017446,-0.924882,-56.98,-19.6875,7.8575
587,10252653,1.6235760000000001,0.470188,-1.052616,-27.58,-11.935,27.2475
588,10252750,1.351516,0.799588,-1.00101,27.93,60.9,47.5475
589,10252847,1.010648,0.9140241,-1.035658,53.7775,64.4525,71.3125
590,10252944,0.66551,0.52765,-0.751154,69.3525,19.145,72.4675
591,10253040,0.512888,0.07722601,-0.459086,64.435,16.31,60.69
592,10253137,0.557662,-0.15054800000000002,-0.34782199999999996,53.025,18.83,48.72
593,10253234,0.66856,-0.269742,-0.516914,31.9025,12.985,36.6975
594,10253331,0.987102,-0.361852,-0.528748,21.735,6.1425,27.5275
595,10253427,1.359446,-0.394914,-0.623542,12.95,5.985,25.62
596,10253524,1.809382,-0.43066000000000004,-0.643184,12.7925,5.4425,7.175
597,10253621,2.159888,-0.410042,-0.441396,10.78,-5.6525,-15.3475
598,10253718,2.0541139999999998,-0.18239,-0.30036399999999996,20.895,-9.9225,-13.79
599,10253814,1.3826260000000001,0.052826,-0.368562,10.535,-20.8425,-7.28
600,10253911,0.9296399999999999,0.175314,-0.5437541,-15.4525,-43.575,-17.1325
601,10254008,0.773968,0.224846,-0.481412,-7.84,-45.3425,-33.46
602,10254105,0.7895840999999999,0.24802600000000002,-0.29365399999999997,13.4575,-37.765,-38.535
603,10254201,0.824232,0.281088,-0.191906,21.595,-38.71,-37.1
604,10254298,0.78751,0.27084,-0.199104,19.915,-40.705,-34.93
605,10254395,0.6795401,0.221308,-0.214598,18.55,-36.1025,-35.5075
606,10254492,0.559736,0.130174,-0.211792,20.055,-26.5825,-35.1925
607,10254588,0.45164399999999993,0.08759601,-0.166164,26.8975,-12.0225,-33.39
608,10254685,0.387106,0.096014,-0.18361,38.7975,6.72,-35.7875
609,10254782,0.35136,0.076616,-0.154574,48.7375,11.0775,-39.515
610,10254879,0.340258,0.08674201,-0.119072,52.745,8.4875,-44.2225
611,10254975,0.354166,0.157868,-0.124074,53.095,6.055,-49.91
612,10255072,0.381372,0.21862399999999999,-0.160064,48.86,3.0625,-54.985
613,10255169,0.43810200000000005,0.172996,-0.148352,48.4925,-1.26,-56.9625
614,10255266,0.465674,0.132736,-0.107726,51.415,-3.4825,-52.36
615,10255363,0.474214,0.12529400000000002,-0.07503,60.025,1.4525,-45.5175
616,10255459,0.512888,0.118218,0.001098,66.71,1.6625,-38.1325
617,10255556,0.539606,0.149328,-0.008052001,63.35,-3.0625,-31.7975
618,10255653,0.576572,0.11943800000000002,-0.010004,65.0825,-10.9025,-25.725
619,10255750,0.596214,0.137006,0.011224,72.2925,-18.585,-17.115
620,10255846,0.656482,0.122366,-0.070516,70.7,-18.69,-12.1275
621,10255943,0.727364,0.0305,-0.225944,65.73,-9.17,-8.33
622,10256040,0.785192,-0.061732,-0.252052,71.61,7.105,-6.6325
623,10256137,0.8422879999999999,-0.140178,-0.0976,84.07001,27.1425,-7.665
624,10256233,0.973194,-0.171654,0.00244,79.6775,35.945,-11.27
625,10256330,1.110566,-0.13969,-0.008052001,55.4575,28.385,-15.12
626,10256427,1.188524,-0.049288,-0.114192,34.44,15.3475,-14.5775
627,10256524,1.167418,-0.002562,-0.228994,25.4275,7.91,-14.2625
628,10256620,1.181082,0.018788,-0.262056,20.965,12.3025,-16.0475
629,10256717,1.323212,-0.008418,-0.15823399999999999,28.1575,28.28,-16.9925
630,10256814,1.5170700000000001,0.008296000999999999,0.016714,39.62,26.8625,-18.2525
631,10256911,1.6509040000000001,0.009028000999999999,0.16433399999999998,31.3425,7.98,-20.405
632,10257008,1.613694,0.072956,0.254492,24.36,-2.31,-12.7575
633,10257104,1.493158,0.156404,0.25046599999999997,18.76,-3.08,-3.535
634,10257201,1.342244,0.204716,0.159698,18.48,-12.5825,4.7075
635,10257298,1.268556,0.153354,-0.351238,13.5275,-34.8425,9.0125
636,10257395,1.190964,0.038674,-1.1039780000000001,-3.1675,-49.63,7.4375
637,10257491,1.292468,-0.192882,-1.4299620000000002,-4.2875,-0.7525,-18.76
638,10257588,1.402146,-0.41785,-0.666608,38.7625,80.92,-60.69
639,10257685,1.408124,-0.6326921,-0.331108,6.4925,73.2025,-92.75001
640,10257782,1.02419,-0.24875799999999998,-0.6161,-96.28501,0.1925,-83.30001
641,10257878,0.630252,0.304146,-0.5115460000000001,-111.685,-17.465,-56.6825
642,10257975,0.563762,0.374662,-0.36173,-66.36,7.3325,-47.075
643,10258072,0.652212,0.5282600000000001,-0.573034,-38.4475,-5.88,-32.83
644,10258169,0.8945040000000001,0.545462,-0.8483879999999999,-29.82,-22.5225,-23.38
645,10258265,1.259772,0.490562,-0.78263,12.7925,0.42,-26.67
646,10258362,1.7422819999999999,0.410042,-0.68076,44.8,14.245,-32.445
647,10258459,1.9674939999999999,0.292678,-0.543388,29.2775,3.2725,-23.45
648,10258556,1.912594,0.111752,-0.42028999999999994,-1.33,-27.5625,-11.4275
649,10258652,1.6445599999999998,-0.028304000000000003,-0.50264,-28.8225,-49.0175,-2.205
650,10258749,1.156072,-0.022692,-0.422486,-30.9225,-53.0075,11.7075
651,10258846,0.9862479999999999,-0.03355,-0.4148,-21.42,-51.205,17.745
652,10258943,0.9641661,-0.071004,-0.33245,-12.915,-46.62,19.6875
653,10259039,0.9056061,-0.02562,-0.24363400000000002,-6.265,-45.9375,21.4025
654,10259136,0.803492,0.02684,-0.19947,-1.5925,-44.45,20.5275
655,10259233,0.698206,0.090036,-0.183854,1.4875,-41.9125,20.685
656,10259330,0.628178,0.10516400000000001,-0.130418,3.6925,-37.695,18.0425
657,10259426,0.57889,0.067222,-0.08601,-1.68,-29.7675,14.7525
658,10259523,0.5098381,-0.005246,-0.061488,-11.865,-23.1525,13.2125
659,10259620,0.45554799999999995,-0.077714,-0.036844,-23.1525,-23.38,14.875
660,10259717,0.37881,-0.10797000000000001,-0.11712,-31.3075,-22.9775,22.1025
661,10259813,0.323178,-0.131882,-0.08869401,-25.655,-24.955,28.7525
662,10259910,0.329644,-0.14164200000000002,-0.100284,-26.6175,-21.6125,32.935
663,10260007,0.35136,-0.165432,-0.136518,-22.435,-9.905,37.9925
664,10260104,0.429196,-0.139202,-0.119072,-20.0725,-12.1625,41.3175
665,10260201,0.47372600000000004,-0.107726,-0.08637601,-27.65,-20.685,40.6525
666,10260297,0.495076,-0.091134,-0.06563601,-37.7825,-26.8625,36.6975
667,10260394,0.530334,-0.062341999999999995,-0.03416,-53.0425,-26.9675,32.305
668,10260491,0.540582,-0.030256,-0.027083999999999997,-67.1125,-24.0275,28.3325
669,10260588,0.533506,-0.036722000000000005,-0.038186000000000005,-78.75,-26.0925,23.0125
670,10260684,0.53375,-0.01647,-0.074054,-88.8475,-26.2325,18.62
671,10260781,0.589504,-0.003172,-0.12383,-93.1,-21.665,15.6275
672,10260878,0.647942,0.038796,-0.138104,-93.065,-13.0025,13.335
673,10260975,0.6939361,0.10858,-0.06405001,-87.53501,-2.24,10.4125
674,10261071,0.787266,0.17360599999999998,-0.017324000000000003,-83.4575,5.005,9.625
675,10261168,0.9120720999999999,0.206546,-0.055144000000000006,-80.3775,5.8625,11.8475
676,10261265,1.050786,0.193126,-0.17055599999999999,-74.9,3.36,13.58
677,10261362,1.2043840000000001,0.168604,-0.271816,-64.015,2.6075,16.73
678,10261458,1.3285799999999999,0.192638,-0.30036399999999996,-45.15,6.965,21.175
679,10261555,1.338706,0.285358,-0.24875799999999998,-21.455,20.3525,26.4775
680,10261652,1.379942,0.425414,-0.142374,-3.9725,27.5975,28.35
681,10261749,1.37494,0.45018,-0.006954000000000001,0.5075,15.96,26.88
682,10261845,1.302838,0.274256,0.12468399999999999,-3.01,-0.8575,21.1575
683,10261942,1.299544,0.133224,0.118218,-9.3275,-14.14,17.08
684,10262039,1.31516,0.014274,-0.28694400000000003,-14.14,-20.3175,11.2175
685,10262136,1.42984,0.08808401,-0.915976,-19.88,-22.3125,9.975
686,10262232,1.790472,0.440176,-1.036878,-17.5525,-0.8925,19.6525
687,10262329,1.876238,0.6791739999999999,-0.918538,25.9525,56.1925,36.9775
688,10262426,1.4574120000000002,0.569984,-1.058716,66.185,51.8175,61.0925
689,10262523,0.8504620999999999,0.298656,-0.592066,59.1675,9.3275,58.8
690,10262619,0.685762,-0.11126400000000002,-0.385398,43.9775,18.5325,40.215
691,10262716,0.6791739999999999,-0.307318,-0.32513000000000003,38.15,31.185,35.105
692,10262813,0.687958,-0.390156,-0.42199799999999993,-10.605,18.7425,25.2525
693,10262910,0.862662,-0.40992,-0.45628,-8.6275,13.965,14.8925
694,10263007,1.27673,-0.316834,-0.652944,-3.4825,14.8575,13.23
695,10263103,1.765096,-0.325862,-0.590114,-10.0625,5.5475,10.36
696,10263200,2.02337,-0.25363800000000003,-0.4819,-13.4225,-6.4925,6.615
697,10263297,2.082906,0.024156,-0.43236800000000003,-1.785,-29.2075,12.67
698,10263394,1.6723759999999999,0.26779000000000003,-0.513376,-5.2675,-36.855,14.945
699,10263490,1.15839,0.279136,-0.48556000000000005,-13.4575,-40.0225,10.43
700,10263587,0.9444020000000001,0.21008400000000002,-0.493856,-12.145,-40.4425,3.2375
701,10263684,0.900848,0.128832,-0.396866,-5.39,-35.8225,-3.92
702,10263781,0.8289901,0.104554,-0.285358,-1.2075,-38.325,-6.72
703,10263877,0.761524,0.109922,-0.233386,-5.075,-44.5025,-9.59
704,10263974,0.6912520000000001,0.10516400000000001,-0.21057199999999998,-10.885,-43.1375,-15.085
705,10264071,0.598166,0.09540401,-0.21289,-11.515,-34.125,-20.9125
706,10264168,0.474458,0.057339999999999995,-0.176046,-6.9125,-25.795,-25.13
707,10264264,0.425048,0.100772,-0.16909200000000002,-1.75,-16.3625,-27.2125
708,10264361,0.374662,0.12163399999999999,-0.16909200000000002,7.84,-6.6325,-31.325
709,10264458,0.332816,0.153354,-0.17397200000000002,19.005,-3.9725,-37.73
710,10264555,0.31049,0.23009200000000002,-0.119682,23.8175,-7.56,-42.735
711,10264652,0.34099,0.229116,-0.13944600000000001,21.8225,-8.1375,-47.11
712,10264748,0.389058,0.22252800000000003,-0.163846,22.925,-10.675,-45.465
713,10264845,0.439932,0.231068,-0.19251600000000002,25.3575,-15.0675,-41.1425
714,10264942,0.47885,0.20984,-0.177754,33.2325,-17.6575,-34.0025
715,10265039,0.519476,0.18239,-0.13480999999999999,43.8025,-16.8525,-25.9875
716,10265135,0.5281380999999999,0.165554,-0.046726,51.975,-13.475,-18.62
717,10265232,0.5343600000000001,0.119072,0.001586,57.1025,-6.7375,-14.98
718,10265329,0.5607121,0.091988,0.009150001,61.425,-2.975,-12.1975
719,10265426,0.6359859999999999,0.07881200000000001,-0.021472,64.1025,-4.4275,-9.6425
720,10265522,0.7156520000000001,0.02806,-0.066734,67.2,-7.035,-7.9275
721,10265619,0.764696,-0.005856,-0.11504600000000001,70.035,-6.79,-7.1575
722,10265716,0.845094,-0.069784,-0.188124,64.34751,-3.2725,-9.1875
723,10265813,0.8843781,-0.098576,-0.211304,60.2875,12.145,-12.7225
724,10265909,0.889258,-0.07381001,-0.12468399999999999,63.5075,26.6525,-17.0275
725,10266006,0.9030440000000001,-0.016592,-0.072712,60.4275,31.92,-21.455
726,10266103,0.94489,0.101382,-0.15762400000000001,53.3225,31.6225,-25.8825
727,10266200,1.01809,0.167262,-0.274256,43.19,24.36,-31.1675
728,10266296,1.0760399999999999,0.17238599999999998,-0.322934,29.9775,23.31,-33.355
729,10266393,1.19438,0.001464,-0.199958,30.8175,37.03,-35.49
730,10266490,1.3230899999999999,-0.19154000000000002,-0.017202000000000002,39.6025,37.4675,-34.9475
731,10266587,1.433622,-0.178242,0.12322000000000001,26.0575,18.2175,-31.675
732,10266683,1.447164,-0.097966,0.208742,19.005,6.405,-23.8875
733,10266780,1.3499299999999999,0.08235001,0.247416,20.0725,3.2375,-8.2075
734,10266877,1.238544,0.179828,0.09211,17.85,-8.645,3.2025
735,10266974,1.165466,0.233996,-0.435906,16.3625,-32.6375,6.965
736,10267070,1.1131280000000001,0.170922,-1.320894,0.455,-45.5175,-1.54
737,10267167,1.2463520000000001,-0.049654000000000004,-1.7127580000000002,-8.61,7.245,-27.23
738,10267264,1.28039,-0.291214,-0.7211420999999999,49.245,103.6875,-70.4375
739,10267361,1.272216,-0.618174,-0.363194,18.725,87.8675,-109.655
740,10267458,0.93147,-0.12334200000000001,-0.53741,-96.35501,4.3575,-97.86
741,10267554,0.565226,0.37027,-0.6206141,-91.805,3.4125,-65.1875
742,10267651,0.71614,0.487512,-0.473238,-39.0075,-2.695,-56.2975
743,10267748,0.9707541,0.5486340000000001,-0.75335,-23.695,-6.37,-44.5025
744,10267844,1.396534,0.52582,-0.9572120999999999,-3.605,3.71,-35.2625
745,10267941,1.790716,0.488122,-0.8663219999999999,41.09,19.6525,-39.0075
746,10268038,2.0825400000000003,0.394426,-0.627446,54.04,25.165,-33.88
747,10268135,2.2341860000000002,0.20178800000000002,-0.464454,31.15,-8.8725,-20.125
748,10268231,1.900882,-0.011101999999999999,-0.45579200000000003,-15.155,-45.2725,-11.9875
749,10268328,1.319308,-0.07039400000000001,-0.502762,-36.89,-47.5825,7.5425
750,10268425,1.034316,-0.040626,-0.51179,-32.375,-51.0125,19.7575
751,10268522,0.9297620999999999,-0.07856801,-0.378078,-20.8075,-46.6375,23.065
752,10268618,0.954406,-0.09333,-0.271206,-14.3675,-38.3775,22.68
753,10268715,0.9419620999999999,-0.031232,-0.225212,-9.5725,-32.6025,24.6575
754,10268812,0.8670540999999999,0.035502,-0.17568,-4.725,-34.0725,25.34
755,10268909,0.79178,0.08479,-0.11773,-2.835,-33.6175,27.8775
756,10269006,0.68015,0.064172,-0.10321199999999998,-8.015,-29.155,28.735
757,10269102,0.595238,0.00671,-0.072956,-19.565,-29.7675,26.495
758,10269199,0.509472,-0.07490801,-0.07393200000000001,-34.685,-35.525,26.11
759,10269296,0.449692,-0.161772,-0.12932000000000002,-44.8875,-43.505,30.31
760,10269393,0.397476,-0.20776599999999998,-0.04941,-45.5875,-48.685,39.76
761,10269489,0.384788,-0.232654,-0.12675799999999998,-47.6,-37.8525,46.2
762,10269586,0.34721199999999997,-0.22167399999999998,-0.183976,-38.7625,-24.0625,50.785
763,10269683,0.384788,-0.182756,-0.056608000000000006,-37.45,-32.1475,50.435
764,10269780,0.413946,-0.175314,-0.046726,-47.46,-32.725,49.07
765,10269876,0.40979799999999994,-0.109556,-0.037088,-50.0675,-32.1475,48.0375
766,10269973,0.41663,-0.102358,-0.046726,-61.425,-35.6825,41.545
767,10270070,0.400648,-0.08954801,-0.03294,-74.41,-33.985,36.4525
768,10270167,0.396378,-0.007808001,-0.05563200000000001,-83.615,-25.725,31.0275
769,10270263,0.37271,0.062098,-0.035502,-85.27750999999999,-18.7775,27.1075
770,10270360,0.404796,0.164822,-0.047458,-85.71500999999999,-9.7125,22.7675
771,10270457,0.493856,0.198982,-0.114924,-83.755,1.1725,20.755
772,10270554,0.587064,0.271816,-0.137372,-76.6675,9.9225,20.895
773,10270650,0.6703899999999999,0.346358,-0.092964,-74.2,15.47,19.4075
774,10270747,0.8006861,0.337208,-0.05172801,-74.095,17.115,17.57
775,10270844,0.9697780999999999,0.24107199999999998,-0.15506199999999998,-65.765,15.26,16.73
776,10270941,1.138626,0.147498,-0.297802,-51.415,9.6075,16.03
777,10271037,1.340414,0.142984,-0.298534,-37.1875,5.495,16.765
778,10271134,1.567212,0.270352,-0.25656599999999996,-19.74,14.735,19.6
779,10271231,1.6720099999999998,0.47653199999999996,-0.17140999999999998,1.8375,23.485,22.4
780,10271328,1.595272,0.556198,0.026595999999999998,8.68,6.2125,18.865
781,10271424,1.447042,0.432856,0.14871800000000002,1.26,-9.9225,10.36
782,10271521,1.314184,0.269986,0.137006,-1.925,-15.4175,4.55
783,10271618,1.2883200000000001,0.101626,-0.29768,2.59,-18.27,-0.3675
784,10271715,1.487424,0.239364,-0.9705101,10.57,-11.4975,2.87
785,10271811,1.807186,0.5307,-0.9701440999999998,16.1,16.415,21.6475
786,10271908,1.6534659999999999,0.59902,-0.946232,36.3475,57.505,43.8725
787,10272005,1.1895,0.312076,-1.009794,69.51,43.61,63.84
788,10272102,0.916952,-0.04575,-0.74298,69.9125,20.8425,61.4075
789,10272199,0.8306979999999999,-0.280966,-0.562664,51.6425,24.3775,47.18
790,10272295,0.743468,-0.42199799999999993,-0.407236,27.51,21.175,36.68
791,10272392,0.6720981,-0.5049581,-0.36953800000000003,-19.1975,8.12,21.2275
792,10272489,0.7391979999999999,-0.406382,-0.4404201,-23.3625,9.87,8.19
793,10272586,1.05835,-0.320372,-0.491904,-15.855,5.81,1.715
794,10272682,1.557818,-0.21752600000000002,-0.6539201,-24.045,-6.9825,1.26
795,10272779,2.081442,-0.21045,-0.658312,-32.4975,-18.7775,-6.8775
796,10272876,2.217594,-0.035746,-0.417362,-23.7825,-23.3625,-3.3775
797,10272973,1.8866080000000003,0.222284,-0.434198,-17.535,-31.43,5.5475
798,10273069,1.291126,0.329034,-0.492148,-26.88,-43.5225,7.3675
799,10273166,0.97783,0.28462600000000005,-0.525698,-28.7525,-47.6,2.275
800,10273263,0.9093880999999999,0.20861999999999997,-0.368196,-10.9025,-33.5125,-5.985
801,10273360,0.903166,0.139934,-0.27876999999999996,-3.64,-28.7525,-9.975
802,10273456,0.823256,0.107726,-0.221308,-7.735,-36.3125,-10.115
803,10273553,0.728096,0.023302,-0.20410599999999998,-18.445,-39.8475,-14.4375
804,10273650,0.6058520000000001,-0.031842,-0.21081599999999998,-22.2075,-34.335,-18.41
805,10273747,0.496784,-0.057339999999999995,-0.163724,-19.845,-27.93,-23.03
806,10273843,0.363682,-0.028182,-0.135664,-14.1575,-18.62,-25.375
807,10273940,0.24583000000000002,0.06283,-0.122976,-1.715,-9.4675,-29.435
808,10274037,0.168482,0.20556999999999997,-0.10858,8.085,-8.6975,-35.0525
809,10274134,0.17836400000000002,0.230946,-0.133102,9.45,-8.085,-45.0275
810,10274230,0.229116,0.288774,-0.182756,3.5,-13.195,-49.42
811,10274327,0.35172600000000004,0.333304,-0.23485,0.455,-19.215,-49.525
812,10274424,0.428708,0.30707399999999996,-0.243878,9.065,-19.9325,-45.2725
813,10274521,0.43761400000000006,0.255102,-0.190442,21.665,-15.295,-37.6775
814,10274617,0.50813,0.23167800000000002,-0.135054,29.26,-8.295,-29.6275
815,10274714,0.524478,0.16128399999999998,-0.08637601,34.475,-3.7275,-20.44
816,10274811,0.48373,0.10065,-0.035868000000000004,39.3575,0.49,-11.865
817,10274908,0.478362,0.070882,-0.004148001,44.1875,6.055,-4.69
818,10275005,0.5206960999999999,0.08637601,-0.011468,50.225,11.48,-0.2625
819,10275101,0.618052,0.06270801,-0.06941801,55.3,13.1075,1.4525
820,10275198,0.706624,-0.00122,-0.14005599999999999,54.355,9.135,3.395
821,10275295,0.766892,-0.042212,-0.178852,53.6375,8.365,3.8675
822,10275392,0.8425321,-0.07991000000000001,-0.152134,61.3025,18.9875,-0.245
823,10275488,0.895358,-0.066856,-0.104798,67.2525,32.025,-7.7
824,10275585,1.036268,0.018056,-0.135786,64.3825,40.3725,-15.505
825,10275682,1.1655879999999998,0.154452,-0.215086,57.085,42.63,-22.82
826,10275779,1.2591620000000001,0.24656199999999998,-0.203984,48.335,36.1725,-31.29
827,10275875,1.26758,0.21813600000000002,-0.122244,38.08,33.7575,-38.395
828,10275972,1.3052780000000002,0.045262000000000004,-0.11236199999999999,33.285,35.07,-43.3125
829,10276069,1.4274,-0.06600201,-0.009394,32.34,19.18,-42.7
830,10276166,1.49694,-0.030987999999999998,0.24216999999999997,22.75,-0.9275,-39.4975
831,10276262,1.458876,0.020862000000000002,0.267546,8.1725,-2.8525,-29.085
832,10276359,1.3943379999999999,0.119804,-0.224602,-3.29,-4.9525,-13.93
833,10276456,1.5112139999999998,-0.06819800000000001,-1.056398,-17.9375,-17.5175,-10.78
834,10276553,1.6865279999999998,-0.46238,-1.372378,-21.6825,11.8475,-31.465
835,10276650,1.6244299999999998,-0.679662,-0.46176999999999996,23.765,75.04,-63.525
836,10276746,1.357982,-0.599996,-0.24668400000000001,-32.3925,44.1875,-84.42
837,10276843,0.7421260000000001,-0.076494,-0.54473,-140.4025,-26.985,-65.835
838,10276940,0.358192,0.341356,-0.375882,-119.9975,-9.975,-42.6475
839,10277037,0.52704,0.6178081,-0.31524800000000003,-75.6525,-2.695,-45.4825
840,10277133,0.73261,0.577426,-0.7406621,-37.7125,-8.75,-43.0675
841,10277230,0.907436,0.6512359999999999,-1.053714,-21.6825,-11.27,-27.4575
842,10277327,1.357616,0.6124400999999999,-0.8726661,28.0,5.7925,-32.655
843,10277424,1.910032,0.5091061,-0.774944,70.665,34.1425,-45.955
844,10277520,2.127802,0.37685799999999997,-0.552538,54.915,26.39,-45.5525
845,10277617,2.106818,0.041724000000000004,-0.48104600000000003,24.01,-4.375,-40.81
846,10277714,1.757166,-0.13237000000000002,-0.5605899999999999,-14.525,-31.5525,-31.675
847,10277811,1.269166,-0.093574,-0.520452,-26.1275,-34.51,-17.7975
848,10277907,1.054812,-0.100284,-0.49532,-20.2475,-40.775,-4.7425
849,10278004,0.9791719999999999,-0.10309000000000001,-0.386862,-10.85,-42.28,6.8075
850,10278101,0.931348,-0.077836,-0.287432,0.14,-37.0125,14.035
851,10278198,0.8694940999999999,0.00366,-0.229116,8.68,-33.0575,18.2175
852,10278294,0.8117880000000001,0.067344,-0.177754,16.0825,-30.905,19.7575
853,10278391,0.7638421,0.083204,-0.179828,18.655,-27.265,19.4425
854,10278488,0.7162621,0.054046000000000004,-0.170678,16.5725,-25.8125,17.2375
855,10278585,0.619638,0.009272001,-0.13859200000000002,6.405,-25.4625,14.3675
856,10278681,0.529724,-0.05856,-0.07222401,-3.78,-23.2225,9.8525
857,10278778,0.428708,-0.163236,-0.10528599999999999,-11.025,-16.7825,10.71
858,10278875,0.360632,-0.174094,-0.170068,-10.22,-13.9475,15.96
859,10278972,0.352702,-0.14213,-0.14274,-9.6075,-20.4925,20.0375
860,10279069,0.369294,-0.156526,-0.13725,-9.87,-16.3625,21.105
861,10279165,0.4023561,-0.15189,-0.1342,-10.1325,-10.2025,23.3975
862,10279262,0.462136,-0.106018,-0.11895,-16.6425,-11.375,24.8325
863,10279359,0.48068,-0.09223200000000001,-0.095282,-24.535,-14.1575,25.6025
864,10279456,0.5063,-0.105774,-0.034404000000000004,-35.28,-21.2975,23.8875
865,10279552,0.516914,-0.06283,-0.001342,-47.705,-26.1975,21.14
866,10279649,0.528504,-0.022692,-0.008174001,-56.525,-26.6525,16.975
867,10279746,0.562176,-0.010004,-0.06039,-60.655,-22.925,13.7725
868,10279843,0.5975560000000001,0.019032,-0.12761199999999998,-62.86,-16.415,9.8875
869,10279939,0.637084,0.055022,-0.15420799999999998,-62.3,-9.7825,5.355
870,10280036,0.646844,0.09906401,-0.144204,-61.7225,-2.695,3.6225
871,10280133,0.6638021,0.182268,-0.07698201,-62.965,8.12,4.48
872,10280230,0.696254,0.22033200000000003,-0.035013999999999997,-66.01,16.905,5.705
873,10280326,0.756278,0.20679,-0.06746601,-61.88,19.8275,6.6675
874,10280423,0.8510719999999999,0.146766,-0.16104000000000002,-51.975,17.57,8.5225
875,10280520,0.9851501,0.07490801,-0.264374,-32.2175,15.1375,9.905
876,10280617,1.169614,0.10321199999999998,-0.258274,-7.14,19.285,9.975
877,10280713,1.341634,0.28011199999999997,-0.178608,5.7575,32.83,14.56
878,10280810,1.415932,0.504592,-0.110654,7.7525,36.4875,19.7575
879,10280907,1.342976,0.44103000000000003,0.032574,6.44,16.8175,15.995
880,10281004,1.16632,0.283528,0.122732,-2.835,-2.4325,7.63
881,10281101,1.111908,0.11394800000000001,0.209108,-16.1175,-12.8975,-2.9925
882,10281197,1.159732,-0.08784,0.194224,-32.235,-6.8075,-8.3475
883,10281294,1.178764,-0.34867600000000004,-0.013297999999999999,-46.41,13.9125,-5.46
884,10281391,1.235616,-0.48873199999999994,-0.532896,-54.81,25.795,2.9225
885,10281488,1.4313040000000001,-0.41687399999999997,-1.1483860000000001,-57.3825,12.53,21.8575
886,10281584,1.5164600000000001,-0.03965,-1.3771360000000001,-28.5075,10.8675,47.1275
887,10281681,1.479006,0.517158,-1.279414,26.6525,63.4725,73.4475
888,10281778,1.36274,0.6484300999999999,-0.9444020000000001,56.4375,59.01,88.41001
889,10281875,0.898164,0.306342,-0.63135,44.3275,15.3825,86.4675
890,10281971,0.6653880999999999,-0.015128,-0.49349,22.5575,-14.0525,63.315
891,10282068,0.7923901,-0.22557800000000003,-0.44115200000000004,-5.11,-27.23,36.1375
892,10282165,1.057008,-0.299266,-0.483242,-20.2825,-13.125,25.3575
893,10282262,1.443992,-0.37417399999999995,-0.671976,-22.855,7.1575,16.8
894,10282359,1.931382,-0.53192,-0.6167100000000001,-24.29,9.1875,1.435
895,10282455,2.0571639999999998,-0.40223400000000004,-0.473238,-17.185,4.6725,-4.4625
896,10282552,1.9415080000000002,-0.083814,-0.41894799999999993,1.4175,-2.6775,-6.65
897,10282649,1.5401280000000002,0.174948,-0.419436,-2.8,-15.26,-5.25
898,10282746,1.2184139999999999,0.325984,-0.42517,-13.5275,-25.3575,-5.5475
899,10282842,0.9797819999999999,0.293898,-0.422364,-9.0475,-26.4425,-10.8325
900,10282939,0.841556,0.28853,-0.317444,5.88,-28.945,-7.42
901,10283036,0.8077621,0.331352,-0.25132,24.1325,-27.9475,-5.2675
902,10283133,0.8360661,0.314272,-0.262178,38.2375,-23.6775,-11.41
903,10283229,0.7893399999999999,0.282552,-0.24790399999999999,46.2525,-24.675,-19.5475
904,10283326,0.72895,0.230458,-0.174704,47.1625,-28.6125,-30.8525
905,10283423,0.587064,0.22496799999999997,-0.21594000000000002,55.0025,-18.865,-38.1325
906,10283520,0.497638,0.277306,-0.18971,72.4675,-13.86,-45.4825
907,10283616,0.435784,0.3111,-0.17580199999999999,82.005,-10.6225,-53.655
908,10283713,0.41577600000000003,0.31842,-0.183976,88.53251,-3.3775,-61.7925
909,10283810,0.441274,0.317444,-0.203374,89.005,-4.6725,-66.43
910,10283907,0.4668941,0.302438,-0.176778,86.9225,-9.135,-68.425
911,10284003,0.48104600000000003,0.21886799999999998,-0.154696,88.4275,-9.94,-67.795
912,10284100,0.5214281,0.15701400000000001,-0.12065799999999999,95.34,-10.2725,-63.595
913,10284197,0.616954,0.08918200000000001,-0.09381801,105.8225,-5.5825,-57.33
914,10284294,0.6630699999999999,-0.008540001,-0.031476,115.6225,-2.415,-49.4375
915,10284390,0.689178,-0.064172,-0.011468,117.775,-3.395,-41.3
916,10284487,0.704062,-0.122,-0.03294,115.6225,-7.0175,-34.0725
917,10284584,0.70699,-0.133468,-0.054655999999999996,115.2725,-10.7275,-30.415
918,10284681,0.6895439999999999,-0.141276,-0.06929600000000001,116.41,-11.41,-32.7075
919,10284777,0.6734399999999999,-0.13054000000000002,-0.097478,115.3775,-5.88,-36.2425
920,10284874,0.7015,-0.17385,-0.089426,112.9975,3.36,-38.5525
921,10284971,0.737124,-0.19825,-0.067832,112.2625,15.7325,-40.4075
922,10285068,0.78141,-0.115168,-0.082472,107.2225,21.56,-41.9475
923,10285165,0.7792140000000001,0.002196,-0.08417999999999999,102.69,24.92,-42.7
924,10285261,0.8044680999999999,0.104676,-0.008784,101.57,30.4675,-45.7625
925,10285358,0.891576,0.13237000000000002,-0.050142,94.53501,30.8875,-48.055
926,10285455,1.00223,0.060024,-0.11724200000000001,86.66,19.705,-49.07
927,10285552,1.101416,-0.051362,-0.100284,82.0575,11.5325,-48.0375
928,10285648,1.199016,-0.12212200000000001,-0.04453,77.1925,18.7075,-47.355
929,10285745,1.328214,-0.153598,0.02257,72.1525,28.385,-47.1625
930,10285842,1.3710360000000001,-0.124196,0.08967,67.6725,26.495,-43.2425
931,10285939,1.292468,-0.055022,0.036112,63.105,14.245,-34.335
932,10286035,1.11325,0.00244,-0.03843,63.4375,-2.135,-25.3575
933,10286132,0.8988959999999999,0.07015,-0.142862,68.95,-7.28,-22.19
934,10286229,0.786656,0.06832001,-0.480314,76.02,5.3375,-25.97
935,10286326,0.8289901,-0.003904,-0.9677040000000001,76.0375,10.745,-32.8475
936,10286423,0.8601,-0.330986,-1.2404959999999998,69.4925,20.405,-50.295
937,10286519,1.0016200000000002,-0.6566041,-0.94489,69.6325,70.175,-81.725
938,10286616,1.3603,-0.599508,-0.3904,74.7775,116.6725,-134.9775
939,10286713,1.348222,-0.150304,-0.334036,27.2125,73.745,-147.0
940,10286810,1.0117459999999998,0.17641199999999999,-0.778604,-11.7075,17.7975,-119.105
941,10286906,0.8897459999999999,0.28486999999999996,-0.782508,13.405,7.6475,-95.445
942,10287003,1.1204479999999999,0.326716,-0.7333420999999999,53.8825,20.65,-86.27501
943,10287100,1.61345,0.468236,-0.90646,81.32251,15.6975,-76.475
944,10287197,2.071072,0.586576,-0.8838901,98.0525,5.0925,-65.275
945,10287293,2.249192,0.426512,-0.6872261,114.6775,19.1625,-49.1925
946,10287390,2.149518,0.070638,-0.522282,108.3075,19.215,-40.2325
947,10287487,1.725934,-0.12761199999999998,-0.46250209999999997,82.8275,-2.6775,-26.0925
948,10287584,1.364082,-0.255956,-0.476654,72.2925,-18.13,-8.0325
949,10287680,1.08092,-0.242902,-0.415654,86.66,-11.2175,2.9925
950,10287777,0.9775860000000001,-0.19337000000000001,-0.331352,94.8325,-5.5125,0.21
951,10287874,1.001498,-0.167994,-0.21594000000000002,96.46,-10.4125,-8.75
952,10287971,1.031266,-0.087962,-0.21813600000000002,95.26999,-11.2875,-15.1375
953,10288068,1.0230920000000001,-0.003904,-0.19825,97.05501,-11.655,-18.7075
954,10288164,0.9362280000000001,0.062586,-0.171898,99.6975,-10.605,-22.5225
955,10288261,0.796172,0.101504,-0.135908,97.6675,-15.1375,-29.8025
956,10288358,0.765428,0.05770599999999999,-0.14871800000000002,89.74,-24.29,-36.505
957,10288455,0.704062,0.081252,-0.18544000000000002,88.69,-30.2575,-35.9975
958,10288551,0.7005239999999999,0.050508,-0.11358199999999999,80.64,-35.14,-36.8025
959,10288648,0.677466,-0.041846,-0.162626,72.4325,-22.3125,-32.9525
960,10288745,0.6763680000000001,-0.021228,-0.13639600000000002,78.575,-12.5475,-20.405
961,10288842,0.616954,-0.07112601,-0.18178,75.7575,-6.755,-12.5475
962,10288939,0.568398,-0.074542,-0.17397200000000002,67.83,-8.82,-4.795
963,10289035,0.535702,-0.07173600000000001,-0.133102,56.875,-11.34,0.1575
964,10289132,0.46640600000000004,-0.07015,-0.08845001,47.005,-5.6525,0.0875
965,10289229,0.406992,-0.091378,-0.054167999999999994,38.815,3.395,-2.3625
966,10289326,0.383934,-0.094672,-0.016347999999999998,34.615,11.62,-6.475
967,10289422,0.40833400000000003,-0.058316,0.05209400000000001,32.3575,16.6775,-12.46
968,10289519,0.492758,-0.001098,0.09455001,31.6225,13.5975,-20.335
969,10289616,0.5544899999999999,0.050263999999999996,0.101504,31.4825,1.6625,-27.09
970,10289713,0.620858,0.085888,0.0488,34.4575,-7.525,-33.775
971,10289809,0.745542,0.10345599999999999,-0.047945999999999996,39.445,-7.2275,-39.795
972,10289906,0.8840120000000001,0.086864,-0.11358199999999999,41.8775,-4.13,-43.4175
973,10290003,0.961116,0.07246799999999999,-0.15274400000000002,38.2375,-2.835,-41.9125
974,10290100,1.041758,0.063074,-0.16958,27.23,-5.25,-37.835
975,10290196,1.133502,0.029401999999999998,-0.18849000000000002,18.2,-5.6525,-33.39
976,10290293,1.2519639999999999,0.000366,-0.223016,16.6775,-8.085,-29.925
977,10290390,1.363106,-0.023546,-0.23301999999999998,19.1625,-13.9475,-26.4075
978,10290487,1.398974,-0.001342,-0.227408,24.2375,-17.0975,-23.31
979,10290584,1.322114,0.060267999999999995,-0.195932,27.055,-20.51,-22.2075
980,10290680,1.2019440000000001,0.12163399999999999,-0.121146,27.79,-23.45,-24.0975
981,10290777,1.067744,0.174582,-0.05941401,31.1675,-19.355,-29.1725
982,10290874,1.016748,0.163846,0.0017079999999999999,36.015,-11.375,-35.21
983,10290971,1.025898,0.089304,-0.036356,34.3525,-0.9625,-37.4325
984,10291067,1.01138,0.011834,-0.122976,30.415,9.905,-37.555
985,10291164,1.01565,-0.09418401,-0.27389,22.4,20.09,-35.6825
986,10291261,1.0614,-0.18544000000000002,-0.49568599999999996,19.4425,30.8,-30.9925
987,10291358,1.014674,-0.246806,-0.818376,31.71,30.9575,-21.91
988,10291454,1.03883,-0.11504600000000001,-1.122034,53.0425,24.745,-11.865
989,10291551,1.235372,0.21972199999999997,-1.167784,84.245,22.6975,-0.91
990,10291648,1.312842,0.661972,-1.042734,111.02,30.2925,14.175
991,10291745,1.059082,0.705404,-0.7515201,116.025,34.65,27.2475
992,10291842,0.6694140000000001,0.341478,-0.462624,108.6575,9.0125,24.185
993,10291938,0.47677600000000003,0.025863999999999998,-0.5069100000000001,82.6175,-7.455,10.01
994,10292035,0.563396,-0.144448,-0.5887720000000001,76.5975,9.31,-4.2175
995,10292132,0.96624,-0.30744,-0.46908999999999995,95.62,32.06,-21.805
996,10292229,1.39629,-0.388204,-0.426756,101.7975,35.4025,-33.1625
997,10292325,1.666032,-0.42602399999999996,-0.435906,91.9275,16.3275,-45.78
998,10292422,1.632116,-0.232898,-0.45445,86.6775,-2.4325,-53.2525
999,10292519,1.458266,0.090158,-0.573278,90.07251,-10.0975,-49.7
1000,10292616,1.19682,0.340624,-0.618052,100.4325,-11.8825,-48.3
1001,10292712,0.9955200000000001,0.5292359999999999,-0.58682,113.12,-7.5775,-52.675
1002,10292809,0.9564799999999999,0.6219561,-0.5203300000000001,126.6825,-2.8,-60.8475
1003,10292906,0.9701440999999998,0.506788,-0.46250209999999997,135.905,0.1575,-66.71
1004,10293003,0.8910879999999999,0.45725600000000005,-0.425048,146.405,0.665,-63.4725
1005,10293099,0.8721780000000001,0.366732,-0.40748,155.1025,1.89,-65.485
1006,10293196,0.8679081,0.27816,-0.407968,166.425,8.1725,-68.635
1007,10293293,0.849608,0.212402,-0.38125,176.0325,9.8,-70.0875
1008,10293390,0.9060940000000001,0.163236,-0.350628,186.865,15.6275,-72.3625
1009,10293487,0.927322,0.160796,-0.362218,195.93,24.2725,-76.0725
1010,10293583,0.942084,0.15982000000000002,-0.27084,204.9075,26.0575,-80.465
1011,10293680,0.9435479999999999,0.171532,-0.233996,200.2,18.6725,-85.27750999999999
1012,10293777,0.904508,0.20703400000000002,-0.240096,192.2025,7.28,-89.8275
1013,10293874,0.834968,0.22630999999999998,-0.241804,187.6,1.96,-94.02750999999999
1014,10293970,0.7865340000000001,0.306342,-0.22496799999999997,185.6575,-0.2975,-97.51
1015,10294067,0.733952,0.320006,-0.186538,189.5775,-0.56,-100.345
1016,10294164,0.7126020000000001,0.366122,-0.17433800000000002,197.19,6.0025,-104.1775
1017,10294261,0.7496901,0.370514,-0.142374,205.2925,14.9625,-106.19
1018,10294357,0.787388,0.351116,-0.12383,215.11,26.8625,-107.135
1019,10294454,0.8192299999999999,0.2745,-0.09735601,219.1,32.9525,-108.78
1020,10294551,0.8510719999999999,0.15982000000000002,-0.062952,221.9,37.31,-110.2675
1021,10294648,0.8815719999999999,0.11126400000000002,-0.033428,223.6325,42.2625,-112.0175
1022,10294744,0.91012,0.028792,0.00122,222.7225,44.4325,-111.195
1023,10294841,0.9537959999999999,-0.027694,0.013297999999999999,216.3,41.7375,-110.0575
1024,10294938,0.9736819999999999,-0.068442,0.027327999999999998,205.2925,36.085,-108.115
1025,10295035,0.9725841000000001,-0.08674201,0.021716,195.3525,30.2225,-105.84
1026,10295131,0.9648979999999999,-0.12248800000000001,-0.0035380000000000003,186.2525,24.3775,-103.285
1027,10295228,0.9486720999999999,-0.22021,-0.033184,176.995,23.1175,-98.63
1028,10295325,0.936594,-0.272426,-0.09235399999999999,162.6975,25.2,-95.375
1029,10295422,0.936716,-0.277062,-0.051118000000000004,152.4075,32.2175,-93.66
1030,10295519,0.9324460999999999,-0.284382,0.053191999999999996,154.77,43.9425,-92.3125
1031,10295615,0.9797819999999999,-0.239364,0.09223200000000001,151.55,47.005,-87.29
1032,10295712,1.086044,-0.194102,0.050752,138.81,41.58,-78.61
1033,10295809,1.169614,-0.146034,0.06819800000000001,127.82,37.8525,-71.54
1034,10295906,1.189378,-0.11504600000000001,0.08174001,114.73,32.6025,-67.8125
1035,10296002,1.1600979999999999,-0.166652,0.112606,102.9175,26.4775,-62.37
1036,10296099,1.100074,-0.18178,0.113094,93.8175,21.56,-54.0225
1037,10296196,1.02724,-0.16287000000000001,0.08869401,90.2475,24.36,-45.9025
1038,10296293,0.9702661,-0.09516001,0.11285,90.545,30.555,-38.15
1039,10296389,0.9383020000000001,-0.012078,0.11467999999999999,87.7275,31.92,-31.6225
1040,10296486,0.912316,-0.001586,0.08601,79.5725,27.265,-27.2475
1041,10296583,0.8327720999999999,0.01037,-0.01098,70.42,24.4125,-23.2575
1042,10296680,0.73505,0.016592,-0.226066,65.24,24.4825,-22.085
1043,10296776,0.7324881,-0.024156,-0.640012,59.605,27.5975,-25.3225
1044,10296873,0.942816,-0.218502,-0.9335440999999999,54.8975,46.76,-37.1525
1045,10296970,1.161318,-0.37515,-0.6040220000000001,78.155,82.81,-52.5175
1046,10297067,1.26148,-0.379176,-0.269986,82.1975,69.3175,-53.9
1047,10297164,1.176324,-0.06892999999999999,-0.489098,38.7625,7.63,-41.02
1048,10297260,0.972706,0.183122,-0.876692,16.59,-14.875,-28.07
1049,10297357,0.912926,0.329034,-0.8526581,43.645,2.1175,-24.255
1050,10297454,1.036024,0.354898,-0.738588,77.9975,21.7175,-32.5675
1051,10297551,1.19987,0.35697199999999996,-0.868274,88.97,26.3725,-37.905
1052,10297647,1.3590799999999998,0.42578,-0.9154880999999999,94.29,22.0675,-37.66
1053,10297744,1.593076,0.402966,-0.756156,110.95,21.455,-36.5575
1054,10297841,1.754604,0.324642,-0.620492,115.185,8.7675,-30.345
1055,10297938,1.63907,0.233508,-0.630374,105.9625,-9.73,-21.8575
1056,10298034,1.371524,0.21313400000000002,-0.617564,107.31,-17.7975,-15.33
1057,10298131,1.245132,0.1647,-0.53741,119.595,-20.16,-14.945
1058,10298228,1.169614,0.170922,-0.45993999999999996,130.9525,-20.5625,-16.0475
1059,10298325,1.044686,0.19764,-0.37417399999999995,138.04,-19.3025,-20.1425
1060,10298421,0.9320801,0.222406,-0.319152,141.2075,-17.325,-27.23
1061,10298518,0.8991401,0.216916,-0.282674,142.5375,-19.915,-33.5125
1062,10298615,0.8638819999999999,0.20410599999999998,-0.278648,144.235,-17.255,-36.19
1063,10298712,0.7869,0.196908,-0.22862800000000003,146.5625,-13.3,-38.0625
1064,10298808,0.7004020000000001,0.08417999999999999,-0.188612,141.365,-12.3025,-40.4425
1065,10298905,0.5842579999999999,0.036233999999999995,-0.17751,140.42,0.4725,-39.0425
1066,10299002,0.470066,-0.032086,-0.232044,144.165,19.6,-37.275
1067,10299099,0.455426,-0.080154,-0.244854,141.995,26.81,-34.37
1068,10299195,0.46311199999999997,-0.148108,-0.229848,130.97,20.545,-30.24
1069,10299292,0.488854,-0.166286,-0.18605,118.125,10.885,-25.55
1070,10299389,0.5343600000000001,-0.23582600000000004,-0.12383,104.23,10.3425,-23.625
1071,10299486,0.62342,-0.29743600000000003,-0.11321600000000001,90.685,17.8675,-19.74
1072,10299583,0.6925941,-0.332572,-0.142984,76.405,16.2225,-14.42
1073,10299679,0.761158,-0.31415,-0.156404,61.2325,-0.7525,-9.275
1074,10299776,0.8075180000000001,-0.24436599999999997,-0.136884,45.115,-16.205,-3.4475
1075,10299873,0.837408,-0.159576,-0.106994,37.03,-13.4925,1.68
1076,10299970,0.8641260000000001,-0.10687200000000001,-0.07112601,34.755,-4.4975,6.825
1077,10300066,0.844606,-0.067588,-0.076616,28.7875,-4.0075,11.2
1078,10300163,0.810934,-0.052948,-0.07978801,21.735,-10.01,14.8225
1079,10300260,0.78995,-0.06929600000000001,-0.06795401,15.7325,-12.005,16.975
1080,10300357,0.8114220999999999,-0.102602,-0.042456,7.735,-10.6225,17.64
1081,10300453,0.833016,-0.13908,-0.020862000000000002,-0.385,-12.4775,17.9725
1082,10300550,0.8781559999999999,-0.16530999999999998,-0.005368,-3.6925,-13.0375,17.535
1083,10300647,0.961726,-0.15738,-0.055388,-2.4675,-4.165,17.6925
1084,10300744,1.036512,-0.094306,-0.071004,0.5425,8.435,17.9725
1085,10300840,1.116666,0.006344,-0.046116000000000004,0.21,23.2575,18.515
1086,10300937,1.220732,0.037698,-0.064294,-0.455,33.0225,20.3
1087,10301034,1.337608,0.027694,-0.067588,5.3725,31.3425,22.9775
1088,10301131,1.418982,0.018544,-0.006344,8.9425,23.345,25.55
1089,10301228,1.4424059999999999,-0.050874,0.015738,6.685,14.5075,24.08
1090,10301324,1.412028,-0.11163,0.010736,3.6225,3.535,18.7075
1091,10301421,1.34871,-0.149694,-0.038064,-2.6075,-5.985,11.795
1092,10301518,1.366522,-0.133224,-0.479216,-5.0925,-8.82,6.3875
1093,10301615,1.60674,0.10723800000000001,-1.317966,13.405,6.0725,9.135
1094,10301711,1.582706,0.540582,-1.080188,48.5975,46.095,25.69
1095,10301808,1.370426,0.9507460999999999,-0.6828341,35.14,59.22,37.38
1096,10301905,0.8577819999999999,0.599996,-0.609024,64.19,26.285,33.005
1097,10302002,0.58011,0.06124401,-0.5705939999999999,109.27,5.6,11.8825
1098,10302098,0.522282,-0.141032,-0.5009319999999999,88.9175,32.515,8.085
1099,10302195,0.5885281,-0.179584,-0.510692,60.445,46.76,7.91
1100,10302292,0.7766521,-0.268644,-0.6794180000000001,46.5325,28.49,-1.785
1101,10302389,1.039684,-0.351482,-0.7373681,32.62,5.53,-5.67
1102,10302485,1.342366,-0.242414,-0.7470060000000001,14.5775,9.835,0.9275
1103,10302582,1.5921,-0.12334200000000001,-0.7421260000000001,21.1925,24.9725,1.015
1104,10302679,1.6704240000000001,-0.01525,-0.65575,33.3025,23.9225,-9.45
1105,10302776,1.60796,0.045506,-0.58743,33.88,2.3275,-25.2875
1106,10302872,1.3740860000000001,0.15677,-0.657458,32.13,-12.32,-30.695
1107,10302969,1.170102,0.127734,-0.596336,34.5625,-18.62,-35.665
1108,10303066,1.073234,0.02257,-0.51484,35.4725,-24.36,-38.01
1109,10303163,1.06018,-0.039284,-0.467992,33.635,-27.37,-38.6575
1110,10303260,0.973316,-0.07246799999999999,-0.320738,33.915,-31.815,-36.0325
1111,10303356,0.9023121,-0.09516001,-0.249734,30.1525,-34.4575,-34.335
1112,10303453,0.8519260000000001,-0.097966,-0.23973000000000003,28.2975,-32.0775,-32.2
1113,10303550,0.77287,-0.07137001,-0.22191799999999998,26.6875,-31.78,-30.1875
1114,10303647,0.6525781,-0.054655999999999996,-0.165554,21.7175,-31.9725,-29.5225
1115,10303743,0.559858,-0.029889999999999996,-0.19397999999999999,18.0775,-25.0775,-30.3625
1116,10303840,0.503128,-0.010004,-0.13944600000000001,20.79,-18.8125,-31.5525
1117,10303937,0.43627200000000005,0.040260000000000004,-0.141398,22.75,-6.16,-33.04
1118,10304034,0.39284,0.033062,-0.128466,22.3475,-0.5075,-35.945
1119,10304130,0.31890799999999997,0.041724000000000004,-0.09906401,22.1725,0.3675,-36.8025
1120,10304227,0.264984,0.09650201,-0.127734,21.035,7.98,-39.585
1121,10304324,0.284992,0.108458,-0.222894,18.9525,9.1525,-44.17
1122,10304421,0.30561,0.1098,-0.233264,19.18,3.115,-44.9925
1123,10304518,0.316834,0.09394001,-0.258396,22.6275,4.9525,-43.0325
1124,10304614,0.35075,0.102724,-0.24790399999999999,27.8075,5.075,-39.55
1125,10304711,0.41113999999999995,0.09211,-0.22118600000000002,32.34,10.64,-34.9125
1126,10304808,0.443592,0.099552,-0.21215799999999999,37.4325,21.9975,-29.4525
1127,10304905,0.508984,0.08820599999999999,-0.165432,37.065,25.8825,-24.3775
1128,10305001,0.5502199999999999,0.09650201,-0.170312,35.56,33.53,-16.9925
1129,10305098,0.582916,0.087352,-0.182756,35.035,41.0725,-12.635
1130,10305195,0.6389140999999999,0.080886,-0.195322,34.405,45.115,-9.205
1131,10305292,0.7330979999999999,0.070516,-0.173118,41.58,46.7425,-7.49
1132,10305388,0.8483879999999999,0.048922,-0.147254,51.66,39.8825,-6.965
1133,10305485,0.9595300999999999,0.05941401,-0.200446,51.17,23.3625,-6.3525
1134,10305582,1.071892,0.079666,-0.261324,48.1775,10.43,-6.965
1135,10305679,1.2008459999999999,0.076616,-0.312564,49.1225,11.8825,-7.175
1136,10305775,1.322236,0.032330000000000005,-0.29158,53.27,24.2375,-6.86
1137,10305872,1.3916540000000002,0.006222,-0.19959200000000002,55.4225,35.63,-7.4025
1138,10305969,1.371158,0.032818,-0.120902,44.1875,33.215,-7.9625
1139,10306066,1.365668,0.093086,-0.104676,27.7725,22.19,-10.5
1140,10306162,1.381528,0.127368,-0.14493599999999998,18.0775,14.875,-12.285
1141,10306259,1.416298,0.12175599999999999,-0.088328,15.2425,6.9825,-14.2275
1142,10306356,1.410564,0.099552,0.07747001,15.015,-3.8675,-12.8625
1143,10306453,1.382016,0.128344,0.101992,8.4,-12.0225,-8.2075
1144,10306550,1.3918979999999999,0.209596,-0.10004,4.62,-14.1225,-1.6275
1145,10306646,1.510238,0.269376,-0.391498,10.2375,-9.0125,1.4175
1146,10306743,1.749968,0.161528,-0.892918,-0.4725,0.105,-5.4425
1147,10306840,1.7420380000000002,-0.20923000000000003,-0.9507460999999999,-1.8375,17.885,-20.125
1148,10306937,1.63907,-0.43724799999999997,-0.254736,31.5175,47.845,-32.165
1149,10307033,1.35054,-0.444934,-0.049288,-7.875,34.6325,-38.185
1150,10307130,0.974658,-0.130174,-0.427976,-84.735,-23.0125,-22.96
1151,10307227,0.713212,0.18873399999999999,-0.505446,-83.1425,-39.41,-7.105
1152,10307324,0.7317560000000001,0.281942,-0.5322861,-56.2275,-33.2325,-4.235
1153,10307420,0.7793359999999999,0.29487399999999997,-0.726876,-55.72,-42.105,-3.3775
1154,10307517,0.7986121,0.345382,-0.8464360000000001,-32.34,-38.2375,-5.04
1155,10307614,0.8840120000000001,0.35782600000000003,-0.697108,5.46,-7.6825,-12.0925
1156,10307711,1.060668,0.29524,-0.49446599999999996,27.72,12.18,-20.9825
1157,10307807,1.3005200000000001,0.153232,-0.6293981,12.6525,7.245,-24.8325
1158,10307904,1.450824,0.041114,-0.6304960000000001,-7.21,-3.325,-25.8475
1159,10308001,1.417152,-0.002928,-0.51118,-13.1425,-5.4775,-24.9375
1160,10308098,1.2627,0.012565999999999999,-0.44212799999999997,-18.445,-17.9025,-17.185
1161,10308194,1.063596,0.044286,-0.49141599999999996,-29.75,-43.995,-4.3925
1162,10308291,0.936106,0.057339999999999995,-0.528748,-27.1075,-56.7,7.5075
1163,10308388,0.8760819999999999,0.107116,-0.42626800000000004,-4.0075,-47.8975,17.6575
1164,10308485,0.8607100000000001,0.128466,-0.332816,8.6275,-42.0525,22.645
1165,10308581,0.833016,0.12322000000000001,-0.32086,12.5125,-41.23,24.3775
1166,10308678,0.7448100999999999,0.122366,-0.291824,17.6575,-40.5475,26.18
1167,10308775,0.6378159999999999,0.066246,-0.257786,18.865,-39.4275,25.48
1168,10308872,0.554002,0.034892,-0.18873399999999999,19.0575,-34.8775,22.785
1169,10308968,0.49605200000000005,-0.055510000000000004,-0.24034,17.745,-24.08,18.9
1170,10309065,0.388448,-0.09089001,-0.156892,18.445,-22.4875,14.77
1171,10309162,0.36722,-0.158844,-0.163602,5.6175,-22.8725,10.675
1172,10309259,0.31659,-0.130296,-0.162504,5.1625,-13.055,13.3
1173,10309356,0.295606,-0.162748,-0.158356,5.425,-3.045,12.075
1174,10309452,0.33061999999999997,-0.168726,-0.203862,1.5575,4.585,12.9325
1175,10309549,0.390766,-0.161162,-0.167262,-3.0275,0.56,15.8725
1176,10309646,0.45554799999999995,-0.185196,-0.1891,-14.2625,-0.175,16.6075
1177,10309743,0.533384,-0.17738800000000002,-0.197884,-21.245,-0.0875,17.5875
1178,10309839,0.5979220000000001,-0.167994,-0.17873,-32.0075,-4.97,18.3925
1179,10309936,0.626836,-0.135542,-0.138958,-41.3175,-10.5525,19.0925
1180,10310033,0.650382,-0.09186601,-0.110654,-48.86,-14.4375,17.64
1181,10310130,0.678808,-0.04867801,-0.09333,-54.4425,-12.2325,15.5575
1182,10310226,0.733586,-0.010004,-0.101992,-59.78,-6.79,12.39
1183,10310323,0.788974,0.018788,-0.11943800000000002,-65.94,-2.52,9.17
1184,10310420,0.82045,0.05209400000000001,-0.154818,-71.54,-1.82,8.33
1185,10310517,0.8194739999999999,0.08918200000000001,-0.17055599999999999,-74.795,-2.45,8.365
1186,10310613,0.8332601000000001,0.108702,-0.155672,-74.725,-2.5725,8.155
1187,10310710,0.8893800999999999,0.135054,-0.08064199,-76.2825,-6.02,9.5375
1188,10310807,1.022604,0.15018199999999998,-0.071492,-76.125,-1.085,12.845
1189,10310904,1.193526,0.149816,-0.21081599999999998,-67.655,3.4825,16.03
1190,10311000,1.298568,0.12139000000000001,-0.295118,-52.85,5.25,21.315
1191,10311097,1.2999100000000001,0.17641199999999999,-0.24326799999999998,-37.9225,8.4875,26.74
1192,10311194,1.284904,0.255956,-0.218502,-23.905,20.7725,29.89
1193,10311291,1.274412,0.36112,-0.183854,-9.8875,24.92,31.0275
1194,10311388,1.260748,0.340136,-0.021228,-9.1175,11.13,25.9875
1195,10311484,1.239032,0.240706,0.07991000000000001,-14.2625,2.9575,18.0425
1196,10311581,1.286246,0.12261,0.07442,-16.31,-3.78,10.4825
1197,10311678,1.379332,-0.008052001,-0.192394,-30.0475,-10.4825,5.145
1198,10311775,1.5669680000000001,-0.070516,-0.9856379999999999,-31.85,-10.745,2.1175
1199,10311871,1.843664,0.180926,-1.082384,-4.375,13.615,10.185
1200,10311968,1.904298,0.467138,-0.749812,11.8125,56.21,23.59
1201,10312065,1.4457,0.626836,-0.9818561,28.6825,42.63,45.955
1202,10312162,0.8860860999999999,0.279258,-0.7984899999999999,59.0625,17.675,42.2975
1203,10312258,0.686372,0.12456199999999999,-0.58743,45.7975,16.275,27.2825
1204,10312355,0.592188,-0.007076001,-0.438224,42.8225,14.77,20.0025
1205,10312452,0.5885281,-0.160308,-0.399428,15.61,5.6175,11.095
1206,10312549,0.681736,-0.302316,-0.452254,-10.185,2.8175,3.92
1207,10312645,1.042246,-0.32256799999999997,-0.57218,-9.8875,5.04,2.555
1208,10312742,1.4485059999999998,-0.31646799999999997,-0.668316,-7.1575,12.6,7.2625
1209,10312839,1.729228,-0.292312,-0.6466,3.99,18.6725,6.9825
1210,10312936,1.8065759999999997,-0.103334,-0.58987,18.62,8.75,-1.1375
1211,10313032,1.8134080000000001,0.079422,-0.514718,22.05,-16.52,-11.5675
1212,10313129,1.435818,0.189588,-0.49873599999999996,21.105,-21.9625,-9.2225
1213,10313226,1.119472,0.15006,-0.5246,19.74,-30.6775,-9.2575
1214,10313323,0.9933241,0.064294,-0.47275,17.7625,-45.08,-16.275
1215,10313420,0.8935280999999999,0.08625401,-0.35831399999999997,20.09,-48.2825,-17.3075
1216,10313516,0.826916,0.09625801,-0.31451599999999996,22.435,-44.1525,-19.39
1217,10313613,0.753594,0.07600599999999999,-0.27389,20.8775,-40.18,-24.4825
1218,10313710,0.6973520000000001,0.034892,-0.23692399999999997,17.57,-35.8575,-30.415
1219,10313807,0.626104,-0.004392,-0.235582,15.225,-29.3825,-33.705
1220,10313903,0.5009319999999999,0.015738,-0.214598,16.2225,-21.77,-34.7725
1221,10314000,0.420412,-0.015738,-0.155428,19.215,-13.2475,-38.57
1222,10314097,0.304634,0.041968,-0.15237799999999999,24.3775,-3.115,-41.2125
1223,10314194,0.24522,0.11224,-0.145302,28.4375,-0.2625,-45.5
1224,10314290,0.233386,0.144814,-0.16348,24.5175,-1.5575,-48.37
1225,10314387,0.22935999999999998,0.188368,-0.196176,21.175,-4.8125,-48.2125
1226,10314484,0.22875,0.242414,-0.267302,19.5475,-7.4025,-46.655
1227,10314581,0.28316199999999997,0.205936,-0.311832,22.26,-9.17,-43.6275
1228,10314678,0.326472,0.201544,-0.26913200000000004,32.0775,-6.3525,-38.8675
1229,10314774,0.390522,0.184952,-0.23058,40.8975,0.035,-34.265
1230,10314871,0.44115200000000004,0.159698,-0.21081599999999998,47.5125,7.4025,-28.7
1231,10314968,0.501786,0.15982000000000002,-0.203252,49.7,14.07,-24.5
1232,10315065,0.603046,0.134932,-0.16226,54.005,22.19,-20.895
1233,10315161,0.7320001,0.09223200000000001,-0.08308201,59.7625,30.4325,-17.0625
1234,10315258,0.8555860999999999,0.05160601,-0.034282,62.755,33.215,-13.055
1235,10315355,0.9652639999999999,0.037332,-0.061,58.6425,24.255,-11.3225
1236,10315452,1.0553,-0.036112,-0.127368,51.4675,10.465,-11.9875
1237,10315548,1.110566,-0.059658,-0.20288599999999998,47.145,7.21,-14.315
1238,10315645,1.110322,-0.047824,-0.208986,47.18,14.63,-17.325
1239,10315742,1.09556,-0.020008,-0.16287000000000001,47.7925,21.3325,-18.3575
1240,10315839,1.0821399999999999,0.020130000000000002,-0.15189,41.3175,19.005,-16.625
1241,10315935,1.121668,0.053924,-0.20447200000000001,31.9025,15.085,-15.435
1242,10316032,1.2341520000000001,0.07442,-0.254004,29.6275,18.34,-18.0075
1243,10316129,1.317112,0.095282,-0.201666,32.13,24.605,-21.63
1244,10316226,1.34627,0.08405800000000001,-0.153842,25.5325,26.32,-23.8175
1245,10316322,1.4238620000000002,0.018422,-0.106018,16.7125,16.31,-23.835
1246,10316419,1.493524,-0.041724000000000004,-0.029158,13.79,1.9425,-20.72
1247,10316516,1.475468,-0.011956,0.04575,14.1575,-4.83,-13.93
1248,10316613,1.39141,0.098088,0.023302,15.1375,-3.6925,-4.6375
1249,10316710,1.408368,0.177876,-0.299144,13.9825,-8.61,2.4675
1250,10316806,1.55001,-0.025254,-0.850584,4.2175,-14.9275,0.595
1251,10316903,1.6272360000000001,-0.328424,-0.8913321,14.0175,9.7825,-13.5275
1252,10317000,1.577216,-0.452376,-0.25790799999999997,43.47,59.9725,-37.275
1253,10317097,1.3005200000000001,-0.416142,-0.017568,-3.57,40.495,-50.715
1254,10317193,0.8211821,-0.0122,-0.360998,-84.385,-18.0775,-34.2825
1255,10317290,0.555466,0.29524,-0.499224,-86.24,-36.26,-18.3925
1256,10317387,0.5979220000000001,0.447496,-0.416264,-60.34,-34.0725,-13.9475
1257,10317484,0.72407,0.436638,-0.51423,-42.77,-30.59,-14.6125
1258,10317580,0.7670140000000001,0.4933681,-0.754692,-24.43,-26.25,-9.24
1259,10317677,0.8755940000000001,0.515572,-0.795562,2.3975,-13.825,-8.75
1260,10317774,1.087874,0.36417,-0.651846,31.78,9.73,-20.9825
1261,10317871,1.36274,0.191662,-0.5838920999999999,33.845,16.6075,-31.08
1262,10317968,1.556232,0.041114,-0.61732,15.4,8.82,-32.69
1263,10318064,1.5512299999999999,-0.031598,-0.5039819999999999,3.045,-2.9225,-26.565
1264,10318161,1.4659520000000001,0.022936,-0.40577199999999997,-2.2225,-23.0825,-14.9625
1265,10318258,1.2286620000000001,0.023058000000000002,-0.437492,-13.58,-44.485,-4.5675
1266,10318355,0.961482,0.00976,-0.418216,-13.8075,-57.19,2.66
1267,10318451,0.8641260000000001,0.001464,-0.367464,-1.26,-52.5,4.97
1268,10318548,0.834724,0.055144000000000006,-0.33855,15.3475,-40.215,8.5925
1269,10318645,0.815448,0.110898,-0.281942,25.7775,-37.415,12.46
1270,10318742,0.7260220000000001,0.14579,-0.222406,28.6125,-35.7,15.26
1271,10318838,0.6511140000000001,0.10187,-0.205936,28.105,-30.765,14.8575
1272,10318935,0.5314321,0.055998,-0.17055599999999999,24.8325,-24.6925,13.7375
1273,10319032,0.468846,-0.044774,-0.145424,18.9,-19.845,11.62
1274,10319129,0.399428,-0.112606,-0.14688800000000002,12.0575,-15.2425,14.875
1275,10319225,0.346846,-0.15616,-0.144448,8.3125,-9.975,19.705
1276,10319322,0.302072,-0.21301199999999998,-0.171776,3.7975,-7.21,23.0475
1277,10319419,0.30548800000000004,-0.23082399999999997,-0.198128,1.9775,-5.0225,27.1075
1278,10319516,0.330864,-0.217038,-0.1891,2.7825,-6.1075,32.41
1279,10319613,0.401502,-0.18666,-0.166164,-3.7975,-10.3075,34.6675
1280,10319709,0.452254,-0.183366,-0.15189,-10.6925,-10.3775,34.86
1281,10319806,0.505202,-0.14396,-0.135298,-19.635,-13.7025,33.3025
1282,10319903,0.5502199999999999,-0.13542,-0.090036,-32.095,-20.58,31.15
1283,10320000,0.57706,-0.09552601,-0.09991799999999999,-40.5125,-20.335,30.205
1284,10320096,0.6368401,-0.07856801,-0.12871,-44.66,-19.3375,27.7725
1285,10320193,0.71675,-0.035136,-0.15054800000000002,-51.205,-16.5725,24.22
1286,10320290,0.8105680000000001,-0.027694,-0.133224,-59.675,-9.205,19.04
1287,10320387,0.921344,-0.046482,-0.15274400000000002,-65.87,-7.6475,12.4775
1288,10320483,0.998448,-0.022203999999999998,-0.20008,-69.685,-8.6625,8.26
1289,10320580,0.9858819999999999,0.03782,-0.22667600000000002,-72.0125,-8.2425,5.25
1290,10320677,0.9496479999999999,0.13359000000000001,-0.169214,-70.84000999999999,-9.905,3.6925
1291,10320774,0.9934460999999999,0.214964,-0.14164200000000002,-65.66,-3.22,4.6375
1292,10320870,1.1181299999999998,0.260348,-0.24192600000000003,-54.1975,8.0325,6.9825
1293,10320967,1.236104,0.244732,-0.344894,-38.3775,9.1525,10.8675
1294,10321064,1.269288,0.261812,-0.31659,-22.3475,3.605,16.1175
1295,10321161,1.269898,0.335988,-0.22082,-7.105,12.9675,19.67
1296,10321257,1.299544,0.35807,-0.209718,7.07,28.98,23.3625
1297,10321354,1.307108,0.30292600000000003,-0.14078800000000002,16.555,22.995,25.5675
1298,10321451,1.265384,0.18251199999999998,0.016347999999999998,12.7225,6.2125,22.9075
1299,10321548,1.336144,0.006344,0.098088,8.925,0.49,15.855
1300,10321645,1.532564,-0.08405800000000001,-0.265594,8.3475,-0.4025,13.16
1301,10321741,1.827804,-0.04819,-0.8453381,8.4525,2.31,13.0725
1302,10321838,2.01483,0.24326799999999998,-0.723826,16.765,24.325,19.95
1303,10321935,1.88673,0.6897880999999999,-0.48861000000000004,18.41,41.1775,31.7275
1304,10322032,1.239886,0.389058,-0.68747,34.58,27.5975,37.1875
1305,10322128,0.8906,0.040016,-0.6068279999999999,53.69,4.97,22.05
1306,10322225,0.927932,-0.032695999999999996,-0.530212,36.82,12.95,9.6425
1307,10322322,0.8665661,-0.129076,-0.46018400000000004,30.38,12.0925,3.8675
1308,10322419,0.738466,-0.18239,-0.43773599999999996,-0.245,-8.4,-1.5575
1309,10322515,0.7129681,-0.27523200000000003,-0.48519399999999996,-24.045,-10.255,-5.9675
1310,10322612,0.9625799999999999,-0.282674,-0.554124,-21.9625,1.015,-8.1725
1311,10322709,1.245986,-0.205448,-0.5697399999999999,-15.5575,3.71,-1.0325
1312,10322806,1.4661959999999998,-0.140422,-0.565714,-10.255,2.24,8.3475
1313,10322902,1.5906360000000002,-0.050386,-0.628422,-5.1275,-0.77,11.0775
1314,10322999,1.62626,0.009394,-0.489708,-0.9625,-16.0475,11.0775
1315,10323096,1.43533,0.08954801,-0.43053800000000003,0.2625,-21.455,12.845
1316,10323193,1.193282,0.10809200000000001,-0.427854,2.6075,-30.6775,9.8
1317,10323289,1.047004,0.102114,-0.40882199999999996,-6.16,-44.8875,6.86
1318,10323386,0.9317141,0.03721,-0.327448,-9.3625,-51.24,1.1375
1319,10323483,0.808982,-0.012078,-0.284504,-11.025,-48.2475,-5.6525
1320,10323580,0.7401741,-0.035746,-0.258396,-13.1425,-43.2775,-11.9
1321,10323676,0.663192,-0.051118000000000004,-0.227042,-16.52,-39.0775,-16.59
1322,10323773,0.5648601,-0.04404201,-0.201544,-19.495,-35.14,-21.28
1323,10323870,0.48861000000000004,-0.013908000000000002,-0.198006,-21.14,-28.8225,-25.48
1324,10323967,0.373198,-0.001342,-0.190442,-18.9875,-20.23,-29.05
1325,10324064,0.2745,0.06405001,-0.12334200000000001,-13.5275,-10.9725,-33.565
1326,10324160,0.24351199999999998,0.153232,-0.154818,-5.355,1.12,-37.73
1327,10324257,0.25424800000000003,0.16506600000000002,-0.14457,-1.0325,2.625,-44.3625
1328,10324354,0.246196,0.170068,-0.167506,-4.48,2.5725,-46.34
1329,10324451,0.29219,0.167994,-0.199226,-7.1575,3.675,-44.9575
1330,10324547,0.339404,0.175558,-0.27828200000000003,-7.245,5.95,-40.5825
1331,10324644,0.372344,0.187392,-0.243024,0.35,10.2725,-35.035
1332,10324741,0.408456,0.15189,-0.205936,6.615,17.2725,-28.315
1333,10324838,0.43981000000000003,0.13944600000000001,-0.144082,10.01,18.2,-20.895
1334,10324934,0.48397399999999996,0.10528599999999999,-0.118096,13.195,16.87,-15.505
1335,10325031,0.549488,0.130052,-0.060877999999999995,22.4875,15.715,-11.1125
1336,10325128,0.6960101,0.15274400000000002,-0.005856,30.1525,17.29,-10.1675
1337,10325225,0.8483879999999999,0.132248,-0.027572000000000003,33.8625,17.5875,-8.12
1338,10325322,0.986858,0.14310599999999998,-0.12651400000000002,33.25,7.77,-5.1275
1339,10325418,1.082506,0.1525,-0.21825799999999998,31.57,-4.7775,-1.5575
1340,10325515,1.136308,0.11577799999999999,-0.285724,35.9275,-3.8325,1.4175
1341,10325612,1.089094,0.048068,-0.22277199999999997,44.905,6.7025,1.1025
1342,10325709,1.016748,0.015738,-0.128832,49.7875,17.9375,-1.4175
1343,10325805,1.028826,0.0183,-0.134932,47.0225,21.035,-6.3175
1344,10325902,1.068842,0.10065,-0.20069,42.315,16.2575,-9.9925
1345,10325999,1.123376,0.196054,-0.238754,35.2975,14.8575,-14.6825
1346,10326096,1.15717,0.229848,-0.263154,30.555,21.4025,-18.935
1347,10326192,1.242448,0.169824,-0.255102,30.52,28.28,-23.2575
1348,10326289,1.3973879999999999,0.044652,-0.10723800000000001,41.825,22.365,-27.9475
1349,10326386,1.42984,0.03172,0.104554,40.3025,8.3125,-28.7875
1350,10326483,1.4692459999999998,0.104676,0.23887600000000003,29.4875,7.945,-29.7325
1351,10326579,1.38226,0.14566800000000002,0.29219,30.7125,14.63,-25.9875
1352,10326676,1.352248,0.178974,-0.048434,26.67,1.26,-16.695
1353,10326773,1.562088,0.029889999999999996,-0.810446,2.3275,-27.8075,-12.215
1354,10326870,1.586732,-0.315004,-1.2505,-11.9525,-11.5675,-21.1575
1355,10326967,1.565504,-0.576328,-0.53009,33.3025,69.4925,-53.3925
1356,10327063,1.435452,-0.74237,-0.105774,16.135,73.6575,-74.48
1357,10327160,1.115202,-0.267302,-0.5294800000000001,-109.9525,-23.2925,-58.555
1358,10327257,0.615368,0.18727,-0.6722199999999999,-135.625,-47.775,-30.66
1359,10327354,0.426512,0.515938,-0.426512,-101.71,-20.3525,-19.5475
1360,10327450,0.537288,0.496906,-0.35197,-72.905,-25.7075,-23.3975
1361,10327547,0.6186619999999999,0.63989,-0.8252079999999999,-55.4225,-32.06,-11.5325
1362,10327644,0.8249639999999999,0.7449321,-0.9323239999999999,-15.75,-28.525,-8.1375
1363,10327741,1.223904,0.592188,-0.762988,39.865,8.47,-25.515
1364,10327837,1.60247,0.41358,-0.6511140000000001,60.41,29.19,-38.8675
1365,10327934,1.7387439999999998,0.19642,-0.5726680000000001,39.69,19.285,-41.72
1366,10328031,1.75375,0.00671,-0.444446,12.1625,-7.6825,-31.325
1367,10328128,1.59881,-0.065514,-0.444324,-12.4775,-36.61,-17.1675
1368,10328225,1.317966,-0.077348,-0.469944,-28.945,-50.33,-5.2675
1369,10328321,1.0626200000000001,-0.06527000000000001,-0.43127,-21.9975,-54.5475,9.205
1370,10328418,0.930006,-0.021594,-0.38795999999999997,-10.85,-55.825,18.165
1371,10328515,0.883768,0.016714,-0.32757,2.87,-49.7525,20.6675
1372,10328612,0.81435,0.08064199,-0.256688,15.4,-42.2625,24.675
1373,10328708,0.7211420999999999,0.11333800000000001,-0.24583000000000002,23.415,-38.01,25.2875
1374,10328805,0.63135,0.12065799999999999,-0.188002,26.8975,-38.9025,24.325
1375,10328902,0.594018,0.085888,-0.12993,22.68,-35.6825,21.35
1376,10328999,0.5620541,0.003782,-0.09235399999999999,17.71,-25.305,19.7925
1377,10329095,0.49715,-0.08906,-0.11211800000000001,11.235,-19.3375,22.5575
1378,10329192,0.459208,-0.161406,-0.093086,3.9725,-27.2475,25.935
1379,10329289,0.40272199999999997,-0.191174,-0.114558,-6.195,-32.76,29.225
1380,10329386,0.338916,-0.183122,-0.152134,-7.5075,-29.645,31.9725
1381,10329482,0.356118,-0.16652999999999998,-0.15945399999999998,-7.1575,-28.4025,31.7275
1382,10329579,0.35221399999999997,-0.156282,-0.171898,-9.1525,-21.8225,30.9575
1383,10329676,0.35697199999999996,-0.14579,-0.12139000000000001,-12.705,-20.93,31.15
1384,10329773,0.385154,-0.12065799999999999,-0.127368,-24.99,-25.8475,31.5175
1385,10329869,0.41687399999999997,-0.13908,-0.09247601,-35.7525,-32.1825,30.905
1386,10329966,0.45713400000000004,-0.125416,-0.113704,-48.5625,-34.8425,30.7825
1387,10330063,0.489342,-0.10919000000000001,-0.165798,-60.795,-32.1825,29.54
1388,10330160,0.517158,-0.111874,-0.23314200000000002,-71.05,-22.7675,25.8475
1389,10330256,0.562664,-0.10321199999999998,-0.279136,-79.0825,-7.7525,20.2125
1390,10330353,0.624152,-0.059658,-0.285114,-81.725,9.4675,14.525
1391,10330450,0.6928380000000001,0.011346,-0.203984,-77.49,23.8875,9.94
1392,10330547,0.775798,0.102114,-0.10906800000000001,-76.86,28.56,8.925
1393,10330643,0.8794981,0.165676,-0.12688,-81.3575,25.3925,9.87
1394,10330740,1.005158,0.23680199999999998,-0.215574,-78.61,19.7225,9.66
1395,10330837,1.209508,0.23546,-0.279746,-63.735,20.3175,7.455
1396,10330934,1.3908,0.26108000000000003,-0.23387399999999997,-43.1025,20.3525,9.765
1397,10331030,1.516216,0.387106,-0.163236,-30.0125,20.265,16.205
1398,10331127,1.6145479999999999,0.503738,-0.171776,-18.27,20.09,22.645
1399,10331224,1.455826,0.451034,-0.045627999999999995,-5.67,10.4475,25.62
1400,10331321,1.38592,0.29487399999999997,0.121146,-9.73,-7.245,23.8175
1401,10331417,1.4306940000000001,0.11321600000000001,0.172752,-4.8475,-12.39,20.3875
1402,10331514,1.49389,-0.036356,0.106628,-3.29,-8.8725,15.9775
1403,10331611,1.54025,-0.192638,-0.23802199999999998,-20.79,-3.2375,11.76
1404,10331708,1.7389880000000002,-0.13115,-0.889624,-29.4175,-6.7725,11.2875
1405,10331804,1.940898,0.232776,-0.9214661,-9.1,5.7575,21.7875
1406,10331901,1.7954740000000002,0.6586781,-0.6634359999999999,14.8225,46.0075,35.0525
1407,10331998,1.261724,0.659654,-0.889502,27.055,40.005,48.2125
1408,10332095,0.797148,0.34526,-0.7759199999999999,54.355,15.155,43.3125
1409,10332192,0.72407,0.137494,-0.6019479999999999,45.43,15.75,25.585
1410,10332288,0.6878361,-0.061975999999999996,-0.46896800000000005,37.38,7.1925,14.245
1411,10332385,0.608536,-0.1891,-0.389302,6.1425,-10.71,8.9775
1412,10332482,0.562542,-0.312076,-0.401502,-26.0575,-13.7725,4.1125
1413,10332579,0.7452979999999999,-0.363682,-0.463966,-28.9975,-5.9325,-1.96
1414,10332675,1.1150799999999998,-0.331474,-0.5502199999999999,-18.55,6.125,-2.6075
1415,10332772,1.44143,-0.28792,-0.6182960999999999,-12.1275,8.5225,-1.6625
1416,10332869,1.667252,-0.192394,-0.643184,-12.2675,-1.225,-0.7175
1417,10332966,1.788032,0.00793,-0.49751599999999996,-2.8525,-12.2325,3.045
1418,10333062,1.641144,0.132736,-0.411872,0.4725,-22.68,5.18
1419,10333159,1.245132,0.21886799999999998,-0.45420600000000005,-7.0,-32.165,9.1
1420,10333256,0.965996,0.21215799999999999,-0.47079799999999994,-9.52,-40.845,6.685
1421,10333353,0.832528,0.17202,-0.41577600000000003,-2.625,-38.15,0.8225
1422,10333450,0.772504,0.13664,-0.362706,5.2675,-32.1125,-4.6375
1423,10333546,0.73627,0.14798599999999998,-0.27266999999999997,7.035,-32.095,-9.8
1424,10333643,0.668316,0.128222,-0.24705,3.0975,-28.7,-15.7675
1425,10333740,0.587064,0.09052401,-0.2318,1.33,-23.1175,-22.015
1426,10333837,0.518622,0.055144000000000006,-0.241438,1.8725,-15.925,-27.2125
1427,10333933,0.43627200000000005,0.040504000000000005,-0.217282,8.9775,-11.76,-33.215
1428,10334030,0.366854,0.095648,-0.15823399999999999,17.15,-7.7,-37.345
1429,10334127,0.334158,0.132736,-0.182024,23.7825,1.855,-43.2425
1430,10334224,0.315004,0.171044,-0.17629,29.0325,4.585,-48.16
1431,10334321,0.325496,0.159332,-0.167994,27.1775,3.2725,-49.21
1432,10334417,0.380884,0.14518,-0.19861600000000001,23.5375,1.75,-46.62
1433,10334514,0.428464,0.139934,-0.21533000000000002,19.5125,-1.5575,-43.19
1434,10334611,0.45261999999999997,0.138714,-0.22557800000000003,23.2225,1.225,-37.975
1435,10334708,0.485804,0.144814,-0.172752,34.72,5.215,-32.2525
1436,10334804,0.5413140000000001,0.12431800000000001,-0.094062,44.0825,5.7925,-26.04
1437,10334901,0.582916,0.167872,-0.05770599999999999,46.5675,3.185,-19.18
1438,10334998,0.671732,0.158966,-0.047702,48.5275,-0.945,-14.315
1439,10335095,0.722362,0.14310599999999998,-0.06124401,51.8175,-1.1375,-11.0775
1440,10335191,0.8199620000000001,0.15616,-0.09235399999999999,57.155,1.4525,-10.185
1441,10335288,0.9128040000000001,0.12212200000000001,-0.118584,60.55,-0.6475,-8.0325
1442,10335385,0.979416,0.07710399999999999,-0.212524,60.7775,-2.87,-6.265
1443,10335482,0.979294,0.00305,-0.32757,63.315,4.865,-6.825
1444,10335579,0.9414741,-0.061732,-0.31415,67.41001,20.16,-10.08
1445,10335675,0.883158,-0.04404201,-0.17934,69.405,37.2225,-15.435
1446,10335772,0.9724620999999999,0.018056,-0.035258,67.5325,40.425,-23.52
1447,10335869,1.077626,0.11321600000000001,-0.129686,53.9,32.5675,-26.81
1448,10335966,1.105198,0.170312,-0.268156,38.8325,20.405,-27.1775
1449,10336062,1.126914,0.13456600000000002,-0.259006,33.8625,18.34,-28.315
1450,10336159,1.2341520000000001,-0.037088,-0.157746,34.7025,25.2525,-32.13
1451,10336256,1.39385,-0.161772,-0.030744,32.3575,21.945,-31.885
1452,10336353,1.500356,-0.134688,0.13054000000000002,23.205,8.5925,-28.63
1453,10336450,1.501942,-0.025376,0.23668000000000003,16.9925,-0.175,-19.7225
1454,10336546,1.4774200000000002,0.14310599999999998,0.145058,10.045,-7.4725,-9.1175
1455,10336643,1.5433,0.24558600000000003,-0.390644,-7.2275,-19.5825,-0.525
1456,10336740,1.69275,-0.022203999999999998,-1.017724,-15.9425,-23.5025,2.66
1457,10336837,1.6964099999999998,-0.262544,-0.91805,6.37,21.0875,-16.1525
1458,10336933,1.6328479999999999,-0.471896,-0.180804,36.365,77.6125,-50.96
1459,10337030,1.2993,-0.43322200000000005,-0.17507,-27.72,42.91,-64.7675
1460,10337127,0.8287459999999999,0.020008,-0.5978,-120.085,-41.825,-40.4775
1461,10337224,0.457012,0.30853800000000003,-0.614636,-107.135,-31.6575,-22.5925
1462,10337320,0.5380199999999999,0.42883009999999994,-0.39466999999999997,-65.3975,-9.625,-23.765
1463,10337417,0.629642,0.478484,-0.400038,-46.515,-22.9425,-22.5225
1464,10337514,0.6392800000000001,0.6001181,-0.8235001000000001,-37.2225,-29.2075,-11.235
1465,10337611,0.8411900999999999,0.5954821,-0.759328,-2.1175,-18.69,-10.3775
1466,10337707,1.226588,0.421022,-0.643672,34.0725,4.62,-27.16
1467,10337804,1.609424,0.246806,-0.749934,30.275,8.855,-41.125
1468,10337901,1.760948,0.07637200000000001,-0.64904,15.015,6.6675,-46.6725
1469,10337998,1.7008020000000001,-0.009394,-0.424072,4.3575,-1.68,-36.8025
1470,10338094,1.474858,-0.05368,-0.45432799999999995,-17.22,-24.9375,-19.6175
1471,10338191,1.1407,-0.026962,-0.468846,-37.0125,-52.92,-0.14
1472,10338288,0.9293961,0.011712,-0.47909399999999996,-33.32,-56.21,14.4375
1473,10338385,0.9201241,0.028548,-0.39723200000000003,-13.195,-45.255,21.4375
1474,10338482,0.8885261000000001,0.07710399999999999,-0.288408,-1.5225,-41.0025,26.775
1475,10338578,0.8147161,0.09784401,-0.261446,2.8525,-41.23,30.205
1476,10338675,0.7449321,0.105652,-0.22472399999999998,9.485,-39.7425,32.0425
1477,10338772,0.68076,0.081862,-0.17848599999999998,11.025,-38.465,31.6225
1478,10338869,0.580476,0.05636401,-0.170434,6.37,-33.215,29.085
1479,10338965,0.551074,-0.025254,-0.12688,1.2075,-28.3675,24.045
1480,10339062,0.477264,-0.068076,-0.09650201,-5.845,-25.935,21.8575
1481,10339159,0.45603599999999994,-0.100406,-0.13054000000000002,-13.5625,-27.4925,23.1525
1482,10339256,0.408578,-0.13115,-0.15506199999999998,-9.275,-24.745,27.195
1483,10339352,0.42004600000000003,-0.141398,-0.122366,-8.7675,-23.3975,28.0525
1484,10339449,0.434808,-0.14469200000000002,-0.155672,-12.8625,-17.1675,30.8175
1485,10339546,0.47201809999999994,-0.10919000000000001,-0.147254,-13.4575,-15.995,34.44
1486,10339643,0.528992,-0.107848,-0.133712,-20.755,-20.055,35.1575
1487,10339739,0.554002,-0.09455001,-0.111508,-30.31,-23.6425,35.7175
1488,10339836,0.576328,-0.08674201,-0.102114,-42.1575,-28.4725,34.0375
1489,10339933,0.5871860999999999,-0.055510000000000004,-0.086864,-53.165,-30.625,31.045
1490,10340030,0.554124,-0.004026,-0.08649801,-61.3375,-29.0325,27.2125
1491,10340126,0.514596,-0.01647,-0.11626600000000001,-66.7625,-22.05,20.8425
1492,10340223,0.511668,-0.00183,-0.165188,-70.7,-13.5275,15.6275
1493,10340320,0.5751081,0.010126000000000001,-0.19337000000000001,-72.6075,-5.1975,11.6025
1494,10340417,0.655628,0.06283,-0.187392,-70.9275,2.38,10.3425
1495,10340514,0.7241920000000001,0.12993,-0.159332,-68.5825,8.2775,11.515
1496,10340610,0.813862,0.199104,-0.11712,-66.7275,10.71,13.09
1497,10340707,0.940742,0.20752199999999998,-0.169702,-66.64,8.715,12.88
1498,10340804,1.112762,0.174948,-0.273646,-59.6225,6.8075,12.2325
1499,10340901,1.3115,0.112972,-0.34721199999999997,-45.64,4.3925,11.9175
1500,10340997,1.41703,0.161894,-0.29743600000000003,-28.9275,1.785,14.4725
1501,10341094,1.44631,0.274378,-0.21679400000000001,-14.7175,12.3725,16.0475
1502,10341191,1.491206,0.3843,-0.183732,-0.6475,21.2625,16.87
1503,10341288,1.461316,0.382348,-0.035013999999999997,6.9825,10.465,17.9725
1504,10341384,1.3664,0.255346,0.11919400000000001,3.7275,2.1875,14.5775
1505,10341481,1.3847,0.081618,0.079178,1.645,-2.1,9.2225
1506,10341578,1.447774,-0.05429,-0.43212399999999995,-3.8325,-9.0125,5.6175
1507,10341675,1.7519200000000001,0.095282,-1.042612,-1.54,-7.945,8.89
1508,10341771,1.885388,0.5260640000000001,-0.7439560000000001,29.9425,25.7075,23.87
1509,10341868,1.7155639999999999,0.8677860000000001,-0.6036560999999999,29.5925,48.9475,38.57
1510,10341965,1.0673780000000002,0.47811800000000004,-0.6734399999999999,45.71,26.88,47.95
1511,10342062,0.789828,-0.081862,-0.60634,67.2875,8.6275,32.0775
1512,10342159,0.871568,-0.181292,-0.416996,43.5225,10.43,18.1475
1513,10342255,0.8247200000000001,-0.17568,-0.44286000000000003,20.965,-0.805,12.6
1514,10342352,0.726388,-0.31012399999999996,-0.396012,3.745,-15.225,8.225
1515,10342449,0.665266,-0.35538600000000004,-0.42626800000000004,-26.565,-15.435,3.57
1516,10342546,0.8611979999999999,-0.2989,-0.525332,-24.6225,-7.525,-0.63
1517,10342642,1.144116,-0.22496799999999997,-0.529968,-11.76,-5.6875,0.0875
1518,10342739,1.370182,-0.146522,-0.587674,-8.2425,-2.1525,2.135
1519,10342836,1.556842,0.005978,-0.7195560000000001,1.47,-3.605,-0.3675
1520,10342933,1.6639580000000003,0.112972,-0.5413140000000001,13.335,-9.485,-3.9025
1521,10343029,1.474004,0.13383399999999998,-0.48702399999999996,16.5025,-11.41,-1.645
1522,10343126,1.14192,0.13847,-0.47518999999999995,16.9225,-24.01,2.9925
1523,10343223,0.9537959999999999,0.126392,-0.46506400000000003,9.1,-32.2175,-0.105
1524,10343320,0.876692,0.07259,-0.38674000000000003,13.0725,-27.5625,-7.9275
1525,10343416,0.8400921,0.018422,-0.31232,13.1075,-26.215,-14.2975
1526,10343513,0.812032,-0.005246,-0.270596,9.1875,-25.55,-18.8825
1527,10343610,0.7596940999999999,-0.034282,-0.26169000000000003,4.305,-22.8725,-22.9075
1528,10343707,0.6566041,-0.039406000000000004,-0.242902,0.7175,-21.21,-26.6
1529,10343803,0.513742,0.01342,-0.25424800000000003,-2.8,-17.745,-29.2775
1530,10343900,0.4209,0.002318,-0.21520799999999998,0.385,-12.81,-33.8275
1531,10343997,0.363072,0.07417601,-0.14469200000000002,9.485,-1.6275,-36.61
1532,10344094,0.325984,0.151036,-0.15555,14.385,9.52,-40.81
1533,10344191,0.31232,0.175558,-0.18324400000000002,12.145,8.225,-45.0975
1534,10344287,0.338428,0.166042,-0.17848599999999998,7.8225,0.7875,-44.8525
1535,10344384,0.361852,0.20727800000000002,-0.238998,6.8075,-2.38,-43.9075
1536,10344481,0.43505200000000005,0.19580999999999998,-0.251564,13.195,-3.4125,-42.805
1537,10344578,0.504714,0.21972199999999997,-0.21362199999999998,23.5025,1.925,-37.765
1538,10344674,0.5644939999999999,0.23472800000000002,-0.186172,33.495,6.6325,-31.4475
1539,10344771,0.62342,0.225212,-0.124074,41.405,4.6725,-23.59
1540,10344868,0.659898,0.203984,-0.08637601,43.2775,0.1575,-15.7675
1541,10344965,0.6989380000000001,0.16201600000000002,-0.071004,45.115,-2.835,-10.675
1542,10345061,0.77836,0.0732,-0.071614,47.1975,-3.57,-7.455
1543,10345158,0.8782780000000001,0.02745,-0.07686,51.8175,-0.945,-3.8325
1544,10345255,0.9345201,-0.005246,-0.126392,53.2,-2.415,-3.1325
1545,10345352,0.966606,-0.063928,-0.151158,50.9075,-8.785,-4.34
1546,10345448,0.9484280999999999,-0.07856801,-0.247294,47.74,-5.5125,-5.4425
1547,10345545,0.8675421,-0.059658,-0.224602,52.0975,7.6825,-8.8375
1548,10345642,0.815814,-0.020130000000000002,-0.138226,55.0375,21.735,-14.35
1549,10345739,0.89426,0.072712,-0.148474,46.41,30.065,-19.775
1550,10345835,1.014186,0.180316,-0.22948200000000002,41.51,35.07,-22.19
1551,10345932,1.0765280000000002,0.21166999999999997,-0.339648,36.365,30.905,-23.8175
1552,10346029,1.041392,0.071004,-0.302194,27.23,26.005,-27.405
1553,10346126,1.151192,-0.07015,-0.144082,28.5425,28.315,-28.8925
1554,10346222,1.336998,-0.141154,0.019886,26.6175,25.7775,-28.0175
1555,10346319,1.4208120000000002,-0.055388,0.17397200000000002,15.1375,15.68,-25.2
1556,10346416,1.387628,0.0793,0.27510999999999997,9.7475,4.2175,-18.305
1557,10346513,1.413126,0.1708,0.198982,5.8975,-8.5575,-10.6225
1558,10346610,1.4180059999999999,0.188002,-0.364536,-1.435,-20.3875,-3.605
1559,10346706,1.52134,0.036356,-1.025288,-2.8,-22.295,-6.545
1560,10346803,1.551596,-0.220088,-1.056886,22.54,29.3475,-35.0525
1561,10346900,1.621868,-0.476654,-0.459086,40.8975,89.6,-75.35501
1562,10346997,1.477908,-0.539972,-0.299144,-20.8775,63.1225,-99.12001
1563,10347093,0.9551379999999999,-0.130174,-0.488122,-110.635,-16.38,-78.26
1564,10347190,0.48922,0.34038,-0.528016,-120.575,-26.3375,-46.2175
1565,10347287,0.474214,0.554246,-0.43127,-88.27,-22.155,-38.4825
1566,10347384,0.555832,0.535458,-0.6197600000000001,-56.175,-25.9,-34.895
1567,10347480,0.6463561,0.6411100000000001,-0.86498,-35.07,-17.0275,-19.6525
1568,10347577,1.009428,0.527894,-0.692472,17.885,0.8925,-28.245
1569,10347674,1.510116,0.43615,-0.74298,50.82,9.4325,-42.56
1570,10347771,1.830366,0.315004,-0.713334,41.195,5.845,-49.14
1571,10347867,1.934066,0.17446,-0.490806,23.31,1.2425,-43.4525
1572,10347964,1.742648,0.06819800000000001,-0.470188,-2.9225,-19.285,-25.4275
1573,10348061,1.280024,0.009028000999999999,-0.501908,-26.11,-44.0125,-7.56
1574,10348158,0.983564,0.01769,-0.49654,-27.1425,-53.34,8.785
1575,10348254,0.9435479999999999,-0.013663999999999999,-0.44212799999999997,-10.885,-44.24,13.2125
1576,10348351,0.94916,0.012322,-0.312564,5.215,-37.975,15.82
1577,10348448,0.908168,0.08344800000000001,-0.28157600000000005,8.75,-39.9,19.6
1578,10348545,0.771528,0.14493599999999998,-0.268156,14.8925,-41.3,22.19
1579,10348641,0.7448100999999999,0.116022,-0.213256,18.4625,-38.045,19.1275
1580,10348738,0.679784,0.07393200000000001,-0.21667199999999998,18.4275,-26.985,14.5075
1581,10348835,0.612074,-0.008906,-0.135298,13.5275,-25.3225,10.885
1582,10348932,0.492148,-0.094672,-0.128588,4.375,-22.7325,9.1175
1583,10349028,0.454816,-0.127368,-0.149694,2.8525,-22.4,12.04
1584,10349125,0.39711,-0.13383399999999998,-0.15616,4.725,-20.2475,15.085
1585,10349222,0.395036,-0.129076,-0.140178,2.1875,-19.18,16.4325
1586,10349319,0.40979799999999994,-0.11577799999999999,-0.154452,1.995,-12.6,19.215
1587,10349415,0.44371400000000005,-0.125538,-0.16287000000000001,3.08,-8.575,20.895
1588,10349512,0.5058121,-0.11736400000000001,-0.151158,-5.18,-12.32,22.5575
1589,10349609,0.5546121,-0.094306,-0.101992,-14.6475,-18.725,22.1025
1590,10349706,0.570472,-0.09186601,-0.07832401,-25.8475,-22.7325,19.495
1591,10349802,0.5738880000000001,-0.034282,-0.064538,-37.2225,-23.275,16.94
1592,10349899,0.556076,0.013297999999999999,-0.05843801,-46.9525,-20.685,13.545
1593,10349996,0.538996,0.0549,-0.07503,-54.075,-15.1375,10.3775
1594,10350093,0.536922,0.085522,-0.09613601,-57.1025,-8.155,7.0
1595,10350189,0.5787680000000001,0.09052401,-0.12688,-58.5375,-1.225,3.955
1596,10350286,0.645502,0.10943399999999999,-0.13480999999999999,-60.0425,4.34,2.6425
1597,10350383,0.7077220000000001,0.12285399999999999,-0.10418800000000002,-63.385,6.44,2.45
1598,10350480,0.769332,0.12358599999999999,-0.045384,-66.325,6.58,2.8
1599,10350576,0.8757159999999999,0.077836,-0.06490399999999999,-65.4675,7.7875,2.73
1600,10350673,0.992348,0.026108,-0.20727800000000002,-58.52,5.1975,4.1125
1601,10350770,1.0889719999999998,0.008906,-0.289628,-45.6575,-2.0825,7.0
1602,10350867,1.142042,0.098576,-0.246928,-30.415,-6.405,8.9775
1603,10350963,1.21512,0.224602,-0.151402,-15.015,5.3725,10.43
1604,10351060,1.358104,0.372344,-0.16530999999999998,-1.9775,24.08,13.125
1605,10351157,1.387506,0.46457600000000004,-0.140666,9.4675,24.4125,16.1
1606,10351254,1.321626,0.381494,-0.096868,5.74,7.945,13.3525
1607,10351350,1.321382,0.248392,-0.07307801,2.66,-2.6075,6.545
1608,10351447,1.270996,0.060024,-0.14786400000000002,1.33,-4.8825,-3.8325
1609,10351544,1.3649360000000001,-0.037942000000000004,-0.44822799999999996,-10.8325,0.91,-11.34
1610,10351641,1.7263,0.022203999999999998,-0.7714061,-20.0025,12.9325,-6.4925
1611,10351737,1.831952,0.203618,-0.72285,-0.875,33.6175,10.7625
1612,10351834,1.535614,0.375638,-0.9140241,22.7675,49.0,32.1825
1613,10351931,1.082018,0.255834,-0.8866961,47.18,43.4175,51.38
1614,10352028,0.8306979999999999,0.073688,-0.5655920999999999,49.35,33.7575,48.0725
1615,10352125,0.734684,0.00793,-0.410042,38.85,20.615,36.295
1616,10352221,0.712236,-0.142496,-0.319762,15.085,-4.2175,28.1225
1617,10352318,0.653676,-0.229604,-0.417362,-12.5825,-11.2175,20.545
1618,10352415,0.764818,-0.338306,-0.502152,-17.6925,-1.82,16.625
1619,10352512,1.055666,-0.35026199999999996,-0.544852,-14.63,3.745,19.1625
1620,10352608,1.3052780000000002,-0.334768,-0.57767,-17.29,-3.6225,22.925
1621,10352705,1.5786799999999999,-0.24095,-0.72102,-18.97,-17.815,18.7775
1622,10352802,1.7317900000000002,0.038064,-0.659776,0.0,-16.835,9.45
1623,10352899,1.813164,0.233386,-0.5281380999999999,12.74,-11.13,-0.3325
1624,10352995,1.4032440000000002,0.30792800000000004,-0.5233800000000001,15.7325,-15.855,1.5225
1625,10353092,1.045296,0.29463,-0.537532,9.0125,-32.8125,0.07
1626,10353189,0.8985301,0.254126,-0.476654,15.9425,-25.865,-7.035
1627,10353286,0.8727879999999999,0.20703400000000002,-0.378322,27.825,-19.0575,-14.42
1628,10353382,0.8431420000000001,0.18043800000000002,-0.32708200000000004,28.14,-21.0875,-19.11
1629,10353479,0.8357,0.12712400000000001,-0.320494,26.5825,-21.21,-26.1975
1630,10353576,0.7983680000000001,0.111142,-0.31232,29.1025,-18.1125,-32.4275
1631,10353673,0.7068681,0.07393200000000001,-0.31646799999999997,34.6675,-10.43,-38.5
1632,10353769,0.625372,0.06892999999999999,-0.266448,39.0425,-6.965,-42.875
1633,10353866,0.535946,0.114558,-0.253394,44.1175,-2.24,-44.9225
1634,10353963,0.48348599999999997,0.1525,-0.253272,50.19,0.805,-49.5075
1635,10354060,0.45445,0.19251600000000002,-0.24827,51.6425,0.2275,-52.885
1636,10354156,0.428464,0.232898,-0.279258,53.4625,-0.7175,-54.7225
1637,10354253,0.429562,0.29572800000000005,-0.281942,56.9625,-5.4775,-55.7025
1638,10354350,0.44676400000000005,0.331474,-0.265716,62.5625,-2.065,-56.805
1639,10354447,0.48116800000000004,0.354166,-0.233996,73.5,6.5975,-57.1725
1640,10354543,0.574986,0.266448,-0.17641199999999999,80.99,11.165,-56.84
1641,10354640,0.648796,0.240218,-0.15701400000000001,85.78501,11.83,-51.2925
1642,10354737,0.734684,0.165798,-0.11577799999999999,91.49,10.0275,-46.34
1643,10354834,0.784338,0.08881599,-0.08332601,98.3325,11.9875,-39.375
1644,10354930,0.818742,0.009637999999999999,-0.045018,101.4475,13.125,-34.3875
1645,10355027,0.8610761,-0.07234600000000001,-0.010248,95.3575,11.095,-31.64
1646,10355124,0.8574161,-0.11529,-0.07039400000000001,86.24,8.225,-28.5775
1647,10355221,0.822524,-0.15311,-0.125904,81.04251,8.47,-29.2425
1648,10355317,0.767502,-0.17543599999999998,-0.17238599999999998,79.135,15.33,-30.205
1649,10355414,0.757742,-0.128832,-0.12688,84.03501,22.7675,-32.48
1650,10355511,0.842166,-0.07417601,-0.12627,85.05,24.01,-36.2075
1651,10355608,0.9150001,0.047580000000000004,-0.193126,81.84751,20.72,-37.345
1652,10355704,0.95465,0.15006,-0.22082,78.05,20.405,-39.8475
1653,10355801,0.9801479999999999,0.1647,-0.231434,74.095,28.63,-42.3325
1654,10355898,1.059692,0.07417601,-0.22423600000000002,68.65250999999999,35.4725,-44.1875
1655,10355995,1.091412,-0.063196,-0.18873399999999999,62.5975,33.8975,-43.96
1656,10356091,1.173518,-0.17568,-0.13725,55.58,24.1325,-42.245
1657,10356188,1.326018,-0.22204000000000002,-0.082228,49.5775,18.1475,-39.5325
1658,10356285,1.410564,-0.185074,0.035502,46.2875,14.98,-33.4075
