,T,ax,ay,az,gx,gy,gz
0,66036,0.52094,-0.242292,-0.56852,18.585,-17.9375,-17.8675
1,66185,0.564372,-0.217648,-0.673928,-71.85501,25.1825,-206.6925
2,66283,0.604144,-0.227408,-0.7229720000000001,-13.0375,-98.5075,-357.35
3,66381,0.6039,-0.229116,-0.7239479999999999,31.4475,-109.725,-89.3725
4,66479,0.598532,-0.23155599999999998,-0.729072,1.7675,-8.47,-7.4375
5,66577,0.605608,-0.22862800000000003,-0.730536,1.2425,-6.2825,-5.8625
6,66676,0.606096,-0.229848,-0.72956,1.26,-6.1775,-5.88
7,66774,0.5987760999999999,-0.23228800000000002,-0.7324881,1.54,-6.335,-5.705
8,66872,0.604632,-0.231312,-0.7283400999999999,1.5925,-6.265,-5.6
9,66970,0.603168,-0.22935999999999998,-0.730292,1.75,-6.51,-5.5475
10,67068,0.6058520000000001,-0.23448400000000003,-0.73078,1.75,-6.37,-5.46
11,67166,0.604388,-0.23472800000000002,-0.730536,1.89,-6.5975,-5.3725
12,67264,0.6070720000000001,-0.230336,-0.73078,1.7675,-6.6325,-5.495
13,67362,0.601704,-0.23448400000000003,-0.7329760000000001,1.5925,-6.755,-5.425
14,67460,0.6034121,-0.23472800000000002,-0.730292,1.4525,-6.93,-5.46
15,67558,0.5975560000000001,-0.237656,-0.72956,1.2775,-6.9825,-5.495
16,67656,0.589992,-0.24131599999999997,-0.7356600000000001,1.4175,-7.14,-5.6175
17,67754,0.595116,-0.23668000000000003,-0.7366361,1.1375,-6.755,-5.985
18,67852,0.607316,-0.229116,-0.732244,0.805,-6.265,-6.23
19,67950,0.601216,-0.233264,-0.7324881,0.7525,-6.4225,-6.1775
20,68048,0.595116,-0.23448400000000003,-0.733952,0.77,-6.51,-6.09
21,68147,0.599508,-0.233996,-0.7324881,0.8400001,-6.37,-6.23
22,68245,0.5997520000000001,-0.23228800000000002,-0.730292,0.9625,-6.3525,-6.125
23,68343,0.60024,-0.231312,-0.7329760000000001,0.735,-6.37,-6.1775
24,68441,0.598532,-0.232044,-0.735904,0.735,-6.37,-6.0725
25,68539,0.598532,-0.23448400000000003,-0.7327321,0.8400001,-6.265,-6.0725
26,68637,0.596092,-0.234972,-0.7320001,0.875,-6.3175,-6.1075
27,68735,0.5914560000000001,-0.23668000000000003,-0.7332201,0.735,-6.23,-6.1425
28,68833,0.585112,-0.23692399999999997,-0.737124,0.7525,-6.2825,-6.3175
29,68931,0.600484,-0.236192,-0.734684,0.805,-5.775,-6.5275
30,69029,0.599264,-0.2257,-0.733464,0.8575,-5.3725,-6.51
31,69127,0.588284,-0.23887600000000003,-0.73444,1.19,-5.635,-6.2475
32,69225,0.5914560000000001,-0.243756,-0.7356600000000001,1.4,-5.18,-6.3525
33,69323,0.612196,-0.21862399999999999,-0.7356600000000001,1.365,-4.8825,-6.405
34,69421,0.601704,-0.23887600000000003,-0.7300479999999999,1.505,-5.145,-6.2475
35,69519,0.599264,-0.23838800000000002,-0.733952,1.225,-5.1975,-6.265
36,69618,0.60268,-0.232776,-0.7332201,1.12,-5.25,-6.3525
37,69716,0.604144,-0.233508,-0.7320001,1.0675,-5.495,-6.2825
38,69814,0.6021920000000001,-0.235948,-0.734684,0.9625,-5.635,-6.3175
39,69912,0.6021920000000001,-0.233996,-0.731024,0.8400001,-5.81,-6.3875
40,70010,0.6007279999999999,-0.23472800000000002,-0.7329760000000001,0.8225,-5.9325,-6.2825
41,70108,0.600484,-0.23521599999999998,-0.733708,0.8225,-6.0025,-6.23
42,70206,0.6009720000000001,-0.23424,-0.73078,0.7175,-5.9325,-6.2825
43,70304,0.601216,-0.23448400000000003,-0.7324881,0.6825,-5.9675,-6.16
44,70402,0.5997520000000001,-0.23521599999999998,-0.7300479999999999,0.7525,-6.0375,-6.2125
45,70500,0.6019479999999999,-0.23448400000000003,-0.731268,0.7,-6.09,-6.1425
46,70598,0.59902,-0.232044,-0.734928,0.6825,-6.23,-6.1425
47,70696,0.59902,-0.23546,-0.731268,0.7,-6.2475,-6.09
48,70794,0.587064,-0.23887600000000003,-0.7332201,0.7175,-6.2825,-6.055
49,70892,0.592432,-0.23838800000000002,-0.731268,0.7875,-6.02,-6.16
50,70990,0.6034121,-0.23058,-0.730536,0.8225,-5.5125,-6.3875
51,71088,0.5978,-0.23692399999999997,-0.7317560000000001,0.98,-5.705,-6.3
52,71186,0.595116,-0.23692399999999997,-0.734684,1.085,-5.7575,-6.0375
53,71284,0.60512,-0.2379,-0.73444,1.0325,-5.635,-6.0725
54,71382,0.604144,-0.233264,-0.731024,0.98,-5.6525,-6.195
55,71481,0.595604,-0.23911999999999997,-0.729804,1.015,-5.985,-6.1075
56,71579,0.6007279999999999,-0.23301999999999998,-0.730292,0.875,-5.95,-6.055
57,71677,0.60146,-0.233508,-0.7315119999999999,0.9275,-6.0375,-6.1075
58,71775,0.599508,-0.236192,-0.72956,0.91,-6.0725,-6.1075
59,71873,0.599264,-0.236192,-0.7320001,0.8925,-6.0375,-6.09
60,71971,0.6009720000000001,-0.23448400000000003,-0.7315119999999999,0.735,-6.09,-6.0025
61,72069,0.5978,-0.236192,-0.7315119999999999,0.735,-6.0725,-5.95
62,72167,0.5958479999999999,-0.237168,-0.7300479999999999,0.8225,-6.16,-6.1775
63,72265,0.59902,-0.23838800000000002,-0.732244,0.7875,-6.1425,-6.195
64,72363,0.5978,-0.23838800000000002,-0.7327321,0.6475,-6.125,-6.125
65,72461,0.599264,-0.239608,-0.7317560000000001,0.7,-6.23,-6.1075
66,72559,0.599508,-0.23546,-0.731024,0.63,-6.1775,-6.1425
67,72657,0.599508,-0.239608,-0.7317560000000001,0.6475,-6.2125,-6.1075
68,72755,0.598532,-0.238632,-0.7327321,0.56,-6.2125,-6.125
69,72853,0.597312,-0.24034,-0.7332201,0.6475,-6.23,-6.0725
70,72951,0.59658,-0.23887600000000003,-0.731024,0.595,-6.1775,-6.16
71,73049,0.596336,-0.23887600000000003,-0.7317560000000001,0.4725,-6.1775,-6.1775
72,73147,0.5958479999999999,-0.23668000000000003,-0.7324881,0.5075,-6.23,-6.4225
73,73245,0.595116,-0.237168,-0.734684,0.525,-6.055,-6.265
74,73343,0.5975560000000001,-0.239608,-0.734684,0.805,-5.88,-6.2125
75,73441,0.5975560000000001,-0.23424,-0.73444,0.6125,-5.95,-6.09
76,73540,0.5980439999999999,-0.23911999999999997,-0.73078,0.63,-6.125,-6.1425
77,73638,0.594384,-0.23668000000000003,-0.733464,0.4725,-6.1075,-6.2475
78,73736,0.596092,-0.235948,-0.7315119999999999,0.42,-6.16,-6.23
79,73834,0.59536,-0.236436,-0.7320001,0.4375,-6.2125,-6.265
80,73932,0.590724,-0.23692399999999997,-0.732244,0.42,-6.16,-6.3
81,74030,0.5885281,-0.239608,-0.734684,0.4025,-6.0725,-6.335
82,74128,0.5946279999999999,-0.23546,-0.7356600000000001,0.49,-5.7925,-6.545
83,74226,0.596092,-0.235704,-0.734928,0.665,-5.6525,-6.5625
84,74324,0.5975560000000001,-0.23911999999999997,-0.731024,0.7875,-5.5475,-6.4225
85,74422,0.59292,-0.236192,-0.734196,0.8225,-5.6875,-6.3525
86,74520,0.5885281,-0.24082800000000001,-0.73078,0.945,-5.6175,-6.2825
87,74618,0.5919439999999999,-0.2379,-0.733464,0.945,-5.3025,-6.44
88,74716,0.5968241,-0.23521599999999998,-0.736392,0.9275,-5.1275,-6.4575
89,74814,0.596092,-0.23668000000000003,-0.7329760000000001,1.05,-5.1975,-6.4925
90,74912,0.595604,-0.239852,-0.7283400999999999,1.05,-5.04,-6.51
91,75010,0.5958479999999999,-0.238632,-0.729804,0.9625,-5.0925,-6.5275
92,75108,0.5914560000000001,-0.24131599999999997,-0.7315119999999999,0.98,-5.18,-6.475
93,75206,0.5946279999999999,-0.238144,-0.7317560000000001,0.9975,-5.0575,-6.5625
94,75304,0.600484,-0.23546,-0.730292,0.9275,-4.865,-6.72
95,75402,0.599508,-0.234972,-0.7285841,0.9275,-5.005,-6.7025
96,75500,0.59902,-0.24034,-0.73078,0.9975,-5.215,-6.6675
97,75599,0.5958479999999999,-0.2318,-0.733464,0.945,-5.1625,-6.7025
98,75697,0.601216,-0.23448400000000003,-0.73078,1.015,-4.935,-6.65
99,75795,0.602436,-0.233996,-0.7324881,1.05,-4.97,-6.4575
100,75893,0.59658,-0.23887600000000003,-0.731268,1.1025,-5.075,-6.4575
101,75991,0.595604,-0.24107199999999998,-0.729804,1.12,-5.1275,-6.3875
102,76089,0.59902,-0.2379,-0.7288279999999999,1.015,-5.11,-6.58
103,76187,0.594384,-0.24034,-0.7327321,1.015,-5.2325,-6.6325
104,76285,0.5978,-0.24107199999999998,-0.729804,0.8925,-5.0925,-6.7375
105,76383,0.60024,-0.235704,-0.732244,0.7175,-4.83,-6.895
106,76481,0.5978,-0.236192,-0.732244,0.63,-5.005,-6.7725
107,76579,0.604388,-0.235704,-0.7285841,0.7525,-5.0225,-6.685
108,76677,0.603168,-0.23741199999999998,-0.729316,0.7175,-5.11,-6.65
109,76775,0.60268,-0.23668000000000003,-0.7285841,0.805,-5.215,-6.5275
110,76873,0.6029241,-0.23692399999999997,-0.72956,0.7175,-5.39,-6.4575
111,76971,0.5936520000000001,-0.239608,-0.7288279999999999,0.7875,-5.67,-6.44
112,77069,0.59292,-0.24424400000000002,-0.732244,0.35,-5.53,-6.755
113,77167,0.59658,-0.246196,-0.72956,-0.525,-5.3025,-7.28
114,77265,0.601216,-0.23448400000000003,-0.7315119999999999,-0.9975,-5.075,-7.7175
115,77363,0.593896,-0.23887600000000003,-0.7324881,-0.98,-5.145,-7.7875
116,77461,0.5958479999999999,-0.23668000000000003,-0.7332201,-0.9625,-4.935,-7.84
117,77559,0.606096,-0.22277199999999997,-0.7378560000000001,-0.8575,-4.3925,-7.945
118,77657,0.5941401,-0.237656,-0.7315119999999999,-0.63,-4.445,-7.805
119,77756,0.5978,-0.244732,-0.72956,-1.015,-4.3225,-7.91
120,77854,0.607316,-0.23228800000000002,-0.729804,-1.5925,-4.305,-8.2425
121,77952,0.6034121,-0.226188,-0.73078,-1.645,-4.55,-8.1375
122,78050,0.604632,-0.228872,-0.730536,-1.12,-4.7075,-7.84
123,78148,0.606096,-0.229116,-0.729072,-0.8400001,-4.69,-7.6475
124,78246,0.602436,-0.231068,-0.7288279999999999,-0.5425,-4.7775,-7.3325
125,78344,0.6007279999999999,-0.23424,-0.730536,-0.2275,-4.9175,-7.1225
126,78442,0.599508,-0.233752,-0.7278521,-0.14,-4.9525,-6.965
127,78540,0.60024,-0.232776,-0.728096,-0.0875,-5.04,-7.07
128,78638,0.606096,-0.23228800000000002,-0.725168,-0.0875,-5.0925,-6.9825
129,78736,0.6021920000000001,-0.23082399999999997,-0.728096,0.14,-5.5125,-6.8775
130,78834,0.6080479999999999,-0.229848,-0.728096,0.3325,-5.6,-6.6675
131,78932,0.606096,-0.228872,-0.729072,0.49,-5.8275,-6.37
132,79030,0.604876,-0.229116,-0.725412,0.6475,-6.055,-6.125
133,79128,0.6039,-0.22935999999999998,-0.7259001,0.8575,-6.335,-5.95
134,79226,0.604632,-0.230336,-0.7278521,1.12,-6.335,-5.6875
135,79324,0.601216,-0.233264,-0.72712,1.295,-6.37,-5.6875
136,79422,0.601704,-0.231312,-0.730536,1.54,-6.3875,-5.495
137,79520,0.6009720000000001,-0.23155599999999998,-0.730292,1.8375,-6.4225,-5.285
138,79618,0.60024,-0.23741199999999998,-0.73078,2.03,-6.44,-5.2675
139,79716,0.5987760999999999,-0.232776,-0.7283400999999999,2.1875,-6.4575,-5.1625
140,79814,0.60024,-0.23838800000000002,-0.732244,2.4325,-6.4225,-5.0925
141,79912,0.6007279999999999,-0.23911999999999997,-0.7327321,2.275,-6.3875,-5.355
142,80010,0.5975560000000001,-0.24058400000000002,-0.7315119999999999,1.8725,-6.4225,-5.5475
143,80108,0.599508,-0.23668000000000003,-0.729804,1.47,-6.3875,-5.7925
144,80206,0.6009720000000001,-0.235948,-0.7315119999999999,1.1375,-6.44,-6.02
145,80304,0.599264,-0.233508,-0.7285841,0.875,-6.51,-6.23
146,80403,0.5980439999999999,-0.23911999999999997,-0.732244,0.875,-6.4925,-6.2475
147,80501,0.59902,-0.22814,-0.7332201,0.665,-6.5275,-6.1775
148,80599,0.59536,-0.237656,-0.730536,0.7875,-6.58,-6.125
149,80697,0.597068,-0.233508,-0.7332201,0.6475,-6.58,-6.2825
150,80795,0.6007279999999999,-0.233752,-0.7317560000000001,0.6475,-6.37,-6.265
151,80893,0.5978,-0.234972,-0.7283400999999999,0.6125,-6.475,-6.2475
152,80991,0.5980439999999999,-0.23448400000000003,-0.7320001,0.665,-6.4925,-6.2125
153,81089,0.5975560000000001,-0.233264,-0.7285841,0.6125,-6.23,-6.2125
154,81187,0.596336,-0.237168,-0.730292,0.7175,-6.335,-6.16
155,81285,0.5958479999999999,-0.235948,-0.731268,0.63,-6.265,-6.1425
156,81383,0.5980439999999999,-0.23741199999999998,-0.732244,0.7525,-6.195,-6.2125
157,81481,0.59536,-0.237168,-0.731024,0.6825,-6.09,-6.3525
158,81579,0.5958479999999999,-0.235948,-0.731024,0.595,-6.09,-6.4225
159,81677,0.5975560000000001,-0.23668000000000003,-0.7283400999999999,0.5075,-6.125,-6.545
160,81775,0.5948720000000001,-0.233996,-0.7329760000000001,0.35,-6.09,-6.65
161,81873,0.597068,-0.232044,-0.733708,0.28,-6.0375,-6.6325
162,81971,0.5987760999999999,-0.23424,-0.72956,0.35,-6.1425,-6.685
163,82069,0.59902,-0.23228800000000002,-0.732244,0.28,-6.1425,-6.6325
164,82167,0.5978,-0.234972,-0.730536,0.35,-6.1075,-6.545
165,82265,0.599508,-0.233264,-0.7317560000000001,0.4025,-6.02,-6.51
166,82363,0.595604,-0.232776,-0.7324881,0.4375,-6.09,-6.51
167,82461,0.5978,-0.236192,-0.7300479999999999,0.455,-6.055,-6.4575
168,82560,0.59902,-0.233508,-0.7317560000000001,0.4725,-5.985,-6.4925
169,82658,0.5980439999999999,-0.23253200000000002,-0.731268,0.5775,-5.95,-6.5625
170,82756,0.6029241,-0.235948,-0.735416,0.875,-5.8975,-6.44
171,82854,0.612684,-0.223748,-0.735172,1.6275,-5.3375,-6.1775
172,82952,0.6021920000000001,-0.24326799999999998,-0.7317560000000001,3.1325,-3.325,-6.1775
173,83050,0.619028,-0.223504,-0.7107720000000001,3.5525,-1.225,-6.4225
174,83148,0.6068279999999999,-0.234972,-0.755424,3.7975,-0.77,-6.44
175,83246,0.5787680000000001,-0.245952,-0.735416,2.52,-1.7325,-6.5275
176,83344,0.583648,-0.244732,-0.72346,1.6625,-3.045,-6.58
177,83442,0.5948720000000001,-0.24156,-0.729316,1.05,-3.6925,-6.8425
178,83540,0.594384,-0.24326799999999998,-0.727608,0.735,-4.76,-6.93
179,83638,0.595604,-0.239852,-0.7256560000000001,0.525,-5.2325,-6.9825
180,83736,0.595116,-0.23668000000000003,-0.7288279999999999,0.28,-5.5475,-7.0175
181,83834,0.597312,-0.235704,-0.7288279999999999,0.0525,-5.705,-7.07
182,83932,0.5968241,-0.23546,-0.72712,-0.1225,-5.8625,-7.0525
183,84030,0.5978,-0.23692399999999997,-0.72956,-0.1575,-6.02,-7.175
184,84128,0.60146,-0.233752,-0.729072,-0.1925,-6.1425,-7.28
185,84227,0.5997520000000001,-0.236436,-0.726876,-0.2625,-6.4225,-7.0875
186,84325,0.601216,-0.23228800000000002,-0.729804,-0.42,-6.58,-7.0525
187,84423,0.5997520000000001,-0.233752,-0.726144,-0.4725,-6.7375,-6.93
188,84521,0.596092,-0.232044,-0.7327321,-0.455,-7.035,-6.8775
189,84619,0.5936520000000001,-0.24351199999999998,-0.734684,-0.3325,-7.0175,-6.825
190,84717,0.612928,-0.22326,-0.732244,-0.2625,-6.8425,-6.8075
191,84815,0.6080479999999999,-0.23424,-0.730536,-0.245,-6.4925,-6.7725
192,84913,0.599508,-0.23838800000000002,-0.7232161,0.07,-6.4225,-6.8075
193,85011,0.61366,-0.244488,-0.7476161,1.0325,-4.445,-7.2975
194,85109,0.6463561,-0.197152,-0.7320001,2.4325,-1.4525,-7.2275
195,85207,0.620004,-0.223504,-0.7327321,3.9025,-2.205,-5.7925
196,85305,0.60878,-0.241804,-0.7224841,3.08,-1.6975,-5.81
197,85403,0.59048,-0.23424,-0.73078,1.9425,-1.645,-6.4575
198,85501,0.583648,-0.23253200000000002,-0.7259001,1.855,-1.1375,-6.335
199,85599,0.587796,-0.24326799999999998,-0.7183361,2.6075,-0.665,-6.125
200,85697,0.571204,-0.254004,-0.72712,2.31,-1.575,-6.055
201,85795,0.582428,-0.255468,-0.71736,1.9075,-3.185,-6.4575
202,85893,0.601704,-0.245464,-0.71492,1.2075,-3.92,-6.9825
203,85992,0.595604,-0.24034,-0.7200439999999999,0.3325,-5.1625,-7.4025
204,86090,0.5926760999999999,-0.23838800000000002,-0.721264,-0.385,-6.1425,-7.7175
205,86188,0.6109760000000001,-0.24790399999999999,-0.728096,-0.8225,-6.37,-7.98
206,86286,0.645868,-0.219844,-0.726876,-0.5075,-5.74,-8.085
207,86384,0.630984,-0.214232,-0.7415161,0.6475,-6.16,-7.2275
208,86482,0.6082920999999999,-0.21276799999999998,-0.734928,1.75,-5.18,-6.195
209,86580,0.60146,-0.24082800000000001,-0.724436,2.695,-4.8125,-5.67
210,86678,0.60024,-0.233508,-0.7227279999999999,2.6775,-4.6725,-5.635
211,86776,0.601704,-0.244,-0.721996,2.1875,-4.6375,-5.845
212,86874,0.594384,-0.258884,-0.71858,2.065,-5.0925,-5.81
213,86972,0.5636399999999999,-0.24351199999999998,-0.707356,1.5225,-5.81,-6.1425
214,87070,0.554856,-0.25424800000000003,-0.7378560000000001,0.875,-6.65,-6.825
215,87168,0.59902,-0.246928,-0.708576,-0.315,-5.6175,-8.0325
216,87266,0.6007279999999999,-0.234972,-0.721264,-1.4,-6.2825,-8.4875
217,87364,0.579012,-0.25132,-0.7217521,-1.645,-8.3475,-8.435
218,87462,0.6034121,-0.239364,-0.7198,-3.0275,-8.8725,-9.0825
219,87560,0.6075600999999999,-0.237168,-0.725168,-3.605,-9.5375,-9.1
220,87658,0.635376,-0.23521599999999998,-0.7378560000000001,-3.5175,-9.94,-9.3275
221,87757,0.648308,-0.18178,-0.740296,-2.3625,-7.0175,-9.135
222,87855,0.611464,-0.22082,-0.733952,-0.4025,-7.245,-7.665
223,87953,0.5975560000000001,-0.229116,-0.7300479999999999,-0.035,-6.8425,-6.965
224,88051,0.5873079999999999,-0.22082,-0.72712,0.4725,-6.0375,-6.8075
225,88149,0.593164,-0.24107199999999998,-0.740296,0.9625,-5.4075,-6.5625
226,88247,0.598532,-0.24082800000000001,-0.730536,0.8575,-5.6175,-6.6675
227,88345,0.599508,-0.23009200000000002,-0.7190681,0.42,-5.775,-6.9825
228,88443,0.602436,-0.23911999999999997,-0.7195560000000001,0.315,-5.7575,-7.1575
229,88541,0.60146,-0.233996,-0.729804,-0.035,-6.195,-7.3675
230,88639,0.603168,-0.228384,-0.7266321,-0.5425,-6.8075,-7.455
231,88737,0.6095119999999999,-0.233508,-0.7227279999999999,-0.8400001,-7.035,-7.2625
232,88835,0.605608,-0.239364,-0.727364,-1.0325,-7.2975,-7.14
233,88933,0.6019479999999999,-0.236436,-0.731268,-1.5925,-8.1375,-7.1925
234,89031,0.601704,-0.223992,-0.730536,-2.135,-8.855,-7.14
235,89129,0.6117081,-0.22472399999999998,-0.7327321,-2.1525,-8.8025,-7.1225
236,89227,0.607804,-0.223016,-0.733464,-1.9775,-8.9075,-6.895
237,89325,0.6070720000000001,-0.225456,-0.729072,-1.715,-9.5375,-6.7375
238,89424,0.603168,-0.22033200000000003,-0.7317560000000001,-1.6275,-9.1175,-6.5625
239,89522,0.5917,-0.22691999999999998,-0.7376119999999999,-1.12,-9.135,-6.3525
240,89620,0.597068,-0.229116,-0.7388319999999999,-0.735,-8.7675,-6.2825
241,89718,0.5948720000000001,-0.22448,-0.734196,-0.805,-8.715,-6.3875
242,89816,0.5997520000000001,-0.21813600000000002,-0.733464,-0.595,-8.05,-6.3
243,89914,0.5958479999999999,-0.22277199999999997,-0.7332201,-0.07,-7.2975,-6.195
244,90012,0.5975560000000001,-0.23448400000000003,-0.734928,-0.0175,-6.9825,-6.3
245,90110,0.587064,-0.238632,-0.734928,0.0,-6.3,-6.8775
246,90208,0.607804,-0.216916,-0.73078,-0.0875,-4.9175,-7.6475
247,90306,0.6070720000000001,-0.223504,-0.734196,0.35,-4.3925,-7.4725
248,90404,0.597312,-0.232044,-0.7320001,0.385,-5.1975,-7.1225
249,90502,0.6007279999999999,-0.22472399999999998,-0.7327321,-0.0175,-5.2675,-7.2275
250,90600,0.5987760999999999,-0.22082,-0.735904,0.1575,-5.635,-7.245
251,90698,0.5936520000000001,-0.23009200000000002,-0.7390760000000001,0.28,-5.7575,-7.0175
252,90796,0.558516,-0.22423600000000002,-0.7468840999999999,0.6475,-6.0025,-6.9475
253,90894,0.543876,-0.22691999999999998,-0.757376,1.085,-5.7575,-7.385
254,90992,0.576328,-0.271572,-0.7415161,0.4025,-5.355,-8.26
255,91090,0.5751081,-0.236192,-0.743712,-0.9625,-5.04,-9.4675
256,91188,0.608536,-0.23082399999999997,-0.7317560000000001,-0.77,-3.1675,-10.15
257,91287,0.608536,-0.221552,-0.733464,0.1575,-1.61,-10.01
258,91385,0.607804,-0.21594000000000002,-0.7390760000000001,0.735,-0.7525,-9.9225
259,91483,0.597068,-0.22935999999999998,-0.7315119999999999,1.4,0.6825,-10.2375
260,91581,0.596336,-0.242048,-0.7256560000000001,1.3125,2.45,-11.1825
261,91679,0.61366,-0.22862800000000003,-0.7239479999999999,0.805,3.6575,-12.18
262,91777,0.61854,-0.2074,-0.7285841,0.49,3.0625,-12.425
263,91875,0.6258600000000001,-0.191296,-0.724924,0.7525,2.7125,-11.62
264,91973,0.621224,-0.19861600000000001,-0.726876,1.3125,2.5375,-10.3075
265,92071,0.6080479999999999,-0.223016,-0.740296,1.645,2.2225,-9.415
266,92169,0.60634,-0.22643200000000002,-0.730536,0.63,2.065,-9.345
267,92267,0.617564,-0.223016,-0.720776,0.21,2.66,-9.7825
268,92365,0.623908,-0.217404,-0.711992,-0.315,2.52,-9.9575
269,92463,0.627812,-0.219112,-0.710284,-0.6825,1.61,-9.87
270,92561,0.6258600000000001,-0.22082,-0.710284,-1.1025,-0.0875,-9.73
271,92659,0.6292760000000001,-0.215696,-0.7107720000000001,-1.4175,-1.75,-9.6425
272,92757,0.6314721,-0.209108,-0.708088,-1.5925,-3.15,-9.1
273,92855,0.633912,-0.196176,-0.7093081,-1.68,-4.7775,-8.2075
274,92954,0.62952,-0.19764,-0.71492,-1.4525,-6.5275,-7.2625
275,93052,0.62464,-0.202032,-0.7134560999999999,-1.19,-7.455,-6.125
276,93150,0.627568,-0.2013,-0.7129681,-1.05,-8.2775,-5.3375
277,93248,0.62708,-0.206668,-0.7176041,-0.945,-9.1,-4.6725
278,93346,0.6258600000000001,-0.209352,-0.715164,-0.735,-9.7125,-4.095
279,93444,0.619028,-0.211548,-0.7166279999999999,-0.5425,-10.2725,-3.535
280,93542,0.618052,-0.21276799999999998,-0.719312,-0.28,-10.57,-3.185
281,93640,0.6075600999999999,-0.22277199999999997,-0.7224841,-0.105,-11.095,-3.0975
282,93738,0.612928,-0.22862800000000003,-0.7259001,-0.245,-11.34,-3.29
283,93836,0.612928,-0.22643200000000002,-0.72956,-0.4025,-11.5675,-3.605
284,93934,0.613416,-0.22106399999999998,-0.72712,-0.3325,-11.4975,-3.92
285,94032,0.599508,-0.207644,-0.7317560000000001,-0.035,-11.1825,-3.9375
286,94130,0.61366,-0.21374400000000002,-0.7288279999999999,0.525,-9.0825,-4.34
287,94228,0.627812,-0.20178800000000002,-0.731268,1.155,-7.9625,-4.2
288,94326,0.5919439999999999,-0.21081599999999998,-0.7317560000000001,1.61,-8.89,-3.7275
289,94424,0.586332,-0.22716399999999998,-0.726876,2.415,-5.635,-4.3925
290,94522,0.688812,-0.214964,-0.73078,3.2375,2.8,-6.265
291,94620,0.6993041,-0.183488,-0.712724,3.57,4.935,-6.0375
292,94718,0.651968,-0.186904,-0.7300479999999999,2.87,1.4175,-4.2875
293,94817,0.624152,-0.25498000000000004,-0.724924,2.0475,-0.735,-3.7625
294,94915,0.665144,-0.250344,-0.7176041,-0.385,0.63,-4.5675
295,95013,0.6517241,-0.26961999999999997,-0.711504,-2.38,0.77,-5.775
296,95111,0.5934081,-0.31012399999999996,-0.721508,-4.445,1.3125,-7.0875
297,95209,0.5795,-0.36844,-0.742004,-7.9625,-0.6825,-7.5775
298,95307,0.529724,-0.291092,-0.7378560000000001,-13.9475,-5.5825,-9.8525
299,95405,0.41675200000000007,-0.24424400000000002,-0.793976,-17.955,-6.44,-15.015
300,95503,0.3721,-0.27571999999999997,-0.80886,-17.7625,0.0,-22.12
301,95601,0.35282399999999997,-0.311344,-0.844972,-16.5025,12.32,-31.0275
302,95699,0.371856,-0.377224,-0.9208561,-16.7475,31.2725,-48.055
303,95797,0.478972,-0.581696,-0.9328120000000001,-26.9675,58.6775,-76.8425
304,95895,0.609268,-1.03944,-1.03944,-55.0025,78.0675,-104.2475
305,95993,0.7673800000000001,-0.541924,-1.225856,-93.765,111.1775,-114.345
306,96091,1.055056,-0.6695361,-1.45912,-76.8075,124.8275,-117.7925
307,96189,1.233176,-1.107272,-1.45424,-83.615,146.58,-136.08
308,96287,1.5020639999999998,-1.114104,-1.691164,-103.075,158.2175,-151.34
309,96385,1.646512,-1.084824,-1.7631439999999998,-94.97251,157.7975,-139.2825
310,96483,1.036268,-1.6743279999999998,-1.7531400000000001,-47.6875,143.535,-113.4875
311,96582,0.3965,-1.938824,-1.518412,-35.7175,139.405,-96.1625
312,96680,0.09589201,-1.7690000000000001,-1.655784,-49.315,150.4825,-78.575
313,96778,-0.25351599999999996,-1.671644,-1.8358560000000002,-41.825,150.815,-49.2625
314,96876,-0.733464,-1.658468,-1.8634279999999999,-19.5125,132.79,-12.845
315,96974,-1.163392,-1.468392,-1.8812400000000002,-2.45,109.5325,24.3075
316,97072,-1.405928,-1.1041,-1.955904,12.9675,87.045,57.89
317,97170,-1.492792,-0.8413120000000001,-2.116212,37.31,59.7625,83.1075
318,97268,-1.3917760000000001,-0.7407841,-2.280424,63.6475,23.8525,99.5925
319,97366,-1.374696,-0.663192,-2.3262959999999997,78.12,-24.4825,108.64
320,97464,-1.3115,-0.6009720000000001,-2.31556,80.57,-71.9425,114.3975
321,97562,-1.15534,-0.520452,-2.26554,75.775,-113.75,120.3475
322,97660,-0.9450120000000001,-0.49434399999999995,-2.2130799999999997,68.81,-153.2125,128.7825
323,97758,-0.741028,-0.48214399999999996,-2.124264,58.4675,-190.6975,138.635
324,97856,-0.4392,-0.460916,-2.075708,46.83,-221.4275,150.3075
325,97954,-0.101748,-0.439688,-2.0037279999999997,36.54,-248.7625,163.94
326,98052,0.252052,-0.466772,-1.9400439999999999,28.2275,-271.5475,177.905
327,98150,0.6156119999999999,-0.510936,-1.8234119999999998,19.74,-287.77,190.925
328,98248,0.9335440999999999,-0.527284,-1.6872599999999998,8.295,-296.835,201.985
329,98346,1.265628,-0.531188,-1.572336,-1.9775,-296.0825,212.03
330,98444,1.4959639999999998,-0.5892601,-1.381284,-12.215,-289.975,221.4625
331,98542,1.58844,-0.534848,-1.17852,-26.6875,-276.7625,227.6575
332,98641,1.9197919999999997,-0.472628,-1.1775440000000001,-40.2675,-252.5775,231.8925
333,98739,2.162084,-0.395768,-0.9440360999999999,-50.33,-232.4875,234.6575
334,98837,2.208932,-0.193492,-0.5368,-61.1275,-214.3575,229.005
335,98935,2.13988,-0.039284,0.021228,-65.6075,-184.625,211.855
336,99033,2.189168,0.11712,0.380396,-70.805,-140.63,178.08
337,99131,2.8138080000000003,0.012688,0.42016800000000004,-61.3725,-89.5475,143.745
338,99229,3.2595959999999997,-0.236436,0.558272,-50.505,-66.08,117.6175
339,99327,3.245932,-0.211304,0.7500560000000001,-48.6325,-68.635,88.34000999999999
340,99425,2.965576,-0.008296000999999999,1.153632,-43.3125,-68.425,63.63
341,99523,2.5888400000000003,0.193004,1.501088,-30.24,-58.17,42.42
342,99621,2.315316,0.347456,1.6836,-9.73,-26.1975,26.39
343,99719,2.275544,0.327204,1.5986879999999999,7.56,15.5575,17.045
344,99817,2.357772,0.239852,1.404708,13.8425,59.6925,9.73
345,99915,2.3963240000000003,0.187148,1.176324,7.5775,94.8325,-0.035
346,100013,2.2448,0.183,0.9686799999999999,-3.2375,119.6475,-13.475
347,100111,2.032764,0.196176,0.7376119999999999,-12.845,139.2125,-26.8625
348,100210,1.859768,0.122976,0.493856,-17.6225,153.8775,-36.61
349,100308,-0.060267999999999995,-0.361608,-0.6470880999999999,-21.7875,154.315,-42.28
350,100406,-2.277984,-3.1766360000000002,-7.8219080000000005,-49.175,33.355,-46.7425
351,100504,-6.172712000000001,0.576572,-0.10833599999999999,-75.3725,-3.64,-54.565
352,100602,2.208444,-0.354044,0.7500560000000001,-24.185,297.1675,-165.655
353,100700,7.928536,-0.384056,-0.8615640999999999,-37.1,478.835,-122.2025
354,100798,3.43186,0.09979600000000001,-2.443172,-48.2475,145.775,-56.63
355,100896,0.9669721,1.3066200000000001,-1.42374,-30.8875,143.01,-43.05
356,100994,-0.161528,0.314272,-0.696376,-0.35,97.79,-62.2125
357,101092,-0.016104,-0.200568,-0.321836,41.685,141.75,-47.3375
358,101190,0.8713241,-0.714432,-0.673928,48.09,165.97,-40.8625
359,101288,2.8491880000000003,-2.034472,-1.463756,17.57,157.675,-48.895
360,101386,2.073756,0.40748,-1.374208,-87.78,30.0125,-82.53
361,101484,0.385276,0.625128,-1.18706,-32.7775,5.495,-54.285
362,101582,0.9189040999999999,-0.5551,-0.758352,11.7075,29.995,-27.6675
363,101680,0.679296,-0.552172,-0.534116,5.0225,2.73,-21.1225
364,101778,0.6441600000000001,-0.11467999999999999,-0.844484,0.8575,2.2925,-15.295
365,101877,0.6634359999999999,-0.382592,-0.7046720999999999,2.555,-9.0475,-14.175
366,101975,0.6375721,-0.047336,-0.7978801,-1.785,-6.0375,-13.405
367,102073,0.696864,-0.2196,-0.7044279999999999,3.325,3.08,-8.68
368,102171,0.612928,-0.086132,-0.80276,6.3525,3.395,-3.8325
369,102269,0.6283,-0.18470799999999998,-0.751276,10.92,7.7525,0.6475
370,102367,0.6280560000000001,-0.244732,-0.7259001,15.96,14.1925,1.82
371,102465,0.659044,-0.22667600000000002,-0.7168720000000001,16.835,17.395,1.1725
372,102563,0.638304,-0.264008,-0.7241920000000001,17.9375,17.5175,0.525
373,102661,0.630008,-0.30841599999999997,-0.7046720999999999,17.7275,17.465,0.315
374,102759,0.6451359999999999,-0.30548800000000004,-0.696376,16.625,18.48,-0.455
375,102857,0.630008,-0.31354,-0.7105279999999999,15.225,17.08,-1.8375
376,102955,0.613904,-0.339892,-0.702964,13.9475,14.98,-3.1325
377,103053,0.625128,-0.32086,-0.712724,11.8475,13.3175,-4.27
378,103151,0.624884,-0.292556,-0.7139439999999999,10.4125,13.16,-5.5475
379,103249,0.589016,-0.270596,-0.714676,11.445,15.0325,-6.9475
380,103347,0.590968,-0.318664,-0.7129681,13.7375,19.8975,-8.89
381,103445,0.524356,-0.304512,-0.713212,12.285,24.8675,-12.74
382,103543,0.6280560000000001,-0.193492,-0.740052,10.4125,35.42,-16.835
383,103641,0.638548,-0.27523200000000003,-0.7078439999999999,16.38,40.25,-16.7125
384,103739,0.5502199999999999,-0.266692,-0.7044279999999999,13.7725,44.765,-18.865
385,103837,0.697596,-0.19178399999999998,-0.6497721,7.8925,52.85,-21.7175
386,103935,0.672708,-0.259128,-0.6265921,14.7,60.0075,-20.5975
387,104034,0.655384,-0.262544,-0.652212,12.4425,62.58,-21.7
388,104132,0.692228,-0.215452,-0.59536,12.4425,65.625,-24.0625
389,104230,0.7141881,-0.313052,-0.590724,12.7925,70.28,-27.405
390,104328,0.693204,-0.262056,-0.619028,12.355,69.685,-29.2075
391,104426,0.6973520000000001,-0.230336,-0.59048,12.5475,71.75,-30.7825
392,104524,0.713212,-0.205692,-0.595604,12.53,76.1775,-31.465
393,104622,0.721508,-0.170312,-0.5787680000000001,14.56,79.38,-31.045
394,104720,0.752008,-0.17519200000000001,-0.5504641,16.5025,85.48751,-28.805
395,104818,0.75762,-0.178852,-0.558516,15.505,90.4575,-25.6025
396,104916,0.751276,-0.233996,-0.522892,13.7375,89.6,-23.94
397,105014,0.74298,-0.288896,-0.5172800999999999,13.125,89.8975,-24.395
398,105112,0.735904,-0.304268,-0.533628,12.4425,91.2625,-27.2825
399,105210,0.7283400999999999,-0.325252,-0.533628,11.4625,94.46500999999999,-32.4975
400,105308,0.7300479999999999,-0.32086,-0.527284,11.305,102.4975,-39.0425
401,105406,0.7451760000000001,-0.264252,-0.54656,12.2325,117.075,-47.6525
402,105504,0.780556,-0.1769,-0.563884,11.6025,134.7325,-55.475
403,105602,0.787876,-0.18324400000000002,-0.56852,12.705,151.34,-58.1875
404,105700,0.7954399999999999,-0.165432,-0.561688,13.405,170.6425,-60.1825
405,105798,0.80276,-0.207644,-0.550708,19.67,193.34,-62.0025
406,105897,0.8466800999999999,-0.252052,-0.543632,26.075,217.0,-66.22
407,105995,0.9799041,-0.279136,-0.49580799999999997,33.215,241.2375,-73.7275
408,106093,1.053592,-0.27938,-0.57218,40.985,274.3825,-81.445
409,106191,1.047736,-0.2867,-0.752496,52.5175,319.7075,-88.70749
410,106289,1.032852,-0.11955999999999999,-0.768112,58.5375,384.0025,-99.155
411,106387,1.334192,-0.32086,-0.7361481,60.8125,470.505,-106.435
412,106485,1.9910400000000001,-0.5690081,-0.975512,53.62,549.1675,-118.895
413,106583,2.2069799999999997,-0.202276,-0.671488,56.1925,573.2825,-141.2075
414,106681,2.733288,-0.525088,-0.9142680000000001,92.12001,573.405,-143.2375
415,106779,2.89384,-0.219844,-0.9052401,80.36,567.0875,-137.48
416,106877,3.2713080000000003,-0.7639640999999999,-0.38186,47.04,547.225,-133.175
417,106975,4.750436,-1.272948,-1.374696,38.0625,421.365,-161.735
418,107073,4.778496,-0.9391560999999999,-2.3119,-5.4775,215.18,-69.055
419,107171,3.1461360000000003,-1.23708,-3.591192,-4.83,281.9075,-58.3275
420,107269,1.699216,-0.4023561,-2.092056,-23.765,100.205,-80.2025
421,107367,2.767692,-1.452288,-3.709532,-13.895,10.325,-64.715
422,107465,0.9450120000000001,-0.539972,-2.595184,-36.645,-174.125,-26.18
423,107563,0.255468,-0.45383999999999997,-2.3067759999999997,-33.88,-236.425,-33.67
424,107662,-0.113704,-0.22667600000000002,-1.849032,-24.22,-244.9825,-43.89
425,107760,0.10492,-0.320372,-1.6979959999999998,-18.48,-245.1575,-61.5825
426,107858,0.392596,-0.341844,-1.5494,-12.425,-260.5925,-74.04251
427,107956,0.528748,-0.375272,-1.378844,-5.6875,-297.22,-75.1975
428,108054,0.56608,-0.395768,-1.166808,3.2025,-335.51,-65.5725
429,108152,0.538508,-0.405528,-0.9108521,13.265,-366.7825,-51.765
430,108250,0.5363121,-0.40016,-0.7217521,20.8775,-384.6675,-39.0075
431,108348,0.604876,-0.406016,-0.609268,27.8075,-392.1925,-25.3575
432,108446,0.760304,-0.443104,-0.5653481,34.3525,-396.06,-9.6775
433,108544,0.8723001,-0.486048,-0.534116,39.3225,-401.94,8.085
434,108642,0.969412,-0.536068,-0.540704,41.6675,-406.175,26.425
435,108740,1.138992,-0.59048,-0.580476,41.6325,-408.38,44.9925
436,108838,1.3022280000000002,-0.628544,-0.587796,39.445,-411.18,64.3125
437,108936,1.393484,-0.685884,-0.5799880000000001,38.6575,-416.2375,84.56
438,109034,1.513044,-0.732244,-0.582916,36.3125,-418.1975,104.335
439,109132,1.579412,-0.780312,-0.598288,32.97,-419.79,124.3375
440,109230,1.6818919999999997,-0.821304,-0.666608,28.77,-417.585,144.165
441,109328,1.845372,-0.9376921,-0.7937320999999999,22.47,-411.88,162.96
442,109426,2.0925439999999997,-1.029192,-0.9089001,13.8775,-404.985,181.4925
443,109525,2.334348,-1.04798,-1.006744,3.71,-395.78,202.8425
444,109623,2.658624,-1.101416,-1.158024,-5.5475,-382.7425,226.2225
445,109721,3.180052,-1.19194,-1.259528,-14.455,-370.685,249.025
446,109819,3.71368,-1.239032,-1.130452,-25.375,-370.1425,266.945
447,109917,3.824212,0.11834000000000001,-0.784704,-36.4525,-379.5575,283.64
448,110015,3.625596,-0.242536,-0.12175599999999999,2.5725,-378.7875,316.925
449,110113,3.29034,-0.327204,0.54656,13.4575,-366.205,295.89
450,110211,3.0329200000000003,0.183,0.9860040999999999,-7.42,-327.9675,234.29
451,110309,2.8970119999999997,0.533628,1.44936,-21.875,-268.66,183.6975
452,110407,3.549956,0.8357,1.8226799999999999,-17.01,-215.39,130.9875
453,110505,3.8793559999999996,0.9340321,2.4490279999999998,18.8825,-188.685,67.235
454,110603,3.71368,1.222684,3.153944,75.0575,-173.6,3.4125
455,110701,3.104168,0.893284,3.659268,139.7375,-129.885,-34.475
456,110799,2.6888799999999997,0.025863999999999998,3.551908,159.7575,-55.09,-59.5
457,110897,2.8726119999999997,-0.3965,2.7764759999999997,101.92,37.9925,-83.265
458,110995,3.260816,-0.519476,1.847568,29.4,108.71,-80.08
459,111093,2.872368,-0.5797441,0.9598959999999999,-9.1875,146.125,-48.72
460,111191,1.5462280000000002,-3.0868439999999997,-5.838432,-65.485,115.6225,5.6
461,111289,-4.496919999999999,0.621468,-2.635688,-185.15,52.185,22.0675
462,111387,-2.5500439999999998,0.9335440999999999,0.692472,-97.19501,270.795,-23.31
463,111485,5.828183999999999,3.167608,-0.469944,-74.34,536.1125,-64.715
464,111584,5.7630360000000005,2.124264,-2.826252,35.35,395.2725,-91.35
465,111682,3.769068,0.327936,-2.720112,80.745,252.6125,-80.5875
466,111780,1.851716,-2.28994,-0.7686,88.76,149.03,-111.265
467,111878,0.085156,-2.761348,0.381616,26.3025,104.0375,-74.48
468,111976,0.499712,-0.8884040000000001,-0.5221600000000001,-45.01,148.3825,-46.2
469,112074,2.704496,0.303292,-2.557608,-81.11251,153.615,-53.1825
470,112172,1.951268,0.805932,-0.7922680000000001,-78.0325,48.1075,-57.1725
471,112270,0.4594521,-1.053592,-0.71492,-24.6225,-10.2725,-64.9775
472,112368,0.703696,-0.169824,-0.8483879999999999,-29.1375,10.885,-46.8825
473,112466,0.9145120999999999,0.5121560000000001,-0.9850280999999999,-34.09,14.9275,-43.5575
474,112564,0.690032,-0.345748,-0.69052,-0.105,4.4275,-25.6025
475,112662,0.673196,-0.350628,-0.709796,-0.7525,-4.83,-16.835
476,112760,0.7178479999999999,0.043432,-0.8471681000000001,-7.525,-3.0275,-12.2675
477,112858,0.639524,-0.165432,-0.77104,3.29,3.22,-6.5975
478,112956,0.6009720000000001,-0.130052,-0.773724,9.3275,4.9175,-1.9425
479,113054,0.5734,-0.08808401,-0.8095920999999999,13.895,10.01,1.8025
480,113152,0.537532,-0.325984,-0.7422481,21.21,10.675,4.97
481,113250,0.55998,-0.502884,-0.654896,22.575,12.0575,2.9925
482,113348,0.63562,-0.40967600000000004,-0.685396,18.095,14.21,-3.4125
483,113446,0.6958880000000001,-0.29377600000000004,-0.690764,16.065,16.345,-7.98
484,113544,0.628544,-0.324276,-0.702964,17.535,15.3475,-9.485
485,113642,0.567788,-0.28328400000000004,-0.752984,17.15,14.63,-11.5325
486,113740,0.5858439999999999,-0.24034,-0.734196,17.01,21.315,-13.7375
487,113839,0.673196,-0.196664,-0.733952,19.6525,33.635,-15.015
488,113937,0.638792,-0.07881200000000001,-0.7237041,22.5225,42.8575,-14.875
489,114035,0.6878361,-0.07856801,-0.696864,26.495,54.18,-10.0625
490,114133,0.674416,-0.159088,-0.676124,33.46,61.985,-3.2725
491,114231,0.685396,-0.221796,-0.6182960999999999,34.9125,66.4475,-1.855
492,114329,0.691496,-0.29987600000000003,-0.575596,35.805,71.435,-2.065
493,114427,0.6956439999999999,-0.360632,-0.5694961,34.0725,71.365,-3.2025
494,114525,0.668072,-0.340136,-0.5665680000000001,28.735,68.1975,-5.4775
495,114623,0.6912520000000001,-0.325252,-0.558516,26.705,65.6075,-8.2075
496,114721,0.6956439999999999,-0.258396,-0.5577840000000001,23.8,62.6675,-10.0275
497,114819,0.71858,-0.29743600000000003,-0.5577840000000001,21.875,61.075,-10.36
498,114917,0.685396,-0.35087199999999996,-0.566812,20.6675,59.5525,-11.06
499,115015,0.6734399999999999,-0.375272,-0.582428,19.2675,59.9025,-14.945
500,115113,0.6749041,-0.355996,-0.583648,18.48,62.8425,-20.615
501,115211,0.690764,-0.34648,-0.6009720000000001,18.1475,67.34000999999999,-26.6175
502,115309,0.693692,-0.332572,-0.582184,17.6925,73.465,-30.8525
503,115407,0.7224841,-0.19032000000000002,-0.6107319999999999,15.1375,80.64,-33.9325
504,115505,0.7166279999999999,-0.194224,-0.656848,16.485,94.30751,-32.3575
505,115603,0.690764,-0.200324,-0.6646561,18.9525,111.4575,-30.0825
506,115701,0.7007680000000001,-0.21106,-0.6588,23.38,135.24,-29.015
507,115799,0.733708,-0.22691999999999998,-0.638548,28.0875,163.275,-29.8375
508,115898,0.746396,-0.20374,-0.644404,30.4675,191.7475,-31.0625
509,115996,0.7320001,-0.245464,-0.6317159999999999,35.9975,215.775,-31.955
510,116094,0.769332,-0.262544,-0.6029241,44.4675,241.7275,-36.5925
511,116192,0.820084,-0.283528,-0.6107319999999999,56.875,271.7925,-42.14
512,116290,0.9396440999999999,-0.3538,-0.604632,73.08,305.375,-48.615
513,116388,1.096048,-0.169336,-0.7978801,85.83751,361.3575,-56.665
514,116486,1.1028799999999999,-0.266448,-0.96014,102.165,447.335,-48.965
515,116584,1.14924,-0.615368,-0.90402,101.7625,537.8975,-39.55
516,116682,1.4156879999999998,-0.36282800000000004,-0.413336,92.8025,572.88,-41.1425
517,116780,3.128812,-0.973316,-1.316868,107.45,573.405,-30.135
518,116878,3.2815559999999997,0.09540401,-0.37088000000000004,136.36,573.405,-34.2475
519,116976,2.848944,-0.807884,-0.26766799999999996,141.155,572.845,-56.5075
520,117074,3.8920440000000003,-1.260748,-1.6960439999999999,131.075,508.2,-88.62
521,117172,4.913183999999999,-1.740696,-1.621624,49.5425,360.815,-92.7325
522,117270,3.449672,-1.304668,-3.111488,12.67,295.4175,-25.2875
523,117368,1.678964,-0.307684,-2.8477240000000004,62.5625,237.9125,-65.36251
524,117466,3.1985959999999998,-0.966484,-4.331732,51.485,96.56501,-62.2475
525,117565,2.0647279999999997,-0.549244,-3.476512,87.8675,-86.32751,-61.1275
526,117663,0.887916,-0.61854,-2.720356,71.99501,-258.8775,-52.8675
527,117761,0.23253200000000002,-0.49751599999999996,-2.212104,80.7275,-303.9575,-76.5625
528,117859,0.009028000999999999,-0.546072,-1.7092200000000002,84.5075,-330.7325,-94.045
529,117957,0.19764,-0.718824,-1.5196319999999999,77.9975,-335.335,-110.5125
530,118055,0.400404,-0.784216,-1.30784,62.4925,-352.7825,-116.9875
531,118153,0.612928,-0.7929999999999999,-1.140944,45.43,-378.945,-114.7475
532,118251,0.768844,-0.7478600000000001,-1.027484,34.265,-406.9625,-98.875
533,118349,0.9028,-0.7093081,-0.8903561,33.53,-433.5625,-69.3
534,118447,0.8664440000000001,-0.648796,-0.681248,37.5025,-457.0125,-34.3875
535,118545,0.6912520000000001,-0.6202479999999999,-0.503128,42.8925,-469.665,-0.91
536,118643,0.7278521,-0.592432,-0.44286000000000003,46.725,-464.17,28.525
537,118741,0.86498,-0.605364,-0.41260399999999997,45.185,-449.715,54.145
538,118839,0.9459880999999999,-0.623908,-0.4392,37.3975,-433.58,74.6025
539,118937,1.1070280000000001,-0.620492,-0.5458281,27.09,-416.3775,92.47001
540,119035,1.350296,-0.6219561,-0.736392,16.24,-402.15,110.1975
541,119134,1.6570040000000001,-0.645868,-0.9059721,7.0525,-396.2,128.7825
542,119232,1.867088,-0.6605081,-0.9821,-0.21,-401.6775,147.0525
543,119330,1.9358959999999998,-0.670268,-1.025044,-7.9275,-411.9675,165.3575
544,119428,1.9868919999999999,-0.7078439999999999,-1.0889719999999998,-17.185,-417.1125,181.895
545,119526,2.140612,-0.8657120999999999,-1.2043840000000001,-27.9475,-415.8875,195.5275
546,119624,2.451956,-1.02846,-1.345416,-44.87,-409.64,205.2925
547,119722,2.71938,-1.174128,-1.3649360000000001,-67.2,-401.59,214.34
548,119820,3.114416,-0.9767321,-1.21512,-91.4025,-390.8975,220.9025
549,119918,3.5192120000000005,-0.10492,-1.083116,-99.41751,-380.94,240.38
550,120016,3.5765519999999995,-0.5382640000000001,-0.633668,-64.8375,-376.4775,260.89
551,120114,3.547028,-0.386252,-0.013175999999999998,-56.8225,-371.3675,238.6125
552,120212,3.282532,-0.21374400000000002,0.7483479999999999,-61.985,-347.2525,209.2475
553,120310,2.9797279999999997,0.068076,1.4398440000000001,-71.5925,-302.6625,177.38
554,120408,3.067324,0.6917399999999999,1.8463479999999999,-70.735,-244.895,136.465
555,120506,3.549956,1.1594879999999999,2.179408,-26.8625,-190.365,99.34751
556,120604,4.070896,1.1065399999999999,2.684244,55.2125,-153.685,56.28
557,120702,3.90766,1.0972680000000001,3.312788,121.975,-132.65,0.0525
558,120800,3.0744,0.6314721,3.606564,158.0425,-99.47001,-57.085
559,120898,2.800144,0.07198,3.1585799999999997,139.265,-30.065,-113.89
560,120996,3.115636,-0.21301199999999998,2.2469959999999998,78.1025,46.4275,-148.5575
561,121094,3.324012,-0.22667600000000002,1.395924,33.0225,94.60501,-147.77
562,121193,3.014376,-0.100772,0.9352520000000001,23.45,118.5625,-121.275
563,121291,-1.48596,-0.8744960999999999,-1.50548,38.605,123.655,-87.0975
564,121389,-3.9223,-1.802428,-4.334172,-61.11,-0.035,-26.7925
565,121487,-5.913828,-0.1342,1.1538760000000001,-127.1025,70.8225,-116.2175
566,121585,3.017304,2.368996,0.026108,-53.5325,439.6,-118.965
567,121683,7.060384,0.327936,-1.913936,40.4775,478.1525,-117.285
568,121781,3.7332,0.279868,-2.243336,19.985,269.15,-91.2625
569,121879,1.600396,-0.21716,-1.200236,34.125,218.785,-90.16001
570,121977,1.5823399999999999,-1.3893360000000001,-0.571204,39.97,194.7225,-79.1875
571,122075,2.27042,-1.942484,-1.088484,-0.665,177.4325,-53.375
572,122173,1.8724560000000001,0.7449321,-1.086288,-85.69751,87.1675,-52.3775
573,122271,0.8735200000000001,0.449692,-1.184864,-59.2725,26.4075,-61.5825
574,122369,0.671732,-0.9947881,-0.700036,-9.31,30.03,-50.365
575,122467,1.1651,-0.135176,-0.8754719999999999,-27.0725,-3.4475,-46.55
576,122565,0.752496,0.353556,-0.9494040000000001,-20.405,-7.525,-33.005
577,122663,0.707112,-0.46506400000000003,-0.69906,6.7025,-11.7775,-18.235
578,122761,0.696132,-0.227408,-0.73078,0.42,-7.63,-13.79
579,122859,0.69052,-0.046848,-0.8127641,-1.7325,-1.855,-9.625
580,122957,0.6378159999999999,-0.288652,-0.7500560000000001,7.9975,2.275,-4.8125
581,123055,0.612684,-0.135664,-0.752496,8.575,3.9725,-3.605
582,123154,0.621468,-0.16592,-0.749812,13.3175,11.165,-1.54
583,123252,0.57096,-0.27523200000000003,-0.741028,18.3225,14.0,0.5425
584,123350,0.61854,-0.458232,-0.6344,19.215,17.395,-0.385
585,123448,0.589992,-0.380152,-0.7005239999999999,15.2075,18.13,-4.095
586,123546,0.6675840000000001,-0.3111,-0.677832,12.2675,16.485,-7.0525
587,123644,0.633912,-0.347456,-0.6917399999999999,13.1075,17.045,-8.8025
588,123742,0.6068279999999999,-0.256688,-0.7178479999999999,10.815,18.3225,-12.18
589,123840,0.676612,-0.19861600000000001,-0.71614,11.585,25.6375,-14.0875
590,123938,0.573156,-0.23668000000000003,-0.701256,14.665,29.0325,-14.28
591,124036,0.679296,-0.148108,-0.7317560000000001,16.0825,38.0975,-14.77
592,124134,0.63562,-0.22423600000000002,-0.654652,24.0275,42.49,-13.6325
593,124232,0.68076,-0.139812,-0.677344,26.5825,47.9325,-13.195
594,124330,0.6605081,-0.273768,-0.6168319999999999,29.8025,54.2325,-11.62
595,124428,0.6836880999999999,-0.24424400000000002,-0.6131721,29.3125,55.2825,-11.1475
596,124526,0.687348,-0.194712,-0.5843801,25.795,55.72,-11.1125
597,124625,0.7427361,-0.16811600000000002,-0.5697399999999999,24.1675,53.4975,-8.4175
598,124723,0.733464,-0.17446,-0.539484,23.03,48.6325,-4.34
599,124821,0.721508,-0.20837600000000003,-0.574864,22.015,47.075,0.175
600,124919,0.68076,-0.283528,-0.5997520000000001,21.735,48.72,2.4325
601,125017,0.6414761,-0.300608,-0.638304,21.9625,56.455,1.4
602,125115,0.6107319999999999,-0.3843,-0.627812,23.2575,68.39,-4.06
603,125213,0.623908,-0.349652,-0.59658,21.35,78.9075,-13.265
604,125311,0.6785640000000001,-0.29036,-0.634644,20.0725,89.1975,-20.685
605,125409,0.653676,-0.33916,-0.64782,19.6,96.9675,-25.76
606,125507,0.662216,-0.284748,-0.6573359999999999,16.5725,108.5875,-31.22
607,125605,0.6834439999999999,-0.239608,-0.6709999999999999,16.2575,126.77,-35.2625
608,125703,0.6893,-0.200324,-0.680516,18.725,146.9125,-36.8725
609,125801,0.68808,-0.19959200000000002,-0.671732,23.6775,172.9525,-36.6625
610,125899,0.698816,-0.22935999999999998,-0.6724640000000001,32.76,204.995,-36.6975
611,125997,0.692716,-0.242536,-0.634156,42.7525,232.75,-39.41
612,126095,0.781532,-0.290604,-0.648308,56.2625,261.835,-45.1675
613,126193,0.835456,-0.373564,-0.6749041,67.97,296.065,-54.985
614,126292,0.964044,-0.373808,-0.673196,77.14,336.98,-69.8425
615,126390,1.154364,-0.302804,-0.913292,84.8925,407.9775,-82.5475
616,126488,0.899384,-0.5843801,-0.9230520000000001,100.5025,503.7375,-81.725
617,126586,1.343464,-0.5463161,-0.850096,94.64,567.805,-96.21500999999999
618,126684,2.677412,-0.8764481,-1.464244,75.95,573.405,-117.9325
619,126782,3.064396,-0.762988,-0.8039801,107.2225,573.405,-106.8725
620,126880,3.155164,-0.5875520000000001,-0.39161999999999997,148.54,573.405,-121.625
621,126978,3.242516,-0.9235399999999999,-0.6502600000000001,140.2275,562.3625,-152.1625
622,127076,4.6177,-1.82512,-1.3268719999999998,85.155,446.88,-167.265
623,127174,5.154744,-0.7820199999999999,-2.965088,-29.855,283.885,-43.9075
624,127272,2.757444,-1.2968600000000001,-4.033076,47.2325,288.015,-51.205
625,127370,1.8121880000000001,-0.49995600000000007,-2.662528,23.765,91.9975,-80.955
626,127468,3.188592,-1.363228,-3.9308400000000003,53.76,0.1225,-86.31
627,127566,1.2190239999999999,-0.7671359999999999,-2.72304,33.8975,-211.4175,-57.7675
628,127664,0.3477,-0.678076,-2.293112,29.8025,-292.9325,-79.275
629,127762,-0.18104800000000001,-0.58804,-1.75436,40.985,-309.8375,-94.255
630,127860,-0.059048,-0.693204,-1.5159719999999999,43.7675,-304.7275,-106.155
631,127959,0.35038400000000003,-0.8466800999999999,-1.4332559999999999,39.935,-301.245,-110.1625
632,128057,0.6344,-0.913292,-1.257332,30.205,-326.235,-99.38251
633,128155,0.69784,-0.904508,-1.056764,16.695,-363.5275,-78.47
634,128253,0.577548,-0.8113001,-0.8378960999999999,7.1575,-396.7425,-50.3125
635,128351,0.490928,-0.73444,-0.654652,2.905,-415.8525,-21.7875
636,128449,0.47458,-0.6290319999999999,-0.51484,2.6775,-418.425,5.81
637,128547,0.574132,-0.592432,-0.44896,5.4775,-409.4125,31.2375
638,128645,0.775188,-0.574864,-0.453596,8.2075,-397.4775,53.6375
639,128743,0.912316,-0.606584,-0.498004,9.6075,-390.9675,74.48
640,128841,1.134844,-0.62464,-0.5843801,8.33,-387.7125,95.445
641,128939,1.276852,-0.6080479999999999,-0.682712,2.45,-390.11,115.29
642,129037,1.4091,-0.611952,-0.734684,-4.2175,-394.4325,130.9525
643,129135,1.526708,-0.5743761,-0.743224,-10.2025,-400.19,142.0475
644,129233,1.597712,-0.564616,-0.7754321,-15.3475,-404.32,150.8675
645,129331,1.7455759999999998,-0.58804,-0.8703481,-18.83,-403.83,159.845
646,129429,1.9788400000000002,-0.7415161,-1.017236,-22.225,-402.5,170.905
647,129527,2.277252,-0.9340321,-1.192428,-31.325,-403.235,181.65
648,129625,2.611776,-1.0492,-1.313696,-48.3525,-404.285,194.4425
649,129723,3.040728,-1.131428,-1.3583479999999999,-67.97,-402.85,209.86
650,129821,3.572892,-0.110776,-1.16876,-84.805,-403.55,228.76
651,129919,3.6997720000000003,-0.222284,-0.8991401,-59.255,-403.8475,266.49
652,130018,3.896924,-0.335256,-0.450912,-31.745,-402.8325,274.3125
653,130116,3.776876,-0.550708,0.231312,-31.185,-402.255,243.7225
654,130214,3.405996,-0.00488,0.9618481,-53.83,-379.5925,189.2975
655,130312,3.179808,0.077348,1.7763200000000001,-63.4025,-323.225,147.1575
656,130410,3.212504,0.46506400000000003,2.383148,-63.49,-261.66,98.2275
657,130508,3.5833839999999997,1.070184,2.749392,-29.505,-197.2775,52.22
658,130606,4.105055999999999,1.035048,3.2952199999999996,49.5775,-142.31,26.4775
659,130704,3.898876,0.798856,3.8000559999999997,117.2675,-103.1275,3.4825
660,130802,3.06708,0.22448,3.86984,135.4675,-53.7425,-27.1425
661,130900,2.8713919999999997,-0.139812,3.082208,89.3725,26.495,-63.63
662,130998,3.2783839999999995,-0.264252,1.991772,19.215,106.26,-76.125
663,131096,2.304092,-0.604388,-1.2219520000000001,-30.205,129.185,-61.8975
664,131194,-3.8534919999999997,-0.785192,-2.235528,-44.0825,110.5125,-37.835
665,131292,-2.706448,-0.272304,-0.720532,-25.305,269.4475,-143.0975
666,131390,7.252412,2.000312,0.733952,-79.835,524.58,-177.9225
667,131488,5.155232,1.602592,-2.925072,1.9075,386.295,-157.0275
668,131586,3.2452,0.312076,-2.3018959999999997,69.0725,296.7825,-80.3075
669,131684,1.90808,-0.968924,-1.0079639999999999,58.31,215.0575,-105.2975
670,131782,0.528504,-1.944436,0.08417999999999999,49.945,169.1025,-73.4125
671,131880,2.470012,-2.5800560000000003,-1.951512,4.48,184.3275,-49.1925
672,131978,3.3149839999999995,1.3912879999999999,-0.28426,-103.53,88.6725,-56.84
673,132077,0.17519200000000001,-0.180316,-1.066036,-65.765,-10.99,-82.2675
674,132175,0.556076,-0.35282399999999997,-0.9372040999999999,10.9375,17.3425,-32.7425
675,132273,1.1660760000000001,-0.08662001,-0.6058520000000001,-15.015,-3.6925,-42.7875
676,132371,0.6070720000000001,0.17202,-0.9323239999999999,-11.585,-9.765,-27.93
677,132469,0.785192,-0.477508,-0.641964,-2.17,-9.415,-17.115
678,132567,0.741028,-0.02806,-0.787632,-4.9525,-1.2075,-16.1175
679,132665,0.749812,-0.063196,-0.8025161,1.68,6.9825,-10.885
680,132763,0.6439159999999999,-0.322324,-0.729316,14.595,13.5275,-4.34
681,132861,0.6822239999999999,0.002928,-0.7761640999999999,12.39,13.4925,-4.025
682,132959,0.643428,-0.25132,-0.7320001,21.525,19.145,0.21
683,133057,0.600484,-0.37942,-0.6985720999999999,23.5725,20.4225,0.665
684,133155,0.62464,-0.312076,-0.715896,19.005,21.0175,-3.1675
685,133253,0.667096,-0.288896,-0.705404,15.8375,21.56,-6.02
686,133351,0.625616,-0.326228,-0.6980841,16.835,21.42,-8.33
687,133449,0.544852,-0.290604,-0.7141881,15.68,22.1375,-11.8125
688,133547,0.648308,-0.167384,-0.7239479999999999,14.875,31.36,-13.3875
689,133646,0.599996,-0.221796,-0.7320001,21.0525,39.445,-12.3375
690,133744,0.635864,-0.122732,-0.7324881,24.255,49.4025,-11.2525
691,133842,0.665632,-0.14762,-0.7224841,32.0775,59.2025,-10.535
692,133940,0.650016,-0.162748,-0.6541640000000001,32.7775,71.54,-9.765
693,134038,0.731024,-0.091744,-0.663924,27.58,88.6025,-7.315
694,134136,0.6895439999999999,-0.221796,-0.56608,33.4425,92.48751,-3.0625
695,134234,0.7278521,-0.186904,-0.540704,30.835,98.5075,-1.1375
696,134332,0.733708,-0.265228,-0.509716,32.095,98.385,-0.3675
697,134430,0.721264,-0.30012,-0.5246,29.505,93.08249,-0.315
698,134528,0.72224,-0.287188,-0.505324,26.1975,85.97751,-3.2025
699,134626,0.751276,-0.285968,-0.48214399999999996,24.85,83.0025,-6.65
700,134724,0.772992,-0.323056,-0.493856,21.4725,80.255,-10.08
701,134822,0.7361481,-0.355752,-0.527528,18.9,76.825,-13.0725
702,134920,0.70394,-0.392108,-0.515084,17.4475,78.1375,-18.1125
703,135018,0.720776,-0.373564,-0.515328,17.1325,84.1925,-24.5
704,135116,0.72956,-0.310612,-0.5355800999999999,15.5575,89.53,-30.73
705,135214,0.7224841,-0.234972,-0.5631520000000001,15.19,97.9825,-34.545
706,135312,0.7449321,-0.204716,-0.586088,16.5375,111.8075,-36.365
707,135410,0.748836,-0.161528,-0.605608,20.9125,132.8425,-38.15
708,135508,0.789828,-0.10638399999999999,-0.605364,26.11,158.0425,-38.2725
709,135606,0.8047121,-0.122244,-0.6231760999999999,32.1825,184.3975,-34.9475
710,135704,0.7954399999999999,-0.193736,-0.6202479999999999,37.87,215.25,-32.41
711,135802,0.8552200000000001,-0.28377199999999997,-0.552416,46.9,246.435,-34.6325
712,135901,0.8888921000000001,-0.39528,-0.559736,57.085,277.655,-43.6625
713,135999,1.001132,-0.387228,-0.650016,59.92,322.3325,-58.4325
714,136097,1.057496,-0.288896,-0.7141881,72.555,381.675,-66.9025
715,136195,1.006744,-0.30792800000000004,-0.72712,88.655,459.655,-65.52
716,136293,1.3542,-0.384544,-1.0828719999999998,82.6875,547.4,-69.09
717,136391,2.01178,-0.9616040000000001,-0.868152,77.735,573.37,-70.0875
718,136489,3.127348,-0.71126,-0.6039,87.95501,573.405,-83.825
719,136587,3.188104,-1.298568,-0.774456,113.19,573.405,-120.925
720,136685,2.92434,-0.10004,-0.42114399999999996,97.07251,553.525,-128.94
721,136783,4.281468,-1.368108,-1.304912,80.115,483.07,-176.085
722,136881,5.481216000000001,-1.2395200000000002,-1.6560279999999998,-28.875,298.235,-107.0475
723,136979,3.39404,-1.2968600000000001,-3.094164,20.1425,336.0525,-10.64
724,137077,1.6230879999999999,-0.162992,-1.6653,32.41,177.03,-91.5425
725,137175,3.407948,-1.488644,-4.078704,56.9975,85.1025,-90.00251
726,137273,1.889536,-0.904508,-3.076352,60.9875,-104.0725,-66.8325
727,137371,1.154364,-0.880352,-2.565416,40.215,-252.4375,-74.9175
728,137469,0.406504,-0.735904,-2.068876,34.0025,-296.695,-94.44751
729,137567,0.08906,-0.67588,-1.63602,28.14,-327.495,-105.4725
730,137665,0.22252800000000003,-0.775188,-1.42008,24.2375,-331.765,-116.3225
731,137763,0.4404201,-0.836676,-1.2322,17.6225,-343.3675,-116.655
732,137861,0.6514800000000001,-0.8625401,-1.0553,6.9825,-363.475,-105.8575
733,137959,0.683932,-0.832528,-0.8662001,-2.17,-391.72,-84.33249
734,138058,0.640256,-0.76494,-0.694912,-6.7725,-415.38,-56.735
735,138156,0.5602239999999999,-0.6834439999999999,-0.5453399999999999,-7.91,-429.695,-28.735
736,138254,0.5636399999999999,-0.647332,-0.44164,-4.7425,-431.27,-0.6825
737,138352,0.754204,-0.642452,-0.43188000000000004,-1.8025,-422.59,24.57
738,138450,0.9403761,-0.674172,-0.460672,-2.1175,-414.19,47.775
739,138548,1.086532,-0.718092,-0.48995200000000005,-5.845,-411.495,68.425
740,138646,1.198284,-0.698328,-0.5429,-12.9325,-412.6675,87.6225
741,138744,1.327116,-0.663924,-0.6231760999999999,-19.3025,-413.2625,106.1025
742,138842,1.504748,-0.6980841,-0.640256,-22.4875,-414.225,122.8675
743,138940,1.5906360000000002,-0.736392,-0.652456,-27.545,-417.025,135.38
744,139038,1.7153200000000002,-0.80642,-0.731024,-33.81,-417.8475,145.1625
745,139136,1.957368,-0.9435479999999999,-0.8962120000000001,-41.965,-416.5525,154.0875
746,139234,2.297992,-1.131672,-1.045784,-53.235,-417.585,163.6075
747,139332,2.622512,-1.1289879999999999,-1.107272,-68.88,-420.2625,175.595
748,139430,2.979972,-1.110932,-1.1094680000000001,-77.9625,-418.6175,192.3075
749,139528,3.3611,-1.140456,-0.9686799999999999,-76.055,-417.025,205.2225
750,139626,3.81616,-0.9472079999999999,-0.673928,-67.0775,-417.7075,209.72
751,139724,3.817868,0.093696,-0.361608,-43.96,-419.475,225.1375
752,139822,3.7976160000000005,-0.205204,0.313784,25.1125,-407.4,253.5575
753,139920,3.6509720000000003,-0.309636,0.9189040999999999,55.4925,-386.9425,232.3125
754,140018,3.4240519999999997,0.182756,1.412272,53.83,-344.6975,176.89
755,140116,3.3164480000000003,0.471408,1.942484,53.025,-284.375,138.3375
756,140214,3.423076,0.586332,2.447808,52.4475,-222.705,105.4725
757,140312,3.839096,0.7747001,2.73158,48.1075,-168.28,61.635
758,140410,3.9852519999999996,0.8959681,3.337676,56.1225,-124.8625,23.4675
759,140508,3.3044919999999998,0.681248,3.760528,69.66751,-81.60251,-10.7625
760,140606,2.879444,0.401136,3.482368,68.005,-8.33,-44.8875
761,140705,3.147844,0.148352,2.599088,46.55,80.5875,-59.605
762,140803,2.781844,-0.749812,0.877912,-2.9925,133.21,-42.7875
763,140901,-2.547848,-0.30402399999999996,-2.126948,-141.505,150.64,-19.88
764,140999,-3.423076,-0.29036,-1.581364,-125.3525,269.955,-105.1225
765,141097,5.0403080000000005,3.033896,-0.46311199999999997,-118.3525,511.315,-151.865
766,141195,5.597116000000001,2.892132,-1.536224,-27.0375,432.565,-130.69
767,141293,3.9205919999999996,0.8759601,-3.14272,81.6375,322.7175,-55.4575
768,141391,2.121092,-0.39967199999999997,-1.268312,100.38,219.94,-88.0775
769,141489,0.863516,-2.478796,-0.027083999999999997,92.365,164.92,-73.71
770,141587,3.226656,-3.372812,-2.8018520000000002,36.4875,153.9825,-39.3575
771,141685,1.665788,0.7890961,-0.229848,-106.225,46.69,-40.565
772,141783,0.731024,0.406992,-0.8725440999999999,-73.885,33.25,-81.48001
773,141881,0.686372,-0.656116,-0.837408,-15.925,-7.2975,-53.9875
774,141979,0.9901521000000001,-0.323056,-0.677344,-20.09,-11.3575,-51.695
775,142077,0.571936,0.386008,-0.915976,-31.325,-25.0775,-41.09
776,142175,0.8108121,-0.251564,-0.7605481,-10.6925,-17.675,-27.4925
777,142273,0.761524,-0.07881200000000001,-0.764696,-10.08,-3.99,-18.2175
778,142371,0.6734399999999999,-0.014884,-0.777628,-10.3775,-9.03,-15.89
779,142469,0.661728,-0.207156,-0.760792,-1.855,3.955,-11.5675
780,142568,0.6375721,-0.054167999999999994,-0.771772,0.7,7.0525,-9.94
781,142666,0.582184,-0.019032,-0.8310639999999999,6.0725,12.7575,-5.88
782,142764,0.613416,-0.345992,-0.713212,15.575,17.01,-2.135
783,142862,0.644892,-0.410652,-0.6824680000000001,14.7525,16.8525,-3.745
784,142960,0.660996,-0.21862399999999999,-0.726876,11.095,13.9125,-7.4725
785,143058,0.587064,-0.286456,-0.7356600000000001,11.9525,13.1425,-8.5225
786,143156,0.547048,-0.21276799999999998,-0.7854361,12.9325,14.8925,-9.8875
787,143254,0.6170760000000001,-0.22716399999999998,-0.7712840999999999,15.33,24.43,-11.935
788,143352,0.563884,-0.345016,-0.741028,16.66,35.9275,-15.925
789,143450,0.522404,0.014152000000000001,-0.833016,11.4625,44.8525,-21.6125
790,143548,0.6605081,-0.08344800000000001,-0.7390760000000001,20.195,65.415,-23.03
791,143646,0.638548,-0.05636401,-0.707356,24.08,81.06,-18.9175
792,143744,0.6675840000000001,-0.10004,-0.66368,27.3525,88.97,-15.75
793,143842,0.692472,-0.155916,-0.584868,27.93,91.6125,-12.775
794,143940,0.72224,-0.231068,-0.564616,27.0375,90.59751,-11.48
795,144038,0.696132,-0.28328400000000004,-0.578036,26.1275,86.3625,-11.83
796,144136,0.68686,-0.296704,-0.5690081,24.92,82.8625,-14.7875
797,144234,0.716384,-0.23424,-0.538508,23.2575,80.675,-18.9875
798,144332,0.762744,-0.21472,-0.53192,20.86,78.0675,-22.61
799,144430,0.753472,-0.237168,-0.5292359999999999,19.0225,74.0775,-23.275
800,144529,0.731024,-0.278648,-0.543632,18.2,69.79,-24.15
801,144627,0.7388319999999999,-0.27205999999999997,-0.547536,15.295,69.44,-27.755
802,144725,0.7283400999999999,-0.278648,-0.562664,14.0,73.8325,-32.62
803,144823,0.71736,-0.24863600000000002,-0.593164,12.6,80.815,-38.0975
804,144921,0.7217521,-0.209596,-0.6068279999999999,11.095,92.47001,-43.96
805,145019,0.710284,-0.16958,-0.613416,10.08,107.765,-49.245
806,145117,0.7278521,-0.10345599999999999,-0.631228,8.89,127.3825,-51.9575
807,145215,0.72102,-0.080276,-0.6605081,9.9925,153.8425,-54.495
808,145313,0.7500560000000001,-0.158112,-0.6944241,12.005,185.1675,-55.4225
809,145411,0.7019880000000001,-0.223504,-0.6514800000000001,13.44,215.5825,-60.97
810,145509,0.7417600000000001,-0.221796,-0.6219561,19.7925,248.71,-71.435
811,145607,0.835456,-0.287188,-0.5743761,29.4,283.57,-81.53251
812,145705,0.9699,-0.23058,-0.733464,31.255,329.3325,-93.1175
813,145803,1.21146,-0.15616,-0.8342360000000001,40.9675,391.3875,-100.52
814,145901,1.166808,-0.40381999999999996,-0.892308,45.0975,478.5375,-105.5775
815,145999,1.5799,-0.49898000000000003,-0.8591241,36.8025,558.74,-127.855
816,146097,2.596892,-0.6893,-1.196576,29.4175,573.335,-171.675
817,146195,2.767936,-0.757864,-0.041236,33.6875,573.405,-203.28
818,146293,3.052928,-0.8332601000000001,-1.087264,17.535,573.405,-215.5475
819,146391,2.9707,-0.779092,-0.9762440999999998,29.1025,573.37,-176.225
820,146489,5.619808,-1.3146719999999998,-2.076684,53.5675,490.8575,-171.1325
821,146587,4.80802,-1.19194,-2.461472,20.055,246.8375,-106.3125
822,146686,2.823568,-1.559892,-3.471632,-4.235,259.245,-97.21251
823,146784,1.158024,-0.302804,-2.411696,-30.3975,88.55,-76.16001
824,146882,3.6085160000000003,-1.8038919999999998,-3.85886,34.545,8.015,-34.4575
825,146980,0.864492,-1.044564,-2.539552,15.155,-191.1875,16.66
826,147078,-0.05563200000000001,-0.797392,-2.07888,5.88,-259.7175,6.195
827,147176,-0.328912,-0.6231760999999999,-1.684088,6.4575,-249.41,-5.04
828,147274,-0.073688,-0.559736,-1.551108,2.8525,-240.135,-8.54
829,147372,0.322324,-0.5875520000000001,-1.467416,11.9525,-249.515,-0.3325
830,147470,0.49312399999999995,-0.628788,-1.287588,17.5875,-281.085,19.6875
831,147568,0.51972,-0.621468,-1.103124,18.0775,-315.875,42.4025
832,147666,0.565104,-0.544852,-0.94306,12.88,-342.405,62.44
833,147764,0.6456241,-0.42578,-0.809836,6.5625,-361.2875,79.31
834,147862,0.7537159999999999,-0.328424,-0.7407841,3.675,-375.0425,93.94
835,147960,0.8532681000000001,-0.230336,-0.696864,5.3025,-387.1175,106.3475
836,148058,0.9413520000000001,-0.183976,-0.681492,11.0075,-398.2475,117.1625
837,148156,1.033584,-0.17397200000000002,-0.6707561,15.5225,-407.5225,125.1775
838,148254,1.0826280000000001,-0.17616800000000002,-0.671488,17.4825,-414.785,130.305
839,148352,1.2195120000000002,-0.161528,-0.733952,15.6625,-415.87,134.1025
840,148450,1.402024,-0.145912,-0.8483879999999999,12.145,-416.15,136.7625
841,148548,1.588684,-0.193004,-0.9254921,11.1475,-419.7725,138.3375
842,148647,1.7048279999999998,-0.23082399999999997,-0.9967401,10.7275,-427.805,139.755
843,148745,1.814628,-0.298656,-1.108248,8.435,-433.825,142.8
844,148843,2.035936,-0.4697,-1.26026,4.235,-435.855,147.0525
845,148941,2.32654,-0.6824680000000001,-1.42374,-5.53,-438.1475,150.4825
846,149039,2.613728,-0.826672,-1.5196319999999999,-21.3325,-440.37,154.595
847,149137,2.976556,-0.5694961,-1.4064159999999999,-38.465,-439.4075,163.135
848,149235,3.2957080000000003,-0.167628,-1.161684,-36.12,-433.8775,184.065
849,149333,3.5136,-0.18104800000000001,-0.7869,-8.855,-428.435,194.4075
850,149431,3.8713040000000003,-0.35843600000000003,-0.377224,13.2825,-418.39,182.0
851,149529,3.776876,-0.543144,0.259372,17.255,-405.6675,151.6025
852,149627,3.5938760000000003,0.10492,0.9557479999999999,12.565,-374.8675,112.105
853,149725,3.374276,0.42626800000000004,1.7855919999999998,32.97,-320.04,95.83
854,149823,3.201036,0.803736,2.39486,71.05,-258.7375,86.905
855,149921,3.49652,1.281244,2.592012,101.0625,-190.435,72.4675
856,150019,3.986472,1.176568,3.035848,124.495,-129.85,49.1575
857,150117,3.752964,1.0321200000000001,3.406484,112.315,-92.69751,-11.8125
858,150215,3.165412,0.9232961,3.2798480000000003,81.90001,-45.08,-90.755
859,150313,3.2461759999999997,0.6834439999999999,2.375584,56.7875,19.67,-140.0
860,150411,3.363296,0.466528,1.455216,48.4575,68.18,-142.2575
861,150510,2.871148,0.38503200000000004,0.906216,42.56,91.63,-121.205
862,150608,0.15201199999999998,-0.8957241,-2.471232,6.055,97.7725,-115.5525
863,150706,-3.8549559999999996,-1.809504,-3.4128279999999998,-144.445,2.975,-125.79
864,150804,-5.200616,-2.8857880000000002,0.454084,-187.4775,70.1225,-167.895
865,150902,3.024624,2.218692,1.273192,-254.5725,451.4825,-161.91
866,151000,5.479996,1.535736,-2.047648,-87.78,508.0425,-69.685
867,151098,3.847636,1.685552,-2.706692,-31.7275,394.45,-12.46
868,151196,1.3664,1.6443159999999999,-1.1855959999999999,-56.2275,267.05,-104.195
869,151294,3.450648,-1.6609080000000003,-2.782332,61.67,276.1675,-61.0925
870,151392,2.4199919999999997,-1.009672,-0.36502399999999996,10.5175,175.035,-33.0575
871,151490,0.869616,1.002108,-0.9674601,-103.67,43.5575,-44.59
872,151588,0.987956,-0.630008,-1.059448,-7.6825,25.2525,-37.065
873,151686,1.2190239999999999,-0.9091440000000001,-0.614636,8.9775,23.7475,-44.2925
874,151784,0.47482399999999997,0.716384,-1.013576,-29.96,-14.8225,-31.185
875,151882,0.9918600000000001,-0.656116,-0.58682,10.43,10.6225,-24.1675
876,151980,0.7137001000000001,-0.00122,-0.7283400999999999,-3.08,4.2875,-17.8325
877,152078,0.748104,-0.15006,-0.7256560000000001,-1.015,2.975,-14.4025
878,152176,0.619516,-0.211304,-0.7788480999999999,4.06,4.9875,-9.695
879,152274,0.638792,-0.049044,-0.8049561,3.605,3.745,-7.3325
880,152372,0.637084,-0.054412,-0.7951961,11.0075,10.115,-2.59
881,152471,0.6441600000000001,-0.22252800000000003,-0.7376119999999999,18.9525,18.27,2.2575
882,152569,0.664412,-0.196908,-0.724924,20.125,23.975,3.8325
883,152667,0.66368,-0.129076,-0.7373681,19.6175,29.6275,4.2525
884,152765,0.6566041,-0.32256799999999997,-0.7137001000000001,23.52,37.03,6.79
885,152863,0.61,-0.205204,-0.732244,19.6525,41.16,7.98
886,152961,0.604876,-0.355996,-0.6954,22.96,46.7775,7.63
887,153059,0.587064,-0.266692,-0.7068681,20.5275,52.85,7.3325
888,153157,0.647576,-0.342332,-0.6314721,20.8075,61.4775,5.775
889,153255,0.670024,-0.30012,-0.642452,18.2175,66.4825,2.45
890,153353,0.651968,-0.313052,-0.6097560000000001,20.9125,70.945,-2.87
891,153451,0.691008,-0.271084,-0.641964,22.9425,75.4075,-7.7175
892,153549,0.7034521,-0.27571999999999997,-0.540948,22.68,78.68,-9.17
893,153647,0.7315119999999999,-0.284504,-0.5363121,21.8575,78.9425,-10.2375
894,153745,0.749568,-0.27816,-0.521184,19.67,70.2975,-11.1125
895,153843,0.7522521,-0.25961599999999996,-0.5043479999999999,17.325,61.705,-10.885
896,153941,0.754448,-0.280356,-0.500688,16.3275,55.2475,-10.4125
897,154039,0.7537159999999999,-0.275476,-0.5038600000000001,14.5075,48.3,-10.605
898,154137,0.775188,-0.27205999999999997,-0.5070319999999999,13.0025,43.3825,-10.6575
899,154235,0.74298,-0.30622,-0.533628,11.9525,39.83,-11.445
900,154333,0.71004,-0.357948,-0.544852,11.4975,39.97,-13.6675
901,154431,0.707112,-0.30548800000000004,-0.576572,10.185,44.3275,-19.145
902,154530,0.72102,-0.28377199999999997,-0.5751081,11.41,50.4175,-24.955
903,154628,0.7315119999999999,-0.22252800000000003,-0.582916,12.2675,58.94,-28.2975
904,154726,0.740052,-0.20178800000000002,-0.5968241,13.3525,68.6,-30.1875
905,154824,0.719312,-0.21667199999999998,-0.616588,15.6975,82.1975,-29.8025
906,154922,0.7239479999999999,-0.23692399999999997,-0.632448,18.0425,98.75251,-30.1875
907,155020,0.7327321,-0.221796,-0.6373281,20.5275,119.5775,-31.5525
908,155118,0.739808,-0.23741199999999998,-0.610488,24.465,141.1025,-34.02
909,155216,0.736392,-0.264496,-0.59048,30.2225,164.9025,-39.13
910,155314,0.748836,-0.26474000000000003,-0.5463161,36.3475,191.59,-47.6875
911,155412,0.697108,-0.28157600000000005,-0.5499761,45.465,219.8525,-57.9075
912,155510,0.818376,-0.262544,-0.79422,58.8875,250.6175,-69.52750999999999
913,155608,0.92232,-0.41406800000000005,-0.748836,81.62001,287.245,-75.8275
914,155706,1.071404,-0.303292,-0.7944641,96.0225,343.805,-88.4975
915,155804,1.1570479999999999,-0.398696,-0.9174399999999999,118.195,422.1,-95.9175
916,155902,1.341024,-0.391376,-0.874252,140.735,516.5999,-97.07251
917,156000,2.507344,-0.24351199999999998,-1.464732,167.0025,571.4975,-75.25
918,156098,2.629588,-0.7229720000000001,-0.9901521000000001,178.815,573.405,-34.265
919,156196,3.241784,-0.27718400000000004,-1.015772,221.1475,573.405,2.765
920,156294,3.90522,-0.640012,-0.631228,300.125,526.4174,54.495
921,156392,4.717251999999999,-1.041148,-1.50914,334.3025,307.9475,77.1575
922,156490,3.611444,-0.458232,-2.767204,217.6125,75.04,95.06
923,156588,-0.176656,-1.200236,-2.670092,261.835,34.58,14.8925
924,156687,2.2174720000000003,-1.3912879999999999,-3.65878,236.7575,-40.215,-73.185
925,156785,1.831464,-1.743624,-3.031212,199.8675,-135.275,-81.62001
926,156883,-0.969412,-1.074576,-1.575508,106.5575,-316.9425,-93.31
927,156981,-0.399916,-0.9406200000000001,-1.627724,84.14001,-247.835,-88.62
928,157079,-0.262544,-0.6390359999999999,-1.574288,68.8625,-236.18,-60.6375
929,157177,-0.105652,-0.495076,-1.3383399999999999,78.015,-237.2475,-11.3575
930,157275,-0.30402399999999996,-0.407236,-1.079212,98.84000999999999,-244.9825,46.83
931,157373,-0.19983599999999999,-0.36941599999999997,-1.076284,121.7125,-235.2525,107.38
932,157471,0.365268,-0.30622,-1.22366,119.4375,-212.415,156.485
933,157569,0.9167081,-0.18104800000000001,-1.366644,96.3725,-214.5675,196.2625
934,157667,1.190476,0.124928,-1.437892,67.1475,-245.1575,228.83
935,157765,1.200724,0.611952,-1.3978760000000001,39.585,-286.58,247.38
936,157863,1.134844,1.14436,-1.312964,24.92,-318.01,247.9925
937,157961,1.248792,1.550376,-1.358592,28.1925,-336.875,227.78
938,158059,1.633824,1.7387439999999998,-1.517924,46.55,-349.685,191.3275
939,158157,1.9232080000000003,1.72996,-1.67628,67.795,-377.2825,146.1775
940,158255,2.127192,1.7341080000000002,-1.646756,85.575,-417.6725,99.995
941,158353,1.9459,1.767048,-1.3468799999999999,104.8425,-461.1425,58.03
942,158451,1.863184,1.691652,-1.1468,131.915,-482.3875,25.9175
943,158549,2.117432,1.362496,-1.073112,160.0375,-475.0725,6.7375
944,158647,2.354844,0.9150001,-1.0704280000000002,175.315,-465.3425,0.035
945,158745,2.608604,0.518744,-1.02114,172.0075,-454.9125,-4.0075
946,158843,2.958256,0.179828,-0.785924,150.43,-444.2375,-7.4375
947,158941,3.201524,0.049044,-0.624884,116.935,-433.86,-3.9725
948,159039,3.3835480000000002,0.181536,-0.559004,83.895,-419.9475,12.0925
949,159137,3.455284,0.48678,-0.410652,60.5675,-408.2575,35.315
950,159235,3.2947319999999998,0.8637601,-0.17397200000000002,42.7175,-397.8275,45.045
951,159333,3.10734,1.2056040000000001,0.03782,29.645,-383.0925,25.13
952,159431,3.015108,1.3527360000000002,0.243756,29.7325,-362.2675,-22.6975
953,159530,2.907504,1.3327280000000001,0.508984,49.6475,-343.525,-82.425
954,159628,2.679364,1.297592,0.8818159999999999,90.09000999999999,-321.7725,-133.7
955,159726,2.389004,1.1446040000000002,1.282708,141.96,-289.5025,-167.37
956,159824,2.286036,0.9137799999999999,1.494988,183.9775,-243.775,-191.5725
957,159922,2.44,0.623664,1.5257319999999999,199.605,-194.67,-204.8725
958,160020,2.484408,0.386252,1.575264,187.635,-155.19,-207.7075
959,160118,2.328248,0.262788,1.631872,157.71,-120.715,-205.52
960,160216,2.178432,0.17128800000000002,1.597956,126.3325,-83.66751,-198.905
961,160314,2.089128,-0.009516001,1.448628,100.9575,-44.0125,-186.095
962,160412,1.95566,-0.299632,1.169492,75.95,-5.775,-166.32
963,160510,1.710684,-1.1599760000000001,0.776896,5.46,34.5275,-168.1225
964,160608,0.9547720999999999,-0.666852,-0.7156520000000001,-99.435,56.385,-188.895
965,160706,-0.284504,-4.241452,-2.5466279999999997,-62.6325,49.4025,-151.83
966,160804,-0.7732359999999999,-2.161596,-0.370392,-169.785,66.7975,-174.72
967,160902,0.49849209999999994,1.0523719999999999,-0.053436000000000004,-296.1875,151.6375,-197.085
968,161000,2.883104,1.157292,-1.9959200000000001,-167.8775,260.8725,-109.7425
969,161098,2.958744,1.471808,-2.2835959999999997,-100.73,206.99,-61.88
970,161196,1.5845360000000002,0.34428400000000003,-1.060912,-112.6475,102.375,-94.85
971,161294,0.001952,-0.7705521,-0.604876,-82.775,56.665,-69.965
972,161392,1.149728,0.180316,-1.305644,-95.09501,106.995,-53.5325
973,161490,1.4635120000000001,0.8235001000000001,-0.7734800000000001,-70.4025,101.395,-29.855
974,161588,0.7754321,-0.5314321,-0.551928,-13.2825,2.6075,-29.2775
975,161686,0.754204,0.009272001,-0.7956840999999999,-19.25,10.5,-25.48
976,161784,0.9106081,-0.348188,-0.6566041,-7.2975,-1.2075,-28.665
977,161882,0.6292760000000001,-0.029524,-0.838628,-7.14,-1.75,-28.8575
978,161980,0.6954,-0.23692399999999997,-0.650016,-8.7675,-7.56,-29.2425
979,162078,0.7722600000000001,-0.13176,-0.757864,-2.94,7.3675,-26.845
980,162176,0.64294,-0.248392,-0.7417600000000001,-8.015,-5.5825,-20.685
981,162275,0.6202479999999999,-0.21032800000000001,-0.7417600000000001,-4.0425,0.8225,-14.4375
982,162373,0.762012,-0.139324,-0.72956,0.455,9.73,-9.6775
983,162471,0.6502600000000001,-0.179584,-0.7407841,1.4175,32.55,-7.035
984,162569,0.704916,-0.125172,-0.7332201,2.24,42.84,-3.4125
985,162667,0.677832,-0.07246799999999999,-0.853756,0.3325,60.7425,-1.96
986,162765,0.6197600000000001,-0.21228000000000002,-0.759084,11.1825,62.37,0.315
987,162863,0.58682,-0.369172,-0.734928,18.445,67.7425,0.7
988,162961,0.6405,-0.213988,-0.738588,19.81,77.385,-1.68
989,163059,0.678808,-0.3416,-0.673928,23.905,88.69,-6.125
990,163157,0.68686,-0.22423600000000002,-0.654408,22.2775,92.645,-9.905
991,163255,0.714676,-0.21106,-0.618784,25.3225,96.4425,-12.7225
992,163353,0.731024,-0.244488,-0.5787680000000001,25.2875,97.8075,-13.2475
993,163451,0.7381001,-0.228384,-0.577548,25.9875,96.7575,-12.88
994,163549,0.7422481,-0.24766,-0.5516840000000001,26.5125,94.67501,-12.39
995,163647,0.7661600000000001,-0.288652,-0.5353359999999999,27.4225,93.66,-12.3025
996,163745,0.76372,-0.31524800000000003,-0.502884,26.425,89.53,-14.1225
997,163843,0.7759199999999999,-0.315004,-0.477996,26.18,85.05,-15.5225
998,163941,0.813008,-0.301584,-0.441884,25.48,80.57,-16.73
999,164039,0.828868,-0.278404,-0.435784,23.59,73.045,-17.5875
1000,164137,0.8252079999999999,-0.282796,-0.42748800000000003,21.7,65.50251,-18.1825
1001,164235,0.8396040000000001,-0.265228,-0.41260399999999997,19.74,59.535,-17.605
1002,164333,0.8615640999999999,-0.21472,-0.411384,19.565,53.69,-15.6275
1003,164431,0.861808,-0.20008,-0.4148,18.7075,48.02,-11.9175
1004,164530,0.8520479999999999,-0.250344,-0.42626800000000004,17.8675,43.1725,-8.5225
1005,164628,0.8166680000000001,-0.266448,-0.443104,16.5375,40.3025,-7.245
1006,164726,0.8176439999999999,-0.269864,-0.468724,17.2725,41.755,-6.79
1007,164824,0.808372,-0.277916,-0.47506800000000005,19.11,44.7125,-7.4375
1008,164922,0.8100801,-0.270108,-0.469944,21.3675,49.2625,-9.2575
1009,165020,0.814472,-0.271816,-0.478728,24.01,54.915,-10.7275
1010,165118,0.8052,-0.294996,-0.4697,27.965,61.7925,-11.62
1011,165216,0.8132520999999999,-0.27816,-0.47994799999999993,32.375,70.105,-13.23
1012,165314,0.8398479999999999,-0.240096,-0.48263199999999995,37.1175,79.87,-14.35
1013,165412,0.8425321,-0.241804,-0.484828,43.2425,90.335,-14.07
1014,165510,0.8632719999999999,-0.27205999999999997,-0.47994799999999993,49.1925,103.1275,-13.3
1015,165608,0.9025559999999999,-0.236192,-0.47677600000000003,54.915,116.795,-12.7575
1016,165706,0.9315921,-0.203496,-0.452132,62.6325,130.9525,-9.9925
1017,165804,0.9598959999999999,-0.194468,-0.4392,70.2975,147.98,-4.165
1018,165902,0.990884,-0.20178800000000002,-0.39918400000000004,76.5975,169.645,3.43
1019,166001,1.0199200000000002,-0.171044,-0.430904,82.04,197.3475,10.605
1020,166098,1.081896,-0.12932000000000002,-0.48556000000000005,88.83,229.18,20.895
1021,166196,1.074576,-0.151036,-0.44652,99.96,262.29,36.75
1022,166294,1.118496,-0.072712,-0.532896,119.4025,299.32,58.8175
1023,166392,1.369328,0.022203999999999998,-0.679784,151.0075,336.2275,93.1175
1024,166491,1.6933599999999998,0.085156,-0.9616040000000001,190.68,364.245,148.89
1025,166589,1.9185720000000002,-0.240096,-1.06994,246.82,372.8375,223.8775
1026,166687,2.0252,-0.597068,-0.532896,318.4475,371.5075,275.345
1027,166785,2.070096,-0.4575,-0.16128399999999998,378.875,363.125,293.2825
1028,166883,2.351916,-0.537532,-0.258884,410.4625,337.645,284.445
1029,166981,3.005592,-0.323544,-0.672708,374.4125,281.6625,227.2025
1030,167079,4.334416,-0.39161999999999997,-1.69092,380.87,156.4325,271.0575
1031,167177,2.558584,-0.232044,-1.69092,465.2725,80.0275,296.3275
1032,167275,1.23586,0.20861999999999997,-0.925736,479.78,-9.87,152.8975
1033,167373,3.774924,-1.6582240000000001,-2.117676,429.765,-89.93251,73.2025
1034,167471,2.196732,-1.124352,-1.9532200000000002,337.96,-228.3575,6.2125
1035,167569,1.453264,-0.7041841,-1.61772,229.5825,-315.805,-34.615
1036,167667,0.780068,-0.33013200000000004,-1.497672,170.31,-346.185,-68.4775
1037,167765,0.587064,0.12053599999999999,-1.40178,151.795,-339.9725,-82.8975
1038,167863,0.7259001,0.24034,-1.3912879999999999,158.0775,-330.4175,-78.085
1039,167961,0.8937719999999999,0.255712,-1.350296,172.655,-330.47,-55.5625
1040,168059,0.85156,0.239608,-1.22854,168.4375,-350.945,-30.8875
1041,168157,0.7198,0.39771999999999996,-1.158512,147.9275,-368.62,-12.565
1042,168255,0.77836,0.7056479999999999,-1.1629040000000002,123.795,-376.67,0.0
1043,168353,0.800076,1.014308,-1.14436,106.8725,-380.835,16.065
1044,168451,0.832528,1.3346799999999999,-1.083604,102.6375,-382.2525,36.1025
1045,168549,0.849852,1.51524,-1.050176,106.1725,-383.04,45.6925
1046,168647,0.9059721,1.655052,-1.0906799999999999,103.6175,-380.03,42.21
1047,168746,1.07482,1.7021439999999999,-1.159732,97.9125,-378.315,29.61
1048,168844,1.230492,1.7550919999999999,-1.239276,88.13,-383.8275,7.91
1049,168942,1.468148,1.7692439999999998,-1.356396,85.3125,-395.3425,-15.1025
1050,169040,1.615768,1.658468,-1.354688,91.56,-415.0125,-33.145
1051,169138,1.577216,1.473516,-1.25904,99.96,-437.0625,-46.7425
1052,169236,1.5469600000000001,1.2609920000000001,-1.1751040000000001,101.99,-451.2025,-56.7175
1053,169334,1.553792,1.042124,-1.103856,95.445,-456.8375,-62.4925
1054,169432,1.604056,0.8142281,-1.067744,85.61,-454.44,-60.8475
1055,169530,1.718004,0.547048,-1.050908,74.585,-445.97,-51.835
1056,169628,1.849032,0.28328400000000004,-1.009184,62.335,-436.3275,-37.1875
1057,169726,1.9964080000000002,0.000732,-0.9337880999999999,46.025,-421.435,-19.11
1058,169824,2.441464,-0.279868,-0.894748,21.8225,-400.505,0.56
1059,169922,3.127836,-0.407968,-0.749812,-11.865,-383.32,22.3825
1060,170020,3.72344,-0.4392,-0.353312,-48.0725,-376.7225,48.51
1061,170118,3.8188440000000003,-0.301584,0.335012,-85.26,-373.6075,64.4875
1062,170216,3.5819199999999998,0.035136,1.028948,-115.885,-356.7025,57.645
1063,170314,3.271064,0.357216,1.5469600000000001,-123.83,-318.465,32.9875
1064,170412,3.1354,0.43432,1.891244,-99.7325,-267.89,-2.625
1065,170510,3.3537800000000004,0.484828,2.124752,-51.3975,-217.4025,-45.4125
1066,170608,3.251056,0.410408,2.459764,17.465,-173.7925,-86.555
1067,170707,3.114172,0.333304,2.707668,81.7075,-124.95,-116.0425
1068,170805,2.913116,0.10321199999999998,2.814784,125.195,-74.11251,-131.0575
1069,170903,2.833816,-0.05977999999999999,2.60226,128.3275,-22.085,-139.8075
1070,171001,2.731336,-0.38918,2.228696,104.51,23.345,-140.6825
1071,171099,1.426424,-0.35868,2.084492,62.4925,51.6425,-132.4225
1072,171197,-1.220244,-0.41504399999999997,0.001464,9.835,93.38,-101.7625
1073,171295,-1.979328,-2.615192,-3.102216,39.9,115.8325,-88.11251
1074,171393,1.285392,-0.966484,-0.146644,30.3275,276.6225,-82.7575
1075,171491,5.42534,0.36087600000000003,-1.1777879999999998,-37.4325,357.385,-78.1375
1076,171589,3.4189279999999997,1.090192,-2.0303240000000002,-17.57,207.1125,-37.0475
1077,171687,0.8327720999999999,0.721264,-1.464732,6.3175,121.345,-44.625
1078,171785,-0.319396,-0.280844,-0.18544000000000002,38.535,97.3875,-51.52
1079,171883,0.75762,-0.9145120999999999,-0.67466,46.305,131.495,-39.2175
1080,171981,3.5550800000000002,-0.733952,-2.630076,25.865,111.6675,-27.685
1081,172079,1.12484,0.24107199999999998,-0.390156,-31.08,-5.46,-39.69
1082,172177,0.40357600000000005,-0.5843801,-0.7283400999999999,-2.17,16.275,-31.43
1083,172275,0.833016,-0.028792,-0.8815719999999999,-13.055,9.0475,-26.775
1084,172373,0.930616,-0.022692,-0.7266321,-11.0775,14.77,-26.67
1085,172471,0.570472,-0.239364,-0.749568,-0.07,-3.4125,-12.915
1086,172569,0.7017439999999999,-0.292312,-0.7300479999999999,0.98,-2.8,-10.43
1087,172667,0.7168720000000001,-0.09979600000000001,-0.74054,-2.2575,-1.12,-11.83
1088,172765,0.62708,-0.11467999999999999,-0.7622561,0.14,-1.82,-9.7825
1089,172863,0.5838920999999999,-0.15274400000000002,-0.7664041,0.6475,-4.0425,-7.805
1090,172961,0.628544,-0.143716,-0.7478600000000001,1.225,-3.4475,-6.265
1091,173060,0.64782,-0.203252,-0.7229720000000001,3.955,-1.0675,-5.2675
1092,173158,0.6373281,-0.19251600000000002,-0.7390760000000001,6.02,-0.8575,-3.5
1093,173256,0.637084,-0.23082399999999997,-0.7224841,6.79,0.21,-2.5725
1094,173354,0.60024,-0.275964,-0.7317560000000001,7.455,-0.175,-2.9925
1095,173452,0.587796,-0.300608,-0.720288,6.6675,0.595,-4.7425
1096,173550,0.5814520000000001,-0.32574000000000003,-0.721996,6.475,1.295,-7.0175
1097,173648,0.581208,-0.340868,-0.668072,4.55,0.3675,-10.2025
1098,173746,0.6563601,-0.19276,-0.762988,8.3475,-1.8025,-10.1675
1099,173844,0.559004,-0.18056,-0.782508,-0.56,0.735,-16.8
1100,173942,0.576328,-0.185928,-0.724924,1.1025,0.98,-16.4675
1101,174040,0.659532,-0.10052799999999999,-0.7283400999999999,2.345,8.6625,-17.115
1102,174138,0.661728,-0.20691199999999998,-0.6802720999999999,5.4775,13.405,-16.31
1103,174236,0.62708,-0.2196,-0.6885680999999999,7.0175,14.7,-15.8725
1104,174334,0.642696,-0.18470799999999998,-0.7019880000000001,5.6175,15.5575,-17.71
1105,174432,0.635376,-0.201544,-0.6851520999999999,8.3825,13.8075,-19.2675
1106,174530,0.670512,-0.228384,-0.64782,13.055,13.2475,-21.4725
1107,174628,0.64904,-0.116632,-0.6946681,11.4975,14.7,-23.695
1108,174726,0.639524,-0.17397200000000002,-0.6919841,12.0225,14.4025,-23.2925
1109,174824,0.6378159999999999,-0.12053599999999999,-0.724436,9.065,16.345,-21.7875
1110,174922,0.6673399999999999,-0.15128,-0.6756361,11.165,21.7525,-20.2475
1111,175020,0.6497721,-0.158356,-0.707356,12.18,28.1925,-20.4575
1112,175119,0.6527,-0.16128399999999998,-0.683932,11.8125,31.08,-20.195
1113,175217,0.657824,-0.190808,-0.6810039999999999,11.375,35.0,-19.145
1114,175315,0.648796,-0.229116,-0.6919841,11.62,36.75,-19.0575
1115,175413,0.633424,-0.208864,-0.709796,11.13,40.8275,-20.3525
1116,175511,0.5917,-0.202764,-0.730292,13.0725,49.3325,-22.7325
1117,175609,0.6117081,-0.178608,-0.74664,14.7175,63.35,-26.8975
1118,175707,0.604632,-0.16128399999999998,-0.7600600000000001,17.85,79.2575,-30.1175
1119,175805,0.629764,-0.171776,-0.77104,19.0225,98.1925,-32.4625
1120,175903,0.636596,-0.17397200000000002,-0.7622561,18.34,119.455,-35.14
1121,176001,0.629764,-0.258152,-0.764208,19.1975,144.9175,-39.7775
1122,176099,0.624396,-0.172996,-0.7537159999999999,14.5075,171.15,-48.8425
1123,176197,0.6158561,-0.22667600000000002,-0.7095520000000001,15.1725,199.3075,-57.8025
1124,176295,0.6258600000000001,-0.20837600000000003,-0.7232161,14.4025,228.2175,-68.425
1125,176393,0.604632,-0.23082399999999997,-0.671732,12.74,255.6925,-80.71
1126,176491,0.647576,-0.259128,-0.72712,15.9075,290.745,-94.43
1127,176589,0.7093081,-0.231312,-0.766892,17.2375,326.27,-111.5975
1128,176687,1.0260200000000002,-0.27328,-0.768356,25.165,364.7875,-125.02
1129,176786,1.15046,-0.058316,-0.836676,27.195,419.3875,-132.93
1130,176884,1.468636,-0.293288,-1.057984,46.2,499.8875,-131.495
1131,176982,2.0647279999999997,-0.779092,-1.273924,56.8225,566.51,-147.49
1132,177080,2.840404,-0.354044,-0.90646,49.4725,573.405,-200.235
1133,177178,3.039508,-0.0017079999999999999,-0.776408,64.5575,573.405,-208.0225
1134,177276,2.883104,-0.45018,-1.047492,63.3325,572.705,-155.5225
1135,177374,3.4391800000000003,-1.036268,-1.5323200000000001,86.06501,532.105,-121.1
1136,177472,4.38834,-1.40422,-1.3285799999999999,115.2375,388.8675,-122.15
1137,177570,3.6102239999999997,-1.37616,-2.644472,65.1875,294.56,-141.82
1138,177668,2.016172,-1.099464,-4.043080000000001,58.8,271.845,-103.5825
1139,177766,2.137928,-1.164856,-2.9262919999999997,34.79,74.76,-58.4675
1140,177864,2.30336,-1.71776,-3.503596,46.6375,-25.445,-21.175
1141,177962,0.6505041,-1.2334200000000002,-2.409744,-3.4475,-179.9,22.4
1142,178060,-0.34892,-0.897432,-1.987136,-34.5625,-230.335,20.51
1143,178158,-0.566812,-0.44847200000000004,-1.719956,-48.1075,-217.91,22.715
1144,178257,-0.20252,-0.282308,-1.711904,-41.02,-208.6,27.615
1145,178355,0.142252,-0.226188,-1.678964,-13.685,-219.835,44.765
1146,178453,0.413092,-0.273036,-1.587952,13.3875,-249.41,65.15250999999999
1147,178551,0.49995600000000007,-0.340868,-1.392996,27.195,-287.5425,79.87
1148,178649,0.543388,-0.324276,-1.2261,23.7475,-322.0875,83.93001
1149,178747,0.656848,-0.229848,-1.088484,12.3375,-346.7275,80.5525
1150,178845,0.7332201,-0.09442801,-0.964776,3.64,-366.73,74.935
1151,178943,0.785192,0.000976,-0.8625401,4.8475,-380.9575,71.575
1152,179041,0.8906,0.006344,-0.7978801,14.1225,-389.69,72.2575
1153,179139,1.030168,-0.048068,-0.782752,24.815,-394.66,77.105
1154,179237,1.1807159999999999,-0.134688,-0.799588,30.66,-397.7225,83.2125
1155,179335,1.363716,-0.238144,-0.8108121,30.135,-401.835,88.9525
1156,179433,1.4335,-0.353556,-0.83936,27.44,-406.49,97.02
1157,179531,1.566236,-0.38064000000000003,-0.874984,18.865,-408.7825,101.78
1158,179629,1.6860400000000002,-0.448716,-0.927688,10.2025,-407.19,110.4075
1159,179728,1.842444,-0.523868,-1.02114,2.3975,-404.1275,120.645
1160,179826,2.0295919999999996,-0.6763680000000001,-1.114104,-2.38,-401.66,132.2125
1161,179924,2.269688,-0.9023121,-1.186328,-8.47,-399.8225,144.2525
1162,180022,2.550288,-1.1065399999999999,-1.198772,-19.6875,-396.9,157.99
1163,180120,2.911652,-1.20048,-1.102148,-34.93,-389.795,175.28
1164,180218,3.3913559999999996,-1.217072,-0.9415959999999999,-46.6725,-382.06,194.5825
1165,180316,3.736128,0.093696,-0.740052,-51.1,-380.415,215.9675
1166,180414,3.9345,-0.11248399999999999,-0.188612,-1.6625,-376.075,259.8225
1167,180512,3.823724,-0.357948,0.57218,40.915,-374.0275,267.715
1168,180610,3.499692,-0.22935999999999998,1.1812040000000001,42.8225,-353.1675,228.4975
1169,180708,3.12564,0.335012,1.7216639999999999,24.605,-302.4,181.8075
1170,180806,2.9553279999999997,0.6919841,2.174528,20.2825,-239.435,148.47
1171,180904,3.5672800000000002,1.038952,2.374364,25.165,-169.61,103.81
1172,181002,4.329048,1.1285,2.897744,52.5525,-125.5275,49.8575
1173,181100,3.6478,0.9720960999999999,3.630232,94.08,-111.5275,-4.025
1174,181198,2.824056,0.638548,3.829336,117.2325,-63.665,-46.445
1175,181296,2.770864,0.246196,3.204452,95.55,26.74,-68.3375
1176,181394,3.30986,-0.034648000000000005,2.1777,48.65,111.1075,-64.8375
1177,181492,0.966728,-0.8791321,0.100284,-8.225,142.5375,-40.3375
1178,181590,-2.69742,-2.303604,-5.002488,-210.805,31.7975,-12.915
1179,181689,-5.04104,-0.271816,-0.483364,-236.3725,103.3725,-48.8075
1180,181787,2.002264,3.9989160000000004,0.4453,-186.165,463.05,-99.6975
1181,181885,6.4313519999999995,3.975736,-1.4844959999999998,-113.7675,483.63,-145.8625
1182,181983,3.3974559999999996,1.910032,-2.852116,26.495,282.9225,-55.0375
1183,182081,1.8046240000000002,0.71248,-1.6352879999999999,77.40250999999999,225.1025,-94.08
1184,182179,1.3725,-1.962248,-0.338916,109.095,183.575,-92.435
1185,182277,0.9862479999999999,-2.870172,-0.13151600000000002,82.495,171.36,-34.3
1186,182375,3.3989199999999995,-1.6972639999999999,-2.42414,-32.7775,157.2725,-30.1875
1187,182473,1.288076,1.956636,-0.548756,-99.785,47.8275,-39.165
1188,182571,0.29426399999999997,-0.8466800999999999,-0.9042641,-9.31,17.815,-48.8425
1189,182669,0.83814,-0.5648601,-0.743224,-14.84,13.3525,-37.6425
1190,182767,0.8693719999999999,0.329888,-0.8552200000000001,-23.38,0.98,-36.1025
1191,182865,0.7232161,-0.08417999999999999,-0.791048,-5.2325,-7.63,-23.8175
1192,182963,0.7549359999999999,-0.370392,-0.6512359999999999,1.0325,-6.895,-15.505
1193,183061,0.72712,-0.0122,-0.7951961,-6.37,-8.26,-11.795
1194,183159,0.643428,-0.11712,-0.797392,1.715,-2.1,-7.245
1195,183257,0.6219561,-0.21081599999999998,-0.7439560000000001,7.21,1.61,-4.4275
1196,183355,0.6307401,-0.046848,-0.772016,9.0475,5.5125,-2.8525
1197,183453,0.5958479999999999,-0.12712400000000001,-0.7869,14.805,9.1525,0.665
1198,183551,0.534848,-0.386008,-0.7241920000000001,18.375,9.3625,1.4875
1199,183650,0.600484,-0.45725600000000005,-0.6724640000000001,15.61,11.375,-1.855
1200,183748,0.604144,-0.330864,-0.7168720000000001,12.0925,11.13,-6.2825
1201,183846,0.615124,-0.281088,-0.7190681,10.57,10.465,-8.54
1202,183944,0.5968241,-0.28011199999999997,-0.734196,11.585,13.895,-9.9575
1203,184042,0.60024,-0.18544000000000002,-0.7612800999999999,11.9525,16.695,-11.1125
1204,184140,0.659776,-0.13151600000000002,-0.763476,13.615,22.54,-11.0425
1205,184238,0.670024,-0.142496,-0.7232161,17.8675,24.7625,-10.5875
1206,184336,0.5214281,-0.17128800000000002,-0.668072,22.715,29.925,-10.465
1207,184434,0.6946681,-0.112728,-0.697596,23.135,42.5425,-8.855
1208,184532,0.638792,-0.312808,-0.6273241,28.5775,46.725,-6.93
1209,184630,0.6763680000000001,-0.203008,-0.6317159999999999,21.91,44.695,-7.8225
1210,184728,0.692472,-0.269864,-0.594384,21.1575,42.1925,-7.77
1211,184826,0.652944,-0.27084,-0.6456241,18.305,37.205,-8.0325
1212,184924,0.629764,-0.283528,-0.642696,17.22,35.3325,-10.395
1213,185022,0.687104,-0.2318,-0.6141479999999999,15.505,36.8025,-13.4575
1214,185120,0.735904,-0.189832,-0.6156119999999999,14.56,36.9075,-13.72
1215,185218,0.72224,-0.2013,-0.6095119999999999,13.3,34.125,-11.8825
1216,185317,0.6832,-0.244732,-0.630984,12.8625,31.6575,-9.5025
1217,185415,0.662704,-0.26474000000000003,-0.6378159999999999,13.335,34.055,-10.01
1218,185513,0.636596,-0.27938,-0.667828,13.405,39.9,-13.4225
1219,185611,0.634156,-0.293288,-0.671732,13.7375,47.8975,-17.7975
1220,185709,0.6480640000000001,-0.23448400000000003,-0.69296,13.79,57.33,-22.225
1221,185807,0.6390359999999999,-0.220088,-0.7137001000000001,14.84,68.285,-24.92
1222,185905,0.6319600000000001,-0.21106,-0.741028,16.94,82.25,-27.055
1223,186003,0.641232,-0.242536,-0.7427361,20.405,102.6725,-29.855
1224,186101,0.6505041,-0.173728,-0.7373681,21.6475,125.4575,-32.9
1225,186199,0.659288,-0.185684,-0.7300479999999999,26.0925,151.095,-33.635
1226,186297,0.658312,-0.239608,-0.708332,30.1175,178.0975,-35.21
1227,186395,0.6653880999999999,-0.22326,-0.6646561,31.745,206.5875,-42.0175
1228,186493,0.7224841,-0.21276799999999998,-0.640744,34.09,232.3125,-50.435
1229,186591,0.6954,-0.234972,-0.638304,42.7,257.8275,-58.065
1230,186689,0.739808,-0.27694,-0.7007680000000001,53.5675,288.7325,-68.4425
1231,186788,0.9247601000000001,-0.315492,-0.7171161,63.315,327.145,-81.5675
1232,186886,1.0553,-0.292312,-0.8815719999999999,75.1275,384.2825,-95.865
1233,186984,1.153144,-0.358192,-1.0345600000000001,93.52,471.2225,-106.855
1234,187082,1.45058,-0.754204,-1.078968,101.115,555.7825,-113.68
1235,187180,2.4927040000000003,-0.779824,-1.236104,92.69751,573.405,-133.6825
1236,187278,3.166144,-0.708332,-0.599996,107.135,573.405,-147.105
1237,187376,3.005348,-0.425292,-0.5665680000000001,134.19,573.405,-140.77
1238,187474,3.0258439999999998,-0.38503200000000004,-0.41113999999999995,133.665,557.62,-116.4275
1239,187572,3.3920879999999998,-1.4574120000000002,-1.2580639999999998,104.5975,449.995,-124.6525
1240,187670,4.916844,-0.84546,-2.6349560000000003,23.1875,312.83,-69.3525
1241,187768,3.0634200000000003,-0.8054439999999999,-3.0026639999999998,73.22,312.585,-69.1425
1242,187866,1.9132040000000001,-0.597312,-1.713124,85.2075,175.98,-62.6325
1243,187964,2.357284,-1.742404,-3.73564,56.63,55.125,-67.8475
1244,188062,1.603568,-0.9994241,-2.915556,37.87,-111.6325,-46.97
1245,188160,0.640012,-0.84424,-2.501976,1.75,-226.8175,-42.1575
1246,188258,-0.17763199999999998,-0.520452,-1.9895759999999998,-4.095,-264.1975,-43.9075
1247,188357,-0.361608,-0.46433199999999997,-1.6513919999999997,1.155,-268.485,-39.445
1248,188455,-0.028548,-0.514596,-1.562576,8.9425,-256.9,-34.0725
1249,188553,0.380884,-0.5551,-1.491084,13.825,-269.0975,-19.53
1250,188651,0.594384,-0.5614439999999999,-1.369328,12.95,-303.03,2.0475
1251,188749,0.630252,-0.509472,-1.169736,10.08,-342.3,25.6725
1252,188847,0.58316,-0.401624,-0.9625799999999999,5.005,-374.92,44.7475
1253,188945,0.548024,-0.276208,-0.781776,1.7675,-394.345,57.19
1254,189043,0.597312,-0.190076,-0.665144,1.5225,-402.08,63.1925
1255,189141,0.739564,-0.12688,-0.6109760000000001,3.6925,-403.06,64.27750999999999
1256,189239,0.9272,-0.10345599999999999,-0.648796,8.995,-402.6925,63.6825
1257,189337,1.152168,-0.091012,-0.707356,16.345,-403.5675,65.59
1258,189435,1.2641639999999998,-0.16348,-0.732244,24.01,-408.625,71.2775
1259,189533,1.3856760000000001,-0.251808,-0.7612800999999999,27.895,-413.525,77.7525
1260,189631,1.547936,-0.3172,-0.8081281,25.6725,-419.51,82.32
1261,189729,1.641632,-0.363804,-0.8398479999999999,21.5425,-424.48,88.83
1262,189827,1.761436,-0.412116,-0.9128040000000001,17.4125,-424.8825,98.91001
1263,189925,1.91052,-0.510936,-1.025288,13.195,-422.03,112.735
1264,190023,2.125972,-0.7315119999999999,-1.149972,7.2625,-417.585,128.94
1265,190121,2.380464,-1.053104,-1.190964,-6.44,-413.5425,143.675
1266,190220,2.6993720000000003,-1.297348,-1.1629040000000002,-32.8825,-406.945,158.0775
1267,190318,3.139304,-1.4374040000000001,-1.056764,-67.3925,-395.0975,174.125
1268,190416,3.472364,-0.28377199999999997,-0.8847440999999999,-97.4225,-386.5575,194.775
1269,190514,3.7634559999999997,-0.447984,-0.5158159999999999,-75.0225,-374.5875,235.0075
1270,190612,3.897412,-0.668072,0.10931199999999999,-50.6975,-371.665,242.4275
1271,190710,3.590704,-0.6912520000000001,0.9201241,-48.125,-361.3575,213.3425
1272,190808,3.251544,-0.050752,1.585756,-61.5125,-321.93,168.945
1273,190906,2.995832,0.3294,2.141588,-46.0075,-261.1175,145.6
1274,191004,2.922876,0.7610359999999999,2.3746080000000003,-6.265,-192.1325,124.915
1275,191102,3.9393800000000003,1.035292,2.5754200000000003,46.1825,-120.96,95.1125
1276,191200,4.0801680000000005,0.90646,3.196156,112.6825,-93.905,51.4675
1277,191298,3.136132,0.5119121,3.5389760000000003,155.645,-78.995,-7.63
1278,191396,2.673508,0.231068,3.3081519999999998,139.44,-16.2925,-64.7675
1279,191494,2.762812,-0.188856,2.48148,89.145,68.5125,-90.58001
1280,191592,2.502708,-2.2079560000000003,-0.499468,-41.7375,135.2575,-84.7175
1281,191690,-1.169736,-0.18788,-3.036824,-258.615,130.5325,-90.8425
1282,191789,-2.230404,0.180072,-2.221132,-174.965,229.18,-61.845
1283,191887,2.193316,3.3750080000000002,-0.12761199999999998,-149.2575,422.94,-63.595
1284,191985,4.725304,3.269112,-1.475468,-42.98,408.3975,-84.84
1285,192083,3.4733400000000003,1.981768,-2.6232439999999997,61.67,287.7525,-45.045
1286,192181,2.142076,-0.07686,-1.569652,126.455,207.9175,-78.995
1287,192279,0.9796600000000001,-2.547604,-0.005856,127.47,150.2725,-77.1575
1288,192377,0.6729520999999999,-2.8496759999999997,-0.105896,79.2575,155.75,-25.34
1289,192475,2.129876,-1.8053560000000002,-1.303204,-45.5875,158.55,-44.73
1290,192573,2.535404,2.205028,-0.847412,-120.54,59.0625,-62.8775
1291,192671,0.254004,-0.444812,-1.1468,-30.4675,2.0475,-56.5075
1292,192769,0.555588,-0.764452,-0.6895439999999999,2.905,5.1975,-37.8875
1293,192867,0.889136,0.122732,-0.8437520000000001,-31.71,-7.1225,-43.75
1294,192965,0.6851520999999999,0.294996,-0.9450120000000001,-20.4925,-12.075,-31.815
1295,193063,0.716384,-0.23472800000000002,-0.756888,-5.6875,-17.115,-20.3525
1296,193162,0.7190681,-0.032695999999999996,-0.750544,-6.5275,-13.65,-13.755
1297,193260,0.693692,0.030012,-0.8147161,-1.855,-6.615,-7.77
1298,193358,0.602436,-0.149328,-0.780556,8.4875,-2.695,-1.61
1299,193456,0.624396,-0.158112,-0.738588,12.7575,2.94,0.875
1300,193554,0.592432,-0.130296,-0.772748,15.085,6.16,2.4675
1301,193652,0.514596,-0.195932,-0.818376,15.68,6.65,2.59
1302,193750,0.550708,-0.4514,-0.6939361,17.045,9.2925,-0.0175
1303,193848,0.5975560000000001,-0.467504,-0.6736840000000001,13.44,12.6525,-6.3875
1304,193946,0.598288,-0.28987199999999996,-0.7195560000000001,8.5575,10.9725,-12.8625
1305,194044,0.650016,-0.172264,-0.7522521,7.56,11.62,-15.6275
1306,194142,0.530212,-0.22643200000000002,-0.774944,11.1475,13.125,-14.945
1307,194240,0.624884,-0.16811600000000002,-0.7671359999999999,10.9375,20.72,-15.61
1308,194338,0.6317159999999999,-0.13639600000000002,-0.765184,11.76,26.9325,-16.415
1309,194436,0.5614439999999999,-0.19959200000000002,-0.7373681,15.3825,29.4,-17.4475
1310,194534,0.548268,-0.065148,-0.754448,14.98,38.9375,-19.5825
1311,194632,0.708088,-0.07490801,-0.692472,15.575,56.525,-18.41
1312,194731,0.6810039999999999,-0.17568,-0.648552,21.6825,56.5425,-14.7875
1313,194829,0.676124,-0.208132,-0.6497721,20.51,55.755,-13.1075
1314,194927,0.657824,-0.258884,-0.64172,20.58,52.955,-12.74
1315,195025,0.6653880999999999,-0.271328,-0.638304,18.865,52.6925,-15.0675
1316,195123,0.6675840000000001,-0.27205999999999997,-0.6019479999999999,17.535,51.6775,-19.4075
1317,195221,0.7171161,-0.19885999999999998,-0.58682,15.0675,50.7325,-22.7325
1318,195319,0.71614,-0.169336,-0.62342,13.3875,49.1575,-22.2775
1319,195417,0.698816,-0.195932,-0.634644,11.55,46.3925,-20.02
1320,195515,0.661972,-0.243024,-0.659776,11.095,47.74,-19.845
1321,195613,0.6505041,-0.264496,-0.6734399999999999,10.78,54.25,-22.75
1322,195711,0.6573359999999999,-0.227408,-0.662216,10.92,64.5925,-27.475
1323,195809,0.653676,-0.233996,-0.7088201,11.2,76.5275,-32.6725
1324,195907,0.6563601,-0.257176,-0.70638,10.395,88.97,-37.6425
1325,196005,0.639524,-0.196908,-0.7093081,7.3675,104.5625,-44.03
1326,196103,0.663924,-0.14762,-0.69052,7.385,125.0025,-49.175
1327,196201,0.6688041,-0.12712400000000001,-0.685396,8.1375,148.7675,-51.6775
1328,196299,0.6851520999999999,-0.085888,-0.677832,7.875,172.025,-53.2175
1329,196398,0.705404,-0.118584,-0.675148,8.365,197.33,-54.215
1330,196496,0.686128,-0.19397999999999999,-0.6558721,13.895,226.065,-56.4025
1331,196594,0.720288,-0.20496,-0.635864,20.16,254.345,-62.2475
1332,196692,0.765672,-0.23424,-0.61366,29.365,282.6775,-71.7325
1333,196790,0.9015799999999999,-0.229604,-0.584136,40.4775,313.88,-81.77750999999999
1334,196888,1.129476,-0.17763199999999998,-0.862784,43.47,362.2675,-91.4375
1335,196986,1.273192,-0.478728,-0.9940559999999999,57.365,431.55,-97.2475
1336,197084,1.328092,-0.454816,-0.8693719999999999,58.3975,519.1725,-113.7325
1337,197182,1.8788,-0.274744,-0.9525761,44.3625,569.625,-144.69
1338,197280,2.849432,-0.582184,-0.9459880999999999,45.29,573.3875,-156.975
1339,197378,3.1512599999999997,-0.5885281,-0.806908,55.9825,573.405,-161.6125
1340,197476,2.7328,-0.653676,-0.639768,54.7225,573.3875,-149.7825
1341,197574,3.5367800000000003,-0.465308,-1.1812040000000001,32.025,548.765,-142.1875
1342,197672,4.962228,-1.547204,-1.328336,58.625,400.365,-145.1275
1343,197770,4.003552,-1.3827479999999999,-2.6718,-12.3375,255.255,-118.755
1344,197868,1.884168,-1.0243120000000001,-3.83446,-5.565,282.9575,-102.8475
1345,197966,2.561756,-0.597068,-3.11832,6.02,120.505,-57.2775
1346,198065,2.38388,-1.350052,-3.8198199999999995,45.01,-0.4725,-38.9375
1347,198163,1.138016,-0.9535521,-2.722552,8.9425,-176.4875,-15.0325
1348,198261,0.33916,-0.7549359999999999,-2.3711919999999997,1.0325,-244.37,-26.9675
1349,198359,-0.18446400000000002,-0.443592,-1.8941720000000002,5.7925,-270.6375,-29.0675
1350,198457,-0.036112,-0.45018,-1.7158080000000002,21.175,-270.55,-28.1575
1351,198555,0.45261999999999997,-0.514108,-1.6623720000000002,44.2575,-277.62,-11.7075
1352,198653,0.8486319999999999,-0.653188,-1.4957200000000002,59.185,-311.8675,15.855
1353,198751,0.850096,-0.7166279999999999,-1.2439120000000001,58.66,-363.335,44.4675
1354,198849,0.795928,-0.660996,-1.013088,46.515,-403.8125,68.565
1355,198947,0.7954399999999999,-0.545096,-0.8298440999999999,28.455,-429.7825,85.12
1356,199045,0.8647360000000001,-0.406748,-0.6802720999999999,14.1575,-444.92,96.79251
1357,199143,0.9032879999999999,-0.30353600000000003,-0.5543680000000001,7.315,-452.1125,106.19
1358,199241,0.9552601000000001,-0.236192,-0.543144,6.2125,-449.9425,112.665
1359,199339,1.0967799999999999,-0.21618400000000002,-0.5917,10.36,-443.625,119.1575
1360,199437,1.2378120000000001,-0.261324,-0.6463561,13.405,-436.2225,126.525
1361,199535,1.440332,-0.3477,-0.712724,12.845,-430.675,132.23
1362,199633,1.601372,-0.44066400000000006,-0.768356,6.5975,-429.485,135.59
1363,199731,1.6994599999999997,-0.46042799999999995,-0.81374,-4.62,-430.9725,137.3575
1364,199830,1.7692439999999998,-0.46726,-0.8701040000000001,-13.86,-430.7625,143.15
1365,199928,1.8346360000000002,-0.479216,-0.955992,-20.195,-426.4925,153.0725
1366,200026,1.9951880000000002,-0.601216,-1.094096,-24.29,-418.6,165.3225
1367,200124,2.2143,-0.833992,-1.19682,-31.4125,-409.605,176.26
1368,200222,2.394128,-1.057984,-1.238056,-47.04,-398.3525,182.5425
1369,200320,2.793556,-1.127768,-1.149728,-69.335,-380.38,185.0275
1370,200418,3.212504,-0.172264,-1.027728,-85.12,-364.3325,196.6475
1371,200516,3.6734199999999997,-0.518988,-0.7451760000000001,-55.65,-351.7325,219.8175
1372,200614,4.004283999999999,-0.69418,-0.242048,-36.785,-352.0125,211.8375
1373,200712,3.721,-0.7176041,0.542656,-36.5575,-354.375,183.225
1374,200810,3.260816,-0.07978801,1.261236,-45.5,-332.115,149.45
1375,200908,2.939712,0.312564,1.8712360000000001,-29.12,-280.175,131.46
1376,201006,2.906772,0.6456241,2.140612,14.0175,-216.5975,115.395
1377,201104,3.6865959999999998,0.958432,2.2955520000000003,62.4575,-151.7425,94.115
1378,201202,4.074555999999999,0.85156,2.913116,100.7475,-112.805,61.985
1379,201300,3.2574,0.7224841,3.4667519999999996,108.2375,-95.6725,-3.4475
1380,201398,2.729628,0.638548,3.375496,83.8425,-37.66,-74.165
1381,201496,3.009496,0.338672,2.649352,51.2225,46.025,-107.975
1382,201594,3.41722,0.082716,1.7611919999999999,26.6875,108.36,-102.8825
1383,201692,0.8805960999999999,-0.5353359999999999,0.493612,11.5325,132.72,-74.235
1384,201790,-0.330376,-2.7008360000000002,-4.470324,-103.9325,58.275,-42.665
1385,201888,-4.59086,-0.15982000000000002,-2.133048,-192.535,69.195,-83.3875
1386,201986,0.29792399999999997,1.7463080000000002,0.561932,-97.1775,388.4825,-100.0125
1387,202084,6.0004480000000004,2.645204,-1.1263040000000002,-103.04,480.0425,-151.83
1388,202182,3.937672,1.607472,-2.618608,7.5425,291.3225,-79.66001
1389,202281,2.021784,0.6573359999999999,-1.8573279999999999,63.0175,218.75,-60.0425
1390,202379,1.227808,-0.8420440999999999,-0.7671359999999999,72.835,171.5175,-81.55001
1391,202477,0.686616,-2.22894,-0.157136,82.88,162.05,-38.955
1392,202575,1.073112,-1.719468,-0.635864,13.1425,165.8125,-34.8075
1393,202673,2.2631,-0.7259001,-1.676768,-67.7425,149.45,-54.6175
1394,202771,1.701656,1.5701399999999999,-0.450912,-89.25,56.4375,-53.025
1395,202869,0.4697,-0.562908,-1.049444,-15.575,8.645,-49.9975
1396,202967,0.7478600000000001,-0.642696,-0.742004,-0.35,23.52,-43.5925
1397,203065,0.8113001,0.5002,-0.8866961,-20.965,6.1425,-39.2875
1398,203163,0.7556681,-0.015372,-0.7500560000000001,-1.68,-1.505,-26.4775
1399,203261,0.735904,-0.401624,-0.710284,9.52,-4.795,-16.0825
1400,203359,0.673196,0.087352,-0.839116,-5.0225,-10.4125,-12.285
1401,203457,0.681248,-0.14713199999999999,-0.768844,2.6075,-3.2025,-8.3125
1402,203555,0.627812,-0.13908,-0.754204,7.245,-0.5775,-5.145
1403,203653,0.658068,-0.009516001,-0.7832399999999999,9.31,5.5825,-2.135
1404,203751,0.5917,-0.20008,-0.778604,16.765,9.9225,1.715
1405,203850,0.5843801,-0.341356,-0.71248,19.3375,10.08,2.45
1406,203948,0.61488,-0.363072,-0.7046720999999999,17.4475,11.7075,-0.63
1407,204046,0.635376,-0.262544,-0.720776,13.86,9.8525,-4.6375
1408,204144,0.6224441,-0.28181999999999996,-0.724924,13.02,7.805,-7.3675
1409,204242,0.574132,-0.238632,-0.76494,13.2475,6.055,-9.135
1410,204340,0.5968241,-0.20837600000000003,-0.7598161,12.845,9.17,-10.36
1411,204438,0.642452,-0.133468,-0.76494,13.0025,15.47,-10.7275
1412,204536,0.648796,-0.130296,-0.7451760000000001,16.345,19.18,-9.975
1413,204634,0.60024,-0.067832,-0.7483479999999999,19.915,23.765,-9.275
1414,204732,0.607804,-0.10931199999999999,-0.721264,23.5725,36.33,-7.4725
1415,204830,0.665632,-0.15176800000000001,-0.6944241,21.7175,51.415,-5.25
1416,204928,0.6314721,-0.205204,-0.660996,25.9525,54.915,-4.4625
1417,205026,0.6695361,-0.248392,-0.625372,24.045,56.1575,-5.25
1418,205124,0.68076,-0.278404,-0.587796,22.715,52.7275,-6.4925
1419,205222,0.6600201,-0.292068,-0.6182960999999999,20.3175,51.52,-9.1
1420,205320,0.6602640000000001,-0.24668400000000001,-0.6224441,18.3925,51.1,-12.1975
1421,205418,0.707356,-0.185928,-0.58804,17.01,51.52,-14.0875
1422,205516,0.720532,-0.21008400000000002,-0.61854,16.2575,51.24,-13.2825
1423,205614,0.661484,-0.264252,-0.635376,16.625,49.07,-12.4075
1424,205713,0.635376,-0.288164,-0.671488,16.3975,52.3425,-15.225
1425,205811,0.623664,-0.272304,-0.6653880999999999,16.52,59.64,-20.5275
1426,205909,0.665876,-0.237656,-0.6566041,17.5175,69.02,-25.795
1427,206007,0.6707561,-0.16348,-0.7095520000000001,18.095,77.7875,-29.505
1428,206105,0.63318,-0.217648,-0.708088,19.1275,89.04,-31.185
1429,206203,0.661972,-0.22204000000000002,-0.703696,18.1825,106.7675,-34.8075
1430,206301,0.656116,-0.17763199999999998,-0.685396,17.36,126.84,-38.57
1431,206399,0.696132,-0.167872,-0.682712,19.18,149.8,-40.0225
1432,206497,0.696376,-0.18324400000000002,-0.690764,19.635,172.97,-41.7025
1433,206595,0.7019880000000001,-0.23546,-0.686616,23.5375,199.92,-46.34
1434,206693,0.715164,-0.223992,-0.685884,25.8125,228.445,-54.53
1435,206791,0.7329760000000001,-0.21032800000000001,-0.6836880999999999,31.4125,256.515,-61.845
1436,206889,0.79178,-0.211548,-0.7378560000000001,46.13,288.6625,-68.0225
1437,206987,0.9589200999999999,-0.197152,-0.780312,60.9,329.5425,-75.845
1438,207085,1.121668,-0.335012,-0.9555040000000001,69.3175,396.8475,-83.87751
1439,207183,0.9969841,-0.654652,-0.8100801,81.62001,484.155,-92.6625
1440,207281,1.516948,-0.28987199999999996,-1.0016200000000002,74.935,561.1725,-119.0875
1441,207379,2.314584,-0.43212399999999995,-0.698328,73.115,573.405,-126.9625
1442,207477,3.134912,-0.531188,-0.9252481,83.37001,573.3875,-123.27
1443,207575,2.8626080000000003,-0.508252,-0.659532,98.9975,573.405,-121.0125
1444,207674,3.0512200000000003,-0.9625799999999999,-0.62098,86.34501,570.465,-119.5075
1445,207772,3.331576,-1.143628,-1.059448,66.955,497.3325,-138.4775
1446,207870,4.866336,-1.039684,-2.538332,-17.92,311.29,-150.0275
1447,207968,3.243736,-0.9079241,-3.222264,-13.51,324.5025,-101.5875
1448,208066,2.245044,-0.170068,-1.6623720000000002,-3.395,198.87,-96.77501
1449,208164,2.6476439999999997,-1.321016,-3.9101,13.4575,37.5375,-75.35501
1450,208262,1.752652,-0.671976,-2.84626,42.9975,-140.6475,-47.005
1451,208360,0.729316,-0.740296,-2.3907119999999997,38.045,-259.7875,-40.1975
1452,208458,0.027816000000000004,-0.5607121,-1.844152,44.5725,-287.91,-47.32
1453,208556,-0.081252,-0.6058520000000001,-1.5001120000000001,46.9525,-296.625,-51.31
1454,208654,0.22204000000000002,-0.707356,-1.3729879999999999,42.0875,-289.8,-52.185
1455,208752,0.518012,-0.733952,-1.252208,31.4125,-306.1275,-44.03
1456,208850,0.66856,-0.715164,-1.092876,19.705,-336.9275,-27.09
1457,208948,0.607316,-0.619272,-0.8910879999999999,10.535,-368.935,-3.4825
1458,209046,0.537288,-0.547536,-0.721264,5.2325,-389.725,20.6675
1459,209144,0.546804,-0.471408,-0.5814520000000001,2.66,-397.25,41.895
1460,209242,0.638548,-0.438468,-0.51484,2.1,-397.0575,58.345
1461,209340,0.8220360000000001,-0.45335200000000003,-0.5160600000000001,1.5575,-393.1375,71.295
1462,209438,0.9916161,-0.469944,-0.5392399999999999,-1.12,-392.9975,80.395
1463,209537,1.095804,-0.47775200000000007,-0.6161,-4.7775,-396.0425,88.5675
1464,209635,1.28954,-0.475312,-0.6939361,-7.525,-398.23,96.95
1465,209733,1.43472,-0.512888,-0.6919841,-8.1025,-403.8125,107.1175
1466,209831,1.498648,-0.5214281,-0.692228,-8.61,-410.0075,116.62
1467,209929,1.577216,-0.534604,-0.71858,-9.1,-413.0525,124.81
1468,210027,1.677744,-0.583404,-0.775188,-8.295,-413.1225,133.5775
1469,210125,1.883436,-0.72956,-0.895236,-9.3975,-409.8325,143.6925
1470,210223,2.181116,-0.9440360999999999,-1.0243120000000001,-16.52,-407.295,154.8225
1471,210321,2.4685479999999997,-1.10532,-1.0979999999999999,-32.62,-406.49,167.9825
1472,210419,2.7999,-1.166564,-1.13094,-54.4075,-401.5375,184.415
1473,210517,3.19762,-1.160464,-1.01504,-72.7125,-393.75,201.5125
1474,210615,3.5604480000000005,0.050508,-0.802272,-82.1975,-389.3225,217.2625
1475,210713,3.84666,-0.21032800000000001,-0.43188000000000004,-40.39,-381.6925,250.4775
1476,210811,3.995256,-0.5002,0.205204,-5.565,-381.045,249.9
1477,210909,3.729052,-0.597068,0.9345201,-6.125,-373.4325,207.34
1478,211007,3.20738,0.034404000000000004,1.601616,-28.0175,-338.5025,145.7575
1479,211105,2.951668,0.4594521,2.21064,-22.8375,-280.105,103.6525
1480,211203,2.952156,0.84546,2.550776,16.0125,-212.1525,69.86
1481,211301,3.65878,1.029924,2.709132,74.18251,-143.9025,34.5625
1482,211399,4.044544,0.856684,3.1463799999999997,132.0725,-103.1625,2.6075
1483,211498,3.384768,0.407968,3.505548,157.4125,-79.2575,-33.775
1484,211596,2.759884,0.166164,3.3552440000000003,128.0125,-24.36,-76.93
1485,211694,2.931172,-0.001464,2.5405279999999997,75.25,57.785,-98.5075
1486,211792,1.311744,-1.0948280000000001,1.349564,22.26,111.0025,-84.84
1487,211890,-1.45424,-1.428132,-2.8313759999999997,-205.5375,78.855,-43.6275
1488,211988,-3.691232,0.27694,-2.12158,-232.2425,121.905,-79.3275
1489,212086,1.263676,2.78648,0.332328,-127.8025,434.0175,-49.035
1490,212184,5.518304,3.085136,-1.32736,-80.5875,447.0375,-102.025
1491,212282,3.4574800000000003,2.320684,-2.650572,16.17,282.9925,-47.11
1492,212380,1.8478119999999998,1.233176,-1.8073080000000001,90.055,218.3475,-62.405
1493,212478,1.27978,-1.47498,-0.613416,126.4725,176.155,-87.71
1494,212576,0.452376,-3.072204,0.28987199999999996,108.8325,153.7025,-49.735
1495,212674,1.4278879999999998,-2.324832,-0.5104479999999999,26.39,179.4975,-25.1475
1496,212772,3.881308,0.21594000000000002,-2.7938,-69.65,144.9875,-33.8975
1497,212870,0.576572,1.293688,-0.45871999999999996,-77.3325,4.1125,-55.86
1498,212968,0.105896,-1.215608,-0.7849480999999999,20.615,19.075,-43.925
1499,213066,0.9376921,-0.212524,-0.7617681,-19.005,7.5425,-34.2825
1500,213164,0.8344801,0.252296,-0.8025161,-16.0125,0.6125,-35.455
1501,213262,0.754692,-0.08857201,-0.789828,-10.115,-15.8025,-19.5475
1502,213360,0.754204,-0.285236,-0.6883239999999999,-4.9875,-15.6975,-12.425
1503,213458,0.66246,-0.040748,-0.801296,-2.975,-10.7625,-8.26
1504,213557,0.6785640000000001,-0.208864,-0.742492,6.405,-1.8375,-4.165
1505,213655,0.6273241,-0.19276,-0.7468840999999999,11.69,3.605,-1.4525
1506,213753,0.632204,-0.07027201,-0.77836,13.4925,7.1225,0.49
1507,213851,0.5511961,-0.296216,-0.7622561,20.0725,10.3075,3.5525
1508,213949,0.6070720000000001,-0.398208,-0.6851520999999999,18.7775,11.9,1.4875
1509,214047,0.600484,-0.392596,-0.7005239999999999,14.525,12.6175,-4.06
1510,214145,0.6409881,-0.260592,-0.713212,9.8875,9.5375,-8.2075
1511,214243,0.585356,-0.32208000000000003,-0.7256560000000001,10.64,8.68,-10.255
1512,214341,0.5926760999999999,-0.26108000000000003,-0.74542,9.8,8.925,-12.18
1513,214439,0.644404,-0.22277199999999997,-0.7129681,9.835,13.3875,-13.7725
1514,214537,0.624884,-0.163968,-0.745664,12.67,20.3525,-13.405
1515,214635,0.580232,-0.12248800000000001,-0.7451760000000001,14.98,26.95,-12.495
1516,214733,0.5738880000000001,-0.195688,-0.755912,22.6275,38.0275,-11.4625
1517,214831,0.6319600000000001,-0.17128800000000002,-0.729316,27.3175,53.8125,-9.975
1518,214929,0.6466,-0.164212,-0.6939361,26.4775,63.56,-9.9225
1519,215027,0.671488,-0.22691999999999998,-0.6280560000000001,30.03,68.495,-8.8025
1520,215125,0.696132,-0.269376,-0.586576,28.91,68.46,-8.155
1521,215223,0.682712,-0.284504,-0.589016,25.97,62.895,-8.3125
1522,215322,0.669292,-0.284748,-0.606096,22.9425,57.225,-9.8
1523,215420,0.691496,-0.244488,-0.59292,20.6675,54.6175,-11.83
1524,215518,0.7229720000000001,-0.193492,-0.594384,19.74,54.5825,-12.2325
1525,215616,0.7176041,-0.235948,-0.5795,19.215,55.4925,-11.515
1526,215714,0.6802720999999999,-0.275964,-0.619516,19.1975,57.96,-11.3225
1527,215812,0.646112,-0.329888,-0.633912,19.3725,62.72,-14.42
1528,215910,0.6527,-0.316956,-0.633668,19.635,71.68,-19.285
1529,216008,0.680516,-0.30866,-0.621712,18.55,81.095,-25.0775
1530,216106,0.6707561,-0.271572,-0.6344,16.7125,87.7975,-29.6275
1531,216204,0.671732,-0.245952,-0.659288,15.4175,99.0675,-32.7775
1532,216302,0.687348,-0.22496799999999997,-0.651968,16.345,115.6225,-35.245
1533,216400,0.7129681,-0.18251199999999998,-0.646844,17.675,133.8925,-36.995
1534,216498,0.7598161,-0.174704,-0.6497721,17.7625,153.58,-36.89
1535,216596,0.72712,-0.199104,-0.653188,19.67,175.35,-37.485
1536,216694,0.7068681,-0.29158,-0.6304960000000001,24.675,199.675,-40.74
1537,216792,0.729316,-0.285724,-0.614636,27.825,223.7375,-49.8925
1538,216891,0.756156,-0.322324,-0.636108,37.9225,252.1925,-61.4425
1539,216989,0.8601,-0.33794,-0.6514800000000001,51.065,284.3925,-74.935
1540,217087,0.9362280000000001,-0.312808,-0.7759199999999999,63.595,329.245,-89.32
1541,217185,1.105808,-0.37698000000000004,-0.9030440000000001,71.435,400.19,-102.1825
1542,217283,1.121668,-0.7571321,-0.9982040000000001,81.0775,492.87,-111.65
1543,217381,1.6804279999999998,-0.49312399999999995,-0.9211,69.475,564.2875,-142.73
1544,217479,3.028772,-0.8359440999999999,-1.06628,74.41,573.3875,-160.9475
1545,217577,3.078548,-0.37990799999999997,-0.715896,102.5325,573.405,-147.735
1546,217675,2.851872,-0.2135,-0.743224,106.4,573.405,-155.015
1547,217773,3.057808,-0.984784,-1.35176,101.1325,527.5025,-173.4075
1548,217871,4.497408,-2.021052,-1.23586,52.7275,388.5525,-158.7775
1549,217969,3.291804,-1.110444,-2.560292,-6.825,316.9425,-65.73
1550,218067,2.651304,-0.9054840000000001,-3.454064,33.1625,357.6475,-120.6275
1551,218165,2.649352,-0.46603999999999995,-1.7348400000000002,24.675,193.2175,-84.03501
1552,218263,2.502464,-1.591612,-3.675128,31.5875,31.4125,-59.9025
1553,218361,1.628212,-0.8625401,-2.589084,24.0975,-160.0375,-15.0325
1554,218459,0.644648,-0.7983680000000001,-2.216252,4.1475,-263.62,-8.5925
1555,218557,-0.060267999999999995,-0.460672,-1.6574919999999997,2.9225,-296.52,-9.555
1556,218655,-0.017324000000000003,-0.45896400000000004,-1.387872,6.6325,-301.1225,-12.3025
1557,218753,0.223504,-0.492148,-1.249036,10.36,-298.2175,-9.905
1558,218851,0.528992,-0.513376,-1.1392360000000001,12.285,-315.735,-1.2425
1559,218949,0.7259001,-0.518256,-1.026508,9.905,-345.24,13.405
1560,219047,0.762012,-0.46238,-0.860344,6.545,-376.2675,33.215
1561,219145,0.7229720000000001,-0.4087,-0.71248,2.2575,-400.5925,51.1525
1562,219244,0.721508,-0.3294,-0.595604,-2.17,-413.8225,64.26
1563,219342,0.781776,-0.27328,-0.521184,-3.78,-420.385,72.94
1564,219440,0.876692,-0.24326799999999998,-0.510204,-4.5675,-421.435,77.7525
1565,219538,0.964044,-0.22862800000000003,-0.5368,-3.045,-420.385,81.165
1566,219636,1.084824,-0.2257,-0.61,0.7175,-417.165,86.3975
1567,219734,1.312476,-0.272548,-0.702232,4.445,-413.1225,94.60501
1568,219832,1.448872,-0.38064000000000003,-0.747128,6.65,-415.59,103.6
1569,219930,1.577216,-0.409432,-0.791048,4.1475,-420.7875,109.1125
1570,220028,1.655784,-0.4392,-0.8430200999999999,0.455,-424.9,115.9725
1571,220126,1.821704,-0.5724239999999999,-0.9403761,-2.0475,-424.6375,124.2325
1572,220224,2.084492,-0.772504,-1.065792,-8.89,-423.4825,133.35
1573,220322,2.36314,-0.897432,-1.1272799999999998,-22.995,-421.26,144.9525
1574,220420,2.767936,-0.9955200000000001,-1.166564,-39.3575,-415.31,159.25
1575,220518,3.1998159999999998,-1.090924,-1.060668,-52.71,-412.1775,171.9725
1576,220616,3.441864,-0.111996,-0.9201241,-60.9525,-413.9625,186.235
1577,220714,3.654144,-0.273768,-0.5355800999999999,-28.175,-407.2075,214.8475
1578,220812,3.7271,-0.32574000000000003,-0.008296000999999999,-3.6925,-402.045,212.0125
1579,220910,3.5370239999999997,-0.31354,0.613416,3.8675,-385.56,176.8375
1580,221008,3.183712,0.31158800000000003,1.2012120000000002,2.0475,-347.83,128.135
1581,221106,2.876516,0.6736840000000001,1.7760759999999998,22.2425,-290.4825,101.22
1582,221204,3.070984,1.304424,2.082052,58.3275,-228.27,80.3775
1583,221302,3.7573559999999997,1.105076,2.453176,113.5925,-167.5625,47.8975
1584,221401,3.883748,1.1514360000000001,2.958256,151.2875,-148.365,-11.655
1585,221499,3.250568,0.897432,3.4596760000000004,176.155,-128.3975,-73.71
1586,221597,2.532476,0.328424,3.433324,175.9975,-75.635,-124.18
1587,221695,2.7142560000000002,-0.11102000000000001,2.6291,137.97,10.605,-155.015
1588,221793,3.090992,-0.46774799999999994,1.646756,89.845,79.345,-147.98
1589,221891,1.952,-3.3166919999999998,-2.744024,-6.37,89.6175,-110.6175
1590,221989,-2.49368,-2.060336,-2.77672,-266.105,35.07,-102.55
1591,222087,-3.06098,-1.099952,-1.404708,-247.205,177.765,-108.1325
1592,222185,2.722064,4.023316,0.24326799999999998,-288.295,426.3875,-105.6825
1593,222283,4.410056,3.6063199999999997,-1.7580200000000001,-128.4675,375.3575,-71.78501
1594,222381,3.305224,2.331664,-3.034384,19.8275,300.58,-23.905
1595,222479,1.693604,0.8413120000000001,-1.378356,46.725,200.445,-92.26001
1596,222577,0.8344801,-2.030568,-0.18056,97.02,174.195,-91.735
1597,222675,0.746152,-2.68034,-0.10614000000000001,67.69001,178.5,-43.61
1598,222773,2.356796,-1.6836,-1.455704,-31.0275,200.9875,-37.6425
1599,222871,2.573712,1.4039760000000001,-1.361276,-123.0075,126.595,-61.7575
1600,222969,0.570716,0.267912,-1.020408,-55.7025,8.3825,-50.085
1601,223067,0.721508,-0.7978801,-0.883524,-15.5575,4.62,-49.4025
1602,223165,1.1211799999999998,0.10321199999999998,-0.8039801,-29.8725,12.2325,-47.215
1603,223263,0.617564,0.234972,-0.9091440000000001,-21.4025,-7.28,-32.445
1604,223361,0.784216,-0.525088,-0.617564,2.9225,-1.4175,-23.555
1605,223459,0.7415161,-0.098576,-0.7517640999999999,-8.9075,-0.14,-19.81
1606,223558,0.6422081000000001,-0.15494000000000002,-0.779824,-8.925,-3.0275,-16.59
1607,223656,0.659776,-0.238632,-0.726388,-3.605,0.6125,-14.665
1608,223754,0.7078439999999999,0.081496,-0.779092,-7.105,4.0775,-12.005
1609,223852,0.60024,-0.12566,-0.7795801,4.6025,7.385,-5.8975
1610,223950,0.592188,-0.275476,-0.731024,10.2025,9.87,-2.905
1611,224048,0.612196,-0.4209,-0.69418,10.3425,14.665,-3.43
1612,224146,0.782508,-0.13785999999999998,-0.688812,12.145,17.9725,-1.6625
1613,224244,0.586576,-0.269376,-0.7381001,9.905,16.1,-2.5025
1614,224342,0.634156,-0.340136,-0.7239479999999999,10.85,19.8625,-2.2225
1615,224440,0.6663640000000001,-0.258396,-0.699792,7.1925,22.995,-4.7425
1616,224538,0.6441600000000001,-0.256932,-0.700036,9.1175,22.9425,-6.3525
1617,224636,0.665876,-0.171776,-0.70394,8.9775,24.185,-7.3325
1618,224734,0.6202479999999999,-0.150304,-0.71614,12.775,25.8475,-5.95
1619,224832,0.650748,-0.102724,-0.738588,14.9975,31.01,-4.41
1620,224930,0.5997520000000001,-0.2135,-0.6822239999999999,22.4175,38.2725,-3.71
1621,225028,0.6883239999999999,-0.141032,-0.678076,21.63,45.57,-3.0275
1622,225126,0.680028,-0.205692,-0.6375721,23.03,48.51,-0.5775
1623,225224,0.69784,-0.235948,-0.6229319999999999,21.4025,47.67,0.4025
1624,225322,0.69662,-0.265472,-0.599264,20.3175,44.8,0.91
1625,225420,0.697596,-0.28157600000000005,-0.581208,18.69,39.9525,0.5075
1626,225518,0.71736,-0.30012,-0.5614439999999999,16.38,34.3,-0.7175
1627,225616,0.697108,-0.286456,-0.604388,14.2625,28.595,-1.47
1628,225714,0.679784,-0.29133600000000004,-0.624884,13.265,25.2875,-2.8525
1629,225813,0.6832,-0.271328,-0.6329359999999999,13.16,26.775,-5.5125
1630,225911,0.7034521,-0.23838800000000002,-0.6290319999999999,13.405,29.225,-8.19
1631,226009,0.69662,-0.214232,-0.6317159999999999,14.315,33.2675,-9.2575
1632,226107,0.6944241,-0.223748,-0.644648,15.8725,37.275,-8.89
1633,226205,0.6688041,-0.204716,-0.654896,17.5,43.2775,-7.875
1634,226303,0.664168,-0.193004,-0.6878361,20.405,52.605,-6.9125
1635,226401,0.655384,-0.191296,-0.688812,23.24,65.0475,-6.195
1636,226499,0.672708,-0.18544000000000002,-0.692228,25.445,81.18251,-6.23
1637,226597,0.687104,-0.20691199999999998,-0.6573359999999999,28.1925,96.65250999999999,-6.6675
1638,226695,0.67832,-0.225456,-0.6539201,31.3775,112.3675,-7.14
1639,226793,0.683932,-0.273036,-0.642696,36.1375,128.8525,-9.1525
1640,226891,0.7027201,-0.343064,-0.626836,40.2325,146.4225,-14.3675
1641,226989,0.7224841,-0.341844,-0.6380600000000001,40.18,164.3425,-21.7525
1642,227087,0.6844201,-0.306708,-0.659288,43.785,185.01,-32.9525
1643,227185,0.702476,-0.28621199999999997,-0.6390359999999999,51.625,210.9275,-44.52
1644,227283,0.7388319999999999,-0.188124,-0.706136,63.875,239.5225,-55.7025
1645,227382,0.82594,-0.137128,-0.8054439999999999,86.555,272.405,-60.6375
1646,227480,1.078968,-0.209108,-0.9171961,115.6225,317.52,-57.435
1647,227578,1.068476,-0.6283,-1.047492,140.35,387.6425,-48.86
1648,227676,1.22854,-0.306464,-0.992348,144.34,482.6675,-55.3525
1649,227774,1.9724959999999998,-0.188612,-1.192916,148.295,561.365,-47.7925
1650,227872,2.37046,-0.3904,-1.0208959999999998,187.215,573.405,13.4575
1651,227970,2.585424,-0.34257600000000005,-0.8964561,214.2175,573.405,50.1025
1652,228068,2.987536,-0.606096,-0.685396,253.4875,571.6725,71.7325
1653,228166,2.823568,-0.72102,-0.789828,280.0175,496.6325,46.9525
1654,228264,4.64576,-1.7099520000000001,-1.262944,222.4075,376.39,-10.7275
1655,228362,4.031124,-0.503128,-2.953864,186.9175,278.25,95.9175
1656,228460,1.432036,-0.7822640000000001,-3.555568,281.0675,202.37,57.26
1657,228558,1.7343520000000001,-0.9128040000000001,-2.865048,222.0925,-24.4125,13.65
1658,228656,2.900672,-1.412272,-3.3476800000000004,220.745,-91.07,-15.0675
1659,228754,0.33013200000000004,-0.52094,-1.8980759999999999,146.3175,-312.97,-20.265
1660,228852,-0.21228000000000002,-0.481412,-1.541104,121.9575,-334.53,-41.2125
1661,228950,-0.156404,-0.30988000000000004,-1.352004,116.8125,-308.07,-43.1025
1662,229049,0.196176,-0.22423600000000002,-1.247084,109.1475,-308.2625,-27.685
1663,229147,0.40626,-0.164456,-1.136064,104.9475,-316.4175,5.1975
1664,229245,0.4453,-0.05368,-1.039196,97.4225,-331.275,47.04
1665,229343,0.437492,0.142008,-0.9547720999999999,80.8325,-341.9675,86.905
1666,229441,0.618784,0.39771999999999996,-0.9596520000000001,55.545,-347.4275,115.1325
1667,229539,0.7893399999999999,0.798124,-0.9825879999999999,29.155,-348.355,131.8975
1668,229637,0.8476561,1.1387479999999999,-0.9520881,15.925,-358.155,136.3775
1669,229735,0.889624,1.443016,-1.0262639999999998,16.8525,-372.925,121.3975
1670,229833,1.22244,1.701656,-1.20292,34.1775,-381.9725,90.72001
1671,229931,1.504016,1.7824200000000001,-1.2700200000000001,60.0075,-403.8125,46.9
1672,230029,1.533784,1.8058439999999998,-1.140944,96.46,-436.1,-5.3025
1673,230127,1.414712,1.781932,-0.9067040000000001,145.705,-460.145,-55.2825
1674,230225,1.576972,1.659688,-0.772016,209.5975,-464.31,-84.98
1675,230323,1.833172,1.223416,-0.815692,252.5075,-452.5325,-93.345
1676,230421,1.9644439999999999,0.7107720000000001,-0.945256,276.815,-438.865,-72.73
1677,230519,2.04716,0.38795999999999997,-1.078724,267.2075,-426.2475,-38.605
1678,230618,2.320684,0.107848,-1.1263040000000002,229.775,-408.73,-8.19
1679,230716,2.796484,0.038064,-1.2402520000000001,178.1675,-390.635,13.055
1680,230814,3.266916,0.096868,-1.2439120000000001,124.88,-383.705,31.64
1681,230912,3.3713480000000002,-0.39405999999999997,-0.5843801,80.8325,-398.6675,50.365
1682,231010,3.227632,-0.22057600000000002,-0.235704,31.4475,-420.2625,51.1525
1683,231108,2.933612,0.366732,0.095648,-2.905,-415.87,49.805
1684,231206,2.930684,0.698816,0.343064,13.9825,-389.7075,56.0525
1685,231304,3.118564,0.9272,0.510692,62.37,-357.21,43.5925
1686,231402,3.022916,0.9150001,0.930372,117.0925,-329.28,19.74
