,T,ax,ay,az,gx,gy,gz
0,3915792,0.904874,0.076494,0.081374,19.1625,-16.6775,-14.9275
1,3915947,0.9362280000000001,0.108946,-0.019886,14.98,8.33,-209.0725
2,3916045,1.018456,0.11712,-0.028304000000000003,-80.78,31.7625,-274.645
3,3916143,1.0117459999999998,0.094672,-0.042822000000000006,14.5425,-97.14251,-87.95501
4,3916241,0.9738041,0.067344,-0.044407999999999996,-2.9575,-22.1375,-8.715
5,3916339,0.955992,0.065026,-0.06039,-9.5025,-13.23,-3.92
6,3916437,0.9506241,0.09052401,-0.08369201,-13.0725,-8.5925,-4.83
7,3916535,0.9502581,0.102724,-0.087962,-10.535,-5.005,-5.425
8,3916633,0.968558,0.11028800000000001,-0.08454600000000001,-7.3325,-1.5925,-5.81
9,3916730,0.9919821,0.119926,-0.08637601,-4.0425,-0.175,-5.95
10,3916828,1.010648,0.129076,-0.085888,-0.0525,-0.8225,-6.0025
11,3916926,1.026386,0.14335,-0.088328,4.1825,-2.695,-5.88
12,3917024,1.0285819999999999,0.1464,-0.101382,8.715,-5.705,-5.74
13,3917122,1.026386,0.139812,-0.11345999999999999,14.1575,-9.0475,-5.4775
14,3917220,1.0199200000000002,0.122976,-0.122976,19.565,-13.4925,-5.495
15,3917318,1.0077200000000002,0.11394800000000001,-0.149328,23.8525,-18.795,-5.5825
16,3917416,0.9956421,0.16165,-0.18873399999999999,28.4725,-23.8525,-5.7225
17,3917514,0.9752681000000001,0.06832001,-0.15616,36.4175,-29.05,-5.9325
18,3917612,0.978806,0.055388,-0.170068,28.91,-32.1825,-6.3175
19,3917709,0.9864921,0.032208,-0.14347200000000002,21.77,-38.255,-6.9475
20,3917807,0.9913719999999999,0.023180000000000003,-0.141276,10.745,-45.7975,-7.14
21,3917905,0.97783,0.0488,-0.13383399999999998,0.385,-52.6925,-6.6325
22,3918003,0.964044,0.087474,-0.08906,0.385,-53.655,-5.7925
23,3918101,1.028216,0.15433,0.22021,9.765,-47.495,-5.5125
24,3918199,0.956968,-0.00793,0.156404,16.59,-20.0025,-8.435
25,3918297,1.087508,0.09577000000000001,-0.21752600000000002,4.2875,25.9525,-7.525
26,3918395,1.017236,0.09272000000000001,-0.183488,4.0075,1.7325,-5.145
27,3918493,0.9827101,0.08235001,-0.13054000000000002,3.9725,-14.1925,-4.9525
28,3918591,0.981002,0.075762,-0.110898,2.8875,-13.3525,-4.9
29,3918689,0.9857600000000001,0.06600201,-0.11138599999999999,1.9425,-10.745,-5.1275
30,3918786,0.9806360000000001,0.060267999999999995,-0.11712,0.9625,-10.78,-5.2675
31,3918884,0.984174,0.057096,-0.12065799999999999,0.49,-10.4125,-5.3725
32,3918982,0.987102,0.058316,-0.117974,-0.035,-10.4125,-5.46
33,3919080,0.983564,0.06039,-0.116022,-0.665,-10.9375,-5.39
34,3919178,0.9795381,0.06344,-0.114558,-1.3475,-11.165,-5.11
35,3919276,0.9768540000000001,0.06636801,-0.11760799999999999,-2.3275,-10.7625,-4.83
36,3919374,0.975024,0.06929600000000001,-0.11577799999999999,-3.1675,-10.395,-4.445
37,3919472,0.9744141,0.07259,-0.11467999999999999,-3.955,-10.325,-4.1125
38,3919570,0.9734381,0.07356601,-0.115534,-4.515,-10.4125,-3.955
39,3919668,0.9734381,0.07588400000000001,-0.11431400000000001,-4.9,-10.3425,-3.99
40,3919765,0.9714860000000001,0.076616,-0.113094,-5.0925,-9.9575,-4.06
41,3919863,0.969046,0.07832401,-0.115656,-5.3025,-9.4325,-4.235
42,3919961,0.9669721,0.08064199,-0.1159,-5.6,-8.6975,-4.1475
43,3920059,0.967094,0.082594,-0.11870599999999999,-5.74,-8.4,-4.1475
44,3920157,0.9697780999999999,0.08503401,-0.12029200000000001,-5.7575,-8.4,-4.305
45,3920255,0.9757561,0.08466801,-0.11919400000000001,-5.705,-8.2775,-4.375
46,3920353,0.9785620999999999,0.085156,-0.12248800000000001,-5.6175,-8.0325,-4.4275
47,3920451,0.9779521000000001,0.08564401,-0.124074,-5.705,-7.595,-4.3575
48,3920549,0.9784401,0.08417999999999999,-0.125416,-5.705,-7.2625,-4.3575
49,3920647,0.9764879999999999,0.082716,-0.124806,-5.7575,-7.0175,-4.2175
50,3920745,0.9767321,0.08174001,-0.12566,-5.915,-6.755,-4.1125
51,3920842,0.978318,0.08296,-0.125538,-5.915,-6.5275,-4.1125
52,3920940,0.9817341,0.082594,-0.122732,-5.7925,-6.44,-4.235
53,3921038,0.9831981,0.08442401,-0.124928,-5.705,-6.195,-4.235
54,3921136,0.984418,0.08784,-0.12651400000000002,-5.6,-6.1075,-4.27
55,3921234,0.9852719999999999,0.091012,-0.12456199999999999,-5.4425,-6.16,-4.2875
56,3921332,0.9853940999999999,0.09345201,-0.126636,-5.215,-6.16,-4.445
57,3921430,0.9827101,0.09589201,-0.125904,-4.9175,-5.9675,-4.55
58,3921528,0.9821,0.096624,-0.12871,-4.6025,-5.95,-4.6025
59,3921626,0.9827101,0.09516001,-0.129564,-4.3575,-6.1425,-4.7425
60,3921724,0.9840521000000001,0.095038,-0.128588,-4.1475,-6.23,-4.83
61,3921822,0.986858,0.09320801,-0.127978,-3.85,-6.3875,-4.795
62,3921919,0.9863700000000001,0.09320801,-0.129076,-3.71,-6.5975,-4.7425
63,3922017,0.9853940999999999,0.09442801,-0.131272,-3.5175,-6.6675,-4.7075
64,3922115,0.984906,0.09345201,-0.13383399999999998,-3.3775,-6.685,-4.69
65,3922213,0.9846620999999999,0.09040201,-0.13237000000000002,-3.185,-6.825,-4.8125
66,3922311,0.9858819999999999,0.08906,-0.133224,-3.0275,-6.72,-4.935
67,3922409,0.9862479999999999,0.087108,-0.133346,-2.835,-6.8075,-5.1275
68,3922507,0.9867360999999999,0.087108,-0.13176,-2.8,-6.8425,-5.215
69,3922605,0.984296,0.08723001,-0.13078399999999998,-2.87,-6.8425,-5.18
70,3922703,0.984296,0.08625401,-0.132248,-3.01,-6.9125,-5.2325
71,3922801,0.980758,0.08759601,-0.132614,-3.01,-6.9475,-5.0925
72,3922899,0.979416,0.09150001,-0.134444,-3.01,-6.8425,-4.935
73,3922996,0.978806,0.09589201,-0.133956,-3.01,-6.965,-4.8825
74,3923094,0.977342,0.09625801,-0.135908,-2.835,-6.965,-4.795
75,3923192,0.9768540000000001,0.09540401,-0.137128,-2.73,-6.9475,-4.6375
76,3923290,0.9764879999999999,0.096624,-0.137372,-2.3975,-6.9475,-4.725
77,3923388,0.978074,0.097722,-0.137738,-2.1875,-6.8075,-4.7775
78,3923486,0.978196,0.09698999999999999,-0.13859200000000002,-1.89,-6.6325,-4.9
79,3923584,0.9772200999999999,0.097478,-0.139202,-1.645,-6.51,-4.9175
80,3923682,0.9766101,0.0976,-0.141032,-1.3125,-6.475,-5.075
81,3923780,0.975634,0.100162,-0.14188599999999998,-0.9625,-6.335,-5.145
82,3923878,0.974292,0.099674,-0.142374,-0.7875,-6.16,-5.4075
83,3923976,0.9753901,0.09979600000000001,-0.14188599999999998,-0.595,-6.2125,-5.4075
84,3924074,0.9772200999999999,0.100406,-0.141764,-0.5425,-6.2125,-5.4075
85,3924172,0.978318,0.098332,-0.142374,-0.4725,-6.1775,-5.18
86,3924270,0.9797819999999999,0.0976,-0.142252,-0.4725,-6.3,-5.1275
87,3924367,0.98149,0.098576,-0.142862,-0.3325,-6.4225,-5.005
88,3924465,0.98393,0.09711201,-0.14213,-0.2275,-6.5625,-4.865
89,3924563,0.9850280999999999,0.09479401,-0.14005599999999999,-0.1575,-6.79,-4.9525
90,3924661,0.9852719999999999,0.09479401,-0.13944600000000001,-0.105,-6.93,-4.9
91,3924759,0.9858819999999999,0.094306,-0.139934,-0.2275,-7.1575,-4.9525
92,3924857,0.9856379999999999,0.09735601,-0.13969,-0.28,-7.2975,-5.005
93,3924955,0.987102,0.10004,-0.138348,-0.2275,-7.21,-5.0575
94,3925053,0.9861260000000001,0.100406,-0.13785999999999998,-0.0875,-7.1925,-5.1625
95,3925151,0.9825879999999999,0.098332,-0.138104,0.175,-7.1925,-5.3025
96,3925249,0.9790501,0.09589201,-0.139202,0.3675,-7.1925,-5.53
97,3925347,0.9791719999999999,0.09479401,-0.137372,0.2625,-7.2975,-5.6175
98,3925445,0.979294,0.093574,-0.133346,0.1225,-7.0525,-5.6875
99,3925543,0.9777081,0.09186601,-0.13456600000000002,-0.1575,-6.9475,-5.5825
100,3925641,0.97783,0.091378,-0.13761600000000002,-0.2625,-6.93,-5.5125
101,3925739,0.9740479999999999,0.09320801,-0.13725,-0.2975,-6.8425,-5.425
102,3925837,0.97356,0.09211,-0.137128,-0.56,-6.7025,-5.425
103,3925935,0.9718521000000001,0.091378,-0.138104,-0.56,-6.3525,-5.39
104,3926032,0.9691681000000001,0.089914,-0.140422,-0.525,-6.09,-5.355
105,3926130,0.968558,0.09186601,-0.141154,-0.595,-5.74,-5.4425
106,3926228,0.969046,0.09320801,-0.139568,-0.665,-5.6175,-5.46
107,3926326,0.9709979999999999,0.09540401,-0.136518,-0.8225,-5.6525,-5.46
108,3926424,0.9740479999999999,0.097234,-0.135298,-0.875,-5.565,-5.39
109,3926522,0.977342,0.094306,-0.13054000000000002,-0.91,-5.3025,-5.3725
110,3926620,0.978928,0.09284201,-0.134932,-0.875,-5.1275,-5.3375
111,3926718,0.9795381,0.094306,-0.133956,-0.7875,-4.97,-5.355
112,3926816,0.9784401,0.09442801,-0.134078,-0.6475,-4.865,-5.32
113,3926914,0.9768540000000001,0.09735601,-0.135908,-0.5425,-4.76,-5.285
114,3927012,0.978318,0.09784401,-0.14005599999999999,-0.35,-4.8125,-5.2325
115,3927110,0.9802700000000001,0.09821001,-0.136762,-0.1575,-4.76,-5.32
116,3927208,0.9801479999999999,0.097722,-0.136884,0.0,-4.795,-5.1275
117,3927306,0.980758,0.095648,-0.13908,0.0525,-4.6725,-5.145
118,3927403,0.9828321,0.09381801,-0.138226,0.035,-4.6375,-5.18
119,3927501,0.9852719999999999,0.09186601,-0.13664,0.035,-4.8125,-5.1275
120,3927599,0.983564,0.091988,-0.135786,0.0,-4.97,-5.1625
121,3927697,0.9873460999999999,0.093696,-0.133956,-0.035,-5.04,-5.215
122,3927795,0.987712,0.09381801,-0.135664,-0.0875,-5.1975,-5.1275
123,3927893,0.986614,0.095282,-0.13602999999999998,-0.035,-5.145,-5.11
124,3927991,0.98393,0.09625801,-0.13847,-0.0525,-5.1975,-5.0575
125,3928089,0.9790501,0.09516001,-0.140666,-0.0875,-5.1275,-5.0575
126,3928187,0.9790501,0.095282,-0.13859200000000002,-0.1225,-5.25,-4.97
127,3928285,0.9791719999999999,0.09394001,-0.138348,-0.2625,-5.3375,-4.9525
128,3928383,0.9796600000000001,0.09394001,-0.136762,-0.35,-5.425,-4.9525
129,3928481,0.979294,0.093696,-0.134078,-0.385,-5.215,-5.005
130,3928578,0.9779521000000001,0.09625801,-0.13480999999999999,-0.385,-5.145,-5.1625
131,3928676,0.9791719999999999,0.098332,-0.1342,-0.2625,-5.3375,-5.215
132,3928774,0.9770981,0.099674,-0.134932,0.0175,-5.215,-5.2325
133,3928872,0.978196,0.10126,-0.13542,0.1925,-5.25,-5.25
134,3928970,0.97783,0.100406,-0.135298,0.28,-5.215,-5.215
135,3929068,0.9766101,0.098332,-0.13480999999999999,0.2975,-5.04,-5.2325
136,3929166,0.9749021000000001,0.094306,-0.134932,0.175,-5.0225,-5.0925
137,3929264,0.975024,0.09162200000000001,-0.135176,0.0875,-5.0225,-5.1275
138,3929362,0.976366,0.08967,-0.132614,-0.0875,-5.145,-4.9875
139,3929460,0.978196,0.09028,-0.131882,-0.28,-5.2675,-4.83
140,3929558,0.9802700000000001,0.091378,-0.13115,-0.42,-5.285,-4.8475
141,3929656,0.981612,0.091988,-0.131028,-0.3675,-5.495,-4.8125
142,3929753,0.9830760000000001,0.092964,-0.13151600000000002,-0.35,-5.4775,-4.795
143,3929851,0.9833200000000001,0.094672,-0.130052,-0.245,-5.355,-4.76
144,3929949,0.98393,0.095038,-0.130174,-0.105,-5.3725,-4.7425
145,3930047,0.98088,0.097478,-0.131028,0.0,-5.46,-4.76
146,3930145,0.981124,0.09979600000000001,-0.130662,0.105,-5.46,-4.7425
147,3930243,0.9796600000000001,0.099674,-0.131028,0.07,-5.32,-4.795
148,3930341,0.97478,0.09650201,-0.129076,0.0,-5.25,-4.865
149,3930439,0.972218,0.09418401,-0.129442,0.035,-4.97,-4.8475
150,3930537,0.9713639999999999,0.09211,-0.12761199999999998,-0.105,-4.6375,-4.865
151,3930635,0.9736819999999999,0.09320801,-0.1281,-0.28,-4.655,-4.5675
152,3930733,0.976366,0.093086,-0.127002,-0.42,-4.8475,-4.515
153,3930830,0.9775860000000001,0.093696,-0.126392,-0.49,-4.8475,-4.41
154,3930928,0.9761219999999999,0.093086,-0.125904,-0.56,-4.69,-4.2
155,3931026,0.973316,0.09418401,-0.125782,-0.735,-4.76,-4.165
156,3931124,0.9766101,0.09552601,-0.124806,-0.77,-4.62,-4.0425
157,3931222,0.9790501,0.09625801,-0.126026,-0.8925,-4.6375,-3.9725
158,3931320,0.979416,0.09479401,-0.126026,-0.98,-4.4275,-3.92
159,3931418,0.9799041,0.09540401,-0.12529400000000002,-1.12,-4.375,-3.9375
160,3931516,0.9777081,0.095282,-0.12627,-1.085,-4.235,-3.9375
161,3931614,0.9774639999999999,0.097722,-0.128222,-0.98,-4.095,-4.0775
162,3931712,0.9796600000000001,0.099674,-0.129564,-0.875,-3.99,-4.1125
163,3931810,0.9813681000000001,0.099186,-0.12761199999999998,-0.63,-4.025,-4.2175
164,3931907,0.9828321,0.09882,-0.124928,-0.42,-4.1125,-4.2525
165,3932005,0.9823440999999999,0.09882,-0.126392,-0.315,-3.99,-4.2525
166,3932103,0.9829540000000001,0.096624,-0.126148,-0.4025,-3.955,-4.27
167,3932201,0.9831981,0.09735601,-0.12529400000000002,-0.4025,-4.0075,-4.2875
168,3932299,0.9857600000000001,0.098332,-0.125904,-0.2975,-4.025,-4.2875
169,3932397,0.9867360999999999,0.094306,-0.12334200000000001,-0.105,-4.2175,-4.375
170,3932495,0.984784,0.09235399999999999,-0.12444000000000001,-0.21,-4.2175,-4.3575
171,3932593,0.98393,0.09028,-0.12468399999999999,-0.455,-4.0775,-4.4275
172,3932691,0.9802700000000001,0.089304,-0.124928,-0.63,-4.1475,-4.4275
173,3932789,0.9768540000000001,0.08954801,-0.124196,-0.9625,-4.5325,-4.305
174,3932887,0.9772200999999999,0.08820599999999999,-0.12383,-1.155,-4.795,-4.1475
175,3932984,0.9802700000000001,0.087352,-0.125172,-1.33,-4.7775,-4.06
176,3933082,0.9827101,0.08662001,-0.12761199999999998,-1.505,-4.865,-3.92
177,3933180,0.98393,0.085156,-0.12529400000000002,-1.575,-5.005,-3.8325
178,3933278,0.983564,0.087474,-0.12358599999999999,-1.645,-5.04,-3.92
179,3933376,0.983808,0.08808401,-0.12175599999999999,-1.5925,-5.1275,-4.06
180,3933474,0.9829540000000001,0.08954801,-0.11943800000000002,-1.4875,-5.0925,-4.025
181,3933572,0.9828321,0.09162200000000001,-0.11870599999999999,-1.4525,-5.0575,-4.06
182,3933670,0.9833200000000001,0.09040201,-0.117486,-1.2775,-5.145,-4.0775
183,3933768,0.9862479999999999,0.090158,-0.11870599999999999,-0.945,-5.2675,-4.165
184,3933866,0.9862479999999999,0.089792,-0.11760799999999999,-0.665,-5.3025,-4.27
185,3933964,0.9894200000000001,0.09028,-0.118218,-0.455,-5.2325,-4.375
186,3934061,0.987712,0.08637601,-0.11955999999999999,-0.3675,-5.3025,-4.3575
187,3934159,0.9845401,0.085522,-0.12041400000000001,-0.525,-5.3025,-4.4625
188,3934257,0.9829540000000001,0.08442401,-0.119316,-0.8575,-5.2675,-4.515
189,3934355,0.983808,0.08430201,-0.121268,-1.12,-5.215,-4.4275
190,3934453,0.9834421,0.08174001,-0.121024,-1.3475,-5.39,-4.3225
191,3934551,0.9821,0.081984,-0.122,-1.5575,-5.5125,-4.1475
192,3934649,0.979294,0.08344800000000001,-0.121878,-1.8725,-5.5825,-3.955
193,3934747,0.9775860000000001,0.08625401,-0.119804,-2.065,-5.6,-3.99
194,3934845,0.9766101,0.08723001,-0.119316,-2.275,-5.5475,-3.9375
195,3934943,0.9772200999999999,0.089304,-0.119682,-2.31,-5.4775,-3.885
196,3935040,0.9775860000000001,0.089792,-0.119072,-2.2225,-5.425,-3.7625
197,3935138,0.9785620999999999,0.09052401,-0.116998,-2.135,-5.3025,-3.8325
198,3935236,0.9799041,0.09418401,-0.11504600000000001,-1.89,-5.4425,-3.9375
199,3935334,0.9779521000000001,0.09552601,-0.115534,-1.6975,-5.5125,-3.955
200,3935432,0.9799041,0.09650201,-0.116388,-1.505,-5.1975,-3.9375
201,3935530,0.9795381,0.09589201,-0.11870599999999999,-1.225,-4.935,-4.0075
202,3935628,0.976,0.094062,-0.11943800000000002,-0.945,-4.725,-4.095
203,3935726,0.973316,0.093086,-0.11943800000000002,-0.735,-4.5325,-4.165
204,3935824,0.976,0.091134,-0.12029200000000001,-0.7,-4.2175,-4.1825
205,3935922,0.9806360000000001,0.087108,-0.11626600000000001,-0.77,-3.8675,-4.3575
206,3936019,0.9829540000000001,0.08430201,-0.11577799999999999,-0.8400001,-3.605,-4.2875
207,3936117,0.9851501,0.08442401,-0.11650999999999999,-0.805,-3.5175,-4.235
208,3936215,0.987712,0.08454600000000001,-0.118096,-0.9625,-3.5875,-4.2525
209,3936313,0.990884,0.08674201,-0.114802,-0.98,-3.8325,-4.025
210,3936411,0.9919821,0.08344800000000001,-0.11138599999999999,-1.155,-3.99,-4.025
211,3936509,0.993812,0.085156,-0.11041,-1.1725,-4.025,-3.955
212,3936607,0.993202,0.084912,-0.11358199999999999,-1.0675,-4.13,-3.85
213,3936705,0.9949100000000001,0.08625401,-0.11467999999999999,-0.77,-4.3225,-3.92
214,3936803,0.9945440000000001,0.08662001,-0.11773,-0.5075,-4.515,-3.92
215,3936901,0.993202,0.084912,-0.118218,-0.1925,-4.7425,-3.92
216,3936999,0.992348,0.08723001,-0.12053599999999999,0.07,-4.97,-4.0425
217,3937096,0.992714,0.08857201,-0.12139000000000001,0.1225,-5.25,-4.1475
218,3937194,0.99308,0.08845001,-0.122732,0.175,-5.3725,-4.2525
219,3937292,0.9941780000000001,0.08527801,-0.12456199999999999,0.28,-5.6525,-4.4975
220,3937390,0.9939341,0.085522,-0.12456199999999999,0.4725,-6.0725,-4.7075
221,3937488,0.9945440000000001,0.0854,-0.125782,0.6825,-6.3875,-4.725
222,3937586,0.9950319999999999,0.082594,-0.124196,0.8225,-6.7375,-4.795
223,3937684,0.9934460999999999,0.079178,-0.125538,0.875,-6.93,-4.69
224,3937782,0.989664,0.07722601,-0.126392,0.8400001,-7.0175,-4.5675
225,3937880,0.985516,0.077592,-0.12456199999999999,0.805,-7.07,-4.445
226,3937978,0.985516,0.07856801,-0.12358599999999999,0.77,-7.1575,-4.375
227,3938075,0.9823440999999999,0.0793,-0.124928,0.665,-7.2975,-4.375
228,3938173,0.981978,0.077836,-0.12285399999999999,0.56,-7.5425,-4.41
229,3938271,0.9818561,0.080154,-0.121268,0.665,-7.805,-4.48
230,3938369,0.9821,0.080276,-0.12212200000000001,0.875,-7.8925,-4.445
231,3938467,0.978928,0.080886,-0.12212200000000001,1.085,-7.7525,-4.41
232,3938565,0.9768540000000001,0.080764,-0.12212200000000001,1.26,-7.5775,-4.4275
233,3938663,0.974658,0.081862,-0.121512,1.3825,-7.6125,-4.3925
234,3938761,0.975634,0.08369201,-0.12139000000000001,1.33,-7.4725,-4.4275
235,3938859,0.9767321,0.08405800000000001,-0.11943800000000002,1.3475,-7.4725,-4.515
236,3938957,0.981124,0.083814,-0.11650999999999999,1.5575,-7.525,-4.48
237,3939054,0.9813681000000001,0.08296,-0.11773,1.925,-7.42,-4.6375
238,3939152,0.98149,0.083814,-0.11712,2.1175,-7.385,-4.8475
239,3939250,0.9818561,0.081618,-0.116998,2.1875,-7.175,-4.9875
240,3939348,0.9796600000000001,0.080398,-0.12139000000000001,2.0825,-7.035,-5.1275
241,3939446,0.9797819999999999,0.079544,-0.12261,1.89,-6.755,-5.0925
242,3939544,0.9812460999999999,0.07856801,-0.12041400000000001,1.7675,-6.7725,-5.11
243,3939642,0.9857600000000001,0.074664,-0.122,1.5925,-6.8425,-5.075
244,3939740,0.9845401,0.07246799999999999,-0.12212200000000001,1.5575,-6.7375,-5.1625
245,3939838,0.984174,0.072712,-0.12334200000000001,1.5575,-6.755,-5.1625
246,3939936,0.980758,0.07515201,-0.12505,1.47,-6.8775,-5.1275
247,3940033,0.978806,0.07344400000000001,-0.123464,1.2425,-6.895,-5.0575
248,3940131,0.976366,0.076494,-0.12444000000000001,1.1725,-6.79,-5.0225
249,3940229,0.9769760000000001,0.07698201,-0.12383,1.1025,-6.7375,-5.005
250,3940327,0.9791719999999999,0.07637200000000001,-0.12529400000000002,1.1375,-6.72,-5.005
251,3940425,0.978196,0.07698201,-0.12444000000000001,0.9625,-6.8775,-5.04
252,3940523,0.9762440999999998,0.07893401,-0.126026,0.8575,-7.0525,-4.9525
253,3940621,0.976,0.079178,-0.127246,0.875,-7.035,-4.97
254,3940719,0.97478,0.079056,-0.126148,0.8575,-6.9825,-4.9875
255,3940817,0.9716081,0.07625,-0.127856,0.9275,-7.0,-5.0575
256,3940915,0.9686799999999999,0.07356601,-0.12749000000000002,0.875,-6.755,-5.25
257,3941013,0.9684360999999999,0.07417601,-0.12651400000000002,0.8575,-6.6325,-5.3725
258,3941110,0.9708760000000001,0.07564,-0.126026,0.8225,-6.5275,-5.565
259,3941208,0.9741700000000001,0.07893401,-0.12444000000000001,0.56,-6.44,-5.67
260,3941306,0.9769760000000001,0.078446,-0.125538,0.2625,-6.0725,-5.6175
261,3941404,0.9785620999999999,0.080886,-0.122976,0.1225,-5.7225,-5.4775
262,3941502,0.9757561,0.081862,-0.12261,0.105,-5.4425,-5.2325
263,3941600,0.9752681000000001,0.08003201,-0.123464,0.0175,-5.0575,-5.0575
264,3941698,0.9774639999999999,0.079056,-0.122732,0.035,-4.8475,-4.83
265,3941796,0.975024,0.079422,-0.121512,0.0875,-4.76,-4.7425
266,3941894,0.9768540000000001,0.081252,-0.12212200000000001,0.1575,-4.585,-4.655
267,3941992,0.979294,0.08430201,-0.12175599999999999,0.42,-4.3925,-4.6725
268,3942090,0.98088,0.08771799999999999,-0.12078,0.6125,-4.1825,-4.7775
269,3942187,0.9812460999999999,0.09125599999999999,-0.12175599999999999,0.8575,-4.2175,-4.7775
270,3942285,0.9840521000000001,0.090036,-0.123098,1.225,-4.165,-4.9
271,3942383,0.982466,0.086132,-0.124928,1.54,-4.1825,-4.935
272,3942481,0.9853940999999999,0.08466801,-0.12358599999999999,1.855,-4.2525,-5.0225
273,3942579,0.9886881,0.082472,-0.12395199999999999,1.995,-4.3925,-5.18
274,3942677,0.990518,0.083204,-0.125904,1.9425,-4.5675,-5.4075
275,3942775,0.9917379999999999,0.08479,-0.126636,1.715,-4.7775,-5.5125
276,3942873,0.993568,0.08479,-0.125904,1.54,-5.145,-5.5475
277,3942971,0.9939341,0.082716,-0.12712400000000001,1.365,-5.4075,-5.495
278,3943069,0.992592,0.081618,-0.12895399999999999,1.3475,-5.425,-5.565
279,3943166,0.99125,0.08003201,-0.130418,1.2425,-5.6,-5.565
280,3943264,0.9873460999999999,0.07991000000000001,-0.12993,1.0325,-5.4775,-5.53
281,3943362,0.9831981,0.07698201,-0.129686,0.6825,-5.5475,-5.4425
282,3943460,0.9802700000000001,0.07515201,-0.132126,0.42,-5.6,-5.355
283,3943558,0.9802700000000001,0.07503,-0.132004,0.0875,-5.8275,-5.3725
284,3943656,0.9801479999999999,0.07551801,-0.131028,0.0525,-5.9675,-5.285
285,3943754,0.9818561,0.075762,-0.13078399999999998,0.1925,-6.2475,-5.145
286,3943852,0.9827101,0.07612801,-0.130906,0.245,-6.265,-5.1625
287,3943950,0.9823440999999999,0.077958,-0.12761199999999998,0.3675,-6.2125,-5.215
288,3944048,0.9834421,0.079056,-0.126392,0.4375,-6.37,-5.1975
289,3944146,0.9857600000000001,0.078202,-0.12651400000000002,0.3675,-6.44,-5.2675
290,3944243,0.9852719999999999,0.0793,-0.12395199999999999,0.28,-6.37,-5.3025
291,3944341,0.9840521000000001,0.078446,-0.12431800000000001,0.315,-6.3525,-5.2325
292,3944439,0.98149,0.079422,-0.125904,0.35,-6.4225,-5.3025
293,3944537,0.9818561,0.07893401,-0.12675799999999998,0.4025,-6.4925,-5.3025
294,3944635,0.9817341,0.077958,-0.126636,0.2975,-6.4225,-5.3725
295,3944733,0.98088,0.078446,-0.12651400000000002,0.245,-6.44,-5.32
296,3944831,0.981612,0.078446,-0.127368,0.3325,-6.51,-5.3025
297,3944929,0.9830760000000001,0.07600599999999999,-0.128222,0.1575,-6.475,-5.32
298,3945027,0.9829540000000001,0.076738,-0.12566,0.035,-6.65,-5.32
299,3945125,0.9831981,0.07612801,-0.12468399999999999,-0.1225,-6.9125,-5.25
300,3945223,0.9840521000000001,0.074664,-0.12529400000000002,-0.385,-6.9125,-5.25
301,3945321,0.9852719999999999,0.071492,-0.122976,-0.5775,-6.9475,-5.25
302,3945418,0.9883221,0.07076001,-0.12395199999999999,-0.665,-6.79,-5.215
303,3945516,0.990762,0.069662,-0.121146,-0.735,-6.8775,-5.18
304,3945614,0.992348,0.07112601,-0.12017,-0.805,-6.965,-5.32
305,3945712,0.9910059999999999,0.074542,-0.119682,-0.9275,-7.1925,-5.46
306,3945810,0.9886881,0.08064199,-0.12065799999999999,-1.155,-7.3325,-5.6
307,3945908,0.9860040999999999,0.081252,-0.120902,-1.575,-7.28,-5.67
308,3946006,0.9860040999999999,0.081374,-0.12029200000000001,-1.855,-7.245,-5.6525
309,3946104,0.981124,0.079178,-0.12029200000000001,-2.1,-7.105,-5.7225
310,3946202,0.9740479999999999,0.076616,-0.121512,-2.205,-7.07,-5.6525
311,3946300,0.971974,0.07625,-0.12212200000000001,-2.5375,-6.86,-5.5825
312,3946397,0.971974,0.07612801,-0.12261,-2.8525,-6.72,-5.355
313,3946495,0.975024,0.07551801,-0.12322000000000001,-2.9925,-6.755,-5.285
314,3946593,0.978806,0.07442,-0.12029200000000001,-3.15,-6.895,-5.215
315,3946691,0.9830760000000001,0.07527400000000001,-0.12053599999999999,-3.15,-6.825,-5.0225
316,3946789,0.984906,0.076616,-0.11943800000000002,-3.1325,-6.8425,-5.04
317,3946887,0.9873460999999999,0.079056,-0.12065799999999999,-3.1675,-6.9125,-5.075
318,3946985,0.98759,0.08113001,-0.122732,-3.15,-6.86,-5.1625
319,3947083,0.988566,0.08052000000000001,-0.12651400000000002,-3.1325,-6.79,-5.2325
320,3947181,0.9901521000000001,0.080398,-0.12688,-3.0975,-6.895,-5.285
321,3947279,0.995398,0.07881200000000001,-0.127002,-2.905,-7.0,-5.3025
322,3947377,0.9951540000000001,0.07832401,-0.128222,-2.835,-6.9825,-5.285
323,3947475,0.993568,0.07978801,-0.13078399999999998,-2.7475,-7.1225,-5.215
324,3947572,0.9892981,0.082472,-0.131028,-2.6425,-7.42,-5.2675
325,3947670,0.985516,0.08357,-0.132858,-2.52,-7.595,-5.3025
326,3947768,0.981124,0.08405800000000001,-0.134444,-2.2225,-7.5075,-5.46
327,3947866,0.978196,0.08479,-0.1342,-2.1175,-7.665,-5.5825
328,3947964,0.9762440999999998,0.08576601,-0.134078,-2.1,-7.77,-5.775
329,3948062,0.9751460999999999,0.089304,-0.133224,-2.1525,-7.945,-6.0375
330,3948160,0.9734381,0.089426,-0.1342,-2.4325,-8.0325,-6.1075
331,3948258,0.975512,0.08430201,-0.135542,-2.8525,-7.875,-6.1425
332,3948356,0.9779521000000001,0.07612801,-0.13383399999999998,-3.36,-7.63,-5.8975
333,3948454,0.9784401,0.07002799999999999,-0.133346,-3.78,-7.4025,-5.67
334,3948552,0.975512,0.06795401,-0.137128,-4.3575,-7.2975,-5.6525
335,3948649,0.9740479999999999,0.070516,-0.137128,-4.97,-7.1575,-5.425
336,3948747,0.9745360000000001,0.07637200000000001,-0.139934,-5.6,-7.1575,-5.285
337,3948845,0.9791719999999999,0.08174001,-0.13664,-5.845,-7.2275,-5.11
338,3948943,0.9856379999999999,0.08674201,-0.134688,-5.635,-7.42,-5.0225
339,3949041,0.9892981,0.08893801,-0.133346,-5.3375,-7.35,-4.8825
340,3949139,0.990274,0.09394001,-0.134688,-4.8475,-7.35,-4.9525
341,3949237,0.990884,0.099186,-0.137372,-4.34,-7.49,-5.145
342,3949335,0.9944221,0.10394400000000001,-0.13725,-3.7275,-7.6825,-5.25
343,3949433,0.9969841,0.10687200000000001,-0.137006,-3.2375,-8.0325,-5.25
344,3949531,0.9983261,0.105896,-0.138714,-2.765,-8.295,-5.32
345,3949629,0.995886,0.104676,-0.14152,-2.065,-8.505,-5.3375
346,3949727,0.993202,0.10126,-0.146766,-1.5575,-8.5925,-5.39
347,3949824,0.986614,0.09991799999999999,-0.15006,-1.015,-8.6975,-5.4075
348,3949922,0.9802700000000001,0.099552,-0.151402,-0.875,-8.8725,-5.4425
349,3950020,0.9745360000000001,0.099186,-0.150426,-0.7175,-9.135,-5.5125
350,3950118,0.9730721,0.099186,-0.151646,-0.6125,-9.1,-5.5825
351,3950216,0.9720960999999999,0.09930800000000001,-0.154452,-0.665,-8.995,-5.6525
352,3950314,0.9702661,0.09577000000000001,-0.1525,-0.665,-9.0825,-5.74
353,3950412,0.967216,0.09247601,-0.15189,-0.77,-9.1175,-5.7575
354,3950510,0.965752,0.089304,-0.149084,-1.155,-8.89,-5.6875
355,3950608,0.9656300999999999,0.089426,-0.149206,-1.54,-8.7325,-5.565
356,3950706,0.965752,0.087474,-0.145302,-1.925,-8.33,-5.565
357,3950804,0.9679481,0.08662001,-0.146278,-2.2925,-8.295,-5.495
358,3950901,0.9709979999999999,0.08649801,-0.14335,-2.66,-8.295,-5.4075
359,3950999,0.971974,0.08918200000000001,-0.142252,-2.94,-8.12,-5.5475
360,3951097,0.972218,0.092964,-0.144082,-3.185,-8.155,-5.53
361,3951195,0.976,0.09540401,-0.145424,-3.22,-8.1025,-5.53
362,3951293,0.978196,0.096014,-0.14213,-3.01,-8.1725,-5.4775
363,3951391,0.9797819999999999,0.100284,-0.143228,-2.6425,-8.19,-5.4075
364,3951489,0.978318,0.10065,-0.14347200000000002,-2.555,-7.9625,-5.46
365,3951587,0.9767321,0.09942999999999999,-0.146644,-2.485,-7.63,-5.6175
366,3951685,0.975024,0.094672,-0.14945,-2.5025,-7.56,-5.6175
367,3951783,0.9753901,0.09333,-0.14884,-2.66,-7.595,-5.635
368,3951881,0.9752681000000001,0.093574,-0.14945,-2.5725,-7.5425,-5.6
369,3951978,0.9734381,0.09186601,-0.152134,-2.6425,-7.49,-5.6525
370,3952076,0.975024,0.089426,-0.15433,-2.8175,-7.455,-5.4425
371,3952174,0.9724620999999999,0.089792,-0.15274400000000002,-2.87,-7.4375,-5.355
372,3952272,0.9738041,0.090768,-0.153842,-2.905,-7.455,-5.3725
373,3952370,0.9745360000000001,0.09235399999999999,-0.152256,-3.045,-7.35,-5.32
374,3952468,0.975024,0.09455001,-0.154574,-3.0625,-7.3325,-5.32
375,3952566,0.97478,0.096014,-0.15494000000000002,-3.01,-7.3325,-5.32
376,3952664,0.975634,0.097966,-0.156038,-2.8875,-7.2975,-5.39
377,3952762,0.978684,0.09821001,-0.15799000000000002,-2.695,-7.35,-5.495
378,3952860,0.9785620999999999,0.09869801,-0.16165,-2.6075,-7.2625,-5.5825
379,3952958,0.9821,0.09845401,-0.163114,-2.6425,-7.315,-5.74
380,3953055,0.9834421,0.09650201,-0.162138,-2.7125,-7.595,-5.6525
381,3953153,0.9823440999999999,0.094672,-0.16226,-2.9575,-7.91,-5.74
382,3953251,0.9827101,0.0976,-0.165188,-3.185,-7.875,-5.8275
383,3953349,0.980758,0.09784401,-0.166286,-3.2375,-8.0325,-5.7575
384,3953447,0.978074,0.09625801,-0.167506,-2.9925,-8.19,-5.845
385,3953545,0.9766101,0.09711201,-0.169214,-2.94,-8.33,-5.775
386,3953643,0.9724620999999999,0.095648,-0.168238,-3.2375,-8.5575,-5.88
387,3953741,0.9734381,0.09711201,-0.171898,-3.43,-8.6275,-5.7575
388,3953839,0.9730721,0.095038,-0.17397200000000002,-3.78,-8.82,-5.7925
389,3953937,0.97356,0.09455001,-0.17433800000000002,-3.92,-8.855,-5.635
390,3954035,0.973194,0.09479401,-0.17507,-4.0775,-8.96,-5.5475
391,3954132,0.9708760000000001,0.09455001,-0.17385,-4.0775,-9.1175,-5.53
392,3954230,0.9688021000000001,0.09625801,-0.172752,-4.13,-9.1525,-5.46
393,3954328,0.9669721,0.09784401,-0.17055599999999999,-4.025,-8.9775,-5.5825
394,3954426,0.9629459999999999,0.101748,-0.167628,-3.9025,-8.8025,-5.5825
395,3954524,0.9613601,0.102968,-0.168726,-3.7625,-8.61,-5.5125
396,3954622,0.962458,0.10309000000000001,-0.16775,-3.675,-8.5575,-5.565
397,3954720,0.961482,0.102358,-0.16714,-3.535,-8.47,-5.46
398,3954818,0.9636780999999999,0.10187,-0.16409,-3.4125,-8.47,-5.285
399,3954916,0.9684360999999999,0.100772,-0.16506600000000002,-3.3775,-8.505,-5.1975
400,3955014,0.969412,0.100406,-0.16409,-3.3775,-8.3475,-5.1275
401,3955112,0.969412,0.10052799999999999,-0.165554,-3.3425,-8.085,-5.0575
402,3955210,0.965752,0.101504,-0.16689600000000002,-3.29,-7.805,-4.9525
403,3955308,0.9623360999999999,0.101626,-0.166408,-3.255,-7.56,-5.0225
404,3955405,0.96014,0.102358,-0.162138,-3.255,-7.455,-4.97
405,3955503,0.961116,0.102724,-0.160308,-3.22,-7.1575,-4.865
406,3955601,0.9622141,0.10638399999999999,-0.165554,-3.3075,-6.8425,-4.8125
407,3955699,0.9675819999999999,0.105652,-0.166408,-3.395,-6.7025,-4.55
408,3955797,0.97356,0.103822,-0.163724,-3.29,-6.5975,-4.3925
409,3955895,0.9770981,0.10248,-0.16287000000000001,-3.29,-6.405,-4.375
410,3955993,0.9801479999999999,0.10248,-0.161162,-3.36,-6.1775,-4.5325
411,3956091,0.98088,0.101748,-0.163236,-3.4475,-6.125,-4.725
412,3956189,0.9800261,0.103578,-0.160796,-3.7275,-5.8975,-4.8825
413,3956287,0.9772200999999999,0.104554,-0.160918,-3.9375,-5.8975,-4.9
414,3956385,0.9749021000000001,0.10687200000000001,-0.162138,-3.745,-5.7925,-4.795
415,3956482,0.9741700000000001,0.110654,-0.164822,-3.675,-5.775,-4.8125
416,3956580,0.9741700000000001,0.112728,-0.162992,-3.43,-5.8975,-4.76
417,3956678,0.9741700000000001,0.11358199999999999,-0.163846,-3.0275,-5.985,-4.6375
418,3956776,0.9749021000000001,0.11224,-0.164578,-2.73,-5.705,-4.83
419,3956874,0.9729501,0.11126400000000002,-0.167384,-2.52,-5.7925,-4.935
420,3956972,0.973194,0.10943399999999999,-0.16909200000000002,-2.6425,-5.845,-4.865
421,3957070,0.9738041,0.10797000000000001,-0.17214200000000002,-2.94,-5.845,-4.9525
422,3957168,0.974658,0.10650599999999999,-0.172264,-3.325,-5.915,-4.9875
423,3957266,0.9764879999999999,0.1037,-0.171776,-3.4475,-5.8975,-4.83
424,3957364,0.971974,0.101748,-0.17140999999999998,-3.6225,-5.8275,-4.795
425,3957462,0.9706319999999999,0.10248,-0.17214200000000002,-3.5875,-5.7575,-4.7775
426,3957560,0.969534,0.104432,-0.172996,-3.5,-5.565,-4.69
427,3957657,0.969534,0.11041,-0.17629,-3.6225,-5.81,-4.69
428,3957755,0.9739261,0.112606,-0.17263,-3.8325,-5.915,-4.7775
429,3957853,0.979294,0.11529,-0.17128800000000002,-4.0075,-6.055,-4.9525
430,3957951,0.982466,0.11626600000000001,-0.171898,-4.1825,-6.0025,-5.075
431,3958049,0.981978,0.118828,-0.171898,-4.3575,-5.9675,-5.2325
432,3958147,0.981002,0.11626600000000001,-0.174704,-4.7425,-5.9325,-5.565
433,3958245,0.9769760000000001,0.108824,-0.16530999999999998,-4.935,-5.74,-5.775
434,3958343,0.9736819999999999,0.11236199999999999,-0.164212,-4.935,-5.495,-5.8275
435,3958441,0.96624,0.114192,-0.162382,-5.04,-5.2675,-6.0025
436,3958539,0.9602620999999999,0.121878,-0.163602,-5.0575,-5.04,-5.985
437,3958637,0.9564799999999999,0.121024,-0.165432,-4.8475,-5.145,-5.7225
438,3958734,0.9596520000000001,0.12163399999999999,-0.166408,-4.5325,-5.53,-5.355
439,3958832,0.9630681000000001,0.116876,-0.167384,-4.235,-5.985,-4.8125
440,3958930,0.9680700000000001,0.10528599999999999,-0.162992,-3.7975,-6.055,-4.095
441,3959028,0.9675819999999999,0.09186601,-0.1647,-3.6925,-5.9325,-3.5875
442,3959126,0.965874,0.08417999999999999,-0.168848,-4.13,-5.775,-3.0275
443,3959224,0.9641661,0.079178,-0.173484,-5.075,-5.6,-2.5375
444,3959322,0.965996,0.077348,-0.172508,-5.565,-5.5475,-2.205
445,3959420,0.9674601,0.07869,-0.172874,-5.7925,-5.495,-2.065
446,3959518,0.9702661,0.080276,-0.164822,-5.46,-5.4425,-2.1525
447,3959616,0.9766101,0.09674601,-0.16592,-4.795,-4.865,-2.5025
448,3959714,0.9791719999999999,0.119682,-0.16897,-4.515,-4.55,-3.0275
449,3959811,0.9790501,0.135054,-0.165676,-3.9375,-4.235,-3.64
450,3959909,0.9740479999999999,0.14786400000000002,-0.16348,-3.0975,-3.9725,-4.06
451,3960007,0.964044,0.149816,-0.166286,-2.0125,-4.1475,-4.1125
452,3960105,0.9572120999999999,0.142252,-0.169336,-1.015,-4.2875,-3.7975
453,3960203,0.96014,0.128344,-0.172752,-0.21,-4.305,-3.1675
454,3960301,0.9686799999999999,0.111996,-0.1708,0.49,-4.235,-2.625
455,3960399,0.97356,0.09821001,-0.165798,1.085,-4.305,-2.1875
456,3960497,0.9779521000000001,0.091134,-0.164578,1.2425,-4.165,-2.0125
457,3960595,0.981612,0.09247601,-0.16201600000000002,1.0675,-3.745,-2.3625
458,3960693,0.9801479999999999,0.09650201,-0.15799000000000002,0.98,-3.3075,-2.765
459,3960791,0.9745360000000001,0.10553,-0.1586,0.98,-3.1675,-3.2375
460,3960888,0.9729501,0.115656,-0.15945399999999998,1.19,-2.9575,-3.64
461,3960986,0.97356,0.121878,-0.15982000000000002,1.5225,-3.255,-3.885
462,3961084,0.9740479999999999,0.12431800000000001,-0.159088,2.065,-3.5875,-3.9375
463,3961182,0.9753901,0.122366,-0.159942,2.73,-3.8325,-3.9025
464,3961280,0.9791719999999999,0.1159,-0.16043,3.29,-4.025,-3.7275
465,3961378,0.980514,0.107726,-0.164456,3.6575,-3.9025,-3.6225
466,3961476,0.978806,0.099186,-0.164822,3.71,-3.8675,-3.535
467,3961574,0.978806,0.09638,-0.164944,3.745,-3.92,-3.5525
468,3961672,0.9784401,0.094672,-0.167872,3.535,-4.165,-3.7975
469,3961770,0.9795381,0.09711201,-0.16714,3.2725,-4.41,-3.92
470,3961868,0.9831981,0.098088,-0.16409,3.2025,-4.585,-4.1475
471,3961966,0.9833200000000001,0.09991799999999999,-0.161162,3.0975,-4.795,-4.3225
472,3962063,0.978928,0.09930800000000001,-0.16226,2.9925,-4.8125,-4.34
473,3962161,0.974292,0.09942999999999999,-0.162748,2.975,-4.865,-4.305
474,3962259,0.972706,0.099674,-0.16530999999999998,3.045,-5.005,-4.235
475,3962357,0.9739261,0.096868,-0.167994,2.8875,-5.1975,-4.165
476,3962455,0.978318,0.09284201,-0.17055599999999999,2.66,-5.425,-4.1125
477,3962553,0.9834421,0.08820599999999999,-0.169702,2.3975,-5.67,-4.06
478,3962651,0.984906,0.08344800000000001,-0.168604,2.1875,-5.7225,-4.13
479,3962749,0.982466,0.08235001,-0.167506,1.8725,-5.74,-4.06
480,3962847,0.978806,0.082228,-0.167628,1.505,-5.6525,-4.2175
481,3962945,0.9739261,0.08332601,-0.166286,1.225,-5.6,-4.2875
482,3963043,0.9702661,0.08637601,-0.167018,1.1025,-5.5475,-4.2175
483,3963141,0.9683141,0.08967,-0.166042,0.9975,-5.39,-4.235
484,3963239,0.968192,0.090646,-0.166164,0.8225,-5.4775,-4.2
485,3963336,0.97173,0.08820599999999999,-0.163846,0.7875,-5.495,-4.1825
486,3963434,0.975878,0.08784,-0.16104000000000002,0.945,-5.3375,-4.095
487,3963532,0.976,0.08527801,-0.15725799999999998,1.05,-5.285,-4.025
488,3963630,0.977342,0.08417999999999999,-0.155428,1.015,-5.075,-4.095
489,3963728,0.97478,0.08442401,-0.154696,0.91,-4.8825,-4.095
490,3963826,0.974292,0.08466801,-0.153476,0.7525,-4.795,-4.1475
491,3963924,0.9739261,0.08576601,-0.154696,0.63,-4.7075,-4.06
492,3964022,0.97356,0.08723001,-0.153598,0.525,-4.7425,-3.92
493,3964120,0.9745360000000001,0.08637601,-0.154696,0.3675,-4.6025,-3.99
494,3964218,0.9724620999999999,0.087474,-0.154818,0.2625,-4.515,-3.9025
495,3964316,0.972706,0.087108,-0.156038,0.0,-4.655,-3.85
496,3964413,0.973194,0.08662001,-0.15494000000000002,-0.175,-4.62,-3.6575
497,3964511,0.975024,0.085156,-0.153232,-0.3675,-4.6375,-3.6575
498,3964609,0.974292,0.084912,-0.15311,-0.5075,-4.5325,-3.6225
499,3964707,0.9711200999999999,0.08308201,-0.155184,-0.525,-4.4275,-3.36
500,3964805,0.9691681000000001,0.08417999999999999,-0.154696,-0.7175,-4.165,-3.29
501,3964903,0.9686799999999999,0.08637601,-0.15054800000000002,-0.7,-3.9025,-3.1325
502,3965001,0.9674601,0.08954801,-0.149206,-0.7,-3.7975,-3.08
503,3965099,0.9653860000000001,0.09223200000000001,-0.147376,-0.665,-3.7625,-2.9925
504,3965197,0.9652639999999999,0.094306,-0.144082,-0.42,-3.675,-2.905
505,3965295,0.9677040000000001,0.0976,-0.145424,-0.245,-3.64,-2.905
506,3965393,0.972706,0.09650201,-0.14945,0.07,-3.4475,-2.835
507,3965490,0.979416,0.091012,-0.14993800000000002,0.4375,-3.325,-2.8525
508,3965588,0.987224,0.08625401,-0.149084,0.7175,-3.2375,-2.8525
509,3965686,0.990884,0.08417999999999999,-0.15006,0.77,-3.045,-3.22
510,3965784,0.9918600000000001,0.08100801,-0.146644,0.6475,-2.975,-3.6925
511,3965882,0.99308,0.08454600000000001,-0.145302,0.49,-3.08,-3.8675
512,3965980,0.9921040999999999,0.08881599,-0.145546,0.315,-3.2025,-4.095
513,3966078,0.990518,0.091744,-0.147498,0.2975,-3.605,-4.095
514,3966176,0.9900300999999999,0.095038,-0.14945,0.35,-4.0075,-4.0425
515,3966274,0.990274,0.094306,-0.15311,0.5075,-4.445,-3.99
516,3966372,0.993568,0.092964,-0.154452,0.7,-4.8825,-3.8675
517,3966470,0.9944221,0.087962,-0.155306,0.875,-5.18,-3.92
518,3966568,0.9943001,0.08357,-0.152866,0.9975,-5.355,-3.9375
519,3966665,0.993202,0.080398,-0.156648,1.015,-5.4075,-4.13
520,3966763,0.9858819999999999,0.07881200000000001,-0.160064,0.875,-5.3725,-4.3575
521,3966861,0.975878,0.081374,-0.156892,0.6825,-5.355,-4.375
522,3966959,0.9705101,0.08662001,-0.156892,0.4725,-5.7225,-4.2875
523,3967057,0.968192,0.087962,-0.15506199999999998,0.56,-6.125,-4.3575
524,3967155,0.969534,0.08625401,-0.151524,0.5075,-6.2825,-4.27
525,3967253,0.9697780999999999,0.081374,-0.15128,0.56,-6.44,-4.375
526,3967351,0.9724620999999999,0.07515201,-0.152622,0.4025,-6.23,-4.34
527,3967449,0.97356,0.07198,-0.15006,0.105,-6.195,-4.34
528,3967547,0.9744141,0.06929600000000001,-0.14701,-0.1925,-6.4925,-4.4625
529,3967645,0.9774639999999999,0.068686,-0.143594,-0.56,-6.405,-4.5325
530,3967743,0.9791719999999999,0.07027201,-0.14396,-0.9275,-6.16,-4.515
531,3967841,0.9796600000000001,0.07234600000000001,-0.147254,-1.085,-5.915,-4.4275
532,3967938,0.978806,0.074054,-0.145058,-1.085,-5.6525,-4.3225
533,3968036,0.9797819999999999,0.074054,-0.147254,-1.19,-5.6525,-4.2175
534,3968134,0.97783,0.074664,-0.147742,-1.54,-5.7575,-4.0425
535,3968232,0.9803921,0.074298,-0.14688800000000002,-1.8025,-5.8975,-3.955
536,3968330,0.980514,0.07564,-0.146766,-1.96,-6.0025,-3.9025
537,3968428,0.9800261,0.07625,-0.148108,-1.96,-5.9675,-3.9025
538,3968526,0.9768540000000001,0.07600599999999999,-0.150304,-1.9075,-5.81,-3.9375
539,3968624,0.975024,0.07856801,-0.149694,-1.6275,-5.88,-3.955
540,3968722,0.9752681000000001,0.078446,-0.15018199999999998,-1.4175,-5.915,-4.0425
541,3968820,0.97356,0.079056,-0.149206,-1.4175,-5.9325,-4.2175
542,3968918,0.977342,0.080398,-0.148596,-1.3475,-5.7925,-4.4625
543,3969016,0.9796600000000001,0.080276,-0.14884,-1.4,-5.88,-4.5675
544,3969113,0.9795381,0.07893401,-0.14798599999999998,-1.3825,-5.95,-4.69
545,3969211,0.9800261,0.07808001,-0.148474,-1.2775,-6.0025,-4.725
546,3969309,0.9797819999999999,0.07564,-0.149206,-1.26,-6.055,-4.69
547,3969407,0.9784401,0.07490801,-0.150304,-1.4175,-6.125,-4.62
548,3969505,0.979294,0.07417601,-0.14993800000000002,-1.5575,-6.3175,-4.585
549,3969603,0.980758,0.07332201,-0.150304,-1.6275,-6.405,-4.48
550,3969701,0.9834421,0.070638,-0.15067,-1.5575,-6.4925,-4.4625
551,3969799,0.986614,0.07027201,-0.151158,-1.575,-6.5625,-4.4625
552,3969897,0.9861260000000001,0.07234600000000001,-0.15091400000000002,-1.575,-6.545,-4.7075
553,3969995,0.9828321,0.07637200000000001,-0.154574,-1.4525,-6.4575,-4.69
554,3970092,0.978196,0.076738,-0.155916,-1.5225,-6.6675,-4.55
555,3970190,0.9751460999999999,0.078202,-0.15738,-1.54,-6.8775,-4.585
556,3970288,0.9736819999999999,0.078202,-0.15725799999999998,-1.5575,-6.79,-4.6375
557,3970386,0.9725841000000001,0.079056,-0.15677,-1.435,-6.895,-4.69
558,3970484,0.974658,0.08064199,-0.15701400000000001,-1.365,-6.965,-4.7075
559,3970582,0.97478,0.08100801,-0.15701400000000001,-1.33,-7.0525,-4.7775
560,3970680,0.9753901,0.08064199,-0.157746,-1.33,-7.07,-4.97
561,3970778,0.9768540000000001,0.077958,-0.159332,-1.3825,-6.9825,-5.04
562,3970876,0.9777081,0.07503,-0.15799000000000002,-1.155,-6.8775,-5.0225
563,3970974,0.97478,0.074664,-0.15921,-1.19,-6.6675,-5.11
564,3971071,0.9740479999999999,0.074664,-0.161162,-1.2775,-6.51,-5.145
565,3971169,0.9739261,0.076494,-0.159942,-1.3475,-6.58,-5.1975
566,3971267,0.9762440999999998,0.073688,-0.158112,-1.505,-6.5275,-5.11
567,3971365,0.9741700000000001,0.07283401,-0.159332,-1.6625,-6.58,-5.075
568,3971463,0.9740479999999999,0.07381001,-0.160552,-1.75,-6.5975,-4.9875
569,3971561,0.9736819999999999,0.07332201,-0.158966,-1.8025,-6.5625,-4.9875
570,3971659,0.9734381,0.07198,-0.159088,-1.9075,-6.65,-4.9175
571,3971757,0.975878,0.06954,-0.1586,-2.0125,-6.58,-4.795
572,3971855,0.9784401,0.06929600000000001,-0.1586,-1.855,-6.335,-4.6725
573,3971953,0.9775860000000001,0.069906,-0.160186,-1.715,-6.2125,-4.62
574,3972050,0.9777081,0.06941801,-0.159332,-1.645,-6.1425,-4.76
575,3972148,0.97783,0.07246799999999999,-0.156526,-1.7325,-6.0375,-4.795
576,3972246,0.9762440999999998,0.07612801,-0.159332,-1.855,-6.0725,-4.6725
577,3972344,0.9745360000000001,0.078446,-0.156404,-1.82,-6.02,-4.8125
578,3972442,0.9734381,0.080398,-0.1586,-1.54,-5.9325,-4.7425
579,3972540,0.971242,0.0793,-0.160308,-1.4,-5.7575,-4.8475
580,3972638,0.9691681000000001,0.080154,-0.159942,-1.3475,-5.8625,-4.8825
581,3972736,0.9697780999999999,0.077836,-0.160796,-1.2775,-5.7575,-4.865
582,3972834,0.9724620999999999,0.076616,-0.160674,-1.295,-5.5825,-4.795
583,3972932,0.9741700000000001,0.074664,-0.16287000000000001,-1.3125,-5.565,-4.7775
584,3973030,0.9772200999999999,0.074664,-0.16165,-1.225,-5.495,-4.83
585,3973127,0.9768540000000001,0.07381001,-0.16104000000000002,-1.085,-5.46,-4.7775
586,3973225,0.9774639999999999,0.07393200000000001,-0.16165,-1.05,-5.4425,-4.83
587,3973323,0.97783,0.075396,-0.162504,-1.1025,-5.46,-4.8125
588,3973421,0.9777081,0.074786,-0.163358,-1.225,-5.39,-4.725
589,3973519,0.9785620999999999,0.076616,-0.16201600000000002,-1.26,-5.3375,-4.69
590,3973617,0.9769760000000001,0.07710399999999999,-0.163846,-1.26,-5.4075,-4.6375
591,3973715,0.978074,0.077592,-0.163236,-1.26,-5.4075,-4.865
592,3973813,0.978318,0.077958,-0.163358,-1.05,-5.285,-4.9175
593,3973911,0.979416,0.07856801,-0.162992,-0.91,-5.32,-4.9875
594,3974009,0.981002,0.07893401,-0.16287000000000001,-0.8400001,-5.39,-5.0225
595,3974107,0.9800261,0.07747001,-0.163602,-0.8400001,-5.5475,-5.11
596,3974204,0.9790501,0.07588400000000001,-0.163846,-0.8925,-5.5825,-5.11
597,3974302,0.9770981,0.07722601,-0.162138,-1.0675,-5.5825,-5.04
598,3974400,0.978196,0.07893401,-0.162504,-1.1025,-5.6,-5.11
599,3974498,0.976,0.08100801,-0.163724,-0.9975,-5.74,-5.215
600,3974596,0.9751460999999999,0.07978801,-0.162504,-0.9625,-5.6525,-5.1625
601,3974694,0.9738041,0.07869,-0.16226,-0.98,-5.5475,-5.145
602,3974792,0.971974,0.077836,-0.161406,-1.05,-5.5475,-5.1975
603,3974890,0.9730721,0.07490801,-0.160552,-1.26,-5.53,-5.145
604,3974988,0.9745360000000001,0.07588400000000001,-0.160552,-1.3825,-5.7225,-5.1625
605,3975086,0.9749021000000001,0.074786,-0.15823399999999999,-1.645,-5.705,-5.0575
606,3975183,0.975512,0.07417601,-0.1586,-1.8375,-5.775,-4.9
607,3975281,0.9752681000000001,0.07600599999999999,-0.159088,-2.0125,-5.7925,-4.865
608,3975379,0.9749021000000001,0.07686,-0.159332,-2.03,-5.5825,-4.935
609,3975477,0.9762440999999998,0.07991000000000001,-0.15823399999999999,-2.0475,-5.495,-4.9
610,3975575,0.9762440999999998,0.08064199,-0.156648,-1.9775,-5.4075,-4.8475
611,3975673,0.9762440999999998,0.081862,-0.153842,-1.855,-5.495,-4.9875
612,3975771,0.9762440999999998,0.080764,-0.152622,-1.785,-5.39,-4.9525
613,3975869,0.9777081,0.081984,-0.153598,-1.715,-5.425,-4.935
614,3975967,0.9791719999999999,0.081984,-0.15433,-1.68,-5.425,-5.04
615,3976065,0.978684,0.081618,-0.153842,-1.6975,-5.39,-4.9525
616,3976162,0.978684,0.081374,-0.156038,-1.6975,-5.32,-5.11
617,3976260,0.978196,0.08100801,-0.157502,-1.7325,-5.075,-5.075
618,3976358,0.9766101,0.080886,-0.156038,-1.7675,-5.18,-5.075
619,3976456,0.9767321,0.080764,-0.15506199999999998,-1.9425,-5.215,-5.285
620,3976554,0.975878,0.081374,-0.15677,-2.0125,-5.0575,-5.18
621,3976652,0.9768540000000001,0.080154,-0.157868,-2.1525,-4.9875,-5.1275
622,3976750,0.976,0.082472,-0.157136,-2.1875,-4.9875,-5.1975
623,3976848,0.975512,0.082106,-0.15762400000000001,-2.2925,-4.9525,-5.1975
624,3976946,0.9736819999999999,0.08430201,-0.160674,-2.3975,-4.8475,-5.0225
625,3977044,0.9736819999999999,0.081374,-0.158112,-2.5725,-4.795,-4.9175
626,3977142,0.9761219999999999,0.08003201,-0.16043,-2.625,-4.8825,-4.865
627,3977239,0.9762440999999998,0.080764,-0.158722,-2.6775,-4.865,-4.9175
628,3977337,0.979294,0.081496,-0.15701400000000001,-2.6775,-4.83,-5.005
629,3977435,0.9777081,0.08369201,-0.159088,-2.66,-4.9175,-5.0575
630,3977533,0.978684,0.08662001,-0.15945399999999998,-2.5375,-5.0225,-5.11
631,3977631,0.980514,0.09040201,-0.156038,-2.31,-5.0575,-5.145
632,3977729,0.977342,0.091012,-0.158112,-2.1,-5.11,-5.1275
633,3977827,0.9745360000000001,0.09040201,-0.159576,-1.82,-5.075,-5.0575
634,3977925,0.9718521000000001,0.08857201,-0.159088,-1.61,-4.8825,-5.075
635,3978023,0.9724620999999999,0.085156,-0.157136,-1.505,-5.075,-5.1975
636,3978121,0.9716081,0.08113001,-0.151402,-1.575,-5.1975,-5.18
637,3978219,0.9677040000000001,0.080154,-0.142252,-1.6625,-5.1975,-5.1975
638,3978316,0.958432,0.081496,-0.138958,-2.0825,-5.0575,-5.11
639,3978414,0.9490379999999999,0.08954801,-0.139568,-2.6075,-5.0225,-4.7075
640,3978512,0.9519661,0.09650201,-0.144204,-3.64,-5.3025,-4.1125
641,3978610,0.972218,0.10004,-0.14274,-4.9525,-6.3525,-3.185
642,3978708,0.996862,0.101382,-0.132614,-6.195,-7.98,-2.5725
643,3978806,1.013332,0.100162,-0.128832,-7.6825,-9.2225,-2.1525
644,3978904,1.0199200000000002,0.09674601,-0.127734,-8.89,-9.835,-1.575
645,3979002,1.021994,0.098332,-0.1281,-9.5375,-10.4475,-0.9625
646,3979100,1.012356,0.09516001,-0.1342,-9.625,-10.99,-0.0175
647,3979198,0.996374,0.08954801,-0.13785999999999998,-9.135,-12.1275,1.1025
648,3979296,0.992714,0.095038,-0.14493599999999998,-8.5575,-13.265,2.1
649,3979393,0.9956421,0.098332,-0.158966,-8.225,-14.1925,2.8875
650,3979491,0.9911281,0.097478,-0.149328,-8.2075,-15.96,3.5525
651,3979589,0.9799041,0.08771799999999999,-0.127978,-8.61,-17.01,4.3575
652,3979687,0.9677040000000001,0.081252,-0.123464,-8.61,-15.645,5.005
653,3979785,0.9500139999999999,0.077348,-0.116998,-7.875,-12.915,5.25
654,3979883,0.94001,0.09235399999999999,-0.116632,-6.8425,-9.9925,5.285
655,3979981,0.942816,0.11467999999999999,-0.11712,-5.7225,-8.0325,4.655
656,3980079,0.9512341000000001,0.135176,-0.11041,-4.2175,-7.5775,3.64
657,3980177,0.9655081,0.143228,-0.1037,-2.975,-7.84,2.625
658,3980275,0.9740479999999999,0.135786,-0.09991799999999999,-2.7825,-7.63,1.68
659,3980372,0.992592,0.12468399999999999,-0.10906800000000001,-2.9225,-6.4575,0.7175
660,3980470,1.009184,0.108824,-0.11504600000000001,-3.4475,-5.8275,-0.0525
661,3980568,1.013576,0.10004,-0.108702,-3.885,-6.825,-0.7
662,3980666,1.013332,0.10540799999999999,-0.09162200000000001,-4.83,-7.6825,-1.05
663,3980764,1.0086959999999998,0.108824,-0.07747001,-5.6875,-7.56,-0.77
664,3980862,1.0046700000000002,0.106018,-0.081496,-6.44,-7.035,-0.0875
665,3980960,1.001376,0.10394400000000001,-0.093086,-6.4925,-6.755,0.9275
666,3981058,0.9978379999999999,0.09906401,-0.101016,-5.25,-7.1225,1.925
667,3981156,0.9956421,0.095648,-0.108458,-3.6925,-7.6125,2.9575
668,3981254,0.9975940999999999,0.089426,-0.121512,-2.45,-7.6475,3.78
669,3981352,0.9990581000000001,0.08442401,-0.137128,-1.6975,-7.6475,4.305
670,3981449,0.9955200000000001,0.07637200000000001,-0.154696,-0.7175,-8.2775,4.41
671,3981547,0.9894200000000001,0.0732,-0.1647,0.7525,-8.785,4.3225
672,3981645,0.975878,0.06941801,-0.16958,2.415,-8.82,3.815
673,3981743,0.9568459999999999,0.066124,-0.170312,3.85,-9.0825,3.0625
674,3981841,0.94001,0.071614,-0.17763199999999998,4.76,-9.52,1.9775
675,3981939,0.930982,0.08601,-0.192272,5.635,-10.15,1.0675
676,3982037,0.9297620999999999,0.096014,-0.200446,6.9125,-11.34,0.4725
677,3982135,0.9335440999999999,0.10760399999999999,-0.20178800000000002,8.7325,-13.125,0.0875
678,3982233,0.943426,0.112972,-0.20630199999999999,10.745,-14.49,-0.35
679,3982331,0.956968,0.117974,-0.214964,13.1425,-15.6275,-0.9975
680,3982429,0.97173,0.11895,-0.22204000000000002,15.89,-16.38,-1.6275
681,3982526,0.98149,0.116876,-0.22265,18.095,-16.2575,-1.925
682,3982624,0.9952761,0.110654,-0.218502,20.055,-15.96,-1.82
683,3982722,1.009306,0.107116,-0.195078,21.735,-16.17,-1.61
684,3982820,1.018822,0.09979600000000001,-0.175314,22.8025,-16.835,-1.5925
685,3982918,1.020774,0.08369201,-0.159332,23.5375,-16.6075,-1.7675
686,3983016,1.0079639999999999,0.05587601,-0.153354,23.94,-15.225,-2.0475
687,3983114,0.9975940999999999,0.03294,-0.15018199999999998,23.31,-14.525,-2.555
688,3983212,0.9933241,0.020130000000000002,-0.145424,21.9275,-14.14,-3.43
689,3983310,0.987712,0.006344,-0.13969,20.2825,-13.37,-4.515
690,3983408,0.9753901,-0.011590000000000001,-0.141398,18.6025,-12.95,-5.67
691,3983506,0.968924,-0.013786000000000001,-0.151036,16.7475,-13.3,-7.4025
692,3983603,0.9767321,-0.01586,-0.15054800000000002,15.855,-13.3,-9.0475
693,3983701,0.978928,-0.023424,-0.1586,15.47,-13.51,-9.8875
694,3983799,0.987102,-0.025131999999999998,-0.16689600000000002,15.47,-14.595,-10.36
695,3983897,1.003328,-0.017568,-0.158722,15.5925,-14.7875,-10.325
696,3983995,1.015406,-0.008784,-0.147376,16.065,-14.77,-9.485
697,3984093,1.017236,-0.004514,-0.13725,16.8875,-15.5925,-8.26
698,3984191,1.01138,-0.004636001,-0.129686,17.4125,-15.9425,-6.825
699,3984289,0.9921040999999999,-0.006222,-0.126636,18.13,-15.6625,-5.7925
700,3984387,0.9628241,-0.008052001,-0.13298,18.97,-15.925,-5.3725
701,3984485,0.9330560999999999,-0.008540001,-0.135176,19.7575,-15.89,-5.3725
702,3984582,0.9252481,-0.004148001,-0.138348,20.055,-15.4875,-6.1425
703,3984680,0.9254921,-0.000366,-0.1403,20.125,-14.9625,-7.1225
704,3984778,0.927932,0.001464,-0.139202,20.09,-14.665,-8.015
705,3984876,0.9275661000000001,0.0061,-0.130052,20.02,-14.4025,-8.89
706,3984974,0.930982,0.0122,-0.122366,19.6525,-13.8775,-9.765
707,3985072,0.937448,0.013054,-0.117974,18.935,-13.09,-10.4125
708,3985170,0.937326,0.010614,-0.115656,18.27,-12.145,-11.06
709,3985268,0.9376921,0.005734,-0.10736,17.2725,-11.375,-11.4975
710,3985366,0.9389120000000001,0.002806,-0.101016,15.8025,-10.57,-11.935
711,3985464,0.944524,-0.001098,-0.09821001,13.825,-9.45,-12.4075
712,3985562,0.9526979999999999,-0.01281,-0.09930800000000001,11.375,-8.505,-12.8275
713,3985659,0.9655081,-0.028304000000000003,-0.102968,8.9425,-7.805,-13.2475
714,3985757,0.976,-0.041968,-0.103822,7.035,-7.42,-13.51
715,3985855,0.985516,-0.048312,-0.10614000000000001,4.97,-7.4375,-13.79
716,3985953,0.99125,-0.052826,-0.10052799999999999,2.8175,-7.3675,-13.79
717,3986051,0.9939341,-0.053801999999999996,-0.09991799999999999,0.49,-7.35,-13.58
718,3986149,0.9917379999999999,-0.053191999999999996,-0.104676,-1.995,-7.035,-12.985
719,3986247,0.98393,-0.050263999999999996,-0.10833599999999999,-4.4625,-7.0875,-12.04
720,3986345,0.9696561,-0.045018,-0.10430999999999999,-6.72,-7.3675,-10.885
721,3986443,0.957822,-0.031842,-0.10504200000000001,-8.855,-7.5075,-9.9575
722,3986541,0.9516,-0.025986000000000002,-0.102602,-10.745,-6.9475,-9.2225
723,3986638,0.945744,-0.02135,-0.10065,-12.11,-6.02,-9.0825
724,3986736,0.9391560999999999,-0.024644,-0.10187,-13.195,-5.7575,-9.415
725,3986834,0.932934,-0.029401999999999998,-0.10321199999999998,-13.4575,-6.1075,-9.975
726,3986932,0.9311040999999999,-0.023180000000000003,-0.106262,-13.0725,-6.5625,-10.815
727,3987030,0.9362280000000001,-0.01403,-0.10931199999999999,-12.355,-6.9475,-11.8825
728,3987128,0.9492821,0.0,-0.10906800000000001,-11.585,-7.2975,-12.95
729,3987226,0.963434,0.012322,-0.10309000000000001,-11.585,-8.3825,-14.105
730,3987324,0.9800261,0.023546,-0.09698999999999999,-12.4075,-9.66,-14.7
731,3987422,0.996374,0.030987999999999998,-0.09345201,-13.7025,-10.43,-15.085
732,3987520,1.009672,0.029646,-0.093574,-15.1375,-10.885,-15.085
733,3987617,1.0182120000000001,0.027816000000000004,-0.08869401,-16.59,-11.6375,-14.665
734,3987715,1.019432,0.016592,-0.082106,-18.06,-12.5475,-13.8775
735,3987813,1.019798,0.002074,-0.08405800000000001,-19.145,-13.2825,-12.985
736,3987911,1.0206520000000001,-0.00671,-0.083936,-20.1775,-13.4575,-12.2675
737,3988009,1.0182120000000001,-0.001586,-0.08576601,-21.4025,-14.035,-11.4975
738,3988107,1.014674,-0.0008540001,-0.08296,-22.8725,-15.3125,-10.7625
739,3988205,1.0138200000000002,0.005612,-0.08003201,-24.4475,-16.135,-10.3425
740,3988303,1.018334,0.01952,-0.07222401,-25.7425,-16.38,-9.9925
741,3988401,1.021506,0.03965,-0.064172,-26.5825,-16.6075,-9.345
742,3988499,1.028094,0.06575800000000001,-0.057339999999999995,-27.3175,-16.45,-8.6625
743,3988597,1.035536,0.08332601,-0.03721,-27.965,-15.82,-8.1725
744,3988694,1.049078,0.08954801,-0.028182,-28.7175,-15.12,-7.9275
745,3988792,1.074454,0.07588400000000001,-0.191662,-27.8775,-15.1725,-8.26
746,3988890,1.131062,0.03294,-0.357338,-22.12,-15.5575,-8.47
747,3988988,1.21268,0.06649,-0.32635,-12.915,-16.24,-7.6825
748,3989086,1.31272,0.15762400000000001,-0.182756,-6.1075,-17.3425,-5.1975
749,3989184,1.357616,0.22033200000000003,-0.14786400000000002,-6.16,-18.4625,-0.7175
750,3989282,1.276852,0.180194,-0.21362199999999998,-7.5775,-18.935,3.29
751,3989380,1.20963,0.16348,-0.184098,-8.61,-15.155,4.9
752,3989478,1.169736,0.177876,-0.14762,-15.1725,-11.725,4.9875
753,3989576,1.100806,0.12627,-0.15494000000000002,-23.8,-12.0925,4.62
754,3989674,1.038952,0.055388,-0.1708,-30.6775,-11.34,2.7825
755,3989771,0.9975940999999999,0.00488,-0.18178,-34.895,-9.7475,0.245
756,3989869,0.963434,-0.005368,-0.24656199999999998,-36.4525,-11.445,-1.89
757,3989967,0.9318360000000001,-0.009637999999999999,-0.309636,-32.69,-12.355,-3.325
758,3990065,0.9291520000000001,-0.001952,-0.479704,-27.72,-11.3225,-3.71
759,3990163,0.9237841,0.021472,-0.452254,-20.9825,-11.41,-3.22
760,3990261,0.93086,0.13176,-0.369904,-15.8375,-11.305,-1.6975
761,3990359,0.939766,0.202154,-0.386008,-14.0875,-11.06,1.96
762,3990457,0.9179280000000001,0.208498,-0.36953800000000003,-11.6025,-9.73,5.495
763,3990555,0.889624,0.19337000000000001,-0.373198,-9.625,-7.4025,6.5975
764,3990653,0.8703481,0.176778,-0.367098,-7.245,-6.72,5.2675
765,3990751,0.8640040000000001,0.154574,-0.35233600000000004,-3.6925,-5.705,2.38
766,3990848,0.85888,0.158356,-0.35465399999999997,0.0,-6.0025,-0.525
767,3990946,0.857294,0.17641199999999999,-0.353678,4.3225,-7.8225,-2.3975
768,3991044,0.8794981,0.188246,-0.386008,8.19,-9.1525,-3.535
769,3991142,0.915732,0.191296,-0.36648800000000004,11.1125,-8.8375,-5.1625
770,3991240,0.936106,0.168726,-0.315004,13.965,-7.315,-8.015
771,3991338,0.9385460999999999,0.149206,-0.292068,15.435,-6.7025,-10.9375
772,3991436,0.9075581,0.141276,-0.28486999999999996,15.5575,-6.1775,-13.545
773,3991534,0.8532681000000001,0.15237799999999999,-0.28377199999999997,15.4,-5.7925,-14.2275
774,3991632,0.791048,0.162748,-0.283528,15.995,-4.9525,-13.2125
775,3991730,0.754204,0.161894,-0.284504,16.1,-3.57,-11.3225
776,3991827,0.747494,0.1586,-0.27279200000000003,16.24,-1.505,-9.345
777,3991925,0.744322,0.142984,-0.26047,16.7475,-0.1925,-7.105
778,3992023,0.777628,0.12078,-0.240706,17.08,0.245,-4.55
779,3992121,0.83021,0.08564401,-0.20801,17.0975,2.835,-3.185
780,3992219,0.8851100000000001,0.06819800000000001,-0.180194,16.2575,5.8275,-2.9225
781,3992317,0.935008,0.06588,-0.15982000000000002,14.1925,8.89,-4.83
782,3992415,0.957944,0.060146000000000005,-0.132736,13.65,10.465,-6.895
783,3992513,0.951722,0.061610000000000005,-0.13664,12.7925,9.45,-8.1025
784,3992611,0.9232961,0.07381001,-0.141764,12.075,6.79,-8.12
785,3992709,0.889258,0.083936,-0.1403,11.795,5.4775,-6.9825
786,3992807,0.878034,0.08759601,-0.127368,12.0925,6.4225,-5.005
787,3992904,0.880474,0.09845401,-0.11919400000000001,13.1775,7.9625,-3.185
788,3993002,0.8794981,0.09186601,-0.108946,15.785,8.225,-1.33
789,3993100,0.8791321,0.09784401,-0.10394400000000001,17.675,7.8925,0.385
790,3993198,0.874374,0.108946,-0.09577000000000001,19.6175,8.1725,2.1875
791,3993296,0.8624181000000001,0.127978,-0.079056,21.1925,8.715,3.7975
792,3993394,0.8718120999999999,0.1403,-0.074054,22.1725,9.4325,5.32
793,3993492,0.898164,0.13456600000000002,-0.08564401,24.045,10.115,6.8425
794,3993590,0.9263459999999999,0.126636,-0.094062,27.3175,9.2575,7.595
795,3993688,0.9487940999999999,0.109922,-0.095648,30.17,6.895,7.105
796,3993786,0.966118,0.08296,-0.081496,32.0075,4.2175,5.845
797,3993883,0.9801479999999999,0.053801999999999996,-0.082716,33.1275,2.7825,3.9375
798,3993981,0.986614,0.02806,-0.10760399999999999,32.375,1.5925,1.8725
799,3994079,0.9836860999999999,0.016836,-0.11919400000000001,30.2575,-0.8225,0.4025
800,3994177,0.98088,0.016592,-0.11846199999999998,28.1225,-2.9575,-0.6475
801,3994275,0.9740479999999999,0.030622000000000003,-0.111752,25.34,-3.605,-1.19
802,3994373,0.9678261,0.047336,-0.099674,21.875,-3.4125,-1.6275
803,3994471,0.96441,0.05587601,-0.067832,19.6175,-3.0975,-2.1875
804,3994569,0.9679481,0.06490399999999999,-0.053801999999999996,18.445,-3.71,-2.8
805,3994667,0.9720960999999999,0.069662,-0.028304000000000003,19.4775,-5.705,-3.0275
806,3994765,0.975024,0.05636401,-0.027206,22.3475,-8.3475,-2.695
807,3994863,0.9627020000000001,0.028426,-0.012688,26.3025,-9.59,-1.61
808,3994960,0.9552601000000001,0.001952,0.01098,30.03,-8.26,-0.5075
809,3995058,0.9677040000000001,0.005734,-0.07393200000000001,32.795,-5.53,-0.385
810,3995156,1.060546,0.08052000000000001,-0.527162,32.9525,-7.0,-2.6075
811,3995254,1.093242,0.105896,-0.588284,22.9775,-14.63,-7.9625
812,3995352,1.168272,-0.023546,-0.32866799999999996,5.9325,-17.675,-12.11
813,3995450,1.384456,-0.20508200000000001,-0.43602799999999997,-12.8975,-15.05,-16.45
814,3995548,1.497916,-0.288164,-0.373686,-33.5125,-15.085,-23.45
815,3995646,1.40056,-0.277062,-0.238754,-46.1475,-12.95,-23.03
816,3995744,1.272948,-0.151646,-0.249734,-46.76,-7.7,-15.575
817,3995842,1.177178,-0.035502,-0.22753,-42.9275,-1.12,-9.485
818,3995939,1.063962,0.05124001,-0.206058,-35.4025,0.385,-4.025
819,3996037,0.9656300999999999,0.124074,-0.23521599999999998,-26.2675,-4.1125,1.8375
820,3996135,0.8888921000000001,0.198128,-0.284138,-22.3475,-7.07,6.195
821,3996233,0.8605879999999999,0.248392,-0.30683,-24.9375,-7.14,7.35
822,3996331,0.8824261,0.21972199999999997,-0.365146,-30.5025,-5.075,4.4975
823,3996429,0.907192,0.132736,-0.467016,-36.2075,-5.39,-1.3475
824,3996527,0.9347639999999999,0.05819401,-0.45018,-39.375,-7.28,-8.8375
825,3996625,0.978928,0.036844,-0.417362,-39.62,-6.4225,-16.2575
826,3996723,0.996008,0.08369201,-0.384788,-36.8025,-5.5475,-22.2425
827,3996821,1.0060120000000001,0.12993,-0.35197,-32.2175,-5.145,-24.675
828,3996919,1.011136,0.18751400000000001,-0.33379200000000003,-28.63,-4.1825,-24.4125
829,3997017,0.9977159999999999,0.22448,-0.33610999999999996,-25.375,-3.255,-22.33
830,3997115,0.9739261,0.228994,-0.33976999999999996,-22.4,-2.555,-18.9875
831,3997212,0.9490379999999999,0.20861999999999997,-0.319152,-19.2675,-2.9225,-16.3275
832,3997310,0.9284200999999999,0.17848599999999998,-0.348188,-16.8175,-4.7075,-14.28
833,3997408,0.9383020000000001,0.144082,-0.334036,-15.155,-4.4625,-12.705
834,3997506,0.942084,0.12029200000000001,-0.309514,-13.5275,-2.73,-11.0775
835,3997604,0.9293961,0.07417601,-0.29585,-12.565,-2.9225,-9.1175
836,3997702,0.9110959999999999,0.038308,-0.279868,-11.935,-3.745,-8.0675
837,3997800,0.8847440999999999,0.002318,-0.264984,-11.585,-4.27,-7.6125
838,3997898,0.8591241,-0.027694,-0.252784,-11.6375,-4.375,-7.805
839,3997996,0.8453381,-0.05612,-0.243024,-11.6375,-4.095,-8.715
840,3998094,0.8453381,-0.070638,-0.23546,-11.34,-2.8,-10.1325
841,3998192,0.8460700999999999,-0.055510000000000004,-0.228506,-11.725,-2.1,-11.8825
842,3998290,0.8481440999999998,-0.04819,-0.21411,-12.005,-1.925,-13.265
843,3998387,0.8563181000000001,-0.03477,-0.19885999999999998,-12.075,-1.05,-13.72
844,3998485,0.8679081,-0.021594,-0.183,-12.81,0.4375,-13.0725
845,3998583,0.8826700000000001,-0.009516001,-0.171776,-13.6675,1.6275,-11.5325
846,3998681,0.885964,-0.00427,-0.149694,-14.455,2.1,-9.485
847,3998779,0.8843781,0.012565999999999999,-0.13969,-15.5225,1.89,-7.77
848,3998877,0.8809620000000001,0.024766,-0.127734,-16.3275,2.2225,-6.5275
849,3998975,0.8842561,0.036966000000000006,-0.10516400000000001,-17.2375,3.3775,-5.3725
850,3999073,0.865956,0.048434,-0.09711201,-19.355,5.39,-4.1475
851,3999171,0.8431420000000001,0.05172801,-0.090768,-21.7,7.0175,-4.1125
852,3999269,0.8369200000000001,0.047214,-0.09552601,-23.625,9.24,-4.865
853,3999367,0.8375299999999999,0.027694,-0.093574,-25.865,11.445,-6.055
854,3999465,0.8397261,0.005612,-0.08967,-28.2275,11.9175,-7.595
855,3999563,0.8425321,-0.012444,-0.08918200000000001,-31.115,11.0775,-9.555
856,3999660,0.849852,-0.01708,-0.09040201,-34.9825,9.3975,-11.48
857,3999758,0.8575379999999999,-0.000488,-0.10004,-40.0925,6.405,-12.4425
858,3999856,0.8625401,0.004148001,-0.08918200000000001,-44.0825,4.0075,-12.3375
859,3999954,0.8873059999999999,0.012444,-0.08845001,-46.06,3.0625,-12.74
860,4000052,0.9173181,0.023058000000000002,-0.09333,-44.7475,0.595,-13.545
861,4000150,0.9514780999999999,0.045627999999999995,-0.103822,-41.2475,-3.605,-14.455
862,4000248,0.9638,0.059048,-0.082106,-36.435,-6.02,-14.7175
863,4000346,0.9724620999999999,0.10540799999999999,-0.07039400000000001,-32.655,-4.9,-13.8775
864,4000444,0.9668501,0.15372,-0.060634,-30.7125,-3.8325,-11.5325
865,4000542,0.9612379999999999,0.179584,-0.036966000000000006,-28.49,-3.605,-8.4875
866,4000640,0.96441,0.189344,-0.00366,-25.9175,-3.3075,-5.285
867,4000738,0.9790501,0.179584,0.03599,-23.555,-2.3975,-2.275
868,4000836,0.992226,0.161772,0.07246799999999999,-21.735,-1.9075,-0.2975
869,4000933,1.0049139999999999,0.12993,0.09040201,-21.6825,-1.7675,0.0
870,4001031,1.030046,0.104676,0.089914,-23.0825,-0.63,-0.9625
871,4001129,1.065304,0.07893401,0.023668,-26.4425,-0.735,-2.8525
872,4001227,1.139846,0.042212,-0.182024,-29.05,-3.115,-5.2325
873,4001325,1.24074,0.051362,-0.36112,-27.265,-5.6875,-7.49
874,4001423,1.362862,0.12980799999999998,-0.353678,-20.1075,-6.195,-8.995
875,4001521,1.517802,0.255102,-0.37576,-12.32,-6.86,-8.5575
876,4001619,1.633946,0.42419399999999996,-0.340136,-6.9825,-7.245,-5.845
877,4001717,1.59881,0.530456,-0.236192,-2.905,-4.2875,-0.7
878,4001815,1.401658,0.513742,-0.17616800000000002,-0.175,-4.935,4.34
879,4001913,1.185108,0.40076999999999996,-0.19215,-1.3825,-7.4725,7.175
880,4002011,1.038098,0.257054,-0.223992,-3.325,-4.2175,8.19
881,4002109,0.9292739999999999,0.141154,-0.34526,-5.495,-3.115,8.925
882,4002207,0.86864,0.06575800000000001,-0.509228,-4.515,-8.75,10.2375
883,4002304,0.86498,0.10321199999999998,-0.380152,1.295,-13.1425,12.4425
884,4002402,0.9221981,0.162626,-0.389058,5.9325,-17.0625,15.925
885,4002500,0.981612,0.17629,-0.407846,9.975,-19.95,22.47
886,4002598,1.047492,0.142252,-0.40381999999999996,13.9125,-16.2575,26.53
887,4002696,1.09861,0.0671,-0.39405999999999997,16.2925,-13.44,26.915
888,4002794,1.1125180000000001,0.005978,-0.35441,16.1,-14.735,23.8
889,4002892,1.078846,-0.01586,-0.356362,15.9425,-17.1675,18.2
890,4002990,1.0200420000000001,0.043554,-0.3904,16.8875,-18.9175,11.0425
891,4003088,0.97173,0.08869401,-0.352092,18.48,-16.0475,4.3925
892,4003186,0.9745360000000001,0.10638399999999999,-0.30292600000000003,19.0575,-11.9875,-1.3475
893,4003284,0.964532,0.136518,-0.256444,19.1625,-11.06,-7.5075
894,4003382,0.90646,0.181902,-0.226554,20.58,-12.4425,-12.6
895,4003479,0.83631,0.216428,-0.209718,21.8225,-12.5475,-14.91
896,4003577,0.7518859999999999,0.25058800000000003,-0.203984,22.0675,-10.9725,-14.7
897,4003675,0.7056479999999999,0.254736,-0.193492,22.295,-9.905,-12.425
898,4003773,0.6733180000000001,0.271694,-0.192638,22.96,-9.87,-8.68
899,4003871,0.6502600000000001,0.268156,-0.19178399999999998,24.2375,-11.76,-3.71
900,4003969,0.6763680000000001,0.24156,-0.182024,25.2525,-13.02,0.735
901,4004067,0.725168,0.2196,-0.163236,24.85,-12.0225,3.36
902,4004165,0.788486,0.186172,-0.13542,25.1825,-9.59,5.4425
903,4004263,0.849608,0.161894,-0.118828,25.935,-7.42,5.0925
904,4004361,0.879864,0.140544,-0.11541199999999999,26.565,-6.335,2.6075
905,4004459,0.883524,0.12065799999999999,-0.116754,26.8975,-5.6175,-0.14
906,4004557,0.8958459999999999,0.10248,-0.11467999999999999,27.44,-5.075,-2.1175
907,4004654,0.886818,0.105896,-0.1037,28.1925,-4.76,-2.695
908,4004752,0.8663219999999999,0.10345599999999999,-0.094062,29.3475,-5.1625,-2.87
909,4004850,0.8432639999999999,0.101748,-0.079056,32.41,-5.145,-2.94
910,4004948,0.8344801,0.10736,-0.07698201,35.6475,-4.06,-2.905
911,4005046,0.8285021,0.103334,-0.06795401,38.7625,-3.0275,-2.8
912,4005144,0.838018,0.105774,-0.06466001,42.315,-2.765,-3.22
913,4005242,0.838994,0.11102000000000001,-0.06405001,45.4825,-3.0975,-3.395
914,4005340,0.8426540000000001,0.115168,-0.07612801,47.775,-4.2875,-3.395
915,4005438,0.865956,0.10906800000000001,-0.10187,48.4575,-6.0725,-3.255
916,4005536,0.9030440000000001,0.077592,-0.10809200000000001,47.67,-7.91,-3.22
917,4005634,0.940742,0.027816000000000004,-0.11626600000000001,46.0075,-9.6075,-3.185
918,4005731,0.966118,-0.03721,-0.11053199999999999,42.7525,-10.5525,-3.325
919,4005829,0.9822219999999999,-0.08405800000000001,-0.11285,37.7125,-11.095,-3.675
920,4005927,0.9890540000000001,-0.10516400000000001,-0.100162,30.03,-10.4475,-4.97
921,4006025,0.9873460999999999,-0.087352,-0.07393200000000001,21.665,-7.0,-6.9125
922,4006123,0.9738041,-0.079056,-0.037698,14.6125,-2.52,-8.2075
923,4006221,0.954528,-0.034282,-0.017934000000000002,10.0275,1.12,-8.47
924,4006319,0.9526979999999999,0.02562,-0.021106,7.5075,1.7675,-7.9275
925,4006417,0.9616040000000001,0.06112201,-0.010248,9.485,-0.0175,-7.2275
926,4006515,0.9688021000000001,0.05843801,0.014884,16.5725,-1.75,-6.265
927,4006613,0.9638,0.028914,0.037698,26.11,-2.065,-5.46
928,4006711,0.936106,0.044896,-0.01342,34.51,-1.2075,-4.8825
929,4006809,0.9729501,0.12712400000000001,-0.335988,38.99,-0.8225,-5.81
930,4006906,1.013576,0.200934,-0.573278,35.2625,-4.585,-10.0625
931,4007004,1.064694,0.16689600000000002,-0.453108,23.31,-10.57,-15.3125
932,4007102,1.250988,0.05856,-0.511424,5.845,-14.035,-20.5975
933,4007200,1.453142,-0.096014,-0.476288,-15.5575,-17.815,-28.1225
934,4007298,1.50731,-0.292068,-0.26108000000000003,-30.94,-18.2875,-31.8675
935,4007396,1.3923860000000001,-0.319884,-0.147742,-35.8575,-9.3975,-27.6675
936,4007494,1.2395200000000002,-0.118096,-0.21166999999999997,-36.9775,-1.855,-22.89
937,4007592,1.0382200000000001,0.047458,-0.281332,-34.02,0.8400001,-17.8325
938,4007690,0.922686,0.160796,-0.406016,-29.2775,-1.1725,-11.48
939,4007788,0.8597341000000001,0.242536,-0.40443,-30.5725,-5.285,-7.0
940,4007886,0.863028,0.13298,-0.334768,-28.07,-9.0475,-5.565
941,4007984,0.9046301,0.07137001,-0.4148,-26.425,-10.5,-9.3625
942,4008082,0.9531860000000001,0.002318,-0.45323,-29.33,-10.7625,-16.4325
943,4008179,1.012356,-0.019642,-0.46665,-29.995,-9.3275,-22.4
944,4008277,1.12606,0.018178,-0.398086,-27.055,-6.0375,-27.44
945,4008375,1.18584,0.09211,-0.34526,-22.7675,-2.38,-30.2575
946,4008473,1.1716879999999998,0.167384,-0.325862,-20.055,-4.13,-28.315
947,4008571,1.1065399999999999,0.23314200000000002,-0.32208000000000003,-20.475,-9.065,-23.52
948,4008669,1.060058,0.289506,-0.349042,-21.7525,-12.4075,-18.4275
949,4008767,1.043588,0.299754,-0.353678,-20.58,-13.93,-13.545
950,4008865,1.032974,0.275354,-0.31537,-18.1825,-14.6825,-8.8375
951,4008963,1.002718,0.23606999999999997,-0.285724,-15.785,-15.68,-4.97
952,4009061,0.9291520000000001,0.17214200000000002,-0.281698,-12.5475,-15.96,-2.4675
953,4009159,0.8662001,0.10723800000000001,-0.27389,-8.365,-15.0675,-1.9425
954,4009257,0.8127641,0.058803999999999995,-0.266692,-5.7575,-13.2475,-2.0825
955,4009355,0.7903161,0.007076001,-0.24949000000000002,-4.2,-12.0925,-3.0625
956,4009452,0.7734800000000001,-0.033672,-0.23692399999999997,-3.36,-11.7075,-4.3925
957,4009550,0.76372,-0.054778,-0.23314200000000002,-2.905,-12.8975,-6.72
958,4009648,0.7754321,-0.05636401,-0.228872,-2.345,-13.615,-9.7825
959,4009746,0.7904380999999999,-0.047702,-0.222162,-2.135,-12.2325,-12.075
960,4009844,0.80642,-0.031964,-0.21594000000000002,-2.87,-10.745,-13.7375
961,4009942,0.8399700000000001,-0.000488,-0.20642399999999997,-3.7275,-9.45,-14.595
962,4010040,0.823744,0.009150001,-0.194346,-4.165,-8.4175,-14.35
963,4010138,0.8248421,0.027083999999999997,-0.182146,-4.9,-8.715,-14.4725
964,4010236,0.8327720999999999,0.031232,-0.18043800000000002,-6.2825,-8.0325,-13.2125
965,4010334,0.8397261,0.02684,-0.16775,-8.0325,-6.6675,-10.675
966,4010432,0.8464360000000001,0.02928,-0.15018199999999998,-9.6075,-6.09,-7.875
967,4010529,0.845582,0.0366,-0.133102,-11.3575,-5.915,-5.425
968,4010627,0.8577819999999999,0.031598,-0.11504600000000001,-13.51,-4.935,-3.6225
969,4010725,0.8453381,0.017568,-0.102968,-16.345,-3.4475,-2.8875
970,4010823,0.83265,0.0034159999999999998,-0.102358,-19.5125,-2.94,-3.71
971,4010921,0.8280139999999999,-0.008540001,-0.09906401,-23.4325,-2.835,-5.3375
972,4011019,0.8211821,-0.019642,-0.104676,-28.21,-3.22,-7.2625
973,4011117,0.8277700000000001,-0.014884,-0.106262,-33.6,-3.92,-9.205
974,4011215,0.8483879999999999,-0.00305,-0.10809200000000001,-39.095,-4.165,-10.5525
975,4011313,0.86315,0.011712,-0.11041,-44.1525,-4.305,-11.0075
976,4011411,0.870226,0.013054,-0.099674,-47.39,-3.6575,-11.1475
977,4011509,0.873398,0.007320001,-0.084912,-48.965,-2.87,-11.41
978,4011607,0.879864,0.006344,-0.079056,-49.3325,-2.52,-11.7425
979,4011704,0.903166,0.016958,-0.07198,-48.2475,-1.05,-12.215
980,4011802,0.9307380999999999,0.030133999999999998,-0.066124,-45.535,1.365,-11.9175
981,4011900,0.9528200000000001,0.058682000000000005,-0.053436000000000004,-41.86,3.9375,-10.57
982,4011998,0.9734381,0.09345201,-0.038551999999999996,-36.75,6.4225,-8.1025
983,4012096,0.992714,0.111508,-0.013297999999999999,-30.6425,9.2925,-4.83
984,4012194,1.022482,0.12053599999999999,0.006954000000000001,-23.905,11.69,-1.9075
985,4012292,1.054568,0.141154,0.02928,-18.0775,12.8275,0.2975
986,4012390,1.0790899999999999,0.163236,0.04392,-14.7875,12.4425,1.0675
987,4012488,1.12789,0.170922,-0.14871800000000002,-14.84,9.835,0.56
988,4012586,1.2073120000000002,0.212524,-0.384788,-15.5225,6.1425,-0.8575
989,4012684,1.318088,0.30109600000000003,-0.434808,-14.9975,2.87,-2.87
990,4012782,1.4995020000000001,0.41992399999999996,-0.411262,-10.9725,-0.2625,-4.5325
991,4012879,1.609058,0.5103260000000001,-0.446276,-5.775,-4.97,-3.85
992,4012977,1.548058,0.5620541,-0.370026,1.505,-8.0325,0.0525
993,4013075,1.370182,0.565714,-0.297192,7.455,-6.755,3.8675
994,4013173,1.137406,0.47384799999999994,-0.245952,9.275,-7.4025,7.7875
995,4013271,0.9812460999999999,0.323178,-0.25071,7.1225,-5.425,10.15
996,4013369,0.8836459999999999,0.183488,-0.261812,2.45,-3.99,11.7775
997,4013467,0.81984,0.08454600000000001,-0.33671999999999996,-2.0125,-8.47,14.1575
998,4013565,0.8117880000000001,-0.00488,-0.6252501,-2.4675,-14.91,17.3075
999,4013663,0.856196,-0.010736,-0.5002,4.3225,-18.445,20.7375
1000,4013761,0.9983261,0.09735601,-0.41760600000000003,11.9525,-18.0425,22.995
1001,4013859,1.13521,0.13847,-0.398452,16.73,-17.15,27.685
1002,4013957,1.1995040000000001,0.10858,-0.393694,20.79,-13.825,29.68
1003,4014055,1.219878,0.058682000000000005,-0.373076,21.9975,-11.8825,27.1775
1004,4014152,1.154974,0.046726,-0.355996,20.615,-15.54,20.475
1005,4014250,1.045296,0.09674601,-0.390888,18.48,-20.0725,11.935
1006,4014348,0.990274,0.11919400000000001,-0.34953,18.6725,-19.0225,4.48
1007,4014446,0.981978,0.134688,-0.29987600000000003,18.1825,-15.33,-2.1525
1008,4014544,0.9307380999999999,0.163724,-0.270474,16.8,-15.6975,-8.12
1009,4014642,0.858392,0.17873,-0.251198,15.9075,-17.08,-11.76
1010,4014740,0.792146,0.19397999999999999,-0.236436,15.54,-15.155,-12.9675
1011,4014838,0.7352941,0.195688,-0.2196,14.875,-12.7575,-11.9875
1012,4014936,0.696864,0.18104800000000001,-0.207156,13.965,-11.5675,-9.625
1013,4015034,0.677832,0.177144,-0.203862,12.5475,-11.69,-6.79
1014,4015132,0.6686821,0.161528,-0.200568,11.76,-12.53,-2.9925
1015,4015230,0.6989380000000001,0.14566800000000002,-0.18971,10.535,-12.845,0.9275
1016,4015327,0.742004,0.129076,-0.1769,7.7525,-11.2175,3.5525
1017,4015425,0.781776,0.114802,-0.1647,5.425,-9.38,5.0925
1018,4015523,0.829356,0.09942999999999999,-0.14518,4.83,-6.86,5.005
1019,4015621,0.8636379999999999,0.09028,-0.145424,5.6875,-4.8475,3.675
1020,4015719,0.865956,0.08649801,-0.154574,6.7025,-3.99,2.905
1021,4015817,0.8657120999999999,0.104798,-0.164822,7.07,-3.745,2.5375
1022,4015915,0.874252,0.122244,-0.158356,8.2075,-3.8675,2.5375
1023,4016013,0.874252,0.140178,-0.149206,9.835,-3.8675,2.8
1024,4016111,0.8669319999999999,0.161528,-0.13969,11.5325,-3.08,2.94
1025,4016209,0.856684,0.174704,-0.136152,14.3675,-2.1875,3.2375
1026,4016307,0.853146,0.18849000000000002,-0.14396,17.22,-1.575,3.745
1027,4016405,0.855342,0.190686,-0.139568,20.93,-1.4175,3.99
1028,4016502,0.856562,0.182146,-0.128344,25.1125,-1.89,3.3425
1029,4016600,0.8610761,0.16909200000000002,-0.11773,28.665,-1.575,2.03
1030,4016698,0.874862,0.14078800000000002,-0.12065799999999999,31.15,-0.9975,0.0875
1031,4016796,0.8893800999999999,0.09259801,-0.106262,33.1975,-0.8400001,-2.0475
1032,4016894,0.9110959999999999,0.044652,-0.108214,33.565,-1.26,-4.235
1033,4016992,0.930616,0.010126000000000001,-0.11736400000000001,31.9375,-3.0625,-6.65
1034,4017090,0.9500139999999999,-0.007442,-0.091988,28.8575,-4.69,-9.3625
1035,4017188,0.9668501,0.004148001,-0.06954,24.57,-3.99,-12.1275
1036,4017286,0.9591639999999999,0.023180000000000003,-0.043066,20.7375,-0.665,-13.4575
1037,4017384,0.9474520000000001,0.061610000000000005,-0.02501,16.5025,4.1475,-13.055
1038,4017482,0.9241501,0.103822,-0.018544,12.1275,8.1375,-11.55
1039,4017580,0.918782,0.10675,-0.011224,9.765,9.2575,-9.17
1040,4017678,0.9186601000000001,0.085156,0.00244,10.5,7.6825,-7.455
1041,4017775,0.9125601000000001,0.036478,0.025254,14.665,5.5125,-6.2825
1042,4017873,0.8982860999999999,-0.005612,0.043066,20.4225,6.02,-5.39
1043,4017971,0.8809620000000001,-0.022692,0.039894,26.005,9.1,-4.235
1044,4018069,0.9186601000000001,0.031110000000000002,-0.190076,30.3975,11.3225,-3.4125
1045,4018167,1.004792,0.132858,-0.533994,27.7375,7.3675,-5.5125
1046,4018265,1.0704280000000002,0.134688,-0.5139859999999999,18.375,-2.835,-9.5725
1047,4018363,1.2153639999999999,0.067344,-0.48068,4.795,-10.885,-13.7375
1048,4018461,1.46644,-0.08369201,-0.50508,-9.4325,-11.41,-20.58
1049,4018559,1.6302860000000001,-0.240096,-0.324154,-21.5425,-7.945,-28.77
1050,4018657,1.531344,-0.289018,-0.158478,-26.495,-2.135,-28.665
1051,4018755,1.3169899999999999,-0.06344,-0.217404,-28.1575,-1.0675,-22.7675
1052,4018853,1.149972,0.07173600000000001,-0.267058,-25.5675,1.4875,-15.12
1053,4018951,1.04798,0.202276,-0.328546,-21.7175,1.4,-7.105
1054,4019049,0.966118,0.346114,-0.4026,-21.0875,-6.055,-0.8575
1055,4019147,0.9269561,0.322202,-0.3233,-21.945,-13.44,3.045
1056,4019245,0.9596520000000001,0.183732,-0.320494,-20.7375,-15.2775,1.995
1057,4019342,1.002108,0.10089400000000001,-0.396866,-22.3825,-15.89,-5.11
1058,4019440,1.023946,0.022936,-0.415166,-23.485,-17.71,-12.9675
1059,4019538,1.061644,0.022326,-0.38661799999999996,-21.0875,-15.7325,-18.0425
1060,4019636,1.10105,0.07332201,-0.331108,-17.6225,-12.2675,-20.9825
1061,4019734,1.09007,0.135786,-0.30378,-15.3125,-12.04,-21.42
1062,4019832,1.0255319999999999,0.192028,-0.298412,-15.2425,-14.9975,-20.2825
1063,4019930,0.9679481,0.24265799999999998,-0.273402,-16.205,-16.7825,-17.78
1064,4020028,0.9431821,0.27938,-0.31293000000000004,-16.905,-16.835,-14.56
1065,4020126,0.9619700000000001,0.27694,-0.296338,-16.03,-17.255,-11.3925
1066,4020224,0.963434,0.24497600000000003,-0.260348,-13.7725,-17.4475,-8.61
1067,4020322,0.94245,0.192394,-0.24046199999999998,-9.765,-19.1975,-6.8075
1068,4020420,0.886818,0.12322000000000001,-0.233752,-4.13,-19.0225,-5.1275
1069,4020518,0.8335040000000001,0.07246799999999999,-0.236314,0.6125,-17.36,-3.6925
1070,4020616,0.7953180000000001,0.038918,-0.228872,3.5875,-16.205,-3.255
1071,4020714,0.770918,-0.0064659999999999995,-0.21618400000000002,5.74,-16.205,-3.5175
1072,4020811,0.761646,-0.036112,-0.196542,7.0175,-16.3625,-4.795
1073,4020909,0.7740901,-0.042578,-0.17519200000000001,7.4025,-16.6775,-7.0
1074,4021007,0.7895840999999999,-0.030378,-0.157746,7.595,-15.715,-9.2925
1075,4021105,0.789706,-0.01464,-0.154574,7.56,-13.895,-11.1125
1076,4021203,0.8100801,0.006587999999999999,-0.156282,7.3675,-12.285,-12.1275
1077,4021301,0.8244761,0.023180000000000003,-0.149328,6.72,-10.5525,-11.97
1078,4021399,0.856074,0.029401999999999998,-0.14078800000000002,5.6525,-10.1325,-11.2525
1079,4021497,0.8332601000000001,0.02928,-0.122,3.85,-10.0975,-9.3625
1080,4021595,0.834724,0.027083999999999997,-0.107848,1.3825,-10.71,-7.98
1081,4021693,0.8457040000000001,0.024644,-0.090768,-1.575,-9.7825,-6.125
1082,4021791,0.8543661,0.012565999999999999,-0.086132,-6.055,-8.7675,-4.445
1083,4021889,0.848266,-0.005246,-0.081984,-10.57,-9.1,-3.395
1084,4021987,0.8427761,-0.021228,-0.079056,-15.435,-9.59,-3.0275
1085,4022085,0.8428979999999999,-0.036356,-0.080398,-21.105,-9.03,-3.3775
1086,4022183,0.849242,-0.038186000000000005,-0.078446,-27.195,-8.0325,-4.4975
1087,4022280,0.85156,-0.039284,-0.08430201,-32.4975,-6.4225,-5.3375
1088,4022378,0.8359440999999999,-0.040748,-0.08503401,-36.19,-3.85,-6.195
1089,4022476,0.8287459999999999,-0.041358,-0.07515201,-37.275,-1.19,-7.5425
1090,4022574,0.833626,-0.02623,-0.07503,-36.295,2.275,-9.9225
1091,4022672,0.8464360000000001,-0.000732,-0.07637200000000001,-34.65,4.76,-12.25
1092,4022770,0.8826700000000001,0.025254,-0.08759601,-32.97,6.3175,-13.475
1093,4022868,0.924516,0.055388,-0.079056,-30.7475,8.365,-13.475
1094,4022966,0.9668501,0.079544,-0.04404201,-28.5425,10.5525,-12.1625
1095,4023064,0.9933241,0.101626,0.01647,-26.9675,12.46,-9.87
1096,4023162,1.031388,0.124074,0.05977999999999999,-26.0225,14.6125,-6.965
1097,4023260,1.05225,0.140178,0.07722601,-25.0775,16.8,-3.5525
1098,4023358,1.051396,0.140666,0.063684,-24.71,17.325,-0.6475
1099,4023456,1.072014,0.10516400000000001,-0.116388,-24.99,15.7325,1.085
1100,4023553,1.138016,0.102968,-0.33245,-25.165,13.4925,1.645
1101,4023651,1.239642,0.13908,-0.530578,-24.64,10.465,0.7175
1102,4023749,1.4112959999999999,0.24705,-0.516426,-19.355,8.015,-0.245
1103,4023847,1.618818,0.409066,-0.441884,-12.74,7.4725,-1.155
1104,4023945,1.6917740000000001,0.552294,-0.327448,-6.4925,6.09,0.6475
1105,4024043,1.536346,0.604632,-0.242902,-0.8400001,5.215,4.1825
1106,4024141,1.2902719999999999,0.5039819999999999,-0.24558600000000003,0.9625,3.465,6.37
1107,4024239,1.107394,0.359412,-0.292068,-1.085,1.1025,7.6125
1108,4024337,0.9706319999999999,0.239364,-0.321104,-5.18,0.105,8.8725
1109,4024435,0.889258,0.150304,-0.441518,-8.4525,-4.3925,10.99
1110,4024533,0.8666879999999999,0.077714,-0.5546121,-6.65,-11.445,14.2975
1111,4024630,0.9320801,0.14310599999999998,-0.411628,-1.085,-14.8925,18.0075
1112,4024728,1.033462,0.2074,-0.43615,3.85,-17.185,21.9975
1113,4024826,1.11874,0.158844,-0.422364,9.2575,-19.4075,26.6
1114,4024924,1.18828,0.062098,-0.400038,12.7575,-17.045,27.9125
1115,4025022,1.20231,-0.029524,-0.349652,13.3525,-18.025,24.6225
1116,4025120,1.1265479999999999,-0.05587601,-0.387106,11.865,-23.065,17.5175
1117,4025218,1.031754,-0.021716,-0.39613400000000004,9.7825,-26.2675,9.0825
1118,4025316,0.976366,0.000122,-0.345504,8.89,-22.855,1.575
1119,4025414,0.9633120999999999,0.0488,-0.29377600000000004,7.2975,-19.04,-5.1975
1120,4025512,0.9026780000000001,0.111996,-0.258152,4.445,-19.635,-10.605
1121,4025610,0.831918,0.16409,-0.23753400000000002,2.6075,-20.4575,-12.53
1122,4025708,0.764452,0.20861999999999997,-0.225334,2.345,-18.55,-12.04
1123,4025805,0.696864,0.244732,-0.21533000000000002,3.01,-15.8025,-9.94
1124,4025903,0.642696,0.24095,-0.193004,4.3575,-14.21,-6.65
1125,4026001,0.625616,0.227042,-0.184342,5.3025,-14.21,-2.7825
1126,4026099,0.630008,0.21886799999999998,-0.17616800000000002,5.67,-14.665,0.8925
1127,4026197,0.656482,0.18422,-0.17433800000000002,5.9675,-14.6475,4.935
1128,4026295,0.6989380000000001,0.14823,-0.169458,4.83,-13.965,8.8725
1129,4026393,0.7500560000000001,0.13237000000000002,-0.166652,2.6425,-12.565,11.2525
1130,4026491,0.809226,0.12383,-0.155428,0.6825,-10.9025,11.7775
1131,4026589,0.85888,0.12017,-0.14396,-1.225,-9.7125,11.165
1132,4026687,0.8887700000000001,0.114558,-0.13944600000000001,-3.29,-9.695,10.395
1133,4026785,0.9015799999999999,0.10418800000000002,-0.13115,-3.7625,-10.185,9.905
1134,4026883,0.895358,0.101748,-0.109678,-1.96,-9.5375,8.9075
1135,4026981,0.8755940000000001,0.106262,-0.107726,0.4375,-9.1525,7.7175
1136,4027078,0.864492,0.09991799999999999,-0.10516400000000001,2.94,-8.4875,6.58
1137,4027176,0.869128,0.095038,-0.10906800000000001,6.1775,-6.9125,5.4425
1138,4027274,0.885476,0.08784,-0.118584,10.1675,-6.335,4.06
1139,4027372,0.8969440000000001,0.098332,-0.127734,13.86,-7.175,2.6425
1140,4027470,0.895236,0.09821001,-0.12993,16.8,-8.925,1.6625
1141,4027568,0.8988959999999999,0.08442401,-0.104554,18.025,-9.1525,0.6825
1142,4027666,0.924638,0.074542,-0.10430999999999999,17.71,-6.8775,-0.49
1143,4027764,0.9345201,0.068442,-0.09589201,15.995,-4.0775,-2.0825
1144,4027862,0.92171,0.058682000000000005,-0.103822,14.665,-1.5575,-3.64
1145,4027960,0.8940161,0.061854,-0.10126,13.2125,0.945,-4.9525
1146,4028058,0.8596120999999999,0.08344800000000001,-0.07612801,11.1125,4.165,-6.055
1147,4028155,0.8413120000000001,0.120048,-0.062098,7.3675,6.2825,-6.3175
1148,4028253,0.844972,0.14396,-0.055265999999999996,3.3775,6.125,-5.7225
1149,4028351,0.8624181000000001,0.148596,-0.035868000000000004,1.1025,4.5675,-5.04
1150,4028449,0.8808401,0.123708,-0.012078,2.2925,3.5525,-4.48
1151,4028547,0.8869401,0.09625801,0.016225999999999997,7.5775,4.3575,-3.535
1152,4028645,0.8813280000000001,0.075396,0.015616,15.5575,6.3175,-1.7325
1153,4028743,0.916952,0.12505,-0.22191799999999998,22.015,8.2425,-0.315
1154,4028841,0.99979,0.20691199999999998,-0.596092,21.245,4.585,-2.1
1155,4028939,1.071282,0.205448,-0.595116,11.76,-7.4375,-6.3
1156,4029037,1.227076,0.13054000000000002,-0.49300200000000005,-4.4625,-17.7975,-10.2375
1157,4029135,1.513898,-0.061,-0.48251000000000005,-22.2425,-17.7275,-16.0125
1158,4029233,1.697386,-0.271816,-0.291214,-34.335,-10.885,-26.1625
1159,4029330,1.508652,-0.335866,-0.111142,-32.41,-3.78,-29.5575
1160,4029428,1.314916,-0.102602,-0.188246,-25.27,-3.745,-24.5175
1161,4029526,1.1354540000000002,0.064782,-0.268522,-17.3075,-0.6125,-17.9725
1162,4029624,0.987224,0.17214200000000002,-0.37027,-9.6075,3.1325,-11.55
1163,4029722,0.904142,0.28486999999999996,-0.468846,-9.2925,-4.4275,-5.8975
1164,4029820,0.9073141,0.219356,-0.34050199999999997,-11.62,-13.2825,-2.205
1165,4029918,0.9900300999999999,0.137128,-0.35502,-12.075,-14.9975,-3.7625
1166,4030016,1.05469,0.062220000000000004,-0.44835,-15.4875,-16.1175,-10.2375
1167,4030114,1.0798219999999998,-0.013175999999999998,-0.454816,-17.535,-17.08,-17.605
1168,4030212,1.11386,0.00671,-0.417484,-17.4475,-14.0525,-23.2225
1169,4030310,1.130818,0.06283,-0.37197800000000003,-15.9425,-11.1475,-25.6025
1170,4030407,1.093852,0.130052,-0.343796,-14.9975,-11.5675,-24.5525
1171,4030505,1.047004,0.198006,-0.342454,-15.785,-14.315,-21.8575
1172,4030603,1.016016,0.236436,-0.35087199999999996,-17.3425,-15.96,-18.1475
1173,4030701,1.011624,0.259006,-0.325374,-18.2525,-16.31,-13.9475
1174,4030799,1.01748,0.24705,-0.331108,-17.9025,-18.655,-10.6575
1175,4030897,0.9913719999999999,0.191662,-0.30353600000000003,-15.5925,-20.79,-7.49
1176,4030995,0.9525761,0.1586,-0.28731,-12.3725,-22.1025,-5.7225
1177,4031093,0.9029221,0.114558,-0.284748,-8.61,-23.0825,-4.69
1178,4031191,0.85583,0.063196,-0.29158,-4.7425,-22.47,-3.745
1179,4031288,0.817278,0.01525,-0.289506,-1.155,-22.12,-3.115
1180,4031386,0.792756,-0.019764,-0.272914,1.9425,-22.295,-3.465
1181,4031484,0.772992,-0.030744,-0.248392,4.165,-21.9275,-4.9875
1182,4031582,0.7515201,-0.00793,-0.23485,5.5825,-21.5775,-7.63
1183,4031680,0.7415161,0.013541999999999998,-0.22789600000000002,6.44,-20.02,-10.4125
1184,4031778,0.748714,0.039406000000000004,-0.22167399999999998,6.58,-17.7975,-12.7575
1185,4031876,0.75213,0.057462,-0.218502,6.5975,-15.995,-13.79
1186,4031974,0.7754321,0.066734,-0.205814,7.35,-14.98,-13.965
1187,4032072,0.7911701,0.06075601,-0.182756,7.42,-13.0375,-12.5475
1188,4032170,0.749812,0.047214,-0.177144,6.1075,-12.1275,-10.9725
1189,4032268,0.758596,0.03538,-0.17641199999999999,4.7075,-12.145,-10.325
1190,4032365,0.797392,0.029158,-0.160552,2.4675,-9.7125,-9.03
1191,4032463,0.8245979999999999,0.035013999999999997,-0.145302,-0.98,-8.2775,-7.77
1192,4032561,0.8403360000000001,0.03477,-0.132492,-4.095,-8.9425,-6.9125
1193,4032659,0.8508280999999999,0.029036000000000003,-0.116022,-7.4725,-8.89,-6.4225
1194,4032757,0.8524139999999999,0.013908000000000002,-0.102846,-11.48,-8.015,-6.195
1195,4032855,0.8459479999999999,-0.004514,-0.11333800000000001,-16.2575,-7.8225,-6.335
1196,4032953,0.8327720999999999,-0.016958,-0.122244,-20.965,-7.1575,-7.0525
1197,4033051,0.82045,-0.00793,-0.142008,-25.7425,-5.3025,-8.015
1198,4033149,0.810446,-0.009637999999999999,-0.129564,-29.3825,-3.15,-9.1875
1199,4033247,0.8052,-0.013663999999999999,-0.119804,-31.3775,-1.0325,-10.4825
1200,4033344,0.8117880000000001,-0.013908000000000002,-0.122976,-32.3575,-0.42,-12.74
1201,4033442,0.8285021,-0.016104,-0.14457,-32.235,0.0,-15.0325
1202,4033540,0.8604661,-0.021228,-0.171654,-30.975,1.855,-16.2225
1203,4033638,0.9036540000000001,-0.013175999999999998,-0.170922,-28.8225,4.305,-15.9775
1204,4033736,0.9552601000000001,0.020130000000000002,-0.145302,-25.9875,6.1425,-14.0875
1205,4033834,1.008086,0.07222401,-0.108824,-23.3275,8.715,-11.2
1206,4033932,1.045906,0.12248800000000001,-0.047702,-21.525,11.76,-7.6825
1207,4034030,1.06933,0.159332,0.000366,-20.37,13.58,-4.9875
1208,4034128,1.0711600000000001,0.18971,0.028792,-20.195,14.0525,-3.01
1209,4034226,1.053348,0.208864,0.05917000000000001,-21.9275,14.0875,-2.0125
1210,4034324,1.028338,0.21057199999999998,0.093086,-27.0375,13.9475,-2.345
1211,4034421,1.0559100000000001,0.192394,-0.08064199,-35.105,13.3,-3.85
1212,4034519,1.152046,0.12688,-0.390156,-38.465,10.885,-4.7075
1213,4034617,1.25538,0.149206,-0.401258,-31.78,9.66,-5.53
1214,4034715,1.382992,0.251076,-0.36905,-20.125,8.0325,-6.3525
1215,4034813,1.5164600000000001,0.36234,-0.488,-10.4825,5.1275,-5.39
1216,4034911,1.564162,0.46311199999999997,-0.41980200000000006,2.205,7.0525,-2.065
1217,4035009,1.544886,0.558638,-0.332816,14.2275,9.9575,0.6825
1218,4035107,1.37494,0.5614439999999999,-0.263398,21.7525,2.94,5.145
1219,4035205,1.17486,0.46848,-0.24631799999999998,24.5,-1.1025,9.205
1220,4035303,1.023824,0.324886,-0.309026,25.795,0.14,10.185
1221,4035401,0.942084,0.170922,-0.5203300000000001,27.0725,-1.295,10.99
1222,4035498,0.9148780000000001,0.091012,-0.452132,27.93,-4.27,12.5825
1223,4035596,0.9467200000000001,0.134688,-0.413336,24.395,-9.5725,13.44
1224,4035694,0.9940559999999999,0.07503,-0.437492,21.21,-17.5175,15.365
1225,4035792,1.0243120000000001,0.016225999999999997,-0.44347,18.795,-20.125,17.15
1226,4035890,1.066158,-0.02501,-0.451034,17.0975,-20.65,16.9575
1227,4035988,1.06628,-0.045018,-0.440054,15.7675,-23.3625,15.68
1228,4036086,1.0316319999999999,-0.041236,-0.409432,13.4925,-25.69,12.005
1229,4036184,0.984784,-0.050142,-0.381128,12.74,-26.5475,7.805
1230,4036282,0.952332,-0.01342,-0.415288,12.285,-26.075,3.9025
1231,4036380,0.9269561,0.024644,-0.384666,11.9175,-25.13,-0.665
1232,4036478,0.91561,0.031110000000000002,-0.335622,11.83,-23.9575,-4.55
1233,4036576,0.8982860999999999,0.050996,-0.305,10.6225,-23.38,-7.385
1234,4036674,0.864614,0.07588400000000001,-0.28462600000000005,8.89,-23.905,-8.61
1235,4036771,0.8045899999999999,0.12468399999999999,-0.273402,7.4725,-24.29,-8.1025
1236,4036869,0.745908,0.15494000000000002,-0.261446,6.195,-24.08,-7.0175
1237,4036967,0.708088,0.167018,-0.249246,5.32,-23.31,-5.4425
1238,4037065,0.6902761,0.17836400000000002,-0.240096,4.48,-23.205,-3.745
1239,4037163,0.6856399999999999,0.171654,-0.224358,4.4975,-23.94,-1.3825
1240,4037261,0.70028,0.15616,-0.217892,4.1475,-24.045,1.505
1241,4037359,0.720776,0.138714,-0.21142600000000003,3.0975,-22.68,3.9725
1242,4037457,0.754448,0.12993,-0.201178,2.8525,-20.615,5.46
1243,4037555,0.806542,0.13078399999999998,-0.178974,3.8325,-17.2025,5.1975
1244,4037653,0.8532681000000001,0.127856,-0.164578,5.1625,-13.7725,3.4475
1245,4037751,0.87474,0.135542,-0.16348,5.5825,-11.6725,1.33
1246,4037848,0.880352,0.142252,-0.15420799999999998,6.0725,-10.9375,-0.455
1247,4037946,0.8666879999999999,0.15128,-0.13847,7.5075,-10.6575,-2.2575
1248,4038044,0.864614,0.150792,-0.128344,9.695,-9.1525,-3.3775
1249,4038142,0.8609540999999999,0.150304,-0.11529,12.7575,-7.98,-4.06
1250,4038240,0.8714459999999999,0.14078800000000002,-0.11919400000000001,16.24,-7.4025,-4.83
1251,4038338,0.88023,0.125904,-0.109556,20.615,-6.9825,-5.8275
1252,4038436,0.888648,0.11236199999999999,-0.08893801,26.145,-5.985,-6.51
1253,4038534,0.8726661,0.11016600000000001,-0.08918200000000001,30.1875,-5.3725,-6.72
1254,4038632,0.855708,0.10540799999999999,-0.09552601,33.6875,-4.585,-6.825
1255,4038730,0.84241,0.10004,-0.11407,36.3125,-3.15,-7.1575
1256,4038828,0.8277700000000001,0.10321199999999998,-0.13859200000000002,38.15,-2.1,-7.525
1257,4038926,0.826672,0.082472,-0.135664,37.9575,-0.7875,-8.085
1258,4039023,0.8206940999999999,0.072956,-0.134444,34.545,1.015,-8.7675
1259,4039121,0.7895840999999999,0.075396,-0.12065799999999999,27.79,2.835,-9.5725
1260,4039219,0.768112,0.07222401,-0.089304,19.2675,4.7775,-9.765
1261,4039317,0.78385,0.07332201,-0.06112201,11.6725,7.3325,-9.975
1262,4039415,0.8119101,0.032330000000000005,-0.028914,7.6125,9.3975,-10.29
1263,4039513,0.8430200999999999,-0.012688,-0.013908000000000002,8.3825,10.8325,-10.0275
1264,4039611,0.8476561,-0.022936,-0.01769,13.1075,13.2475,-8.8725
1265,4039709,0.8729100000000001,0.010614,-0.16226,21.0875,14.8575,-6.125
1266,4039807,0.951722,0.07307801,-0.531554,25.585,12.8275,-3.7625
1267,4039905,1.047248,0.10906800000000001,-0.782752,20.3525,4.515,-3.2375
1268,4040003,1.208532,0.036233999999999995,-0.6362300000000001,7.5775,-8.225,-3.71
1269,4040101,1.487668,-0.132858,-0.532408,-10.0275,-10.4125,-6.1775
1270,4040198,1.772172,-0.350506,-0.348798,-26.075,3.045,-14.875
1271,4040296,1.631262,-0.31890799999999997,-0.222894,-27.7025,17.01,-21.5425
1272,4040394,1.3642040000000002,-0.02257,-0.34794400000000003,-21.735,8.4,-16.135
1273,4040492,1.211338,0.214232,-0.58987,-18.5675,4.62,-7.525
1274,4040590,1.083238,0.318786,-0.48263199999999995,-20.685,9.1175,-1.5225
1275,4040688,1.084458,0.193126,-0.31756599999999996,-18.4275,3.15,2.975
1276,4040786,1.119472,0.21447600000000003,-0.414678,-19.495,-4.1825,0.8575
1277,4040884,1.127402,0.15311,-0.47482399999999997,-19.775,-8.6625,-5.6525
1278,4040982,1.148508,0.060877999999999995,-0.522404,-16.9925,-11.655,-11.305
1279,4041080,1.168272,0.044774,-0.500566,-15.9075,-12.46,-15.295
1280,4041178,1.1890120000000002,0.072956,-0.467504,-15.33,-11.7425,-18.2
1281,4041276,1.16937,0.116632,-0.434076,-15.505,-13.0025,-19.6
1282,4041373,1.097146,0.142008,-0.43944399999999995,-15.9775,-17.5875,-18.8475
1283,4041471,1.027362,0.154818,-0.42944,-16.17,-22.6625,-16.6425
1284,4041569,0.9857600000000001,0.160674,-0.42321800000000004,-15.2425,-24.71,-13.9825
1285,4041667,0.9575780999999999,0.15725799999999998,-0.398818,-13.545,-26.25,-11.515
1286,4041765,0.9256141,0.148596,-0.35563,-11.7075,-26.075,-8.855
1287,4041863,0.8760819999999999,0.128588,-0.324642,-9.135,-26.39,-6.3
1288,4041961,0.807396,0.094062,-0.306464,-4.7775,-27.755,-4.1125
1289,4042059,0.737734,0.062464,-0.284748,0.07,-26.88,-2.24
1290,4042157,0.676124,0.020374,-0.271572,4.1825,-23.905,-0.595
1291,4042255,0.62464,-0.011712,-0.260714,6.3525,-22.2075,-1.1375
1292,4042352,0.5959701,-0.033184,-0.245342,7.42,-21.6475,-3.0975
1293,4042450,0.5736441,-0.05368,-0.233508,7.175,-20.4925,-5.5125
1294,4042548,0.580598,-0.038064,-0.23228800000000002,5.425,-19.1975,-8.4525
1295,4042646,0.622566,-0.008418,-0.23582600000000004,2.6075,-17.01,-11.69
1296,4042744,0.676856,0.011346,-0.22777399999999998,0.77,-14.0175,-14.1575
1297,4042842,0.7283400999999999,0.0034159999999999998,-0.21215799999999999,-1.2425,-10.71,-15.9075
1298,4042940,0.769454,-0.008052001,-0.202398,-3.395,-8.19,-17.36
1299,4043038,0.787388,-0.012565999999999999,-0.192394,-4.9875,-6.125,-18.3925
1300,4043136,0.79971,-0.003904,-0.18544000000000002,-6.09,-4.025,-18.6375
1301,4043234,0.827526,0.00793,-0.172752,-8.19,-1.3475,-17.78
1302,4043331,0.84424,0.028914,-0.15799000000000002,-12.1275,0.5075,-15.82
1303,4043429,0.8547319999999999,0.043432,-0.147254,-17.255,-0.49,-14.0525
1304,4043527,0.8514379999999999,0.043676,-0.128222,-21.7875,-2.59,-12.635
1305,4043625,0.8499741,0.03355,-0.118584,-26.39,-3.395,-11.095
1306,4043723,0.8475341000000001,0.0122,-0.10809200000000001,-31.0975,-2.59,-9.695
1307,4043821,0.8277700000000001,-0.018422,-0.107848,-35.9275,-0.9275,-8.5225
1308,4043919,0.8062981,-0.041846,-0.112606,-40.11,0.5425,-7.98
1309,4044017,0.7956840999999999,-0.045994,-0.094306,-43.2775,2.9225,-8.33
1310,4044115,0.795928,-0.026962,-0.08808401,-45.675,6.825,-9.17
1311,4044213,0.800808,0.0061,-0.094916,-48.3525,11.97,-9.7125
1312,4044311,0.797392,0.027327999999999998,-0.09613601,-49.63,16.94,-10.0275
1313,4044409,0.7970261,0.065026,-0.11943800000000002,-47.4425,19.95,-11.095
1314,4044507,0.8174001000000001,0.11102000000000001,-0.136762,-42.21,21.35,-12.2675
1315,4044604,0.853146,0.16592,-0.12688,-36.1025,21.7525,-12.5475
1316,4044702,0.9084121,0.22118600000000002,-0.09272000000000001,-30.765,21.0,-12.1625
1317,4044800,0.9552601000000001,0.27145,-0.0305,-28.0,20.44,-10.9025
1318,4044898,0.998448,0.311832,0.028304000000000003,-28.245,21.42,-9.765
1319,4044996,1.028094,0.314394,0.068564,-30.6425,23.2225,-9.415
1320,4045094,1.045052,0.26913200000000004,0.05636401,-33.3375,24.955,-10.64
1321,4045192,1.098122,0.16506600000000002,-0.188978,-35.63,24.4475,-12.95
1322,4045290,1.181814,0.08625401,-0.368196,-32.515,23.1,-14.7875
1323,4045388,1.320162,0.101138,-0.30841599999999997,-24.64,22.715,-15.9425
1324,4045486,1.5164600000000001,0.21520799999999998,-0.46945600000000004,-16.8525,21.385,-15.715
1325,4045584,1.6415099999999998,0.340624,-0.507154,-8.0325,18.55,-11.305
1326,4045682,1.744478,0.511424,-0.401258,0.245,20.44,-5.285
1327,4045780,1.7343520000000001,0.6263479999999999,-0.39479200000000003,3.4475,16.1175,0.8225
1328,4045877,1.546716,0.49885799999999997,-0.37637,6.58,5.1625,5.74
1329,4045975,1.37616,0.330498,-0.522892,7.0175,0.8925,7.6125
1330,4046073,1.27063,0.31049,-0.24790399999999999,7.665,4.1125,8.9775
1331,4046171,1.170468,0.271206,-0.311832,1.68,0.8400001,11.2875
1332,4046269,1.047858,0.111752,-0.39161999999999997,0.9975,-9.52,14.42
1333,4046367,0.9831981,0.023180000000000003,-0.44542200000000004,0.875,-9.345,15.96
1334,4046465,0.969412,0.025254,-0.477264,1.54,-13.9475,16.8175
1335,4046563,0.9696561,0.066246,-0.452132,4.4975,-22.575,18.4975
1336,4046661,0.990762,0.07222401,-0.41992399999999996,8.0325,-23.3975,20.8425
1337,4046759,0.984906,0.057339999999999995,-0.393084,12.6875,-21.315,21.665
1338,4046857,0.9830760000000001,0.05795,-0.38125,16.5375,-20.9825,19.7225
1339,4046955,0.9444020000000001,0.068564,-0.357338,20.1075,-21.1575,16.625
1340,4047052,0.8862081,0.09259801,-0.379298,22.05,-21.56,12.985
1341,4047150,0.8466800999999999,0.130906,-0.368196,20.9125,-22.0675,8.715
1342,4047248,0.826916,0.142862,-0.32561799999999996,18.795,-20.7725,4.865
1343,4047346,0.8308200000000001,0.15274400000000002,-0.290482,16.7125,-19.705,0.525
1344,4047444,0.8049561,0.16652999999999998,-0.255346,15.225,-20.0725,-4.2
1345,4047542,0.753838,0.18483,-0.22277199999999997,15.26,-19.5475,-8.015
1346,4047640,0.690398,0.200202,-0.20508200000000001,16.0825,-17.2025,-10.605
1347,4047738,0.642574,0.22057600000000002,-0.19959200000000002,16.52,-13.6325,-11.6025
1348,4047836,0.6250060000000001,0.229848,-0.195932,16.8875,-10.465,-11.27
1349,4047934,0.62464,0.245464,-0.18788,16.9925,-9.5025,-8.785
1350,4048032,0.64782,0.24034,-0.183,16.6075,-10.3075,-4.8475
1351,4048130,0.69052,0.22118600000000002,-0.174216,16.45,-10.4825,-0.7
1352,4048227,0.7468840999999999,0.209596,-0.15677,17.0975,-9.205,2.1525
1353,4048325,0.815936,0.200324,-0.141154,18.6025,-6.755,3.5875
1354,4048423,0.865834,0.17873,-0.123708,20.2475,-4.4275,3.85
1355,4048521,0.8918200000000001,0.165554,-0.12053599999999999,20.9825,-3.43,3.71
1356,4048619,0.9086559999999999,0.144814,-0.11650999999999999,22.2775,-2.66,3.29
1357,4048717,0.902068,0.128466,-0.102846,24.99,-2.24,3.115
1358,4048815,0.886818,0.109556,-0.106262,28.3325,-2.2225,2.5725
1359,4048913,0.873886,0.095038,-0.08881599,31.255,-2.5375,1.9075
1360,4049011,0.886452,0.085156,-0.10430999999999999,34.37,-2.1875,1.54
1361,4049109,0.900726,0.07173600000000001,-0.0976,37.5025,-2.8,1.2775
1362,4049207,0.931348,0.057462,-0.10553,40.7575,-3.92,0.8400001
1363,4049305,0.9389120000000001,0.057218,-0.10126,42.0525,-4.7775,0.3675
1364,4049403,0.9318360000000001,0.061975999999999996,-0.09442801,41.2125,-5.215,0.21
1365,4049500,0.9318360000000001,0.052948,-0.09735601,39.515,-4.3575,-0.4025
1366,4049598,0.9354959999999999,0.04575,-0.112728,36.6975,-1.715,-1.925
1367,4049696,0.925858,0.040992,-0.129198,33.635,0.35,-3.885
1368,4049794,0.8958459999999999,0.040260000000000004,-0.1342,30.5025,2.7125,-5.845
1369,4049892,0.8693719999999999,0.059536,-0.130906,27.5275,5.3375,-7.07
1370,4049990,0.8527800999999999,0.082838,-0.119316,24.36,7.5425,-7.7175
1371,4050088,0.8524139999999999,0.09125599999999999,-0.083936,22.365,9.1,-7.7175
1372,4050186,0.8633940000000001,0.09540401,-0.044286,21.9625,9.9575,-7.49
1373,4050284,0.8699821,0.112606,-0.01464,23.205,11.06,-7.0875
1374,4050382,0.855708,0.123098,0.008906,25.3225,12.9325,-6.16
1375,4050480,0.826916,0.109556,0.050508,28.6475,15.0325,-4.165
1376,4050578,0.831308,0.094916,-0.045384,31.4475,17.8675,-2.275
1377,4050676,0.8916980999999999,0.11724200000000001,-0.30036399999999996,31.325,17.7625,-2.45
1378,4050773,0.9655081,0.148474,-0.519964,24.5175,11.795,-5.18
1379,4050871,1.063352,0.12468399999999999,-0.48983000000000004,9.87,0.665,-8.75
1380,4050969,1.266238,-0.001464,-0.44286000000000003,-7.315,-8.4175,-12.6175
1381,4051067,1.546838,-0.235094,-0.366244,-20.3,-6.9125,-18.69
1382,4051165,1.631994,-0.3355,-0.22338200000000002,-25.445,1.4525,-25.8475
1383,4051263,1.4221540000000001,-0.226188,-0.19642,-21.35,7.56,-25.3925
1384,4051361,1.2749,0.01952,-0.433832,-16.905,8.085,-19.18
1385,4051459,1.1350879999999999,0.163724,-0.374906,-16.0125,10.115,-12.635
1386,4051557,1.057862,0.12932000000000002,-0.276208,-11.9875,9.345,-5.95
1387,4051655,1.034194,0.178974,-0.349652,-10.5525,1.9425,-2.59
1388,4051753,1.016138,0.17641199999999999,-0.363072,-10.9375,-3.3775,-3.1325
1389,4051851,1.006256,0.119316,-0.390644,-9.24,-6.65,-4.585
1390,4051949,1.0248,0.06832001,-0.40894400000000003,-8.925,-9.52,-6.5625
1391,4052047,1.0559100000000001,0.053191999999999996,-0.38308000000000003,-10.01,-8.05,-10.99
1392,4052144,1.1028799999999999,0.044896,-0.337818,-10.01,-5.7575,-16.1875
1393,4052242,1.115812,0.07417601,-0.307684,-9.31,-5.32,-19.6525
1394,4052340,1.069696,0.138714,-0.29987600000000003,-10.325,-6.5975,-19.39
1395,4052438,1.036512,0.18556199999999998,-0.29877800000000004,-11.76,-8.295,-16.5725
1396,4052536,1.010282,0.21472,-0.274866,-12.425,-8.3125,-13.2125
1397,4052634,1.007598,0.22509,-0.291946,-12.915,-10.045,-10.5875
1398,4052732,1.006134,0.193736,-0.291824,-12.495,-12.565,-8.365
1399,4052830,1.00711,0.157136,-0.263886,-11.2525,-12.635,-6.405
1400,4052928,0.9830760000000001,0.11138599999999999,-0.24668400000000001,-9.0825,-13.615,-5.46
1401,4053026,0.9451341000000001,0.049532,-0.24497600000000003,-6.2825,-14.63,-4.585
1402,4053124,0.8935280999999999,0.000488,-0.24265799999999998,-4.585,-15.295,-4.4975
1403,4053222,0.859368,-0.052703999999999994,-0.233386,-3.7625,-15.995,-5.075
1404,4053320,0.8283799999999999,-0.090158,-0.22496799999999997,-3.045,-16.1175,-6.0725
1405,4053417,0.8102020000000001,-0.108946,-0.208498,-2.6075,-16.87,-7.7525
1406,4053515,0.7977581,-0.109678,-0.19825,-2.59,-16.66,-9.17
1407,4053613,0.793854,-0.093574,-0.186416,-3.4125,-15.4875,-10.22
1408,4053711,0.798978,-0.070516,-0.183,-5.0925,-14.07,-10.43
1409,4053809,0.812276,-0.047702,-0.17128800000000002,-7.2275,-12.88,-9.9225
1410,4053907,0.827282,-0.016104,-0.158722,-9.5025,-12.355,-8.33
1411,4054005,0.8361879999999999,0.002928,-0.152134,-11.97,-12.11,-5.8275
1412,4054103,0.806054,0.002562,-0.137128,-14.0525,-12.3725,-3.2025
1413,4054201,0.803736,0.010858,-0.137128,-17.01,-12.67,-2.415
1414,4054299,0.8165460999999999,0.029646,-0.12688,-19.67,-11.48,-2.1175
1415,4054397,0.8300879999999999,0.055265999999999996,-0.1098,-22.82,-10.955,-2.0825
1416,4054495,0.844484,0.070882,-0.09625801,-26.2325,-11.0775,-2.45
1417,4054593,0.859856,0.073688,-0.09284201,-29.3825,-10.92,-3.2375
1418,4054690,0.861442,0.06075601,-0.081618,-31.9375,-10.71,-4.235
1419,4054788,0.856684,0.053314,-0.08967,-34.7375,-10.6575,-5.8275
1420,4054886,0.83875,0.039284,-0.105774,-37.6425,-10.57,-7.77
1421,4054984,0.8321620000000001,0.031232,-0.13151600000000002,-40.565,-9.7825,-10.115
1422,4055082,0.8359440999999999,0.026351999999999997,-0.12163399999999999,-42.35,-8.0675,-12.3025
1423,4055180,0.85034,0.04148,-0.11126400000000002,-43.1025,-5.8975,-13.895
1424,4055278,0.859368,0.057339999999999995,-0.099674,-43.19,-3.64,-14.84
1425,4055376,0.8668100000000001,0.082716,-0.11248399999999999,-41.3875,-1.435,-15.575
1426,4055474,0.8775459999999999,0.10553,-0.12529400000000002,-36.26,0.56,-15.365
1427,4055572,0.8888921000000001,0.128588,-0.135298,-29.2775,1.4,-14.0525
1428,4055670,0.8964561,0.15725799999999998,-0.107482,-22.1725,1.575,-11.515
1429,4055768,0.9128040000000001,0.17360599999999998,-0.040992,-17.5,2.52,-8.2075
1430,4055866,0.9429379999999999,0.194468,0.043188,-16.52,4.9525,-5.1275
1431,4055964,0.973194,0.19580999999999998,0.110044,-18.7075,8.47,-2.8525
1432,4056061,0.99125,0.168238,0.134322,-22.435,12.25,-1.645
1433,4056159,1.015894,0.120902,0.14005599999999999,-26.215,13.475,-1.7325
1434,4056257,1.054202,0.091134,0.117486,-30.0125,12.25,-2.485
1435,4056355,1.134844,0.07246799999999999,-0.14945,-34.055,9.0125,-3.0625
1436,4056453,1.2317120000000001,0.051972000000000004,-0.335622,-31.0275,6.2475,-3.115
1437,4056551,1.3177219999999998,0.138226,-0.272548,-22.715,5.4425,-3.605
1438,4056649,1.440698,0.280478,-0.386008,-16.8,1.68,-3.6225
1439,4056747,1.5134100000000001,0.398574,-0.47372600000000004,-10.5,-1.5925,-0.7175
1440,4056845,1.525244,0.4941,-0.377834,-1.82,2.87,3.9725
1441,4056943,1.416786,0.545706,-0.318786,3.045,2.24,6.9125
1442,4057041,1.2117040000000001,0.5008100999999999,-0.269498,6.125,-3.29,9.31
1443,4057138,1.0614,0.374418,-0.230336,8.33,1.2075,9.9925
1444,4057236,0.9650200999999999,0.223016,-0.250832,8.715,5.5125,9.1
1445,4057334,0.9075581,0.069784,-0.43236800000000003,8.2775,1.8725,8.295
1446,4057432,0.8963341,0.010248,-0.34526,10.36,-3.2375,8.7675
1447,4057530,0.9437921,0.04514,-0.381616,9.38,-9.4675,9.9575
1448,4057628,1.027606,0.014396,-0.41968,7.77,-16.24,14.5425
1449,4057726,1.10105,0.019764,-0.3904,5.67,-17.9375,19.6
1450,4057824,1.16388,0.035136,-0.39466999999999997,4.7075,-18.69,22.155
1451,4057922,1.169858,0.061,-0.391498,4.4625,-19.46,22.855
1452,4058020,1.120082,0.056974000000000004,-0.360632,5.04,-19.635,21.105
1453,4058117,1.047126,0.05246,-0.35526399999999997,7.7175,-20.5975,17.92
1454,4058215,0.9830760000000001,0.07991000000000001,-0.381006,9.9225,-20.685,13.7725
1455,4058313,0.9525761,0.08479,-0.33916,10.5,-18.935,9.03
1456,4058411,0.9625799999999999,0.087108,-0.291824,10.3075,-15.5925,3.8325
1457,4058509,0.9472079999999999,0.09942999999999999,-0.253882,9.3275,-14.8925,-1.4875
1458,4058607,0.9030440000000001,0.12761199999999998,-0.235094,8.7675,-15.8725,-5.3025
1459,4058705,0.8459479999999999,0.14688800000000002,-0.214354,9.31,-15.47,-7.42
1460,4058803,0.7965380999999999,0.180804,-0.20178800000000002,10.6925,-13.965,-8.715
1461,4058901,0.759938,0.210206,-0.18483,12.1625,-13.4225,-8.9425
1462,4058999,0.730536,0.221552,-0.170678,13.405,-13.7375,-7.2975
1463,4059096,0.724924,0.232044,-0.16897,13.6325,-14.6825,-4.6725
1464,4059194,0.7284619999999999,0.21899000000000002,-0.16433399999999998,12.81,-15.505,-1.4875
1465,4059292,0.76372,0.200568,-0.154452,11.3225,-15.4875,1.365
1466,4059390,0.809714,0.18422,-0.133102,11.235,-14.63,2.905
1467,4059488,0.8494860999999999,0.164944,-0.117852,12.075,-14.0525,2.8525
1468,4059586,0.879376,0.143716,-0.114192,12.5475,-13.2475,1.5925
1469,4059684,0.885476,0.116388,-0.106262,13.02,-12.8625,0.49
1470,4059782,0.886574,0.09162200000000001,-0.102968,13.965,-12.2325,0.0875
1471,4059880,0.8647360000000001,0.080398,-0.087108,14.8925,-11.235,0.2625
1472,4059978,0.8443620999999999,0.067588,-0.08808401,15.6275,-10.22,0.805
1473,4060075,0.82655,0.057218,-0.06490399999999999,16.6075,-9.0475,1.12
1474,4060173,0.8221581,0.06600201,-0.07173600000000001,18.1825,-7.21,1.3125
1475,4060271,0.8222799999999999,0.06636801,-0.08100801,19.5825,-6.2825,1.505
1476,4060369,0.821304,0.076494,-0.071614,20.2125,-5.005,1.4875
1477,4060467,0.8281360999999999,0.08808401,-0.069052,19.005,-3.255,1.435
1478,4060565,0.8411900999999999,0.08564401,-0.063074,16.87,-1.6975,1.0325
1479,4060663,0.8657120999999999,0.064416,-0.060877999999999995,14.9275,0.1225,0.3675
1480,4060761,0.8840120000000001,0.047214,-0.05124001,13.475,1.68,-0.4375
1481,4060859,0.8987741,0.017446,-0.072102,13.2125,2.7475,-0.8575
1482,4060957,0.906826,0.00549,-0.080154,12.95,3.325,-1.7675
1483,4061054,0.9034101000000001,-0.005368,-0.07381001,12.5125,4.585,-2.8875
1484,4061152,0.8973101000000001,-0.004392,-0.069174,11.6025,6.23,-3.745
1485,4061250,0.8968221,0.007686,-0.056974000000000004,10.64,7.1225,-5.11
1486,4061348,0.9018241,0.043188,-0.053801999999999996,9.03,8.1725,-6.65
1487,4061446,0.885964,0.09272000000000001,-0.032695999999999996,8.5225,9.73,-7.6475
1488,4061544,0.8657120999999999,0.134322,-0.00488,9.975,11.7075,-6.8425
1489,4061642,0.8509501,0.168848,-0.047092,14.3675,13.5625,-4.8825
1490,4061740,0.9024341,0.246196,-0.32866799999999996,18.1475,13.8075,-4.0775
1491,4061838,0.9616040000000001,0.261934,-0.458842,17.99,9.1175,-6.3
1492,4061935,1.029436,0.21081599999999998,-0.390156,9.8,1.3475,-8.54
1493,4062033,1.181692,0.07015,-0.365512,-7.07,-4.235,-10.4825
1494,4062131,1.429108,-0.17019,-0.329522,-19.46,-4.5325,-16.0475
1495,4062229,1.562332,-0.290604,-0.264496,-28.1575,-1.505,-23.765
1496,4062327,1.476322,-0.229726,-0.321226,-26.1975,4.4975,-23.87
1497,4062425,1.378112,0.017568,-0.41455600000000004,-26.04,6.8775,-20.09
1498,4062523,1.273192,0.040992,-0.20313,-25.1825,9.17,-16.3275
1499,4062621,1.1751040000000001,0.10760399999999999,-0.307562,-20.7375,9.2925,-12.5825
1500,4062719,1.0729899999999999,0.208254,-0.370636,-18.3575,2.3975,-10.78
1501,4062817,1.01626,0.217648,-0.382226,-14.455,-3.885,-8.3475
1502,4062914,1.004792,0.193614,-0.39967199999999997,-12.8625,-9.2925,-6.3875
1503,4063012,1.0376100000000001,0.114192,-0.40321,-12.845,-12.1975,-7.0875
1504,4063110,1.084946,0.05819401,-0.37088000000000004,-15.155,-12.9325,-10.605
1505,4063208,1.136308,0.042089999999999995,-0.34416199999999997,-17.185,-12.6,-15.5575
1506,4063306,1.16266,0.060877999999999995,-0.318176,-17.2375,-11.4975,-18.9175
1507,4063404,1.12545,0.107116,-0.30475599999999997,-16.7825,-12.635,-18.5325
1508,4063502,1.0826280000000001,0.136884,-0.296704,-15.8375,-16.2925,-15.645
1509,4063600,1.02785,0.156648,-0.291458,-14.7,-18.4275,-12.1275
1510,4063698,1.004426,0.16530999999999998,-0.300608,-13.72,-20.0025,-8.5225
1511,4063795,0.9821,0.148352,-0.27889200000000003,-12.3025,-20.195,-4.795
1512,4063893,0.9663620999999999,0.12651400000000002,-0.257054,-10.57,-20.615,-1.575
1513,4063991,0.919392,0.09882,-0.243146,-9.1875,-21.5425,0.805
1514,4064089,0.8712021000000001,0.05856,-0.23485,-7.8225,-22.155,2.1875
1515,4064187,0.8199620000000001,0.010492,-0.225334,-6.6325,-21.7,2.5725
1516,4064285,0.778116,-0.03782,-0.21825799999999998,-5.88,-21.63,1.8375
1517,4064383,0.7550581000000001,-0.07112601,-0.21093800000000001,-5.355,-22.4175,0.8225
1518,4064481,0.743834,-0.08881599,-0.202764,-4.8825,-22.75,-0.5425
1519,4064579,0.7470060000000001,-0.079422,-0.194712,-4.865,-22.5575,-2.8175
1520,4064677,0.757254,-0.07600599999999999,-0.178852,-4.8475,-21.9275,-4.9875
1521,4064774,0.7692101,-0.067344,-0.16592,-5.7925,-20.335,-6.44
1522,4064872,0.78873,-0.046116000000000004,-0.158844,-7.42,-18.4975,-7.14
1523,4064970,0.8062981,-0.036844,-0.153354,-9.065,-16.73,-7.245
1524,4065068,0.805688,-0.02135,-0.147376,-10.8675,-15.3825,-7.245
1525,4065166,0.8252079999999999,-0.006222,-0.14347200000000002,-13.5975,-14.8225,-7.7
1526,4065264,0.833016,0.015128,-0.132736,-17.22,-14.0875,-7.9275
1527,4065362,0.8459479999999999,0.038551999999999996,-0.116388,-21.5075,-13.895,-8.295
1528,4065460,0.8536341000000001,0.062220000000000004,-0.10345599999999999,-25.585,-13.475,-8.5225
1529,4065558,0.8527800999999999,0.068686,-0.0854,-29.0675,-12.9325,-8.365
1530,4065655,0.8494860999999999,0.048434,-0.078202,-32.2,-12.005,-8.155
1531,4065753,0.844972,0.023302,-0.081618,-35.5075,-10.815,-8.12
1532,4065851,0.8402139999999999,-0.001098,-0.100162,-38.5525,-9.9225,-8.26
1533,4065949,0.8365541,-0.008296000999999999,-0.09906401,-41.23,-9.345,-8.5575
1534,4066047,0.8409459999999999,-0.004636001,-0.07588400000000001,-43.9775,-7.3675,-9.3625
1535,4066145,0.84424,0.008784,-0.06746601,-45.99,-4.6375,-10.1675
1536,4066243,0.8453381,0.021228,-0.06112201,-47.1975,-2.03,-10.745
1537,4066341,0.8438741,0.040260000000000004,-0.06954,-47.2325,1.1725,-11.48
1538,4066439,0.8591241,0.0549,-0.08344800000000001,-44.45,4.0075,-12.0225
1539,4066537,0.89792,0.09186601,-0.08601,-38.57,5.67,-11.655
1540,4066634,0.9431821,0.144082,-0.063074,-31.9025,5.88,-9.87
1541,4066732,0.983808,0.217892,-0.012322,-26.9675,6.965,-8.2425
1542,4066830,1.015406,0.28633400000000003,0.03416,-24.7975,7.8575,-6.7025
1543,4066928,1.035536,0.33684200000000003,0.07637200000000001,-24.2025,7.98,-5.4075
1544,4067026,1.0412700000000001,0.335744,0.096624,-25.095,8.2775,-4.375
1545,4067124,1.035902,0.296338,0.10797000000000001,-27.195,8.9775,-4.1475
1546,4067222,1.040416,0.237656,0.07015,-32.9,8.365,-4.865
1547,4067320,1.0887280000000001,0.157868,-0.15738,-39.1475,5.0925,-6.58
1548,4067417,1.2038959999999999,0.059658,-0.474214,-38.9025,0.91,-9.0825
1549,4067515,1.3268719999999998,0.057339999999999995,-0.44090799999999997,-29.295,-2.0825,-11.8825
1550,4067613,1.4513120000000002,0.186904,-0.46933400000000003,-21.0875,-4.97,-13.5975
1551,4067711,1.54269,0.343308,-0.47689799999999993,-15.6975,-4.0775,-10.1675
1552,4067809,1.530734,0.446276,-0.399916,-6.2825,3.5,-3.7275
1553,4067907,1.38165,0.47458,-0.3599,4.1125,5.7925,1.1725
1554,4068005,1.194868,0.390888,-0.286456,12.46,3.85,6.37
1555,4068103,1.066036,0.266448,-0.400648,19.1975,7.6825,9.7825
1556,4068201,0.9823440999999999,0.1159,-0.45432799999999995,27.7375,8.085,13.72
1557,4068298,0.9613601,0.14335,-0.32866799999999996,31.675,4.55,18.725
1558,4068396,0.957334,0.14884,-0.395524,27.405,-4.725,23.0825
1559,4068494,0.9567241,0.061366,-0.38674000000000003,24.6925,-12.04,26.6
1560,4068592,1.000766,0.008662000999999999,-0.378078,21.8575,-12.2675,25.8475
1561,4068690,1.0554219999999999,0.013908000000000002,-0.394914,21.5075,-15.4525,23.8525
1562,4068788,1.060912,0.036356,-0.377102,21.805,-18.0775,20.895
1563,4068886,1.0443200000000001,0.036722000000000005,-0.36636599999999997,22.7675,-18.0075,16.7125
1564,4068984,1.0169920000000001,0.077592,-0.392962,22.925,-17.3425,12.0925
1565,4069082,0.995398,0.09906401,-0.349164,21.91,-17.5525,6.4925
1566,4069180,1.0046700000000002,0.091744,-0.288652,21.07,-15.4,0.7525
1567,4069277,0.9966181000000001,0.101626,-0.249856,19.18,-12.7925,-5.495
1568,4069375,0.944524,0.09625801,-0.229848,18.1475,-14.1225,-10.0975
1569,4069473,0.8723001,0.12444000000000001,-0.22045399999999998,17.115,-14.5775,-13.44
1570,4069571,0.7937320999999999,0.15420799999999998,-0.209108,17.2725,-12.7225,-14.9625
1571,4069669,0.726266,0.203252,-0.199226,18.0775,-9.835,-14.4025
1572,4069767,0.684176,0.224358,-0.194468,19.075,-8.6275,-11.2175
1573,4069865,0.6579461,0.208986,-0.190076,19.495,-10.36,-6.02
1574,4069963,0.699792,0.203008,-0.18324400000000002,18.55,-11.025,-1.6275
1575,4070061,0.771772,0.185318,-0.152866,18.2875,-9.5375,-0.665
1576,4070159,0.81862,0.166286,-0.12627,19.425,-7.98,-1.715
1577,4070256,0.8597341000000001,0.135908,-0.104554,20.4925,-5.8625,-3.5
1578,4070354,0.8836459999999999,0.11846199999999998,-0.09125599999999999,21.4725,-2.94,-5.6875
1579,4070452,0.892918,0.09320801,-0.09784401,22.6625,-1.26,-7.9275
1580,4070550,0.8877940000000001,0.070516,-0.10528599999999999,23.9575,-2.03,-9.415
1581,4070648,0.87718,0.065026,-0.101992,25.4975,-3.255,-9.73
1582,4070746,0.8724219999999999,0.06575800000000001,-0.091134,26.2675,-3.1675,-9.345
1583,4070844,0.8701040000000001,0.06954,-0.08332601,27.3,-2.6775,-8.05
1584,4070942,0.8641260000000001,0.06771001,-0.077348,28.8225,-1.995,-6.2825
1585,4071040,0.8522921,0.06941801,-0.06539201,30.52,-0.9975,-4.585
1586,4071138,0.847778,0.079178,-0.07612801,31.6925,0.8400001,-3.15
1587,4071235,0.8486319999999999,0.07832401,-0.070516,31.325,2.59,-2.5025
1588,4071333,0.8580260000000001,0.067344,-0.07978801,30.205,3.8325,-2.3975
1589,4071431,0.869128,0.046238,-0.088328,27.9475,3.9375,-3.0625
1590,4071529,0.8852321,0.010248,-0.09223200000000001,26.075,4.13,-4.2875
1591,4071627,0.9054840000000001,-0.01891,-0.120048,24.255,4.7075,-6.1075
1592,4071725,0.8869401,-0.037576,-0.107726,23.31,5.7575,-8.015
1593,4071823,0.8585139999999999,-0.036478,-0.07417601,21.945,9.065,-9.5025
1594,4071921,0.845094,-0.024888,-0.041358,19.3375,13.615,-10.92
1595,4072019,0.8276481,0.011834,-0.008418,15.9075,17.535,-12.005
1596,4072116,0.7944641,0.081618,0.028914,12.18,20.125,-12.705
1597,4072214,0.765794,0.134322,0.083204,10.3775,22.1725,-12.075
1598,4072312,0.7539600000000001,0.168482,0.116388,12.4775,23.7125,-9.485
1599,4072410,0.79422,0.200568,-0.102114,19.0225,23.345,-5.25
1600,4072508,0.9636780999999999,0.28792,-0.588162,23.52,16.135,-4.1475
1601,4072606,1.074698,0.21374400000000002,-0.600362,21.805,-1.0675,-6.7375
1602,4072704,1.23708,0.111508,-0.477142,6.755,-17.5,-7.105
1603,4072802,1.582096,-0.119682,-0.41553199999999996,-9.9225,-15.505,-8.8725
1604,4072900,1.897588,-0.34562600000000004,-0.29987600000000003,-20.86,-3.5875,-17.745
1605,4072997,1.7398419999999999,-0.33855,-0.438956,-24.2375,3.675,-23.0825
1606,4073095,1.39385,-0.061,-0.459574,-28.56,-3.3775,-21.525
1607,4073193,1.230492,-0.097722,-0.23838800000000002,-23.0825,2.135,-16.975
1608,4073291,1.131062,0.012565999999999999,-0.308904,-15.4875,9.765,-15.2775
1609,4073389,0.9950319999999999,0.168604,-0.34465,-11.585,3.0625,-15.575
1610,4073487,0.936716,0.20861999999999997,-0.330376,-3.7625,-5.7925,-13.1425
1611,4073585,0.945866,0.183854,-0.347456,-1.925,-12.8625,-10.5175
1612,4073682,0.993568,0.11577799999999999,-0.35831399999999997,-1.8025,-16.45,-10.36
1613,4073780,1.064694,0.06880801,-0.349042,-2.3625,-16.87,-13.8425
1614,4073878,1.1285,0.051118000000000004,-0.319274,-2.4675,-16.5025,-18.585
1615,4073976,1.143018,0.067588,-0.29987600000000003,-2.8525,-15.6625,-21.07
1616,4074074,1.106052,0.11712,-0.298046,-4.62,-16.5025,-19.495
1617,4074172,1.050176,0.16287000000000001,-0.28938400000000003,-5.88,-18.8825,-15.925
1618,4074270,0.9889319999999999,0.17397200000000002,-0.30487800000000004,-4.9175,-19.915,-11.8125
1619,4074368,0.9696561,0.19337000000000001,-0.309026,-3.3425,-21.1575,-8.435
1620,4074466,0.9745360000000001,0.180804,-0.273646,-1.05,-20.405,-4.8825
1621,4074563,0.961482,0.160674,-0.238144,2.3275,-19.8625,-2.1525
1622,4074661,0.92171,0.11943800000000002,-0.22033200000000003,6.0725,-20.4225,-0.91
1623,4074759,0.8574161,0.071004,-0.211548,8.9775,-20.545,-1.505
1624,4074857,0.808372,0.018178,-0.20374,10.4475,-20.265,-3.2025
1625,4074955,0.777018,-0.027694,-0.19764,10.78,-20.195,-4.725
1626,4075053,0.777872,-0.056974000000000004,-0.188612,10.57,-20.65,-5.985
1627,4075151,0.7862901,-0.06832001,-0.18141400000000002,10.0625,-20.86,-6.9475
1628,4075249,0.793976,-0.076738,-0.16775,9.415,-20.58,-8.4525
1629,4075346,0.8113001,-0.081496,-0.15701400000000001,8.68,-19.7225,-10.185
1630,4075444,0.8344801,-0.06795401,-0.15054800000000002,7.3675,-17.92,-11.165
1631,4075542,0.8433860999999999,-0.053801999999999996,-0.152622,6.0725,-16.1,-11.06
1632,4075640,0.832406,-0.023790000000000002,-0.159088,5.1625,-15.33,-11.0775
1633,4075738,0.8281360999999999,-0.008784,-0.15396400000000002,4.865,-14.735,-11.1125
1634,4075836,0.8337481,0.008906,-0.14823,3.6225,-13.3875,-10.955
1635,4075934,0.839482,0.023790000000000002,-0.129442,0.9975,-12.95,-10.43
1636,4076032,0.8420440999999999,0.035136,-0.111874,-2.0475,-12.4075,-9.8175
1637,4076129,0.8315520000000001,0.04392,-0.11016600000000001,-4.725,-11.83,-9.485
1638,4076227,0.8248421,0.043432,-0.09784401,-6.86,-10.325,-9.6775
1639,4076325,0.818132,0.033916,-0.09552601,-9.2575,-7.735,-10.29
1640,4076423,0.8166680000000001,0.023424,-0.097722,-11.48,-5.6,-11.41
1641,4076521,0.8252079999999999,0.020252000000000003,-0.104676,-13.5625,-3.64,-13.3
1642,4076619,0.836676,0.015493999999999999,-0.09942999999999999,-14.3325,-2.03,-15.575
1643,4076717,0.844118,0.01281,-0.091134,-13.3875,0.21,-18.0075
1644,4076815,0.8563181000000001,0.041358,-0.08906,-12.3025,2.7475,-20.3875
1645,4076912,0.8701040000000001,0.079056,-0.091988,-11.2525,5.2675,-21.9975
1646,4077010,0.879376,0.117486,-0.08893801,-10.22,7.28,-23.0125
1647,4077108,0.8914540000000001,0.163358,-0.092964,-9.555,7.8575,-23.5025
1648,4077206,0.9113399999999999,0.194712,-0.08576601,-8.855,7.63,-22.855
1649,4077304,0.9414741,0.21667199999999998,-0.06356201,-8.68,7.6475,-21.7525
1650,4077402,0.9638,0.22326,-0.03416,-9.6775,8.47,-19.95
1651,4077500,0.9874681000000001,0.202398,0.014518000000000001,-10.9725,9.73,-18.5675
1652,4077598,1.009428,0.172264,0.054167999999999994,-12.53,11.9525,-18.5325
1653,4077696,1.029802,0.122976,0.06661201,-14.0,14.56,-19.6
1654,4077793,1.037854,0.064782,0.06039,-14.525,15.1725,-20.72
1655,4077891,1.061766,0.004758,-0.040992,-14.945,12.845,-21.3675
1656,4077989,1.123376,-0.03477,-0.200812,-13.37,8.61,-20.93
1657,4078087,1.212192,-0.019642,-0.40321,-7.805,4.0775,-19.3025
1658,4078185,1.300886,0.045872,-0.459208,4.06,0.8225,-15.82
1659,4078283,1.41947,0.170312,-0.452132,13.965,-0.0875,-11.9875
1660,4078381,1.542568,0.36295,-0.381494,18.6725,0.91,-6.825
1661,4078479,1.550376,0.514962,-0.310368,21.665,2.5375,-0.7875
1662,4078576,1.358226,0.534482,-0.253272,24.5,3.36,4.375
1663,4078674,1.1350879999999999,0.431514,-0.22582199999999997,25.235,4.6025,7.175
1664,4078772,0.9709979999999999,0.271084,-0.397598,28.3675,7.7525,6.825
1665,4078870,0.88023,0.14688800000000002,-0.38125,34.055,8.33,7.2625
1666,4078968,0.8726661,0.168482,-0.30866,35.945,4.585,9.1875
1667,4079066,0.883158,0.15494000000000002,-0.39284,36.6625,-5.985,12.3025
1668,4079164,0.926834,0.113094,-0.41016400000000003,39.34,-13.09,17.325
1669,4079262,1.0023520000000001,0.09320801,-0.406382,39.2525,-12.7225,20.09
1670,4079360,1.077138,0.078202,-0.395524,40.2675,-15.6625,19.8275
1671,4079457,1.104832,0.050752,-0.367464,40.0225,-17.22,17.745
1672,4079555,1.066036,0.018422,-0.33916,39.1475,-15.82,13.475
1673,4079653,0.9895421,0.007320001,-0.39528,39.69,-15.4525,7.735
1674,4079751,0.9362280000000001,0.01647,-0.398696,41.2125,-14.9625,1.4525
1675,4079849,0.948184,0.008784,-0.335744,42.1225,-10.605,-4.865
1676,4079947,0.9823440999999999,0.028426,-0.280478,41.055,-5.8975,-11.34
1677,4080045,0.9562360999999999,0.093574,-0.261934,39.4975,-5.39,-16.8525
1678,4080143,0.9125601000000001,0.130174,-0.252662,38.36,-6.9475,-20.0725
1679,4080241,0.844118,0.17763199999999998,-0.24802600000000002,37.625,-6.545,-21.0875
1680,4080338,0.797148,0.20069,-0.23216599999999998,37.625,-5.1625,-20.1075
1681,4080436,0.780312,0.21825799999999998,-0.208864,37.73,-3.815,-17.745
1682,4080534,0.778116,0.24082800000000001,-0.185074,38.3075,-4.4625,-14.6825
1683,4080632,0.78141,0.228506,-0.17140999999999998,38.9725,-6.7375,-10.5175
1684,4080730,0.8115439999999999,0.200202,-0.159942,38.9025,-7.4375,-6.615
1685,4080828,0.8460700999999999,0.178242,-0.14884,38.395,-6.3875,-4.795
1686,4080926,0.8852321,0.15433,-0.13078399999999998,38.9725,-5.0575,-5.2675
1687,4081024,0.8916980999999999,0.12505,-0.12285399999999999,40.005,-3.7275,-7.3675
1688,4081122,0.8813280000000001,0.108458,-0.12468399999999999,40.53,-2.975,-9.31
1689,4081219,0.871568,0.101748,-0.124806,40.25,-1.82,-10.1325
1690,4081317,0.863028,0.10065,-0.12065799999999999,39.8125,-0.6125,-10.7275
