,T,ax,ay,az,gx,gy,gz
0,202582,0.564372,0.053191999999999996,-0.625128,13.965,-14.945,-14.035
1,202735,0.5887720000000001,0.058072000000000006,-0.7288279999999999,31.325,-16.5375,17.115
2,202832,0.6280560000000001,0.06270801,-0.779824,121.73,-145.355,-47.495
3,202929,0.6319600000000001,0.064416,-0.777384,60.41,-104.79,-33.74
4,203026,0.6304960000000001,0.06490399999999999,-0.77836,3.325,-4.48,-3.8675
5,203123,0.6317159999999999,0.063684,-0.7766521,2.17,-2.3275,-3.1675
6,203220,0.627568,0.065148,-0.781776,2.1875,-2.3275,-3.255
7,203317,0.6326921,0.067832,-0.781044,2.275,-2.2925,-3.15
8,203415,0.629764,0.060024,-0.77836,2.3975,-2.31,-2.9925
9,203512,0.628788,0.06075601,-0.778604,2.4325,-2.345,-3.0625
10,203609,0.6292760000000001,0.062952,-0.7808001,2.4325,-2.275,-3.115
11,203706,0.629764,0.060512,-0.77836,2.24,-2.2925,-3.2375
12,203803,0.630252,0.061488,-0.777872,2.1175,-2.2925,-3.22
13,203900,0.6329359999999999,0.063928,-0.77836,2.1,-2.205,-3.29
14,203997,0.6319600000000001,0.062464,-0.779092,2.0125,-2.2575,-3.29
15,204094,0.6314721,0.062464,-0.777872,2.0475,-2.2575,-3.2725
16,204191,0.6304960000000001,0.063928,-0.780556,2.065,-2.2925,-3.36
17,204288,0.6290319999999999,0.06661201,-0.7812880999999999,2.065,-2.275,-3.2725
18,204385,0.6317159999999999,0.06344,-0.779092,2.1875,-2.275,-3.255
19,204482,0.630008,0.061732,-0.77836,2.135,-2.3625,-3.29
20,204579,0.632204,0.063684,-0.7793359999999999,2.1,-2.31,-3.22
21,204676,0.6317159999999999,0.063684,-0.7788480999999999,2.065,-2.345,-3.2025
22,204773,0.628788,0.063928,-0.780068,2.205,-2.3625,-3.2725
23,204870,0.628788,0.06124401,-0.7793359999999999,2.135,-2.31,-3.22
24,204967,0.630252,0.0671,-0.781532,2.1175,-2.345,-3.255
25,205064,0.627812,0.059536,-0.7771399999999999,2.205,-2.3275,-3.08
26,205162,0.6314721,0.06344,-0.7771399999999999,2.1175,-2.2575,-3.08
27,205259,0.631228,0.062952,-0.779092,2.1,-2.3275,-3.0975
28,205356,0.6319600000000001,0.06490399999999999,-0.779092,2.135,-2.345,-3.1325
29,205453,0.6319600000000001,0.061975999999999996,-0.777872,2.17,-2.275,-3.1675
30,205550,0.62952,0.061488,-0.7793359999999999,2.0825,-2.2575,-3.15
31,205647,0.632204,0.062464,-0.77836,2.0475,-2.38,-3.22
32,205744,0.6290319999999999,0.060512,-0.776896,2.065,-2.3275,-3.2725
33,205841,0.626836,0.06636801,-0.7793359999999999,2.065,-2.2225,-3.2025
34,205938,0.6292760000000001,0.064172,-0.781532,2.1875,-2.24,-3.15
35,206035,0.628788,0.060512,-0.779092,2.2225,-2.2225,-3.045
36,206132,0.6290319999999999,0.061975999999999996,-0.779092,2.1875,-2.24,-3.1325
37,206229,0.6304960000000001,0.061488,-0.777628,2.205,-2.2575,-3.045
38,206326,0.6292760000000001,0.060512,-0.778604,2.1525,-2.24,-3.08
39,206423,0.6280560000000001,0.06124401,-0.779092,2.1875,-2.2225,-3.115
40,206520,0.6273241,0.061732,-0.7822640000000001,2.205,-2.24,-3.115
41,206617,0.6283,0.062952,-0.782508,2.1875,-2.1525,-3.045
42,206715,0.630252,0.06124401,-0.7795801,2.2575,-2.2575,-3.0275
43,206812,0.628788,0.060512,-0.7788480999999999,2.275,-2.2575,-3.0275
44,206909,0.630252,0.060024,-0.77836,2.2575,-2.1175,-3.115
45,207006,0.6319600000000001,0.062464,-0.7771399999999999,2.2575,-2.0825,-3.1675
46,207103,0.62952,0.061,-0.777628,2.1175,-2.0825,-3.1675
47,207200,0.632448,0.062464,-0.778116,1.995,-2.0825,-3.185
48,207297,0.631228,0.06344,-0.779092,2.0125,-2.1175,-3.22
49,207394,0.630008,0.06075601,-0.778116,2.03,-2.1525,-3.3075
50,207491,0.6326921,0.062220000000000004,-0.777384,1.925,-2.1525,-3.325
51,207588,0.62952,0.060512,-0.777872,1.89,-2.275,-3.2725
52,207685,0.6348881,0.06954,-0.785192,1.89,-1.5575,-3.3075
53,207782,0.6661201,0.053191999999999996,-0.789828,1.085,0.1575,-3.0275
54,207879,0.6497721,0.034648000000000005,-0.7671359999999999,-2.17,1.26,-3.08
55,207977,0.641964,0.043676,-0.774944,-6.3525,0.0175,-4.2875
56,208074,0.6409881,0.09784401,-0.7671359999999999,-8.4525,-2.24,-4.095
57,208171,0.636352,0.05002,-0.7771399999999999,-7.42,-2.835,-3.9025
58,208268,0.630984,0.005368,-0.7883640000000001,-6.1775,-3.605,-3.115
59,208365,0.6414761,0.09711201,-0.783972,-5.5825,-4.025,-2.8
60,208462,0.625128,0.112972,-0.768112,-4.5675,-4.48,-2.2225
61,208559,0.627568,0.090768,-0.765672,-4.13,-5.215,-2.03
62,208656,0.621224,0.071248,-0.8015399999999999,-3.15,-5.7925,-1.5225
63,208753,0.643672,0.050996,-0.765428,-2.905,-5.8975,-1.26
64,208850,0.630252,0.057339999999999995,-0.777872,-2.8175,-6.0725,-1.5575
65,208947,0.6456241,0.062220000000000004,-0.789828,-3.045,-6.4925,-2.065
66,209045,0.628544,0.071492,-0.7922680000000001,-3.43,-6.65,-2.1
67,209142,0.606584,0.077836,-0.8203280000000001,-3.535,-6.125,-1.9075
68,209239,0.61854,0.0671,-0.7890961,-3.5,-4.9525,-1.7675
69,209336,0.612684,-0.18324400000000002,-0.8576601,-4.9525,-5.0575,-0.98
70,209433,0.630984,-0.060267999999999995,-0.8003201,-16.625,-8.05,8.3825
71,209530,0.636108,0.122244,-0.7217521,-26.3725,-10.4125,18.1825
72,209627,0.671976,0.23424,-0.7217521,-25.1825,-11.5675,20.2125
73,209724,0.648796,0.330864,-0.7088201,-13.5975,-11.97,10.395
74,209821,0.62708,-0.0427,-0.8105680000000001,-1.925,-9.345,-4.865
75,209918,0.6082920999999999,0.08906,-0.784704,-2.8875,-9.345,-5.5475
76,210015,0.61732,0.132248,-0.7820199999999999,-3.08,-8.96,-5.18
77,210112,0.60878,0.030987999999999998,-0.7903161,-2.4325,-8.2075,-5.88
78,210209,0.5892601,0.05929201,-0.774456,-3.4825,-7.735,-6.4225
79,210307,0.612196,0.1037,-0.7700640999999999,-4.2525,-6.3175,-7.735
80,210404,0.5958479999999999,0.10931199999999999,-0.7605481,-3.255,-6.0025,-7.455
81,210501,0.574864,0.106628,-0.753472,-1.225,-5.39,-6.4925
82,210598,0.584136,0.11712,-0.759084,1.19,-3.745,-4.97
83,210695,0.598532,0.098576,-0.770308,3.4125,-2.345,-3.99
84,210792,0.593164,0.09150001,-0.770308,4.6725,-1.5575,-3.325
85,210889,0.5587601,0.093696,-0.748104,5.705,-0.8225,-2.9925
86,210986,0.5233800000000001,0.118096,-0.7539600000000001,7.6475,1.33,-2.31
87,211083,0.60512,0.104432,-0.7978801,11.62,5.4425,-1.12
88,211180,0.7468840999999999,0.082228,-0.9057280999999999,14.735,6.5625,-0.2275
89,211277,0.691008,-0.012444,-0.7956840999999999,10.2375,3.395,-1.1375
90,211374,0.6080479999999999,0.10004,-0.7788480999999999,3.8325,-1.225,-3.4475
91,211471,0.6329359999999999,0.10321199999999998,-0.7978801,4.4625,-1.295,-3.01
92,211568,0.6178081,0.06588,-0.787632,5.74,-1.3125,-2.0825
93,211666,0.603168,0.08296,-0.779824,5.705,-1.6275,-2.1175
94,211763,0.597312,0.074664,-0.781532,5.985,-1.1725,-2.1
95,211860,0.580232,0.08417999999999999,-0.791048,6.6325,0.0,-1.9775
96,211957,0.5980439999999999,0.08100801,-0.7951961,8.2775,1.5575,-1.295
97,212054,0.6280560000000001,0.074664,-0.790804,9.66,2.345,-1.1725
98,212151,0.648796,0.07564,-0.7869,8.995,2.03,-1.75
99,212248,0.643672,0.067832,-0.785192,7.0,1.505,-2.415
100,212345,0.6441600000000001,0.08369201,-0.786656,5.6525,0.4025,-2.8875
101,212442,0.64782,0.07417601,-0.780068,5.0225,-0.035,-2.7475
102,212539,0.6344,0.074664,-0.781532,4.3225,-0.5075,-2.52
103,212636,0.6348881,0.06954,-0.7832399999999999,3.7975,-1.015,-2.6775
104,212733,0.6344,0.067344,-0.7820199999999999,3.185,-1.1375,-2.9225
105,212830,0.629764,0.06344,-0.782508,2.4325,-1.26,-3.3425
106,212928,0.628544,0.07173600000000001,-0.782752,1.8725,-1.3825,-3.7275
107,213025,0.632204,0.07588400000000001,-0.7854361,2.1175,-1.47,-3.675
108,213122,0.627812,0.07027201,-0.7808001,2.2925,-1.5925,-3.535
109,213219,0.6292760000000001,0.08003201,-0.7854361,2.275,-1.68,-3.6575
110,213316,0.6317159999999999,0.07222401,-0.783728,1.9425,-1.4,-3.465
111,213413,0.626836,0.077836,-0.784216,1.2775,-1.19,-3.57
112,213510,0.629764,0.081984,-0.778604,1.54,-1.4525,-3.0975
113,213607,0.635864,0.07393200000000001,-0.777872,2.345,-1.8725,-2.4675
114,213704,0.634156,0.076616,-0.7766521,3.045,-2.66,-2.0825
115,213801,0.6317159999999999,0.076616,-0.776896,3.71,-3.255,-1.6975
116,213898,0.624884,0.06075601,-0.778604,4.2,-3.8675,-1.5925
117,213995,0.621224,0.063684,-0.777628,3.6225,-4.13,-2.485
118,214092,0.6009720000000001,0.06563601,-0.777384,3.0975,-3.885,-3.325
119,214190,0.5968241,0.0671,-0.780068,2.765,-3.255,-3.815
120,214287,0.60634,0.06929600000000001,-0.781776,2.2575,-2.17,-4.165
121,214384,0.61488,0.062464,-0.780312,2.065,-1.68,-4.4275
122,214481,0.615124,0.067832,-0.7788480999999999,1.995,-1.7675,-4.7775
123,214578,0.6156119999999999,0.06563601,-0.781044,1.89,-2.03,-4.9875
124,214675,0.621468,0.064416,-0.7812880999999999,1.61,-1.75,-5.425
125,214772,0.6202479999999999,0.066124,-0.776408,1.0325,-1.295,-5.705
126,214869,0.613416,0.08417999999999999,-0.7829961,0.77,-1.085,-5.6875
127,214966,0.6197600000000001,0.075396,-0.790072,1.6625,-0.49,-5.18
128,215063,0.632204,0.07076001,-0.7812880999999999,2.0825,0.105,-4.8825
129,215160,0.630252,0.07637200000000001,-0.781776,2.415,0.0175,-4.7075
130,215257,0.633912,0.07222401,-0.781044,2.835,-0.07,-4.305
131,215355,0.6375721,0.06466001,-0.780556,2.6075,-0.1225,-4.2875
132,215452,0.6290319999999999,0.071004,-0.7834840000000001,1.9425,-0.175,-4.515
133,215549,0.619272,0.07881200000000001,-0.773968,1.4,0.105,-4.655
134,215646,0.634156,0.084912,-0.776896,0.28,1.995,-4.3925
135,215743,0.6351319999999999,0.089304,-0.772992,0.21,2.4325,-3.78
136,215840,0.6273241,0.08003201,-0.7766521,0.9275,1.925,-3.2025
137,215937,0.6319600000000001,0.07686,-0.780556,1.6275,1.5225,-2.7475
138,216034,0.6344,0.0732,-0.787388,2.415,1.12,-2.31
139,216131,0.631228,0.083936,-0.7754321,2.905,0.7525,-1.995
140,216228,0.62708,0.06124401,-0.7812880999999999,3.5,0.7875,-1.61
141,216325,0.630252,0.07417601,-0.7759199999999999,4.0425,0.245,-1.3125
142,216422,0.637084,0.06880801,-0.778604,4.305,0.1225,-1.4
143,216520,0.6348881,0.0732,-0.7732359999999999,4.0775,-0.035,-1.68
144,216617,0.6348881,0.065148,-0.773968,3.745,-0.0175,-1.9775
145,216714,0.6329359999999999,0.083204,-0.768844,3.3075,0.0175,-2.1875
146,216811,0.626104,0.07588400000000001,-0.774944,3.115,0.28,-2.065
147,216908,0.6307401,0.08344800000000001,-0.770308,2.8,0.595,-2.3625
148,217005,0.6283,0.07246799999999999,-0.780068,2.59,1.2075,-2.2225
149,217102,0.6375721,0.06588,-0.782508,2.3625,1.8725,-2.0825
150,217199,0.6439159999999999,0.071004,-0.773724,2.1525,2.45,-1.96
151,217296,0.6170760000000001,0.048312,-0.773724,1.61,3.185,-1.7325
152,217393,0.6168319999999999,0.063196,-0.784216,0.7175,4.1475,-1.47
153,217490,0.625616,0.07002799999999999,-0.777872,-0.14,5.7225,-1.6275
154,217588,0.612196,0.07515201,-0.783972,-0.6125,7.4725,-1.61
155,217685,0.6219561,0.080764,-0.7832399999999999,-0.5425,9.8175,-1.6275
156,217782,0.6319600000000001,0.0732,-0.775676,-0.9275,11.5675,-1.4
157,217879,0.632448,0.07442,-0.780068,-1.61,13.5975,-1.295
158,217976,0.625372,0.074664,-0.7861680999999999,-2.0825,15.925,-1.33
159,218073,0.62708,0.07002799999999999,-0.776408,-2.5025,18.7075,-1.3475
160,218170,0.627568,0.07417601,-0.791292,-3.185,21.7525,-1.505
161,218267,0.6202479999999999,0.05929201,-0.797392,-3.8325,26.32,-1.4
162,218364,0.596092,0.049776,-0.828624,-5.915,32.9525,-1.925
163,218461,0.57706,0.05977999999999999,-0.8476561,-9.275,44.135,-3.2725
164,218558,0.5946279999999999,0.09930800000000001,-0.8459479999999999,-11.6725,58.345,-3.64
165,218656,0.60146,0.12078,-0.8481440999999998,-13.965,74.4625,-0.385
166,218753,0.61122,0.09930800000000001,-0.880352,-13.58,92.3125,5.215
167,218850,0.6290319999999999,0.111996,-0.902068,-7.665,110.5125,14.2275
168,218947,0.639768,0.10638399999999999,-0.8791321,1.6275,129.2025,28.2975
169,219044,0.625616,0.13542,-0.889136,8.785,148.33,44.975
170,219141,0.586576,0.135908,-0.868396,17.99,170.555,60.235
171,219238,0.614636,0.244732,-0.9269561,28.21,196.63,70.14
172,219335,0.637084,0.252296,-0.97234,42.91,223.37,76.16001
173,219432,0.638304,0.243756,-0.9677040000000001,54.915,251.685,79.625
174,219529,0.8369200000000001,0.257664,-1.0438319999999999,63.105,284.62,82.46
175,219626,1.228784,0.236436,-1.123132,69.825,322.8925,82.74
176,219724,2.105476,0.009028000999999999,-1.3583479999999999,61.1625,348.32,72.695
177,219821,1.9522439999999999,0.05368,-1.390556,43.1375,354.7425,83.3175
178,219918,2.2079560000000003,-0.048068,-1.7028759999999998,4.9,360.185,80.2375
179,220015,1.488156,0.282552,-1.579656,-43.89,331.345,69.58
180,220112,1.077016,0.5060560000000001,-1.760948,-51.3975,309.6975,84.4725
181,220209,0.9830760000000001,-0.06563601,-2.2179599999999997,-21.315,283.7275,93.6425
182,220306,3.1036799999999998,0.709796,-4.21022,-14.6475,215.635,105.8575
183,220403,1.36152,1.0230920000000001,-2.875052,-8.715,40.4425,84.7525
184,220500,-0.239852,1.059936,-1.729716,12.3725,-81.305,70.8575
185,220597,-0.8601,0.8664440000000001,-1.1270360000000001,28.0525,-113.0675,63.8925
186,220694,-1.077992,0.8235001000000001,-0.9376921,20.1425,-97.615,45.43
187,220791,-0.8235001000000001,0.9115840000000001,-1.084336,-1.8725,-72.3975,13.3175
188,220889,-0.479704,1.058716,-1.330776,-22.3475,-66.01,-27.965
189,220986,-0.261324,1.1065399999999999,-1.435208,-26.6175,-84.10501,-68.6875
190,221083,-0.20788800000000002,0.9889319999999999,-1.352248,-14.5775,-114.5725,-102.725
191,221180,-0.162504,0.753472,-1.241716,1.9775,-142.2225,-128.275
192,221277,0.00976,0.528016,-1.207068,12.1275,-163.1175,-148.505
193,221374,0.231312,0.325008,-1.224636,16.9225,-183.785,-162.61
194,221471,0.4087,0.16714,-1.2104840000000001,18.585,-208.5475,-168.7
195,221568,0.514352,-0.000488,-1.1407,19.8975,-234.85,-166.0575
196,221665,0.5980439999999999,-0.15274400000000002,-1.051152,19.075,-257.635,-156.1875
197,221762,0.7129681,-0.233752,-1.003084,14.1925,-275.17,-140.56
198,221859,0.8625401,-0.239608,-1.022604,7.455,-288.68,-120.5575
199,221956,1.048712,-0.221308,-1.057008,1.1725,-301.21,-100.975
200,222054,1.159,-0.19642,-1.031388,-5.5475,-314.615,-84.01751
201,222151,1.220732,-0.14518,-0.9738041,-13.615,-324.94,-69.87751
202,222248,1.291736,-0.07564,-0.945256,-22.715,-328.1775,-58.905
203,222345,1.3856760000000001,0.042456,-0.9552601000000001,-31.9725,-326.025,-51.7475
204,222442,1.494988,0.190076,-0.987712,-39.3225,-321.2475,-49.49
205,222539,1.5799,0.35282399999999997,-1.017724,-42.1575,-313.845,-54.0225
206,222636,1.7929119999999998,0.47360399999999997,-1.115812,-39.025,-301.9975,-65.4675
207,222733,2.123532,0.522648,-1.26758,-32.9875,-291.8475,-82.8625
208,222830,2.4016919999999997,0.590236,-1.3066200000000001,-26.5475,-291.9,-105.945
209,222927,2.424628,0.511668,-1.0948280000000001,-11.5675,-300.545,-126.7175
210,223024,2.211128,0.17055599999999999,-0.670024,8.435,-303.45,-138.495
211,223121,2.057652,-0.059536,-0.303292,18.1475,-288.1375,-139.44
212,223218,2.132804,-0.20837600000000003,-0.14347200000000002,18.13,-257.075,-124.6875
213,223315,2.27164,-0.273524,0.021228,14.0175,-224.2275,-99.1375
214,223412,2.3323959999999997,-0.357948,0.316224,2.31,-199.535,-68.9675
215,223510,2.30946,-0.553148,0.711504,-19.8975,-175.315,-35.4025
216,223607,2.2530959999999998,-0.743224,0.9950319999999999,-58.52,-140.1575,-4.8825
217,223704,2.125484,-0.823744,1.074332,-101.92,-94.15,18.445
218,223801,2.0876639999999997,-0.815204,0.9152440000000001,-125.7375,-45.7975,38.045
219,223898,2.02886,-0.7956840999999999,0.683932,-118.335,-4.62,64.05
220,223995,1.912716,-0.85644,0.5072760000000001,-86.5725,26.39,101.7625
221,224092,1.880752,-0.8969440000000001,0.3477,-57.1375,52.0275,144.865
222,224189,1.8170680000000001,-0.673196,0.196664,-49.7525,70.175,180.95
223,224286,1.671888,-0.20984,0.070516,-54.2675,80.5875,200.515
224,224383,-1.5523280000000002,0.7812880999999999,-1.4478959999999998,-49.595,81.305,203.105
225,224480,-3.0988,1.64822,-2.2753,48.9125,127.0675,198.555
226,224577,-0.8003201,3.02926,-1.077016,107.1875,144.8825,177.8
227,224675,2.27774,1.101416,-0.47165200000000007,148.54,236.0575,134.365
228,224772,2.81454,0.37088000000000004,-2.237724,132.86,236.0575,34.4925
229,224869,1.006988,-1.063108,-1.286124,112.1575,157.4125,-61.7575
230,224966,0.697596,-1.849276,-1.125084,99.34751,134.1025,-38.6575
231,225063,0.440176,-2.042036,-1.056276,53.7075,122.325,2.415
232,225160,0.571936,-0.7883640000000001,-1.067988,6.93,117.7575,47.8625
233,225257,0.579256,0.9259799999999999,-0.7332201,-16.59,113.3125,62.6325
234,225354,0.6317159999999999,1.6775,-0.633668,-6.5625,116.1125,48.3525
235,225451,0.86864,0.8322841000000001,-0.8086161000000001,20.1775,124.635,20.055
236,225548,1.1751040000000001,-0.5458281,-1.153144,34.02,122.885,4.4625
237,225645,1.482544,-0.515084,-1.331508,23.065,99.03251,12.8275
238,225742,1.633824,0.7700640999999999,-1.272948,12.81,62.2825,20.5275
239,225839,0.409188,0.219356,-0.609268,21.5075,24.0275,8.3475
240,225937,0.724924,-0.18666,-1.0025959999999998,20.475,26.6875,7.6475
241,226034,0.752496,0.038551999999999996,-0.8300879999999999,13.5275,23.205,5.355
242,226131,0.654408,0.205204,-0.7922680000000001,10.01,15.5225,2.0125
243,226228,0.635864,0.033428,-0.831308,10.0275,13.5975,1.155
244,226325,0.642452,0.058072000000000006,-0.809348,7.805,12.4425,-0.245
245,226422,0.630008,0.142252,-0.8030041,5.18,10.9375,-2.3975
246,226519,0.587796,0.129564,-0.779824,6.09,10.5875,-1.925
247,226616,0.608536,0.176656,-0.792756,11.025,11.34,0.63
248,226713,0.630984,0.120048,-0.7954399999999999,16.2575,11.7775,2.9925
249,226810,0.618052,0.11028800000000001,-0.800076,18.725,10.0975,4.2
250,226907,0.656848,0.12712400000000001,-0.792756,19.32,8.6275,4.165
251,227004,0.670512,0.01708,-0.819108,18.27,5.9675,3.395
252,227102,0.62952,0.112972,-0.79422,15.5925,3.2025,1.645
253,227199,0.635864,0.09418401,-0.79056,15.7325,2.6425,1.505
254,227296,0.634644,0.083204,-0.792756,15.4175,1.575,1.505
255,227393,0.6368401,0.101748,-0.788852,14.4725,0.2975,1.3125
256,227490,0.6329359999999999,0.060267999999999995,-0.7883640000000001,14.105,-0.4025,1.225
257,227587,0.6317159999999999,0.066124,-0.780068,12.6175,-1.2775,0.56
258,227684,0.623908,0.07076001,-0.7808001,11.235,-2.0125,-0.1575
259,227781,0.624152,0.073688,-0.7869,10.2725,-2.485,-0.77
260,227878,0.625128,0.08100801,-0.78446,9.8,-2.94,-1.2425
261,227975,0.624396,0.07076001,-0.7812880999999999,9.73,-3.15,-1.3825
262,228072,0.643428,0.11541199999999999,-0.8020281,9.45,-3.5175,-1.8025
263,228169,0.6131721,0.058803999999999995,-0.786412,9.415,-3.7625,-1.7325
264,228267,0.611464,0.082472,-0.79178,8.96,-3.9725,-1.5575
265,228364,0.607316,0.06539201,-0.781044,8.1375,-3.535,-1.89
266,228461,0.6029241,0.075396,-0.787632,6.895,-2.975,-2.3275
267,228558,0.612196,0.07222401,-0.7854361,6.51,-2.31,-2.765
268,228655,0.612196,0.043676,-0.784704,6.0725,-1.6275,-3.0275
269,228752,0.614636,0.052216,-0.7822640000000001,4.8825,-1.2075,-3.6925
270,228849,0.612928,0.071248,-0.7829961,3.57,-0.6475,-4.27
271,228946,0.609268,0.07686,-0.783972,3.6225,-0.49,-4.165
272,229043,0.6117081,0.0732,-0.7856801,4.55,-0.3325,-3.57
273,229140,0.61122,0.09052401,-0.7861680999999999,5.5125,-0.35,-2.5725
274,229237,0.607316,0.077348,-0.7766521,6.5625,-0.245,-1.645
275,229335,0.605608,0.080764,-0.78446,6.7375,0.07,-1.33
276,229432,0.619516,0.071248,-0.797636,6.09,1.19,-1.2775
277,229529,0.612196,0.079056,-0.7895840999999999,5.32,2.2575,-0.7525
278,229626,0.63318,0.077348,-0.7881199999999999,4.83,3.43,-0.3325
279,229723,0.637084,0.118584,-0.8020281,3.675,4.445,0.35
280,229820,0.6124400999999999,0.10345599999999999,-0.787144,2.8875,5.39,1.19
281,229917,0.6029241,0.098576,-0.793488,0.9275,6.7725,0.6125
282,230014,0.6304960000000001,0.060512,-0.7890961,0.0,9.03,1.9775
283,230111,0.590968,0.06344,-0.8086161000000001,-1.8025,11.7075,4.6725
284,230208,0.543144,0.06270801,-0.846924,-3.29,17.7975,5.8275
285,230305,0.5063,0.044896,-0.8840120000000001,-4.9175,29.5925,4.6375
286,230402,0.549488,-0.005856,-0.8425321,-6.5275,45.0275,4.585
287,230499,0.560956,0.027572000000000003,-0.8574161,-15.575,64.4875,6.7725
288,230597,0.546072,0.07222401,-0.9154880999999999,-26.3725,86.24,12.0925
289,230694,0.566812,0.160308,-1.062864,-28.4025,112.77,16.31
290,230791,0.5777920999999999,0.141764,-1.0523719999999999,-17.43,141.3125,24.4475
291,230888,0.553636,0.115168,-1.0589600000000001,-4.9875,173.04,40.985
292,230985,0.4933681,0.193004,-1.070916,6.6675,208.53,68.915
293,231082,0.44334799999999996,0.30988000000000004,-1.110932,24.43,250.25,95.97
294,231179,0.5214281,0.5038600000000001,-1.079456,43.75,298.9875,121.2925
295,231276,0.601216,0.591212,-1.077748,65.31,351.4175,137.725
296,231373,0.774212,0.47067600000000004,-1.028216,78.785,397.7225,146.475
297,231470,1.856352,0.22326,-1.335656,76.685,437.22,140.035
298,231567,2.785504,0.11126400000000002,-1.429352,54.53,455.56,137.8125
299,231665,2.734264,0.49044,-2.1301200000000002,3.78,447.755,159.53
300,231762,1.675548,0.5355800999999999,-2.074488,-29.6625,398.5975,159.0925
301,231859,1.290516,0.765672,-2.082296,-16.9925,352.5375,183.2075
302,231956,0.371368,0.8322841000000001,-2.4043759999999996,-6.195,332.465,192.3425
303,232053,1.9781080000000002,0.8361879999999999,-3.26716,-27.44,220.78,165.62
304,232150,1.360544,1.735816,-3.082696,-58.5375,51.6075,94.37751
305,232247,-0.018544,1.6977520000000001,-2.2579759999999998,-29.225,-110.74,48.2475
306,232344,-0.6414761,1.336876,-1.3949479999999999,0.07,-164.115,11.1125
307,232441,-0.9625799999999999,1.098976,-0.9818561,11.865,-162.05,-26.5825
308,232538,-0.6836880999999999,0.9489161,-0.9821,5.8275,-138.1975,-67.305
309,232635,-0.33061999999999997,0.8569280999999999,-1.10532,-3.6925,-127.2425,-105.2975
310,232733,-0.03172,0.784216,-1.208532,-10.115,-137.375,-138.3025
311,232830,0.147376,0.674416,-1.190964,-6.895,-163.1525,-162.75
312,232927,0.22082,0.49434399999999995,-1.081408,4.585,-193.06,-176.89
313,233024,0.268888,0.276696,-0.9535521,14.3325,-217.8575,-183.8375
314,233121,0.32086,0.11345999999999999,-0.8610761,14.21,-235.865,-188.44
315,233218,0.40528400000000003,0.032208,-0.8276481,6.3,-247.94,-192.2375
316,233315,0.5343600000000001,0.010248,-0.8637601,-1.05,-256.2525,-193.0075
317,233412,0.680516,0.03782,-0.9354959999999999,-1.68,-264.4425,-188.44
318,233509,0.8383841000000001,-0.011224,-0.9972281,5.285,-274.4875,-179.655
319,233606,0.9784401,-0.108824,-1.0255319999999999,12.635,-285.11,-171.185
320,233703,1.131184,-0.23911999999999997,-1.033096,14.9975,-294.105,-162.505
321,233800,1.224636,-0.2745,-1.0169920000000001,12.0925,-300.0375,-153.055
322,233898,1.318576,-0.36356,-1.026996,10.535,-301.77,-138.6
323,233995,1.458632,-0.30182800000000004,-1.101416,4.76,-300.6325,-120.75
324,234092,1.63968,-0.211792,-1.254892,0.2975,-299.74,-100.94
325,234189,1.886852,-0.10248,-1.374696,-2.52,-302.365,-82.3375
326,234286,2.069852,-0.02684,-1.40178,-6.755,-310.695,-68.1275
327,234383,2.162328,0.079056,-1.314184,-12.5825,-318.57,-61.53
328,234480,2.235528,0.188856,-1.184376,-17.4475,-318.745,-63.7875
329,234577,2.347768,0.30012,-1.027728,-16.695,-309.9075,-73.57
330,234674,2.46074,0.48433999999999994,-0.7483479999999999,-8.33,-297.78,-86.0125
331,234771,2.540284,0.586576,-0.392596,8.715,-286.0025,-91.6475
332,234868,2.55468,0.47384799999999994,0.171044,24.9025,-269.92,-88.9
333,234965,2.46074,0.09247601,0.8820601,19.9675,-245.5775,-83.1425
334,235062,2.329712,-0.30866,1.318088,-18.41,-200.795,-79.625
335,235160,2.2262560000000002,-0.48726800000000003,1.36884,-76.5625,-134.9075,-85.3825
336,235257,2.348744,-0.533628,1.117764,-106.4525,-66.1675,-93.6775
337,235354,2.35704,-0.668316,0.7856801,-85.61,-14.42,-79.2575
338,235451,2.191852,-0.9696561,0.49605200000000005,-37.065,15.6275,-37.0825
339,235548,1.9895759999999998,-1.254648,0.312808,-4.725,32.655,19.46
340,235645,1.8182880000000001,-1.181692,0.187636,-14.595,42.9625,70.7175
341,235742,1.551596,-0.6958880000000001,0.163724,-46.095,47.46,110.6525
342,235839,0.9943001,0.031476,0.081252,-62.1775,51.6425,142.6425
343,235936,-1.07726,1.911984,-0.585356,19.53,83.7025,167.65
344,236033,-1.7690000000000001,0.219844,0.043676,141.75,162.855,177.835
345,236130,0.998692,2.287988,-0.9067040000000001,80.22,275.345,104.4575
346,236227,2.964112,0.47604399999999997,-1.6406560000000001,101.4475,330.365,47.7225
347,236325,1.981524,-0.586088,-1.66408,98.5075,252.3675,-28.3325
348,236422,1.186328,-1.60552,-1.38958,96.4425,204.0675,-33.355
349,236519,0.818376,-1.906616,-1.094096,65.205,182.805,8.96
350,236616,0.690764,-0.726388,-0.964532,23.415,166.5125,42.8575
351,236713,0.7232161,0.793244,-0.7266321,7.6825,160.4575,59.43
352,236810,2.617876,1.9764,-1.766804,27.405,162.54,54.4775
353,236907,1.826584,-0.193004,-1.16022,67.3575,111.2475,40.88
354,237004,0.604144,-0.531676,-1.109224,73.5525,34.09,41.825
355,237101,1.084824,0.116388,-0.9145120999999999,35.63,40.1275,19.3725
356,237198,0.72102,-0.09223200000000001,-0.8971879999999999,26.425,10.0625,9.135
357,237295,0.611952,0.030744,-0.7993439999999999,17.99,3.85,3.36
358,237393,0.647576,0.028792,-0.823744,14.49,3.255,-0.035
359,237490,0.617564,0.021716,-0.807884,12.1975,1.365,-1.295
360,237587,0.620492,0.044652,-0.803248,10.4125,1.2775,-2.2575
361,237684,0.630252,0.049532,-0.796172,9.1175,0.875,-2.9575
362,237781,0.632448,0.05636401,-0.7903161,7.0525,0.875,-3.99
363,237878,0.61366,0.05636401,-0.7956840999999999,5.215,0.735,-4.445
364,237975,0.625372,0.1098,-0.793488,4.1125,0.8225,-4.585
365,238072,0.614636,0.087352,-0.793976,3.9375,0.4025,-4.165
366,238169,0.610488,0.108824,-0.793244,4.0075,-0.175,-3.4475
367,238266,0.616344,0.10321199999999998,-0.787876,4.7425,-0.455,-2.59
368,238363,0.610244,0.098332,-0.79056,5.53,-1.2775,-1.7675
369,238460,0.610244,0.114436,-0.797636,6.4225,-2.0825,-0.9975
370,238558,0.606096,0.07027201,-0.7869,7.385,-2.2575,-0.2275
371,238655,0.59536,0.08466801,-0.789828,7.3675,-2.38,-0.1575
372,238752,0.601216,0.0793,-0.791536,6.79,-2.205,-0.9275
373,238849,0.605364,0.08003201,-0.792756,6.79,-2.03,-1.12
374,238946,0.604388,0.06661201,-0.793488,7.245,-1.9775,-1.1725
375,239043,0.6080479999999999,0.070516,-0.787632,6.9125,-2.1,-1.4525
376,239140,0.6161,0.07246799999999999,-0.7869,6.825,-2.1525,-1.575
377,239237,0.6095119999999999,0.079056,-0.79178,6.615,-2.345,-1.5225
378,239334,0.6141479999999999,0.074664,-0.791536,6.615,-2.2925,-1.3825
379,239431,0.6109760000000001,0.075396,-0.7893399999999999,6.79,-2.59,-1.1375
380,239528,0.598532,0.050263999999999996,-0.7861680999999999,6.7025,-2.835,-1.505
381,239625,0.60146,0.0671,-0.7978801,6.125,-2.24,-1.9075
382,239722,0.5946279999999999,0.061975999999999996,-0.791048,5.775,-1.75,-2.1175
383,239820,0.5980439999999999,0.037088,-0.7929999999999999,4.62,-1.1025,-2.59
384,239917,0.6070720000000001,0.060512,-0.8003201,3.9025,-0.3325,-2.8525
385,240014,0.613416,0.071248,-0.792512,4.0425,0.49,-2.7825
386,240111,0.60512,0.056852,-0.778604,3.675,0.455,-2.52
387,240208,0.610488,0.044652,-0.7834840000000001,3.8675,1.225,-2.1525
388,240305,0.6141479999999999,0.077348,-0.789828,3.815,1.4,-1.33
389,240402,0.611464,0.07417601,-0.7922680000000001,3.6575,1.75,-0.7875
390,240499,0.599996,0.071248,-0.7993439999999999,2.7825,2.17,-0.595
391,240596,0.6068279999999999,0.100284,-0.796416,2.31,3.7625,-0.6475
392,240693,0.601704,0.094916,-0.796904,1.645,4.7075,-0.735
393,240790,0.598288,0.084912,-0.787144,1.1725,6.1425,-0.595
394,240888,0.620004,0.1098,-0.8132520999999999,-0.175,7.7525,-0.2625
395,240985,0.5968241,0.053924,-0.80886,-1.0325,9.59,0.21
396,241082,0.54168,0.036356,-0.8276481,-2.9925,14.2975,0.875
397,241179,0.5309441,0.000976,-0.8549761,-4.725,22.925,1.0325
398,241276,0.564372,0.046360000000000005,-0.8483879999999999,-6.9125,33.145,-0.035
399,241373,0.5463161,0.06588,-0.861808,-9.345,45.15,-0.63
400,241470,0.549732,0.05977999999999999,-0.8476561,-13.125,60.1825,0.1925
401,241567,0.5897479999999999,0.07686,-0.853024,-19.425,77.735,3.675
402,241664,0.564128,0.16128399999999998,-0.9467200000000001,-23.1875,97.05501,8.68
403,241761,0.571204,0.09979600000000001,-0.9718521000000001,-19.145,120.19,15.5575
404,241858,0.6219561,0.141764,-0.9623360999999999,-8.26,145.0225,25.9525
405,241955,0.6019479999999999,0.15396400000000002,-0.9921040999999999,-0.3675,169.7675,45.7625
406,242053,0.5502199999999999,0.17763199999999998,-0.9796600000000001,8.5225,195.7025,72.135
407,242150,0.48312,0.25742,-1.043344,17.8325,231.315,96.28501
408,242247,0.525332,0.478728,-1.080432,27.51,275.415,116.6025
409,242344,0.597312,0.363804,-0.99308,45.64,322.735,126.1925
410,242441,0.7759199999999999,0.35136,-1.085312,58.9925,365.96,130.5325
411,242538,1.630408,0.209352,-1.2585520000000001,63.7875,400.89,126.665
412,242635,2.551752,0.082228,-1.291248,52.115,412.51,120.6975
413,242732,2.5754200000000003,0.444568,-1.83732,11.0075,408.4675,136.15
414,242829,1.9839639999999998,0.42724399999999996,-1.74338,-31.185,381.5175,138.1975
415,242926,1.3664,0.651968,-1.7575319999999999,-39.69,337.12,154.0525
416,243023,0.6170760000000001,0.7832399999999999,-1.9056400000000002,-25.41,312.7075,173.4425
417,243121,0.6707561,0.63562,-1.576972,-29.19,234.3075,165.8825
418,243218,2.286768,1.464,-3.8844800000000004,-38.255,98.63,116.095
419,243315,0.074664,1.760704,-2.556632,-22.715,-95.97,64.575
420,243412,-0.640256,1.387628,-1.548668,9.3975,-170.0825,38.7975
421,243509,-1.0340719999999999,0.9254921,-0.9608721,32.795,-177.17,19.4075
422,243606,-0.8164239999999999,0.6688041,-0.8869401,15.1375,-156.345,-8.435
423,243703,-0.5185,0.6602640000000001,-0.957944,-23.7125,-141.995,-44.0475
424,243800,-0.247416,0.7705521,-1.081408,-57.2775,-142.8,-80.885
425,243897,-0.020252000000000003,0.8166680000000001,-1.1387479999999999,-66.78,-156.3275,-113.5225
426,243994,0.13542,0.748836,-1.125572,-52.9725,-175.875,-138.74
427,244091,0.244732,0.5502199999999999,-1.046028,-29.5925,-195.86,-158.3575
428,244188,0.350628,0.309148,-0.9725841000000001,-12.0925,-211.7675,-175.035
429,244285,0.472384,0.110044,-0.9613601,-7.7175,-223.335,-190.9775
430,244383,0.605364,-0.022692,-0.9906401,-10.92,-232.9075,-204.2775
431,244480,0.745908,-0.111996,-1.0321200000000001,-12.8975,-241.92,-209.4225
432,244577,0.9237841,-0.21618400000000002,-1.079212,-9.9925,-251.44,-204.82
433,244674,1.10532,-0.32452,-1.141676,-5.0925,-261.555,-192.325
434,244771,1.2561120000000001,-0.41723999999999994,-1.1953559999999999,-1.2775,-272.195,-174.055
435,244868,1.38836,-0.47994799999999993,-1.22122,-0.1575,-283.3075,-152.3375
436,244965,1.4823,-0.45164399999999993,-1.2160959999999998,-2.87,-293.5625,-129.4125
437,245062,1.5445200000000001,-0.376248,-1.22122,-5.6525,-300.8075,-106.855
438,245159,1.614792,-0.19764,-1.2099959999999998,-6.335,-304.675,-86.415
439,245256,1.7519200000000001,-0.092964,-1.2195120000000002,-3.99,-303.7825,-69.195
440,245353,1.956636,-0.016347999999999998,-1.224392,-5.6175,-298.8125,-60.4975
441,245451,2.124752,0.07637200000000001,-1.186816,-11.2525,-294.875,-59.5
442,245548,2.207468,0.189588,-1.071404,-15.82,-292.075,-63.875
443,245645,2.196732,0.292068,-0.8230120999999999,-13.7725,-286.8775,-71.015
444,245742,2.135976,0.49776000000000004,-0.47092,-3.0275,-276.0625,-78.015
445,245839,2.111088,0.472628,-0.15006,15.925,-257.3375,-80.0975
446,245936,2.0703400000000003,0.3294,0.14713199999999999,27.615,-231.875,-80.3425
447,246033,2.074488,0.02562,0.52704,18.83,-202.8075,-79.3625
448,246130,2.09718,-0.35502,0.7822640000000001,-15.68,-166.775,-69.755
449,246227,2.07278,-0.6039,0.8801081000000001,-70.56,-125.6325,-52.7975
450,246324,2.066436,-0.700036,0.7991,-124.8275,-84.315,-33.775
451,246422,2.032032,-0.733464,0.6348881,-150.605,-49.105,-10.4825
452,246519,1.9764,-0.7107720000000001,0.426756,-145.1975,-22.61,21.9625
453,246616,1.884656,-0.721264,0.268156,-116.5675,-5.04,63.84
454,246713,1.778272,-0.7766521,0.19032000000000002,-84.42,4.3225,109.305
455,246810,1.611376,-0.612928,0.183488,-71.99501,9.8525,145.9675
456,246907,1.4435040000000001,-0.119804,0.17055599999999999,-73.3775,14.6475,164.4825
457,247004,0.08784,1.8541560000000001,-0.690032,-54.3375,22.54,165.8475
458,247101,-1.647732,1.167784,1.041392,176.75,99.9075,173.04
459,247198,-1.067256,0.7156520000000001,-0.5124001,211.5925,177.0825,156.4325
460,247295,1.6887240000000001,0.708332,-1.111908,153.79,286.37,31.4825
461,247393,2.80356,-1.0401719999999999,-1.707268,125.4225,296.94,-49.0175
462,247490,1.565748,-1.438136,-1.524268,97.9475,223.615,-88.30501
463,247587,0.9635560999999999,-1.981768,-1.319796,80.29,183.3475,-46.585
464,247684,0.798124,-1.685064,-1.125816,40.2325,165.7425,13.86
465,247781,0.7378560000000001,-0.028792,-0.9057280999999999,-0.3675,152.6525,50.3825
466,247878,1.048956,1.341756,-0.789828,-12.95,148.715,47.425
467,247975,2.338984,1.605032,-1.519388,11.06,142.1875,29.645
468,248072,1.9063720000000002,-0.474092,-1.2585520000000001,53.0075,90.37001,24.885
469,248169,0.298412,-0.30988000000000004,-0.7564001,51.7125,18.62,29.2075
470,248266,0.71126,0.505324,-0.764208,31.7625,24.85,23.695
471,248363,0.720532,0.071004,-0.8376520000000001,35.805,23.45,18.8475
472,248461,0.7137001000000001,-0.11102000000000001,-0.9191481,34.335,19.845,18.0425
473,248558,0.726876,0.14688800000000002,-0.841556,29.575,14.1925,13.5975
474,248655,0.68686,0.06636801,-0.81618,27.195,10.8675,10.6575
475,248752,0.7171161,-0.05612,-0.8596120999999999,24.78,7.595,8.5925
476,248849,0.64782,0.02928,-0.797636,16.45,3.0625,3.3075
477,248946,0.653676,0.076616,-0.7986121,11.2525,1.47,-0.1925
478,249043,0.641232,0.07515201,-0.8025161,9.205,0.1925,-1.26
479,249140,0.6219561,0.042944,-0.774456,7.315,-0.1575,-1.9425
480,249237,0.612928,0.155184,-0.778604,6.5275,-0.63,-1.3825
481,249334,0.6202479999999999,0.11736400000000001,-0.792756,7.63,-1.295,-0.525
482,249431,0.620004,0.11541199999999999,-0.7854361,7.98,-1.925,-0.035
483,249528,0.6168319999999999,0.11736400000000001,-0.778604,8.33,-2.8525,0.7175
484,249626,0.609268,0.09589201,-0.780556,8.5925,-3.5,1.085
485,249723,0.606096,0.096868,-0.7808001,8.3475,-3.36,1.085
486,249820,0.610244,0.089792,-0.7856801,8.1725,-2.6775,0.7175
487,249917,0.613416,0.057584,-0.772748,7.77,-2.2575,0.0525
488,250014,0.607316,0.077592,-0.780068,7.2625,-1.9775,-0.7875
489,250111,0.60512,0.07881200000000001,-0.7883640000000001,7.3675,-1.6625,-1.19
490,250208,0.617564,0.082228,-0.7820199999999999,7.6825,-1.47,-1.4525
491,250305,0.619028,0.06270801,-0.7829961,8.12,-1.61,-1.6975
492,250402,0.620004,0.07612801,-0.7895840999999999,8.05,-1.82,-1.8375
493,250499,0.619516,0.07515201,-0.7869,8.61,-1.9075,-1.7675
494,250596,0.6158561,0.06661201,-0.7808001,9.3975,-2.24,-1.4175
495,250693,0.6131721,0.07246799999999999,-0.7829961,10.2025,-2.45,-1.05
496,250791,0.612928,0.082472,-0.791292,11.06,-2.695,-0.9975
497,250888,0.610488,0.06490399999999999,-0.7890961,12.18,-2.8525,-0.595
498,250985,0.617564,0.061732,-0.782752,12.3725,-3.045,-0.455
499,251082,0.604388,0.04392,-0.795928,10.92,-2.8525,-0.9625
500,251179,0.6168319999999999,0.069784,-0.7893399999999999,8.9075,-1.925,-1.4525
501,251276,0.6161,0.052216,-0.773724,7.8225,-0.945,-1.4875
502,251373,0.596336,0.038064,-0.781532,6.475,-0.3325,-1.12
503,251470,0.626104,0.091744,-0.774944,5.8625,0.8225,-1.05
504,251567,0.622688,0.06490399999999999,-0.7937320999999999,4.1825,1.8725,-1.33
505,251664,0.592432,0.05856,-0.774456,2.87,3.9025,-1.715
506,251761,0.6107319999999999,0.05246,-0.797392,1.9425,6.0725,-1.855
507,251858,0.646844,0.08174001,-0.7788480999999999,0.3675,7.805,-2.03
508,251956,0.62464,0.09272000000000001,-0.8188641,-2.415,9.03,-2.8175
509,252053,0.6344,0.10687200000000001,-0.8010520000000001,-4.0775,11.55,-2.31
510,252150,0.569984,0.067344,-0.830576,-5.4775,15.1025,-1.4
511,252247,0.4594521,0.009516001,-0.8918200000000001,-8.0675,22.75,0.8925
512,252344,0.471896,0.037088,-0.9147559999999999,-10.0625,41.65,2.6425
513,252441,0.5170359999999999,0.061975999999999996,-0.9049959999999999,-12.8975,64.4525,3.325
514,252538,0.541192,0.11224,-0.9311040999999999,-22.225,90.8075,7.5425
515,252635,0.564616,0.196176,-1.0626200000000001,-28.1575,123.935,15.4175
516,252732,0.5736441,0.082716,-1.059692,-17.0275,160.545,28.0525
517,252829,0.5612,0.12395199999999999,-1.08946,-0.9275,198.66,48.8425
518,252926,0.481412,0.133956,-1.0650600000000001,14.2625,232.155,79.1525
519,253024,0.40748,0.291092,-1.112396,31.675,268.8525,107.52
520,253121,0.5070319999999999,0.5612,-1.187792,54.425,319.27,130.9175
521,253218,0.6939361,0.525332,-1.206824,85.48751,371.0,139.9125
522,253315,1.19072,0.4819,-1.194868,99.2075,415.45,141.855
523,253412,2.489288,-0.006587999999999999,-1.176324,95.76,443.6775,131.705
524,253509,2.583716,0.349408,-1.5347600000000001,45.57,445.9525,137.515
525,253606,2.4038880000000002,0.609024,-2.039352,-7.07,412.37,151.0775
526,253703,1.619672,0.7639640999999999,-1.916864,-9.6075,344.715,165.62
527,253800,0.626104,0.724924,-1.7397200000000002,4.2875,314.3,184.905
528,253897,0.352092,0.341356,-1.8634279999999999,-14.7,246.54,174.3525
529,253994,2.077172,1.357372,-3.982568,-50.085,103.985,128.8525
530,254092,-0.30744,1.8636720000000002,-2.5278400000000003,-54.775,-78.33,79.905
531,254189,-0.784216,1.532564,-1.671888,-19.18,-133.1225,55.8775
532,254286,-0.9208561,1.011868,-1.275388,7.245,-138.5825,33.005
533,254383,-0.6158561,0.807396,-1.2817319999999999,-19.495,-133.42,-9.7825
534,254480,-0.43066000000000004,0.887184,-1.315892,-63.77,-140.56,-61.565
535,254577,-0.22814,0.9252481,-1.32736,-87.60501,-156.8875,-107.4325
536,254674,-0.061,0.8054439999999999,-1.279536,-82.2675,-177.59,-142.485
537,254771,0.071248,0.5799880000000001,-1.192916,-63.035,-198.8175,-169.365
538,254868,0.18470799999999998,0.316712,-1.099708,-45.115,-217.315,-191.03
539,254965,0.305244,0.09442801,-1.059692,-34.685,-231.4375,-208.845
540,255062,0.45457200000000003,-0.10223600000000001,-1.093364,-29.1025,-241.8325,-221.8125
541,255159,0.6722199999999999,-0.252784,-1.157292,-24.535,-250.985,-227.4125
542,255257,0.8461921,-0.422364,-1.187548,-17.045,-262.255,-222.495
543,255354,1.072868,-0.6039,-1.229272,-10.8675,-273.07,-208.04
544,255451,1.236104,-0.6824680000000001,-1.216828,-9.345,-282.87,-187.1625
545,255548,1.360544,-0.670512,-1.19804,-7.42,-290.36,-161.5075
546,255645,1.417884,-0.610244,-1.175592,-0.0525,-293.755,-133.2625
547,255742,1.46278,-0.502884,-1.179008,10.3075,-292.775,-105.0
548,255839,1.579412,-0.354044,-1.186328,20.895,-288.05,-78.5925
549,255936,1.804136,-0.254492,-1.268068,27.9825,-283.2375,-55.51
550,256033,2.0935200000000003,-0.159332,-1.2822200000000001,23.8175,-282.975,-42.9625
551,256130,2.202588,0.083936,-1.197308,9.0475,-291.1125,-44.52
552,256227,2.16184,0.273036,-0.99308,4.235,-298.13,-52.64
553,256324,2.111332,0.355996,-0.740052,12.215,-295.5575,-64.5575
554,256422,2.084004,0.411872,-0.44993599999999995,23.835,-284.795,-79.1875
555,256519,2.0559439999999998,0.25376,-0.202276,33.565,-266.7525,-90.66751
556,256616,2.131584,0.000976,0.049288,29.61,-241.7275,-95.9
557,256713,2.2530959999999998,-0.313784,0.396256,7.6125,-215.2325,-90.93
558,256810,2.368264,-0.59902,0.669048,-29.8025,-186.76,-74.9175
559,256907,2.3502080000000003,-0.8095920999999999,0.9320801,-71.71500999999999,-154.0875,-49.5075
560,257004,2.27408,-0.934276,1.116056,-103.355,-115.7625,-17.5525
561,257101,2.217228,-0.9459880999999999,1.1094680000000001,-114.1,-73.08,22.2775
562,257198,2.227964,-0.8457040000000001,0.8869401,-102.8475,-32.585,65.0825
563,257295,2.1423200000000002,-0.646844,0.652212,-80.1675,-4.3925,97.2475
564,257392,1.933456,-0.298168,0.556076,-55.1425,12.67,106.715
565,257489,0.8818159999999999,0.15396400000000002,0.331352,-23.975,28.035,95.9175
566,257587,-0.7390760000000001,0.35233600000000004,1.556964,44.135,101.745,94.78
567,257684,-0.26303200000000004,0.8903561,-1.688236,51.485,206.6925,101.325
568,257781,1.41398,2.225524,-1.3712799999999998,58.0125,286.3,80.2025
569,257878,2.5034400000000003,0.394548,-1.1575360000000001,109.4975,293.2475,53.13
570,257975,2.000312,-0.720532,-1.8666,80.2375,241.8675,-34.4575
571,258072,0.9652639999999999,-1.70678,-1.298812,77.77,188.1425,-33.11
572,258169,0.7229720000000001,-1.596248,-0.987224,43.82,168.84,14.5775
573,258266,0.6131721,-0.120048,-0.898164,6.0375,160.02,41.125
574,258363,0.713212,1.140212,-0.66368,-2.17,162.12,43.995
575,258460,1.974936,1.337364,-1.15046,18.5325,169.8025,32.69
576,258557,2.9262919999999997,-0.251076,-1.6204040000000002,58.0825,135.73,33.8275
577,258654,0.09320801,-0.37942,-0.522892,76.02,30.8525,43.0675
578,258752,1.017724,0.301584,-1.072624,47.67,42.8225,29.4525
579,258849,1.1411879999999999,-0.376492,-1.069452,47.6175,27.0375,19.6875
580,258946,0.629764,0.050508,-0.780068,29.0325,2.66,8.155
581,259043,0.653188,0.066124,-0.800076,19.775,3.7275,1.6275
582,259140,0.6451359999999999,0.030744,-0.798124,17.6575,0.665,0.735
583,259237,0.623664,0.046604,-0.794952,14.1925,-0.91,-0.3325
584,259334,0.6380600000000001,0.047092,-0.7890961,12.355,-0.6125,-1.2425
585,259431,0.6292760000000001,0.042212,-0.793488,9.1175,-0.3675,-2.2575
586,259528,0.6292760000000001,0.065148,-0.797392,6.7725,0.1925,-3.1325
587,259625,0.6082920999999999,0.05002,-0.7956840999999999,5.5125,0.1575,-3.535
588,259723,0.6273241,0.100284,-0.788608,4.4625,0.6825,-3.605
589,259820,0.6280560000000001,0.09418401,-0.7903161,4.34,0.5075,-3.2725
590,259917,0.6280560000000001,0.08857201,-0.7812880999999999,4.585,0.2975,-2.625
591,260014,0.6283,0.091988,-0.7829961,4.935,-0.3325,-2.1
592,260111,0.620492,0.074664,-0.7795801,5.2675,-0.9975,-1.6975
593,260208,0.6178081,0.07686,-0.789828,5.32,-1.225,-1.505
594,260305,0.6197600000000001,0.081496,-0.7834840000000001,5.39,-1.5225,-1.4
595,260402,0.6109760000000001,0.06270801,-0.7854361,5.425,-1.575,-1.4525
596,260499,0.60878,0.059048,-0.7829961,4.7775,-1.54,-1.9775
597,260596,0.60512,0.07686,-0.785192,4.305,-1.12,-2.4675
598,260693,0.607316,0.069784,-0.779092,4.06,-0.875,-2.59
599,260791,0.595116,0.028304000000000003,-0.787388,3.745,-0.98,-2.8525
600,260888,0.607316,0.06832001,-0.787388,3.85,-0.7,-2.905
601,260985,0.60146,0.03294,-0.792512,4.025,-0.5425,-2.9575
602,261082,0.624396,0.111996,-0.792024,4.27,-0.665,-3.29
603,261179,0.6058520000000001,0.026351999999999997,-0.7893399999999999,4.6025,-0.7525,-2.7475
604,261276,0.6222,0.05587601,-0.787876,5.005,-0.7175,-2.31
605,261373,0.62098,0.09711201,-0.793976,5.005,-0.2625,-2.0125
606,261470,0.6107319999999999,0.061732,-0.788608,4.7075,-0.245,-1.785
607,261567,0.61732,0.062220000000000004,-0.787632,4.6725,1.33,-1.9075
608,261664,0.6222,0.07198,-0.788852,4.1475,1.9775,-1.82
609,261761,0.625616,0.082472,-0.7861680999999999,3.5,2.2575,-1.4525
610,261858,0.623664,0.07222401,-0.7856801,3.57,3.1675,-1.2075
611,261956,0.626104,0.06539201,-0.7854361,2.7475,4.025,-1.26
612,262053,0.623664,0.06466001,-0.777384,1.9075,4.2175,-1.4175
613,262150,0.6117081,0.05636401,-0.7849480999999999,1.715,5.6,-1.05
614,262247,0.5941401,0.050996,-0.7956840999999999,1.3475,7.2625,-1.05
615,262344,0.5663239999999999,0.047092,-0.8076399999999999,-0.21,10.6225,-1.225
616,262441,0.5975560000000001,0.042212,-0.8030041,-2.555,16.275,-1.365
617,262538,0.5724239999999999,0.03904,-0.8164239999999999,-4.9875,21.595,-1.9775
618,262635,0.586088,0.051972000000000004,-0.8127641,-6.6675,29.1025,-2.4675
619,262732,0.592188,0.06880801,-0.813984,-8.4175,37.87,-2.975
620,262829,0.5838920999999999,0.058803999999999995,-0.824232,-10.4125,47.11,-3.5175
621,262926,0.576572,0.0732,-0.8254520000000001,-12.88,58.135,-3.43
622,263024,0.5856,0.11541199999999999,-0.84424,-16.73,72.9575,-1.3475
623,263121,0.5968241,0.10906800000000001,-0.836676,-20.055,90.49251,3.08
624,263218,0.640256,0.142496,-0.888648,-20.2825,109.2175,10.045
625,263315,0.6453800000000001,0.053436000000000004,-0.9037761000000001,-15.715,126.8925,20.6325
626,263412,0.6219561,0.048312,-0.9333,-12.39,146.125,33.845
627,263509,0.5846241,0.130296,-0.9328120000000001,-4.5325,167.475,50.5575
628,263606,0.55266,0.1342,-0.94306,7.455,194.3375,68.075
629,263703,0.530212,0.260348,-0.9323239999999999,22.155,226.6075,82.0575
630,263800,0.5914560000000001,0.31451599999999996,-0.989176,41.0025,265.965,89.39
631,263897,0.585356,0.262788,-0.8845,60.34,297.8675,93.4325
632,263994,0.7198,0.22082,-0.9059721,72.94,332.675,92.3125
633,264091,0.97478,0.168848,-0.835456,79.905,360.64,88.5675
634,264189,1.723128,-0.039284,-0.787876,78.54,384.3,82.3725
635,264286,2.217716,-0.11955999999999999,-0.975024,55.65,398.0375,78.1375
636,264383,2.1752599999999997,0.050508,-1.4215440000000001,13.965,396.3925,77.6475
637,264480,1.834148,0.125904,-1.356884,-31.115,385.735,67.97
638,264577,1.559892,0.25351599999999996,-1.70556,-58.87,374.4825,68.0925
639,264674,1.414468,0.360144,-1.8695279999999999,-59.955,344.0325,85.97751
640,264771,0.701012,0.205204,-1.4579,-41.965,315.455,103.2675
641,264868,1.232444,-0.311344,-1.642852,-51.03,236.74,106.015
642,264965,2.677412,0.59536,-3.590704,-87.8325,110.005,108.745
643,265062,0.53192,1.302716,-2.6715560000000003,-71.71500999999999,-61.6175,99.015
644,265159,0.043188,1.270752,-2.02276,-31.2375,-140.2625,92.75001
645,265256,-0.32403200000000004,1.025776,-1.574044,8.12,-174.0725,75.565
646,265354,-0.35282399999999997,0.86864,-1.41764,10.1325,-187.8275,38.9725
647,265451,-0.321104,0.829356,-1.3237,-7.8575,-200.585,-7.245
648,265548,-0.255956,0.82594,-1.28954,-23.975,-213.43,-53.5675
649,265645,-0.139324,0.769332,-1.266116,-27.44,-227.78,-94.4125
650,265742,-0.01952,0.656848,-1.2280520000000001,-18.48,-242.8475,-127.9425
651,265839,0.096868,0.5172800999999999,-1.164368,-3.7625,-257.705,-153.5625
652,265936,0.21032800000000001,0.367708,-1.097024,12.6525,-271.2325,-170.695
653,266033,0.368196,0.188612,-1.065792,27.4925,-281.3825,-179.9875
654,266130,0.5612,0.017812,-1.066768,36.4875,-290.43,-182.7175
655,266227,0.754204,-0.121512,-1.057496,37.8175,-300.755,-179.655
656,266324,0.8866961,-0.22667600000000002,-1.0060120000000001,33.0225,-310.8525,-171.395
657,266422,0.9779521000000001,-0.271084,-0.9501360999999999,24.3425,-317.1875,-159.5475
658,266519,1.12972,-0.251076,-0.981612,14.77,-315.8225,-146.58
659,266616,1.2871,-0.183732,-1.048468,7.8925,-311.6925,-134.3475
660,266713,1.4130040000000001,-0.084912,-1.133868,2.87,-309.8375,-122.7975
661,266810,1.581852,0.057339999999999995,-1.2312239999999999,0.0,-309.575,-108.9725
662,266907,1.7760759999999998,0.152256,-1.2566,0.1225,-312.0075,-91.945
663,267004,1.915888,0.237656,-1.142896,0.6475,-316.435,-75.2325
664,267101,1.9178400000000002,0.251564,-0.999668,0.3325,-318.9375,-60.865
665,267198,2.0276400000000003,0.359412,-0.9884440000000001,-5.0925,-310.9575,-54.0925
666,267295,2.268956,0.526308,-1.0321200000000001,-15.54,-300.3525,-56.28
667,267392,2.473672,0.654896,-0.8479,-19.705,-296.765,-62.8775
668,267490,2.477332,0.668316,-0.5314321,-19.705,-297.2025,-71.2425
669,267587,2.510272,0.3111,-0.094672,-22.9775,-286.755,-81.77750999999999
670,267684,2.560048,-0.096868,0.38064000000000003,-43.96,-264.2675,-89.39
671,267781,2.622268,-0.359656,0.7993439999999999,-77.3325,-232.015,-84.42
672,267878,2.654476,-0.6563601,1.1892559999999999,-105.4375,-191.4325,-60.655
673,267975,2.590304,-0.9655081,1.5201200000000001,-125.5975,-144.795,-29.8025
674,268072,2.556388,-1.029436,1.603324,-139.055,-91.5425,-1.8025
675,268169,2.539552,-0.9774639999999999,1.441064,-127.0675,-40.145,30.0825
676,268266,2.397056,-0.9767321,1.172664,-91.6825,-0.315,70.2975
677,268363,1.773636,-0.16592,1.1192280000000001,-27.7025,51.3975,110.7575
678,268460,-0.571692,-0.70028,2.570052,117.53,167.125,147.735
679,268558,0.8625401,0.44847200000000004,-2.374364,84.7,279.86,171.5
680,268655,2.557608,1.569652,-1.742404,84.63,330.05,113.33
681,268752,1.9612720000000001,0.134444,-0.815692,93.73,285.88,42.595
682,268849,1.5786799999999999,-0.9994241,-1.7143439999999999,79.485,265.44,-5.11
683,268946,1.1087360000000002,-1.8592799999999998,-1.128744,72.4325,229.9675,16.6075
684,269043,1.2658719999999999,-0.7439560000000001,-1.1533879999999999,28.35,211.085,42.49
685,269140,3.236904,1.3285799999999999,-2.1042560000000003,-2.2925,193.83,42.0175
686,269237,1.9368720000000001,0.345992,-0.927688,26.25,110.18,22.2425
687,269334,0.23228800000000002,-0.387472,-1.059936,56.105,26.915,22.9075
688,269431,1.254648,0.36112,-0.9089001,22.1375,44.52,13.37
689,269528,0.592432,0.10760399999999999,-0.749324,26.1625,23.9925,10.955
690,269626,0.8010520000000001,-0.115656,-0.9328120000000001,22.0675,18.7425,8.5225
691,269723,0.6229319999999999,0.170312,-0.792756,15.855,11.1125,3.6575
692,269820,0.6649,-0.012931999999999999,-0.8310639999999999,15.12,8.785,1.89
693,269917,0.644404,0.05172801,-0.775188,12.4775,5.985,-1.05
694,270014,0.662704,0.0671,-0.7991,9.7825,4.8825,-2.8
695,270111,0.671488,0.054167999999999994,-0.800808,8.3825,3.15,-2.975
696,270208,0.656116,0.067832,-0.7956840999999999,6.3525,2.555,-3.3775
697,270305,0.636352,0.109556,-0.79178,4.935,2.3275,-2.9925
698,270402,0.653188,0.062464,-0.784704,3.85,2.135,-3.255
699,270499,0.643428,0.093696,-0.777872,2.5025,2.1875,-3.815
700,270597,0.6304960000000001,0.123708,-0.7808001,1.8025,1.4,-3.7625
701,270694,0.58682,0.08954801,-0.772504,2.73,0.315,-3.4825
702,270791,0.615368,0.13176,-0.7832399999999999,3.22,-0.1925,-3.0275
703,270888,0.628788,0.11248399999999999,-0.768356,4.585,-1.12,-2.415
704,270985,0.619028,0.1159,-0.7759199999999999,4.62,-1.6625,-2.0475
705,271082,0.606096,0.10248,-0.7812880999999999,4.76,-2.135,-1.8025
706,271179,0.610488,0.10321199999999998,-0.7788480999999999,4.27,-2.0475,-2.17
707,271276,0.605608,0.102724,-0.7722600000000001,3.92,-1.855,-2.065
708,271374,0.612684,0.09613601,-0.780312,4.0425,-1.575,-1.8375
709,271470,0.626104,0.08637601,-0.7759199999999999,3.6575,-1.19,-2.0475
710,271567,0.618784,0.07222401,-0.754448,3.0275,-0.91,-2.695
711,271665,0.621468,0.09052401,-0.772016,1.925,-1.1025,-3.8675
712,271762,0.6314721,0.09247601,-0.776408,0.7875,-0.8400001,-4.76
713,271859,0.630984,0.08662001,-0.7766521,-0.49,-0.42,-5.46
714,271956,0.619028,0.10321199999999998,-0.779092,-1.05,-0.245,-5.635
715,272053,0.62708,0.114192,-0.776408,0.0,-0.035,-5.2675
716,272150,0.627812,0.09125599999999999,-0.7822640000000001,1.61,0.035,-4.6025
717,272247,0.6082920999999999,0.12688,-0.7793359999999999,3.325,0.3675,-4.06
718,272344,0.6117081,0.121024,-0.7771399999999999,5.53,1.1025,-3.3075
719,272441,0.615124,0.11345999999999999,-0.7771399999999999,7.7,1.6975,-2.5025
720,272538,0.635864,0.10345599999999999,-0.779092,8.82,2.1,-2.0825
721,272635,0.632448,0.071004,-0.773968,8.995,2.03,-1.8725
722,272733,0.619272,0.135664,-0.772748,8.9775,1.7675,-1.6275
723,272830,0.6375721,0.135664,-0.780556,10.5,1.4875,-0.07
724,272927,0.613904,0.131028,-0.763232,12.6175,0.2975,2.3625
725,273024,0.6280560000000001,0.14078800000000002,-0.7869,14.7875,-1.5575,6.055
726,273121,0.644892,0.028548,-0.7793359999999999,13.51,-1.435,7.1575
727,273218,0.6178081,0.124196,-0.7954399999999999,8.75,1.12,6.265
728,273315,0.617564,0.088328,-0.794952,6.1075,3.8675,6.405
729,273412,0.604388,0.05977999999999999,-0.797148,3.115,7.98,6.8075
730,273509,0.585112,0.030987999999999998,-0.809836,0.7525,12.915,7.49
731,273606,0.545096,0.05002,-0.8357,-1.0325,21.42,5.6175
732,273703,0.537532,0.0671,-0.856196,-4.1825,31.885,4.7075
733,273801,0.56242,0.016592,-0.813984,-7.735,46.095,6.195
734,273898,0.542412,0.015372,-0.8371639999999999,-19.8975,63.875,10.4125
735,273995,0.551928,0.037576,-0.9252481,-31.2375,87.3775,14.77
736,274092,0.5917,0.126392,-0.978196,-37.905,116.0425,19.95
737,274189,0.548756,0.074664,-1.045052,-33.39,144.795,29.855
738,274286,0.5363121,0.123464,-1.071404,-19.915,173.95,44.975
739,274383,0.529724,0.172996,-1.032852,0.35,207.725,65.94
740,274480,0.49727200000000005,0.320128,-1.005768,22.1025,243.425,88.55
741,274577,0.549244,0.49849209999999994,-1.1324040000000002,41.1775,287.7,107.9575
742,274674,0.526552,0.327936,-1.001132,63.1575,332.2725,121.1525
743,274771,0.7178479999999999,0.44237200000000004,-1.228784,72.485,380.6775,126.9975
744,274869,1.509628,0.124928,-1.085068,81.4275,420.7875,120.5925
745,274966,2.652768,-0.196176,-1.092632,56.84,445.3925,105.595
746,275063,2.4565919999999997,0.133956,-1.636264,-8.1375,448.7,104.335
747,275160,1.873432,0.16104000000000002,-1.65798,-55.825,426.2475,101.99
748,275257,1.610644,0.33184,-1.9122279999999998,-78.48751,395.5,107.7125
749,275354,0.987956,0.24912399999999998,-1.5725799999999999,-75.565,360.78,123.2875
750,275451,-0.0122,-0.162748,-3.029992,-77.63,319.7425,125.195
751,275548,2.763544,0.547536,-4.3505199999999995,-115.78,182.315,121.7825
752,275645,0.919392,1.389092,-3.232024,-120.2425,18.9875,105.735
753,275742,0.05002,1.403732,-2.533208,-66.395,-134.015,87.88501
754,275839,-0.7227279999999999,1.131672,-1.6552959999999999,-15.1025,-200.1825,56.5775
755,275936,-0.9706319999999999,0.9030440000000001,-1.2785600000000001,4.445,-208.635,15.5925
756,276034,-0.756156,0.7712840999999999,-1.216828,0.2275,-199.9025,-29.5575
757,276131,-0.432612,0.7317560000000001,-1.272948,-11.305,-197.82,-72.17
758,276228,-0.137128,0.700036,-1.312232,-18.0075,-210.4375,-108.57
759,276325,0.044164,0.624884,-1.254648,-13.9825,-234.08,-135.415
760,276422,0.167872,0.496296,-1.142408,-1.855,-258.055,-151.6025
761,276519,0.32208000000000003,0.332572,-1.0521280000000002,10.5175,-276.395,-159.075
762,276616,0.47677600000000003,0.191052,-0.981124,16.2925,-290.5875,-161.7875
763,276713,0.594384,0.113704,-0.9440360999999999,15.3475,-301.77,-160.9125
764,276810,0.75762,0.08881599,-0.9459880999999999,11.48,-307.895,-156.7475
765,276907,0.9394,0.086132,-0.9586761,7.84,-311.4125,-151.3225
766,277004,1.125572,0.08637601,-0.97234,5.6875,-313.3025,-146.23
767,277101,1.298324,0.08954801,-0.9945440000000001,5.32,-312.865,-141.225
768,277199,1.424228,0.076616,-1.009428,5.6525,-310.555,-135.6075
769,277296,1.545984,0.089792,-1.041148,4.6375,-305.8125,-127.225
770,277393,1.6501720000000002,0.21374400000000002,-1.054568,6.825,-300.755,-112.63
771,277490,1.785104,0.30402399999999996,-1.049688,18.13,-294.91,-90.1075
772,277587,1.9822560000000002,0.22423600000000002,-1.0206520000000001,27.23,-286.3875,-70.49
773,277684,2.1286560000000003,0.19959200000000002,-1.0182120000000001,17.99,-279.02,-65.5375
774,277781,2.19844,0.34892,-0.9435479999999999,0.315,-274.995,-71.61
775,277878,2.1823360000000003,0.467504,-0.7237041,-6.825,-269.6225,-79.835
776,277975,2.154032,0.49141599999999996,-0.453108,-0.385,-258.1425,-86.9925
777,278072,2.154276,0.23058,-0.188612,9.485,-238.3325,-92.5925
778,278169,2.196732,-0.08052000000000001,0.054655999999999996,5.7575,-212.0825,-96.39
779,278266,2.382904,-0.409188,0.180316,-13.7375,-183.6275,-90.965
780,278364,2.532232,-0.7141881,0.41846000000000005,-42.2975,-160.8775,-74.305
781,278461,2.412428,-0.9784401,0.760304,-74.305,-142.52,-46.7075
782,278558,2.262856,-1.167784,1.042124,-102.1825,-115.4125,-11.0425
783,278655,2.179164,-1.2341520000000001,1.131672,-122.99,-78.4,30.31
784,278752,2.123532,-1.1265479999999999,1.031388,-134.89,-40.985,72.625
785,278849,2.026664,-0.84546,0.8735200000000001,-135.8,-9.59,107.485
786,278946,1.855864,-0.448716,0.724436,-126.07,15.2075,126.5425
787,279043,0.9298841,0.313052,0.377712,-106.47,35.6125,125.055
788,279140,0.8461921,1.395924,1.473028,5.565,100.765,114.6425
789,279237,-0.6329359999999999,0.320616,-0.423584,137.27,201.145,127.8725
790,279334,0.9638,1.589172,-1.349076,113.2075,284.935,88.13
791,279431,2.202588,-0.1769,-1.065548,120.3125,297.4475,35.98
792,279529,1.884168,-1.006988,-1.459608,91.42,261.6425,-31.4475
793,279626,1.174128,-1.560624,-1.3949479999999999,76.755,223.965,-27.72
794,279723,1.107516,-1.31516,-1.11264,50.575,200.97,16.2925
795,279820,1.9407759999999998,0.15274400000000002,-1.186328,21.3675,183.61,46.2525
796,279917,3.599244,1.409832,-1.8941720000000002,24.01,135.7475,34.4225
797,280014,-0.10638399999999999,-0.35868,-0.211548,60.445,21.8575,24.2375
798,280111,1.0169920000000001,0.290848,-1.205116,33.565,40.46,24.5
799,280208,0.819108,0.135908,-0.734684,43.54,24.815,21.7525
800,280305,0.8052,-0.225456,-0.9489161,33.3025,12.425,15.0675
801,280402,0.6954,0.081984,-0.7754321,23.1525,1.54,7.595
802,280499,0.647332,0.061,-0.787876,17.675,1.085,2.3975
803,280596,0.654408,0.004392,-0.802272,15.7675,-1.6275,0.805
804,280694,0.64294,0.05172801,-0.793488,12.2675,-1.96,-1.365
805,280791,0.629764,0.042456,-0.7881199999999999,10.1325,-2.17,-2.205
806,280888,0.6156119999999999,0.036844,-0.779092,7.665,-1.8025,-3.255
807,280985,0.618052,0.079544,-0.7854361,5.3725,-1.435,-4.2875
808,281082,0.633668,0.07417601,-0.790072,4.2,-1.295,-4.7075
809,281179,0.636352,0.094672,-0.788608,2.6075,-0.77,-5.1275
810,281276,0.625616,0.09125599999999999,-0.784704,1.505,-0.245,-5.4075
811,281373,0.6222,0.08857201,-0.782508,0.2625,-0.035,-5.74
812,281470,0.626104,0.10394400000000001,-0.784216,-0.5075,0.21,-5.705
813,281567,0.6263479999999999,0.10540799999999999,-0.7808001,-0.4375,0.14,-5.2675
814,281664,0.623664,0.100772,-0.7700640999999999,0.91,-0.2625,-4.27
815,281761,0.630008,0.112728,-0.7834840000000001,1.995,-0.4375,-3.395
816,281859,0.628788,0.08857201,-0.767868,3.01,-0.7875,-2.87
817,281956,0.627568,0.092964,-0.7761640999999999,3.15,-1.225,-2.695
818,282053,0.623664,0.081252,-0.781044,3.3075,-1.5225,-2.485
819,282150,0.6231760999999999,0.08857201,-0.778116,3.675,-1.5225,-2.31
820,282247,0.6222,0.071004,-0.7700640999999999,4.1825,-1.3825,-2.2575
821,282344,0.6197600000000001,0.06954,-0.775676,4.095,-1.3825,-2.2575
822,282441,0.614392,0.08808401,-0.7861680999999999,4.025,-1.12,-2.7125
823,282538,0.6168319999999999,0.08564401,-0.775676,3.99,-0.875,-2.7125
824,282635,0.616344,0.09223200000000001,-0.7734800000000001,4.655,-0.4725,-2.8175
825,282732,0.621468,0.114436,-0.7812880999999999,5.145,-0.385,-2.73
826,282830,0.61366,0.098332,-0.7700640999999999,6.09,-0.4725,-2.31
827,282927,0.621712,0.082228,-0.7659161,6.7725,-0.735,-1.9425
828,283024,0.618052,0.084912,-0.772748,6.5625,-0.6475,-2.1
829,283121,0.627568,0.08759601,-0.781044,6.8775,-0.455,-2.135
830,283218,0.626836,0.08954801,-0.79422,7.0175,-0.14,-1.4525
831,283315,0.6280560000000001,0.056608000000000006,-0.769576,6.335,0.2275,-1.6275
832,283412,0.62464,0.07612801,-0.7881199999999999,5.0225,0.98,-1.75
833,283509,0.624884,0.057828,-0.780068,4.025,2.0125,-2.1175
834,283606,0.62952,0.07808001,-0.784216,2.52,3.2025,-2.31
835,283703,0.627812,0.09979600000000001,-0.7829961,1.6275,4.34,-2.2575
836,283800,0.6292760000000001,0.09882,-0.780312,1.26,5.215,-1.3475
837,283897,0.632204,0.091012,-0.773724,1.61,5.9325,-0.3675
838,283995,0.60878,0.09638,-0.78446,1.89,6.615,0.5075
839,284092,0.5463161,0.033916,-0.815692,1.8375,8.75,1.155
840,284189,0.596336,0.047824,-0.8117880000000001,-0.9975,15.1725,0.9625
841,284286,0.594384,0.07222401,-0.8108121,-4.48,21.5775,-0.105
842,284383,0.57584,0.08003201,-0.822524,-7.07,29.05,-0.3325
843,284480,0.5673,0.09418401,-0.8261841000000001,-8.225,38.8675,-0.56
844,284577,0.582428,0.080764,-0.820084,-9.0825,51.065,-0.8575
845,284674,0.585112,0.063928,-0.8010520000000001,-11.3925,63.9625,0.35
846,284771,0.6082920999999999,0.110044,-0.8342360000000001,-16.66,80.1325,3.43
847,284868,0.5997520000000001,0.02806,-0.8300879999999999,-17.8675,98.385,6.2825
848,284965,0.604388,0.082716,-0.9391560999999999,-19.845,118.44,10.2025
849,285063,0.63562,0.09247601,-0.9613601,-11.4625,138.6175,16.835
850,285160,0.623908,0.11712,-0.9362280000000001,-5.285,160.0725,31.6575
851,285257,0.564128,0.18470799999999998,-0.978684,5.985,185.535,55.3525
852,285354,0.49117200000000005,0.357216,-0.9982040000000001,22.7675,220.605,76.615
853,285451,0.6197600000000001,0.40992,-1.0943399999999999,45.0975,264.04,90.7375
854,285548,0.552172,0.378932,-0.9918600000000001,62.44,298.025,104.2475
855,285645,0.662704,0.300608,-0.990884,74.34,340.9525,111.3875
856,285742,0.930372,0.265716,-0.865468,82.3025,381.605,109.2175
857,285839,1.848544,-0.08100801,-0.9267120000000001,80.0975,411.1275,100.0475
858,285936,2.4151119999999997,-0.09320801,-1.1477760000000001,47.18,427.56,93.24
859,286033,2.33874,0.141764,-1.657736,-0.945,427.21,94.02750999999999
860,286131,1.689212,0.254736,-1.525244,-39.9175,415.485,90.3875
861,286228,1.384456,0.22789600000000002,-1.701168,-60.34,404.4075,96.1975
862,286325,1.1568040000000002,0.388448,-1.740696,-65.2575,376.11,109.6025
863,286422,0.148596,0.20252,-2.635688,-67.6725,324.0825,108.2725
864,286519,2.6632599999999997,0.8042239999999999,-3.832264,-100.975,177.345,88.18251
865,286616,1.2019440000000001,1.474492,-3.245444,-97.05501,13.1075,61.9675
866,286713,0.169824,1.4039760000000001,-2.475136,-43.295,-154.8225,45.3775
867,286810,-0.56852,0.964776,-1.512556,-0.455,-218.68,28.105
868,286907,-0.758352,0.691008,-1.145824,8.54,-221.2,5.0925
869,287004,-0.559736,0.61,-1.101904,-8.4175,-209.3175,-23.8875
870,287101,-0.2196,0.6280560000000001,-1.1746159999999999,-29.505,-205.45,-52.85
871,287198,0.05368,0.648552,-1.223416,-42.4025,-218.2775,-78.1725
872,287295,0.189344,0.620736,-1.170712,-43.995,-242.6025,-99.295
873,287393,0.23228800000000002,0.512644,-1.026752,-36.6275,-266.3675,-115.8675
874,287490,0.278648,0.35136,-0.8796200000000001,-29.0325,-282.3625,-127.5925
875,287587,0.335744,0.2074,-0.763476,-27.1775,-289.835,-135.24
876,287684,0.506788,0.08369201,-0.7522521,-31.185,-288.89,-139.3525
877,287781,0.724924,0.0183,-0.8095920999999999,-38.4825,-285.8975,-140.35
878,287878,0.9337880999999999,-0.026595999999999998,-0.906948,-45.3425,-285.985,-137.9525
879,287975,1.128256,-0.0732,-0.9567241,-49.105,-289.5725,-132.405
880,288072,1.22366,-0.126148,-0.9354959999999999,-49.175,-294.455,-122.78
881,288169,1.2817319999999999,-0.200812,-0.906948,-48.7375,-294.49,-108.955
882,288266,1.3847,-0.21886799999999998,-0.882548,-53.27,-289.2225,-93.975
883,288363,1.532564,-0.12761199999999998,-0.9269561,-63.9275,-280.1925,-82.2675
884,288460,1.777784,0.09930800000000001,-1.0553,-71.6975,-273.07,-74.8825
885,288558,2.057896,0.20178800000000002,-1.129232,-68.8275,-270.5325,-73.64
886,288655,2.2057599999999997,0.22716399999999998,-1.081408,-62.5275,-273.6475,-82.9325
887,288752,2.3014080000000003,0.30475599999999997,-0.9589200999999999,-54.74,-277.795,-99.925
888,288849,2.3772919999999997,0.2562,-0.753228,-37.275,-278.7575,-117.495
889,288946,2.366068,-0.018788,-0.49898000000000003,-13.475,-275.4325,-131.6875
890,289043,2.334836,-0.316956,-0.237656,3.0275,-264.1275,-139.5975
891,289140,2.4209680000000002,-0.46238,0.05977999999999999,12.7225,-244.8775,-135.0125
892,289237,2.4851400000000003,-0.559736,0.351848,19.6875,-218.435,-114.38
893,289334,2.49978,-0.566812,0.734684,21.91,-190.1375,-85.435
894,289431,2.500512,-0.624396,1.129232,14.8925,-158.9525,-55.86
895,289528,2.388272,-0.8513161,1.515728,-5.88,-120.1375,-25.5675
896,289625,2.1959999999999997,-1.019676,1.607472,-47.3725,-70.56,0.7875
897,289723,2.1286560000000003,-0.9684360999999999,1.360544,-91.5775,-15.4175,20.5275
898,289820,2.058384,-0.8030041,0.9437921,-105.8575,29.6625,41.0025
899,289917,1.887584,-0.6182960999999999,0.558516,-83.51001,58.6775,64.89
900,290014,1.000156,0.706136,-0.185928,-27.2825,80.5525,88.9525
901,290111,-0.5936520000000001,-0.243024,0.21106,134.715,163.31,153.02
902,290208,-0.271816,1.418128,-1.136308,132.965,206.22,189.42
903,290305,1.36762,0.09540401,-0.587796,141.085,256.585,171.465
904,290402,2.397056,0.264984,-1.546716,81.9875,271.8275,37.625
905,290499,1.2939319999999999,-1.261236,-1.3268719999999998,81.3575,227.29,-7.42
906,290596,0.9528200000000001,-1.398852,-1.118008,68.635,197.995,27.475
907,290693,3.832996,0.257176,-2.3921759999999996,35.6475,191.1875,46.48
908,290791,1.886852,-0.24522,-1.2073120000000002,25.0425,103.4075,15.4175
909,290888,0.413092,0.096868,-0.8610761,47.005,4.8475,23.905
910,290985,0.620004,-0.036112,-0.6470880999999999,16.4675,35.0525,5.985
911,291082,0.956968,0.284748,-0.9376921,26.8625,11.6725,7.98
912,291179,0.68808,-0.10809200000000001,-0.8147161,20.1425,7.77,4.2525
913,291276,0.66856,0.071492,-0.805688,12.3375,2.9575,-0.385
914,291373,0.6749041,0.069052,-0.8010520000000001,7.385,-0.0175,-3.3425
915,291470,0.6351319999999999,0.073688,-0.8044680999999999,3.4825,0.0,-4.8825
916,291567,0.612684,0.05246,-0.792024,0.665,0.455,-6.3875
917,291664,0.639524,0.071004,-0.7991,-1.68,1.6625,-7.91
918,291761,0.6314721,0.092964,-0.798856,-3.115,2.1175,-8.8025
919,291858,0.61,0.1098,-0.781044,-3.3425,2.135,-8.4175
920,291955,0.615368,0.098576,-0.781776,-3.045,2.7475,-7.8575
921,292053,0.6229319999999999,0.1037,-0.778604,-3.08,3.1675,-7.7
922,292150,0.631228,0.091744,-0.792756,-3.29,3.36,-7.8575
923,292247,0.634156,0.118584,-0.787876,-3.4825,3.605,-7.805
924,292344,0.6307401,0.12029200000000001,-0.777384,-3.3775,3.605,-7.595
925,292441,0.630252,0.12468399999999999,-0.76372,-2.6075,3.22,-7.28
926,292538,0.6202479999999999,0.12248800000000001,-0.754204,-1.8375,2.695,-6.6675
927,292635,0.622688,0.140544,-0.7788480999999999,-0.805,2.0475,-5.775
928,292732,0.61732,0.131028,-0.758108,0.63,1.505,-4.795
929,292829,0.6141479999999999,0.13078399999999998,-0.756888,1.8725,0.7525,-3.6575
930,292926,0.61488,0.114924,-0.765184,3.745,0.245,-2.065
931,293023,0.620492,0.12053599999999999,-0.7639640999999999,4.7425,-0.175,-1.1725
932,293120,0.626836,0.072956,-0.7822640000000001,5.4775,-0.1925,-0.8575
933,293218,0.614636,0.1037,-0.759328,5.495,-0.2275,-1.19
934,293315,0.6265921,0.109556,-0.772992,5.145,0.0175,-1.47
935,293412,0.6344,0.11028800000000001,-0.788608,6.0725,0.2625,-1.26
936,293509,0.6304960000000001,0.086132,-0.782508,7.2275,0.7525,-0.77
937,293606,0.624396,0.10345599999999999,-0.7883640000000001,7.1575,1.4875,-0.945
938,293703,0.630984,0.089304,-0.7956840999999999,7.455,1.9425,-0.9975
939,293800,0.642452,0.10516400000000001,-0.7686,7.595,2.6775,-0.9625
940,293897,0.632204,0.104432,-0.7671359999999999,7.385,3.185,-1.365
941,293994,0.6326921,0.09028,-0.763232,7.0525,3.3775,-1.6275
942,294091,0.630984,0.120048,-0.770308,6.6675,3.3775,-1.6625
943,294188,0.632448,0.111752,-0.7820199999999999,6.6325,3.465,-1.47
944,294285,0.6314721,0.08637601,-0.7659161,5.5475,4.585,-1.225
945,294382,0.61732,0.08003201,-0.765672,3.9025,5.8975,-0.7
946,294480,0.6182960999999999,0.10004,-0.7793359999999999,2.59,7.14,-0.1225
947,294577,0.618052,0.109556,-0.773724,1.785,8.6275,0.385
948,294674,0.6229319999999999,0.10809200000000001,-0.774456,1.12,10.3075,0.9625
949,294771,0.5958479999999999,0.118096,-0.7998321,0.7175,12.67,1.68
950,294868,0.6283,0.098576,-0.79056,1.4875,16.5375,2.03
951,294965,0.6158561,0.081252,-0.7929999999999999,0.175,20.405,1.7675
952,295062,0.59902,0.08759601,-0.7998321,-1.5575,25.8825,1.2775
953,295159,0.591212,0.111996,-0.8188641,-2.7825,33.9325,0.63
954,295256,0.586576,0.094916,-0.8147161,-2.8175,44.2575,0.8575
955,295353,0.585112,0.094916,-0.826916,-3.99,56.945,1.8375
956,295450,0.592188,0.071004,-0.814472,-5.425,71.2425,3.0625
957,295548,0.592432,0.12468399999999999,-0.8327720999999999,-10.3075,89.65250999999999,5.005
958,295645,0.6161,0.06466001,-0.8671761,-11.025,110.5825,9.8525
959,295742,0.628544,0.035868000000000004,-0.9298841,-8.4875,131.425,16.8175
960,295839,0.60512,0.08442401,-0.9918600000000001,-4.0425,154.1925,28.77
961,295936,0.572912,0.18251199999999998,-0.993812,2.6075,182.525,47.3725
962,296033,0.518988,0.3477,-1.047248,18.5325,222.8275,71.5225
963,296130,0.612196,0.42626800000000004,-1.179984,42.35,270.9525,90.965
964,296227,0.536068,0.35672800000000005,-1.120204,63.385,308.735,106.33
965,296324,0.624152,0.305976,-1.110932,76.72,357.5425,114.9925
966,296421,1.1468,0.20618000000000003,-1.136064,81.445,409.01,109.34
967,296518,2.622512,-0.120048,-1.283196,69.7725,440.4225,91.735
968,296616,2.215032,-0.102724,-1.4337440000000001,34.8775,448.595,89.2675
969,296713,2.1774560000000003,0.165188,-1.7680240000000003,-22.12,451.955,87.43
970,296810,1.470832,0.310612,-1.9236959999999999,-67.795,441.1225,78.62751
971,296907,1.354444,0.377712,-2.168916,-75.35501,424.13,98.98001
972,297004,0.679296,0.506788,-1.7277639999999999,-63.6475,390.6525,113.8375
973,297101,1.2963719999999999,-0.45506,-1.741916,-56.9975,289.3625,110.215
974,297198,3.244956,0.9284200999999999,-4.080412,-104.685,135.3975,92.8025
975,297295,0.8815719999999999,1.4713200000000002,-3.16712,-57.1375,-85.90751,76.895
976,297392,0.08784,1.19682,-2.057652,-14.0175,-204.715,57.1025
977,297489,-0.820084,0.8988959999999999,-1.2190239999999999,18.48,-253.155,35.35
978,297586,-0.9028,0.754692,-0.9777081,19.915,-246.4875,10.7275
979,297683,-0.681736,0.679296,-0.930372,8.6975,-228.375,-16.45
980,297781,-0.429196,0.711504,-0.998448,-7.315,-218.925,-45.92
981,297878,-0.212036,0.742492,-1.073356,-17.99,-223.755,-75.495
982,297975,-0.030256,0.69296,-1.101172,-18.585,-237.9825,-102.165
983,298072,0.156892,0.5612,-1.079456,-13.3525,-256.2875,-123.76
984,298169,0.279624,0.40138,-0.9928360999999999,-8.9075,-276.15,-138.5825
985,298266,0.360388,0.255712,-0.8901120000000001,-8.9775,-292.775,-146.7725
986,298363,0.48385200000000006,0.16128399999999998,-0.8256960999999999,-14.315,-302.085,-149.9225
987,298460,0.663192,0.14274,-0.8256960999999999,-21.315,-305.2175,-149.3625
988,298557,0.89792,0.17616800000000002,-0.8823040000000001,-25.7775,-306.1625,-147.805
989,298654,1.116788,0.205204,-0.9298841,-23.6075,-308.8225,-147.595
990,298751,1.261968,0.18104800000000001,-0.9455,-15.785,-312.725,-146.9125
991,298848,1.35786,0.142496,-0.9489161,-8.4,-314.4925,-143.2025
992,298945,1.474736,0.162992,-0.96014,-5.04,-312.41,-134.68
993,299042,1.7101959999999998,0.238144,-1.026508,-3.5,-306.95,-122.885
994,299140,2.0474040000000002,0.323788,-1.108004,-2.52,-302.26,-113.995
995,299237,2.3912,0.35843600000000003,-1.1446040000000002,-2.7125,-302.6975,-113.5925
996,299334,2.508808,0.35160399999999997,-0.9799041,-4.6375,-308.1925,-122.605
997,299431,2.549068,0.299144,-0.714676,-5.11,-305.97,-136.045
998,299528,2.7179159999999998,0.095648,-0.466528,0.91,-287.875,-145.495
999,299625,2.91092,-0.09735601,-0.23424,9.065,-264.3025,-146.2125
1000,299722,3.002908,-0.165188,0.10394400000000001,18.6375,-244.1075,-132.65
1001,299819,2.844796,-0.305,0.653188,30.1,-224.2625,-104.5975
1002,299916,2.72182,-0.45871999999999996,1.117764,30.905,-193.235,-66.2725
1003,300013,2.787944,-0.7771399999999999,1.506456,9.975,-150.64,-26.075
1004,300110,2.675216,-1.018944,1.755824,-38.0975,-105.105,6.02
1005,300208,2.512712,-1.097512,1.75436,-92.78501,-53.6025,30.17
1006,300305,2.382416,-0.996008,1.459608,-122.0975,-3.7275,58.6075
1007,300402,2.203808,-0.764208,1.0323639999999998,-116.445,33.95,89.95
1008,300499,1.9427279999999998,-0.47653199999999996,0.7027201,-86.06501,57.995,107.7125
1009,300596,-0.5248441,0.404552,-0.6456241,-43.295,71.2075,105.7175
1010,300693,-0.9952761,0.468724,0.14005599999999999,83.7725,156.4675,124.8975
1011,300790,-0.6219561,2.677168,-0.9298841,98.82251,219.6775,141.47
1012,300887,2.546384,-0.099552,-0.634644,131.32,333.3225,117.32
1013,300984,2.042768,-0.575596,-1.418372,91.385,307.2125,-13.475
1014,301081,1.2141440000000001,-1.7760759999999998,-1.384212,91.5775,263.83,-26.32
1015,301178,3.665856,-0.6453800000000001,-2.2357720000000003,60.41,247.3275,22.0675
1016,301275,3.100264,-0.43602799999999997,-1.6887240000000001,45.71,141.2075,26.25
1017,301372,0.321104,0.42626800000000004,-0.8076399999999999,62.16,-0.7,35.4725
1018,301469,0.470188,-0.15420799999999998,-0.661484,30.415,32.515,16.1875
1019,301567,0.9581881,0.205204,-0.9362280000000001,40.1625,14.595,16.6775
1020,301664,0.688812,0.014152000000000001,-0.7808001,30.135,7.8925,11.8475
1021,301761,0.72712,0.014884,-0.81252,22.4875,3.71,7.945
1022,301858,0.6634359999999999,0.056608000000000006,-0.7795801,16.2575,-1.75,4.445
1023,301955,0.624152,0.051484,-0.8103239999999999,12.4425,-1.9775,1.54
1024,302052,0.620736,0.069784,-0.787876,10.9375,-2.555,-0.0875
1025,302149,0.617564,0.047824,-0.793976,9.24,-1.995,-1.1725
1026,302246,0.5980439999999999,0.091012,-0.7903161,7.8925,-1.995,-1.9775
1027,302343,0.61122,0.0854,-0.7832399999999999,7.665,-1.295,-2.17
1028,302440,0.60878,0.09906401,-0.780312,7.6475,-1.1375,-2.0475
1029,302537,0.6097560000000001,0.091012,-0.781532,7.7525,-0.9975,-1.96
1030,302634,0.627568,0.09418401,-0.784704,8.47,-0.665,-1.7675
1031,302731,0.61854,0.07637200000000001,-0.787632,8.8725,-1.12,-1.61
1032,302829,0.6231760999999999,0.05929201,-0.7893399999999999,8.82,-1.26,-1.75
1033,302926,0.625128,0.118096,-0.776408,8.3475,-1.295,-1.435
1034,303023,0.620736,0.06588,-0.789828,9.1,-1.9425,-0.525
1035,303120,0.6231760999999999,0.083204,-0.784704,8.4175,-1.96,-0.6475
1036,303217,0.616344,0.067344,-0.787876,8.0675,-2.2925,-0.945
1037,303314,0.6202479999999999,0.063928,-0.781776,7.4725,-2.3275,-1.3125
1038,303411,0.6170760000000001,0.058803999999999995,-0.791292,7.1225,-2.205,-1.925
1039,303508,0.6156119999999999,0.07515201,-0.787876,6.44,-2.1175,-2.275
1040,303605,0.617564,0.071248,-0.786656,6.1075,-1.9075,-2.5375
1041,303702,0.6170760000000001,0.080764,-0.783728,5.5125,-1.785,-3.01
1042,303800,0.612684,0.06539201,-0.787876,5.215,-1.3125,-3.1675
1043,303897,0.609024,0.06661201,-0.7771399999999999,5.11,-1.1025,-3.3075
1044,303994,0.609024,0.096624,-0.798856,5.18,-0.9275,-3.605
1045,304091,0.623908,0.071492,-0.7922680000000001,5.9675,-0.315,-3.0975
1046,304188,0.619272,0.081984,-0.7793359999999999,6.545,0.07,-2.765
1047,304285,0.61488,0.09223200000000001,-0.786412,6.8425,0.4025,-2.4675
1048,304382,0.621224,0.050996,-0.788608,7.7175,0.7525,-2.03
1049,304479,0.621468,0.09125599999999999,-0.7849480999999999,7.7,0.8575,-1.4525
1050,304576,0.627568,0.05636401,-0.772748,7.875,1.1375,-1.295
1051,304673,0.6292760000000001,0.061488,-0.783972,6.93,1.26,-0.9275
1052,304770,0.62952,0.062464,-0.782752,6.4925,1.5925,-0.455
1053,304867,0.6348881,0.049532,-0.7832399999999999,5.88,1.995,0.245
1054,304965,0.6326921,0.048068,-0.790072,4.9,2.205,0.3675
1055,305062,0.632204,0.046604,-0.7793359999999999,4.1125,2.52,0.63
1056,305159,0.6219561,0.063684,-0.7812880999999999,2.975,3.3075,0.6125
1057,305256,0.617564,0.084912,-0.7883640000000001,2.415,4.41,0.8225
1058,305353,0.6156119999999999,0.081984,-0.792512,1.925,6.125,1.8725
1059,305450,0.558028,0.039528,-0.821304,1.1025,8.4,2.835
1060,305547,0.59536,0.041236,-0.8244761,-0.7875,15.0325,2.7825
1061,305644,0.5551,0.052948,-0.8476561,-2.5375,22.5925,1.505
1062,305741,0.5724239999999999,0.03294,-0.8276481,-2.625,32.2525,0.49
1063,305838,0.5690081,0.0183,-0.827892,-4.4625,43.1725,-0.7
1064,305935,0.570472,0.015372,-0.828868,-7.7175,55.5975,-1.925
1065,306033,0.555588,-0.008540001,-0.8203280000000001,-12.6875,71.365,-3.29
1066,306130,0.572912,-0.005612,-0.8642481,-19.8625,91.6125,-3.7275
1067,306227,0.585112,0.04148,-0.9284200999999999,-20.7025,113.8725,-1.6275
1068,306324,0.569984,0.051972000000000004,-0.9882001,-17.01,136.57,7.7
1069,306421,0.527772,0.082716,-0.987224,-7.42,163.2225,26.11
1070,306518,0.5002,0.22789600000000002,-1.027484,4.585,196.6475,47.915
1071,306615,0.47165200000000007,0.3904,-1.0492,24.045,240.31,66.5875
1072,306712,0.638548,0.47555600000000003,-1.18462,48.7375,287.0175,78.6625
1073,306809,0.6007279999999999,0.42822,-1.1538760000000001,73.15,313.5475,90.86
1074,306906,0.71492,0.446276,-0.9769760000000001,89.075,352.66,102.235
1075,307003,1.0979999999999999,0.243756,-1.006256,98.245,391.825,107.4675
1076,307100,2.505148,-0.145912,-1.18706,93.8,416.8325,100.1525
1077,307198,2.242848,0.0427,-1.359324,60.1825,421.575,108.325
1078,307295,2.130608,0.138836,-1.568676,19.8275,409.71,116.5675
1079,307392,1.582096,0.34477199999999997,-1.76168,-20.615,378.665,99.015
1080,307489,1.289296,0.376004,-1.807552,-20.1075,347.55,111.2125
1081,307586,0.09418401,0.649528,-2.184776,-11.7775,320.915,115.9025
1082,307683,2.025688,0.8845,-3.156384,2.695,228.4625,97.9475
1083,307780,1.405928,1.33346,-3.24764,8.5925,67.7425,47.46
1084,307877,0.003904,1.266848,-2.34362,59.7975,-102.025,25.27
1085,307974,-0.571448,0.791048,-1.536956,103.495,-159.32,16.9225
1086,308071,-0.686616,0.41968,-1.2444,108.0975,-168.6825,1.2425
1087,308168,-0.40821199999999996,0.35892399999999997,-1.2846600000000001,69.0725,-168.0525,-27.7025
1088,308266,-0.270108,0.49532,-1.306376,24.255,-181.5275,-61.6875
1089,308363,-0.123464,0.61488,-1.280756,0.945,-203.1925,-90.09000999999999
1090,308460,-0.01586,0.57462,-1.152656,3.9025,-227.29,-109.445
1091,308557,0.0366,0.43724799999999997,-0.978196,17.885,-247.5375,-121.8175
1092,308654,0.143228,0.28621199999999997,-0.874984,28.77,-259.07,-130.795
1093,308751,0.30475599999999997,0.19861600000000001,-0.8425321,32.1475,-265.5275,-136.7625
1094,308848,0.479216,0.18788,-0.8757159999999999,31.465,-271.74,-140.0175
1095,308945,0.7141881,0.20105599999999998,-0.913536,32.2175,-279.3175,-140.1225
1096,309042,0.9335440999999999,0.23472800000000002,-0.91012,34.405,-288.82,-138.81
1097,309139,1.059204,0.289628,-0.8569280999999999,38.675,-299.67,-138.74
1098,309236,1.164612,0.351848,-0.787388,45.6575,-306.8625,-140.1575
1099,309333,1.236104,0.409432,-0.7617681,54.4425,-308.2625,-143.1675
1100,309431,1.2968600000000001,0.441884,-0.752984,64.1375,-306.2325,-148.5575
1101,309528,1.361764,0.46603999999999995,-0.7610359999999999,71.71500999999999,-301.9275,-155.6275
1102,309625,1.4701,0.529968,-0.8030041,75.39,-295.0675,-163.8175
1103,309722,1.640412,0.661972,-0.8808401,76.6325,-287.595,-172.235
1104,309819,1.8931959999999999,0.794708,-0.94306,80.7275,-281.82,-181.02
1105,309916,2.049356,0.885964,-0.9145120999999999,90.35251,-281.9425,-190.0675
1106,310013,2.1106,0.9098761000000001,-0.780312,101.745,-282.1525,-200.4275
1107,310110,2.155496,0.798856,-0.615124,110.775,-275.8525,-210.28
1108,310207,2.263344,0.66246,-0.365512,112.7875,-261.38,-212.94
1109,310304,2.3902240000000003,0.6197600000000001,-0.118828,106.6975,-237.7375,-203.56
1110,310401,2.52906,0.7771399999999999,0.17128800000000002,100.6775,-210.6825,-186.025
1111,310499,2.633736,0.894748,0.564616,96.49501,-181.125,-167.2475
1112,310596,2.638616,0.9384239999999999,1.101904,84.175,-148.4525,-157.43
1113,310693,2.541992,0.8552200000000001,1.557208,55.7025,-107.5025,-155.995
1114,310790,2.527352,0.669048,1.6674959999999999,14.455,-54.8625,-158.4625
1115,310887,2.529304,0.34428400000000003,1.467416,-22.9425,-0.3325,-156.1175
1116,310984,2.284084,-0.012444,1.0906799999999999,-45.6925,42.84,-139.0025
1117,311081,1.8480560000000001,-0.11541199999999999,1.44326,-55.965,93.905,-113.4525
1118,311178,1.9193040000000001,0.320616,0.8322841000000001,-31.3425,173.25,-104.65
1119,311275,0.571204,-0.9828321,-1.099708,21.3675,219.695,-78.96
1120,311372,0.9301280000000001,-1.0443200000000001,-1.748016,15.505,235.305,-45.0275
1121,311469,0.8671761,-0.9803921,-0.992592,21.665,223.9475,13.6675
1122,311566,1.206336,0.229848,-1.042856,7.91,222.985,52.3425
1123,311664,0.828868,0.611464,-0.7795801,12.3025,208.6875,55.825
1124,311761,0.6763680000000001,0.435296,-0.788608,30.9225,205.2925,48.7725
1125,311858,2.643984,0.01342,-1.502796,41.3175,216.1425,49.0875
1126,311955,3.2937559999999997,-0.9799041,-1.344684,41.8425,144.025,23.87
1127,312052,0.277428,1.317356,-0.684176,40.4075,1.19,27.5275
1128,312149,0.668072,-0.31842,-0.9423280999999999,30.0825,39.165,11.8825
1129,312246,0.7427361,0.001464,-0.8388721,28.315,16.695,3.2025
1130,312343,0.6980841,0.188612,-0.820816,17.57,9.3625,-2.4325
1131,312440,0.654408,0.033916,-0.791048,20.7025,7.1925,-5.18
1132,312537,0.702232,0.057339999999999995,-0.778116,19.425,2.975,-4.3225
1133,312634,0.658556,0.098576,-0.7795801,19.3025,0.525,-2.5375
1134,312731,0.684908,0.09247601,-0.768844,20.58,-0.9975,-0.49
1135,312829,0.655628,0.05612,-0.7812880999999999,18.655,-2.415,0.3325
1136,312926,0.6463561,0.053924,-0.781044,15.435,-2.205,0.2975
1137,313023,0.6348881,0.055144000000000006,-0.784704,11.83,-1.6625,-0.4725
1138,313120,0.631228,0.048312,-0.784704,8.2075,-0.63,-1.5225
1139,313217,0.628544,0.060267999999999995,-0.787144,4.4625,0.6125,-3.08
1140,313314,0.620492,0.06832001,-0.786412,2.0825,1.085,-3.955
1141,313411,0.621224,0.071492,-0.786412,1.19,1.5575,-4.2175
1142,313508,0.621468,0.06954,-0.782508,0.4025,1.9075,-4.5675
1143,313605,0.6280560000000001,0.085156,-0.781532,-0.1225,2.1875,-4.83
1144,313702,0.6317159999999999,0.07588400000000001,-0.7771399999999999,0.105,1.855,-4.55
1145,313799,0.630008,0.07076001,-0.777628,0.455,1.015,-4.3925
1146,313896,0.6290319999999999,0.071492,-0.775676,0.7,0.385,-4.305
1147,313993,0.624152,0.07564,-0.778604,1.1375,-0.2625,-4.0425
1148,314091,0.61854,0.083204,-0.7795801,1.8375,-0.735,-3.675
1149,314188,0.6197600000000001,0.081252,-0.782752,2.6075,-0.7,-3.22
1150,314285,0.620736,0.07515201,-0.7883640000000001,3.325,-0.735,-2.765
1151,314382,0.614636,0.089304,-0.7766521,3.9725,-0.9975,-2.6425
1152,314479,0.6229319999999999,0.07832401,-0.7754321,4.7425,-1.26,-2.415
1153,314576,0.630984,0.07881200000000001,-0.778116,4.7075,-1.61,-2.03
1154,314673,0.6317159999999999,0.069052,-0.776896,4.7775,-1.645,-1.5925
1155,314770,0.630984,0.07417601,-0.7793359999999999,4.69,-1.89,-1.1375
1156,314867,0.633424,0.084912,-0.781532,4.795,-2.135,-0.875
1157,314964,0.6290319999999999,0.060512,-0.772016,4.8125,-2.415,-0.4025
1158,315061,0.628544,0.039284,-0.774944,4.375,-2.45,-0.35
1159,315158,0.627812,0.052703999999999994,-0.779092,3.2375,-1.785,-0.9625
1160,315256,0.622688,0.062952,-0.77836,2.1,-1.155,-1.2775
1161,315353,0.62464,0.060267999999999995,-0.783972,0.77,-0.07,-1.6275
1162,315450,0.6273241,0.054655999999999996,-0.7849480999999999,-0.3325,1.085,-1.9775
1163,315547,0.624884,0.061,-0.785924,-1.47,2.38,-2.1
1164,315644,0.5936520000000001,0.057828,-0.792512,-2.6775,3.885,-2.0825
1165,315741,0.605608,0.043188,-0.8010520000000001,-4.095,7.875,-2.485
1166,315838,0.6034121,0.039284,-0.7991,-6.37,13.23,-2.835
1167,315935,0.59292,0.06588,-0.8054439999999999,-9.2575,18.585,-2.52
1168,316032,0.580964,0.068564,-0.8203280000000001,-12.0225,25.025,-2.2575
1169,316129,0.5694961,0.07564,-0.83204,-13.265,33.5475,-2.7125
1170,316226,0.5914560000000001,0.063684,-0.8203280000000001,-14.5775,43.8375,-3.4825
1171,316323,0.58316,0.07856801,-0.8357,-16.975,55.0725,-3.3075
1172,316421,0.576816,0.059536,-0.8220360000000001,-17.92,67.83,-3.0275
1173,316518,0.5997520000000001,0.05246,-0.841556,-18.4975,82.6525,-1.015
1174,316615,0.57462,0.043188,-0.8586360000000001,-15.2775,98.5075,4.0075
1175,316712,0.582184,0.07564,-0.913292,-9.065,117.53,10.78
1176,316809,0.5726680000000001,0.128832,-0.918416,1.47,138.5475,20.4225
1177,316906,0.549488,0.134688,-0.965996,13.9125,165.7775,29.575
1178,317003,0.48312,0.251808,-1.077748,31.6925,204.8375,42.5075
1179,317100,0.574864,0.477264,-1.21146,61.18,252.07,52.045
1180,317197,0.571204,0.468236,-1.226588,99.5225,290.815,58.485
1181,317294,0.531676,0.37990799999999997,-1.1324040000000002,135.94,330.2075,60.7075
1182,317391,0.930372,0.239608,-1.236104,169.54,381.255,58.8175
1183,317488,1.7219080000000002,-0.193492,-1.2043840000000001,196.9975,426.02,59.85
1184,317585,2.39974,-0.299388,-1.286124,176.8025,445.5675,54.7225
1185,317683,2.5439439999999998,-0.027083999999999997,-1.902468,139.335,427.9975,63.6475
1186,317780,1.563552,0.288408,-1.548912,115.5,382.585,39.7775
1187,317877,1.218048,0.58682,-1.760948,128.415,342.5625,35.875
1188,317974,0.162504,0.335256,-2.1103560000000003,155.1375,305.305,37.1525
1189,318071,1.497184,-0.060267999999999995,-3.035604,149.8,237.65,41.93
1190,318168,1.164856,0.6785640000000001,-3.612908,114.8175,50.225,28.91
1191,318265,-0.42748800000000003,1.042612,-2.560536,130.55,-138.4775,32.025
1192,318362,-0.75762,0.9272,-1.87758,159.1975,-196.525,45.36
1193,318459,-0.77836,0.9259799999999999,-1.58356,161.4025,-219.9575,34.3175
1194,318556,-0.560956,1.128744,-1.48596,135.73,-236.04,-3.8675
1195,318653,-0.41406800000000005,1.3856760000000001,-1.363472,116.27,-253.8025,-54.145
1196,318750,-0.188124,1.48596,-1.244888,120.0325,-268.6075,-103.0575
1197,318847,0.067588,1.4064159999999999,-1.100684,141.2775,-280.49,-145.215
1198,318944,0.221796,1.250744,-0.942816,167.4225,-290.01,-178.7275
1199,319042,0.383324,1.11752,-0.8479,187.7225,-293.58,-201.67
1200,319139,0.6304960000000001,1.099464,-0.849608,199.6925,-290.6925,-217.245
1201,319236,0.9706319999999999,1.204872,-0.889868,208.4775,-288.0675,-231.28
1202,319333,1.266848,1.392752,-0.8906,222.74,-290.2725,-245.98
1203,319430,1.529392,1.512312,-0.7895840999999999,250.215,-294.875,-260.3125
1204,319527,1.653832,1.5220719999999999,-0.635864,285.5475,-296.625,-271.6875
1205,319624,1.7111720000000001,1.46522,-0.5063,318.64,-292.7925,-278.705
1206,319721,1.754116,1.3827479999999999,-0.410652,339.8325,-283.4825,-280.1225
1207,319818,1.7460639999999998,1.337608,-0.333304,344.8375,-271.11,-275.5725
1208,319915,1.7158080000000002,1.356396,-0.283528,333.235,-256.0425,-266.245
1209,320012,1.784128,1.4398440000000001,-0.2867,308.56,-239.05,-258.9125
1210,320109,1.809748,1.616256,-0.278648,280.77,-224.2975,-258.1075
1211,320206,1.761436,1.6738400000000002,-0.236192,262.2025,-211.225,-261.87
1212,320304,1.695556,1.718492,-0.191052,250.74,-194.11,-269.465
1213,320401,1.7565560000000002,1.7514319999999999,-0.23058,243.4775,-172.2175,-275.94
1214,320498,1.9478520000000001,1.7575319999999999,-0.18251199999999998,238.385,-154.42,-274.8025
1215,320595,1.997384,1.64822,0.082716,229.6875,-145.3025,-262.465
1216,320692,1.9241840000000001,1.435208,0.359412,204.1725,-134.0675,-240.52
1217,320789,1.873676,1.268068,0.556808,154.3675,-114.0125,-213.43
1218,320886,1.9114959999999999,1.236592,0.5958479999999999,89.86251,-89.355,-187.46
1219,320983,1.842444,1.194136,0.6566041,31.605,-65.905,-164.1325
1220,321080,1.752652,1.0004,0.726388,-9.8875,-43.33,-142.345
1221,321177,1.689456,0.600484,0.7315119999999999,-40.4425,-19.1975,-117.005
1222,321274,1.628944,0.11321600000000001,0.708332,-70.1225,4.375,-80.4125
1223,321371,1.491572,-0.211792,0.61366,-103.145,27.265,-28.7
1224,321469,1.35176,0.46774799999999994,0.8488761,-121.0475,69.79,10.9025
1225,321566,1.1411879999999999,-0.028548,0.948184,-41.37,166.32,-5.285
1226,321663,1.52744,-1.868796,-2.38876,-37.5375,213.7625,-57.8725
1227,321760,0.830332,-0.745664,-1.041392,-45.85,181.9825,-74.5325
1228,321857,4.99834,0.8820601,-4.065528,-23.5025,191.2925,27.3175
1229,321954,0.691008,1.0784799999999999,1.179008,-28.665,66.2375,-19.74
1230,322051,1.7021439999999999,-0.462868,-2.125728,12.775,8.61,22.785
1231,322148,0.42724399999999996,0.06563601,-0.5736441,1.75,36.3125,-21.315
1232,322245,0.701256,0.022936,-0.7427361,-9.9925,40.53,-18.0075
1233,322342,0.798124,0.146644,-0.7834840000000001,-3.745,20.93,-13.7725
1234,322439,0.646112,0.158844,-0.8166680000000001,-4.41,15.6625,-11.725
1235,322536,0.733708,0.275964,-0.7856801,-0.315,9.7825,-8.19
1236,322633,0.652456,0.20178800000000002,-0.8039801,5.1275,3.2725,-2.9225
1237,322730,0.6409881,0.096868,-0.792024,10.3425,-0.945,0.4375
1238,322828,0.615124,0.07978801,-0.7895840999999999,11.8125,-2.5375,1.0675
1239,322925,0.6326921,0.06954,-0.7903161,11.585,-2.555,0.525
1240,323022,0.617564,0.05563200000000001,-0.7993439999999999,11.06,-2.3975,0.3325
1241,323119,0.624884,0.084912,-0.790072,10.045,-2.2225,-0.3325
1242,323216,0.620736,0.06636801,-0.7832399999999999,9.2575,-1.68,-0.455
1243,323313,0.62464,0.046116000000000004,-0.783972,6.965,-0.56,-1.12
1244,323410,0.6168319999999999,0.073688,-0.7895840999999999,4.1475,0.5425,-1.89
1245,323507,0.619028,0.07564,-0.7849480999999999,2.6425,1.47,-2.17
1246,323604,0.6231760999999999,0.07442,-0.784704,1.785,1.7675,-2.485
1247,323701,0.62952,0.077348,-0.777872,1.3125,1.5225,-2.835
1248,323798,0.6263479999999999,0.08564401,-0.781044,1.19,0.7525,-3.045
1249,323895,0.6290319999999999,0.083936,-0.7766521,1.645,-0.14,-2.9225
1250,323992,0.6326921,0.07710399999999999,-0.776408,2.45,-1.085,-2.6425
1251,324090,0.623664,0.08417999999999999,-0.7759199999999999,3.0625,-2.1875,-2.24
1252,324187,0.623908,0.08662001,-0.777872,4.0775,-3.01,-1.8025
1253,324284,0.626836,0.083204,-0.7795801,4.9875,-3.57,-1.0675
1254,324381,0.618052,0.06929600000000001,-0.777872,5.6875,-4.2,-0.56
1255,324478,0.621468,0.085156,-0.7822640000000001,5.7925,-4.4625,-0.63
1256,324575,0.62708,0.067588,-0.777628,6.195,-4.6025,-0.42
1257,324672,0.628788,0.067344,-0.7820199999999999,6.2125,-5.1275,-0.875
1258,324769,0.616344,0.062464,-0.7829961,6.335,-5.3375,-1.19
1259,324866,0.610244,0.06466001,-0.777384,5.81,-5.04,-1.085
1260,324963,0.590968,0.06563601,-0.7883640000000001,5.775,-3.8675,-1.6275
1261,325060,0.6080479999999999,0.010736,-0.7922680000000001,5.6875,-2.905,-1.68
1262,325157,0.62952,0.024156,-0.822524,5.2675,-2.6425,-1.7325
1263,325254,0.62464,0.048312,-0.791292,5.2675,-2.415,-2.1525
1264,325352,0.604144,0.065148,-0.7951961,5.7925,-2.87,-1.89
1265,325449,0.6021920000000001,0.07417601,-0.786656,5.81,-2.765,-1.1025
1266,325546,0.614636,0.076616,-0.782508,5.74,-1.8375,-1.3825
1267,325643,0.615124,0.026108,-0.787876,4.9175,-0.8575,-2.1875
1268,325740,0.62464,0.06588,-0.777872,4.165,0.0,-2.8
1269,325837,0.632204,0.080276,-0.7793359999999999,4.2875,0.5075,-3.01
1270,325934,0.6156119999999999,0.127856,-0.7822640000000001,3.9725,0.8225,-3.01
1271,326031,0.622688,0.133224,-0.7705521,4.795,1.1375,-3.115
1272,326128,0.615368,0.015128,-0.8025161,6.1075,0.945,-3.78
1273,326225,0.60634,-0.05587601,-0.7861680999999999,5.67,0.63,-2.9575
1274,326322,0.633424,0.148108,-0.794952,5.5125,0.8225,-2.485
1275,326419,0.6390359999999999,0.10687200000000001,-0.7854361,7.0175,1.4525,-2.555
1276,326516,0.61854,0.026351999999999997,-0.7890961,5.46,1.61,-1.26
1277,326614,0.61732,0.07515201,-0.7883640000000001,5.4775,1.855,-1.6975
1278,326711,0.6097560000000001,0.089792,-0.796416,4.4625,2.73,-1.3825
1279,326808,0.604632,0.0793,-0.791536,4.445,4.27,-1.26
1280,326905,0.579012,0.045384,-0.8042239999999999,3.0975,7.3675,-0.6825
1281,327002,0.560956,0.054412,-0.8308200000000001,1.5225,12.18,-1.4875
1282,327099,0.5565640000000001,0.05856,-0.847412,-0.56,18.9,-2.485
1283,327196,0.549488,0.045627999999999995,-0.8359440999999999,-1.5575,26.81,-3.745
1284,327293,0.568032,0.003904,-0.8254520000000001,-1.61,37.1,-6.23
1285,327390,0.5797441,0.09589201,-0.8518040000000001,-3.7625,48.9475,-8.26
1286,327487,0.587064,0.029036000000000003,-0.8615640999999999,-3.4475,61.1975,-8.3825
1287,327584,0.589992,0.051484,-0.8786440999999999,-6.055,77.84,-7.1225
1288,327681,0.601704,0.09638,-0.9442801,-7.28,98.2975,-2.4675
1289,327779,0.5692520000000001,0.11760799999999999,-1.0138200000000002,-4.445,123.6025,10.9025
1290,327876,0.5453399999999999,0.155184,-1.044564,8.295,153.125,26.0925
1291,327973,0.523624,0.23838800000000002,-0.9982040000000001,27.23,183.54,40.4425
1292,328070,0.576328,0.136884,-0.989908,52.675,211.8025,52.6575
1293,328167,0.5751081,0.296948,-1.060912,81.06,241.64,59.5
1294,328264,0.628788,0.33184,-0.9852719999999999,118.79,267.225,62.825
1295,328361,0.7229720000000001,0.305732,-0.8815719999999999,149.905,292.7575,68.4075
1296,328458,0.8852321,0.376248,-0.984296,176.365,319.1825,77.6825
1297,328555,1.63236,0.317688,-1.391532,207.165,347.3575,92.89001
1298,328652,2.39974,0.22643200000000002,-1.3651799999999998,219.345,360.815,117.74
1299,328749,2.414136,0.9025559999999999,-1.847568,211.2075,356.2475,160.51
1300,328847,2.0862,0.946232,-1.9734720000000001,247.6775,325.78,189.8575
1301,328944,1.325408,0.9840521000000001,-1.689212,281.33,269.6225,191.0125
1302,329041,0.28157600000000005,1.281,-1.360056,299.355,265.1075,178.01
1303,329138,1.214876,0.7227279999999999,-2.032276,318.3425,276.5,165.48
1304,329235,3.0680560000000003,1.275876,-4.559872,272.7025,170.73,62.265
1305,329332,0.9867360999999999,1.607228,-3.185908,198.59,-26.11,-63.665
1306,329429,-0.327692,1.395192,-2.190632,167.3875,-133.9625,-101.6575
1307,329526,-0.720288,0.937448,-1.756068,169.33,-165.2,-96.77501
1308,329623,-0.715408,0.654652,-1.661152,153.9475,-169.68,-84.98
1309,329720,-0.5119121,0.58316,-1.6857959999999999,107.6775,-176.2775,-82.32
1310,329817,-0.308172,0.713212,-1.682136,53.6375,-195.3875,-87.2025
1311,329915,-0.126636,0.9394,-1.613816,15.61,-222.6875,-96.11
1312,330012,-0.003904,1.0760399999999999,-1.4422840000000001,4.865,-250.8625,-104.9825
1313,330109,0.085888,1.09312,-1.245132,13.545,-271.635,-115.57
1314,330206,0.246196,1.031388,-1.113372,25.97,-281.225,-130.48
1315,330303,0.459696,0.9874681000000001,-1.067744,33.04,-284.3925,-151.025
1316,330400,0.686372,0.9418401,-1.0704280000000002,36.645,-286.055,-173.705
1317,330497,0.9628241,0.902068,-1.114104,39.3925,-288.33,-192.78
1318,330594,1.216584,0.8605879999999999,-1.104588,44.4325,-294.21,-204.8725
1319,330691,1.4015360000000001,0.759328,-1.0589600000000001,50.33,-301.84,-209.335
1320,330788,1.582096,0.658312,-1.0199200000000002,53.9,-307.1425,-208.985
1321,330885,1.7821759999999998,0.626104,-0.992348,52.92,-310.2925,-205.8
1322,330983,1.8878279999999998,0.6497721,-0.9450120000000001,51.31,-313.2325,-199.71
1323,331080,1.9102759999999999,0.677832,-0.864492,52.5175,-313.5825,-190.89
1324,331177,1.9903080000000002,0.71858,-0.838628,53.305,-307.09,-181.09
1325,331274,2.08376,0.7705521,-0.796172,51.59,-297.605,-172.7075
1326,331371,2.087908,0.706136,-0.7027201,46.6375,-287.7875,-167.23
1327,331468,2.141588,0.604144,-0.6317159999999999,32.9875,-275.9225,-162.5575
1328,331565,2.216496,0.5516840000000001,-0.600484,11.48,-264.705,-154.2275
1329,331662,2.250412,0.49873599999999996,-0.540216,-10.0275,-257.425,-141.2775
1330,331759,2.203564,0.340136,-0.410652,-29.1725,-253.1025,-125.1425
1331,331856,2.1413439999999997,0.1098,-0.22326,-52.2725,-245.385,-107.31
1332,331954,2.122068,-0.12444000000000001,-0.033184,-81.32251,-230.93,-87.2725
1333,332051,2.109136,-0.30622,0.24156,-110.355,-210.8225,-62.195
1334,332148,2.299456,-0.3721,0.40528400000000003,-133.2625,-183.7675,-30.8175
1335,332245,2.488556,-0.387716,0.547536,-143.465,-158.1475,5.9325
1336,332342,2.488312,-0.369172,0.81618,-144.0075,-135.8875,37.87
1337,332439,2.35704,-0.24497600000000003,1.106296,-140.6825,-109.0425,55.5625
1338,332536,2.206004,-0.057096,1.2585520000000001,-129.85,-71.8725,56.9275
1339,332633,2.125484,0.062952,1.21024,-106.82,-26.775,43.995
1340,332730,2.002752,0.092964,1.07482,-75.2325,15.61,18.1125
1341,332827,1.7936439999999998,0.06270801,0.941108,-35.245,51.7125,-13.265
1342,332924,1.202432,0.05856,0.661484,11.445,83.7725,-42.1925
1343,333022,0.492148,1.087508,2.328492,161.245,158.865,-55.9125
1344,333119,-0.8244761,-0.708332,-1.640168,296.8525,301.4725,2.835
1345,333216,3.7578440000000004,-1.8705040000000002,-2.21674,215.74,443.9575,18.165
1346,333313,3.10002,-2.602504,-1.5584280000000001,185.885,348.845,-42.21
1347,333410,1.8241439999999998,-2.730848,-2.188192,103.74,273.6125,-34.2125
1348,333507,1.485228,-1.618696,-1.254892,60.7425,219.7125,56.9275
1349,333604,1.154852,0.877424,-0.8818159999999999,19.495,181.86,88.6025
1350,333701,4.020876,2.629588,-2.43146,22.05,168.7525,59.605
1351,333798,0.9345201,-1.0323639999999998,-0.582184,72.1875,78.4,40.3725
1352,333895,0.757376,0.15176800000000001,-1.125084,56.875,25.41,38.78
1353,333992,0.8410681000000001,0.259128,-0.7622561,29.785,28.875,23.87
1354,334090,0.7439560000000001,-0.122244,-0.936716,25.305,16.9925,16.205
1355,334187,0.752008,-0.021716,-0.850096,21.0525,13.755,7.665
1356,334284,0.6566041,0.0549,-0.8030041,11.97,8.8025,0.5775
1357,334381,0.635864,0.101016,-0.8239880999999999,10.5175,5.705,-0.9275
1358,334478,0.6573359999999999,0.05977999999999999,-0.8342360000000001,10.8325,5.3725,-1.1025
1359,334575,0.628788,0.06490399999999999,-0.792024,9.5375,4.9,-1.9075
1360,334672,0.6082920999999999,0.029524,-0.780312,8.0675,3.9025,-2.5725
1361,334769,0.612928,0.10394400000000001,-0.787144,5.985,2.1,-2.87
1362,334866,0.624152,0.06124401,-0.79178,5.355,1.4175,-2.6775
1363,334963,0.653676,0.126148,-0.8066641,3.4475,1.0325,-3.0275
1364,335060,0.624152,0.116632,-0.7893399999999999,3.255,-0.4375,-2.8
1365,335158,0.625616,0.138836,-0.79422,3.4825,-0.7525,-2.1525
1366,335255,0.59658,0.06270801,-0.749568,4.1475,-1.715,-1.575
1367,335352,0.60146,0.123708,-0.7929999999999999,3.78,-1.47,-2.03
1368,335449,0.608536,0.08174001,-0.793976,4.095,-2.45,-2.17
1369,335546,0.595604,0.1098,-0.7788480999999999,3.1325,-2.065,-1.9425
1370,335643,0.5934081,0.091988,-0.7793359999999999,2.8175,-1.0675,-2.1175
1371,335740,0.596336,0.08564401,-0.7822640000000001,3.92,-0.35,-1.2075
1372,335837,0.615124,0.082472,-0.7883640000000001,5.5475,0.6825,-0.8400001
1373,335934,0.61854,0.087108,-0.785192,6.72,0.77,-0.735
1374,336031,0.610488,0.062952,-0.786656,7.175,0.77,-1.225
1375,336128,0.6097560000000001,0.06929600000000001,-0.784216,7.35,1.05,-1.75
1376,336225,0.60146,0.12468399999999999,-0.783728,8.015,1.6275,-1.7675
1377,336322,0.605608,0.12468399999999999,-0.7771399999999999,9.5025,2.7825,-1.1375
1378,336420,0.604876,0.121024,-0.79666,10.815,2.66,-0.315
1379,336517,0.624884,0.12248800000000001,-0.780556,11.9875,1.925,0.35
1380,336614,0.6280560000000001,0.09638,-0.77836,12.74,2.1175,0.665
1381,336711,0.637084,0.08881599,-0.783728,12.32,1.995,1.155
1382,336808,0.630008,0.07564,-0.785924,11.9175,2.0825,1.785
1383,336905,0.636596,0.074664,-0.7869,10.6575,2.8,2.6425
1384,337002,0.619028,0.09418401,-0.7820199999999999,8.7675,3.43,2.66
1385,337099,0.618052,0.07442,-0.781044,6.5275,4.515,2.66
1386,337196,0.544608,0.069784,-0.820572,3.955,7.0875,2.7125
1387,337293,0.6109760000000001,0.035868000000000004,-0.81374,2.345,13.895,3.115
1388,337391,0.593164,0.030744,-0.8054439999999999,-0.175,20.545,2.0125
1389,337488,0.573156,0.042944,-0.8203280000000001,-2.485,27.405,0.8925
1390,337585,0.591212,0.067832,-0.8103239999999999,-3.815,35.98,-0.2625
1391,337682,0.5751081,0.064172,-0.824232,-6.0375,45.0275,-1.3475
1392,337779,0.585112,0.07442,-0.8327720999999999,-8.295,56.175,-1.61
1393,337876,0.586332,0.07198,-0.8344801,-10.745,70.455,-0.4025
1394,337973,0.6158561,0.12175599999999999,-0.8713241,-15.5575,87.9375,3.4475
1395,338070,0.636352,0.09028,-0.8652241,-14.7175,106.0325,10.7275
1396,338167,0.633912,0.08344800000000001,-0.919636,-13.2475,125.23,20.8775
1397,338264,0.6068279999999999,0.023668,-0.9125601000000001,-10.5,142.87,31.745
1398,338362,0.572912,0.059536,-0.916952,-9.24,163.87,46.1125
1399,338459,0.5248441,0.129564,-0.984784,-3.22,191.52,64.9425
1400,338556,0.44676400000000005,0.156648,-0.976,13.545,225.61,78.855
1401,338653,0.528504,0.343796,-1.08336,34.65,271.5125,85.96
1402,338750,0.573156,0.404064,-1.059936,61.005,320.1275,89.8975
1403,338847,0.7356600000000001,0.44652,-1.172664,86.32751,360.5525,93.6775
1404,338944,0.9435479999999999,0.3355,-1.027484,103.1625,398.125,99.47001
1405,339041,2.0815639999999997,0.044407999999999996,-1.035292,110.5825,440.895,100.9225
1406,339138,2.579568,-0.081252,-1.1570479999999999,94.93751,464.275,110.705
1407,339235,2.55346,0.251808,-1.8404919999999998,46.3225,464.2575,123.025
1408,339332,1.884656,0.323056,-1.855376,-3.9025,450.66,109.9
1409,339429,1.551108,0.400892,-2.268712,-34.1425,434.5425,114.065
1410,339527,0.992592,0.538752,-1.952732,-31.3425,393.0325,127.645
1411,339624,0.390644,-0.331596,-3.3349919999999997,-37.0475,349.3175,125.4225
1412,339721,4.229984,1.052616,-5.817448000000001,-92.0675,179.4625,109.9175
1413,339818,0.8464360000000001,1.7882759999999998,-3.385012,-97.09000999999999,-43.6275,73.2025
1414,339915,-0.065148,1.642364,-2.393884,-50.7675,-173.25,51.7475
1415,340012,-0.6368401,1.161196,-1.6857959999999999,-2.2225,-212.6425,28.105
1416,340109,-0.508984,0.854244,-1.520608,3.57,-208.145,-12.67
1417,340206,-0.264496,0.792756,-1.534516,-15.3825,-212.31,-61.0575
1418,340303,-0.09223200000000001,0.7712840999999999,-1.514508,-29.295,-230.0375,-104.895
1419,340400,0.020252000000000003,0.6588,-1.43472,-25.375,-254.52,-138.005
1420,340497,0.060267999999999995,0.454816,-1.2343959999999998,-9.905,-278.0225,-161.4025
1421,340594,0.107848,0.196908,-1.073356,4.62,-293.8775,-175.735
1422,340691,0.195688,-0.039528,-1.005036,11.1825,-300.4925,-184.6075
1423,340789,0.351848,-0.21520799999999998,-1.041148,9.0125,-303.275,-189.0
1424,340886,0.537288,-0.363804,-1.123132,2.7125,-306.985,-186.515
1425,340983,0.7224841,-0.46848,-1.185352,-4.2175,-314.755,-174.9825
1426,341080,0.9098761000000001,-0.5429,-1.185108,-10.045,-324.8175,-154.8225
1427,341177,1.06994,-0.562908,-1.155096,-15.4175,-333.6375,-129.045
1428,341274,1.238788,-0.510204,-1.128256,-22.505,-338.6075,-103.845
1429,341371,1.374696,-0.381616,-1.1209360000000002,-30.45,-339.92,-85.12
1430,341468,1.481324,-0.204716,-1.1224,-34.8775,-337.89,-72.3975
1431,341565,1.613572,-0.08784,-1.1289879999999999,-33.46,-332.01,-62.0025
1432,341662,1.8043799999999999,0.07417601,-1.085556,-30.8875,-323.6975,-53.4975
1433,341759,2.0647279999999997,0.20178800000000002,-1.069696,-27.405,-313.2675,-47.075
1434,341857,2.405596,0.211548,-0.9867360999999999,-25.935,-302.47,-49.2275
1435,341954,2.590304,0.2928,-0.7978801,-31.2025,-296.8525,-65.31
1436,342051,2.663016,0.311344,-0.5023960999999999,-32.2,-289.7125,-86.25751
1437,342148,2.755248,0.173728,-0.183732,-21.8575,-275.45,-101.955
1438,342245,2.982656,-0.195932,0.006832001,-7.7,-255.78,-105.91
1439,342342,3.065128,-0.615124,0.334768,-4.865,-238.105,-98.2975
1440,342439,2.9260479999999998,-0.8383841000000001,0.777628,-15.8725,-220.185,-79.1875
1441,342536,2.80356,-0.942816,1.16022,-29.96,-192.2725,-44.415
1442,342633,2.767204,-1.024556,1.411784,-44.6775,-158.165,-1.61
1443,342730,2.741828,-1.036756,1.597712,-68.39,-122.71,35.035
1444,342827,2.417552,-0.83936,2.0803439999999997,-88.1475,-65.87,63.315
1445,342924,2.6105560000000003,-0.16958,2.6537439999999997,-70.0,49.8575,84.28
1446,343021,2.986316,-0.011956,4.127504,-18.5675,161.56,108.3775
1447,343119,1.884168,0.250832,-1.304424,32.5675,298.62,156.73
1448,343216,3.436496,2.726212,-3.610956,-8.4,328.0725,67.9
1449,343313,0.636108,0.43554,0.276696,100.31,197.89,8.54
1450,343410,1.1655879999999998,-0.690764,-1.6738400000000002,69.5625,225.715,-29.7675
1451,343507,0.19861600000000001,-1.6226,-0.631228,74.655,199.605,-13.5625
1452,343604,0.990884,-0.8052,-1.031388,34.1425,210.6125,23.8525
1453,343701,5.063244,2.464156,-3.091724,9.38,199.64,45.4125
1454,343798,0.354288,-0.632448,0.023668,67.13,74.795,38.64
1455,343895,0.8193521,0.244488,-1.399096,69.93,34.125,49.7175
1456,343992,0.8388721,0.02684,-0.6502600000000001,62.4575,40.88,38.2725
1457,344089,1.006744,-0.25790799999999997,-1.19194,55.2825,20.79,27.265
1458,344186,0.6480640000000001,0.09784401,-0.749324,39.0075,6.3175,9.7125
1459,344283,0.7332201,0.068076,-0.8718120999999999,29.015,1.7675,3.2025
1460,344381,0.6512359999999999,0.026108,-0.776896,30.1875,-3.4125,3.5175
1461,344478,0.682712,0.051972000000000004,-0.803736,27.2475,-3.2025,3.36
1462,344575,0.654408,0.041724000000000004,-0.791536,23.4325,-4.4975,2.8175
1463,344672,0.647332,0.037332,-0.793976,18.34,-4.76,1.5575
1464,344769,0.6029241,0.019764,-0.794952,13.195,-3.4475,-0.595
1465,344866,0.601704,0.053924,-0.788608,8.7325,-2.065,-2.4325
1466,344963,0.606584,0.05587601,-0.79422,5.0925,-0.49,-4.0075
1467,345060,0.6009720000000001,0.08759601,-0.800808,2.1875,0.385,-4.795
1468,345157,0.604144,0.08564401,-0.806908,0.945,1.015,-4.795
1469,345254,0.604876,0.079544,-0.79666,-0.105,1.47,-4.9525
1470,345351,0.6168319999999999,0.077348,-0.799588,-0.7525,1.785,-4.935
1471,345448,0.6075600999999999,0.091988,-0.788608,-0.735,1.5925,-4.6725
1472,345546,0.609024,0.101016,-0.774944,-0.0875,1.2425,-4.165
1473,345643,0.612928,0.09711201,-0.7705521,0.49,0.9625,-3.5875
1474,345740,0.6070720000000001,0.070516,-0.7686,1.1375,0.7,-2.9225
1475,345837,0.6058520000000001,0.07076001,-0.7766521,0.9625,0.595,-3.29
1476,345934,0.614636,0.09345201,-0.792756,1.0675,0.6825,-3.64
1477,346031,0.6095119999999999,0.06588,-0.7890961,1.89,0.805,-3.2725
1478,346128,0.604632,0.08003201,-0.776896,2.6425,1.155,-2.8525
1479,346225,0.602436,0.090768,-0.796904,3.325,1.155,-2.4325
1480,346322,0.603168,0.1159,-0.80276,4.0075,1.365,-1.9775
1481,346419,0.5987760999999999,0.086132,-0.7771399999999999,4.8475,1.4,-1.0325
1482,346516,0.62464,0.094916,-0.7869,5.4775,1.4175,-0.14
1483,346614,0.6229319999999999,0.08564401,-0.7895840999999999,5.74,1.155,0.2625
1484,346711,0.612196,0.07637200000000001,-0.7944641,5.0575,1.6625,1.225
1485,346808,0.618052,0.063196,-0.7895840999999999,4.0075,2.765,1.3825
1486,346905,0.6019479999999999,0.07978801,-0.7903161,2.415,4.095,0.77
1487,347002,0.602436,0.083936,-0.802272,1.2075,6.1425,0.98
1488,347099,0.5736441,0.06539201,-0.812032,0.07,8.855,1.6975
1489,347196,0.592188,0.07588400000000001,-0.809348,-1.3825,13.9475,1.5225
1490,347293,0.594384,0.099552,-0.811056,-1.925,17.6225,1.505
1491,347390,0.599996,0.077348,-0.805688,-0.875,21.7875,1.96
1492,347487,0.6097560000000001,0.053924,-0.805688,-0.91,26.775,1.68
1493,347584,0.606096,0.058072000000000006,-0.796416,-1.8025,31.4825,0.7525
1494,347681,0.618052,0.05563200000000001,-0.793488,-2.6775,37.45,-0.035
1495,347778,0.6007279999999999,0.0488,-0.802272,-4.305,43.9775,-0.35
1496,347876,0.604144,0.045384,-0.794952,-7.14,52.85,-0.1575
1497,347973,0.6124400999999999,0.11541199999999999,-0.8322841000000001,-10.535,64.1725,1.1725
1498,348070,0.625372,0.11760799999999999,-0.8481440999999998,-10.5,77.0525,4.69
1499,348167,0.6375721,0.087352,-0.85644,-9.59,91.735,9.87
1500,348264,0.62464,0.09930800000000001,-0.8679081,-8.19,106.2775,17.4825
1501,348361,0.635864,0.09052401,-0.868396,-6.545,121.4325,26.7225
1502,348458,0.612196,0.07417601,-0.8862081,-4.025,137.9875,38.6575
1503,348555,0.5631520000000001,0.09735601,-0.9415959999999999,1.6275,159.355,52.0975
1504,348652,0.5043479999999999,0.175924,-1.0025959999999998,12.6875,189.56,66.5175
1505,348749,0.49654,0.242292,-0.9713639999999999,30.065,225.75,78.0325
1506,348846,0.530456,0.376492,-1.077016,45.815,272.1775,90.335
1507,348943,0.567788,0.38795999999999997,-1.073356,66.99,320.775,100.135
1508,349041,0.653676,0.331108,-1.068232,84.385,364.9975,105.105
1509,349138,1.298324,0.192272,-1.087264,98.3675,404.6875,107.6425
1510,349235,2.32532,-0.034404000000000004,-0.9903959999999999,103.0925,441.5425,113.785
1511,349332,2.356552,-0.061975999999999996,-1.07726,77.595,457.065,117.4425
1512,349429,2.27408,0.193492,-1.609668,13.37,448.2625,117.18
1513,349526,1.832684,0.255468,-1.676768,-38.2725,432.11,104.0725
1514,349623,1.412272,0.332816,-1.893684,-69.65,405.8425,109.8825
1515,349720,1.025288,0.3904,-1.4010479999999998,-60.7075,360.43,126.455
1516,349817,-0.388448,0.001952,-3.856176,-74.8475,322.6125,118.9125
1517,349914,3.5511760000000003,1.423252,-5.590528,-117.5825,149.135,98.98001
1518,350011,0.277916,2.162328,-3.3171800000000005,-92.85501,-69.3175,62.5625
1519,350108,-0.30182800000000004,1.786568,-2.498072,-16.73,-196.8925,35.2625
1520,350205,-0.6834439999999999,1.1285,-1.7223959999999998,45.9725,-231.84,7.63
1521,350303,-0.34038,0.764452,-1.6206479999999999,45.0275,-231.91,-32.6025
1522,350400,-0.0732,0.728096,-1.6108879999999999,13.5275,-247.0475,-78.33
1523,350497,0.101016,0.7856801,-1.55062,-10.8325,-272.475,-117.845
1524,350594,0.265228,0.7686,-1.409832,-12.4775,-299.915,-144.3225
1525,350691,0.38186,0.6602640000000001,-1.238788,1.6625,-322.385,-160.615
1526,350788,0.529968,0.49727200000000005,-1.101172,18.27,-336.385,-172.6025
1527,350885,0.653676,0.328912,-0.9916161,28.525,-345.6775,-182.105
1528,350982,0.759084,0.185684,-0.942572,31.115,-349.23,-188.265
1529,351079,0.954284,0.07442,-0.9235399999999999,28.7875,-347.06,-190.085
1530,351176,1.166808,0.007320001,-0.9552601000000001,21.42,-343.07,-187.1625
1531,351273,1.298324,0.01464,-0.964776,15.0325,-340.515,-179.2875
1532,351371,1.4091,0.05246,-0.9706319999999999,14.42,-334.9325,-167.16
1533,351468,1.536712,0.07710399999999999,-1.018456,19.8625,-324.695,-153.0025
1534,351565,1.6235760000000001,0.08564401,-1.049444,27.1775,-313.88,-139.265
1535,351662,1.659932,0.077592,-1.034804,28.8575,-303.835,-127.5575
1536,351759,1.7080000000000002,0.148596,-1.0121120000000001,24.325,-291.6725,-118.86
1537,351856,1.882948,0.255712,-1.055544,21.6475,-275.9225,-111.7025
1538,351953,2.123532,0.2684,-1.1629040000000002,25.6375,-262.92,-103.985
1539,352050,2.309948,0.216916,-1.160464,26.53,-259.98,-98.945
1540,352147,2.316536,0.25790799999999997,-0.9494040000000001,19.74,-265.8775,-96.32
1541,352244,2.2191799999999997,0.28694400000000003,-0.544852,12.3375,-269.7975,-88.34000999999999
1542,352341,2.252852,0.221552,-0.260592,1.05,-261.6775,-74.725
1543,352438,2.356064,0.14078800000000002,0.08417999999999999,-19.95,-245.175,-63.3675
1544,352535,2.384368,0.033672,0.384056,-50.2075,-225.3475,-57.2775
1545,352633,2.329468,-0.14152,0.64294,-79.135,-200.9525,-52.255
1546,352730,2.303116,-0.36087600000000003,0.8100801,-99.715,-171.2375,-45.535
1547,352827,2.310924,-0.5753520000000001,0.8625401,-111.1775,-138.775,-33.32
1548,352924,2.265784,-0.7168720000000001,0.868396,-113.6625,-108.8325,-14.385
1549,353021,2.127924,-0.72956,0.8369200000000001,-107.94,-83.895,10.7275
1550,353118,1.9712759999999998,-0.623908,0.785192,-94.43,-60.7425,36.8375
1551,353215,1.8117,-0.45993999999999996,0.726144,-74.4625,-37.1,55.4575
1552,353312,1.70556,-0.24107199999999998,0.6588,-51.66,-13.6675,59.7275
1553,353409,1.6104,-0.071248,0.624152,-24.78,8.7325,50.9775
1554,353506,1.532564,-0.035624,0.6021920000000001,5.775,30.3275,37.0475
1555,353603,0.075396,-0.336476,0.45506,30.03,50.26,26.2325
1556,353700,-2.4260919999999997,-0.11126400000000002,2.318,99.10251,162.12,55.2125
1557,353797,-0.034892,2.259684,-2.621292,67.27,302.26,113.9775
1558,353894,4.091392,-0.14396,-1.149728,154.3325,406.49,132.6325
1559,353992,2.869928,-0.8671761,-2.027396,93.1875,305.375,1.3825
1560,354089,1.9373599999999997,-1.906616,-2.015196,72.5375,237.7375,-26.075
1561,354186,1.398364,-1.417152,-1.267336,50.225,179.62,46.76
1562,354283,1.009672,0.360388,-1.005036,3.8675,144.41,61.005
1563,354380,0.8076399999999999,1.152412,-0.706136,-2.4325,132.335,43.085
1564,354477,2.0923,1.144116,-1.3954360000000001,20.51,131.04,28.0875
1565,354574,1.6531,-0.5887720000000001,-1.2043840000000001,48.7375,80.885,22.0325
1566,354671,0.426512,-0.087352,-0.745908,33.46,22.0325,19.495
1567,354768,0.7451760000000001,0.41723999999999994,-0.7893399999999999,17.08,23.66,12.8975
1568,354865,0.8030041,-0.039284,-0.8976761000000001,18.095,24.5525,7.84
1569,354962,0.7266321,0.07222401,-0.844484,13.7375,16.1525,5.4075
1570,355059,0.7005239999999999,0.12248800000000001,-0.8147161,8.4,11.69,1.8025
1571,355156,0.6392800000000001,0.046360000000000005,-0.8359440999999999,5.5125,8.9425,-0.0525
1572,355254,0.6314721,0.06661201,-0.822768,2.2575,7.0175,-1.7675
1573,355351,0.617564,0.09979600000000001,-0.81618,-0.3325,5.9675,-3.6225
1574,355448,0.60878,0.116632,-0.793976,-1.33,5.5475,-4.34
1575,355545,0.623664,0.109556,-0.7951961,-1.3125,5.3375,-4.48
1576,355642,0.6117081,0.128832,-0.797392,-1.26,4.83,-4.4275
1577,355739,0.62098,0.14688800000000002,-0.786656,-0.595,3.9025,-4.3925
1578,355836,0.5653481,0.20837600000000003,-0.73688,2.7475,3.045,-2.6075
1579,355933,0.60024,0.22423600000000002,-0.749568,10.22,3.5525,2.4325
1580,356030,0.627812,0.14493599999999998,-0.7705521,16.3625,3.045,6.335
1581,356127,0.6178081,0.142252,-0.763232,18.0425,1.26,7.1225
1582,356224,0.573156,0.16348,-0.758352,19.9675,0.105,8.8025
1583,356321,0.652456,0.044164,-0.8510719999999999,22.26,-0.1575,10.3425
1584,356419,0.625372,0.050508,-0.8095920999999999,18.865,-1.505,7.14
1585,356516,0.62952,0.0793,-0.7998321,14.175,-0.4025,2.905
1586,356613,0.6263479999999999,0.07027201,-0.787144,10.71,-0.0875,1.015
1587,356710,0.619272,0.07344400000000001,-0.781044,8.435,0.1575,-0.7525
1588,356807,0.622688,0.096624,-0.7793359999999999,6.475,-0.1925,-1.855
1589,356904,0.614392,0.09028,-0.7854361,5.67,0.0175,-2.6075
1590,357001,0.614392,0.099552,-0.776896,5.1625,0.42,-3.22
1591,357098,0.605364,0.066124,-0.782752,4.795,0.6475,-3.3075
1592,357195,0.622688,0.10516400000000001,-0.7812880999999999,4.6375,1.645,-3.7625
1593,357292,0.617564,0.1037,-0.777628,5.0925,2.345,-3.605
1594,357389,0.619028,0.09735601,-0.789828,5.8975,3.0625,-3.745
1595,357486,0.606584,0.09223200000000001,-0.7610359999999999,6.72,3.255,-3.6225
1596,357584,0.614392,0.130052,-0.775188,8.26,3.675,-3.325
1597,357681,0.6273241,0.12029200000000001,-0.7759199999999999,10.3075,4.1125,-2.5725
1598,357778,0.6329359999999999,0.1281,-0.768356,11.06,3.9025,-1.6625
1599,357875,0.631228,0.10931199999999999,-0.779824,10.7975,3.3075,-1.4
1600,357972,0.6229319999999999,0.133956,-0.774944,10.4125,2.73,0.0175
1601,358069,0.6182960999999999,0.14274,-0.7820199999999999,10.745,2.6425,1.89
1602,358166,0.616344,0.104432,-0.781044,11.3225,3.115,4.445
1603,358263,0.620004,0.0488,-0.791292,8.995,5.18,5.915
1604,358360,0.5738880000000001,0.021716,-0.795928,3.745,8.61,4.9
1605,358457,0.579256,0.030256,-0.802272,-0.2625,16.0475,2.485
1606,358554,0.582184,0.069052,-0.8117880000000001,-3.955,24.6225,0.8925
1607,358651,0.5743761,0.06929600000000001,-0.822768,-7.1575,32.7075,0.245
1608,358749,0.536068,0.110776,-0.8576601,-9.3625,43.1375,-0.4375
1609,358846,0.579012,0.10614000000000001,-0.8371639999999999,-10.3075,57.4525,-0.5075
1610,358943,0.5736441,0.090768,-0.8252079999999999,-13.5275,72.45,1.19
1611,359040,0.589504,0.110044,-0.833016,-19.32,90.44001,4.5675
1612,359137,0.6392800000000001,0.06270801,-0.832528,-23.625,111.0025,9.555
1613,359234,0.6368401,0.107848,-0.8723001,-25.97,131.425,17.7275
1614,359331,0.644892,-0.011956,-0.854244,-21.77,148.33,28.5075
1615,359428,0.5814520000000001,0.03538,-0.9503799999999999,-20.405,166.95,43.68
1616,359525,0.49580799999999997,0.12175599999999999,-1.044564,-7.5775,196.175,62.65
1617,359622,0.452376,0.335988,-1.050176,18.655,239.7325,76.755
1618,359719,0.599264,0.43334399999999995,-1.1746159999999999,44.1875,290.7625,87.57
1619,359817,0.532408,0.47360399999999997,-1.148264,63.2275,335.125,100.0475
1620,359914,0.654652,0.456768,-1.23098,82.0925,387.5375,108.85
1621,360011,1.298812,0.27938,-1.10532,93.485,435.3475,109.06
1622,360108,2.8321080000000003,-0.13298,-1.310036,88.02501,468.58,99.5925
1623,360205,2.406816,-0.161772,-1.57502,52.885,475.335,102.1125
1624,360302,2.0815639999999997,0.18056,-1.719468,-16.1875,468.93,94.23751
1625,360399,1.499136,0.288164,-2.059116,-74.41,457.66,75.21500999999999
1626,360496,1.242692,0.47336000000000006,-2.2082,-83.96500999999999,428.4,93.1175
1627,360593,0.97234,0.23082399999999997,-1.890268,-63.0875,403.0425,110.845
1628,360690,1.0431,-0.05172801,-2.41072,-95.7425,288.1025,105.9625
1629,360787,2.7120599999999997,1.123376,-4.214612000000001,-139.545,106.2775,96.8975
1630,360884,0.41236000000000006,1.730448,-3.0695200000000002,-98.82251,-129.535,71.645
1631,360982,-0.306464,1.514752,-2.0032400000000004,-43.0325,-225.7675,42.175
1632,361079,-0.8405800999999999,1.1533879999999999,-1.338584,8.575,-251.93,7.875
1633,361176,-0.7141881,0.8652241,-1.125816,29.89,-242.025,-28.0525
1634,361273,-0.37576,0.674172,-1.096048,29.855,-232.4,-62.3525
1635,361370,-0.050508,0.58072,-1.165832,21.245,-234.185,-93.1
1636,361467,0.20691199999999998,0.488,-1.1899879999999998,14.6825,-250.46,-116.6375
1637,361564,0.309636,0.35892399999999997,-1.1131280000000001,13.23,-274.5925,-132.2125
1638,361661,0.38186,0.204716,-0.9969841,12.355,-295.855,-141.0325
1639,361758,0.49532,0.07076001,-0.91622,7.9275,-310.1875,-144.1475
1640,361855,0.64782,-0.01586,-0.8708360999999999,0.28,-318.1675,-143.4125
1641,361952,0.835456,-0.063928,-0.8962120000000001,-7.0,-322.035,-139.2825
1642,362050,1.037,-0.124928,-0.9413520000000001,-11.7775,-325.0975,-131.74
1643,362147,1.1714440000000002,-0.203252,-0.9501360999999999,-16.24,-330.68,-121.94
1644,362244,1.2526959999999998,-0.25058800000000003,-0.898408,-22.4875,-335.23,-111.265
1645,362341,1.324432,-0.24717199999999998,-0.874984,-31.3775,-332.7275,-99.19001
1646,362438,1.378112,-0.183976,-0.882548,-40.6875,-324.345,-85.69751
1647,362535,1.549644,-0.042456,-0.9777081,-50.2425,-312.1125,-72.485
1648,362632,1.798768,0.153232,-1.0845799999999999,-54.0575,-301.7175,-61.9325
1649,362729,2.032764,0.283528,-1.147044,-48.1775,-297.325,-55.1075
1650,362826,2.197952,0.254736,-1.099708,-40.5475,-295.4875,-56.8225
1651,362923,2.298724,0.26303200000000004,-0.9864921,-40.495,-292.95,-70.9625
1652,363020,2.41438,0.254736,-0.8615640999999999,-40.6525,-287.035,-88.34000999999999
1653,363117,2.5583400000000003,0.159088,-0.671732,-33.285,-278.67,-98.89251
1654,363214,2.715232,0.059536,-0.447008,-25.4275,-272.44,-100.0825
1655,363311,2.8355240000000004,-0.067588,-0.146156,-23.7125,-268.975,-93.5725
1656,363409,2.842844,-0.15982000000000002,0.400404,-26.74,-264.1975,-79.1
1657,363506,2.7847720000000002,-0.404064,1.015284,-36.855,-248.3775,-49.3675
1658,363603,2.6898560000000002,-0.7890961,1.604544,-63.6825,-214.4625,-13.37
1659,363700,2.439268,-0.9686799999999999,1.9419959999999998,-117.1275,-159.0225,14.175
1660,363797,2.340936,-0.8720559999999999,1.8531799999999998,-173.6875,-88.02501,27.125
1661,363894,2.4295080000000002,-0.6497721,1.407636,-196.7875,-21.385,37.765
1662,363991,2.351672,-0.417484,0.9084121,-177.5375,23.1875,57.47
1663,364088,2.070584,-0.20788800000000002,0.545096,-134.6275,45.71,76.0375
1664,364185,1.7082439999999999,0.10223600000000001,0.347456,-92.61001,56.8925,76.265
1665,364282,-0.661972,2.2728599999999997,-0.975024,-13.195,75.39,58.3275
1666,364379,-1.193892,1.0528600000000001,0.326716,192.29,174.93,77.2275
1667,364477,0.20618000000000003,2.138904,-0.630252,213.36,248.29,125.1075
1668,364574,1.889536,-1.808528,-0.854244,288.085,312.865,117.53
1669,364671,2.1957560000000003,-2.093276,-1.780468,168.9275,290.9025,-38.955
1670,364768,1.4478959999999998,-2.4888,-1.755336,108.5875,253.7325,-44.8525
1671,364865,1.516948,-1.7446,-1.326384,69.02,215.3725,51.9575
1672,364962,3.124176,1.563552,-1.9900639999999998,23.24,180.7925,84.42
1673,365059,1.844396,0.5368,-0.8420440999999999,54.6175,104.3525,47.145
1674,365156,0.38308000000000003,-0.774944,-1.011868,77.8225,37.7125,33.5125
1675,365253,0.720288,0.235704,-0.853512,44.205,39.9875,29.435
1676,365350,1.1807159999999999,0.5131319999999999,-0.870592,43.9775,29.365,20.02
1677,365447,0.604144,-0.246928,-0.853756,42.49,17.2025,15.26
1678,365545,0.8076399999999999,-0.02562,-0.8657120999999999,29.68,12.775,9.31
1679,365642,0.677832,0.010492,-0.8378960999999999,17.395,4.4975,1.645
1680,365739,0.661728,0.08466801,-0.829356,9.6775,1.155,-1.96
1681,365836,0.633668,0.073688,-0.8003201,5.6525,1.3825,-4.0775
1682,365933,0.6117081,0.049776,-0.786412,3.01,1.085,-5.25
1683,366030,0.639768,0.11126400000000002,-0.781776,0.5075,1.645,-6.2475
1684,366127,0.6451359999999999,0.07978801,-0.779092,-1.5575,1.6975,-7.105
1685,366224,0.6280560000000001,0.05612,-0.7854361,-3.955,2.1525,-8.0325
1686,366321,0.649528,0.131028,-0.785192,-5.25,2.45,-8.575
1687,366418,0.638548,0.123464,-0.784216,-5.1625,1.995,-7.9275
1688,366515,0.6263479999999999,0.090768,-0.785192,-4.97,2.415,-7.8925
1689,366612,0.614636,0.142252,-0.7808001,-5.32,3.045,-7.4725
1690,366710,0.6070720000000001,0.13078399999999998,-0.776408,-4.48,3.9375,-7.1925
1691,366807,0.60878,0.12468399999999999,-0.752008,-3.08,4.7425,-6.51
1692,366904,0.620004,0.07393200000000001,-0.772504,-1.505,5.495,-6.6675
1693,367001,0.605364,0.121024,-0.753228,-1.015,5.775,-6.09
1694,367098,0.6029241,0.133468,-0.7539600000000001,1.0675,5.8975,-4.6725
1695,367195,0.6197600000000001,0.135176,-0.764452,4.0425,5.5475,-2.275
1696,367292,0.6307401,0.133956,-0.760304,6.51,5.425,-0.0875
1697,367389,0.653676,0.118584,-0.779092,7.6475,5.39,0.875
1698,367486,0.6280560000000001,0.12712400000000001,-0.759572,7.5425,4.5675,1.225
1699,367583,0.6329359999999999,0.1342,-0.7625,8.295,3.745,2.1175
1700,367681,0.643184,0.138348,-0.7707961,10.01,2.17,2.4675
1701,367778,0.650992,0.12761199999999998,-0.7610359999999999,10.675,0.805,3.605
1702,367875,0.64904,0.11053199999999999,-0.7556681,11.375,-0.63,4.515
1703,367972,0.635376,0.11345999999999999,-0.7610359999999999,11.34,-1.435,5.215
1704,368069,0.6409881,0.0854,-0.772016,11.235,-1.855,5.1625
1705,368166,0.6317159999999999,0.061488,-0.7754321,9.975,-1.155,4.41
1706,368263,0.6170760000000001,0.07490801,-0.77836,8.47,0.8225,3.675
1707,368360,0.6075600999999999,0.07173600000000001,-0.787144,7.525,3.7975,3.675
1708,368457,0.618784,0.051972000000000004,-0.79178,5.67,8.3125,3.6575
1709,368554,0.617564,0.05929201,-0.787876,2.975,12.6525,3.4825
1710,368651,0.611952,0.076616,-0.791292,0.8225,17.115,2.4675
1711,368749,0.6107319999999999,0.08296,-0.7895840999999999,-0.8925,22.2425,1.785
1712,368846,0.609024,0.084912,-0.796172,-1.575,27.3525,1.3825
1713,368943,0.621224,0.096624,-0.787388,-1.68,33.4425,1.0675
1714,369040,0.6229319999999999,0.09735601,-0.787632,-3.0625,40.04,1.575
1715,369137,0.6182960999999999,0.08052000000000001,-0.775676,-4.9,47.39,2.765
1716,369234,0.624152,0.118828,-0.7991,-8.61,56.7875,4.8475
1717,369331,0.629764,0.062220000000000004,-0.7732359999999999,-10.745,67.13,7.63
1718,369428,0.6409881,0.09320801,-0.8149601,-14.91,79.6775,10.6925
1719,369525,0.6317159999999999,0.0671,-0.82594,-13.965,92.96,13.6325
1720,369622,0.663924,0.07393200000000001,-0.834724,-12.4425,107.31,17.5875
1721,369719,0.6675840000000001,0.07173600000000001,-0.8425321,-10.5525,121.59,24.0975
1722,369817,0.659288,0.0366,-0.836676,-10.08,137.55,33.005
1723,369914,0.5838920999999999,0.061732,-0.9242720999999999,-6.265,157.22,44.275
