,T,ax,ay,az,gx,gy,gz
0,197243,0.517524,-0.06466001,-0.660752,16.905,-16.9575,-16.765
1,197395,0.5353359999999999,-0.07515201,-0.745664,78.96,-93.66,-126.4025
2,197491,0.547048,-0.08881599,-0.7705521,42.105,-164.9725,-171.08
3,197588,0.532652,-0.09320801,-0.763476,44.3975,-129.4825,-59.1675
4,197684,0.548756,-0.1159,-0.766892,-1.82,-1.505,-5.495
5,197780,0.58072,-0.087352,-0.7991,-7.3675,6.0725,-4.0425
6,197876,0.595604,-0.0671,-0.8142281,-9.8875,6.8075,-5.04
7,197972,0.604388,-0.05587601,-0.8210601000000001,-10.465,6.475,-5.495
8,198069,0.6304960000000001,-0.044896,-0.8466800999999999,-9.6075,5.1275,-6.02
9,198165,0.574864,-0.051484,-0.8108121,-6.93,3.43,-5.9325
10,198261,0.58804,-0.061732,-0.8049561,-5.495,3.9025,-5.4075
11,198357,0.6068279999999999,-0.057828,-0.8127641,-4.9175,4.865,-5.0225
12,198454,0.61122,-0.053191999999999996,-0.8108121,-4.305,5.565,-4.7775
13,198550,0.616588,-0.067832,-0.812032,-3.6225,6.02,-4.305
14,198646,0.60634,-0.06270801,-0.813984,-2.6425,6.16,-4.1125
15,198742,0.5565640000000001,-0.044896,-0.8296,-0.6125,7.7,-3.9725
16,198838,0.506544,0.09540401,-0.8998719999999999,3.5525,13.0725,-2.45
17,198935,0.354044,-0.511668,-0.800564,18.6375,20.86,-11.27
18,199031,0.47823999999999994,0.032695999999999996,-0.9472079999999999,7.4725,38.4825,-15.3125
19,199127,0.509228,-0.081252,-0.885964,10.3775,53.76,-18.2525
20,199223,0.5455840000000001,-0.09882,-0.909632,17.745,68.1275,-25.025
21,199320,0.517524,-0.22252800000000003,-0.901336,16.45,81.74251,-34.685
22,199416,0.546804,-0.214964,-0.9150001,4.76,93.5725,-42.84
23,199512,0.609024,-0.169824,-0.913536,-5.7225,105.91,-48.5975
24,199608,0.623664,-0.172508,-0.8962120000000001,-12.25,116.375,-54.705
25,199705,0.743712,-0.150304,-0.9506241,-14.21,124.1975,-59.535
26,199801,0.777628,-0.0183,-0.9911281,-12.39,127.365,-62.8775
27,199897,0.7195560000000001,-0.271084,-1.223904,0.56,123.62,-59.3425
28,199993,0.9701440999999998,-0.44554399999999994,-1.250744,13.37,107.695,-46.6725
29,200090,0.887184,-0.5892601,-1.422032,10.3775,87.53501,-35.7525
30,200186,0.476288,-0.549244,-1.210728,-8.0325,52.0625,-26.9675
31,200282,0.23301999999999998,-0.388936,-1.086532,-24.92,32.13,-20.2125
32,200378,0.14078800000000002,-0.265472,-1.117032,-28.35,26.0925,-12.635
33,200474,0.141764,-0.212524,-1.22366,-18.8825,20.51,-3.2725
34,200571,0.11760799999999999,-0.188368,-1.288808,-5.985,7.98,4.9875
35,200667,0.071248,-0.155916,-1.300276,2.66,-10.535,9.4325
36,200763,0.050508,-0.1037,-1.295884,7.7175,-30.8875,10.92
37,200859,0.0366,-0.05977999999999999,-1.261968,13.125,-50.9425,11.515
38,200956,0.029036000000000003,-0.024888,-1.217072,19.53,-68.8275,11.83
39,201052,0.07442,-0.017812,-1.1897440000000001,25.865,-83.16001,12.005
40,201148,0.145912,-0.025131999999999998,-1.1690040000000002,30.765,-95.2175,12.2325
41,201244,0.23448400000000003,-0.024644,-1.143384,32.8125,-106.6625,12.7925
42,201341,0.310368,-0.011712,-1.105808,33.145,-117.5125,13.86
43,201437,0.392596,0.007564001,-1.070184,33.215,-126.525,15.5925
44,201533,0.482388,0.032451999999999995,-1.043588,33.6175,-133.42,17.4125
45,201629,0.5594920999999999,0.053191999999999996,-1.011136,34.5625,-139.44,18.795
46,201726,0.613416,0.067832,-0.9677040000000001,34.8775,-144.5325,18.865
47,201822,0.630252,0.09052401,-0.918416,34.16,-148.19,16.87
48,201918,0.633424,0.120048,-0.874252,33.6525,-149.6775,13.2475
49,202014,0.632448,0.127368,-0.850096,34.5625,-148.5225,9.415
50,202111,0.643672,0.10638399999999999,-0.8437520000000001,36.12,-145.3025,6.055
51,202207,0.669292,0.07222401,-0.8527800999999999,36.4525,-141.89,3.1675
52,202303,0.6944241,0.054167999999999994,-0.856684,34.685,-138.8975,0.7
53,202399,0.711016,0.033428,-0.845216,32.6725,-135.835,-1.05
54,202496,0.729072,0.004392,-0.7954399999999999,29.8725,-132.23,-2.3625
55,202592,0.7288279999999999,-0.01098,-0.755912,25.0775,-126.7875,-3.7975
56,202688,0.7612800999999999,-0.009028000999999999,-0.7510321,20.055,-118.7725,-4.6725
57,202784,0.8142281,-0.004636001,-0.776896,18.83,-110.5475,-2.52
58,202881,0.8335040000000001,-0.019275999999999998,-0.75884,22.435,-104.825,2.5725
59,202977,0.8203280000000001,-0.040748,-0.71126,27.16,-101.3425,8.47
60,203073,0.8220360000000001,-0.055388,-0.678076,29.6625,-97.28251,13.2475
61,203169,0.8271601000000001,-0.06124401,-0.642452,27.8425,-93.38,15.75
62,203266,0.8054439999999999,-0.049776,-0.604144,21.7875,-90.1775,15.9775
63,203362,0.7473721,-0.010492,-0.552416,14.7,-86.34501,14.3325
64,203458,0.693692,0.02684,-0.504836,10.605,-79.9225,12.32
65,203554,0.663924,0.047336,-0.48848800000000003,10.5875,-70.63,9.975
66,203651,0.689056,0.05856,-0.499224,13.3175,-60.2,6.825
67,203747,0.681248,0.054412,-0.488976,17.29,-50.8025,3.465
68,203843,0.686128,0.072956,-0.48068,21.7175,-42.35,-0.6475
69,203940,0.6897880999999999,0.091988,-0.463844,25.585,-34.2125,-5.8275
70,204036,0.708088,0.10833599999999999,-0.453596,27.9825,-26.7225,-12.6
71,204132,0.760304,0.08808401,-0.438468,28.7,-20.1075,-20.79
72,204228,0.79666,0.067588,-0.38503200000000004,28.3325,-14.4725,-29.19
73,204325,0.8164239999999999,0.030744,-0.306708,28.7175,-7.63,-34.7025
74,204421,0.8703481,-0.0488,-0.21838000000000002,28.8225,2.3275,-36.575
75,204517,1.010648,-0.12175599999999999,-0.195688,25.5325,15.2775,-33.8975
76,204613,1.1446040000000002,-0.196908,-0.19251600000000002,18.2875,26.81,-25.13
77,204710,1.2402520000000001,-0.25864000000000004,-0.1769,6.265,34.9125,-11.305
78,204806,1.288076,-0.307196,-0.10223600000000001,-10.3425,40.915,5.355
79,204902,1.221708,-0.323544,0.010492,-30.485,48.7025,23.0125
80,204999,-0.181536,-0.7856801,-0.692228,-24.2025,65.765,34.3
81,205095,-2.0996200000000003,-1.1289879999999999,-1.194868,-6.5625,132.4925,37.695
82,205191,0.548756,-1.164368,-2.495632,-3.22,137.795,33.0225
83,205287,0.9093880999999999,-0.09272000000000001,-0.8108121,-59.85,154.9625,4.4975
84,205384,1.38226,0.31402800000000003,-1.062132,-65.1175,151.97,3.4125
85,205480,1.307108,0.321104,-1.613328,-46.2525,135.03,27.755
86,205576,0.389912,0.7095520000000001,-1.146068,-46.2,90.44001,19.425
87,205672,0.17543599999999998,0.873764,-0.9703879999999999,-30.1525,85.7325,-6.1425
88,205769,0.393084,0.510936,-0.9674601,-4.4975,92.155,-25.515
89,205865,0.582184,-0.10418800000000002,-0.9015799999999999,11.0775,93.135,-35.9275
90,205961,0.6265921,-0.584136,-0.7422481,13.4575,92.68001,-34.195
91,206057,0.702232,-0.694912,-0.71126,3.1675,94.93751,-27.51
92,206154,0.729316,-0.349652,-0.77836,-11.9525,96.63501,-22.3475
93,206250,2.826252,-0.32208000000000003,-2.190144,-21.945,94.81501,-17.36
94,206346,0.052216,0.335988,-0.32696,-46.5325,36.0325,-15.645
95,206442,0.891576,-0.36502399999999996,-1.1387479999999999,-18.3925,11.1825,-13.09
96,206539,0.482388,0.128832,-0.787144,-20.895,17.045,-10.7975
97,206635,0.7551800000000001,-0.08003201,-0.898164,-12.74,15.12,-9.6075
98,206731,0.586332,-0.158844,-0.787876,-7.21,7.945,-6.895
99,206827,0.6344,-0.05246,-0.850096,-6.93,7.6125,-6.1425
100,206924,0.616344,-0.050996,-0.847412,-4.34,4.515,-5.0225
101,207020,0.61,-0.104676,-0.8142281,-1.12,1.7675,-3.7625
102,207116,0.597068,-0.11614400000000001,-0.797148,-0.98,-0.07,-3.7625
103,207212,0.5694961,-0.1281,-0.7856801,-3.01,-1.505,-4.9
104,207309,0.610488,-0.12175599999999999,-0.813984,-5.6,-1.785,-6.51
105,207405,0.5858439999999999,-0.116632,-0.79056,-6.7025,-3.045,-8.015
106,207501,0.5885281,-0.128344,-0.8003201,-7.14,-4.165,-9.38
107,207598,0.605608,-0.09052401,-0.8193521,-7.105,-4.655,-9.8175
108,207694,0.592432,-0.0732,-0.8117880000000001,-6.125,-5.6525,-9.9225
109,207790,0.5363121,-0.045384,-0.8015399999999999,-4.655,-5.9325,-9.1525
110,207886,0.555832,-0.086864,-0.7893399999999999,-2.9575,-4.9175,-7.6475
111,207983,0.576328,-0.07344400000000001,-0.8147161,-2.205,-3.9025,-6.23
112,208079,0.561932,-0.07637200000000001,-0.800808,-1.3475,-2.975,-5.1975
113,208175,0.59536,-0.119804,-0.8164239999999999,-0.2975,-1.7675,-4.7425
114,208271,0.575596,-0.105652,-0.7956840999999999,-0.0525,-1.785,-4.3575
115,208368,0.574864,-0.095648,-0.796172,-0.8225,-1.75,-4.83
116,208464,0.5875520000000001,-0.101504,-0.799588,-0.6125,-2.1,-5.145
117,208560,0.588284,-0.08881599,-0.8010520000000001,-0.6475,-2.6075,-5.3725
118,208656,0.585112,-0.07637200000000001,-0.806176,-0.21,-3.4475,-5.46
119,208753,0.57828,-0.05587601,-0.811056,0.9625,-3.815,-5.005
120,208849,0.571936,-0.06344,-0.8025161,2.275,-4.1825,-4.515
121,208945,0.563396,-0.07856801,-0.7978801,2.275,-3.7275,-4.3925
122,209041,0.5636399999999999,-0.09028,-0.7922680000000001,1.225,-3.255,-4.7775
123,209138,0.5743761,-0.091012,-0.79422,-0.3325,-2.3625,-5.1275
124,209234,0.5751081,-0.08808401,-0.801784,-1.26,-2.2575,-5.705
125,209330,0.571448,-0.08369201,-0.8039801,-1.26,-2.275,-5.7225
126,209427,0.5751081,-0.082716,-0.7991,-1.085,-1.75,-5.6
127,209523,0.577548,-0.09052401,-0.7993439999999999,-1.1025,-1.3475,-5.4425
128,209619,0.58316,-0.07417601,-0.8042239999999999,-1.05,-1.4875,-5.6525
129,209715,0.553148,-0.067344,-0.8020281,-0.5425,-1.2425,-5.46
130,209812,0.571448,-0.080276,-0.793488,-0.455,-0.28,-5.32
131,209908,0.569984,-0.086864,-0.7991,-0.7525,-0.3675,-5.4075
132,210004,0.583404,-0.08564401,-0.797636,-1.33,0.1225,-5.8275
133,210100,0.5734,-0.0854,-0.7991,-1.6975,0.5425,-6.0375
134,210197,0.586576,-0.07856801,-0.7991,-2.0475,1.68,-5.8625
135,210293,0.581696,-0.07222401,-0.8071520000000001,-2.1,2.8175,-5.075
136,210389,0.589992,-0.061975999999999996,-0.811056,-1.96,3.08,-5.0225
137,210485,0.585356,-0.07612801,-0.809348,-1.7675,2.555,-5.2325
138,210582,0.586088,-0.08906,-0.8025161,-2.24,2.1525,-5.5475
139,210678,0.5958479999999999,-0.091012,-0.7951961,-3.0625,2.59,-6.1425
140,210774,0.595116,-0.096624,-0.795928,-3.3075,2.625,-6.8075
141,210870,0.5958479999999999,-0.09589201,-0.7978801,-3.29,2.45,-7.385
142,210967,0.590236,-0.077348,-0.807396,-3.4125,3.4125,-7.28
143,211063,0.583648,-0.06661201,-0.8047121,-2.8175,5.1275,-6.615
144,211159,0.537532,0.044407999999999996,-0.858392,-1.68,7.735,-6.3175
145,211255,0.537532,-0.012688,-0.8632719999999999,4.865,12.74,-8.225
146,211352,0.496784,0.03904,-0.9286639999999999,11.27,20.8425,-7.525
147,211448,0.20374,-0.19861600000000001,-0.9381801,17.4825,36.505,-1.5575
148,211544,0.40967600000000004,-0.12029200000000001,-0.987712,18.1475,65.275,1.19
149,211640,0.479216,-0.019032,-0.9713639999999999,26.565,89.215,-1.855
150,211737,0.44164,-0.133712,-0.9352520000000001,32.2175,111.2475,-4.5675
151,211833,0.467504,-0.167872,-0.9262239999999999,25.025,132.405,-12.8275
152,211929,0.47482399999999997,-0.222284,-0.9091440000000001,0.4725,153.7025,-29.295
153,212025,0.479216,-0.28767600000000004,-0.948184,-23.625,173.6875,-48.685
154,212122,0.527284,-0.32452,-1.006256,-40.9675,194.215,-65.4675
155,212218,0.5429,-0.2745,-0.9652639999999999,-57.5225,214.6725,-77.5775
156,212314,0.702964,-0.13298,-0.9025559999999999,-73.71,242.0075,-85.365
157,212410,0.942816,0.09882,-1.051884,-73.605,278.355,-82.88
158,212507,1.49084,0.183488,-1.266116,-62.9125,312.9175,-69.125
159,212603,1.441308,0.28548,-1.346392,-47.565,338.1525,-52.9025
160,212699,1.596492,0.289628,-1.6958,-30.94,344.7675,-39.1475
161,212796,1.283196,-0.086132,-1.396168,17.2375,341.0575,-14.175
162,212892,0.9484280999999999,-0.089304,-1.573556,28.6475,357.1225,-11.41
163,212988,0.9464761,-0.005612,-2.046916,28.8925,379.2425,-17.395
164,213084,-0.045627999999999995,-0.015372,-2.489532,49.2275,397.495,-20.44
165,213181,1.42374,0.209108,-3.4799279999999997,60.305,329.385,-58.1875
166,213277,1.34566,-0.259128,-3.706116,71.575,131.775,-100.485
167,213373,-0.03538,-0.853024,-2.4729400000000004,61.3725,-29.365,-114.0125
168,213469,-0.6097560000000001,-0.8396040000000001,-1.706048,21.35,-95.725,-122.0275
169,213566,-0.701012,-0.675148,-1.440332,-11.3925,-110.215,-112.84
170,213662,-0.5016641,-0.552904,-1.422764,-14.5075,-106.4875,-89.985
171,213758,-0.2623,-0.551928,-1.485228,3.01,-109.6725,-56.14
172,213854,-0.048068,-0.614636,-1.482544,21.035,-126.7875,-22.3825
173,213951,0.134932,-0.618784,-1.432036,25.0425,-154.175,4.0425
174,214047,0.265228,-0.504104,-1.3583479999999999,15.82,-186.5675,22.2075
175,214143,0.363316,-0.298412,-1.277828,5.67,-218.54,34.3
176,214239,0.44676400000000005,-0.112728,-1.182424,5.7925,-246.2775,42.98
177,214336,0.513864,-0.0034159999999999998,-1.075552,16.0125,-267.8725,48.6325
178,214432,0.5575399999999999,0.049776,-0.9857600000000001,28.1925,-282.7125,50.3125
179,214528,0.659044,0.09247601,-0.9535521,37.275,-290.675,47.565
180,214624,0.809836,0.145424,-0.967216,42.665,-294.595,41.3
181,214721,0.9591639999999999,0.20496,-0.9874681000000001,48.02,-298.025,32.585
182,214817,1.076284,0.228872,-0.989908,55.9475,-300.4225,23.6775
183,214913,1.200236,0.204228,-0.9581881,65.065,-300.72,14.945
184,215009,1.279048,0.12688,-0.916952,72.1175,-298.585,5.0225
185,215106,1.318576,0.011468,-0.895236,77.4375,-293.055,-3.2375
186,215202,1.414712,-0.073688,-0.8996280999999999,83.0725,-284.6725,-5.6
187,215298,1.5159719999999999,-0.14347200000000002,-0.92232,91.8225,-274.33,-0.385
188,215394,1.59332,-0.18251199999999998,-0.9489161,103.0225,-262.885,12.425
189,215491,1.675548,-0.2013,-0.9557479999999999,115.3075,-251.02,30.7125
190,215587,1.798036,-0.19885999999999998,-0.8991401,125.195,-239.47,49.525
191,215683,1.9734720000000001,-0.216428,-0.81984,129.5,-227.3775,66.53501
192,215780,2.200148,-0.24326799999999998,-0.724924,124.005,-215.845,81.1475
193,215876,2.311168,-0.11102000000000001,-0.5458281,104.545,-208.3375,95.02501
194,215972,2.151348,0.166408,-0.366976,77.0,-200.83,110.6175
195,216068,2.007144,0.286456,-0.180804,52.6575,-186.515,120.61
196,216165,1.968104,0.325008,-0.004148001,26.4075,-167.02,117.145
197,216261,2.021784,0.39723200000000003,0.13859200000000002,1.155,-145.88,104.44
198,216357,2.086688,0.48531599999999997,0.308904,-11.8125,-125.3875,88.6025
199,216453,2.073024,0.6007279999999999,0.515328,-9.5725,-105.2275,71.4
200,216550,1.964932,0.6785640000000001,0.71614,4.41,-80.7275,56.2625
201,216646,1.860988,0.642696,0.8559521000000001,19.6875,-48.23,46.6025
202,216742,1.8707479999999999,0.5355800999999999,0.8091041,19.1975,-12.075,39.5325
203,216838,1.909788,0.44773999999999997,0.6265921,-0.7175,17.5525,31.885
204,216935,1.895636,0.437004,0.400892,-28.0,36.1375,24.9375
205,217031,0.490684,0.7812880999999999,-0.306464,-43.6625,45.815,22.61
206,217127,0.071492,0.584868,1.616256,0.5425,102.2525,16.8875
207,217223,-0.885964,-0.42212,-0.371368,57.7325,196.77,4.8825
208,217320,1.136308,-0.769332,-1.460584,13.615,267.61,-58.8875
209,217416,2.599332,-0.6541640000000001,-1.5142639999999998,-54.7925,274.33,-92.7325
210,217512,1.977132,-0.620492,-1.384456,-52.4475,232.5575,-33.285
211,217608,1.3285799999999999,0.18104800000000001,-1.42252,-64.8025,201.88,-5.6175
212,217705,1.0821399999999999,0.7200439999999999,-1.420568,-65.87,176.5925,-14.6475
213,217801,0.8405800999999999,0.7922680000000001,-1.192916,-53.375,154.945,-28.4725
214,217897,0.8781559999999999,0.250344,-1.069452,-27.8425,137.2175,-34.2825
215,217993,1.255136,-0.382104,-1.050176,-18.9875,124.81,-36.715
216,218090,2.51442,-0.478728,-1.535004,-42.805,100.9925,-14.42
217,218186,0.298168,0.064416,-0.65514,-76.9125,18.5675,-24.9725
218,218282,0.686372,0.305,-0.9618481,-34.8075,39.9175,-15.3475
219,218378,0.748836,-0.153476,-0.88328,-30.2575,24.465,-15.0325
220,218475,0.69784,-0.15738,-0.806908,-20.8425,22.6275,-9.45
221,218571,0.715896,-0.027083999999999997,-0.888648,-18.27,15.9425,-8.9425
222,218667,0.643428,-0.053436000000000004,-0.833016,-10.2025,8.3125,-6.685
223,218763,0.6470880999999999,-0.061,-0.8252079999999999,-3.64,4.7775,-3.78
224,218860,0.6265921,-0.057339999999999995,-0.8244761,0.4375,2.695,-1.8025
225,218956,0.61854,-0.051484,-0.8188641,3.9025,1.1375,-0.49
226,219052,0.616588,-0.07442,-0.812276,6.685,0.1925,0.4375
227,219149,0.62098,-0.08662001,-0.8042239999999999,8.4525,-0.9625,0.6825
228,219245,0.611952,-0.062952,-0.806908,9.66,-2.275,0.6125
229,219341,0.595604,-0.08466801,-0.787144,11.165,-3.99,0.63
230,219437,0.5917,-0.09418401,-0.787144,11.48,-4.795,0.3325
231,219534,0.575596,-0.10858,-0.7951961,10.99,-5.145,-0.2275
232,219630,0.5565640000000001,-0.114436,-0.7671359999999999,9.5375,-4.83,-0.7875
233,219726,0.57218,-0.11053199999999999,-0.783728,7.14,-3.7975,-1.75
234,219822,0.5648601,-0.104432,-0.7759199999999999,4.865,-2.9225,-2.3625
235,219919,0.56852,-0.10394400000000001,-0.774456,2.7825,-2.24,-3.1675
236,220015,0.5665680000000001,-0.11614400000000001,-0.764696,0.2975,-1.8725,-4.2525
237,220111,0.567788,-0.123464,-0.760304,-3.4125,-1.54,-5.95
238,220207,0.5738880000000001,-0.114924,-0.76494,-7.315,-0.98,-7.6125
239,220304,0.5914560000000001,-0.09442801,-0.7795801,-10.885,-0.5775,-9.0475
240,220400,0.6539201,-0.021472,-0.8430200999999999,-12.39,-0.665,-9.9225
241,220496,0.6224441,-0.11736400000000001,-0.790804,-9.4675,-2.8525,-9.4325
242,220592,0.586332,-0.04514,-0.7954399999999999,-8.295,-4.865,-9.835
243,220689,0.6036560999999999,-0.048556,-0.7881199999999999,-7.2975,-5.04,-9.6775
244,220785,0.582184,-0.092964,-0.785924,-6.405,-5.985,-9.52
245,220881,0.5826720000000001,-0.042212,-0.798856,-7.1575,-5.6525,-9.73
246,220978,0.584868,-0.07393200000000001,-0.793488,-6.8775,-5.145,-9.6775
247,221074,0.564128,-0.05929201,-0.795928,-6.965,-4.6725,-9.8525
248,221170,0.5636399999999999,-0.088328,-0.7954399999999999,-6.3875,-4.06,-10.115
249,221266,0.587796,-0.062220000000000004,-0.798124,-5.9325,-2.52,-10.0975
250,221363,0.5785241,-0.071248,-0.797636,-5.075,-1.4875,-8.6275
251,221459,0.5958479999999999,-0.07027201,-0.8003201,-4.795,-1.12,-8.0325
252,221555,0.607804,-0.06539201,-0.796904,-4.795,-0.6125,-7.9625
253,221651,0.601704,-0.07076001,-0.793976,-4.6025,-0.9275,-7.56
254,221748,0.598532,-0.07637200000000001,-0.78446,-4.76,-1.05,-7.35
255,221844,0.600484,-0.07564,-0.792024,-5.1975,-1.1375,-7.5425
256,221940,0.5987760999999999,-0.067588,-0.8039801,-5.4775,-0.875,-7.5425
257,222036,0.6068279999999999,-0.058316,-0.801296,-5.46,-0.0175,-7.6825
258,222133,0.607804,-0.045627999999999995,-0.8052,-5.1275,0.665,-7.3675
259,222229,0.603168,-0.05563200000000001,-0.8178880999999999,-4.1475,1.19,-7.1575
260,222325,0.604876,-0.046604,-0.7954399999999999,-2.6425,2.6075,-6.965
261,222421,0.6019479999999999,-0.051484,-0.806908,-0.595,4.935,-6.5975
262,222518,0.5397281,0.004148001,-0.8569280999999999,2.1,7.5775,-6.335
263,222614,0.5060560000000001,0.004392,-0.8810841,8.4175,14.5775,-8.2075
264,222710,0.341356,-0.023668,-0.935008,14.7175,26.425,-7.385
265,222806,0.338916,-0.09735601,-0.9860040999999999,18.235,51.135,-1.12
266,222903,0.4331,-0.050752,-0.996008,24.7975,79.45,1.9775
267,222999,0.450912,-0.07393200000000001,-1.00894,34.93,107.9225,-1.3825
268,223095,0.378688,-0.113704,-1.045784,39.6025,135.905,-8.8725
269,223191,0.355752,-0.26718000000000003,-1.011136,24.885,166.11,-24.01
270,223288,0.4594521,-0.225944,-1.0384639999999998,-5.88,192.9375,-47.285
271,223384,0.464088,-0.419436,-1.048224,-32.1825,215.3725,-68.6175
272,223480,0.558272,-0.23546,-1.006988,-59.675,246.68,-79.9575
273,223576,0.850584,-0.07246799999999999,-1.046028,-73.3075,285.3025,-86.8525
274,223673,1.46278,0.09784401,-1.497184,-68.005,326.235,-80.815
275,223769,1.329556,0.164456,-1.056764,-53.8475,354.7425,-64.34751
276,223865,1.8534240000000002,0.285968,-1.952732,-33.46,365.4525,-53.865
277,223961,1.282952,-0.09711201,-1.442772,19.39,353.3425,-29.4
278,224058,1.0438319999999999,-0.13054000000000002,-1.647732,47.5125,374.0275,-25.8475
279,224154,0.676612,-0.077592,-1.879776,55.0725,401.275,-35.035
280,224250,-0.48068,-0.22033200000000003,-2.4729400000000004,66.53501,415.9925,-45.885
281,224346,1.597712,-0.33013200000000004,-3.6861080000000004,64.575,313.25,-75.9325
282,224443,1.309548,-0.79422,-3.329868,64.89,129.0975,-90.055
283,224539,0.07490801,-1.0582280000000002,-2.344596,39.445,-6.7375,-91.77
284,224635,-0.45554799999999995,-0.903532,-1.711904,4.655,-74.725,-80.78
285,224732,-0.68076,-0.674172,-1.404952,-16.275,-94.08,-59.7625
286,224828,-0.5192319999999999,-0.42773199999999995,-1.3949479999999999,-12.495,-90.9825,-32.8475
287,224924,-0.26913200000000004,-0.28328400000000004,-1.473272,9.8875,-93.6775,-6.685
288,225020,-0.022203999999999998,-0.24570799999999998,-1.508896,35.0875,-110.215,12.53
289,225117,0.187392,-0.23082399999999997,-1.497184,49.1225,-139.23,21.805
290,225213,0.325008,-0.16714,-1.454484,50.26,-175.8575,23.4325
291,225309,0.400648,-0.053436000000000004,-1.367376,46.725,-213.535,22.225
292,225405,0.410896,0.08564401,-1.236104,47.18,-246.715,21.63
293,225502,0.401624,0.183488,-1.104344,55.545,-271.075,21.245
294,225598,0.44676400000000005,0.231068,-1.00284,68.2325,-284.655,19.7925
295,225694,0.553636,0.217892,-0.9537959999999999,80.535,-290.395,16.1875
296,225790,0.699792,0.18470799999999998,-0.951356,88.06,-291.62,11.27
297,225887,0.815204,0.17836400000000002,-0.9799041,91.035,-291.1125,8.05
298,225983,0.9301280000000001,0.21106,-1.0323639999999998,94.01,-291.515,7.1225
299,226079,1.044808,0.23911999999999997,-1.0504200000000001,100.8875,-292.7575,8.26
300,226175,1.140212,0.198128,-1.047248,110.0225,-293.685,12.3025
301,226272,1.2075559999999999,0.13176,-1.062132,116.095,-294.56,18.1125
302,226368,1.30174,0.047336,-1.0582280000000002,116.655,-294.7,24.0975
303,226464,1.40422,-0.016347999999999998,-1.0230920000000001,112.21,-294.2275,31.675
304,226560,1.468148,-0.040016,-0.9738041,104.4225,-290.325,42.4025
305,226657,1.572092,0.011468,-0.9511120000000001,96.74,-280.6475,55.7375
306,226753,1.7504560000000002,0.02562,-0.913292,93.5375,-267.0325,71.085
307,226849,1.966884,-0.063928,-0.856196,91.4025,-253.5925,88.8825
308,226945,2.119384,-0.206668,-0.7327321,79.5025,-243.3375,108.71
309,227042,2.142076,-0.05977999999999999,-0.565836,52.045,-234.955,127.365
310,227138,2.074,0.195932,-0.391864,22.4875,-222.0225,141.365
311,227234,2.129388,0.278648,-0.178608,5.39,-201.6875,146.7025
312,227330,2.210884,0.24326799999999998,0.044164,-8.5225,-177.765,142.0825
313,227427,2.311656,0.188124,0.281088,-23.1875,-153.72,130.8475
314,227523,2.367532,0.177144,0.5248441,-35.315,-131.1975,117.8625
315,227619,2.415844,0.28938400000000003,0.729072,-40.5475,-106.8025,102.3225
316,227715,2.3990080000000003,0.46457600000000004,0.9171961,-32.585,-78.27750999999999,86.20501
317,227812,2.261392,0.499224,1.052616,-13.2825,-44.0125,73.08
318,227908,2.188924,0.37942,1.0199200000000002,-1.19,-4.585,61.7925
319,228004,2.133048,0.211792,0.8371639999999999,-9.065,30.59,50.2425
320,228100,0.787632,1.212436,0.7390760000000001,-10.6225,60.6725,35.63
321,228196,-1.856596,-0.06539201,1.23464,40.3725,190.785,30.7475
322,228293,-0.213256,-1.379332,-1.045052,86.13501,255.7625,-0.2625
323,228389,2.318488,-0.538508,-1.52378,-35.595,304.5175,-82.845
324,228485,2.173308,-0.745664,-1.255136,-58.485,266.805,-65.695
325,228581,1.7233720000000001,-0.34721199999999997,-1.515484,-65.3275,236.95,-14.07
326,228678,1.380064,0.503128,-1.553304,-76.2825,211.435,-7.595
327,228774,0.9713639999999999,0.944768,-1.380308,-67.3575,184.275,-13.2125
328,228870,0.8971879999999999,0.821304,-1.26148,-41.44,162.5225,-29.8375
329,228966,0.799588,0.05612,-1.0260200000000002,-16.03,142.275,-40.5825
330,229063,0.85644,-0.6021920000000001,-0.781776,-9.5725,133.4725,-37.205
331,229159,3.6987959999999998,-1.093364,-2.236992,-32.445,133.6125,-17.885
332,229255,0.128832,0.281332,-0.27084,-95.1475,45.1325,-28.3325
333,229351,1.04188,0.0793,-1.242204,-40.95,39.6025,-24.0975
334,229448,0.646112,-0.08954801,-0.8342360000000001,-35.42,18.6025,-18.095
335,229544,0.7034521,-0.11541199999999999,-0.8342360000000001,-22.5925,16.695,-12.67
336,229640,0.692716,-0.093696,-0.8605879999999999,-17.9025,8.68,-10.955
337,229736,0.652212,-0.082228,-0.8357,-11.55,3.29,-9.1525
338,229833,0.659288,-0.06466001,-0.84546,-6.72,-0.245,-7.1925
339,229929,0.625128,-0.057584,-0.8327720999999999,-2.3625,-3.325,-5.5475
340,230025,0.5914560000000001,-0.07222401,-0.813984,0.7,-5.215,-4.7775
341,230121,0.5738880000000001,-0.1037,-0.7978801,1.6975,-6.86,-5.11
342,230218,0.6036560999999999,-0.125416,-0.7861680999999999,0.6825,-8.26,-6.4225
343,230314,0.592188,-0.09882,-0.7893399999999999,-0.525,-8.505,-7.105
344,230410,0.5702281,-0.09540401,-0.7761640999999999,-1.0675,-8.715,-7.4025
345,230506,0.557052,-0.079544,-0.777384,-1.6625,-8.1725,-7.35
346,230603,0.571448,-0.09613601,-0.7944641,-2.1875,-7.3325,-7.2975
347,230699,0.569984,-0.119072,-0.807396,-2.485,-6.37,-7.0
348,230795,0.543632,-0.10052799999999999,-0.7700640999999999,-3.2025,-4.69,-6.3875
349,230891,0.568276,-0.09711201,-0.7998321,-4.4625,-2.8175,-6.79
350,230988,0.558272,-0.101992,-0.785924,-4.935,-1.75,-6.65
351,231084,0.566812,-0.091744,-0.787876,-6.44,-0.4375,-7.0175
352,231180,0.5726680000000001,-0.093696,-0.782752,-7.42,0.0875,-7.5775
353,231276,0.5914560000000001,-0.076616,-0.8054439999999999,-8.5925,0.595,-8.5225
354,231373,0.5838920999999999,-0.0488,-0.8030041,-7.5075,-0.315,-8.505
355,231469,0.583404,-0.071004,-0.7983680000000001,-5.3025,-1.2775,-7.84
356,231565,0.6029241,-0.062464,-0.8003201,-4.6725,-0.2625,-7.1575
357,231661,0.59902,-0.060267999999999995,-0.8025161,-3.395,-1.3125,-6.615
358,231758,0.595116,-0.053436000000000004,-0.8030041,-2.38,-1.9775,-5.88
359,231854,0.59048,-0.061732,-0.800564,-1.505,-2.3625,-5.495
360,231950,0.573156,-0.053924,-0.8047121,-0.98,-2.485,-5.215
361,232046,0.568276,-0.067588,-0.803736,-0.28,-2.0125,-4.83
362,232143,0.5694961,-0.07246799999999999,-0.800808,-0.1225,-0.595,-4.2525
363,232239,0.56852,-0.09882,-0.796172,-0.98,0.385,-4.4625
364,232335,0.580964,-0.08857201,-0.7993439999999999,-2.6775,0.9625,-5.25
365,232431,0.582428,-0.08906,-0.7922680000000001,-4.2875,0.5075,-6.51
366,232528,0.59536,-0.07856801,-0.7954399999999999,-5.5825,-0.2625,-7.525
367,232624,0.593896,-0.06563601,-0.7951961,-6.4225,-1.155,-8.015
368,232720,0.597312,-0.071248,-0.79666,-6.685,-2.135,-8.295
369,232816,0.596092,-0.060267999999999995,-0.7956840999999999,-6.4225,-2.835,-8.4175
370,232913,0.5926760999999999,-0.05587601,-0.801296,-6.335,-2.905,-8.19
371,233009,0.587064,-0.06490399999999999,-0.805688,-6.0025,-2.8,-8.1375
372,233105,0.586332,-0.062464,-0.799588,-5.74,-2.4325,-8.5225
373,233201,0.5858439999999999,-0.06929600000000001,-0.799588,-5.6525,-1.365,-8.3825
374,233298,0.59048,-0.063196,-0.809836,-5.2325,-0.21,-8.0675
375,233394,0.5917,-0.063196,-0.81984,-4.1825,1.4,-7.4725
376,233490,0.580476,-0.039528,-0.812276,-2.7125,3.325,-6.5975
377,233586,0.567788,-0.03172,-0.8261841000000001,-0.35,6.0025,-5.7575
378,233683,0.54778,-0.003172,-0.85156,2.38,9.6075,-4.6375
379,233779,0.434564,0.005856,-0.9386681,9.03,18.3575,-4.655
380,233875,0.26474000000000003,-0.022692,-1.041392,17.9025,38.3075,-2.835
381,233971,0.386984,-0.11541199999999999,-0.9977159999999999,23.2925,72.3625,-0.385
382,234068,0.41113999999999995,-0.05856,-1.037488,31.6925,103.25,-1.855
383,234164,0.352092,-0.083204,-1.080432,38.43,135.7475,-7.9625
384,234260,0.335744,-0.328424,-1.053104,27.51,170.73,-23.8875
385,234356,0.428464,-0.13078399999999998,-1.079212,-7.8925,199.7975,-48.405
386,234453,0.400404,-0.415288,-1.081164,-36.12,219.205,-73.09751
387,234549,0.48556000000000005,-0.209352,-0.999668,-65.835,252.175,-83.09000999999999
388,234645,0.796172,-0.061975999999999996,-1.101172,-80.0975,297.0625,-85.92501
389,234741,1.38714,0.121512,-1.518412,-75.6,343.2975,-76.1075
390,234838,1.418128,0.183732,-1.134356,-68.3025,373.5375,-55.405
391,234934,1.992504,0.552172,-2.127436,-57.96,385.3675,-41.86
392,235030,1.342732,0.112972,-1.575752,-16.975,365.5225,-14.8925
393,235126,1.032852,0.050263999999999996,-1.9190599999999998,23.38,377.9125,2.59
394,235223,0.5038600000000001,0.053191999999999996,-2.22284,43.715,393.75,0.665
395,235319,-0.481412,0.071004,-3.030724,55.7725,388.92,-12.075
396,235415,1.420324,0.046604,-4.416156,58.0125,227.7275,-55.335
397,235511,-0.069052,-0.5011760000000001,-2.969236,62.615,13.86,-92.34751
398,235607,-0.9552601000000001,-0.609024,-1.917352,33.5125,-85.34751,-120.435
399,235704,-1.086044,-0.550952,-1.61894,11.6725,-108.3775,-122.0975
400,235800,-0.637084,-0.518988,-1.7443560000000002,18.9875,-104.0025,-99.19001
401,235896,-0.19739600000000002,-0.6109760000000001,-1.9129599999999998,40.6,-119.77,-63.245
402,235992,0.006587999999999999,-0.696376,-1.838052,53.3575,-160.9125,-28.1925
403,236089,0.057339999999999995,-0.6170760000000001,-1.6287,45.71,-208.0575,-2.59
404,236185,0.080276,-0.381372,-1.438868,28.9625,-247.415,12.7575
405,236281,0.166652,-0.142496,-1.2961280000000002,21.6125,-274.6975,21.2625
406,236377,0.25351599999999996,-0.017812,-1.190476,28.1225,-291.55,26.04
407,236474,0.409432,0.026108,-1.169736,42.1925,-299.425,27.8075
408,236570,0.6373281,0.016104,-1.196332,56.7,-303.38,28.42
409,236666,0.8364321,0.0017079999999999999,-1.222928,67.025,-309.0325,29.1725
410,236762,0.9889319999999999,0.047092,-1.20902,72.8525,-316.155,29.47
411,236859,1.0889719999999998,0.11126400000000002,-1.15534,77.42,-321.4575,28.4725
412,236955,1.169736,0.17836400000000002,-1.1065399999999999,82.88,-320.46,26.6175
413,237051,1.2639200000000002,0.21008400000000002,-1.111176,87.29,-313.005,21.8225
414,237147,1.316136,0.22082,-1.1455799999999998,90.9125,-304.3425,12.3025
415,237244,1.42008,0.173728,-1.155828,97.09000999999999,-296.66,1.3825
416,237340,1.55672,0.07978801,-1.14802,106.12,-287.945,-4.27
417,237436,1.7636319999999999,-0.053924,-1.155584,117.6,-276.92,0.1925
418,237532,1.98006,-0.233264,-1.106784,128.66,-267.295,16.7475
419,237629,2.102548,-0.447984,-0.937448,131.705,-261.8,44.9225
420,237725,2.221864,-0.612684,-0.6688041,118.3,-255.01,79.8875
421,237821,2.3197080000000003,-0.36892800000000003,-0.382592,86.11751,-243.46,116.5325
422,237917,2.256268,0.024644,-0.088328,48.4225,-223.72,151.305
423,238014,2.374852,0.138836,0.173484,20.5275,-193.9175,175.63
424,238110,2.544432,0.16811600000000002,0.373564,-16.1875,-164.01,184.3625
425,238206,2.578836,0.393572,0.576816,-58.4675,-142.2925,176.3125
426,238302,2.4851400000000003,0.665144,0.824232,-80.22,-121.8875,158.7075
427,238399,2.3663119999999997,0.8720559999999999,1.019188,-70.28,-91.9275,134.2075
428,238495,2.256756,0.9032879999999999,1.067256,-36.6625,-51.31,104.615
429,238591,2.1411,0.666852,0.975512,-2.9925,-8.8725,75.8275
430,238687,2.056676,0.35526399999999997,0.797636,7.0525,25.445,49.56
431,238784,1.0521280000000002,1.2578200000000002,1.028216,5.32,50.015,28.665
432,238880,-0.09930800000000001,0.416508,2.3006759999999997,37.6425,170.6775,38.7275
433,238976,0.24570799999999998,-1.01626,-0.8874280999999999,130.9,266.35,51.5025
434,239072,1.609668,-1.1087360000000002,-1.701656,44.5025,324.3275,-2.66
435,239168,2.401204,-0.548512,-1.3644479999999999,-47.1975,288.785,-63.2625
436,239265,2.054236,-0.7005239999999999,-1.486204,-49.175,259.7875,-13.825
437,239361,1.342488,0.45335200000000003,-1.536712,-69.825,221.7775,2.17
438,239457,1.074576,0.989908,-1.468392,-66.2025,192.9725,-10.955
439,239553,0.9120720999999999,0.9120720999999999,-1.286124,-41.965,167.7375,-27.5625
440,239650,0.945744,0.21008400000000002,-1.086288,-17.1675,144.27,-42.4375
441,239746,1.099708,-0.59292,-0.832528,-6.9475,130.41,-41.1075
442,239842,3.189568,-0.9167081,-1.672864,-27.72,115.43,-15.1025
443,239938,0.245952,0.255712,-0.6019479999999999,-80.15,30.2575,-24.64
444,240035,0.7129681,0.157136,-0.9977159999999999,-32.41,37.275,-16.765
445,240131,0.762012,-0.200568,-0.8847440999999999,-28.2975,23.765,-14.0875
446,240227,0.716384,-0.120048,-0.850096,-20.9125,20.685,-9.17
447,240323,0.677832,-0.072712,-0.8637601,-14.875,11.8475,-7.455
448,240420,0.633668,-0.125904,-0.8115439999999999,-8.26,6.9475,-5.3375
449,240516,0.6265921,-0.09028,-0.820084,-5.25,4.375,-4.3575
450,240612,0.6231760999999999,-0.093696,-0.8147161,-2.8175,1.995,-4.1475
451,240708,0.595604,-0.082228,-0.800808,-1.365,-0.3675,-4.515
452,240805,0.565104,-0.086864,-0.787876,-1.155,-2.2575,-5.2325
453,240901,0.5502199999999999,-0.08174001,-0.768844,-2.1875,-3.0975,-6.23
454,240997,0.568032,-0.07832401,-0.7861680999999999,-3.78,-3.395,-7.2625
455,241093,0.600484,-0.08466801,-0.79422,-4.55,-3.78,-7.455
456,241190,0.584868,-0.06075601,-0.8076399999999999,-4.9875,-4.2875,-7.0525
457,241286,0.570716,-0.052216,-0.8188641,-4.795,-4.41,-7.21
458,241382,0.562176,-0.09540401,-0.781532,-4.235,-4.4625,-6.72
459,241478,0.570716,-0.06661201,-0.797636,-4.55,-4.2875,-6.4925
460,241575,0.581696,-0.087108,-0.79422,-4.41,-4.2875,-6.7725
461,241671,0.5612,-0.06661201,-0.8044680999999999,-4.4975,-4.4275,-7.4375
462,241767,0.5795,-0.081252,-0.791536,-4.55,-4.34,-7.9625
463,241863,0.581208,-0.06661201,-0.796904,-4.8125,-4.7425,-8.575
464,241960,0.590724,-0.060267999999999995,-0.8047121,-4.4275,-4.375,-8.2425
465,242056,0.5858439999999999,-0.067344,-0.794708,-3.815,-4.27,-7.6475
466,242152,0.587796,-0.061,-0.800076,-3.64,-4.235,-7.5075
467,242248,0.581696,-0.060024,-0.801296,-3.5175,-4.4275,-7.49
468,242344,0.587796,-0.062952,-0.7993439999999999,-3.4125,-4.2,-7.28
469,242441,0.570716,-0.057096,-0.8039801,-3.3425,-3.99,-7.35
470,242537,0.571692,-0.057828,-0.8039801,-3.1325,-3.29,-7.28
471,242633,0.571204,-0.05929201,-0.801784,-3.045,-2.6075,-7.0875
472,242729,0.570716,-0.07027201,-0.8025161,-2.9925,-1.645,-6.9125
473,242826,0.5751081,-0.06539201,-0.7978801,-3.08,-0.8400001,-6.9125
474,242922,0.5777920999999999,-0.065148,-0.803248,-3.3775,0.0525,-7.105
475,243018,0.59292,-0.059048,-0.801296,-3.4825,0.4725,-7.1225
476,243114,0.596336,-0.061732,-0.797148,-3.2725,0.455,-6.9125
477,243211,0.5873079999999999,-0.066124,-0.7998321,-3.2025,0.0875,-7.175
478,243307,0.5941401,-0.067588,-0.7991,-2.9225,0.035,-7.2275
479,243403,0.596336,-0.05977999999999999,-0.8039801,-2.87,0.105,-7.3675
480,243499,0.591212,-0.061,-0.801296,-2.2575,0.2275,-7.0875
481,243596,0.593164,-0.048068,-0.8091041,-1.6275,1.1025,-6.895
482,243692,0.59048,-0.066124,-0.801784,-0.42,1.9775,-6.9825
483,243788,0.5926760999999999,-0.052216,-0.8044680999999999,-0.2275,3.57,-7.2275
484,243884,0.5738880000000001,-0.073688,-0.806908,0.98,5.25,-8.2775
485,243981,0.5404601,-0.023912,-0.829356,2.905,7.9975,-10.2725
486,244077,0.36892800000000003,-0.084912,-0.8769360999999999,6.3525,14.28,-10.71
487,244173,0.4148,0.000732,-0.9596520000000001,7.665,31.605,-6.7375
488,244269,0.42285200000000006,-0.028548,-0.9799041,14.3675,52.22,-2.31
489,244366,0.444324,-0.11102000000000001,-0.9774639999999999,22.2075,76.23001,-2.03
490,244462,0.43212399999999995,-0.096868,-1.017236,26.705,99.41751,-6.615
491,244558,0.396988,-0.2257,-1.0147959999999998,22.82,126.35,-16.1525
492,244654,0.46921199999999996,-0.13664,-0.9869800999999999,3.99,155.7325,-30.3975
493,244751,0.490196,-0.275964,-0.9823440999999999,-4.2525,178.3075,-49.0525
494,244847,0.47482399999999997,-0.2867,-1.01748,-26.46,193.06,-70.385
495,244943,0.525088,-0.173728,-0.9806360000000001,-55.2125,212.2925,-86.13501
496,245039,0.56608,-0.119072,-1.016748,-70.7,246.5575,-95.515
497,245136,0.800564,-0.106628,-1.0919,-78.575,295.365,-94.46500999999999
498,245232,1.517436,0.050263999999999996,-1.2900280000000002,-80.1675,333.7775,-88.725
499,245328,1.64822,-0.131272,-1.474736,-70.4375,359.555,-80.745
500,245424,1.754848,0.156892,-1.82634,-58.9575,366.8875,-76.09000999999999
501,245521,1.3834799999999998,0.027816000000000004,-1.543056,-30.485,359.0825,-61.5125
502,245617,0.98088,0.014884,-1.8463479999999999,14.7875,379.96,-51.1
503,245713,0.4514,-0.17641199999999999,-2.106452,60.8825,402.885,-55.4925
504,245809,0.521672,-0.5504641,-2.38022,81.4275,387.6425,-74.8475
505,245905,1.64822,-0.8369200000000001,-3.9698800000000003,82.1975,214.445,-86.835
506,246002,0.37502800000000003,-1.36762,-2.828448,68.32,22.2075,-78.54
507,246098,-0.649528,-1.3388280000000001,-1.798036,24.36,-77.35,-68.215
508,246194,-0.9479401,-0.9752681000000001,-1.4215440000000001,-17.7975,-105.3675,-47.6175
509,246290,-0.8276481,-0.62464,-1.4417959999999999,-24.9375,-101.3775,-17.9375
510,246387,-0.444568,-0.406992,-1.642852,2.0825,-99.995,19.565
511,246483,-0.15201199999999998,-0.396256,-1.7275200000000002,38.6575,-119.525,54.4775
512,246579,0.022936,-0.411384,-1.67872,54.88,-154.98,75.635
513,246675,0.162748,-0.31524800000000003,-1.582096,46.27,-196.665,81.9875
514,246772,0.260592,-0.09638,-1.485228,28.385,-236.3025,79.52
515,246868,0.33428,0.11345999999999999,-1.37494,21.1225,-268.7475,76.405
516,246964,0.386496,0.23668000000000003,-1.2578200000000002,27.4925,-292.285,74.06
517,247060,0.460916,0.272548,-1.167784,40.0925,-306.705,69.02
518,247157,0.6141479999999999,0.27889200000000003,-1.148996,50.96,-313.145,60.0075
519,247253,0.8344801,0.260348,-1.1509479999999999,57.12,-316.5225,48.8075
520,247349,1.011136,0.246196,-1.176324,59.675,-320.145,37.8175
521,247445,1.110688,0.2135,-1.16998,62.6675,-322.6125,28.5075
522,247542,1.2395200000000002,0.183732,-1.167784,68.215,-321.3875,21.315
523,247638,1.317844,0.121024,-1.159244,77.175,-317.5725,16.52
524,247734,1.338584,0.011468,-1.116788,87.71,-312.4625,13.4225
525,247830,1.367864,-0.14347200000000002,-1.07482,97.1775,-302.68,12.145
526,247927,1.4957200000000002,-0.27084,-1.1102,104.055,-286.8075,16.345
527,248023,1.7519200000000001,-0.387716,-1.200968,110.7225,-268.31,30.03
528,248119,2.063752,-0.48556000000000005,-1.2749,115.255,-255.2725,53.4625
529,248215,2.3363,-0.424804,-1.176812,112.14,-251.475,83.80751
530,248312,2.34118,-0.03172,-0.941108,99.5225,-252.49,116.9175
531,248408,2.174528,0.11614400000000001,-0.634644,85.69751,-247.52,141.9075
532,248504,2.164524,0.15274400000000002,-0.344528,62.37,-228.9,147.315
533,248600,2.28994,0.251076,-0.11321600000000001,29.4,-205.5725,136.92
534,248697,2.445856,0.484584,0.126392,4.1475,-185.9025,113.855
535,248793,2.574932,0.803248,0.46945600000000004,4.935,-169.6275,82.25
536,248889,2.5451639999999998,0.999668,0.9232961,34.0025,-149.87,46.3925
537,248985,2.364116,0.855708,1.399584,75.88,-116.1475,17.64
538,249082,2.18624,0.5353359999999999,1.611132,92.33001,-66.5525,-1.645
539,249178,2.137684,0.204716,1.374208,65.5375,-10.4475,-15.0675
540,249274,2.182824,-0.014152000000000001,0.8371639999999999,14.665,35.1575,-18.1825
541,249370,2.119872,-0.177876,0.38795999999999997,-32.27,59.7625,-5.88
542,249467,0.590968,-0.16958,-0.355996,-65.3975,67.2875,18.515
543,249563,-1.003816,-0.5655920999999999,1.3146719999999998,-74.235,114.17,17.0275
544,249659,-1.45302,-0.17202,0.01586,-61.11,213.22,10.465
545,249755,1.4515559999999998,-0.205936,-1.5074319999999999,-82.2325,315.5075,-26.8275
546,249852,2.929952,0.679296,-1.8873400000000002,-113.9425,331.8175,-36.05
547,249948,1.5603799999999999,0.5314321,-1.438136,-82.5475,266.8925,18.585
548,250044,1.603568,0.899384,-1.807552,-72.0825,248.8675,5.39
549,250140,1.458876,0.7937320999999999,-1.621868,-59.08,213.5875,-23.2925
550,250237,1.224148,0.406504,-1.270508,-42.455,176.19,-33.1625
551,250333,1.242936,-0.09052401,-1.165832,-25.4275,147.49,-33.635
552,250429,2.3663119999999997,-0.5267960999999999,-1.8104799999999999,-22.9425,123.9525,-25.55
553,250525,0.9906401,0.139812,-0.8300879999999999,-55.7375,74.13,-14.63
554,250622,0.805932,-0.187148,-1.066524,-62.02,22.715,-33.9675
555,250718,0.57462,0.124928,-0.823256,-37.24,30.0825,-20.615
556,250814,0.752984,-0.17812,-0.887184,-30.2225,16.485,-18.9175
557,250910,0.655628,-0.16104000000000002,-0.8039801,-25.0075,11.0425,-15.05
558,251007,0.7044279999999999,-0.050508,-0.8845,-21.8575,5.74,-13.8775
559,251103,0.611952,-0.098332,-0.828868,-14.4725,-0.5425,-11.4625
560,251199,0.62464,-0.022936,-0.823744,-9.7825,-0.5425,-8.785
561,251295,0.60634,-0.068564,-0.8247200000000001,-5.005,-1.47,-6.265
562,251392,0.5946279999999999,-0.047580000000000004,-0.7954399999999999,-1.9425,-1.995,-4.025
563,251488,0.591212,-0.11248399999999999,-0.786656,-0.665,-2.415,-3.3775
564,251584,0.6161,-0.114192,-0.8256960999999999,-0.1925,-2.8175,-3.3775
565,251680,0.58804,-0.08100801,-0.814472,0.2275,-3.0275,-3.185
566,251777,0.5997520000000001,-0.11224,-0.8049561,0.8575,-2.8875,-3.465
567,251873,0.5926760999999999,-0.058316,-0.797636,1.925,-3.3775,-3.08
568,251969,0.596092,-0.110044,-0.8076399999999999,3.78,-3.6575,-3.0625
569,252065,0.574864,-0.085156,-0.80642,5.145,-4.1125,-2.1875
570,252162,0.55632,-0.11394800000000001,-0.782752,4.9175,-3.675,-2.135
571,252258,0.558516,-0.09540401,-0.792756,4.0425,-3.5,-2.4675
572,252354,0.5673,-0.09711201,-0.792512,3.0975,-2.9925,-2.975
573,252450,0.570472,-0.094916,-0.792512,1.82,-2.6425,-3.6575
574,252547,0.572912,-0.10126,-0.7956840999999999,0.35,-2.4675,-4.7075
575,252643,0.5753520000000001,-0.09345201,-0.772748,-0.735,-2.485,-5.5825
576,252739,0.59658,-0.09540401,-0.7832399999999999,-1.54,-1.82,-6.3525
577,252835,0.5858439999999999,-0.08417999999999999,-0.8039801,-2.3275,-2.0475,-6.7375
578,252932,0.588284,-0.081496,-0.7983680000000001,-2.52,-2.2225,-7.035
579,253028,0.5826720000000001,-0.07442,-0.7998321,-2.45,-2.3975,-7.0175
580,253124,0.58682,-0.062464,-0.8010520000000001,-2.45,-2.31,-6.825
581,253220,0.556808,-0.07832401,-0.8066641,-1.7675,-2.24,-6.3
582,253317,0.5726680000000001,-0.077836,-0.8054439999999999,-0.8575,-0.8400001,-5.495
583,253413,0.58316,-0.080276,-0.8003201,-0.6825,0.07,-5.3725
584,253509,0.5914560000000001,-0.082228,-0.7895840999999999,-1.1725,-0.1225,-5.635
585,253605,0.585356,-0.071004,-0.8039801,-1.3125,-0.4725,-5.9325
586,253702,0.588284,-0.08100801,-0.7951961,-1.295,-0.8400001,-5.9325
587,253798,0.576816,-0.096624,-0.7954399999999999,-1.5925,-1.0325,-6.2825
588,253894,0.586332,-0.08759601,-0.7978801,-2.485,-0.9625,-6.7025
589,253990,0.5838920999999999,-0.09930800000000001,-0.790072,-3.22,-0.77,-6.7025
590,254087,0.5856,-0.09418401,-0.789828,-4.095,-0.9625,-7.0
591,254183,0.58316,-0.091012,-0.7881199999999999,-4.8825,-1.1025,-7.2625
592,254279,0.5885281,-0.081496,-0.8071520000000001,-5.6525,-0.7525,-7.315
593,254375,0.593896,-0.07881200000000001,-0.795928,-5.845,-0.245,-7.525
594,254472,0.5946279999999999,-0.091988,-0.785924,-5.6175,0.4025,-7.91
595,254568,0.600484,-0.077348,-0.797148,-4.8825,1.435,-7.91
596,254664,0.594384,-0.072956,-0.8052,-3.5,2.9225,-7.28
597,254760,0.571936,-0.072956,-0.8308200000000001,-0.98,5.2675,-6.3
598,254857,0.493856,0.021716,-0.930372,4.165,11.2175,-6.0375
599,254953,0.24058400000000002,-0.162992,-1.001132,16.38,26.2325,-7.7525
600,255049,0.279624,0.046848,-1.084336,18.4625,56.8925,-6.5275
601,255145,0.366244,-0.21520799999999998,-0.9969841,26.285,97.9125,-9.2575
602,255242,0.377224,-0.09613601,-1.095804,32.025,132.65,-20.3175
603,255338,0.36966,-0.35502,-1.050664,22.1375,167.5275,-38.325
604,255434,0.366244,-0.239364,-1.081652,-14.0,196.6475,-59.92
605,255530,0.4331,-0.36136399999999996,-1.1324040000000002,-43.925,216.545,-82.215
606,255627,0.5158159999999999,-0.194712,-1.059448,-72.8175,244.055,-95.1825
607,255723,0.7808001,-0.030744,-1.098732,-90.70251,288.68,-98.98001
608,255819,1.563796,0.064172,-1.611376,-84.3675,331.555,-90.37001
609,255915,1.3466360000000002,0.0244,-1.383968,-78.62751,353.955,-76.5625
610,256012,1.6862840000000001,0.135664,-2.292624,-68.6875,352.625,-68.8275
611,256108,0.9076799999999999,0.060024,-1.897344,-38.2375,323.8725,-48.755
612,256204,0.5023960999999999,-0.0549,-1.998604,4.5675,332.6225,-40.95
613,256300,-0.21862399999999999,-0.06954,-2.317756,29.89,344.7675,-47.0925
614,256397,0.51362,-0.109556,-3.040484,42.385,305.0775,-59.08
615,256493,0.9994241,-0.5511961,-3.5197,59.57,134.5225,-73.85
616,256589,-0.122976,-0.9928360999999999,-2.393396,45.465,-7.665,-83.09000999999999
617,256685,-0.638548,-0.96624,-1.628944,10.71,-73.57,-80.5525
618,256782,-0.766892,-0.8713241,-1.353956,-11.0775,-91.035,-60.025
619,256878,-0.5814520000000001,-0.738588,-1.402512,-11.445,-85.76751,-25.305
620,256974,-0.290116,-0.67832,-1.5279280000000002,1.7325,-89.6175,12.39
621,257070,-0.106628,-0.634156,-1.5318319999999999,11.0075,-112.3325,41.1425
622,257167,-0.016347999999999998,-0.509228,-1.4630239999999999,8.89,-144.0775,58.7125
623,257263,0.043432,-0.312076,-1.37006,3.1325,-175.455,68.5825
624,257359,0.156404,-0.122976,-1.316624,3.6575,-201.7575,73.92
625,257455,0.281088,-0.0061,-1.267336,11.655,-224.2625,75.35501
626,257551,0.387716,0.056608000000000006,-1.222928,22.5225,-244.4575,71.7325
627,257648,0.50142,0.075396,-1.192672,32.1475,-261.3975,63.8575
628,257744,0.6368401,0.062952,-1.1653440000000002,38.955,-274.6625,53.41
629,257840,0.7793359999999999,0.04514,-1.125572,43.295,-285.0225,42.385
630,257937,0.898652,0.017568,-1.07726,47.67,-291.9175,33.7575
631,258033,1.039928,-0.035136,-1.039196,52.64,-293.51,29.575
632,258129,1.098244,-0.096624,-1.0230920000000001,56.315,-291.5325,28.875
633,258225,1.137284,-0.1403,-1.015284,58.485,-286.3525,28.7875
634,258321,1.1263040000000002,-0.186172,-1.02236,61.0925,-279.09,31.71
635,258418,1.1660760000000001,-0.195932,-1.0797,64.82,-267.995,37.6775
636,258514,1.338584,-0.227652,-1.233908,69.4225,-254.7125,44.31
637,258610,1.521584,-0.280844,-1.349564,73.29,-246.19,47.7225
638,258706,1.669448,-0.290604,-1.309304,73.6575,-243.495,46.62
639,258803,1.8121880000000001,-0.112972,-1.155828,73.22,-240.0825,44.765
640,258899,1.98128,0.172996,-1.059692,79.6425,-230.5625,47.11
641,258995,2.1996599999999997,0.35014,-0.9208561,99.26001,-217.875,50.75
642,259091,2.38632,0.386984,-0.613904,116.935,-207.4275,52.57
643,259188,2.488068,0.336964,-0.150792,116.9525,-202.6325,47.915
644,259284,2.440488,0.406992,0.36282800000000004,93.9925,-198.6075,31.71
645,259380,2.469768,0.679296,0.72956,66.6925,-183.225,12.1975
646,259476,2.446588,0.8701040000000001,1.06628,60.725,-155.3825,6.3525
647,259572,2.3428880000000003,0.786656,1.4069040000000002,66.0625,-117.8975,15.505
648,259669,2.151348,0.626836,1.593076,45.22,-73.3775,22.5575
649,259765,1.937604,0.6034121,1.4598520000000001,-10.5875,-22.785,19.67
650,259861,1.87758,0.650016,0.9828321,-69.0375,27.1775,17.9025
651,259957,0.194712,1.502796,0.19642,-99.9425,63.1575,19.1975
652,260054,0.23253200000000002,1.7775400000000001,2.1813599999999997,-76.4575,158.305,-26.4425
653,260150,-1.515484,-0.514352,0.16348,19.355,255.465,-84.42
654,260246,3.4796839999999998,-0.73932,-2.7481720000000003,-33.3375,377.1075,-161.28
655,260342,2.9502040000000003,-0.91012,-1.3285799999999999,-85.55751,299.4075,-134.6625
656,260439,1.552816,-0.373808,-0.8801081000000001,-67.655,267.4,-31.7975
657,260535,2.1469560000000003,0.403088,-1.86904,-73.08,266.6475,-14.5075
658,260631,1.737524,0.8388721,-1.7565560000000002,-80.255,209.44,-26.95
659,260727,3.633892,0.147376,-2.8626080000000003,-66.045,157.9375,-31.3075
660,260824,0.5099600000000001,0.11955999999999999,-0.373564,-75.8625,61.4425,-19.81
661,260920,0.770308,-0.000488,-1.292468,-48.9825,17.6925,-22.2775
662,261016,0.447008,0.26156799999999997,-0.7659161,-31.15,30.45,-12.95
663,261112,0.81618,-0.1952,-0.907436,-18.4975,24.22,-12.04
664,261209,0.6756361,-0.061732,-0.86498,-15.295,15.6275,-7.6825
665,261305,0.644648,-0.005612,-0.868884,-8.47,9.94,-5.25
666,261401,0.634644,-0.044652,-0.85034,-1.6625,5.5825,-2.6425
667,261497,0.621224,-0.05636401,-0.832528,2.8175,2.625,-0.49
668,261594,0.593164,-0.066124,-0.8247200000000001,5.3025,0.945,0.665
669,261690,0.5978,-0.07173600000000001,-0.8239880999999999,7.0525,-0.42,1.015
670,261786,0.609268,-0.063928,-0.8252079999999999,8.8725,-1.3125,1.4175
671,261882,0.5997520000000001,-0.039284,-0.833992,10.675,-2.7825,1.89
672,261978,0.616588,-0.04514,-0.843508,13.02,-4.13,2.555
673,262075,0.5887720000000001,-0.08369201,-0.81618,15.1375,-5.6875,3.22
674,262171,0.56852,-0.13054000000000002,-0.79056,15.1725,-7.385,2.52
675,262267,0.5546121,-0.146156,-0.7722600000000001,13.125,-8.9075,0.5775
676,262363,0.542656,-0.17519200000000001,-0.7661600000000001,9.6425,-9.7125,-1.9775
677,262460,0.536556,-0.17738800000000002,-0.778116,5.4075,-8.9075,-4.4625
678,262556,0.5248441,-0.133224,-0.764696,1.33,-7.315,-6.0025
679,262652,0.555588,-0.121512,-0.7895840999999999,-1.82,-5.775,-7.1925
680,262748,0.534848,-0.121268,-0.776408,-3.8675,-4.97,-7.595
681,262845,0.5397281,-0.10540799999999999,-0.786412,-6.3525,-3.7275,-8.295
682,262941,0.5499761,-0.096624,-0.792756,-8.54,-2.38,-8.925
683,263037,0.561932,-0.09223200000000001,-0.793244,-9.94,-1.6625,-9.24
684,263133,0.5655920999999999,-0.091744,-0.796904,-11.0075,-1.26,-9.45
685,263230,0.5838920999999999,-0.06929600000000001,-0.8169121,-11.9,-0.7875,-9.8
686,263326,0.6021920000000001,-0.046360000000000005,-0.8369200000000001,-11.9175,-1.4525,-10.15
687,263422,0.580476,-0.042212,-0.8115439999999999,-10.36,-3.1675,-9.905
688,263518,0.587796,-0.056608000000000006,-0.814472,-9.625,-3.745,-9.345
689,263615,0.58072,-0.06636801,-0.8103239999999999,-9.6075,-4.655,-9.2225
690,263711,0.572912,-0.061,-0.813496,-9.8175,-5.2675,-9.4325
691,263807,0.5726680000000001,-0.055388,-0.821304,-10.22,-5.74,-9.8
692,263903,0.559736,-0.0549,-0.8215481,-10.0625,-6.055,-10.0625
693,263999,0.549244,-0.067832,-0.8166680000000001,-9.03,-5.8275,-10.185
694,264096,0.55998,-0.06563601,-0.807884,-7.8575,-4.305,-10.01
695,264192,0.571936,-0.064416,-0.808372,-6.685,-2.205,-9.135
696,264288,0.568764,-0.067832,-0.8047121,-5.915,-1.3475,-8.155
697,264384,0.5697399999999999,-0.058803999999999995,-0.806908,-5.5125,-0.91,-7.7875
698,264481,0.569984,-0.06563601,-0.8081281,-5.18,-0.5075,-7.4375
699,264577,0.568276,-0.079544,-0.80886,-5.25,-0.595,-7.3675
700,264673,0.57706,-0.085888,-0.8044680999999999,-6.0025,-0.9975,-8.1375
701,264769,0.575596,-0.07027201,-0.8071520000000001,-6.5625,-1.12,-8.6275
702,264866,0.580232,-0.065148,-0.8071520000000001,-6.5625,-0.665,-9.0125
703,264962,0.5785241,-0.047336,-0.8086161000000001,-6.195,0.105,-9.345
704,265058,0.576328,-0.024644,-0.8410681000000001,-4.76,1.2775,-8.995
705,265154,0.596336,-0.05856,-0.8142281,-2.4675,2.6425,-7.98
706,265251,0.582916,-0.0549,-0.8344801,-1.855,4.9525,-7.385
707,265347,0.554856,-0.02684,-0.8300879999999999,0.3325,7.21,-6.125
708,265443,0.49166000000000004,0.080764,-0.8847440999999999,4.13,11.0775,-5.8625
709,265539,0.410896,-0.051972000000000004,-0.9511120000000001,12.3725,21.2275,-5.565
710,265636,0.33623200000000003,0.045627999999999995,-1.019432,14.315,40.88,-2.275
711,265732,0.429928,-0.150792,-0.9472079999999999,20.65,72.0825,-0.63
712,265828,0.435296,-0.052948,-0.9967401,28.035,96.79251,-4.3225
713,265924,0.386496,-0.14884,-1.02724,33.6525,123.1825,-13.3525
714,266021,0.372832,-0.25790799999999997,-1.0345600000000001,21.385,151.9525,-28.6475
715,266117,0.444568,-0.196664,-1.0889719999999998,-1.225,178.43,-46.795
716,266213,0.43334399999999995,-0.434564,-1.092388,-23.2575,198.1525,-68.495
717,266309,0.496784,-0.18666,-1.0643280000000002,-57.9775,226.695,-84.4725
718,266406,0.620004,-0.01952,-1.086532,-76.30001,266.665,-93.94
719,266502,0.9293961,-0.09320801,-1.20048,-73.4825,309.47,-94.44751
720,266598,1.4905959999999998,0.040016,-1.203652,-71.365,344.75,-86.7825
721,266695,1.8221919999999998,-0.162504,-1.760216,-56.2625,363.8425,-79.695
722,266791,1.517436,-0.009272001,-1.597956,-46.165,357.0,-73.8325
723,266887,1.112884,-0.067588,-1.6875040000000001,-15.155,357.175,-63.1575
724,266983,0.8044680999999999,-0.091744,-1.904664,22.9425,378.035,-62.0375
725,267080,-0.454084,-0.45286400000000004,-2.0815639999999997,57.225,389.9525,-68.2675
726,267176,0.8549761,-0.660996,-2.905064,59.4475,332.815,-75.04
727,267272,1.260016,-1.030168,-3.4347879999999997,69.0375,156.555,-62.3175
728,267368,-0.037088,-1.371524,-2.3541119999999998,41.1425,6.51,-55.7725
729,267464,-0.594384,-1.1794959999999999,-1.6509040000000001,-1.5925,-68.6175,-41.0725
730,267561,-0.8713241,-0.908168,-1.306864,-32.7775,-92.41751,-18.06
731,267657,-0.6912520000000001,-0.620492,-1.334192,-34.895,-88.725,11.7425
732,267753,-0.34648,-0.47775200000000007,-1.4842520000000001,-13.9825,-90.30001,42.665
733,267850,-0.056608000000000006,-0.457744,-1.545008,7.945,-110.0575,64.925
734,267946,0.142984,-0.459696,-1.5098719999999999,14.0175,-144.4625,75.7225
735,268042,0.289628,-0.380396,-1.4274,3.99,-185.0275,77.84
736,268138,0.333304,-0.254736,-1.308816,-9.275,-223.4925,77.2625
737,268234,0.376736,-0.101992,-1.2073120000000002,-15.47,-253.645,78.2075
738,268331,0.477996,0.013908000000000002,-1.14314,-11.62,-274.6275,79.7475
739,268427,0.5856,0.077348,-1.106784,-2.94,-290.5875,77.42
740,268523,0.7315119999999999,0.11541199999999999,-1.097512,5.9325,-303.3975,69.9125
741,268619,0.8735200000000001,0.115656,-1.0972680000000001,12.4775,-313.4425,60.235
742,268716,0.987224,0.142252,-1.089704,16.205,-322.5775,49.4025
743,268812,1.024068,0.169336,-1.08702,20.4925,-328.685,37.835
744,268908,1.092876,0.186172,-1.1272799999999998,28.595,-328.7725,25.76
745,269005,1.2141440000000001,0.163724,-1.1733959999999999,43.085,-323.68,14.7525
746,269101,1.2627,0.121024,-1.170468,60.725,-317.73,6.4575
747,269197,1.30174,0.035624,-1.2043840000000001,79.3975,-309.0675,0.49
748,269293,1.467416,-0.07344400000000001,-1.305156,96.81,-295.5225,-1.6975
749,269390,1.6921400000000002,-0.17055599999999999,-1.3834799999999998,111.8775,-280.9975,1.8025
750,269486,1.8727,-0.24644000000000002,-1.292956,123.8475,-269.8675,11.025
751,269582,1.980304,-0.31354,-1.070184,132.16,-258.58,25.7075
752,269678,2.2079560000000003,-0.11345999999999999,-0.844484,135.7825,-240.73,46.305
753,269774,2.30458,-0.013908000000000002,-0.589504,137.27,-218.61,72.2225
754,269871,2.42048,-0.024644,-0.340868,131.95,-195.5275,92.1025
755,269967,2.529548,0.050752,-0.031964,103.355,-176.4525,100.8
756,270063,2.627636,0.26108000000000003,0.318176,60.795,-163.065,98.5075
757,270159,2.638616,0.5463161,0.7156520000000001,21.28,-151.06,89.0575
758,270256,2.515152,0.806176,1.172908,-2.8,-133.315,75.425
759,270352,2.24358,0.8720559999999999,1.5013319999999999,-8.82,-100.2925,58.7125
760,270448,1.9478520000000001,0.777384,1.4722959999999998,-6.7725,-49.07,40.04
761,270544,1.91662,0.596092,1.067012,-3.885,9.94,25.655
762,270641,1.997384,0.34477199999999997,0.532408,0.4025,53.9525,22.19
763,270737,1.934188,0.10687200000000001,0.188124,-2.6075,72.4325,26.6525
764,270833,0.332084,0.190808,-0.21374400000000002,-15.33,72.0825,31.29
765,270929,-1.594052,-0.28011199999999997,0.7659161,-63.805,131.985,12.74
766,271026,-1.544032,-0.13054000000000002,-0.166652,-55.23,203.91,-15.89
767,271122,1.7502119999999999,0.091988,-1.736304,-86.27501,308.7525,-52.605
768,271218,2.587376,0.619028,-1.7951080000000001,-89.1275,300.895,-48.055
769,271314,1.3298,0.5499761,-1.386164,-68.0225,247.5725,-7.21
770,271411,1.506456,0.695156,-1.6914080000000002,-55.475,235.025,-22.9775
771,271507,1.5020639999999998,0.5172800999999999,-1.575996,-42.9975,203.175,-41.23
772,271603,1.273192,0.295484,-1.2700200000000001,-31.4125,168.28,-42.315
773,271699,1.215608,-0.12712400000000001,-1.132892,-18.76,138.8625,-39.5675
774,271795,1.980304,-0.462136,-1.317112,-17.7975,116.725,-33.3375
775,271892,1.247328,-0.34111199999999997,-0.9267120000000001,-47.9675,79.135,-17.745
776,271988,0.594384,-0.024644,-0.9089001,-68.65250999999999,21.8575,-30.1875
777,272084,0.6756361,0.13908,-0.873764,-39.795,35.5075,-21.5775
778,272180,0.7571321,-0.19959200000000002,-0.8640040000000001,-33.7925,19.565,-20.1075
779,272277,0.676124,-0.07002799999999999,-0.823256,-28.8925,16.0825,-15.61
780,272373,0.710284,-0.044896,-0.863516,-23.38,10.535,-14.07
781,272469,0.6734399999999999,-0.0244,-0.868396,-16.52,4.4975,-11.9525
782,272565,0.667096,0.01098,-0.8522921,-9.8175,0.8225,-8.61
783,272662,0.626104,-0.040260000000000004,-0.818376,-2.7125,-1.75,-5.3375
784,272758,0.6222,-0.0488,-0.8166680000000001,1.3825,-2.275,-2.94
785,272854,0.62952,-0.05636401,-0.802272,3.5175,-2.7125,-1.715
786,272950,0.627812,-0.082472,-0.805688,5.4775,-3.7625,-1.155
787,273047,0.619028,-0.082228,-0.817156,6.58,-4.9875,-0.98
788,273143,0.589504,-0.080276,-0.7793359999999999,7.805,-5.9325,-0.945
789,273239,0.58072,-0.100772,-0.7759199999999999,8.6625,-6.9125,-1.2775
790,273335,0.587796,-0.113704,-0.79178,8.33,-7.28,-1.855
791,273432,0.604144,-0.119804,-0.807884,7.21,-6.755,-2.6425
792,273528,0.566812,-0.11736400000000001,-0.7605481,6.1775,-6.8075,-3.3425
793,273624,0.565836,-0.12980799999999998,-0.768356,4.0075,-6.6675,-4.69
794,273720,0.549732,-0.11712,-0.7564001,1.015,-5.7925,-5.635
795,273817,0.5694961,-0.10736,-0.7761640999999999,-2.975,-4.585,-7.14
796,273913,0.5702281,-0.11028800000000001,-0.76494,-6.6325,-4.0425,-8.3825
797,274009,0.582428,-0.07002799999999999,-0.781776,-9.73,-3.3075,-9.38
798,274105,0.5936520000000001,-0.082472,-0.785192,-10.7625,-2.8175,-9.7475
799,274201,0.5978,-0.060024,-0.793244,-11.1475,-2.6425,-9.695
800,274298,0.6314721,-0.028304000000000003,-0.8276481,-9.9925,-2.9225,-9.3625
801,274394,0.5978,-0.071248,-0.793244,-7.0875,-5.04,-8.3825
802,274490,0.580964,-0.06539201,-0.7883640000000001,-6.79,-5.11,-8.435
803,274586,0.568032,-0.07198,-0.7890961,-6.8075,-4.7075,-8.5925
804,274683,0.553392,-0.056608000000000006,-0.801296,-7.035,-3.8325,-8.7675
805,274779,0.5690081,-0.057828,-0.805932,-6.8075,-2.31,-9.03
806,274875,0.592188,-0.057584,-0.793976,-5.775,-1.26,-8.7325
807,274971,0.5887720000000001,-0.063928,-0.79666,-5.3025,0.14,-7.56
808,275068,0.5843801,-0.063928,-0.7944641,-5.635,0.49,-7.4025
809,275164,0.582428,-0.07515201,-0.792024,-6.0375,0.7175,-7.6125
810,275260,0.5914560000000001,-0.0793,-0.7956840999999999,-6.8425,1.2075,-8.4175
811,275357,0.607804,-0.06929600000000001,-0.7978801,-7.84,1.19,-9.24
812,275453,0.61122,-0.05977999999999999,-0.806908,-8.0325,0.5425,-9.52
813,275549,0.6095119999999999,-0.053924,-0.7951961,-7.4725,-0.49,-9.5725
814,275645,0.604876,-0.026595999999999998,-0.801784,-6.5975,-0.98,-9.24
815,275742,0.599264,-0.0488,-0.796416,-5.0225,-0.175,-8.1725
816,275838,0.6021920000000001,-0.034404000000000004,-0.803492,-3.745,0.9625,-7.2625
817,275934,0.5968241,-0.0427,-0.803248,-2.415,2.695,-5.7925
818,276030,0.5975560000000001,-0.055144000000000006,-0.8244761,-0.8400001,4.97,-4.6725
819,276127,0.5777920999999999,-0.047580000000000004,-0.8281360999999999,0.455,7.455,-4.41
820,276223,0.5353359999999999,-0.007076001,-0.8552200000000001,2.5025,10.64,-4.865
821,276319,0.468236,0.0244,-0.9150001,8.3825,18.5325,-7.1225
822,276415,0.18422,-0.14274,-0.978196,17.7975,35.6475,-7.6125
823,276512,0.428708,-0.099552,-0.9779521000000001,19.495,68.845,-6.09
824,276608,0.49727200000000005,-0.036112,-0.9799041,28.84,96.04,-7.4725
825,276704,0.43334399999999995,-0.10004,-1.016748,36.9075,121.4325,-11.4625
826,276800,0.3782,-0.253272,-1.034804,31.7275,149.975,-23.9925
827,276897,0.43651599999999996,-0.139812,-1.095316,5.6875,180.6,-40.7575
828,276993,0.430904,-0.400404,-1.093852,-15.925,204.33,-61.635
829,277089,0.47506800000000005,-0.274256,-1.0565200000000001,-54.425,226.0475,-83.2475
830,277185,0.654896,-0.07393200000000001,-1.049444,-76.72,260.1375,-93.8175
831,277282,1.010404,-0.19397999999999999,-1.2526959999999998,-80.745,303.45,-97.7725
832,277378,1.603812,-0.030744,-1.291736,-85.1725,335.4575,-92.71500999999999
833,277474,1.79584,-0.127368,-1.719956,-75.5475,346.8675,-87.60501
834,277570,1.36762,-0.06588,-1.952732,-67.76,331.765,-82.6875
835,277667,0.686372,-0.06539201,-1.873188,-20.7025,320.2325,-65.7125
836,277763,0.08954801,-0.160796,-1.9712759999999998,25.3925,332.535,-65.73
837,277859,-0.6202479999999999,-0.503128,-2.4973400000000003,50.2075,331.1,-72.66
838,277955,1.056764,-0.7129681,-3.454796,51.4325,233.6075,-74.62
839,278052,0.5897479999999999,-1.1346,-3.058052,50.4875,70.8575,-63.1925
840,278148,-0.31012399999999996,-1.1690040000000002,-2.177212,15.015,-49.91,-57.0325
841,278244,-0.716384,-0.897432,-1.630164,-22.54,-109.935,-42.91
842,278340,-0.8378960999999999,-0.647332,-1.34322,-36.33,-131.285,-24.9025
843,278437,-0.65514,-0.467016,-1.324432,-25.655,-132.8425,-4.795
844,278533,-0.353068,-0.393816,-1.40178,-2.31,-136.1325,14.8575
845,278629,-0.023180000000000003,-0.396744,-1.48108,18.0775,-150.99,30.17
846,278725,0.23546,-0.4148,-1.475468,25.585,-178.955,38.955
847,278822,0.366732,-0.37942,-1.402512,21.1575,-213.57,42.875
848,278918,0.450668,-0.29768,-1.303448,14.7525,-244.65,46.62
849,279014,0.543144,-0.21447600000000003,-1.2078,13.72,-267.1375,53.025
850,279110,0.6326921,-0.145424,-1.140944,18.6375,-282.065,60.55
851,279206,0.7473721,-0.112972,-1.107516,26.075,-290.22,67.0075
852,279303,0.8849879999999999,-0.114924,-1.077016,31.6925,-294.0525,70.8925
853,279399,0.9916161,-0.111508,-1.0584719999999999,32.41,-295.155,71.85501
854,279495,1.053836,-0.07710399999999999,-1.051152,30.8175,-293.7025,70.42
855,279591,1.098976,-0.031232,-1.0760399999999999,30.45,-288.365,66.36
856,279688,1.17364,-0.026108,-1.077992,35.7175,-279.895,60.4975
857,279784,1.2197559999999998,-0.049776,-1.112884,44.1175,-270.7425,55.545
858,279880,1.3237,-0.082716,-1.210728,52.675,-261.1175,51.695
859,279976,1.453508,-0.121268,-1.3146719999999998,61.32,-254.6425,50.4
860,280073,1.5462280000000002,-0.187392,-1.330044,70.175,-252.875,51.555
861,280169,1.5738,-0.24497600000000003,-1.22,77.595,-251.02,53.725
862,280265,1.592344,-0.239852,-1.053592,83.96500999999999,-243.25,56.595
863,280361,1.707512,-0.012688,-0.8549761,92.0675,-226.59,62.16
864,280458,1.82634,0.15982000000000002,-0.7137001000000001,107.275,-204.1725,69.475
865,280554,2.095716,0.26474000000000003,-0.5751081,128.3275,-179.5675,72.87
866,280650,2.43146,0.301584,-0.366732,141.155,-160.9825,72.135
867,280746,2.70962,0.31451599999999996,0.026351999999999997,137.34,-155.82,62.055
868,280843,2.6659439999999996,0.47823999999999994,0.5997520000000001,112.735,-158.34,38.4825
869,280939,2.4573240000000003,0.745664,1.176568,85.505,-148.2425,7.945
870,281035,2.2484599999999997,0.830576,1.528416,75.5125,-111.335,-17.3075
871,281131,2.1469560000000003,0.665876,1.485472,77.5075,-54.2325,-31.6925
872,281228,2.180872,0.434808,1.120204,70.8225,0.8925,-39.725
873,281324,2.163792,0.2074,0.6822239999999999,51.5025,35.91,-43.085
874,281420,2.000068,0.081984,0.36087600000000003,24.255,51.6075,-37.1525
875,281516,0.758108,-0.64904,0.44822799999999996,0.5425,55.23,-22.225
876,281613,-0.645868,-0.122732,1.257576,-149.73,110.8625,-17.675
877,281709,-1.426424,1.254648,-0.110776,-169.9775,174.195,-39.9175
878,281805,0.9777081,0.834724,-1.7997439999999998,-126.0,291.55,-2.9575
879,281901,2.7589080000000004,1.524512,-1.943216,-99.4875,325.815,-4.1475
880,281998,1.503284,1.2219520000000001,-1.601372,-69.44,265.0025,-0.49
881,282094,1.619916,0.686616,-1.7951080000000001,-47.46,234.6925,-29.2075
882,282190,1.612596,0.203008,-1.5342719999999999,-32.4275,197.68,-44.73
883,282286,1.464732,-0.193248,-1.125572,-28.175,161.385,-33.355
884,282383,3.046096,-0.5975560000000001,-2.3555759999999997,-29.365,136.2375,-22.0325
885,282479,0.490928,0.016592,-0.384544,-65.3975,60.2875,-15.785
886,282575,0.750788,-0.023668,-1.199992,-53.2875,25.8125,-26.0225
887,282671,0.651968,0.047092,-0.826916,-39.1475,28.7525,-21.6125
888,282768,0.76494,-0.19764,-0.8735200000000001,-26.88,19.2675,-18.375
889,282864,0.635376,-0.111996,-0.822524,-24.1675,10.4825,-14.42
890,282960,0.647332,-0.07198,-0.8410681000000001,-21.5425,7.2975,-13.615
891,283056,0.625616,-0.083204,-0.8188641,-19.145,3.1675,-13.2125
892,283153,0.639524,-0.0427,-0.8483879999999999,-17.2375,1.6625,-11.8125
893,283249,0.630984,-0.041236,-0.8439959999999999,-13.755,-0.2625,-9.905
894,283345,0.611464,-0.041724000000000004,-0.826672,-9.6075,-1.225,-7.245
895,283441,0.604144,-0.09052401,-0.7893399999999999,-5.8975,-2.3275,-5.25
896,283538,0.60878,-0.086132,-0.792024,-4.76,-2.625,-4.3925
897,283634,0.612928,-0.112728,-0.80886,-3.955,-3.4825,-4.69
898,283730,0.5887720000000001,-0.092964,-0.793244,-3.465,-4.55,-5.18
899,283826,0.5936520000000001,-0.107116,-0.787144,-3.0275,-5.3025,-6.2125
900,283923,0.5897479999999999,-0.086864,-0.793976,-2.7825,-6.0725,-6.79
901,284019,0.5926760999999999,-0.126148,-0.8091041,-2.765,-6.1775,-7.4725
902,284115,0.5663239999999999,-0.074664,-0.8003201,-2.8175,-5.6875,-7.105
903,284211,0.563396,-0.07417601,-0.789828,-2.7825,-4.515,-6.9125
904,284308,0.5694961,-0.069784,-0.797392,-2.3275,-3.745,-6.3175
905,284404,0.567056,-0.072956,-0.793976,-2.1875,-2.8525,-5.985
906,284500,0.579256,-0.07246799999999999,-0.797392,-2.2575,-2.1175,-5.915
907,284596,0.5799880000000001,-0.069784,-0.800076,-2.8175,-2.135,-6.2825
908,284693,0.5797441,-0.07417601,-0.792756,-3.0975,-2.66,-6.8425
909,284789,0.5738880000000001,-0.08881599,-0.74664,-3.78,-2.2225,-7.3675
910,284885,0.6021920000000001,-0.06490399999999999,-0.788852,-4.5675,0.175,-6.9125
911,284981,0.593896,-0.062952,-0.7956840999999999,-4.55,-1.1025,-7.4025
912,285078,0.5948720000000001,-0.06466001,-0.796904,-4.76,-1.785,-7.84
913,285174,0.585112,-0.059536,-0.797148,-5.005,-2.66,-8.1025
914,285270,0.58194,-0.05002,-0.8015399999999999,-4.76,-2.625,-7.8575
915,285366,0.5738880000000001,-0.053436000000000004,-0.7986121,-4.4625,-2.2575,-7.5425
916,285463,0.579256,-0.061732,-0.793488,-4.13,-1.54,-7.175
917,285559,0.5738880000000001,-0.069052,-0.795928,-4.0075,-0.7175,-6.9475
918,285655,0.58804,-0.06344,-0.792024,-4.305,0.2625,-7.14
919,285751,0.5914560000000001,-0.07588400000000001,-0.786412,-4.6025,0.56,-7.595
920,285848,0.5934081,-0.061488,-0.806176,-5.0925,0.6475,-7.84
921,285944,0.589504,-0.056608000000000006,-0.807396,-4.865,1.0325,-7.63
922,286040,0.6021920000000001,-0.05563200000000001,-0.8081281,-4.55,1.2425,-7.6825
923,286136,0.5885281,-0.057096,-0.812032,-3.675,0.9975,-7.5075
924,286233,0.6007279999999999,-0.075396,-0.789828,-2.73,1.9425,-7.0175
925,286329,0.604388,-0.06929600000000001,-0.81984,-2.31,4.1825,-6.7025
926,286425,0.593896,-0.051972000000000004,-0.8076399999999999,-1.155,6.3175,-6.335
927,286521,0.586088,-0.031232,-0.8100801,0.7175,8.5225,-5.985
928,286617,0.547048,-0.052948,-0.819108,5.11,10.885,-7.8575
929,286714,0.33623200000000003,-0.074664,-0.9018241,11.48,17.3075,-9.4325
930,286810,0.376736,0.082472,-1.024068,15.3475,37.975,-4.06
931,286906,0.413092,-0.056608000000000006,-0.9886881,25.4975,66.36,2.6775
932,287002,0.443592,-0.08052000000000001,-0.9777081,35.9275,94.01,2.275
933,287099,0.4023561,-0.181536,-1.024068,42.525,120.435,-5.565
934,287195,0.385276,-0.379176,-1.078968,28.98,150.7625,-22.2075
935,287291,0.41382399999999997,-0.203252,-1.130452,-2.7475,182.315,-43.5225
936,287387,0.43676000000000004,-0.484828,-1.104344,-27.37,206.22,-68.565
937,287484,0.483364,-0.272548,-1.0182120000000001,-65.625,228.1825,-93.205
938,287580,0.636108,-0.13078399999999998,-1.11996,-87.5525,264.5475,-105.9975
939,287676,1.074332,-0.13785999999999998,-1.2761200000000001,-90.615,308.315,-111.1775
940,287772,1.5262200000000001,-0.01342,-1.207068,-90.49251,338.1875,-107.31
941,287869,1.758264,-0.22106399999999998,-1.7565560000000002,-72.24,347.69,-100.065
942,287965,1.326384,-0.01098,-1.974936,-63.8925,328.3875,-95.06
943,288061,0.71126,-0.032451999999999995,-1.874896,-13.4225,316.4,-81.69001
944,288157,0.142984,-0.143228,-1.950292,39.3225,322.875,-81.67251
945,288254,-0.465796,-0.460916,-2.505636,69.37,314.58,-90.3875
946,288350,1.211216,-0.6917399999999999,-3.473096,80.1675,205.8875,-94.78
947,288446,0.41260399999999997,-1.330288,-2.7303599999999997,90.35251,44.765,-80.36
948,288542,-0.356484,-1.39202,-1.843664,49.56,-54.7575,-71.47
949,288639,-0.6380600000000001,-1.062376,-1.443016,1.54,-99.7325,-51.975
950,288735,-0.615124,-0.6956439999999999,-1.349808,-17.605,-112.035,-26.7575
951,288831,-0.43358800000000003,-0.44334799999999996,-1.396656,-0.1575,-116.06,4.795
952,288927,-0.231068,-0.369904,-1.408124,34.405,-128.415,33.565
953,289024,-0.10126,-0.34867600000000004,-1.355664,59.4825,-149.415,51.835
954,289120,0.034404000000000004,-0.244488,-1.2878319999999999,65.7825,-174.9475,58.5725
955,289216,0.12053599999999999,-0.07027201,-1.2317120000000001,63.3675,-200.4275,58.5025
956,289312,0.242292,0.122976,-1.19438,64.925,-221.62,56.0
957,289409,0.35087199999999996,0.24570799999999998,-1.155584,75.8275,-237.79,53.1125
958,289505,0.45335200000000003,0.30182800000000004,-1.128256,91.9625,-249.1825,49.5075
959,289601,0.5856,0.329156,-1.125328,106.4875,-256.585,44.6425
960,289697,0.751276,0.350628,-1.140456,116.9875,-262.1325,38.2025
961,289794,0.889624,0.340624,-1.1651,123.025,-266.8225,31.15
962,289890,1.018456,0.311344,-1.190964,125.3175,-270.585,21.9625
963,289986,1.148752,0.28914,-1.2139,125.93,-273.6125,11.1825
964,290082,1.20902,0.24326799999999998,-1.20048,126.3675,-274.8375,0.5425
965,290179,1.2251239999999999,0.2196,-1.180228,129.4475,-273.5775,-5.8625
966,290275,1.2963719999999999,0.14469200000000002,-1.1746159999999999,136.5175,-268.205,-7.8575
967,290371,1.4186159999999999,0.027816000000000004,-1.160708,145.32,-258.335,-3.815
968,290467,1.517192,-0.100284,-1.10166,150.6225,-245.7875,7.6825
969,290564,1.59576,-0.20374,-0.9999121,148.365,-231.5425,24.885
970,290660,1.8012080000000001,-0.141764,-0.9589200999999999,137.865,-214.4625,45.71
971,290756,2.038864,0.23424,-0.989664,126.945,-197.085,71.5575
972,290852,2.1591560000000003,0.343064,-0.8327720999999999,125.1075,-186.7775,96.95
973,290948,2.1118200000000003,0.332816,-0.509472,108.6925,-181.8425,110.3375
974,291045,2.043256,0.42431599999999997,-0.100284,65.205,-175.35,109.025
975,291141,1.9883560000000002,0.6380600000000001,0.235704,11.305,-161.7,96.4775
976,291237,2.0220279999999997,0.823256,0.46433199999999997,-25.8125,-140.875,77.91
977,291333,2.047892,0.9882001,0.625128,-36.0325,-117.075,55.09
978,291430,1.956148,1.057984,0.81374,-22.26,-90.1775,30.9225
979,291526,1.784128,0.9874681000000001,0.8918200000000001,2.17,-55.7025,7.49
980,291622,1.7216639999999999,0.8281360999999999,0.7478600000000001,21.84,-14.5425,-12.4075
981,291718,1.7570439999999998,0.620004,0.443104,27.23,18.935,-26.81
982,291815,1.648952,0.387716,0.133956,19.0225,36.4525,-34.615
983,291911,1.378844,-0.030744,0.64294,-12.5125,56.84,-49.6825
984,292007,-0.054412,0.220088,1.241472,-101.5525,140.735,-84.8925
985,292103,-0.07881200000000001,-0.27694,-0.45871999999999996,-75.7225,189.735,-111.685
986,292200,1.887584,-0.8427761,-1.863184,-74.655,259.665,-79.5025
987,292296,2.1347560000000003,-0.213256,-1.392508,-87.1675,253.12,-30.975
988,292392,1.405928,0.568276,-1.243668,-87.88501,226.24,6.0375
989,292488,1.3542,0.692716,-1.62016,-79.38,204.715,1.155
990,292585,1.1570479999999999,0.693448,-1.39446,-70.9975,172.1825,-17.7975
991,292681,1.099464,0.41358,-1.218292,-51.3975,148.4875,-19.9325
992,292777,3.182492,-0.27328,-2.5756639999999997,-39.795,131.53,-14.28
993,292873,0.284992,-0.056608000000000006,-0.17641199999999999,-68.25,54.1625,-16.17
994,292970,0.81618,-0.25132,-1.194624,-48.4925,27.58,-27.8775
995,293066,0.576572,0.208132,-0.8344801,-48.545,30.205,-22.925
996,293162,0.83936,-0.172508,-0.9354959999999999,-34.16,20.5625,-20.3525
997,293258,0.6663640000000001,-0.075396,-0.8476561,-27.3,8.4525,-15.015
998,293354,0.6265921,-0.09418401,-0.829356,-20.37,2.205,-12.32
999,293451,0.6314721,-0.082716,-0.8271601000000001,-16.5375,0.0875,-11.13
1000,293547,0.604388,-0.06270801,-0.8188641,-12.6175,-0.7875,-8.9425
1001,293643,0.5936520000000001,-0.07002799999999999,-0.81374,-9.205,-1.2425,-6.9825
1002,293739,0.6097560000000001,-0.061732,-0.8166680000000001,-6.51,-0.8400001,-5.6875
1003,293836,0.5975560000000001,-0.07832401,-0.8066641,-4.1825,-1.3825,-4.2875
1004,293932,0.5978,-0.10492,-0.796416,-2.4675,-1.995,-3.605
1005,294028,0.59292,-0.09540401,-0.806176,-2.0125,-2.2575,-3.745
1006,294124,0.589504,-0.094916,-0.8049561,-1.8025,-3.045,-4.4625
1007,294221,0.582428,-0.091988,-0.79666,-1.82,-3.7625,-5.32
1008,294317,0.584136,-0.08442401,-0.7944641,-2.0825,-4.4975,-6.0725
1009,294413,0.5785241,-0.08564401,-0.793488,-2.24,-4.8475,-6.7375
1010,294509,0.575596,-0.08369201,-0.798124,-2.7125,-4.725,-6.965
1011,294606,0.592188,-0.059536,-0.8054439999999999,-2.87,-4.27,-6.4925
1012,294702,0.585112,-0.064172,-0.7956840999999999,-2.0125,-3.885,-5.9675
1013,294798,0.582916,-0.06588,-0.795928,-1.75,-3.3075,-5.355
1014,294894,0.580232,-0.0793,-0.794708,-1.5225,-3.29,-5.0925
1015,294991,0.5743761,-0.07808001,-0.797636,-1.68,-3.36,-5.11
1016,295087,0.5846241,-0.080276,-0.792512,-1.8025,-3.045,-5.3725
1017,295183,0.5814520000000001,-0.07417601,-0.797636,-2.1,-2.73,-5.46
1018,295279,0.57096,-0.07490801,-0.7937320999999999,-2.345,-2.6075,-5.4075
1019,295376,0.575596,-0.063684,-0.796416,-2.5025,-1.8025,-5.215
1020,295472,0.584136,-0.069052,-0.796172,-2.485,-1.4,-5.5125
1021,295568,0.584868,-0.049532,-0.80642,-2.5375,-1.3475,-5.565
1022,295664,0.588284,-0.06466001,-0.8015399999999999,-2.0125,-1.6625,-5.5475
1023,295760,0.582184,-0.065148,-0.805932,-1.6975,-2.1525,-5.425
1024,295857,0.590968,-0.05636401,-0.798856,-1.9075,-2.45,-5.5125
1025,295953,0.5875520000000001,-0.061488,-0.8020281,-1.785,-2.52,-5.6
1026,296049,0.590724,-0.061488,-0.8015399999999999,-1.785,-2.8,-5.775
1027,296145,0.593896,-0.067832,-0.796416,-1.855,-2.905,-6.055
1028,296242,0.5958479999999999,-0.07881200000000001,-0.797636,-1.9775,-3.2025,-6.195
1029,296338,0.5968241,-0.062220000000000004,-0.7929999999999999,-2.275,-3.5,-6.475
1030,296434,0.5873079999999999,-0.07637200000000001,-0.8015399999999999,-2.205,-3.815,-6.2475
1031,296530,0.582428,-0.05856,-0.7922680000000001,-2.6075,-3.955,-6.51
1032,296627,0.5797441,-0.06588,-0.7991,-2.6075,-3.9375,-6.965
1033,296723,0.5941401,-0.038551999999999996,-0.800808,-2.415,-3.395,-7.21
1034,296819,0.599508,-0.0488,-0.801784,-1.89,-2.66,-6.7725
1035,296916,0.60024,-0.05856,-0.793488,-0.805,-1.75,-6.37
1036,297012,0.590724,-0.046360000000000005,-0.8095920999999999,0.28,-0.56,-6.0025
1037,297108,0.5914560000000001,-0.072956,-0.797148,1.61,0.9275,-5.8275
1038,297204,0.586088,-0.08954801,-0.8054439999999999,2.975,2.3275,-6.58
1039,297301,0.55998,-0.07710399999999999,-0.823744,4.9,4.55,-7.84
1040,297397,0.373564,-0.242536,-0.9113399999999999,10.955,9.38,-14.105
1041,297493,0.449204,0.067832,-0.9418401,15.645,23.7475,-20.7025
1042,297589,0.35672800000000005,0.053191999999999996,-0.9208561,27.055,46.795,-25.6375
1043,297686,0.47067600000000004,-0.138104,-0.9254921,56.8925,73.71,-46.8475
1044,297782,0.499712,-0.214964,-1.009672,73.4125,98.56,-71.0325
1045,297878,0.46116,-0.310368,-0.9977159999999999,63.105,125.16,-92.575
1046,297974,0.532408,-0.18104800000000001,-1.048224,42.595,152.425,-107.3275
1047,298071,0.48433999999999994,-0.101748,-1.02968,32.2175,170.94,-123.3225
1048,298167,0.44408000000000003,-0.22423600000000002,-1.094584,19.5475,188.475,-138.0925
1049,298263,0.48263199999999995,-0.44505600000000006,-1.023824,-2.66,210.42,-151.095
1050,298359,0.706624,-0.267424,-1.1033680000000001,-38.5525,241.7625,-155.0675
1051,298456,1.38836,0.027327999999999998,-1.5323200000000001,-51.765,277.83,-149.03
1052,298552,1.4396,-0.471164,-1.705804,-25.6025,300.16,-136.9375
1053,298648,0.8657120999999999,-0.386984,-2.162572,-5.39,291.025,-129.0625
1054,298744,0.534604,-0.171532,-2.1413439999999997,5.39,251.2475,-124.7925
1055,298841,-0.194224,-0.312076,-1.979572,41.6325,229.32,-127.47
1056,298937,-0.399916,-0.589504,-2.28384,69.2125,211.12,-128.7125
1057,299033,0.40138,-0.899384,-2.664968,93.415,127.1375,-114.1875
1058,299129,-0.24107199999999998,-1.266848,-2.054236,108.7625,21.0175,-90.3875
1059,299226,-0.5607121,-1.087996,-1.538664,90.28251,-37.975,-68.285
1060,299322,-0.503616,-0.664168,-1.45302,76.265,-64.9075,-42.315
1061,299418,-0.371368,-0.36966,-1.4579,92.575,-83.23001,-13.23
1062,299514,-0.26718000000000003,-0.233752,-1.44448,123.8475,-103.7925,12.145
1063,299611,-0.165432,-0.081496,-1.4191040000000001,144.1475,-126.595,26.53
1064,299707,-0.080276,0.17568,-1.395924,150.01,-151.06,29.3125
1065,299803,-0.025863999999999998,0.4636,-1.341756,152.6,-173.2325,22.365
1066,299899,0.046604,0.7259001,-1.2932,157.6225,-188.9825,5.8275
1067,299996,0.180804,0.9059721,-1.2902719999999999,167.545,-198.835,-17.78
1068,300092,0.37746799999999997,0.9889319999999999,-1.334924,181.3875,-206.0275,-43.4525
1069,300188,0.5575399999999999,0.9947881,-1.362496,196.63,-215.0575,-67.2
1070,300284,0.6897880999999999,0.9494040000000001,-1.315404,210.4375,-225.75,-86.0825
1071,300381,0.8222799999999999,0.9113399999999999,-1.251232,219.9575,-233.555,-99.2075
1072,300477,0.945256,0.845216,-1.2104840000000001,225.68,-235.69,-104.685
1073,300573,1.024068,0.769088,-1.1892559999999999,225.82,-234.1325,-103.5475
1074,300669,1.056276,0.743712,-1.179008,220.5175,-231.0,-100.765
1075,300766,1.137528,0.746152,-1.1794959999999999,215.145,-225.8375,-98.14
1076,300862,1.202676,0.714432,-1.124352,214.6725,-218.925,-93.8525
1077,300958,1.26148,0.662948,-0.9940559999999999,216.265,-209.51,-86.8
1078,301054,1.336632,0.60634,-0.7812880999999999,215.6525,-195.265,-75.9325
1079,301151,1.343464,0.645868,-0.598288,209.3,-175.5425,-58.31
1080,301247,1.392264,0.9547720999999999,-0.648552,195.0025,-149.1,-33.25
1081,301343,1.492304,1.044564,-0.71614,177.3975,-128.73,-15.61
1082,301439,1.5738,1.071892,-0.681492,146.9825,-123.27,-12.075
1083,301536,1.542568,1.147532,-0.438956,105.805,-126.56,-19.5125
1084,301632,1.42252,1.209508,-0.090768,68.4425,-125.4925,-31.955
1085,301728,1.436672,1.1709559999999999,0.149084,43.5225,-110.6525,-45.64
1086,301824,1.543544,1.0723799999999999,0.276452,30.0475,-87.3075,-60.7425
1087,301921,1.599664,0.9506241,0.379176,27.2475,-63.2275,-74.76
1088,302017,1.550864,0.7822640000000001,0.462868,31.815,-39.7775,-82.775
1089,302113,1.539884,0.614636,0.423584,34.055,-15.12,-83.94751
1090,302209,1.50304,0.537532,0.302316,27.125,5.2675,-79.6425
1091,302306,1.377624,0.492148,0.195444,13.195,18.4975,-70.945
1092,302402,0.5978,0.023912,0.618784,-4.4275,26.11,-64.785
1093,302498,-0.016347999999999998,0.444812,0.256444,-88.4275,71.2775,-116.305
1094,302594,0.20788800000000002,-1.005524,-1.438624,-82.915,84.5775,-151.2
1095,302691,0.236192,-1.159244,-0.695156,-116.6725,88.44501,-184.0825
1096,302787,2.04228,-0.7232161,-1.356152,-84.8925,167.1075,-92.365
1097,302883,1.9459,0.279136,-1.599176,-72.6775,166.1975,9.9225
1098,302979,0.787144,0.823744,-1.220244,-87.36,106.855,3.7275
1099,303076,0.49751599999999996,0.647332,-1.067744,-69.895,90.51001,-4.305
1100,303172,0.6229319999999999,0.5653481,-0.9777081,-47.67,93.275,-6.1425
1101,303268,2.223084,-0.0671,-1.911984,-27.8075,96.075,-6.545
1102,303364,0.5185,-0.159332,-0.46335600000000005,-35.77,52.6575,-6.1425
1103,303460,0.7390760000000001,0.204228,-1.19194,-36.8725,19.32,-14.1225
1104,303557,0.524112,0.26108000000000003,-0.849852,-25.095,24.605,-11.41
1105,303653,0.797392,-0.166652,-0.9228081,-13.4925,13.7025,-11.165
1106,303749,0.620492,-0.08662001,-0.797636,-13.3875,7.9625,-7.8925
1107,303845,0.633424,-0.10394400000000001,-0.8193521,-11.9875,2.555,-8.3475
1108,303942,0.6222,-0.112728,-0.813496,-12.215,-0.1925,-8.6975
1109,304038,0.616588,-0.10052799999999999,-0.8081281,-12.845,-2.3975,-9.52
1110,304134,0.620004,-0.0793,-0.8188641,-12.5125,-4.1475,-10.01
1111,304230,0.61,-0.05929201,-0.813008,-10.7975,-5.8275,-9.8875
1112,304327,0.5941401,-0.061975999999999996,-0.8108121,-8.7675,-7.0175,-8.995
1113,304423,0.6039,-0.062220000000000004,-0.800076,-7.3325,-7.2975,-8.4525
1114,304519,0.585356,-0.050752,-0.8010520000000001,-5.9675,-7.77,-7.735
1115,304615,0.571204,-0.055388,-0.8071520000000001,-4.3575,-7.77,-7.105
1116,304712,0.571204,-0.0427,-0.805688,-3.395,-6.93,-6.4575
1117,304808,0.579256,-0.032451999999999995,-0.8049561,-2.415,-5.5825,-5.8275
1118,304904,0.57828,-0.07198,-0.796904,-1.435,-5.075,-5.25
1119,305000,0.5838920999999999,-0.06832001,-0.79666,-1.505,-4.7425,-5.4075
1120,305097,0.5799880000000001,-0.07686,-0.793976,-1.505,-4.8825,-5.7575
1121,305193,0.57706,-0.064172,-0.7956840999999999,-1.68,-5.005,-6.055
1122,305289,0.580232,-0.06954,-0.798124,-1.54,-4.8475,-6.3525
1123,305385,0.580232,-0.067344,-0.7978801,-1.6275,-4.6375,-6.6325
1124,305482,0.5738880000000001,-0.07393200000000001,-0.8044680999999999,-1.925,-4.48,-6.755
1125,305578,0.583404,-0.057584,-0.8020281,-2.1525,-3.64,-7.2625
1126,305674,0.5785241,-0.055144000000000006,-0.7986121,-2.38,-3.5,-7.49
1127,305770,0.5873079999999999,-0.057584,-0.797392,-2.485,-3.57,-7.805
1128,305867,0.5914560000000001,-0.063928,-0.792024,-2.6075,-3.6225,-7.7525
1129,305963,0.5856,-0.040748,-0.8049561,-2.8,-3.1675,-7.91
1130,306059,0.57462,-0.039772,-0.8066641,-2.0125,-2.8175,-7.035
1131,306155,0.5751081,-0.05246,-0.799588,-1.645,-1.7325,-6.2125
1132,306252,0.59658,-0.032695999999999996,-0.786412,-1.82,-0.945,-5.8275
1133,306348,0.587796,-0.056608000000000006,-0.794708,-1.7675,-1.2775,-5.81
1134,306444,0.58072,-0.06075601,-0.8039801,-1.4875,-2.1,-5.985
1135,306541,0.587796,-0.061,-0.7951961,-1.9775,-2.2925,-6.615
1136,306637,0.58804,-0.07978801,-0.798856,-2.5375,-1.9075,-7.0175
1137,306733,0.601216,-0.070516,-0.796416,-3.185,-1.8375,-7.6825
1138,306829,0.602436,-0.040504000000000005,-0.7956840999999999,-3.6225,-1.89,-8.225
1139,306926,0.6141479999999999,-0.054167999999999994,-0.788608,-3.395,-2.24,-8.365
1140,307022,0.5919439999999999,-0.036844,-0.8149601,-3.0975,-2.625,-9.0125
1141,307118,0.5663239999999999,-0.033428,-0.8601,-1.5575,-2.38,-9.7475
1142,307214,0.538752,-0.025863999999999998,-0.820572,1.4875,-1.0325,-9.975
1143,307311,0.49849209999999994,0.016347999999999998,-0.82594,6.0375,2.0825,-10.3425
1144,307407,0.544852,0.080764,-0.844484,13.2475,5.46,-14.1225
1145,307503,0.575596,-0.023424,-0.798124,21.9625,10.08,-21.1925
1146,307599,0.547292,-0.018788,-0.8476561,40.39,17.535,-38.6575
1147,307696,0.30402399999999996,0.012688,-0.97356,64.155,32.55,-60.6725
1148,307792,0.305,-0.098332,-1.037,94.6925,69.4225,-82.2675
1149,307888,0.44944799999999996,-0.443592,-0.987224,121.7825,101.7275,-109.5325
1150,307984,0.58072,-0.25132,-0.987224,109.41,128.2575,-137.7425
1151,308081,0.58682,-0.182756,-1.005036,94.15,148.0325,-161.9975
1152,308177,0.549488,-0.193492,-1.0004,97.685,168.175,-186.76
1153,308273,0.6527,-0.343552,-1.065792,101.6925,183.085,-211.5925
1154,308369,0.70638,-0.537776,-1.07726,92.5225,189.35,-230.825
1155,308465,1.198528,-0.320128,-1.7033639999999999,99.96,204.715,-226.7825
1156,308562,0.659776,-0.6512359999999999,-1.6082040000000002,135.8875,207.4625,-211.1725
1157,308658,0.40211199999999997,-0.7937320999999999,-1.818532,155.575,191.8175,-205.9925
1158,308754,0.5058121,-0.5363121,-2.024956,149.6425,154.315,-207.6375
1159,308850,0.7417600000000001,-0.746152,-2.250412,158.8475,81.445,-192.5525
1160,308947,-0.025131999999999998,-0.960384,-1.4752239999999999,177.9575,17.9725,-159.53
1161,309043,-0.274744,-0.74298,-1.1333799999999998,178.78,2.0125,-127.645
1162,309139,-0.13859200000000002,-0.2989,-1.3449280000000001,178.255,12.8275,-101.7275
1163,309235,-0.06661201,0.020252000000000003,-1.5799,196.805,12.18,-82.53
1164,309332,-0.176656,0.260592,-1.542324,219.135,-7.14,-75.1275
1165,309428,-0.30744,0.562664,-1.436672,230.195,-28.5075,-81.1475
1166,309524,-0.309148,0.886452,-1.430084,238.7875,-42.5425,-93.66
1167,309620,-0.28548,1.0582280000000002,-1.467904,252.3325,-54.355,-106.8375
1168,309717,-0.20642399999999997,1.114348,-1.507676,263.9,-68.81,-121.695
1169,309813,-0.11736400000000001,1.1070280000000001,-1.494988,268.52,-87.22,-139.335
1170,309909,-0.06588,1.087996,-1.413492,270.6725,-105.7175,-155.2425
1171,310005,-0.036112,0.9389120000000001,-1.3054,273.805,-118.965,-156.9925
1172,310102,0.046116000000000004,0.8300879999999999,-1.28344,268.6425,-126.7,-146.2125
1173,310198,0.10687200000000001,0.8244761,-1.325652,252.9275,-132.7025,-127.085
1174,310294,0.153476,0.9274440999999999,-1.393484,232.12,-139.755,-102.6375
1175,310390,0.232776,1.15534,-1.458144,208.9325,-148.8025,-83.0025
1176,310487,0.28377199999999997,1.4215440000000001,-1.442772,190.505,-160.8075,-73.4125
1177,310583,0.259372,1.52744,-1.332484,178.5875,-172.6725,-68.4775
1178,310679,0.313784,1.518412,-1.2334200000000002,159.845,-181.4225,-69.965
1179,310775,0.37746799999999997,1.474736,-1.184376,131.4075,-185.78,-74.25251
1180,310872,0.492392,1.396168,-1.167296,99.10251,-189.595,-79.835
1181,310968,0.549488,1.271484,-1.1209360000000002,71.8025,-194.4775,-84.42
1182,311064,0.602436,1.1150799999999998,-1.046516,52.815,-196.805,-86.415
1183,311160,0.653432,0.9496479999999999,-0.9972281,39.69,-194.985,-87.4475
1184,311257,0.7407841,0.815692,-0.975024,30.0825,-190.4,-89.0225
1185,311353,0.7700640999999999,0.696864,-0.9291520000000001,24.605,-185.2375,-90.545
1186,311449,0.820816,0.6170760000000001,-0.9247601000000001,22.785,-177.45,-92.645
1187,311545,0.9337880999999999,0.601216,-0.974292,27.9825,-167.09,-94.37751
1188,311642,0.966728,0.557052,-0.9108521,41.965,-159.88,-95.585
1189,311738,0.9784401,0.514596,-0.781776,54.5825,-151.9875,-99.4875
1190,311834,1.012356,0.539972,-0.6785640000000001,58.17,-139.5975,-108.955
1191,311930,1.098244,0.61122,-0.630984,57.5225,-124.495,-121.555
1192,312027,1.2251239999999999,0.5856,-0.5934081,61.5125,-109.515,-131.6175
1193,312123,1.297836,0.44115200000000004,-0.464088,66.5525,-97.37,-137.1825
1194,312219,1.299056,0.31232,-0.29597199999999996,61.6175,-86.3625,-138.425
1195,312315,1.347612,0.243756,-0.152256,47.32,-72.5375,-134.82
1196,312412,1.377624,0.217404,-0.034404000000000004,30.38,-55.965,-124.4775
1197,312508,1.3917760000000001,0.158844,0.046604,14.035,-37.625,-109.62
1198,312604,1.479372,0.132248,0.041236,-2.2925,-19.3375,-93.065
1199,312700,1.576484,0.128344,-0.001464,-14.7,-4.4625,-74.7425
1200,312797,1.571116,0.124196,0.049776,-22.3125,4.7075,-57.26
1201,312893,1.425448,0.13639600000000002,0.190076,-30.7825,12.18,-45.7275
1202,312989,1.3856760000000001,0.26303200000000004,0.183732,-39.725,25.1475,-40.7925
1203,313085,0.830332,1.880996,0.135908,-27.125,41.6325,-45.325
1204,313182,0.47165200000000007,1.059448,1.230736,110.8625,115.6925,-64.5925
1205,313278,0.485804,-1.37616,-1.187792,203.0875,174.65,-82.04
1206,313374,2.429996,-2.8260080000000003,-2.159888,107.135,183.89,-137.585
1207,313470,2.534184,-2.9614279999999997,-0.9623360999999999,29.295,144.585,-149.0825
1208,313567,1.6028360000000001,-2.305556,-0.6734399999999999,-19.46,113.82,-39.5325
1209,313663,0.6653880999999999,0.000732,-1.091656,-52.64,104.7725,34.6325
1210,313759,-0.151036,1.622356,-0.9042641,-62.8075,90.685,28.2625
1211,313855,0.10736,1.512556,-0.9762440999999998,-28.6125,101.99,-6.7025
1212,313952,0.5856,-0.038064,-0.854244,6.825,109.515,-35.7
1213,314048,1.176568,-1.225368,-0.8178880999999999,10.8325,113.3125,-34.825
1214,314144,3.414536,-0.9828321,-2.514908,-15.68,110.2325,-10.4125
1215,314240,-0.253272,0.898408,-0.166652,-71.75,27.5975,-22.2075
1216,314337,0.774212,0.285236,-1.277096,-21.56,21.84,-11.55
1217,314433,0.7903161,-0.250344,-0.8930401,-19.285,17.2025,-9.5375
1218,314529,0.6168319999999999,0.029768,-0.826672,-13.685,15.0325,-6.4925
1219,314625,0.6368401,-0.019764,-0.8669319999999999,-9.38,6.545,-5.845
1220,314722,0.613904,-0.028304000000000003,-0.8425321,-4.725,4.305,-4.025
1221,314818,0.609268,-0.000244,-0.8483879999999999,-1.575,2.7475,-2.3275
1222,314914,0.6039,-0.047824,-0.8256960999999999,2.0475,1.2775,-0.665
1223,315010,0.583648,-0.02928,-0.8193521,4.8125,0.4725,0.665
1224,315107,0.5777920999999999,-0.06466001,-0.8142281,6.405,0.315,1.5575
1225,315203,0.592432,-0.06880801,-0.8071520000000001,7.0,-0.1925,1.82
1226,315299,0.598532,-0.096624,-0.807884,6.79,-1.1725,1.2425
1227,315395,0.58682,-0.112728,-0.8047121,6.23,-2.275,0.525
1228,315492,0.5614439999999999,-0.09638,-0.768112,4.865,-2.8525,-0.7
1229,315588,0.576328,-0.118584,-0.796904,3.43,-3.2025,-2.4675
1230,315684,0.583404,-0.0854,-0.8047121,2.03,-3.6225,-3.36
1231,315780,0.5673,-0.096868,-0.799588,0.91,-4.06,-4.48
1232,315877,0.565104,-0.094916,-0.797392,0.1225,-4.1825,-4.8125
1233,315973,0.562664,-0.07637200000000001,-0.7993439999999999,-0.2275,-3.85,-5.005
1234,316069,0.568764,-0.061488,-0.803492,-0.14,-3.4825,-5.0575
1235,316165,0.576328,-0.05563200000000001,-0.7998321,0.1225,-3.0975,-4.83
1236,316262,0.5697399999999999,-0.0488,-0.8030041,0.1925,-3.01,-4.655
1237,316358,0.5724239999999999,-0.041236,-0.812032,0.42,-2.8525,-4.2875
1238,316454,0.5734,-0.060024,-0.8100801,1.2425,-2.3975,-3.7625
1239,316550,0.568032,-0.06929600000000001,-0.8049561,2.2225,-2.03,-3.29
1240,316647,0.566812,-0.07490801,-0.800564,2.9225,-1.645,-2.9225
1241,316743,0.5673,-0.075396,-0.8003201,3.0275,-1.1025,-2.835
1242,316839,0.55388,-0.07027201,-0.803492,3.3775,-0.6825,-2.6075
1243,316935,0.543632,-0.088328,-0.801296,3.2725,0.2625,-2.8525
1244,317032,0.552904,-0.10345599999999999,-0.762012,1.505,2.065,-3.5
1245,317128,0.592432,-0.090036,-0.7983680000000001,-1.05,5.215,-4.1825
1246,317224,0.577304,-0.08784,-0.7998321,-3.01,4.865,-5.0575
1247,317320,0.595604,-0.08003201,-0.8081281,-4.7075,4.48,-6.0025
1248,317417,0.586088,-0.07588400000000001,-0.8081281,-5.4425,2.3625,-6.9125
1249,317513,0.58804,-0.063196,-0.8105680000000001,-5.74,1.295,-7.2975
1250,317609,0.594384,-0.05368,-0.81374,-5.32,1.6975,-7.14
1251,317705,0.598288,-0.064172,-0.8071520000000001,-4.2875,1.9425,-6.5275
1252,317802,0.58804,-0.08344800000000001,-0.7986121,-3.465,2.065,-6.2825
1253,317898,0.586088,-0.074664,-0.811056,-2.8,2.5375,-6.16
1254,317994,0.5838920999999999,-0.08784,-0.8195960999999999,-1.855,3.5,-5.9675
1255,318090,0.5946279999999999,-0.10321199999999998,-0.8230120999999999,-0.2975,4.5325,-6.02
1256,318187,0.59536,-0.0732,-0.820084,1.5925,6.3525,-5.985
1257,318283,0.58072,-0.02928,-0.8464360000000001,3.9375,9.135,-6.4925
1258,318379,0.498004,0.01464,-0.8493641,9.1525,13.16,-9.73
1259,318475,0.30378,-0.185196,-0.8730319999999999,16.975,22.4175,-12.0575
1260,318572,0.47458,0.121512,-0.9230520000000001,16.905,40.7225,-7.595
1261,318668,0.521184,-0.011712,-0.906216,32.2,60.4275,-7.07
1262,318764,0.412116,-0.028304000000000003,-1.009672,50.05,78.62751,-12.005
1263,318860,0.292312,-0.164456,-1.100196,58.1175,104.16,-13.51
1264,318956,0.32696,-0.21374400000000002,-1.006744,44.205,136.3425,-16.4675
1265,319053,0.367464,-0.23668000000000003,-0.9884440000000001,13.825,170.275,-34.79
1266,319149,0.407968,-0.280356,-1.081164,-14.805,199.815,-66.60501
1267,319245,0.442616,-0.45603599999999994,-1.1228879999999999,-44.45,226.45,-93.695
1268,319341,0.46335600000000005,-0.380152,-1.037,-63.4025,266.315,-107.0125
1269,319438,0.9391560999999999,-0.20837600000000003,-1.16266,-73.6575,318.9375,-112.315
1270,319534,1.59576,0.314272,-1.692384,-66.5525,372.2075,-104.58
1271,319630,1.5103600000000001,0.28792,-1.38958,-37.4675,403.2,-83.0025
1272,319726,1.950536,0.25742,-2.0618,14.105,411.495,-58.31
1273,319823,1.2902719999999999,-0.146156,-1.581608,91.6825,399.07,-26.9325
1274,319919,0.8845,-0.091012,-1.7463080000000002,111.0025,418.425,-32.0425
1275,320015,0.6314721,0.0854,-2.210884,123.7425,451.1675,-43.0675
1276,320111,0.28621199999999997,0.195688,-2.393884,159.39,437.7625,-61.18
1277,320208,1.7934,-0.168604,-4.482036,159.0225,267.575,-120.9075
1278,320304,0.758596,-0.9037761000000001,-3.271064,145.8625,52.255,-127.2775
1279,320400,-0.44505600000000006,-1.164856,-2.0679,106.575,-66.22,-126.035
1280,320496,-0.7673800000000001,-0.965752,-1.529148,51.8,-109.8825,-111.055
1281,320593,-0.7515201,-0.650748,-1.4274,14.8575,-114.765,-84.945
1282,320689,-0.5504641,-0.349652,-1.524512,10.8675,-112.4725,-51.8
1283,320785,-0.319152,-0.21057199999999998,-1.624064,31.5,-120.855,-16.0475
1284,320881,-0.14688800000000002,-0.181536,-1.624552,53.83,-142.3275,12.2675
1285,320978,-0.060267999999999995,-0.14518,-1.55062,60.7425,-172.1125,26.985
1286,321074,0.042456,-0.029524,-1.462048,52.5875,-203.735,28.5425
1287,321170,0.10492,0.123464,-1.3771360000000001,40.845,-232.26,22.575
1288,321266,0.187392,0.26474000000000003,-1.313208,37.1525,-255.2025,13.8425
1289,321363,0.278404,0.33184,-1.2580639999999998,44.2575,-271.705,5.81
1290,321459,0.40577199999999997,0.329644,-1.2397639999999999,57.5575,-282.73,-1.26
1291,321555,0.5648601,0.29426399999999997,-1.246108,71.645,-290.08,-6.2475
1292,321651,0.7388319999999999,0.238632,-1.235372,83.4925,-296.975,-9.485
1293,321748,0.889136,0.189588,-1.1834,93.0125,-303.38,-10.6575
1294,321844,1.0406600000000001,0.160552,-1.110932,100.135,-305.9175,-7.8925
1295,321940,1.120692,0.104432,-1.0406600000000001,104.9125,-302.89,-2.17
1296,322036,1.1836440000000001,0.09125599999999999,-0.9947881,105.5775,-292.25,1.785
1297,322133,1.252208,0.004636001,-1.034804,106.645,-276.4125,6.86
1298,322229,1.408612,-0.08052000000000001,-1.161196,106.6625,-262.2725,13.6675
1299,322325,1.569652,-0.167872,-1.2939319999999999,106.9425,-254.6075,23.7825
1300,322421,1.719956,-0.2318,-1.331508,106.7325,-253.7675,36.5925
1301,322518,1.807796,-0.256932,-1.2871,104.195,-256.7425,50.5925
1302,322614,1.86294,-0.217404,-1.197064,100.8525,-258.65,63.8225
1303,322710,1.9849400000000001,-0.12712400000000001,-1.079212,98.8575,-254.7125,76.195
1304,322806,2.2250360000000002,-0.063196,-0.9711200999999999,101.185,-246.155,90.8775
1305,322902,2.433656,0.049044,-0.750788,101.08,-238.7175,109.06
1306,322999,2.400228,0.29792399999999997,-0.44993599999999995,89.075,-233.7475,126.735
1307,323095,2.424628,0.362584,-0.071004,68.3025,-223.195,133.0525
1308,323191,2.592988,0.42773199999999995,0.277428,33.4425,-203.8575,124.5125
1309,323287,2.720844,0.6168319999999999,0.5885281,-2.2925,-183.5225,109.725
1310,323384,2.70352,0.771772,0.958432,-16.7475,-159.81,98.54251
1311,323480,2.656184,0.8493641,1.357616,-10.6575,-125.93,89.88
1312,323576,2.5876200000000003,0.849608,1.607472,0.8400001,-80.90250999999999,78.855
1313,323672,1.943704,1.051884,1.8824599999999998,10.1325,-29.3825,65.6425
1314,323769,2.229916,0.9630681000000001,2.5998200000000002,6.4925,88.725,58.8
1315,323865,1.827316,0.48263199999999995,3.832264,-17.045,183.5575,40.6
1316,323961,-0.07710399999999999,0.364536,-0.07442,1.61,305.5325,-6.3875
1317,324057,3.55142,-0.34428400000000003,-3.6902559999999998,14.2625,407.155,-37.2925
1318,324154,1.954684,0.233996,-1.297104,-94.8325,288.9775,-49.5075
1319,324250,1.6750599999999998,0.284504,-1.298324,-77.40250999999999,268.17,-33.6875
1320,324346,1.641388,0.41723999999999994,-1.753628,-54.04,250.8275,-28.0175
1321,324442,1.111908,0.48068,-1.243424,-60.2175,207.7075,-40.005
1322,324539,1.7585080000000002,0.08759601,-1.3383399999999999,-47.285,188.5975,-40.7575
1323,324635,3.2471520000000003,-0.400404,-1.693848,-65.1175,142.2575,-16.94
1324,324731,0.424804,-0.121512,-0.741272,-104.72,20.545,-46.2525
1325,324827,0.677344,0.409432,-0.9618481,-53.2,40.9325,-25.3925
1326,324924,0.942816,-0.06466001,-1.050908,-41.685,19.2675,-20.2825
1327,325020,0.673928,-0.131272,-0.8322841000000001,-24.1675,8.12,-11.8125
1328,325116,0.648552,-0.08784,-0.823744,-18.0775,4.3225,-9.87
1329,325212,0.6258600000000001,-0.050996,-0.8249639999999999,-13.44,0.315,-9.0125
1330,325309,0.658312,-0.063196,-0.84424,-9.2225,-0.7175,-7.2975
1331,325405,0.620736,-0.050996,-0.823744,-5.9675,-1.9775,-5.6175
1332,325501,0.6229319999999999,-0.063928,-0.8188641,-4.2175,-2.3625,-5.5825
1333,325597,0.5975560000000001,-0.040016,-0.8105680000000001,-3.08,-3.9725,-6.3875
1334,325694,0.5777920999999999,-0.024156,-0.807396,-2.7125,-6.125,-7.49
1335,325790,0.5260640000000001,0.006587999999999999,-0.8398479999999999,-2.2225,-7.91,-8.3825
1336,325886,0.496296,0.014396,-0.8405800999999999,-1.6275,-9.38,-9.065
1337,325982,0.599508,-0.129564,-0.7515201,-1.0675,-9.66,-8.75
1338,326079,0.5795,-0.265472,-0.763476,-2.17,-8.575,-10.325
1339,326175,0.5546121,-0.039772,-0.814472,-1.96,-7.7175,-7.5775
1340,326271,0.5587601,-0.032451999999999995,-0.8103239999999999,-2.8,-6.72,-8.33
1341,326367,0.5553441,-0.05636401,-0.8066641,-1.015,-6.4225,-7.0525
1342,326464,0.5453399999999999,-0.027327999999999998,-0.812032,-0.8400001,-5.845,-6.37
1343,326560,0.5690081,-0.045627999999999995,-0.80642,0.3325,-4.8125,-5.39
1344,326656,0.557052,-0.052703999999999994,-0.8095920999999999,0.7525,-4.7075,-5.075
1345,326752,0.549732,-0.05636401,-0.803248,0.5775,-4.7775,-5.6175
1346,326849,0.559004,-0.0427,-0.803248,0.6825,-3.5875,-5.11
1347,326945,0.55388,-0.050752,-0.808372,0.665,-2.7825,-4.69
1348,327041,0.5543680000000001,-0.056852,-0.801296,-0.0175,-2.0125,-4.8475
1349,327137,0.570716,-0.055144000000000006,-0.8127641,-1.155,-1.365,-5.425
1350,327233,0.562176,-0.06588,-0.8049561,-2.0825,-1.3125,-5.8275
1351,327330,0.5690081,-0.05563200000000001,-0.805932,-2.7125,-0.6125,-5.915
1352,327426,0.560956,-0.067344,-0.809348,-3.3425,-0.4025,-6.4225
1353,327522,0.5565640000000001,-0.066856,-0.807884,-4.13,0.1925,-7.105
1354,327619,0.576572,-0.059536,-0.812276,-4.9,1.4525,-7.385
1355,327715,0.568276,-0.067344,-0.806176,-5.565,1.7675,-7.7525
1356,327811,0.5694961,-0.057584,-0.812276,-6.0375,1.925,-8.505
1357,327907,0.59536,-0.040504000000000005,-0.822524,-5.5825,2.59,-8.6625
1358,328003,0.5948720000000001,-0.06344,-0.8178880999999999,-3.8675,2.0125,-8.785
1359,328100,0.5892601,-0.064416,-0.808372,-1.8725,2.3275,-9.03
1360,328196,0.57828,-0.053191999999999996,-0.8244761,-0.245,4.4975,-9.555
1361,328292,0.545096,-0.004636001,-0.868396,2.3625,6.7025,-11.235
1362,328388,0.57462,-0.08344800000000001,-0.8113001,7.175,9.8175,-15.855
1363,328485,0.296704,-0.052948,-0.9089001,6.44,14.07,-16.45
1364,328581,0.440176,0.017812,-0.9679481,8.085,30.45,-13.8775
1365,328677,0.384544,-0.021472,-1.0140639999999999,15.19,52.815,-11.2
1366,328773,0.397964,-0.0671,-1.051152,24.43,81.32251,-9.94
1367,328870,0.407968,-0.19959200000000002,-1.05774,32.7425,110.95,-16.485
1368,328966,0.3782,-0.19397999999999999,-1.021384,18.8825,143.5,-32.025
1369,329062,0.46726,-0.17519200000000001,-1.059692,5.1975,174.9125,-50.7675
1370,329158,0.417728,-0.31476,-1.0431,-5.5825,194.81,-74.3925
1371,329254,0.452132,-0.22252800000000003,-1.090924,-34.195,214.13,-99.33001
1372,329351,0.5058121,-0.18446400000000002,-0.9967401,-60.375,242.585,-122.6925
1373,329447,0.638792,-0.458232,-1.0675,-81.585,289.0125,-134.015
1374,329543,1.460828,-0.01952,-1.5067,-101.0275,339.92,-131.6875
1375,329639,1.9419959999999998,-0.386252,-1.465708,-99.61,373.485,-128.03
1376,329736,1.713856,-0.043188,-1.929552,-98.035,383.985,-125.7375
1377,329832,1.505968,-0.069052,-1.7402080000000002,-83.895,373.415,-120.715
1378,329928,1.1411879999999999,-0.094916,-2.100352,-26.285,390.8275,-107.7825
1379,330024,0.137372,-0.454084,-2.125728,42.1575,412.615,-105.8575
1380,330121,0.58194,-1.095072,-2.466352,54.32,383.075,-121.38
1381,330217,1.973716,-1.347856,-4.012092,55.37,209.16,-77.28
1382,330313,0.512888,-1.8534240000000002,-2.8652919999999997,42.175,22.995,-34.4575
1383,330409,-0.46945600000000004,-1.578192,-1.8646479999999999,-14.5075,-78.2075,-8.68
1384,330506,-0.893284,-1.0431,-1.378844,-62.37,-112.035,17.4475
1385,330602,-0.834724,-0.4941,-1.359324,-69.755,-108.885,44.4675
1386,330698,-0.552172,-0.141764,-1.4940120000000001,-34.1425,-104.4925,72.73
1387,330794,-0.290848,-0.041724000000000004,-1.5494,18.5325,-115.08,92.3825
1388,330890,-0.030744,-0.05368,-1.541104,55.2825,-140.6125,94.97251
1389,330987,0.1464,-0.033184,-1.464,64.575,-177.8875,82.3025
1390,331083,0.197152,0.064172,-1.304668,58.485,-218.2775,62.195
1391,331179,0.225212,0.17738800000000002,-1.148996,54.5475,-250.005,43.295
1392,331275,0.287188,0.22789600000000002,-1.042124,61.915,-267.47,32.445
1393,331372,0.406748,0.21520799999999998,-0.9967401,77.455,-273.315,29.96
1394,331468,0.5380199999999999,0.172264,-1.0016200000000002,92.78501,-274.505,30.9925
1395,331564,0.686616,0.149084,-1.0243120000000001,102.795,-274.7325,32.27
1396,331660,0.7983680000000001,0.160552,-1.0521280000000002,107.52,-275.3975,34.2125
1397,331757,0.9235399999999999,0.162748,-1.095316,110.9325,-275.1875,36.4
1398,331853,1.0406600000000001,0.12980799999999998,-1.1228879999999999,114.3275,-274.5575,37.2225
1399,331949,1.1794959999999999,0.101992,-1.194868,116.2175,-273.035,36.96
1400,332045,1.3329719999999998,0.122244,-1.300032,116.025,-270.76,36.68
1401,332142,1.43838,0.183732,-1.375184,116.7775,-272.0025,35.4725
1402,332238,1.493768,0.238632,-1.373476,121.3275,-276.2375,32.585
1403,332334,1.541348,0.233752,-1.303448,128.7475,-278.215,29.365
1404,332430,1.57136,0.159088,-1.1831559999999999,135.765,-274.6975,28.875
1405,332527,1.606984,0.015128,-1.069696,139.3,-265.055,33.985
1406,332623,1.7153200000000002,-0.122732,-1.003572,137.9875,-249.97,46.76
1407,332719,1.903444,-0.23472800000000002,-0.97356,132.0375,-233.485,66.2725
1408,332815,2.133048,-0.317444,-0.8540000000000001,120.33,-221.1825,89.355
1409,332912,2.27408,-0.10394400000000001,-0.678076,99.8725,-214.7775,114.31
1410,333008,2.2648080000000004,0.10906800000000001,-0.404796,77.1575,-207.3925,142.52
1411,333104,2.3311759999999997,0.22082,-0.021716,51.695,-191.695,167.93
1412,333200,2.4282880000000002,0.331352,0.45018,7.385,-170.135,181.5975
1413,333297,2.488556,0.635864,0.8810841,-48.335,-147.105,175.455
1414,333393,2.528084,1.045052,1.1897440000000001,-86.18751,-118.545,151.83
1415,333489,2.4512240000000003,1.4252040000000001,1.329556,-80.955,-80.08,119.315
1416,333585,2.208932,1.46766,1.286124,-35.2975,-28.3325,88.04251
1417,333682,2.100108,1.136796,1.058716,11.0425,25.2,61.2675
1418,333778,1.380064,0.581208,0.883524,16.7125,65.8875,23.765
1419,333874,0.0183,1.288808,2.6461799999999998,-53.305,190.3125,-29.365
1420,333970,-0.255468,0.077836,-0.908168,-2.2225,246.5225,-100.205
1421,334067,2.59616,-0.539484,-2.4583,-40.2675,331.94,-137.83
1422,334163,2.274324,-0.718824,-1.0972680000000001,-75.1975,275.6775,-103.9675
1423,334259,1.951024,-0.258152,-1.512556,-61.8625,265.23,-44.1875
1424,334355,1.72508,0.304512,-1.808772,-64.6975,241.8675,-27.44
1425,334451,1.253916,0.8620521000000001,-1.44448,-70.0525,196.28,-37.4325
1426,334548,1.176324,0.473116,-1.314916,-47.565,166.1975,-44.625
1427,334644,1.119472,-0.135908,-1.081408,-29.7325,139.4925,-41.93
1428,334740,3.5543480000000005,-1.3176,-2.233088,-29.8725,125.0025,-26.5825
1429,334836,0.189588,0.053924,-0.316712,-82.39,39.725,-27.09
1430,334933,0.800808,0.35477600000000004,-1.2219520000000001,-41.405,37.695,-21.875
1431,335029,0.7451760000000001,-0.205204,-0.8801081000000001,-30.8875,22.785,-19.6525
1432,335125,0.690032,-0.15372,-0.84546,-17.1325,16.7125,-11.9525
1433,335221,0.660752,-0.03538,-0.9001161,-14.595,8.7675,-9.52
1434,335318,0.637084,-0.122244,-0.844484,-7.0175,3.045,-7.175
1435,335414,0.6019479999999999,-0.083204,-0.8437520000000001,-2.8875,-0.3325,-5.005
1436,335510,0.599264,-0.057096,-0.8432639999999999,0.5425,-2.135,-3.465
1437,335606,0.562908,-0.096868,-0.8235001000000001,3.7625,-3.92,-2.31
1438,335703,0.568276,-0.108824,-0.81862,4.5675,-4.9,-2.0825
1439,335799,0.5631520000000001,-0.126636,-0.794952,3.605,-5.88,-2.94
1440,335895,0.557052,-0.10809200000000001,-0.808372,2.205,-6.65,-3.9725
1441,335991,0.5404601,-0.127856,-0.8108121,1.4875,-7.4725,-4.655
1442,336088,0.544852,-0.1586,-0.787144,0.7175,-7.6475,-5.25
1443,336184,0.54656,-0.13176,-0.7793359999999999,-0.42,-6.65,-5.705
1444,336280,0.551928,-0.14274,-0.80642,-1.4525,-6.02,-6.265
1445,336376,0.508008,-0.121512,-0.7944641,-2.5375,-5.3375,-6.4575
1446,336473,0.5294800000000001,-0.121512,-0.7903161,-3.64,-3.36,-6.65
1447,336569,0.547048,-0.111752,-0.8049561,-4.6025,-2.2925,-6.6675
1448,336665,0.549244,-0.104432,-0.8025161,-5.3025,-1.4175,-6.965
1449,336761,0.55632,-0.101992,-0.80886,-5.6875,-0.945,-7.0875
1450,336858,0.538752,-0.08466801,-0.800564,-6.475,-0.8225,-7.21
1451,336954,0.533628,-0.10736,-0.7951961,-7.98,-0.0875,-7.595
1452,337050,0.537288,-0.11053199999999999,-0.7978801,-10.57,1.05,-8.3125
1453,337146,0.540948,-0.09906401,-0.8010520000000001,-12.705,2.24,-9.485
1454,337243,0.647332,-0.017568,-0.892552,-13.4575,3.045,-10.535
1455,337339,0.544608,-0.081984,-0.8066641,-8.68,0.98,-9.4325
1456,337435,0.538996,-0.086132,-0.8142281,-7.805,1.645,-8.9075
1457,337531,0.519476,-0.06466001,-0.8100801,-8.6275,3.6225,-8.925
1458,337628,0.57584,-0.062952,-0.824232,-8.9425,6.4575,-8.47
1459,337724,0.562176,-0.09052401,-0.80642,-8.4875,6.1425,-7.945
1460,337820,0.5653481,-0.09979600000000001,-0.8176439999999999,-8.61,6.5975,-7.8225
1461,337916,0.580232,-0.110776,-0.8178880999999999,-9.555,6.0375,-8.68
1462,338013,0.5892601,-0.07710399999999999,-0.8308200000000001,-10.4475,4.7075,-9.625
1463,338109,0.59536,-0.085156,-0.8127641,-10.01,2.7475,-9.905
1464,338205,0.587064,-0.081252,-0.813496,-9.0825,2.17,-9.6425
1465,338301,0.6009720000000001,-0.07002799999999999,-0.803736,-8.12,2.205,-9.275
1466,338398,0.5941401,-0.067344,-0.807396,-6.51,2.5725,-8.2775
1467,338494,0.5875520000000001,-0.039528,-0.826428,-4.6025,3.3775,-7.245
1468,338590,0.5843801,-0.0732,-0.8388721,-2.275,4.655,-6.2825
1469,338686,0.5797441,-0.08100801,-0.796904,-0.21,6.405,-5.7575
1470,338783,0.496296,-0.005368,-0.863516,1.9425,9.1,-6.65
1471,338879,0.51118,-0.05929201,-0.8249639999999999,8.96,14.77,-8.4175
1472,338975,0.35087199999999996,-0.111996,-0.8430200999999999,13.825,22.26,-9.135
1473,339071,0.46506400000000003,-0.086864,-0.8842561,13.9475,36.925,-7.49
1474,339168,0.458232,0.012931999999999999,-0.9696561,18.9175,51.6425,-4.9875
1475,339264,0.372832,-0.083204,-1.023336,26.0925,72.5025,-1.47
1476,339360,0.37258800000000003,-0.138104,-1.051396,30.1875,100.4325,-2.1525
1477,339456,0.391864,-0.22033200000000003,-1.048224,27.895,131.8275,-14.0525
1478,339553,0.324276,-0.29743600000000003,-1.073112,6.58,165.55,-32.9175
1479,339649,0.403088,-0.381128,-1.099464,-25.2525,195.5275,-59.6225
1480,339745,0.413336,-0.394548,-1.061644,-55.965,217.665,-90.685
1481,339841,0.4819,-0.312076,-0.9557479999999999,-79.87,249.0775,-107.24
1482,339938,0.716384,-0.145912,-0.9484280999999999,-91.4025,294.455,-114.8175
1483,340034,1.112884,0.22667600000000002,-1.2871,-88.34000999999999,337.435,-113.0325
1484,340130,1.4959639999999998,0.154696,-1.01748,-75.21500999999999,367.85,-99.17251
1485,340226,1.879532,0.128832,-1.7868119999999998,-56.1225,382.6375,-83.58001
1486,340323,1.52134,0.10004,-1.477176,-28.56,366.73,-67.69001
1487,340419,1.05164,0.036356,-1.537688,12.005,363.0025,-51.3275
1488,340515,0.9616040000000001,0.134444,-2.036668,41.2825,376.2675,-50.3125
1489,340611,0.116632,0.110044,-2.138416,75.5125,380.415,-55.1775
1490,340708,-0.24034,0.221796,-2.79502,94.64,361.445,-81.77750999999999
1491,340804,1.608692,-0.071492,-4.065772,104.9125,199.4475,-125.755
1492,340900,0.5602239999999999,-1.007232,-2.9331240000000003,119.07,10.22,-139.7025
1493,340996,-0.357704,-1.34566,-1.8788,76.72,-94.325,-143.9375
1494,341093,-0.543876,-1.250744,-1.4661959999999998,21.1225,-133.21,-124.18
1495,341189,-0.429928,-1.0614,-1.443748,-12.3725,-135.9925,-89.72251
1496,341285,-0.188124,-0.955992,-1.536468,-12.145,-136.535,-38.3075
1497,341381,-0.002684,-0.9474520000000001,-1.5555,3.675,-152.6,17.3775
1498,341478,0.102724,-0.9084121,-1.463756,11.095,-179.235,62.1075
1499,341574,0.168604,-0.713212,-1.3583479999999999,3.045,-208.075,91.5775
1500,341670,0.229848,-0.388692,-1.2641639999999998,-8.9425,-235.0075,108.36
1501,341766,0.28987199999999996,-0.05368,-1.200236,-10.99,-256.7425,115.22
1502,341863,0.371368,0.17763199999999998,-1.1509479999999999,0.5775,-272.265,112.3325
1503,341959,0.46506400000000003,0.300608,-1.119472,19.635,-282.52,99.5925
1504,342055,0.6034121,0.327692,-1.118252,39.41,-287.805,80.0975
1505,342151,0.79178,0.289628,-1.116544,55.09,-290.08,58.2225
1506,342248,0.9796600000000001,0.24790399999999999,-1.101904,66.0275,-291.2,37.8525
1507,342344,1.103612,0.180072,-1.065548,74.9175,-291.55,23.24
1508,342440,1.1346,0.06832001,-1.000644,82.6525,-289.0475,14.035
1509,342536,1.152656,-0.01342,-0.989176,88.48001,-280.49,9.6075
1510,342633,1.2017,-0.08417999999999999,-1.042612,96.4775,-266.5075,11.83
1511,342729,1.317844,-0.157136,-1.1660760000000001,107.415,-254.0825,21.245
1512,342825,1.4630239999999999,-0.252784,-1.273924,120.575,-246.295,33.7925
1513,342921,1.568676,-0.317932,-1.301984,130.48,-242.7775,46.6025
1514,343018,1.677256,-0.363804,-1.288564,135.9575,-239.12,57.4875
1515,343114,1.835368,-0.366976,-1.280512,137.8825,-232.5225,66.885
1516,343210,2.165988,-0.299144,-1.294908,139.2125,-224.21,77.0
1517,343307,2.599332,-0.112972,-1.2073120000000002,140.7175,-222.0225,92.68001
1518,343403,2.728652,0.063196,-0.9525761,137.725,-232.575,114.555
1519,343499,2.6132400000000002,0.09613601,-0.487512,125.9825,-245.07,130.9525
1520,343595,2.493436,0.192028,0.101504,90.07251,-241.8325,134.645
1521,343692,2.463912,0.430172,0.641964,38.01,-221.62,125.5975
1522,343788,2.5405279999999997,0.8066641,1.06628,-5.3375,-193.2525,103.635
1523,343884,2.582496,1.13094,1.389824,-13.9475,-155.435,81.585
1524,343980,2.4199919999999997,1.095316,1.597956,10.5175,-105.455,67.9875
1525,344077,2.118408,0.775676,1.544764,31.4825,-46.235,59.57
1526,344173,2.059848,0.477996,1.099708,18.6375,11.5325,47.1625
1527,344269,2.077904,0.276696,0.4636,-14.5075,51.4325,39.48
1528,344365,1.979084,0.138348,0.003172,-44.8875,64.4875,45.535
1529,344461,1.6570040000000001,0.10906800000000001,-0.08784,-67.0425,57.12,62.475
1530,344558,-0.5382640000000001,0.467992,-0.8991401,-82.845,48.475,80.4475
1531,344654,-2.643252,0.44334799999999996,1.331752,-44.8,97.00251,40.355
1532,344750,-2.254804,-0.581208,-0.450424,-6.37,211.4175,-6.72
1533,344846,2.8482119999999997,0.38552,-2.094496,-68.145,348.8625,-98.3675
1534,344943,2.720112,0.3172,-1.6601759999999999,-88.06,303.3975,-75.145
1535,345039,1.4454559999999999,0.296704,-1.546716,-53.1125,251.9475,-16.8175
1536,345135,1.594784,0.6034121,-1.792668,-51.24,233.6775,-35.875
1537,345231,1.124352,0.528016,-1.277584,-45.64,194.8625,-47.845
1538,345328,1.129964,0.096868,-1.10532,-33.4775,169.435,-54.8975
1539,345424,1.025776,-0.298412,-0.9398880999999999,-24.4825,150.8675,-48.4575
1540,345520,4.030880000000001,-1.430084,-2.1996599999999997,-35.9275,140.7175,-28.21
1541,345616,0.188368,0.12566,-0.2745,-99.82,38.2025,-33.0925
1542,345713,0.9352520000000001,0.40504,-1.299056,-46.795,40.8625,-25.55
1543,345809,0.7229720000000001,-0.22082,-0.830332,-36.4175,16.8,-20.9125
1544,345905,0.6724640000000001,-0.146156,-0.817156,-22.3825,15.8375,-12.775
1545,346001,0.6673399999999999,-0.07710399999999999,-0.85156,-20.9825,9.24,-11.935
1546,346098,0.625128,-0.126392,-0.812276,-15.9075,4.27,-11.165
1547,346194,0.6573359999999999,-0.014884,-0.854244,-12.53,1.505,-9.73
1548,346290,0.6466,-0.052948,-0.8430200999999999,-7.3675,-1.085,-7.7525
1549,346386,0.604144,-0.08759601,-0.8105680000000001,-3.43,-3.36,-5.985
1550,346483,0.610244,-0.11345999999999999,-0.798856,-2.835,-3.7625,-6.02
1551,346579,0.577548,-0.111508,-0.791536,-3.0275,-4.83,-6.4925
1552,346675,0.571204,-0.085156,-0.7556681,-3.36,-5.53,-6.895
1553,346771,0.57706,-0.090036,-0.792756,-3.4825,-6.09,-7.105
1554,346868,0.590724,-0.10418800000000002,-0.8142281,-3.85,-5.8975,-7.1575
1555,346964,0.515328,-0.07978801,-0.782508,-4.305,-5.5475,-7.28
1556,347060,0.5504641,-0.109556,-0.7793359999999999,-5.005,-4.165,-7.315
1557,347156,0.5736441,-0.095648,-0.7986121,-5.7925,-3.115,-7.105
1558,347253,0.5631520000000001,-0.096624,-0.781532,-6.58,-1.82,-7.385
1559,347349,0.5690081,-0.086864,-0.79666,-7.0175,-1.3475,-7.665
1560,347445,0.605364,-0.046116000000000004,-0.821792,-6.51,-0.77,-7.665
1561,347541,0.575596,-0.071492,-0.793976,-4.1825,-1.365,-7.0175
1562,347638,0.5826720000000001,-0.054412,-0.794708,-3.57,-0.7175,-6.685
1563,347734,0.568032,-0.079056,-0.753472,-3.7625,0.665,-6.2125
1564,347830,0.5978,-0.06588,-0.79178,-4.0425,3.3075,-5.53
1565,347926,0.5885281,-0.05929201,-0.7986121,-3.9375,2.275,-5.565
1566,348023,0.5795,-0.06270801,-0.792756,-3.92,1.995,-5.32
1567,348119,0.579256,-0.07832401,-0.792024,-4.6025,1.9425,-5.6
1568,348215,0.5856,-0.067344,-0.8042239999999999,-6.16,2.135,-6.265
1569,348311,0.5892601,-0.07442,-0.796416,-7.1575,1.925,-7.175
1570,348408,0.582916,-0.067832,-0.807884,-7.735,0.98,-7.8225
1571,348504,0.586332,-0.07515201,-0.8030041,-8.2425,-0.035,-8.5925
1572,348600,0.594384,-0.08100801,-0.797392,-8.68,-0.175,-9.625
1573,348696,0.5948720000000001,-0.061975999999999996,-0.8117880000000001,-8.925,-0.1225,-10.185
1574,348793,0.608536,-0.055144000000000006,-0.801784,-8.2775,0.5075,-9.8
1575,348889,0.611464,-0.055144000000000006,-0.788852,-7.105,0.6825,-8.9775
1576,348985,0.614392,-0.045627999999999995,-0.792024,-5.81,1.0325,-7.5425
1577,349081,0.606584,-0.05002,-0.8025161,-4.305,1.7325,-6.0025
1578,349178,0.60268,-0.042212,-0.8081281,-3.0275,3.15,-4.6725
1579,349274,0.595604,-0.060024,-0.807396,-1.4,5.2675,-4.0075
1580,349370,0.57218,-0.037576,-0.8327720999999999,0.455,7.9625,-3.92
1581,349466,0.542168,0.008296000999999999,-0.8596120999999999,4.165,13.6675,-4.235
1582,349563,0.45579200000000003,-0.07417601,-0.8930401,12.425,23.5025,-4.9175
1583,349659,0.388936,0.030987999999999998,-0.9528200000000001,18.6025,38.43,-4.515
1584,349755,0.411384,-0.038551999999999996,-0.981612,23.94,64.1375,-2.1875
1585,349851,0.37502800000000003,-0.076616,-1.041148,31.22,91.6825,0.9975
1586,349948,0.322812,-0.189588,-1.0821399999999999,38.85,126.42,-5.7225
1587,350044,0.325984,-0.30012,-1.149484,27.8075,165.6725,-23.975
1588,350140,0.340624,-0.28767600000000004,-1.135332,-5.5825,200.48,-50.505
1589,350237,0.3843,-0.478728,-1.112152,-43.3475,225.995,-83.055
1590,350333,0.42138809999999993,-0.29646,-1.063352,-78.62751,265.79,-101.9725
1591,350429,0.768844,-0.06270801,-1.133868,-93.2925,319.515,-107.0125
1592,350525,1.502552,0.05587601,-1.59332,-91.175,367.8675,-101.57
1593,350622,1.541836,0.098332,-1.24928,-84.28,397.0925,-86.6425
1594,350718,2.064484,0.279868,-2.024468,-71.26,401.905,-77.8575
1595,350814,1.239032,0.13078399999999998,-1.630896,-37.0125,377.195,-55.475
1596,350910,0.9564799999999999,0.05856,-1.834148,17.395,388.395,-38.5875
1597,351007,0.47092,0.046604,-2.061556,56.8575,402.7975,-37.4675
1598,351103,-0.9745360000000001,-0.25961599999999996,-2.780136,80.2725,396.2875,-52.3775
1599,351199,1.647732,-0.118828,-4.343444,77.84,254.1875,-88.27
1600,351296,0.693204,-0.8610761,-3.2269,90.1075,45.01,-109.8825
1601,351392,-0.5121560000000001,-1.091412,-2.0984,46.8125,-83.7025,-121.065
1602,351488,-0.8222799999999999,-0.9506241,-1.502308,-0.805,-132.7725,-107.9925
1603,351584,-0.773968,-0.7224841,-1.349808,-26.285,-138.985,-83.30001
1604,351681,-0.467504,-0.5602239999999999,-1.4696120000000001,-22.2425,-136.6225,-49.5075
1605,351777,-0.16128399999999998,-0.5516840000000001,-1.562088,-2.625,-148.5925,-15.1375
1606,351873,0.031476,-0.5978,-1.533052,11.0075,-175.5425,11.5325
1607,351969,0.159332,-0.557296,-1.44936,9.7475,-209.79,29.47
1608,352066,0.233508,-0.439688,-1.333704,1.155,-242.2175,41.86
1609,352162,0.295484,-0.286456,-1.236348,-4.5325,-267.12,51.765
1610,352258,0.381128,-0.13908,-1.17608,-3.15,-283.9025,59.185
1611,352354,0.5104479999999999,-0.030256,-1.174128,5.005,-294.805,61.2675
1612,352451,0.7017439999999999,0.030012,-1.2136559999999998,17.2725,-301.91,58.0475
1613,352547,0.8881600000000001,0.049288,-1.241228,30.9575,-307.65,52.815
1614,352643,1.061156,0.054655999999999996,-1.245132,44.7125,-312.4275,48.475
1615,352740,1.229028,0.06539201,-1.223904,57.5575,-315.2975,44.905
1616,352836,1.362496,0.063196,-1.206092,68.845,-313.81,39.4975
1617,352932,1.446676,0.12688,-1.1477760000000001,78.0675,-306.81,29.435
1618,353028,1.4125159999999999,0.125904,-1.094096,90.59751,-295.1725,18.4975
1619,353125,1.416908,0.03904,-1.07482,107.275,-281.645,8.715
1620,353221,1.5098719999999999,-0.09418401,-1.116056,123.27,-266.5775,3.5
1621,353317,1.6750599999999998,-0.236192,-1.17242,136.2025,-252.735,5.9675
1622,353414,1.781932,-0.315736,-1.174128,144.7425,-243.7925,14.385
1623,353510,1.828048,-0.313296,-1.0919,149.8175,-238.1225,27.265
1624,353606,1.87148,-0.273768,-0.9623360999999999,154.7175,-230.2125,44.5025
1625,353702,1.9551720000000001,-0.1891,-0.7556681,157.535,-218.68,65.50251
1626,353799,1.9339439999999999,0.0732,-0.586576,153.3875,-204.4,89.1975
1627,353895,1.9707880000000002,0.263276,-0.428708,145.0575,-184.52,110.495
1628,353991,2.157692,0.360632,-0.225212,127.47,-161.8225,124.6875
1629,354087,2.3921759999999996,0.397964,0.05929201,91.7,-145.005,127.05
1630,354184,2.536136,0.5724239999999999,0.36966,41.23,-137.515,112.21
1631,354280,2.491484,0.8796200000000001,0.75884,-1.7675,-133.7525,88.9175
1632,354376,2.196732,1.081164,1.22488,-16.1175,-118.1425,68.355
1633,354472,1.9593200000000002,1.006988,1.437892,-7.7525,-75.495,52.675
1634,354569,2.001288,0.7700640999999999,1.204628,2.9925,-15.855,40.88
1635,354665,2.167696,0.541192,0.7241920000000001,1.5575,32.7075,35.5775
1636,354761,2.0923,0.341356,0.35233600000000004,-11.2,55.0375,37.3275
1637,354857,1.7280080000000002,0.22082,0.221552,-36.19,60.235,41.5625
1638,354954,0.57462,1.010648,0.861808,-55.9125,64.9425,35.49
1639,355050,-2.538332,0.559248,1.6562720000000002,-40.67,178.185,-0.6125
1640,355146,0.002928,-0.779824,-1.155584,9.555,277.69,-55.44
1641,355242,3.45382,0.22472399999999998,-2.151104,-78.085,353.255,-111.2125
1642,355339,1.975424,-0.222284,-1.319064,-65.135,281.26,-44.765
1643,355435,1.516704,0.395768,-1.506944,-61.3375,256.2525,-22.2425
1644,355531,1.610156,0.5875520000000001,-1.6521240000000001,-57.645,231.14,-38.325
1645,355627,1.319552,0.432856,-1.27978,-53.9525,192.0275,-43.995
1646,355724,1.872212,-0.169824,-1.414224,-37.59,164.08,-39.165
1647,355820,2.525156,-0.406992,-1.429352,-58.5025,116.7425,-16.0825
1648,355916,0.488,0.089792,-0.853024,-89.5825,22.2075,-34.265
1649,356013,0.648796,0.273036,-0.945744,-40.845,39.6025,-20.405
1650,356109,0.801296,-0.190564,-0.9189040999999999,-35.7175,19.9325,-19.775
1651,356205,0.666852,-0.153232,-0.805932,-28.6825,15.6975,-13.965
1652,356301,0.709064,-0.06124401,-0.879376,-27.0725,10.08,-14.14
1653,356398,0.657824,-0.05977999999999999,-0.8581479999999999,-20.6675,3.01,-12.74
1654,356494,0.640256,-0.060512,-0.847412,-14.595,-1.4175,-10.6225
1655,356590,0.6156119999999999,-0.028548,-0.8342360000000001,-10.1675,-3.3775,-8.855
1656,356686,0.5997520000000001,-0.07612801,-0.8103239999999999,-6.2475,-4.2525,-7.175
1657,356783,0.59536,-0.100284,-0.7983680000000001,-3.9025,-4.97,-6.755
1658,356879,0.583404,-0.057339999999999995,-0.7956840999999999,-3.115,-6.44,-7.5075
1659,356975,0.582428,-0.049776,-0.7832399999999999,-1.9075,-7.28,-7.42
1660,357071,0.572912,-0.033428,-0.7734800000000001,-1.05,-7.56,-6.9475
1661,357168,0.574864,-0.06880801,-0.7617681,-0.7175,-7.56,-6.6675
1662,357264,0.593896,-0.12932000000000002,-0.803736,-0.9625,-6.9125,-6.65
1663,357360,0.5692520000000001,-0.061488,-0.8359440999999999,-1.5925,-6.5275,-6.7375
1664,357457,0.5543680000000001,-0.110044,-0.784704,-0.875,-5.95,-6.2825
1665,357553,0.5690081,-0.05856,-0.8025161,-1.2075,-4.795,-6.0025
1666,357649,0.5738880000000001,-0.07173600000000001,-0.792756,-0.5425,-4.6725,-5.775
1667,357745,0.5655920999999999,-0.068564,-0.794952,-0.595,-4.305,-5.565
1668,357842,0.5587601,-0.0732,-0.7929999999999999,-1.2075,-3.7625,-5.635
1669,357938,0.5653481,-0.07710399999999999,-0.794708,-2.205,-3.2375,-6.0725
1670,358034,0.56608,-0.05636401,-0.8015399999999999,-3.0625,-2.765,-6.4575
1671,358130,0.5604680000000001,-0.05856,-0.8010520000000001,-3.1325,-2.4675,-6.58
1672,358227,0.568276,-0.066856,-0.792024,-2.9925,-1.19,-6.1425
1673,358323,0.5753520000000001,-0.06539201,-0.800564,-3.325,0.9625,-5.2675
1674,358419,0.5753520000000001,-0.066124,-0.792756,-4.27,1.575,-5.565
1675,358515,0.574132,-0.07076001,-0.7993439999999999,-5.74,1.75,-6.055
1676,358612,0.580232,-0.06661201,-0.8010520000000001,-6.2825,2.0475,-6.055
1677,358708,0.568276,-0.057096,-0.8030041,-6.79,2.1525,-6.3175
1678,358804,0.5843801,-0.06954,-0.8142281,-7.42,2.1525,-6.9825
1679,358900,0.587796,-0.06880801,-0.8108121,-8.1025,0.595,-8.435
1680,358997,0.589504,-0.049288,-0.8049561,-8.6625,-0.5425,-9.135
1681,359093,0.600484,-0.05612,-0.8054439999999999,-8.4525,-0.595,-9.205
1682,359189,0.599264,-0.042212,-0.808372,-7.595,-0.77,-8.8375
1683,359285,0.5934081,-0.049288,-0.8095920999999999,-6.195,-0.8225,-8.1025
1684,359382,0.597068,-0.034892,-0.8100801,-4.8475,0.1225,-7.105
1685,359478,0.59536,-0.03904,-0.8025161,-3.08,1.2075,-5.7925
1686,359574,0.5926760999999999,-0.0366,-0.8105680000000001,-1.2075,2.66,-4.3925
1687,359670,0.591212,-0.053436000000000004,-0.8422879999999999,0.63,4.865,-3.43
1688,359767,0.5724239999999999,-0.047580000000000004,-0.8378960999999999,2.135,7.2625,-2.8
1689,359863,0.5121560000000001,0.020984,-0.8759601,3.885,10.8325,-2.275
1690,359960,0.386984,-0.11394800000000001,-0.9198799999999999,10.22,18.83,-3.22
1691,360056,0.383324,0.05002,-1.024068,14.91,36.6975,-2.94
1692,360152,0.374296,-0.133224,-0.9903959999999999,21.455,63.9625,-1.4175
1693,360248,0.392596,-0.160796,-1.0309,26.32,91.665,-3.955
1694,360344,0.348188,-0.209596,-1.074332,27.8425,122.9725,-16.45
1695,360441,0.3233,-0.331352,-1.100196,9.73,160.895,-36.5225
1696,360537,0.369904,-0.216428,-1.1270360000000001,-14.6825,194.6525,-60.3575
1697,360633,0.359412,-0.410652,-1.093608,-38.01,214.7075,-87.6575
1698,360729,0.489708,-0.18544000000000002,-0.9730721,-72.9225,245.4375,-106.61
