,T,ax,ay,az,gx,gy,gz
0,4040579,0.8958459999999999,-0.09455001,-0.146644,20.51,-19.845,-17.6925
1,4040719,0.9120720999999999,-0.060512,-0.20679,-43.155,26.7925,-23.9225
2,4040816,0.992226,-0.043432,-0.21899000000000002,-59.395,-70.49,-126.5425
3,4040912,1.0147959999999998,-0.0244,-0.205692,24.64,-102.7775,-55.4575
4,4041009,1.0232139999999998,-0.016225999999999997,-0.20996199999999998,1.89,-6.545,-7.3325
5,4041106,1.005036,-0.021106,-0.233752,1.925,-2.94,-4.585
6,4041203,0.9883221,-0.032574,-0.25790799999999997,2.835,-3.255,-3.6225
7,4041299,0.972218,-0.030622000000000003,-0.281942,4.3575,-4.1475,-2.905
8,4041396,0.9653860000000001,-0.015738,-0.29438600000000004,3.7275,-4.97,-2.5725
9,4041493,0.9372040999999999,-0.035013999999999997,-0.35197,-3.9375,-7.1225,-2.5725
10,4041589,0.9801479999999999,-0.012565999999999999,-0.391986,-25.3925,-2.135,-2.24
11,4041686,1.408124,-0.00061,-0.385276,-47.4425,10.745,-3.885
12,4041783,1.225368,-0.011346,-0.488122,-55.44,7.8225,-7.945
13,4041880,0.802272,-0.10809200000000001,-0.017568,-97.475,-30.8,-14.8575
14,4041976,0.622078,0.007564001,0.68747,-44.7475,-54.6,-10.1325
15,4042073,0.97234,-0.09162200000000001,0.07515201,31.605,-20.895,-5.5475
16,4042170,1.011624,-0.06466001,-0.22045399999999998,21.9975,-14.5075,-6.965
17,4042266,0.930494,-0.047458,-0.249734,9.4675,-11.5675,-5.95
18,4042363,0.9555040000000001,-0.055388,-0.262666,10.15,0.3325,-6.2125
19,4042460,0.9940559999999999,-0.036844,-0.24802600000000002,10.78,3.7975,-7.735
20,4042557,1.019798,-0.031842,-0.223992,12.0575,1.89,-8.015
21,4042653,1.016016,-0.037698,-0.20752199999999998,12.985,-1.575,-6.545
22,4042750,0.9941780000000001,-0.042456,-0.205326,13.2825,-5.565,-5.1625
23,4042847,0.9729501,-0.040504000000000005,-0.20776599999999998,13.615,-8.365,-4.935
24,4042943,0.9635560999999999,-0.040016,-0.20947399999999997,12.95,-8.925,-5.3025
25,4043040,0.9652639999999999,-0.037332,-0.21106,11.655,-7.2275,-5.6
26,4043137,0.9725841000000001,-0.037698,-0.21093800000000001,11.0075,-4.935,-5.7575
27,4043234,0.9775860000000001,-0.037576,-0.21057199999999998,10.745,-3.8325,-6.16
28,4043330,0.9803921,-0.039894,-0.21093800000000001,10.7975,-4.095,-6.3875
29,4043427,0.9818561,-0.042944,-0.213378,10.9025,-5.0575,-6.2125
30,4043524,0.980514,-0.043676,-0.21215799999999999,10.85,-5.88,-5.775
31,4043620,0.9766101,-0.04453,-0.21215799999999999,10.71,-6.0725,-5.46
32,4043717,0.9753901,-0.044407999999999996,-0.20691199999999998,10.3075,-5.985,-5.4075
33,4043814,0.9730721,-0.04575,-0.20703400000000002,10.08,-5.8625,-5.5475
34,4043911,0.972706,-0.046726,-0.20776599999999998,9.7475,-5.81,-5.7225
35,4044007,0.972828,-0.045627999999999995,-0.21142600000000003,9.625,-5.8275,-5.7575
36,4044104,0.97356,-0.046116000000000004,-0.21106,9.52,-5.6875,-5.53
37,4044201,0.97356,-0.044164,-0.210694,9.415,-5.5825,-5.4075
38,4044297,0.9751460999999999,-0.045872,-0.20923000000000003,9.52,-5.4425,-5.3725
39,4044394,0.9751460999999999,-0.044774,-0.20483800000000002,9.485,-5.145,-5.46
40,4044491,0.97478,-0.044407999999999996,-0.20178800000000002,9.2225,-5.1975,-5.3725
41,4044588,0.9745360000000001,-0.044652,-0.202764,8.8725,-5.6875,-5.2675
42,4044684,0.9764879999999999,-0.04392,-0.200202,8.7675,-5.8625,-5.1975
43,4044781,0.9744141,-0.042944,-0.20008,8.61,-5.845,-4.9875
44,4044878,0.976,-0.040504000000000005,-0.20008,8.47,-5.7225,-4.97
45,4044974,0.974658,-0.040748,-0.20008,8.2775,-5.5125,-4.8475
46,4045071,0.9740479999999999,-0.041236,-0.203008,7.91,-5.4075,-4.76
47,4045168,0.971242,-0.041724000000000004,-0.20105599999999998,7.4375,-5.145,-4.725
48,4045265,0.9739261,-0.041602,-0.196298,6.9475,-4.76,-4.76
49,4045361,0.972706,-0.039772,-0.194102,6.545,-4.4275,-4.7075
50,4045458,0.9744141,-0.038551999999999996,-0.19337000000000001,6.545,-4.06,-4.6025
51,4045555,0.9738041,-0.037332,-0.193248,6.5625,-3.7275,-4.585
52,4045651,0.9739261,-0.038186000000000005,-0.19483399999999998,6.7375,-3.6225,-4.515
53,4045748,0.972706,-0.037942000000000004,-0.192394,6.79,-3.4475,-4.4975
54,4045845,0.974292,-0.036966000000000006,-0.188612,6.895,-3.36,-4.445
55,4045941,0.9753901,-0.03477,-0.186904,6.9125,-3.045,-4.4625
56,4046038,0.97356,-0.035502,-0.185318,6.7725,-2.7125,-4.3225
57,4046135,0.9716081,-0.03416,-0.18629400000000002,6.65,-2.2925,-4.235
58,4046232,0.9730721,-0.032208,-0.185684,6.6675,-2.2225,-4.1125
59,4046328,0.9752681000000001,-0.030012,-0.18666,6.8075,-2.345,-4.1125
60,4046425,0.981124,-0.027327999999999998,-0.186782,7.3675,-2.24,-4.165
61,4046522,0.9856379999999999,-0.027816000000000004,-0.183976,8.0325,-2.03,-4.2
62,4046618,0.989664,-0.026351999999999997,-0.183122,8.365,-1.925,-4.0775
63,4046715,0.9910059999999999,-0.027938,-0.17995,8.645,-1.9775,-4.0075
64,4046812,0.989908,-0.028792,-0.178242,8.75,-1.785,-3.99
65,4046908,0.98759,-0.029158,-0.178974,8.785,-1.6625,-4.2
66,4047005,0.9867360999999999,-0.029401999999999998,-0.17836400000000002,8.645,-1.4875,-4.41
67,4047102,0.9874681000000001,-0.026718000000000002,-0.177998,8.7325,-1.3475,-4.7425
68,4047199,0.9882001,-0.02745,-0.17519200000000001,9.205,-1.3475,-5.04
69,4047295,0.987224,-0.025863999999999998,-0.176046,9.695,-1.3825,-5.1625
70,4047392,0.9858819999999999,-0.02623,-0.176534,10.08,-1.6275,-5.2325
71,4047489,0.9845401,-0.026474,-0.179584,9.9925,-1.6975,-5.3375
72,4047585,0.984296,-0.02684,-0.17751,9.94,-1.995,-5.495
73,4047682,0.9850280999999999,-0.027572000000000003,-0.17751,9.835,-2.205,-5.565
74,4047779,0.9863700000000001,-0.02684,-0.17995,9.7475,-2.4325,-5.775
75,4047876,0.987712,-0.02684,-0.178852,9.9225,-2.6425,-5.845
76,4047972,0.9910059999999999,-0.025131999999999998,-0.18056,10.1675,-2.8875,-5.8975
77,4048069,0.993568,-0.026108,-0.178242,10.43,-3.2025,-5.81
78,4048166,0.996008,-0.02501,-0.18068199999999998,10.6575,-3.465,-5.4075
79,4048262,0.9967401,-0.027938,-0.180194,11.1825,-3.675,-5.145
80,4048359,0.9975940999999999,-0.029524,-0.178608,11.6025,-3.99,-5.11
81,4048456,0.9972281,-0.032208,-0.180316,12.0225,-4.48,-5.18
82,4048552,0.9974719999999999,-0.033794,-0.180194,12.4425,-5.0575,-5.3375
83,4048649,0.99735,-0.035868000000000004,-0.17934,12.6875,-5.5125,-5.3025
84,4048746,0.9969841,-0.036112,-0.18117,12.9675,-6.02,-5.2675
85,4048842,0.9947881,-0.034038,-0.180804,13.37,-6.44,-5.18
86,4048939,0.9956421,-0.032818,-0.180316,13.685,-7.0875,-5.0575
87,4049036,0.993812,-0.030378,-0.17946199999999998,13.8775,-7.7,-4.9875
88,4049133,0.9933241,-0.029646,-0.183366,14.0,-8.3475,-4.935
89,4049229,0.995398,-0.032086,-0.185196,14.0875,-8.925,-4.9525
90,4049326,0.9949100000000001,-0.033062,-0.185928,14.1225,-9.3275,-4.9525
91,4049423,0.9940559999999999,-0.03416,-0.186538,14.0,-9.7125,-5.11
92,4049519,0.993568,-0.035136,-0.186538,13.7375,-10.115,-5.11
93,4049616,0.9918600000000001,-0.035136,-0.187026,13.4575,-10.675,-4.935
94,4049713,0.9901521000000001,-0.036966000000000006,-0.18629400000000002,13.16,-11.095,-4.9
95,4049810,0.987102,-0.036112,-0.185196,12.8975,-11.4275,-5.0225
96,4049906,0.9834421,-0.037942000000000004,-0.188124,12.5475,-11.76,-5.1975
97,4050003,0.981124,-0.038796,-0.18775799999999998,12.3025,-12.0925,-5.3725
98,4050100,0.9802700000000001,-0.040626,-0.18727,12.2675,-12.18,-5.4775
99,4050196,0.9802700000000001,-0.040260000000000004,-0.187636,12.1975,-12.285,-5.495
100,4050293,0.9806360000000001,-0.040504000000000005,-0.18849000000000002,12.18,-12.495,-5.3375
101,4050390,0.9828321,-0.039406000000000004,-0.188246,12.3025,-12.6875,-5.145
102,4050487,0.98088,-0.039284,-0.189588,12.425,-12.74,-5.0925
103,4050583,0.977342,-0.038918,-0.192028,12.5125,-12.7225,-5.0575
104,4050680,0.9770981,-0.038186000000000005,-0.191906,12.5825,-12.775,-5.04
105,4050777,0.9775860000000001,-0.040138,-0.191052,12.775,-12.74,-4.935
106,4050873,0.978684,-0.042944,-0.19178399999999998,12.9675,-12.67,-4.9175
107,4050970,0.978806,-0.043676,-0.194346,13.125,-12.5475,-5.0575
108,4051067,0.98088,-0.046360000000000005,-0.198006,13.2125,-12.6,-5.075
109,4051164,0.9829540000000001,-0.046726,-0.201178,13.055,-12.565,-5.04
110,4051260,0.9827101,-0.046238,-0.19959200000000002,12.9675,-12.4425,-4.8825
111,4051357,0.9812460999999999,-0.044896,-0.198372,12.6875,-12.3725,-4.7775
112,4051454,0.9761219999999999,-0.045262000000000004,-0.20008,12.4425,-12.4075,-4.725
113,4051550,0.9744141,-0.043676,-0.199226,12.2325,-12.53,-4.6025
114,4051647,0.975878,-0.043798000000000004,-0.200202,12.2675,-12.6,-4.585
115,4051744,0.975878,-0.044774,-0.20252,12.7225,-12.7225,-4.4275
116,4051841,0.976366,-0.045018,-0.20483800000000002,13.3175,-12.8275,-4.4275
117,4051937,0.9772200999999999,-0.046360000000000005,-0.206668,13.5275,-12.985,-4.55
118,4052034,0.9768540000000001,-0.046726,-0.207156,13.58,-13.1775,-4.6725
119,4052131,0.9764879999999999,-0.047824,-0.208742,13.475,-13.16,-4.83
120,4052227,0.975024,-0.046848,-0.20788800000000002,13.055,-13.2125,-4.8825
121,4052324,0.9740479999999999,-0.046482,-0.211304,12.7925,-13.125,-5.0225
122,4052421,0.971974,-0.045627999999999995,-0.212402,12.6875,-13.0375,-5.1975
123,4052518,0.9720960999999999,-0.045262000000000004,-0.214598,12.6525,-12.985,-5.285
124,4052614,0.9714860000000001,-0.045262000000000004,-0.21618400000000002,12.67,-12.74,-5.4775
125,4052711,0.971974,-0.046116000000000004,-0.21862399999999999,12.9325,-12.6525,-5.5825
126,4052808,0.9711200999999999,-0.047945999999999996,-0.217648,13.4225,-12.53,-5.6175
127,4052904,0.9703879999999999,-0.050142,-0.22045399999999998,13.72,-12.635,-5.635
128,4053001,0.9707541,-0.049288,-0.222284,14.0175,-12.81,-5.7925
129,4053098,0.9718521000000001,-0.049776,-0.220942,14.1225,-12.7225,-6.055
130,4053195,0.972218,-0.0488,-0.22326,13.685,-12.39,-6.2825
131,4053291,0.9716081,-0.052216,-0.224602,13.37,-12.39,-6.475
132,4053388,0.9706319999999999,-0.052826,-0.228384,13.1775,-12.4775,-6.58
133,4053485,0.9703879999999999,-0.053070000000000006,-0.23009200000000002,13.195,-12.4425,-6.7025
134,4053581,0.9703879999999999,-0.05453401,-0.230336,13.2825,-12.4425,-6.65
135,4053678,0.9713639999999999,-0.054778,-0.228384,13.65,-12.74,-6.58
136,4053775,0.9703879999999999,-0.054167999999999994,-0.22777399999999998,13.9825,-13.335,-6.51
137,4053872,0.9688021000000001,-0.055510000000000004,-0.22643200000000002,13.72,-13.9825,-6.475
138,4053968,0.972218,-0.052703999999999994,-0.226188,13.09,-14.6125,-6.5625
139,4054065,0.9738041,-0.051972000000000004,-0.22326,13.4225,-15.4525,-6.755
140,4054162,0.9730721,-0.050142,-0.22472399999999998,14.2625,-16.6775,-6.8075
141,4054258,0.9718521000000001,-0.051484,-0.229726,14.63,-18.165,-6.825
142,4054355,0.97173,-0.05368,-0.236314,14.5775,-19.67,-7.0
143,4054452,0.9709979999999999,-0.05843801,-0.24058400000000002,14.315,-20.755,-7.3325
144,4054549,0.9720960999999999,-0.057218,-0.24766,13.755,-21.2975,-7.5775
145,4054645,0.9734381,-0.063074,-0.24912399999999998,13.65,-21.315,-7.7525
146,4054742,0.9736819999999999,-0.065148,-0.25254,14.21,-21.0175,-7.5775
147,4054839,0.9691681000000001,-0.062586,-0.259982,13.7725,-21.0875,-7.455
148,4054935,0.9679481,-0.05941401,-0.265228,12.6,-20.93,-7.4725
149,4055032,0.9627020000000001,-0.05563200000000001,-0.2745,12.11,-20.0725,-7.4375
150,4055129,0.957944,-0.057218,-0.274134,12.25,-18.7425,-7.5425
151,4055225,0.9548940999999999,-0.06039,-0.280356,12.285,-17.1325,-7.5425
152,4055322,0.9502581,-0.061854,-0.28316199999999997,11.6025,-15.855,-7.4375
153,4055419,0.9441579999999999,-0.06112201,-0.2806,10.9375,-15.2775,-7.245
154,4055516,0.9415959999999999,-0.059536,-0.28304,10.3425,-14.805,-7.0175
155,4055612,0.941108,-0.05624199999999999,-0.286578,9.6775,-14.385,-6.79
156,4055709,0.9386681,-0.057339999999999995,-0.28767600000000004,9.03,-13.9825,-6.6675
157,4055806,0.9409860999999999,-0.059048,-0.28767600000000004,8.295,-13.4575,-6.37
158,4055903,0.9433041,-0.06075601,-0.291092,7.665,-12.95,-5.9325
159,4055999,0.944768,-0.05977999999999999,-0.28987199999999996,7.0525,-12.67,-5.705
160,4056096,0.9441579999999999,-0.059902,-0.29036,6.37,-12.1975,-5.4075
161,4056193,0.9441579999999999,-0.060024,-0.290604,5.74,-11.76,-5.1975
162,4056289,0.9435479999999999,-0.06075601,-0.291946,5.3375,-11.4275,-5.04
163,4056386,0.942572,-0.059902,-0.29133600000000004,5.355,-11.165,-4.7775
164,4056483,0.942206,-0.060024,-0.290848,5.32,-11.025,-4.5675
165,4056579,0.9439139999999999,-0.05941401,-0.292678,5.1275,-10.71,-4.3575
166,4056676,0.94489,-0.05977999999999999,-0.291946,4.865,-10.045,-4.2
167,4056773,0.9456220999999999,-0.05917000000000001,-0.292556,4.4975,-9.4675,-4.095
168,4056870,0.9469641,-0.056608000000000006,-0.29072600000000004,3.9025,-8.8725,-3.9025
169,4056966,0.948306,-0.0549,-0.289506,2.8875,-8.2425,-3.6225
170,4057063,0.949526,-0.054412,-0.28926199999999996,1.855,-7.4375,-3.3775
171,4057160,0.9472079999999999,-0.055510000000000004,-0.28486999999999996,1.12,-6.9125,-3.185
172,4057256,0.9450120000000001,-0.055754,-0.283894,0.5425,-6.8775,-3.0975
173,4057353,0.9465981,-0.056729999999999996,-0.285846,0.035,-6.895,-3.045
174,4057450,0.9487940999999999,-0.05917000000000001,-0.28365,-0.21,-6.9125,-3.0275
175,4057547,0.951356,-0.058926,-0.282674,-0.315,-6.615,-2.94
176,4057643,0.9525761,-0.05843801,-0.28486999999999996,-0.4375,-6.265,-2.8
177,4057740,0.9524540000000001,-0.060267999999999995,-0.284016,-0.35,-5.7925,-2.8175
178,4057837,0.9540401,-0.060146000000000005,-0.281698,-0.21,-5.3725,-2.73
179,4057934,0.954406,-0.059902,-0.27816,0.175,-5.1625,-2.59
180,4058030,0.954406,-0.059536,-0.278404,0.6125,-5.0575,-2.6075
181,4058127,0.9547720999999999,-0.058803999999999995,-0.279258,1.1025,-5.1275,-2.87
182,4058224,0.957822,-0.05843801,-0.281332,1.575,-5.3725,-2.9925
183,4058320,0.9587979999999999,-0.058682000000000005,-0.282796,2.0125,-5.5125,-3.08
184,4058417,0.9591639999999999,-0.05648601,-0.28011199999999997,2.31,-5.495,-3.0625
185,4058514,0.95709,-0.057339999999999995,-0.27889200000000003,2.3625,-5.355,-2.905
186,4058611,0.954528,-0.056852,-0.276574,2.1,-5.2325,-2.9225
187,4058707,0.9541620000000001,-0.056974000000000004,-0.27876999999999996,1.855,-5.2325,-2.8
188,4058804,0.9567241,-0.055998,-0.280844,1.61,-5.2325,-2.695
189,4058901,0.9563581,-0.05453401,-0.281454,1.295,-5.3375,-2.52
190,4058998,0.9567241,-0.053191999999999996,-0.287554,0.9275,-5.3725,-2.6075
191,4059094,0.955626,-0.053070000000000006,-0.285114,0.7175,-5.425,-2.7125
192,4059191,0.9526979999999999,-0.052582000000000004,-0.28365,0.4725,-5.1975,-2.7825
193,4059288,0.9503799999999999,-0.05209400000000001,-0.284382,0.28,-5.2325,-2.8875
194,4059384,0.9490379999999999,-0.050996,-0.282186,0.2275,-5.0575,-3.0275
195,4059481,0.9486720999999999,-0.050142,-0.28462600000000005,0.105,-4.97,-3.0275
196,4059578,0.94916,-0.049898000000000005,-0.285236,-0.07,-5.1275,-3.01
197,4059675,0.9492821,-0.051362,-0.285602,-0.175,-5.285,-3.01
198,4059771,0.9514780999999999,-0.05209400000000001,-0.288042,-0.2625,-5.495,-3.0275
199,4059868,0.9530641,-0.051118000000000004,-0.288042,-0.4375,-5.3375,-3.045
200,4059965,0.952942,-0.05124001,-0.287188,-0.2975,-5.25,-3.045
201,4060061,0.952332,-0.049288,-0.28731,-0.2625,-5.53,-3.045
202,4060158,0.9514780999999999,-0.050752,-0.288652,-0.4375,-5.6525,-3.01
203,4060255,0.9511120000000001,-0.050874,-0.288652,-0.1925,-5.5125,-3.0975
204,4060352,0.9526979999999999,-0.052948,-0.285358,0.07,-5.3375,-3.15
205,4060448,0.9537959999999999,-0.053314,-0.285236,-0.105,-5.2675,-3.22
206,4060545,0.9525761,-0.055265999999999996,-0.28486999999999996,-0.14,-5.32,-3.2025
207,4060642,0.9526979999999999,-0.055510000000000004,-0.28621199999999997,-0.21,-5.355,-3.3425
208,4060739,0.9519661,-0.055144000000000006,-0.28609,-0.175,-5.215,-3.3425
209,4060835,0.951722,-0.054655999999999996,-0.286456,-0.0875,-5.0925,-3.185
210,4060932,0.9514780999999999,-0.053801999999999996,-0.287432,-0.14,-4.8475,-3.2025
211,4061029,0.9503799999999999,-0.05429,-0.285724,-0.14,-4.6375,-3.1325
212,4061125,0.9500139999999999,-0.054167999999999994,-0.28462600000000005,-0.1225,-4.4275,-3.15
213,4061222,0.9520881,-0.05429,-0.288164,-0.315,-4.5675,-3.15
214,4061319,0.951844,-0.054046000000000004,-0.28853,-0.35,-4.62,-3.1675
215,4061416,0.9530641,-0.053436000000000004,-0.28767600000000004,-0.1925,-4.76,-2.975
216,4061512,0.9519661,-0.05368,-0.288896,-0.3325,-4.655,-2.9925
217,4061609,0.9516,-0.053314,-0.288896,-0.245,-4.69,-2.9925
218,4061706,0.9514780999999999,-0.053314,-0.288408,-0.455,-4.62,-2.9225
219,4061803,0.9497701,-0.053801999999999996,-0.287798,-0.665,-4.375,-2.975
220,4061899,0.9494040000000001,-0.052948,-0.287188,-0.945,-3.99,-2.905
221,4061996,0.9474520000000001,-0.051362,-0.28682199999999997,-1.225,-3.8675,-2.8875
222,4062093,0.9492821,-0.050508,-0.288164,-1.4,-3.7275,-2.8875
223,4062189,0.9502581,-0.05172801,-0.288896,-1.3475,-3.675,-2.835
224,4062286,0.951722,-0.050263999999999996,-0.288408,-1.2775,-3.5175,-2.7475
225,4062383,0.9519661,-0.049776,-0.288286,-1.295,-3.4475,-2.73
226,4062480,0.9507460999999999,-0.049654000000000004,-0.287798,-1.33,-3.2375,-2.7125
227,4062576,0.9519661,-0.048922,-0.28633400000000003,-1.3825,-3.0975,-2.765
228,4062673,0.949892,-0.048068,-0.285968,-1.5225,-2.905,-2.6425
229,4062770,0.9489161,-0.048312,-0.28633400000000003,-1.68,-2.7475,-2.66
230,4062866,0.948306,-0.046726,-0.28609,-1.8725,-2.5375,-2.7475
231,4062963,0.9492821,-0.047458,-0.286578,-1.925,-2.4675,-2.7825
232,4063060,0.950868,-0.045872,-0.28462600000000005,-1.855,-2.5375,-2.7475
233,4063157,0.9512341000000001,-0.047214,-0.285602,-1.6975,-2.3275,-2.8175
234,4063253,0.951844,-0.047458,-0.28426,-1.82,-2.345,-2.765
235,4063350,0.9525761,-0.047214,-0.282674,-1.9775,-2.2575,-2.7825
236,4063447,0.9530641,-0.047092,-0.28243,-1.9075,-2.1525,-2.835
237,4063543,0.9535521,-0.047458,-0.282674,-1.9075,-2.1175,-2.8175
238,4063640,0.9540401,-0.047092,-0.281332,-2.135,-2.1,-2.8175
239,4063737,0.9531860000000001,-0.046238,-0.281332,-2.38,-1.9775,-2.73
240,4063834,0.952332,-0.045872,-0.281698,-2.3975,-1.7675,-2.6775
241,4063930,0.9528200000000001,-0.045506,-0.279746,-2.275,-1.645,-2.6775
242,4064027,0.9540401,-0.046116000000000004,-0.276696,-2.2575,-1.54,-2.6425
243,4064124,0.9541620000000001,-0.045018,-0.275354,-2.555,-1.3475,-2.66
244,4064221,0.9531860000000001,-0.044896,-0.27523200000000003,-2.7475,-1.365,-2.7475
245,4064317,0.9547720999999999,-0.04514,-0.275476,-2.7825,-1.225,-2.7475
246,4064414,0.95465,-0.04392,-0.27389,-2.7475,-1.0675,-2.695
247,4064511,0.9552601000000001,-0.04514,-0.271328,-2.7125,-1.015,-2.765
248,4064607,0.9551379999999999,-0.043554,-0.270596,-2.6775,-0.9275,-2.625
249,4064704,0.9552601000000001,-0.044286,-0.270474,-2.7475,-0.8225,-2.66
250,4064801,0.9558701,-0.04331,-0.268278,-2.6425,-0.7525,-2.59
251,4064898,0.957456,-0.042822000000000006,-0.266326,-2.5025,-0.5775,-2.555
252,4064994,0.9585541,-0.042212,-0.263398,-2.345,-0.4375,-2.5375
253,4065091,0.9580661,-0.041114,-0.263398,-2.275,-0.3325,-2.485
254,4065188,0.958432,-0.041114,-0.260714,-2.205,-0.3325,-2.5025
255,4065285,0.9580661,-0.04087,-0.259128,-2.24,-0.1225,-2.59
256,4065381,0.9575780999999999,-0.03965,-0.258152,-2.3625,0.0875,-2.6425
257,4065478,0.9595300999999999,-0.040138,-0.255712,-2.1875,0.2275,-2.66
258,4065575,0.959408,-0.041602,-0.25437,-1.8025,0.455,-2.6075
259,4065671,0.9595300999999999,-0.040260000000000004,-0.25315,-1.715,0.665,-2.59
260,4065768,0.96014,-0.040626,-0.253394,-1.4525,0.77,-2.5375
261,4065865,0.9591639999999999,-0.03904,-0.251198,-1.295,0.875,-2.625
262,4065962,0.9600181000000001,-0.038918,-0.247416,-1.1725,1.12,-2.5025
263,4066058,0.9592860000000001,-0.037088,-0.24583000000000002,-1.0675,1.4175,-2.5025
264,4066155,0.9577,-0.035868000000000004,-0.245464,-1.085,1.61,-2.5725
265,4066252,0.9585541,-0.034526,-0.24339,-1.12,1.61,-2.695
266,4066348,0.9633120999999999,-0.032695999999999996,-0.23973000000000003,-1.085,1.75,-2.73
267,4066445,0.9652639999999999,-0.032451999999999995,-0.23521599999999998,-1.0675,1.9775,-2.94
268,4066542,0.9668501,-0.032330000000000005,-0.229238,-1.2425,2.1,-3.0975
269,4066639,0.96929,-0.032695999999999996,-0.22862800000000003,-1.5925,1.9075,-3.325
270,4066735,0.972828,-0.03416,-0.225456,-1.7325,1.82,-3.5
271,4066832,0.9734381,-0.034526,-0.22252800000000003,-1.96,1.645,-3.57
272,4066929,0.9729501,-0.033916,-0.22362600000000002,-2.0825,1.4175,-3.5175
273,4067026,0.9739261,-0.033794,-0.220698,-2.17,1.435,-3.325
274,4067122,0.974658,-0.033306,-0.219966,-2.52,1.54,-3.2375
275,4067219,0.975024,-0.030866,-0.219356,-2.66,1.785,-3.1325
276,4067316,0.976366,-0.031110000000000002,-0.21594000000000002,-2.7475,1.96,-3.045
277,4067412,0.975512,-0.031354,-0.214964,-2.905,1.995,-2.9575
278,4067509,0.978318,-0.031842,-0.214354,-2.6425,1.8725,-2.7825
279,4067606,0.9799041,-0.032695999999999996,-0.20556999999999997,-2.45,1.925,-2.6075
280,4067703,0.98088,-0.032818,-0.207644,-2.555,1.9425,-2.3975
281,4067799,0.9828321,-0.032208,-0.20447200000000001,-2.9925,1.75,-2.2225
282,4067896,0.9821,-0.032086,-0.20105599999999998,-3.5875,1.5925,-2.1
283,4067993,0.9822219999999999,-0.030622000000000003,-0.200934,-4.06,1.2775,-2.03
284,4068090,0.9829540000000001,-0.027572000000000003,-0.199958,-4.4275,1.1025,-1.82
285,4068186,0.9829540000000001,-0.026718000000000002,-0.20008,-4.7775,1.1025,-1.4875
286,4068283,0.984174,-0.025498,-0.201422,-5.18,1.0675,-1.155
287,4068380,0.9813681000000001,-0.025986000000000002,-0.200812,-5.46,0.875,-0.8400001
288,4068476,0.9803921,-0.026108,-0.19959200000000002,-5.5475,0.63,-0.3675
289,4068573,0.9791719999999999,-0.025863999999999998,-0.196786,-5.5475,0.3325,0.07
290,4068670,0.97783,-0.024034,-0.19825,-5.7925,0.175,0.315
291,4068767,0.978684,-0.022813999999999997,-0.199958,-6.51,0.0525,0.4375
292,4068863,0.9803921,-0.021228,-0.19764,-7.175,-0.175,0.5425
293,4068960,0.980758,-0.021228,-0.195932,-7.315,-0.42,0.805
294,4069057,0.9772200999999999,-0.021106,-0.19702999999999998,-7.1575,-0.8400001,1.505
295,4069154,0.976,-0.02074,-0.194956,-6.86,-1.33,2.205
296,4069250,0.9745360000000001,-0.019398,-0.190564,-6.545,-1.61,2.9225
297,4069347,0.9688021000000001,-0.0183,-0.188856,-6.195,-1.75,3.535
298,4069444,0.9675819999999999,-0.020008,-0.186416,-5.705,-1.505,4.165
299,4069541,0.969534,-0.016347999999999998,-0.182756,-5.04,-1.33,4.795
300,4069637,0.973194,-0.017202000000000002,-0.17921800000000002,-4.375,-1.3475,5.4425
301,4069734,0.976,-0.016347999999999998,-0.17738800000000002,-4.1825,-1.12,5.915
302,4069831,0.9856379999999999,-0.016958,-0.17568,-4.1125,-0.9625,6.37
303,4069928,0.986614,-0.018788,-0.17385,-4.0075,-1.1025,6.9475
304,4070024,0.985516,-0.02135,-0.169336,-4.13,-1.33,7.3675
305,4070121,0.984784,-0.021838,-0.17568,-4.2,-1.68,7.735
306,4070218,0.9883221,-0.026474,-0.18056,-3.4125,-2.4325,7.7875
307,4070314,0.9933241,-0.028792,-0.178974,-2.38,-2.835,7.8575
308,4070411,0.9939341,-0.031964,-0.17616800000000002,-1.6975,-2.73,7.6475
309,4070508,0.995886,-0.035013999999999997,-0.17738800000000002,-1.295,-2.7475,6.9825
310,4070605,0.9939341,-0.034892,-0.186782,-0.8925,-3.115,6.545
311,4070701,0.9928360999999999,-0.037088,-0.198494,0.35,-3.1675,6.02
312,4070798,0.9929581000000001,-0.038308,-0.200446,2.2925,-2.66,5.705
313,4070895,0.9910059999999999,-0.038918,-0.204716,3.9725,-2.17,5.4075
314,4070992,0.9858819999999999,-0.039772,-0.211304,5.2675,-2.24,5.075
315,4071088,0.9833200000000001,-0.044774,-0.212646,6.4925,-2.205,4.7075
316,4071185,0.981978,-0.049654000000000004,-0.21215799999999999,7.735,-2.0825,4.2875
317,4071282,0.9857600000000001,-0.055388,-0.21386599999999997,9.3975,-2.59,4.095
318,4071378,0.987224,-0.05587601,-0.22045399999999998,10.6575,-3.9025,3.9025
319,4071475,0.9883221,-0.052826,-0.22630999999999998,10.5175,-4.9875,3.535
320,4071572,0.984174,-0.05124001,-0.229116,9.9925,-5.6,2.9925
321,4071669,0.977342,-0.051972000000000004,-0.229726,10.0975,-5.915,2.38
322,4071765,0.9706319999999999,-0.05843801,-0.233508,10.5525,-6.405,2.1875
323,4071862,0.9674601,-0.060024,-0.243756,10.7625,-7.3675,2.1
324,4071959,0.968924,-0.05856,-0.242292,11.9175,-8.12,2.0125
325,4072055,0.9683141,-0.05977999999999999,-0.238632,14.0175,-8.19,2.24
326,4072152,0.961482,-0.066978,-0.241682,16.415,-8.5225,2.7825
327,4072249,0.9641661,-0.074298,-0.24095,19.1975,-9.7825,3.255
328,4072346,0.9703879999999999,-0.080886,-0.24522,22.015,-11.2525,3.185
329,4072442,0.978318,-0.08954801,-0.252784,25.0075,-12.46,2.94
330,4072539,0.9800261,-0.092964,-0.244854,28.8225,-13.16,2.625
331,4072636,0.972828,-0.09698999999999999,-0.227408,32.235,-13.16,2.3975
332,4072732,0.95831,-0.10248,-0.215574,34.755,-13.51,1.75
333,4072829,0.9368380999999999,-0.110898,-0.198372,36.365,-14.245,0.42
334,4072926,0.9202459999999999,-0.12651400000000002,-0.184342,36.8725,-14.42,-1.9775
335,4073023,0.9125601000000001,-0.141276,-0.168848,36.3125,-13.72,-4.8825
336,4073119,0.9154880999999999,-0.15945399999999998,-0.159088,34.58,-12.88,-8.1025
337,4073216,0.9263459999999999,-0.17397200000000002,-0.15067,31.2725,-12.3725,-10.9375
338,4073313,0.9437921,-0.184098,-0.146278,26.88,-12.39,-13.4225
339,4073410,0.9655081,-0.198982,-0.145424,22.225,-12.425,-14.875
340,4073506,0.9851501,-0.21008400000000002,-0.144326,17.7975,-12.74,-15.3125
341,4073603,0.9994241,-0.22021,-0.13969,14.455,-13.44,-14.35
342,4073700,1.006744,-0.22265,-0.140544,11.6725,-14.6825,-12.6
343,4073796,1.022238,-0.227042,-0.132248,9.555,-16.1525,-10.29
344,4073893,1.033462,-0.216916,-0.13785999999999998,9.1175,-16.1525,-7.3675
345,4073990,1.040294,-0.19702999999999998,-0.13969,9.52,-15.1725,-3.955
346,4074087,1.031754,-0.17763199999999998,-0.13456600000000002,10.395,-13.3875,-0.77
347,4074183,1.016504,-0.161406,-0.12761199999999998,11.1125,-11.76,1.68
348,4074280,0.9994241,-0.15201199999999998,-0.124928,11.6025,-11.4275,3.255
349,4074377,0.9894200000000001,-0.14701,-0.119682,12.215,-11.7775,3.815
350,4074474,0.97783,-0.14579,-0.115168,12.7575,-11.5325,3.535
351,4074570,0.965752,-0.148474,-0.109556,13.23,-10.885,2.5725
352,4074667,0.9592860000000001,-0.15677,-0.10430999999999999,14.0175,-10.185,1.3475
353,4074764,0.9516,-0.163724,-0.094306,15.05,-9.975,0.2275
354,4074860,0.94245,-0.17128800000000002,-0.090158,15.785,-10.2025,-0.7525
355,4074957,0.9368380999999999,-0.177144,-0.08576601,16.2925,-10.4825,-2.03
356,4075054,0.934642,-0.182756,-0.08479,16.03,-10.6575,-3.675
357,4075151,0.9324460999999999,-0.18556199999999998,-0.07417601,15.05,-10.605,-5.1975
358,4075247,0.9307380999999999,-0.18239,-0.07173600000000001,13.2125,-10.1325,-6.895
359,4075344,0.9351299999999999,-0.180316,-0.074786,10.6925,-10.29,-8.6275
360,4075441,0.9412299999999999,-0.17934,-0.080764,7.9275,-11.1825,-10.535
361,4075538,0.9501360999999999,-0.18470799999999998,-0.08527801,5.4425,-12.39,-12.25
362,4075634,0.9572120999999999,-0.183366,-0.08893801,3.3775,-13.7375,-13.615
363,4075731,0.9598959999999999,-0.181658,-0.097478,1.6625,-14.77,-14.7
364,4075828,0.963922,-0.17873,-0.103334,0.1925,-15.3475,-15.5925
365,4075924,0.97173,-0.17616800000000002,-0.10223600000000001,-0.7875,-15.5925,-16.0475
366,4076021,0.978318,-0.173362,-0.114436,-1.47,-15.2775,-15.6625
367,4076118,0.980514,-0.166286,-0.118218,-1.54,-16.0825,-14.84
368,4076215,0.987956,-0.161528,-0.119804,-2.5375,-16.695,-14.2975
369,4076311,0.9964959999999999,-0.15616,-0.126636,-4.1475,-17.045,-13.685
370,4076408,0.9990581000000001,-0.149084,-0.125782,-5.53,-17.57,-12.6875
371,4076505,0.9966181000000001,-0.144204,-0.12261,-6.5625,-17.745,-11.7075
372,4076602,0.993812,-0.14566800000000002,-0.119682,-6.8075,-17.71,-10.78
373,4076698,0.9857600000000001,-0.142374,-0.115534,-6.895,-17.535,-9.94
374,4076795,0.979416,-0.143716,-0.10223600000000001,-6.7725,-16.9925,-9.38
375,4076892,0.9797819999999999,-0.145058,-0.087108,-6.51,-16.135,-8.925
376,4076988,0.9736819999999999,-0.141154,-0.080154,-6.545,-15.33,-8.4525
377,4077085,0.968192,-0.140666,-0.07002799999999999,-6.195,-15.3825,-8.12
378,4077182,0.96624,-0.142008,-0.059536,-5.6525,-15.1375,-7.8225
379,4077279,0.962458,-0.14310599999999998,-0.05124001,-4.8475,-14.595,-7.9625
380,4077375,0.9563581,-0.14469200000000002,-0.032818,-3.4825,-13.8075,-8.6975
381,4077472,0.95099,-0.14871800000000002,-0.025254,-2.8,-12.7225,-9.8
382,4077569,0.9442801,-0.148596,-0.014274,-3.3075,-11.4625,-10.99
383,4077665,0.9404981,-0.152622,0.002196,-4.0425,-8.9425,-12.2675
384,4077762,0.9541620000000001,-0.167262,-0.046604,-5.4075,-6.3525,-13.58
385,4077859,1.014186,-0.156892,-0.130906,-6.72,-8.3825,-14.0525
386,4077956,1.1660760000000001,-0.14188599999999998,-0.31402800000000003,-6.86,-14.0175,-13.16
387,4078052,1.310402,-0.081374,-0.464454,0.49,-22.26,-7.9975
388,4078149,1.38897,-0.07698201,-0.416386,25.515,-20.895,-0.98
389,4078246,1.410198,-0.047214,-0.4087,36.9075,-11.3225,7.21
390,4078343,1.383846,0.041724000000000004,-0.335256,32.48,-4.8475,12.6525
391,4078439,1.265628,0.044407999999999996,-0.23058,25.3225,8.0325,10.465
392,4078536,1.1354540000000002,-0.008174001,-0.160552,18.165,17.1675,3.6225
393,4078633,1.08946,-0.08564401,-0.22057600000000002,10.955,7.2625,-5.8625
394,4078730,1.135942,-0.187148,-0.260226,6.7375,-11.62,-15.3475
395,4078826,1.165832,-0.24570799999999998,-0.254736,6.3,-16.8,-23.765
396,4078923,1.158756,-0.280966,-0.279136,5.6875,-11.0425,-31.535
397,4079020,1.11325,-0.279502,-0.304146,2.03,-9.6775,-37.205
398,4079117,1.041148,-0.244,-0.308294,-3.7275,-11.935,-38.57
399,4079213,0.9623360999999999,-0.196054,-0.310368,-13.3525,-11.655,-35.42
400,4079310,0.8849879999999999,-0.131028,-0.318176,-26.215,-7.6475,-28.2625
401,4079407,0.817156,-0.082838,-0.319884,-38.535,-1.6975,-20.16
402,4079503,0.76189,-0.047580000000000004,-0.316346,-46.34,3.675,-11.9175
403,4079600,0.7260220000000001,-0.017324000000000003,-0.318786,-48.3875,6.9475,-4.2525
404,4079697,0.714066,0.004392,-0.324276,-44.1875,6.7725,2.0475
405,4079794,0.7299260999999999,0.015616,-0.31537,-35.35,4.0775,7.0
406,4079890,0.764696,0.010126000000000001,-0.306098,-23.975,1.26,10.325
407,4079985,0.8081281,0.011346,-0.309148,-14.3325,-1.9425,12.0225
408,4080082,0.8540000000000001,0.017202000000000002,-0.31415,-8.3825,-5.7925,11.6725
409,4080179,0.8949921000000001,0.01586,-0.318786,-5.7575,-9.9225,9.415
410,4080275,0.9264680000000001,0.005734,-0.320494,-4.34,-13.2125,6.265
411,4080372,0.9418401,-0.025254,-0.30475599999999997,-3.185,-14.77,2.2925
412,4080469,0.9256141,-0.048922,-0.2806,-2.87,-13.5625,-1.155
413,4080565,0.8897459999999999,-0.064538,-0.275476,-3.4825,-11.2875,-3.6925
414,4080662,0.86559,-0.07234600000000001,-0.27145,-4.725,-10.885,-5.495
415,4080759,0.8602221,-0.062952,-0.265838,-5.635,-10.8325,-6.5625
416,4080856,0.8596120999999999,-0.030622000000000003,-0.260714,-6.09,-9.8875,-7.0875
417,4080952,0.8668100000000001,0.009150001,-0.24802600000000002,-6.895,-9.7475,-7.21
418,4081049,0.883768,0.046116000000000004,-0.24192600000000003,-7.6825,-9.87,-6.755
419,4081146,0.8945040000000001,0.07515201,-0.23058,-8.26,-9.6775,-5.6175
420,4081243,0.8982860999999999,0.080276,-0.222894,-8.82,-9.2575,-3.7625
421,4081339,0.8949921000000001,0.081252,-0.215452,-8.7675,-8.33,-1.1025
422,4081436,0.8940161,0.07856801,-0.203496,-8.505,-7.0,1.225
423,4081533,0.8908440999999999,0.082838,-0.18251199999999998,-7.9975,-4.7775,2.66
424,4081630,0.8934059999999999,0.072712,-0.170922,-7.21,-2.4325,2.7475
425,4081726,0.8968221,0.075396,-0.156648,-6.3,-1.785,2.6075
426,4081823,0.9093880999999999,0.064172,-0.155672,-5.7225,-2.17,2.205
427,4081920,0.9234180000000001,0.064782,-0.162626,-5.1975,-2.7125,1.1725
428,4082017,0.940254,0.048556,-0.173484,-5.215,-3.3075,-0.385
429,4082113,0.9456220999999999,0.043432,-0.16433399999999998,-3.045,-3.185,-1.2425
430,4082210,0.9437921,0.024766,-0.15006,0.315,-2.4325,-3.0625
431,4082307,0.9317141,0.024888,-0.135908,4.0075,-1.47,-3.99
432,4082403,0.927688,0.01769,-0.14347200000000002,6.755,-0.8400001,-4.69
433,4082500,0.9167081,0.027572000000000003,-0.131638,10.5175,-0.7175,-4.4975
434,4082597,0.9148780000000001,0.018056,-0.139812,11.9,0.2275,-4.445
435,4082694,0.916586,0.02684,-0.130052,14.0875,0.7,-3.745
436,4082790,0.927932,0.033428,-0.11345999999999999,15.54,1.225,-3.9725
437,4082887,0.942694,0.025498,-0.110776,19.005,3.815,-4.725
438,4082984,0.9496479999999999,0.025498,-0.11834000000000001,23.38,5.4075,-4.76
439,4083081,0.9463540000000001,0.013297999999999999,-0.12248800000000001,26.0225,5.18,-4.2
440,4083177,0.9293961,0.002196,-0.116754,24.675,5.075,-3.395
441,4083274,0.913292,-0.007686,-0.101016,20.09,6.5975,-3.2025
442,4083371,0.9060940000000001,-0.010004,-0.091378,13.37,8.9775,-4.0075
443,4083468,0.9125601000000001,-0.015372,-0.069662,9.17,12.3725,-5.075
444,4083564,0.9287861,-0.027206,-0.036722000000000005,10.7275,16.8,-4.725
445,4083661,0.9480620000000001,-0.050142,0.022203999999999998,18.76,20.825,-2.4675
446,4083758,0.969412,-0.061732,0.034648000000000005,29.4,22.9075,2.3625
447,4083854,1.034316,-0.050386,-0.09650201,41.7725,18.13,8.4525
448,4083951,1.161196,-0.038551999999999996,-0.273158,51.66,1.365,13.0725
449,4084048,1.334192,-0.039284,-0.417728,42.3675,-15.26,11.7425
450,4084145,1.4995020000000001,-0.05941401,-0.583282,19.1275,-18.095,2.45
451,4084241,1.555988,-0.104066,-0.5577840000000001,2.0125,-8.5925,-8.8375
452,4084338,1.509628,-0.159088,-0.46481999999999996,-7.245,15.435,-15.05
453,4084435,1.43106,-0.22204000000000002,-0.5221600000000001,-3.395,33.74,-13.65
454,4084531,1.347612,-0.30988000000000004,-0.5635180000000001,-1.4875,26.075,-13.2475
455,4084628,1.1981620000000002,-0.21032800000000001,-0.49751599999999996,-8.19,23.59,-19.6175
456,4084725,1.097512,-0.106262,-0.29792399999999997,5.9325,29.085,-22.47
457,4084822,1.015406,-0.10126,-0.278404,26.6175,8.6625,-13.685
458,4084918,0.9423280999999999,-0.041968,-0.4026,31.675,-27.055,1.5225
459,4085015,0.9225639999999999,-0.027938,-0.374418,35.595,-34.72,10.36
460,4085112,0.9354959999999999,0.005612,-0.348432,31.0625,-16.7125,12.5475
461,4085209,0.92537,-0.00244,-0.270474,21.945,3.01,10.045
462,4085305,0.9171961,-0.031598,-0.249002,7.1225,9.8,5.215
463,4085402,0.9093880999999999,-0.08918200000000001,-0.24790399999999999,-2.8875,6.7725,0.0
464,4085499,0.901336,-0.13944600000000001,-0.23826599999999998,-6.5275,4.1825,-4.13
465,4085595,0.916342,-0.14579,-0.24875799999999998,-7.9625,5.11,-6.09
466,4085692,0.9296399999999999,-0.12456199999999999,-0.25925,-7.6475,5.2675,-5.985
467,4085789,0.934642,-0.09577000000000001,-0.262544,-6.9825,3.6575,-4.165
468,4085886,0.921832,-0.087962,-0.249246,-3.9025,1.4875,-1.0325
469,4085982,0.880352,-0.101504,-0.24851399999999998,-0.14,-1.3825,3.15
470,4086079,0.82411,-0.11407,-0.233264,1.4525,-5.0925,6.65
471,4086176,0.7822640000000001,-0.13639600000000002,-0.223016,0.6125,-6.93,8.0325
472,4086273,0.762134,-0.15006,-0.219966,-1.505,-5.5475,7.945
473,4086369,0.758108,-0.157746,-0.217648,-3.9725,-2.5375,6.44
474,4086466,0.776408,-0.165188,-0.203252,-5.67,0.6125,3.395
475,4086563,0.796782,-0.161406,-0.190076,-5.5125,3.1325,-0.5075
476,4086659,0.811666,-0.158356,-0.159942,-4.095,3.4825,-4.06
477,4086756,0.822768,-0.156404,-0.135786,-2.7825,1.1025,-6.615
478,4086853,0.8337481,-0.15799000000000002,-0.128832,-2.9225,-1.1375,-8.4875
479,4086950,0.8332601000000001,-0.158112,-0.121512,-3.325,-2.66,-10.5525
480,4087046,0.8411900999999999,-0.15701400000000001,-0.111752,-5.6875,-4.305,-11.69
481,4087143,0.8604661,-0.17433800000000002,-0.09418401,-9.135,-5.4775,-11.4275
482,4087240,0.877058,-0.170312,-0.08893801,-12.075,-4.2,-10.8325
483,4087336,0.8885261000000001,-0.144082,-0.081374,-16.8,-2.73,-9.59
484,4087433,0.895236,-0.125904,-0.060024,-21.525,-2.2575,-8.1725
485,4087530,0.8887700000000001,-0.107116,-0.033672,-25.725,-1.3825,-5.985
486,4087627,0.874984,-0.111508,-0.021106,-29.645,-1.3475,-5.7925
487,4087723,0.8555860999999999,-0.110776,-0.010248,-32.865,-1.75,-5.0575
488,4087820,0.8476561,-0.10797000000000001,-0.011224,-38.9375,-1.085,-3.955
489,4087917,0.8481440999999998,-0.123708,-0.0244,-43.26,0.245,-3.465
490,4088014,0.853878,-0.12395199999999999,-0.054655999999999996,-43.715,0.8925,-2.03
491,4088110,0.870714,-0.126392,-0.105774,-39.7425,0.42,-0.385
492,4088207,0.8814501,-0.12980799999999998,-0.123098,-27.93,-0.56,0.7875
493,4088304,0.8814501,-0.13969,-0.10614000000000001,-14.7175,-2.1525,1.0325
494,4088400,0.899384,-0.108214,-0.094306,-8.1725,-2.975,0.98
495,4088497,0.932934,-0.05172801,-0.09784401,-5.95,-1.5575,0.525
496,4088594,0.9566020000000001,0.013908000000000002,-0.06661201,-3.36,3.78,-0.14
497,4088691,0.9724620999999999,0.05587601,-0.011224,-1.19,11.06,-0.4725
498,4088787,0.9853940999999999,0.081984,0.037942000000000004,-0.1575,16.6075,-0.6825
499,4088884,0.9972281,0.10528599999999999,0.074664,-1.925,18.8125,-0.91
500,4088981,1.0086959999999998,0.10675,0.10516400000000001,-6.9825,19.46,-2.135
501,4089078,1.0432219999999999,0.081862,0.091134,-12.5475,15.5925,-3.7625
502,4089174,1.143018,0.032574,-0.036844,-15.54,5.2325,-5.3025
503,4089271,1.396046,-0.022692,-0.39967199999999997,-19.7225,-16.7825,-4.6375
504,4089368,1.71105,-0.026474,-0.7740901,-10.57,-50.365,0.42
505,4089464,1.8264619999999998,-0.015128,-0.7707961,19.0925,-60.5325,4.4975
506,4089561,1.791814,-0.071004,-0.59719,30.765,-26.705,4.8475
507,4089658,1.6570040000000001,-0.037576,-0.39784200000000003,30.695,10.3075,10.78
508,4089755,1.402024,0.037698,-0.28023400000000004,31.08,27.895,17.675
509,4089851,1.187182,-0.010126000000000001,-0.21093800000000001,25.6725,27.9475,11.83
510,4089948,1.0943399999999999,-0.11919400000000001,-0.26474000000000003,11.41,3.5175,2.765
511,4090045,1.06018,-0.2074,-0.299144,0.42,-23.8875,-3.6225
512,4090142,1.029558,-0.251686,-0.354288,-6.405,-22.26,-11.5325
513,4090238,1.006622,-0.22509,-0.380274,-15.1025,-9.2225,-16.31
514,4090335,0.976366,-0.14823,-0.377712,-18.725,-5.8275,-15.33
515,4090432,0.9263459999999999,-0.075396,-0.351848,-15.5925,-10.7625,-9.38
516,4090529,0.901214,-0.037698,-0.275354,-9.835,-14.2975,-1.505
517,4090625,0.8913321,-0.027327999999999998,-0.225334,-5.075,-14.665,5.67
518,4090722,0.876814,-0.028182,-0.24863600000000002,-4.34,-17.0625,9.205
519,4090819,0.859368,-0.039894,-0.28548,-3.8325,-22.0325,9.765
520,4090916,0.856074,-0.064538,-0.28853,-1.12,-25.655,7.56
521,4091012,0.868884,-0.08454600000000001,-0.27145,1.4875,-24.3075,2.9925
522,4091109,0.870592,-0.09040201,-0.25607800000000003,2.0825,-21.42,-1.2425
523,4091206,0.85644,-0.08906,-0.256444,0.5425,-19.705,-3.8325
524,4091302,0.8308200000000001,-0.077958,-0.261324,-2.73,-19.11,-3.9025
525,4091399,0.79971,-0.05612,-0.261202,-5.145,-17.6575,-2.24
526,4091496,0.773724,-0.016347999999999998,-0.25302800000000003,-6.51,-14.7875,0.6825
527,4091593,0.753472,0.024034,-0.24326799999999998,-8.5225,-11.34,4.1825
528,4091689,0.7494460000000001,0.064416,-0.228262,-9.7475,-8.61,7.2625
529,4091786,0.76189,0.093574,-0.200324,-8.8025,-6.2825,8.75
530,4091883,0.7775061,0.11773,-0.175558,-7.455,-3.3425,9.38
531,4091980,0.792512,0.130052,-0.151036,-7.455,-0.945,8.4875
532,4092076,0.8165460999999999,0.123464,-0.140666,-8.4875,0.0875,6.5625
533,4092173,0.8414341000000001,0.110776,-0.134322,-8.75,-1.085,5.6175
534,4092270,0.8666879999999999,0.08003201,-0.133712,-7.35,-3.7625,5.8625
535,4092367,0.888282,0.055144000000000006,-0.131882,-3.5875,-6.3175,6.125
536,4092463,0.9115840000000001,0.035746,-0.139934,0.455,-7.77,5.775
537,4092560,0.9204901,0.002196,-0.133468,5.355,-8.575,5.7225
538,4092657,0.9143899999999999,-0.022936,-0.12431800000000001,10.22,-8.89,6.3525
539,4092754,0.9018241,-0.033306,-0.10943399999999999,13.7025,-8.6625,6.6325
540,4092850,0.8866961,-0.029768,-0.10858,16.205,-7.5075,5.775
541,4092947,0.876814,-0.032330000000000005,-0.10638399999999999,19.1975,-5.6875,3.9025
542,4093044,0.8720559999999999,-0.032330000000000005,-0.093086,22.0675,-3.6925,1.925
543,4093140,0.8769360999999999,-0.02196,-0.07893401,24.115,-2.17,-0.1225
544,4093237,0.8852321,0.010004,-0.06746601,24.9375,-2.1525,-2.45
545,4093334,0.9076799999999999,0.035136,-0.068076,23.1525,-2.8875,-4.3925
546,4093431,0.938058,0.044652,-0.059536,19.0925,-3.115,-5.7575
547,4093527,0.952332,0.043432,-0.06466001,13.0375,-2.3275,-6.2125
548,4093624,0.9363501000000001,0.024156,-0.077348,9.065,-0.4725,-5.4425
549,4093721,0.8998719999999999,-0.005856,-0.07381001,6.5275,2.135,-3.8675
550,4093818,0.8764481,-0.029401999999999998,-0.077714,2.9225,6.335,-2.6425
551,4093914,0.8580260000000001,-0.03782,-0.080886,0.315,11.0775,-2.7475
552,4094011,0.8610761,-0.033794,-0.058803999999999995,-2.3275,16.94,-3.3075
553,4094108,0.8836459999999999,-0.028669999999999998,-0.030012,-2.835,23.205,-3.115
554,4094205,0.9237841,-0.027938,-0.0305,4.0075,27.51,-1.995
555,4094301,1.010282,-0.04392,-0.12053599999999999,16.695,25.76,0.28
556,4094398,1.193526,-0.08601,-0.33245,30.5025,13.685,1.9075
557,4094495,1.4496040000000001,-0.175924,-0.49995600000000007,33.355,-7.3325,-1.61
558,4094592,1.604544,-0.262788,-0.601704,11.655,-18.0075,-13.9125
559,4094688,1.6534659999999999,-0.348798,-0.542168,-2.7825,-8.505,-28.3325
560,4094785,1.589782,-0.478972,-0.42431599999999997,-7.49,10.5525,-37.8175
561,4094882,1.3449280000000001,-0.480192,-0.4392,-2.0825,27.7725,-34.0375
562,4094978,1.126792,-0.41053,-0.510814,2.59,16.485,-24.01
563,4095075,1.051884,-0.22667600000000002,-0.511424,3.3075,-8.8375,-21.49
564,4095172,1.11996,-0.104066,-0.35782600000000003,21.3675,-20.3175,-20.58
565,4095269,1.136796,-0.082594,-0.25803000000000004,36.0675,-22.1375,-11.97
566,4095365,1.074576,-0.05063,-0.3477,33.04,-16.345,1.645
567,4095462,1.009306,-0.046848,-0.366122,23.485,-5.4425,10.99
568,4095559,0.995398,-0.038064,-0.328302,6.8075,4.235,12.81
569,4095656,0.9919821,-0.036356,-0.25376,-11.76,7.9625,8.96
570,4095752,0.984906,-0.05160601,-0.21606199999999998,-27.9475,9.065,3.605
571,4095849,0.975024,-0.08845001,-0.184952,-34.8425,8.9075,-1.505
572,4095946,0.9642879999999999,-0.11467999999999999,-0.18544000000000002,-34.4925,8.26,-3.185
573,4096043,0.9612379999999999,-0.1098,-0.222894,-32.5675,4.9525,-2.1875
574,4096139,0.95709,-0.101748,-0.23448400000000003,-30.1875,1.1375,-0.4725
575,4096236,0.9252481,-0.105774,-0.229238,-27.5275,0.49,0.5075
576,4096333,0.8632719999999999,-0.130296,-0.22728600000000002,-25.0775,1.1375,0.8225
577,4096429,0.802272,-0.165798,-0.23058,-22.1025,0.42,-0.28
578,4096526,0.753594,-0.197884,-0.22728600000000002,-19.3025,-0.56,-1.925
579,4096623,0.71919,-0.201178,-0.21899000000000002,-17.71,0.945,-3.57
580,4096720,0.712236,-0.206668,-0.203252,-16.9925,3.92,-5.635
581,4096816,0.73017,-0.208132,-0.17616800000000002,-16.7825,6.3175,-7.91
582,4096913,0.7435901,-0.18873399999999999,-0.167506,-17.64,7.28,-9.7125
583,4097010,0.751276,-0.183122,-0.152256,-18.235,5.705,-10.7975
584,4097107,0.763354,-0.182024,-0.14274,-17.605,1.5575,-11.4275
585,4097203,0.7870221,-0.16043,-0.13383399999999998,-15.89,-3.5525,-11.76
586,4097300,0.795562,-0.15921,-0.12456199999999999,-13.265,-7.175,-12.1275
587,4097397,0.8142281,-0.153354,-0.11236199999999999,-10.9725,-9.695,-12.1625
588,4097494,0.8403360000000001,-0.15494000000000002,-0.098332,-10.22,-10.9725,-12.3025
589,4097590,0.8571719999999999,-0.161772,-0.08625401,-10.3075,-8.89,-12.5125
590,4097687,0.863028,-0.144204,-0.074298,-11.13,-4.9875,-12.18
591,4097784,0.870592,-0.121024,-0.047945999999999996,-13.265,-1.2775,-12.215
592,4097881,0.8675421,-0.11248399999999999,-0.023058000000000002,-16.2575,4.9875,-12.11
593,4097977,0.8585139999999999,-0.09455001,0.002318,-20.3525,11.6375,-10.4825
594,4098074,0.8579041,-0.091378,0.016836,-24.85,14.245,-8.7675
595,4098171,0.8697379999999999,-0.106018,0.013541999999999998,-27.44,13.09,-7.4375
596,4098267,0.889258,-0.114924,-0.021228,-26.635,10.4125,-4.9525
597,4098364,0.9067040000000001,-0.12627,-0.06124401,-21.84,5.7575,-2.1875
598,4098461,0.91561,-0.135664,-0.08357,-13.02,-0.0875,0.1925
599,4098558,0.9287861,-0.11846199999999998,-0.083204,-6.125,-4.235,1.295
600,4098654,0.9385460999999999,-0.074054,-0.0793,-4.4275,-3.99,1.8375
601,4098751,0.9385460999999999,-0.013786000000000001,-0.106262,-5.1975,-1.4175,1.7325
602,4098848,0.9519661,0.039528,-0.09455001,-3.2025,1.2075,1.2425
603,4098944,0.9749021000000001,0.07698201,-0.01464,0.0525,5.6525,0.665
604,4099041,0.9910059999999999,0.08064199,0.061732,0.1925,12.775,-0.07
605,4099138,1.000766,0.06405001,0.11736400000000001,-3.4125,18.305,-0.945
606,4099235,1.0199200000000002,0.021838,0.167384,-10.885,20.2825,-2.8
607,4099331,1.0406600000000001,-0.030256,0.168238,-20.86,21.84,-4.935
608,4099428,1.099342,-0.11285,0.10052799999999999,-28.0,20.3525,-8.0675
609,4099525,1.206702,-0.19215,-0.071858,-32.3575,10.99,-11.9
610,4099622,1.318576,-0.259372,-0.316224,-34.8425,-8.225,-14.805
611,4099718,1.468392,-0.332084,-0.503494,-28.77,-33.1625,-16.4675
612,4099815,1.5986879999999999,-0.294508,-0.6472100000000001,-15.8375,-48.6325,-14.6125
613,4099912,1.601982,-0.18873399999999999,-0.6451359999999999,-4.025,-44.94,-6.79
614,4100008,1.571848,-0.183732,-0.43615,14.35,-22.9075,8.12
615,4100105,1.508896,-0.09516001,-0.266326,32.6375,5.145,29.12
616,4100202,1.366766,0.07198,-0.184586,37.8,24.01,42.8225
617,4100299,1.156682,0.188978,-0.25424800000000003,15.5225,17.01,36.8375
618,4100395,0.9940559999999999,0.147376,-0.365512,-10.1675,-10.0625,17.8675
619,4100492,0.9171961,-0.004392,-0.339892,-17.8675,-21.91,2.9225
620,4100589,0.9032879999999999,-0.08174001,-0.28011199999999997,-19.6175,-13.8075,-1.9775
621,4100686,0.9293961,-0.10321199999999998,-0.25071,-20.3,-3.115,-1.6625
622,4100782,0.9473301,-0.09345201,-0.246806,-18.48,1.155,-0.14
623,4100879,0.9486720999999999,-0.08881599,-0.242292,-12.915,-4.48,2.8175
624,4100976,0.9270780999999999,-0.07710399999999999,-0.242536,-3.6925,-14.7525,5.8975
625,4101072,0.9209780000000001,-0.074298,-0.26095799999999997,6.2825,-25.0425,7.21
626,4101169,0.9358620999999999,-0.088328,-0.279014,12.985,-33.1625,6.2825
627,4101266,0.960628,-0.08771799999999999,-0.265716,14.8225,-35.5425,3.115
628,4101363,0.977342,-0.076738,-0.22021,12.8975,-29.7675,-2.1525
629,4101459,0.9803921,-0.054167999999999994,-0.195932,7.91,-21.0525,-6.65
630,4101556,0.9490379999999999,-0.024522,-0.195688,2.5025,-16.9925,-7.7175
631,4101653,0.9063379999999999,-0.006344,-0.21374400000000002,-1.75,-18.83,-5.18
632,4101750,0.8643700999999999,0.010004,-0.21057199999999998,-3.0975,-20.6675,-1.2425
633,4101846,0.8321620000000001,0.031842,-0.202276,-2.5725,-18.725,2.625
634,4101943,0.8169121,0.06539201,-0.19032000000000002,-1.2425,-15.435,5.25
635,4102040,0.8099581,0.079544,-0.177998,1.12,-12.3375,5.0575
636,4102137,0.81679,0.08503401,-0.161772,4.4975,-10.7975,2.8175
637,4102233,0.830332,0.08454600000000001,-0.13602999999999998,6.09,-10.5525,-0.035
638,4102330,0.8457040000000001,0.066856,-0.12431800000000001,6.6325,-9.5375,-2.905
639,4102427,0.8546101,0.059658,-0.12322000000000001,6.79,-9.905,-5.6875
640,4102523,0.8714459999999999,0.037454,-0.124196,7.035,-12.565,-8.3475
641,4102620,0.8847440999999999,0.027938,-0.12261,9.5725,-14.7175,-10.2375
642,4102717,0.8903561,0.02562,-0.121268,12.04,-14.9625,-11.095
643,4102814,0.8914540000000001,0.006587999999999999,-0.118828,13.0725,-14.805,-11.7425
644,4102910,0.8876719999999999,-0.011834,-0.11224,14.3325,-14.0525,-11.3575
645,4103007,0.8790100000000001,-0.026351999999999997,-0.09979600000000001,16.4325,-13.0025,-10.85
646,4103104,0.870592,-0.027206,-0.08405800000000001,17.99,-11.6375,-10.1325
647,4103201,0.8704700000000001,-0.038674,-0.06880801,19.5125,-10.1325,-9.7475
648,4103297,0.8676640999999999,-0.041114,-0.045994,21.4375,-8.7325,-9.17
649,4103394,0.8714459999999999,-0.0488,-0.029646,23.345,-7.2625,-9.6775
650,4103491,0.8813280000000001,-0.048434,-0.0366,23.0125,-7.455,-10.745
651,4103587,0.892308,-0.045018,-0.057339999999999995,20.6325,-9.66,-11.4275
652,4103684,0.918782,-0.047458,-0.079422,18.095,-11.795,-11.305
653,4103781,0.9311040999999999,-0.047580000000000004,-0.101748,15.8025,-11.515,-10.1675
654,4103878,0.9352520000000001,-0.059048,-0.1098,12.5825,-9.6775,-8.68
655,4103974,0.9376921,-0.079056,-0.108458,11.6725,-7.14,-7.2625
656,4104071,0.92232,-0.076738,-0.11760799999999999,11.4975,-4.5325,-5.32
657,4104168,0.907436,-0.07686,-0.115656,12.6175,-3.0975,-3.1325
658,4104265,0.9032879999999999,-0.08430201,-0.105896,17.9375,-0.805,-0.7875
659,4104361,0.906948,-0.090158,-0.069784,23.59,3.885,1.96
660,4104458,0.927322,-0.09028,-0.033428,32.655,9.0475,4.2
661,4104555,0.9708760000000001,-0.07698201,-0.052948,43.8025,11.1475,6.58
662,4104651,1.0687200000000001,-0.047945999999999996,-0.194224,52.0275,7.21,8.8025
663,4104748,1.2408620000000001,-0.038308,-0.301462,57.61,-2.52,9.0125
664,4104845,1.413614,-0.0793,-0.404308,46.3925,-9.24,2.0125
665,4104942,1.464366,-0.12932000000000002,-0.42114399999999996,25.55,-11.1475,-11.6025
666,4105038,1.4234959999999999,-0.154818,-0.33428,7.49,-8.3475,-26.005
667,4105135,1.34261,-0.189466,-0.282308,-2.8175,4.9875,-33.39
668,4105232,1.257332,-0.228994,-0.317322,2.275,19.565,-31.0625
669,4105329,1.17364,-0.23424,-0.35746,11.305,17.1675,-25.3925
670,4105425,1.089216,-0.15494000000000002,-0.368562,16.94,6.5275,-22.6275
671,4105522,1.059692,-0.074542,-0.312808,29.3475,-0.14,-19.215
672,4105619,1.042856,-0.061,-0.27510999999999997,43.75,-5.6525,-11.8825
673,4105715,0.9971059999999999,-0.060024,-0.283894,47.67,-7.42,-3.57
674,4105812,0.9548940999999999,-0.056608000000000006,-0.306586,42.63,-3.08,0.49
675,4105909,0.9381801,-0.068686,-0.252418,33.5475,2.0125,-1.855
676,4106006,0.959408,-0.082716,-0.200324,20.335,4.7425,-8.2775
677,4106102,0.990762,-0.1098,-0.191052,8.6975,5.5125,-14.63
678,4106199,1.001986,-0.13078399999999998,-0.188124,1.645,4.375,-18.095
679,4106296,1.010892,-0.132248,-0.180804,-1.7675,3.92,-17.955
680,4106392,1.011868,-0.13151600000000002,-0.20630199999999999,-3.745,3.08,-14.8225
681,4106489,1.0054020000000001,-0.135298,-0.228872,-6.125,-1.12,-9.7475
682,4106586,0.9941780000000001,-0.14188599999999998,-0.219844,-6.2825,-4.8475,-4.9525
683,4106683,0.955016,-0.152134,-0.190198,-5.565,-5.7225,-0.805
684,4106779,0.89426,-0.158966,-0.177144,-5.145,-5.2675,2.0825
685,4106876,0.840458,-0.17214200000000002,-0.18324400000000002,-4.8825,-6.265,3.325
686,4106973,0.80642,-0.183732,-0.17202,-4.55,-8.2775,3.1675
687,4107070,0.788974,-0.18239,-0.16043,-5.2675,-9.1525,2.8
688,4107167,0.7788480999999999,-0.188246,-0.151158,-5.6875,-8.0675,1.6975
689,4107263,0.77531,-0.19337000000000001,-0.141398,-5.53,-7.91,-0.1225
690,4107360,0.7793359999999999,-0.189466,-0.134444,-4.795,-9.31,-1.715
691,4107457,0.795562,-0.170678,-0.119682,-4.1825,-11.0425,-3.675
692,4107553,0.815326,-0.160674,-0.106262,-3.4125,-12.285,-5.39
693,4107650,0.8267940999999999,-0.154696,-0.09845401,-2.8175,-12.25,-6.895
694,4107747,0.8367979999999999,-0.160186,-0.07344400000000001,-2.205,-11.7775,-8.5575
695,4107844,0.8431420000000001,-0.175558,-0.06344,-2.8175,-10.08,-10.43
696,4107940,0.8457040000000001,-0.167506,-0.05648601,-4.8825,-7.8225,-11.4975
697,4108037,0.8604661,-0.171166,-0.048434,-8.3825,-6.405,-12.565
698,4108134,0.8713241,-0.17140999999999998,-0.04819,-12.425,-5.565,-12.6175
699,4108230,0.8818159999999999,-0.151524,-0.030866,-15.9075,-5.1975,-11.8475
700,4108327,0.876692,-0.139812,-0.0034159999999999998,-18.5325,-3.6225,-10.7625
701,4108424,0.863516,-0.135054,0.013054,-20.405,-1.3475,-9.17
702,4108521,0.8487540000000001,-0.130052,0.016958,-22.3125,-1.1725,-7.9275
703,4108617,0.8521700999999999,-0.12261,0.013054,-24.395,-2.695,-7.455
704,4108714,0.8815719999999999,-0.11724200000000001,0.0008540001,-25.3575,-4.1125,-6.965
705,4108811,0.9171961,-0.108702,-0.039284,-23.94,-6.3,-6.195
706,4108907,0.9357401,-0.117974,-0.07234600000000001,-17.2375,-9.31,-5.0225
707,4109004,0.938058,-0.11626600000000001,-0.08576601,-8.4875,-11.585,-4.0425
708,4109101,0.951844,-0.081252,-0.090158,-3.5875,-11.4625,-3.6225
709,4109198,0.967094,-0.027572000000000003,-0.098332,-2.24,-10.2725,-3.745
710,4109294,0.9703879999999999,0.034038,-0.06575800000000001,-1.5575,-9.4325,-4.165
711,4109391,0.9729501,0.07722601,-0.01342,-0.455,-5.4075,-4.1475
712,4109488,0.988566,0.08527801,0.057218,-0.5425,0.5425,-3.1325
713,4109585,1.0107700000000002,0.078202,0.096014,-5.5825,3.535,-2.1875
714,4109681,1.057984,0.047580000000000004,0.10004,-10.815,4.34,-2.24
715,4109778,1.1798620000000002,0.0035380000000000003,-0.05185,-18.27,1.4175,-2.8
716,4109875,1.4392340000000001,-0.056608000000000006,-0.44066400000000006,-25.445,-17.4825,-2.415
717,4109971,1.701656,-0.06661201,-0.72956,-12.4075,-48.3875,1.54
718,4110068,1.716662,-0.059902,-0.66856,19.95,-54.95,4.795
719,4110165,1.661762,-0.06539201,-0.499712,30.03,-27.51,6.2825
720,4110262,1.559404,-0.046604,-0.251808,32.2175,4.095,13.09
721,4110358,1.3377299999999999,-0.064172,-0.104432,28.5775,21.3675,18.5675
722,4110455,1.1538760000000001,-0.08625401,-0.10736,14.8225,18.2,12.0225
723,4110552,1.070184,-0.12895399999999999,-0.262788,-4.13,-5.7575,0.5425
724,4110649,1.036512,-0.170678,-0.374418,-13.5975,-26.1975,-8.2425
725,4110745,0.990884,-0.160552,-0.41541000000000006,-12.2675,-16.03,-12.565
726,4110842,1.0004,-0.138348,-0.352092,-13.5975,3.7625,-13.65
727,4110939,1.0056459999999998,-0.103578,-0.30561,-13.6325,8.9775,-10.745
728,4111035,0.9530641,-0.062098,-0.29877800000000004,-11.7775,-0.42,-4.9875
729,4111132,0.8975540000000001,-0.042334,-0.26413000000000003,-8.365,-12.495,0.5775
730,4111229,0.8718120999999999,-0.030622000000000003,-0.24631799999999998,-5.425,-20.3875,4.83
731,4111326,0.8625401,-0.032330000000000005,-0.255468,-4.865,-25.725,7.49
732,4111422,0.865102,-0.036233999999999995,-0.28548,-3.99,-28.9625,8.68
733,4111519,0.88328,-0.047214,-0.293288,-0.9275,-29.6975,7.9975
734,4111616,0.9079241,-0.059536,-0.282064,1.8725,-27.65,5.1275
735,4111712,0.9085340000000001,-0.073688,-0.28023400000000004,3.1325,-24.1325,1.225
736,4111809,0.8788879999999999,-0.087962,-0.27266999999999997,3.0275,-22.2425,-1.6975
737,4111906,0.8397261,-0.090768,-0.25376,1.2075,-22.015,-2.3275
738,4112003,0.8114220999999999,-0.07710399999999999,-0.242048,-2.2925,-21.4375,-0.7175
739,4112099,0.789218,-0.046604,-0.23582600000000004,-7.3675,-19.2325,2.0475
740,4112196,0.781532,-0.008784,-0.224846,-11.725,-16.03,4.7425
741,4112293,0.789706,0.025376,-0.21032800000000001,-13.09,-13.58,6.3875
742,4112390,0.80093,0.066734,-0.19276,-11.06,-12.6525,7.1925
743,4112486,0.81679,0.097722,-0.167506,-8.1025,-12.425,7.035
744,4112583,0.839482,0.119316,-0.14188599999999998,-6.055,-11.0425,6.2825
745,4112680,0.8480221,0.108946,-0.130296,-4.7775,-8.225,5.18
746,4112777,0.856074,0.08759601,-0.12505,-3.85,-6.4575,4.2
747,4112873,0.8569280999999999,0.06880801,-0.133346,-3.64,-5.985,3.5525
748,4112970,0.859002,0.041846,-0.138836,-2.1175,-6.475,3.2375
749,4113067,0.86559,0.042944,-0.13969,0.4375,-6.9825,3.7625
750,4113163,0.8816940000000001,0.023424,-0.134078,2.0125,-6.0725,3.675
751,4113260,0.8964561,0.004758,-0.11285,3.9025,-3.71,3.675
752,4113357,0.8973101000000001,-0.005978,-0.090646,5.67,-1.575,3.5175
753,4113454,0.8875501,-0.010126000000000001,-0.081496,7.21,-0.945,2.6075
754,4113550,0.880718,-0.0122,-0.07234600000000001,9.0825,-1.6625,1.4525
755,4113647,0.8721780000000001,-0.012688,-0.061366,12.2675,-1.7675,0.735
756,4113744,0.8757159999999999,-0.014762,-0.054655999999999996,14.6475,-0.3675,-0.3325
757,4113841,0.8901120000000001,-0.008296000999999999,-0.052338,15.2425,0.7175,-1.3825
758,4113937,0.9152440000000001,0.004148001,-0.06929600000000001,13.6675,0.1575,-2.2575
759,4114034,0.9320801,0.01037,-0.08454600000000001,11.165,-1.5225,-2.5375
760,4114131,0.9429379999999999,0.001342,-0.08698601,9.485,-1.68,-2.0125
761,4114228,0.9389120000000001,-0.026108,-0.080276,11.0425,1.2775,-1.2425
762,4114324,0.9211,-0.05636401,-0.064416,13.51,4.0425,0.035
763,4114421,0.9059721,-0.06466001,-0.072712,12.25,5.18,1.6975
764,4114518,0.9002379999999999,-0.064416,-0.079666,8.3825,5.6525,2.8875
765,4114615,0.90646,-0.050874,-0.07002799999999999,4.865,7.8575,3.7275
766,4114711,0.920734,-0.030133999999999998,-0.035746,3.605,12.46,4.4625
767,4114808,0.952332,-0.012931999999999999,-0.018544,6.51,16.94,4.6375
768,4114905,1.017968,-0.012931999999999999,-0.071858,14.9625,16.8,4.7775
769,4115002,1.134234,-0.026962,-0.24082800000000001,25.97,8.68,4.8125
770,4115098,1.316624,-0.076738,-0.389546,35.035,-6.6325,2.7825
771,4115195,1.483886,-0.166774,-0.528504,25.0425,-17.4475,-5.565
772,4115292,1.559282,-0.214354,-0.559248,7.8225,-14.0525,-18.8825
773,4115388,1.50853,-0.29341,-0.3965,-1.05,2.905,-31.08
774,4115485,1.337486,-0.320738,-0.35160399999999997,-3.0625,23.2225,-33.04
775,4115582,1.19316,-0.312198,-0.44725200000000004,3.5175,23.415,-26.25
776,4115679,1.103856,-0.25302800000000003,-0.525088,7.6125,1.6275,-24.01
777,4115775,1.063108,-0.11870599999999999,-0.44981400000000005,11.06,-11.515,-26.355
778,4115872,1.08946,-0.07747001,-0.306464,22.715,-8.225,-24.185
779,4115969,1.069208,-0.093086,-0.26047,30.03,-4.795,-14.0175
780,4116066,1.002718,-0.095038,-0.30378,25.655,-3.0625,-2.345
781,4116162,0.9744141,-0.10919000000000001,-0.282186,14.9625,-0.0525,3.6575
782,4116259,1.012356,-0.09638,-0.24265799999999998,-0.875,3.815,1.6275
783,4116356,1.047736,-0.08918200000000001,-0.203008,-15.4525,6.3,-3.6575
784,4116453,1.0559100000000001,-0.07808001,-0.188124,-28.07,5.7925,-7.8225
785,4116549,1.05469,-0.074054,-0.198372,-33.0575,4.3225,-8.89
786,4116646,1.045174,-0.07246799999999999,-0.230702,-31.045,0.98,-5.6175
787,4116743,1.028338,-0.06880801,-0.235582,-25.8825,-2.9575,-1.1725
788,4116839,0.996008,-0.08527801,-0.216428,-20.4575,-3.6925,2.345
789,4116936,0.9362280000000001,-0.11236199999999999,-0.213988,-16.415,-3.325,3.64
790,4117033,0.885476,-0.155306,-0.205326,-12.635,-4.7775,2.38
791,4117130,0.8309421,-0.184952,-0.189222,-10.4125,-5.3375,0.14
792,4117226,0.769332,-0.195688,-0.194224,-10.3775,-4.1475,-1.015
793,4117323,0.7285841,-0.19397999999999999,-0.193614,-10.465,-2.7475,-1.05
794,4117420,0.7126020000000001,-0.184098,-0.18727,-9.8,-2.31,-0.49
795,4117516,0.7198,-0.162504,-0.172264,-9.205,-2.38,-0.7
796,4117613,0.7378560000000001,-0.141764,-0.1586,-9.5025,-2.66,-2.31
797,4117710,0.7700640999999999,-0.115168,-0.15128,-10.3425,-2.835,-4.62
798,4117807,0.796904,-0.101016,-0.137738,-9.4675,-2.905,-7.5775
799,4117903,0.811666,-0.118218,-0.114802,-7.105,-3.5,-10.115
800,4118000,0.817156,-0.134322,-0.103334,-5.81,-4.655,-12.32
801,4118097,0.827892,-0.152134,-0.10126,-6.44,-6.4575,-13.4575
802,4118194,0.83204,-0.157746,-0.094306,-7.175,-7.42,-13.3
803,4118290,0.8438741,-0.154574,-0.075762,-8.1025,-6.3175,-13.8075
804,4118387,0.8604661,-0.14798599999999998,-0.053070000000000006,-9.7825,-4.2175,-14.035
805,4118484,0.8777901,-0.137982,-0.025131999999999998,-12.6,-1.3125,-13.335
806,4118581,0.8758381,-0.11870599999999999,-0.014152000000000001,-16.31,2.1875,-11.7775
807,4118677,0.8615640999999999,-0.117486,-0.001342,-19.04,4.095,-10.4475
808,4118774,0.8549761,-0.116754,0.009882,-20.615,3.2025,-9.275
809,4118871,0.861442,-0.11126400000000002,0.0032939999999999996,-23.2225,0.63,-7.7525
810,4118968,0.873764,-0.11358199999999999,-0.014152000000000001,-24.6575,-2.695,-6.825
811,4119064,0.895114,-0.114558,-0.050142,-22.68,-5.5475,-6.0725
812,4119161,0.919758,-0.125416,-0.09942999999999999,-17.045,-8.47,-5.425
813,4119258,0.9320801,-0.117486,-0.137982,-8.5925,-11.935,-4.5675
814,4119354,0.94306,-0.09442801,-0.142008,0.35,-14.595,-3.045
815,4119451,0.9490379999999999,-0.052826,-0.11529,5.5475,-14.35,-1.5925
816,4119548,0.9668501,0.021228,-0.08405800000000001,4.4975,-10.4825,-0.665
817,4119645,0.9888101,0.069906,-0.043554,2.66,-2.625,-0.2275
818,4119741,1.001254,0.083814,0.034526,3.5525,6.79,1.5925
819,4119838,1.014674,0.072956,0.12334200000000001,1.8025,15.155,3.325
820,4119935,1.01809,0.049654000000000004,0.190076,-2.94,21.875,3.6575
821,4120032,1.0237020000000001,-0.001464,0.20984,-8.3825,24.1325,2.1525
822,4120128,1.0528600000000001,-0.07246799999999999,0.134932,-13.685,19.285,-2.59
823,4120225,1.1773,-0.148596,-0.11333800000000001,-22.4525,1.5925,-11.4275
824,4120322,1.3611540000000002,-0.198006,-0.403942,-25.0775,-27.8775,-20.72
825,4120419,1.538786,-0.226188,-0.667096,-12.4425,-52.2725,-25.4975
826,4120515,1.6391919999999998,-0.19397999999999999,-0.8115439999999999,6.0725,-61.2675,-24.7275
827,4120612,1.6509040000000001,-0.10809200000000001,-0.7047939999999999,19.04,-48.0725,-18.13
828,4120709,1.614426,-0.058682000000000005,-0.443226,31.745,-19.25,-2.8525
829,4120805,1.525976,0.000244,-0.21228000000000002,43.4875,4.6025,20.055
830,4120902,1.286978,0.09979600000000001,-0.17738800000000002,34.125,16.3975,33.88
831,4120999,1.06689,0.15067,-0.28609,6.1775,6.405,23.205
832,4121096,0.9514780999999999,0.023424,-0.38308000000000003,-13.93,-14.6825,7.3325
833,4121192,0.8991401,-0.082838,-0.359534,-14.4725,-19.1625,-2.555
834,4121289,0.888282,-0.10723800000000001,-0.308294,-15.5575,-12.5125,-3.15
835,4121386,0.898042,-0.10638399999999999,-0.312442,-18.4625,-8.1375,-2.9575
836,4121483,0.9318360000000001,-0.09259801,-0.315126,-18.2175,-9.765,-3.08
837,4121579,0.9577,-0.08466801,-0.29731399999999997,-10.6575,-14.35,-1.3125
838,4121676,0.9567241,-0.07722601,-0.27584200000000003,-0.91,-20.685,1.785
839,4121773,0.9418401,-0.067832,-0.28462600000000005,6.2125,-28.4725,4.1825
840,4121870,0.9409860999999999,-0.080276,-0.296216,11.5325,-34.6325,4.9525
841,4121966,0.9566020000000001,-0.10223600000000001,-0.29426399999999997,14.2975,-34.4575,4.305
842,4122063,0.9652639999999999,-0.10943399999999999,-0.26718000000000003,15.365,-26.495,2.3625
843,4122160,0.957456,-0.09040201,-0.24436599999999997,12.8625,-17.8675,-0.6125
844,4122256,0.9261021,-0.05770599999999999,-0.241682,6.1775,-14.6125,-2.38
845,4122353,0.8824261,-0.019764,-0.249612,-1.0675,-16.5725,-2.205
846,4122450,0.8461921,0.0051240009999999996,-0.244854,-6.1425,-18.6025,0.1575
847,4122547,0.8192299999999999,0.017568,-0.223992,-7.875,-16.17,3.955
848,4122643,0.795562,0.03965,-0.20776599999999998,-7.6125,-11.27,7.07
849,4122740,0.769454,0.06270801,-0.20288599999999998,-5.81,-7.98,7.28
850,4122837,0.7761640999999999,0.06283,-0.188002,-2.625,-7.6825,6.265
851,4122934,0.7926340000000001,0.06075601,-0.16043,0.3325,-7.875,4.795
852,4123030,0.8054439999999999,0.057339999999999995,-0.149084,1.54,-7.0525,3.01
853,4123127,0.823744,0.050263999999999996,-0.149694,2.9575,-6.0025,1.5575
854,4123224,0.832894,0.057462,-0.149206,5.6525,-5.2675,1.1375
855,4123320,0.8439959999999999,0.06588,-0.142252,8.505,-5.635,1.4175
856,4123417,0.8526581,0.05453401,-0.1403,11.48,-6.23,1.9075
857,4123514,0.8552200000000001,0.04453,-0.130906,14.4375,-6.51,2.17
858,4123611,0.8580260000000001,0.031110000000000002,-0.11943800000000002,17.045,-6.5975,0.4725
859,4123707,0.8587581,0.008540001,-0.110776,19.075,-6.1425,-1.3475
860,4123804,0.8580260000000001,-0.01098,-0.10345599999999999,20.3525,-4.9175,-3.1675
861,4123901,0.8486319999999999,-0.00488,-0.097966,21.5775,-3.78,-4.0425
862,4123998,0.8486319999999999,-0.018544,-0.08759601,22.7325,-2.3975,-4.97
863,4124094,0.841678,-0.023302,-0.06124401,24.2725,0.1925,-5.425
864,4124191,0.8486319999999999,-0.016104,-0.049166,23.065,2.765,-5.7925
865,4124288,0.8597341000000001,-0.012078,-0.043432,22.0325,4.1475,-6.58
866,4124385,0.8785219999999999,-0.006954000000000001,-0.057584,20.0725,3.29,-7.0
867,4124481,0.91805,-0.006344,-0.091744,15.5925,0.805,-7.1925
868,4124578,0.9464761,0.002196,-0.125782,6.8075,-1.715,-8.085
869,4124675,0.9724620999999999,-0.019642,-0.10736,1.365,-0.735,-8.19
870,4124772,0.9655081,-0.062098,-0.08100801,5.7225,5.3725,-6.055
871,4124868,0.9429379999999999,-0.10321199999999998,-0.083936,9.345,9.59,-2.38
872,4124965,0.931226,-0.12444000000000001,-0.09418401,11.0075,9.9575,0.6125
873,4125062,0.931226,-0.140178,-0.077714,13.755,9.9575,2.695
874,4125158,0.9409860999999999,-0.146034,-0.036966000000000006,17.815,12.6,4.2875
875,4125255,0.9586761,-0.149816,0.0183,21.7875,18.0425,6.1075
876,4125352,0.9562360999999999,-0.11736400000000001,0.07307801,23.87,23.0825,9.73
877,4125449,0.965874,-0.082838,0.05002,25.025,25.8825,14.0525
878,4125545,1.022482,-0.050142,-0.100284,30.415,21.5425,17.9025
879,4125642,1.1453360000000001,-0.054167999999999994,-0.24363400000000002,36.1375,7.5075,17.5875
880,4125739,1.316746,-0.09052401,-0.411384,24.2025,-8.995,10.99
881,4125836,1.48596,-0.11358199999999999,-0.559248,4.55,-24.9725,-2.205
882,4125932,1.569896,-0.179584,-0.5975560000000001,-13.51,-30.1175,-19.495
883,4126029,1.543056,-0.27279200000000003,-0.46726,-25.4625,-6.09,-31.7975
884,4126126,1.43594,-0.36661,-0.34477199999999997,-18.4625,31.4125,-32.0425
885,4126223,1.233176,-0.43676000000000004,-0.334402,-6.8075,40.7575,-28.98
886,4126319,1.019188,-0.313784,-0.382348,-7.2625,18.41,-23.695
887,4126416,0.964044,-0.134444,-0.329156,1.19,-7.1225,-15.3475
888,4126513,1.016748,-0.026351999999999997,-0.251686,19.88,-24.57,-3.6225
889,4126610,1.054324,0.018422,-0.30744,28.8925,-28.91,8.155
890,4126706,1.0565200000000001,0.0366,-0.352946,25.1125,-19.075,16.73
891,4126803,1.05225,0.042944,-0.26961999999999997,11.13,-3.2375,17.675
892,4126900,1.044198,0.027694,-0.203862,-5.46,6.125,10.5875
893,4126996,1.0110139999999999,-0.039772,-0.196664,-16.1,4.1125,0.9975
894,4127093,0.992226,-0.11333800000000001,-0.200568,-21.9275,-1.365,-6.895
895,4127190,1.006256,-0.139568,-0.208254,-22.05,-1.26,-12.4425
896,4127287,1.02724,-0.13359000000000001,-0.22082,-17.9725,0.7875,-14.5775
897,4127383,1.034194,-0.111142,-0.23240999999999998,-15.015,-1.26,-14.0175
898,4127480,1.0243120000000001,-0.102358,-0.226066,-12.0925,-4.8475,-11.76
899,4127577,0.985516,-0.11834000000000001,-0.21655,-9.5375,-8.2075,-8.1725
900,4127674,0.915976,-0.14786400000000002,-0.210206,-8.015,-11.6375,-4.8125
901,4127770,0.8447280999999999,-0.17995,-0.20556999999999997,-7.805,-14.0,-2.6075
902,4127867,0.791048,-0.198128,-0.206668,-8.8725,-13.8425,-0.9625
903,4127964,0.748104,-0.192028,-0.20190999999999998,-8.8725,-12.0225,1.12
904,4128060,0.733464,-0.18104800000000001,-0.187392,-8.925,-9.8,2.94
905,4128157,0.7357821,-0.170068,-0.167872,-9.555,-8.155,3.78
906,4128254,0.756156,-0.161894,-0.15921,-10.22,-6.9125,2.94
907,4128351,0.7701859999999999,-0.14335,-0.143716,-10.4125,-7.2275,0.315
908,4128447,0.7861680999999999,-0.139934,-0.14335,-11.305,-9.2225,-3.5
909,4128544,0.797392,-0.159576,-0.134444,-10.3775,-11.655,-6.685
910,4128641,0.8072741,-0.160552,-0.126636,-9.6775,-13.58,-8.855
911,4128738,0.814472,-0.15579400000000002,-0.12041400000000001,-8.7675,-14.1925,-11.235
912,4128834,0.8230120999999999,-0.150304,-0.11895,-7.5075,-13.895,-12.3375
913,4128931,0.8453381,-0.158478,-0.09979600000000001,-6.6675,-13.7375,-12.6
914,4129028,0.859368,-0.142618,-0.08344800000000001,-6.93,-13.1425,-12.3375
915,4129124,0.8712021000000001,-0.133102,-0.06405001,-10.1675,-10.605,-12.1975
916,4129221,0.8693719999999999,-0.141154,-0.033672,-12.74,-6.8425,-11.445
917,4129318,0.8723001,-0.136884,-0.032208,-16.3975,-4.9525,-8.75
918,4129415,0.868152,-0.134322,-0.024888,-19.32,-5.495,-6.0025
919,4129511,0.863516,-0.125538,-0.02074,-21.7,-6.2475,-4.34
920,4129608,0.8730319999999999,-0.11834000000000001,-0.020008,-22.89,-6.02,-3.0275
921,4129705,0.8969440000000001,-0.09698999999999999,-0.035258,-22.8025,-6.3,-1.3825
922,4129802,0.9171961,-0.08503401,-0.07808001,-20.545,-8.1375,-0.2975
923,4129898,0.9446460999999999,-0.09479401,-0.113094,-11.7075,-10.675,0.49
924,4129995,0.9716081,-0.101504,-0.12993,0.0,-12.2325,0.77
925,4130092,0.9797819999999999,-0.07344400000000001,-0.11285,7.77,-12.075,0.28
926,4130188,0.983564,-0.012565999999999999,-0.099186,7.315,-8.8375,-1.82
927,4130285,0.975512,0.055265999999999996,-0.07881200000000001,3.2375,-3.85,-5.285
928,4130382,0.968192,0.09333,-0.025742,0.4375,2.9925,-7.7875
929,4130479,0.96929,0.102602,0.03416,-1.9775,8.3475,-8.1025
930,4130575,0.97173,0.096868,0.091988,-5.53,10.115,-7.3675
931,4130672,0.9836860999999999,0.06490399999999999,0.158966,-10.92,11.0075,-7.7
932,4130769,1.004426,0.015493999999999999,0.171532,-15.5575,12.425,-9.66
933,4130866,1.07482,-0.063684,0.055388,-20.195,9.2925,-14.56
934,4130962,1.190598,-0.127978,-0.13237000000000002,-24.7275,-5.0925,-22.33
935,4131059,1.306132,-0.186538,-0.34733400000000003,-23.835,-24.395,-31.7275
936,4131156,1.499868,-0.29377600000000004,-0.655384,-15.5925,-43.61,-38.3075
937,4131253,1.635166,-0.235582,-0.9201241,1.4175,-58.1525,-32.41
938,4131349,1.674206,-0.147254,-0.820084,29.4,-52.9375,-18.3925
939,4131446,1.7080000000000002,-0.08784,-0.5103260000000001,51.6425,-25.83,3.675
940,4131543,1.572092,0.007076001,-0.18422,57.7325,8.715,29.8725
941,4131640,1.318332,0.15237799999999999,-0.157502,31.6925,32.0425,38.92
942,4131736,1.117154,0.22948200000000002,-0.315492,1.3825,12.285,22.015
943,4131833,0.958432,0.031842,-0.43163599999999996,-14.1575,-24.255,6.825
944,4131930,0.9056061,-0.133102,-0.39955,-15.1025,-33.1975,0.665
945,4132026,0.9026780000000001,-0.17397200000000002,-0.349408,-15.2425,-22.4525,-0.98
946,4132123,0.9051181,-0.166652,-0.35685,-14.42,-11.06,-5.7225
947,4132220,0.916952,-0.162504,-0.338062,-8.4,-12.18,-9.2925
948,4132317,0.912438,-0.152988,-0.284504,1.4,-20.825,-7.875
949,4132413,0.882548,-0.132126,-0.263764,8.96,-26.8975,-3.8675
950,4132510,0.8586360000000001,-0.11053199999999999,-0.278648,11.935,-29.82,-0.8400001
951,4132607,0.8676640999999999,-0.106628,-0.29768,11.8125,-30.9575,0.6475
952,4132704,0.9028,-0.110044,-0.294996,9.3275,-29.6975,1.12
953,4132800,0.931958,-0.09418401,-0.278404,4.7775,-24.64,1.1375
954,4132897,0.92781,-0.06832001,-0.270962,0.1925,-20.02,0.3325
955,4132994,0.885476,-0.040016,-0.27218200000000004,-3.9725,-19.285,-0.8925
956,4133090,0.8350901,-0.011101999999999999,-0.285724,-8.155,-20.8775,-1.645
957,4133187,0.79971,0.00976,-0.28682199999999997,-11.2525,-22.295,-1.5225
958,4133284,0.779092,0.027206,-0.271572,-13.405,-21.7,-0.175
959,4133381,0.760304,0.038674,-0.267302,-14.6475,-19.355,1.5925
960,4133477,0.7564001,0.051972000000000004,-0.260592,-13.37,-16.59,2.3275
961,4133574,0.773968,0.05795,-0.242902,-9.555,-13.86,2.1875
962,4133671,0.794342,0.058926,-0.223016,-7.2625,-11.0425,2.38
963,4133767,0.8086161000000001,0.052582000000000004,-0.20801,-7.1575,-7.49,2.9225
964,4133864,0.823622,0.042089999999999995,-0.18727,-7.35,-5.3375,3.2725
965,4133961,0.838994,0.034892,-0.185074,-7.4375,-4.095,3.7975
966,4134058,0.855342,0.031964,-0.186538,-7.595,-3.465,3.885
967,4134154,0.870592,0.028182,-0.186904,-7.5425,-2.8875,3.78
968,4134251,0.8885261000000001,0.024156,-0.173362,-6.685,-2.345,3.3425
969,4134348,0.8884040000000001,0.01891,-0.166164,-4.5675,-0.7175,2.1
970,4134445,0.882182,-0.004026,-0.1647,-2.1875,0.455,0.2975
971,4134541,0.8740081000000001,-0.010126000000000001,-0.152866,1.4875,0.4725,-1.2075
972,4134638,0.8784,-0.014518000000000001,-0.14518,5.18,0.0875,-3.3425
973,4134735,0.8819381,-0.0244,-0.119682,9.0475,0.315,-5.3375
974,4134831,0.8818159999999999,-0.028792,-0.09638,12.67,1.085,-6.4225
975,4134928,0.8814501,-0.021472,-0.066124,16.87,1.89,-7.035
976,4135025,0.879864,-0.008296000999999999,-0.042334,20.1775,3.1325,-7.0
977,4135122,0.8823040000000001,-0.002928,-0.042212,21.0525,4.5325,-7.245
978,4135218,0.883768,0.01342,-0.066246,19.1275,3.85,-7.07
979,4135315,0.900726,0.009028000999999999,-0.10394400000000001,12.88,1.19,-6.9825
980,4135412,0.9060940000000001,0.014518000000000001,-0.141154,4.655,1.2775,-6.9125
981,4135508,0.904508,-0.001464,-0.142862,0.665,5.145,-6.6325
982,4135605,0.9056061,-0.046726,-0.11773,1.365,10.2725,-5.8625
983,4135702,0.9006040999999999,-0.07686,-0.107116,1.295,14.49,-4.3925
984,4135799,0.89975,-0.09235399999999999,-0.116388,1.26,16.0125,-2.975
985,4135895,0.906216,-0.11028800000000001,-0.10797000000000001,3.3425,16.415,-1.785
986,4135992,0.9145120999999999,-0.116022,-0.065148,6.2125,18.095,-0.21
987,4136089,0.9330560999999999,-0.121024,0.00488,11.4975,21.3675,2.0825
988,4136186,0.9451341000000001,-0.104554,0.056974000000000004,17.9725,24.325,6.685
989,4136282,0.9749021000000001,-0.064538,-0.022813999999999997,25.1125,23.52,13.6675
990,4136379,1.0876299999999999,-0.042578,-0.23838800000000002,35.35,10.29,18.7775
991,4136476,1.257332,-0.057828,-0.359656,37.17,-11.55,18.795
992,4136573,1.417884,-0.07173600000000001,-0.5049581,14.3325,-19.8975,10.675
993,4136669,1.470344,-0.116876,-0.555832,-3.605,-13.1425,-4.8825
994,4136766,1.412882,-0.171776,-0.445788,-17.0975,1.3825,-19.9325
995,4136863,1.33651,-0.20483800000000002,-0.338672,-25.305,25.725,-25.62
996,4136959,1.253794,-0.264008,-0.339404,-11.3925,43.7325,-24.1675
997,4137056,1.142408,-0.284992,-0.419558,3.2025,27.2825,-21.595
998,4137153,1.038708,-0.168604,-0.484706,4.1825,-4.48,-20.2475
999,4137250,1.0382200000000001,-0.062098,-0.393816,18.165,-17.6575,-17.745
1000,4137346,1.057374,-0.069052,-0.280356,35.385,-19.0575,-10.36
1001,4137443,1.034316,-0.064416,-0.35160399999999997,34.5275,-20.1775,0.5775
1002,4137540,1.010648,-0.063074,-0.34782199999999996,26.53,-17.815,7.21
1003,4137637,1.0376100000000001,-0.044407999999999996,-0.26535,11.375,-6.5275,5.7925
1004,4137733,1.068598,-0.030622000000000003,-0.20788800000000002,-5.88,6.9475,-0.56
1005,4137830,1.061766,-0.044286,-0.178242,-18.3575,10.9375,-6.825
1006,4137927,1.055056,-0.054046000000000004,-0.199348,-23.8525,7.5425,-11.025
1007,4138023,1.055666,-0.07234600000000001,-0.230946,-20.615,4.165,-10.675
1008,4138120,1.0615219999999999,-0.093574,-0.25193000000000004,-14.1925,1.6975,-6.9475
1009,4138217,1.058106,-0.10760399999999999,-0.23851,-7.77,1.715,-3.4125
1010,4138314,1.014308,-0.12627,-0.214232,-4.0425,2.5375,-1.295
1011,4138410,0.9463540000000001,-0.157868,-0.20618000000000003,-2.9575,-0.49,-1.1375
1012,4138507,0.877058,-0.19580999999999998,-0.197518,-2.5375,-5.39,-2.275
1013,4138604,0.81313,-0.221552,-0.188002,-3.08,-8.0325,-2.7825
1014,4138701,0.761646,-0.22472399999999998,-0.177998,-3.9725,-7.525,-2.0475
1015,4138797,0.740418,-0.21301199999999998,-0.17397200000000002,-5.495,-6.37,-1.0675
1016,4138894,0.742004,-0.188002,-0.17433800000000002,-6.9125,-5.8275,-0.595
1017,4138991,0.755912,-0.17397200000000002,-0.169458,-8.1025,-6.5625,-1.3125
1018,4139087,0.7692101,-0.149694,-0.16043,-9.6075,-7.98,-2.6425
1019,4139184,0.777018,-0.14078800000000002,-0.157136,-11.5325,-8.5925,-4.34
1020,4139281,0.7832399999999999,-0.135664,-0.140422,-11.2175,-8.68,-5.6525
1021,4139378,0.78385,-0.14896199999999998,-0.132126,-10.29,-8.6275,-7.035
1022,4139475,0.7862901,-0.150792,-0.12444000000000001,-9.9575,-9.905,-8.855
1023,4139571,0.806054,-0.174582,-0.11102000000000001,-9.275,-11.6375,-11.2875
1024,4139668,0.8178880999999999,-0.189466,-0.105896,-8.1725,-11.8825,-12.775
1025,4139765,0.8372860999999999,-0.17324,-0.11394800000000001,-8.2775,-10.5875,-12.915
1026,4139861,0.8480221,-0.14896199999999998,-0.099186,-8.785,-8.435,-12.6875
1027,4139958,0.863516,-0.138836,-0.079544,-9.065,-5.985,-12.8625
1028,4140055,0.8704700000000001,-0.123708,-0.044407999999999996,-9.6775,-4.6025,-11.2
1029,4140151,0.8632719999999999,-0.116876,-0.015493999999999999,-11.725,-3.815,-9.0825
1030,4140248,0.850706,-0.12175599999999999,0.010858,-13.1425,-4.095,-7.805
1031,4140345,0.8443620999999999,-0.116876,0.005612,-14.7175,-5.285,-6.8075
1032,4140442,0.8609540999999999,-0.101382,-0.031232,-14.8575,-7.0175,-5.04
1033,4140538,0.8805960999999999,-0.096624,-0.06356201,-11.375,-8.435,-3.5875
1034,4140635,0.8995059999999999,-0.09589201,-0.10052799999999999,-6.0375,-7.805,-3.5
1035,4140732,0.9108521,-0.09577000000000001,-0.117486,1.225,-6.8075,-3.395
1036,4140829,0.9235399999999999,-0.077836,-0.10797000000000001,7.945,-5.4075,-2.625
1037,4140925,0.9296399999999999,-0.026962,-0.08405800000000001,9.485,-2.765,-1.89
1038,4141022,0.9340321,0.019154,-0.03477,6.58,3.0625,-2.0825
1039,4141119,0.9357401,0.049166,0.035502,2.555,12.11,-2.6075
1040,4141216,0.9318360000000001,0.061,0.09589201,-4.9175,19.25,-3.675
1041,4141312,0.942816,0.05563200000000001,0.15311,-15.19,21.7,-5.6525
1042,4141409,0.9802700000000001,0.015372,0.203862,-25.6375,22.4875,-9.0475
1043,4141506,1.037488,-0.06124401,0.15176800000000001,-35.105,22.75,-13.3
1044,4141602,1.207678,-0.152988,-0.1464,-47.81,11.655,-18.2
1045,4141699,1.39934,-0.213378,-0.477996,-48.02,-14.805,-21.21
1046,4141796,1.532076,-0.22630999999999998,-0.684542,-25.585,-40.1275,-20.2825
1047,4141893,1.591124,-0.151402,-0.815326,-6.335,-54.565,-14.2275
1048,4141989,1.61772,-0.071858,-0.7015,10.92,-49.77,-3.4825
1049,4142086,1.610644,-0.042334,-0.450058,34.755,-19.7225,14.14
1050,4142183,1.577216,0.078202,-0.274012,48.86,14.8575,35.945
1051,4142280,1.380064,0.249856,-0.269742,33.6,28.77,41.6675
1052,4142376,1.1629040000000002,0.280478,-0.335744,5.635,8.2425,26.425
1053,4142473,0.964044,0.12065799999999999,-0.38661799999999996,-11.8475,-19.9325,10.185
1054,4142570,0.8597341000000001,-0.028669999999999998,-0.35697199999999996,-18.0425,-24.3775,0.2975
1055,4142666,0.8610761,-0.101748,-0.312564,-21.1925,-13.72,-2.065
1056,4142763,0.8958459999999999,-0.14310599999999998,-0.32195799999999997,-17.395,-4.4625,-2.765
1057,4142860,0.9229299999999999,-0.139568,-0.328546,-6.0025,-1.9425,-2.695
1058,4142957,0.942206,-0.11614400000000001,-0.30048600000000003,9.52,-4.9525,-1.085
1059,4143053,0.9394,-0.101504,-0.268522,23.485,-10.22,0.0875
1060,4143150,0.9412299999999999,-0.092964,-0.263276,30.4325,-17.43,-0.245
1061,4143247,0.9577,-0.09698999999999999,-0.247538,31.1675,-23.73,-1.5925
1062,4143343,0.9833200000000001,-0.10345599999999999,-0.239852,27.93,-24.1675,-3.1675
1063,4143440,0.9961300999999999,-0.10004,-0.23021399999999997,24.885,-19.67,-4.8125
1064,4143537,0.9825879999999999,-0.08442401,-0.20837600000000003,21.525,-14.6125,-5.81
1065,4143633,0.9444020000000001,-0.04392,-0.20374,16.205,-11.9175,-4.8475
1066,4143730,0.8992620000000001,-0.0032939999999999996,-0.22643200000000002,10.85,-12.11,-2.45
1067,4143827,0.8666879999999999,0.041968,-0.228384,8.365,-12.2675,1.0675
1068,4143924,0.8397261,0.077836,-0.20288599999999998,8.015,-9.765,4.55
1069,4144020,0.8136180000000001,0.099674,-0.193736,8.1375,-5.705,6.3
1070,4144117,0.801296,0.10614000000000001,-0.191662,8.645,-4.0075,6.23
1071,4144214,0.800808,0.09418401,-0.19276,9.0825,-4.6725,4.165
1072,4144311,0.8095920999999999,0.07856801,-0.185928,9.0825,-6.335,1.2775
1073,4144407,0.837408,0.05453401,-0.16043,7.945,-7.0525,-1.085
1074,4144504,0.85888,0.041846,-0.142252,7.1925,-6.125,-2.2575
1075,4144601,0.8755940000000001,0.02745,-0.14310599999999998,5.915,-4.3575,-3.01
1076,4144697,0.8845,0.010248,-0.14383800000000002,5.145,-3.255,-3.71
1077,4144794,0.8904780000000001,-0.00305,-0.13054000000000002,6.5625,-3.535,-3.8675
1078,4144891,0.8884040000000001,-0.01952,-0.119682,9.135,-4.515,-4.3925
1079,4144988,0.8842561,-0.035746,-0.110776,9.485,-5.6525,-5.11
1080,4145084,0.880474,-0.050386,-0.094672,10.15,-6.44,-5.9325
1081,4145181,0.870592,-0.041114,-0.08845001,12.1275,-7.245,-7.14
1082,4145278,0.868396,-0.040992,-0.077958,13.405,-8.4,-8.3825
1083,4145375,0.8726661,-0.052216,-0.06270801,15.3825,-9.9225,-9.2925
1084,4145471,0.866078,-0.05453401,-0.049776,17.7275,-10.7625,-9.4325
1085,4145568,0.8609540999999999,-0.05636401,-0.036112,19.635,-9.9925,-8.6975
1086,4145665,0.8611979999999999,-0.054778,-0.031110000000000002,21.175,-8.505,-7.56
1087,4145761,0.86498,-0.043432,-0.05355801,19.6,-8.5925,-6.0375
1088,4145858,0.8866961,-0.021838,-0.09186601,13.755,-10.5525,-4.6725
1089,4145955,0.9051181,0.008540001,-0.118218,3.6225,-11.725,-4.0075
1090,4146052,0.921222,0.000732,-0.11321600000000001,-0.3325,-8.365,-3.185
1091,4146148,0.9175620000000001,-0.048068,-0.10736,2.835,-2.905,-1.785
1092,4146245,0.8826700000000001,-0.080276,-0.105896,3.5,0.1575,0.385
1093,4146342,0.8615640999999999,-0.091988,-0.11236199999999999,2.9925,1.2775,2.3975
1094,4146439,0.8592460999999999,-0.10394400000000001,-0.11126400000000002,6.8075,2.0475,3.5175
1095,4146535,0.8812059999999999,-0.117486,-0.075762,13.5275,3.7975,4.7425
1096,4146632,0.94001,-0.12895399999999999,-0.061366,24.4825,6.6325,5.8275
1097,4146729,1.055544,-0.13456600000000002,-0.191052,36.8375,6.055,6.3
1098,4146825,1.255258,-0.152134,-0.324642,44.625,-5.3725,3.5875
1099,4146922,1.497428,-0.193858,-0.438346,28.84,-18.55,-5.6525
1100,4147019,1.6582240000000001,-0.19983599999999999,-0.496174,1.435,-19.04,-21.525
1101,4147116,1.6567599999999998,-0.24668400000000001,-0.36636599999999997,-12.67,-7.2975,-34.7725
1102,4147212,1.5196319999999999,-0.305,-0.27218200000000004,-19.145,9.6425,-34.3175
1103,4147309,1.335656,-0.293288,-0.338428,-20.7375,14.9275,-21.91
1104,4147406,1.154608,-0.1708,-0.37112399999999995,-23.695,2.66,-10.2725
1105,4147502,1.103612,-0.000732,-0.268644,-16.835,-6.16,-6.37
1106,4147599,1.1346,0.07503,-0.20642399999999997,2.73,-12.2675,-1.225
1107,4147696,1.121424,0.08674201,-0.27889200000000003,19.7575,-16.8525,11.0075
1108,4147793,1.046516,0.081496,-0.338794,26.5125,-13.2125,22.575
1109,4147889,0.9768540000000001,0.059658,-0.352458,24.6925,-0.875,24.7275
1110,4147986,0.9070700999999999,0.00488,-0.318542,19.075,7.1925,17.7275
1111,4148083,0.863516,-0.052703999999999994,-0.251808,12.95,6.6675,6.44
1112,4148180,0.8663219999999999,-0.0976,-0.21581799999999998,7.63,3.7625,-5.4075
1113,4148276,0.8914540000000001,-0.11834000000000001,-0.182146,6.8075,1.995,-14.14
1114,4148373,0.91622,-0.10675,-0.17202,3.885,1.8725,-18.48
1115,4148470,0.927688,-0.08893801,-0.19093,-0.28,2.4675,-19.6175
1116,4148566,0.9325680000000001,-0.09638,-0.23448400000000003,-4.2,0.0,-18.4625
1117,4148663,0.9409860999999999,-0.11016600000000001,-0.274012,-8.82,-6.475,-15.995
1118,4148760,0.943426,-0.128832,-0.270474,-11.8475,-11.34,-13.0025
1119,4148857,0.91012,-0.155916,-0.24875799999999998,-12.32,-11.4625,-9.2575
1120,4148953,0.8604661,-0.17202,-0.23424,-10.5,-10.92,-5.1625
1121,4149050,0.825574,-0.187392,-0.22143000000000002,-7.4375,-12.04,-2.4675
1122,4149147,0.812032,-0.189466,-0.20642399999999997,-5.1975,-12.6175,-1.19
1123,4149243,0.810446,-0.185684,-0.1952,-4.1125,-11.6025,-0.735
1124,4149340,0.813008,-0.180316,-0.18251199999999998,-3.885,-11.2175,-0.945
1125,4149437,0.815936,-0.1647,-0.16958,-3.0975,-11.48,-1.3125
1126,4149534,0.8155701,-0.15176800000000001,-0.155184,-1.96,-12.11,-1.6975
1127,4149630,0.8160581,-0.138348,-0.14798599999999998,-1.47,-13.055,-2.6075
1128,4149727,0.825574,-0.139324,-0.137372,-1.26,-14.42,-4.62
1129,4149824,0.838628,-0.139934,-0.13078399999999998,-2.4675,-15.61,-7.1925
1130,4149920,0.8402139999999999,-0.1464,-0.11467999999999999,-3.6925,-15.1725,-9.345
1131,4150017,0.85034,-0.15616,-0.101016,-5.355,-13.86,-10.85
1132,4150114,0.8587581,-0.14566800000000002,-0.09320801,-6.9475,-12.2675,-11.515
1133,4150211,0.870592,-0.15091400000000002,-0.090768,-9.03,-10.1675,-12.5475
1134,4150307,0.8718120999999999,-0.14335,-0.07637200000000001,-10.57,-7.49,-12.9675
1135,4150404,0.8790100000000001,-0.145302,-0.060146000000000005,-13.9475,-5.425,-13.3
1136,4150501,0.866078,-0.145058,-0.045872,-17.43,-4.3925,-12.075
1137,4150598,0.8414341000000001,-0.135542,-0.026595999999999998,-20.6325,-4.0775,-10.2025
1138,4150694,0.8164239999999999,-0.132126,-0.024278,-24.6925,-4.27,-8.89
1139,4150791,0.8030041,-0.11846199999999998,-0.047214,-27.23,-3.64,-7.525
1140,4150888,0.799588,-0.104798,-0.07076001,-25.69,-2.3625,-6.0725
1141,4150985,0.8080061,-0.097478,-0.079422,-19.845,-0.2625,-4.69
1142,4151081,0.826428,-0.09247601,-0.089914,-12.425,1.47,-3.6925
1143,4151178,0.85644,-0.080886,-0.11041,-5.6875,2.2225,-3.0275
1144,4151275,0.8890140999999999,-0.05587601,-0.098088,1.19,3.1325,-2.485
1145,4151371,0.9073141,-0.020618,-0.06771001,4.1825,6.37,-3.045
1146,4151468,0.9051181,0.004148001,-0.004636001,3.745,11.725,-4.8825
1147,4151565,0.8985301,0.013054,0.055754,1.6625,17.1325,-7.665
1148,4151662,0.9060940000000001,0.015006,0.09394001,-4.655,18.9,-10.71
1149,4151758,0.96014,0.010858,0.07991000000000001,-16.4325,17.8325,-14.7525
1150,4151855,1.055056,-0.005368,0.005246,-26.4075,15.015,-19.18
1151,4151952,1.25233,-0.024522,-0.270596,-35.28,3.605,-21.4375
1152,4152049,1.555988,-0.0305,-0.739808,-34.79,-27.09,-17.6925
1153,4152145,1.764852,0.017446,-0.874862,1.89,-59.99,-7.035
1154,4152242,1.812798,0.0549,-0.6600201,37.9575,-54.1975,7.7875
1155,4152339,1.743624,0.07527400000000001,-0.346602,46.48,-12.985,23.065
1156,4152435,1.4903520000000001,0.130296,-0.21228000000000002,37.4675,24.395,34.7375
1157,4152532,1.198772,0.136762,-0.198372,20.475,31.3775,30.73
1158,4152629,1.085068,0.015738,-0.29219,1.155,8.33,14.07
1159,4152726,1.089094,-0.12212200000000001,-0.373808,-15.3475,-22.6625,-1.645
1160,4152822,1.051518,-0.18605,-0.373564,-16.3975,-24.6925,-9.4325
1161,4152919,1.03578,-0.160308,-0.363804,-20.2125,-0.3325,-15.5925
1162,4153016,1.05713,-0.149328,-0.346602,-19.8625,13.895,-19.7575
1163,4153112,1.032242,-0.12675799999999998,-0.347578,-13.1425,7.665,-17.36
1164,4153209,0.9799041,-0.08906,-0.29951,-2.625,-5.81,-10.0975
1165,4153306,0.93879,-0.07076001,-0.2318,7.98,-13.7375,-1.33
1166,4153403,0.9126820999999999,-0.05795,-0.22021,10.5875,-16.765,6.51
1167,4153499,0.887184,-0.045018,-0.26291,7.2975,-21.2975,11.165
1168,4153596,0.8913321,-0.042089999999999995,-0.29743600000000003,8.435,-25.9175,11.655
1169,4153693,0.9118280000000001,-0.041236,-0.28486999999999996,14.0,-24.8325,8.015
1170,4153790,0.9225639999999999,-0.036233999999999995,-0.257176,16.835,-19.705,1.96
1171,4153886,0.9053620000000001,-0.025742,-0.245342,13.3525,-16.66,-3.36
1172,4153983,0.8685181000000001,-0.010858,-0.242902,7.49,-17.8325,-5.4075
1173,4154080,0.828624,-0.001464,-0.244,3.3075,-20.5275,-4.0425
1174,4154177,0.7975140000000001,0.011712,-0.243024,1.1025,-20.8775,-1.015
1175,4154273,0.7853140000000001,0.029158,-0.23058,0.5775,-18.0775,2.31
1176,4154370,0.790194,0.04867801,-0.21533000000000002,0.28,-13.3525,4.8125
1177,4154467,0.7922680000000001,0.07307801,-0.197762,-0.56,-9.3625,6.23
1178,4154563,0.803736,0.085156,-0.18470799999999998,-1.505,-8.6275,5.95
1179,4154660,0.8192299999999999,0.09333,-0.168848,-2.625,-9.73,5.1275
1180,4154757,0.8310639999999999,0.097478,-0.15677,-4.4975,-10.7275,4.3925
1181,4154854,0.8481440999999998,0.090646,-0.149328,-7.175,-10.78,4.305
1182,4154950,0.8640040000000001,0.07612801,-0.144326,-7.5425,-9.5725,5.215
1183,4155047,0.868762,0.059902,-0.14347200000000002,-4.8475,-7.8575,6.44
1184,4155144,0.876692,0.033916,-0.140178,-0.28,-6.8425,6.93
1185,4155241,0.8815719999999999,0.021472,-0.140666,5.74,-6.9825,6.9125
1186,4155337,0.8836459999999999,0.009516001,-0.133224,11.27,-6.895,6.2125
1187,4155434,0.8818159999999999,0.004514,-0.12761199999999998,15.96,-6.51,4.7425
1188,4155531,0.8791321,0.002562,-0.12139000000000001,19.635,-6.6325,3.1325
1189,4155627,0.8847440999999999,0.000976,-0.110654,22.5575,-7.1575,1.4
1190,4155724,0.886574,0.011834,-0.091378,25.0075,-6.895,-0.3675
1191,4155821,0.8941380999999999,0.022203999999999998,-0.066856,25.8825,-5.9675,-2.1525
1192,4155918,0.9076799999999999,0.032695999999999996,-0.048312,25.3225,-4.4625,-4.095
1193,4156014,0.9181720999999999,0.047824,-0.0488,22.085,-3.7275,-5.7225
1194,4156111,0.9236620999999999,0.05843801,-0.06466001,16.8,-4.41,-6.72
1195,4156208,0.9372040999999999,0.055388,-0.10809200000000001,9.1175,-6.2125,-7.56
1196,4156305,0.9333,0.039406000000000004,-0.12529400000000002,3.045,-6.195,-8.4525
1197,4156401,0.9167081,0.014518000000000001,-0.09930800000000001,3.4125,-1.8725,-9.0825
1198,4156498,0.8962120000000001,0.010858,-0.09040201,3.6925,2.8,-9.135
1199,4156595,0.8740081000000001,0.017446,-0.08906,3.2375,5.32,-7.9975
1200,4156691,0.8638819999999999,0.023302,-0.10004,4.8125,6.0025,-5.6525
1201,4156788,0.8773021000000001,0.033062,-0.124928,10.78,6.9125,-2.9225
1202,4156885,0.940254,0.031354,-0.187026,24.115,7.035,-0.7875
1203,4156982,1.072014,0.002196,-0.33489,43.26,2.5725,-0.175
1204,4157078,1.294664,-0.043554,-0.538996,61.1975,-9.065,-2.1
1205,4157175,1.498404,-0.20435,-0.556442,58.6425,-21.1575,-11.585
1206,4157272,1.606008,-0.23424,-0.5221600000000001,32.0075,-17.6225,-33.88
1207,4157368,1.63114,-0.284748,-0.44200600000000007,9.555,-4.9525,-60.5325
1208,4157465,1.548424,-0.391864,-0.390278,3.9025,10.0975,-69.405
1209,4157562,1.2688,-0.356118,-0.389912,5.25,14.77,-51.5375
1210,4157659,1.018456,-0.22411399999999998,-0.326716,9.695,4.97,-27.9475
1211,4157755,0.9663620999999999,-0.125416,-0.26900999999999997,32.13,-18.3575,-16.1875
1212,4157852,0.987224,-0.06039,-0.277062,51.73,-38.71,-7.8575
1213,4157949,0.9888101,-0.036233999999999995,-0.359412,63.1225,-32.9175,2.0475
1214,4158045,1.010282,-0.041724000000000004,-0.36282800000000004,64.3125,-13.7025,9.17
1215,4158142,1.030778,-0.048434,-0.312808,56.4725,-1.365,8.085
1216,4158239,0.9869800999999999,-0.09162200000000001,-0.275598,46.76,-3.465,1.1025
1217,4158336,0.9524540000000001,-0.133468,-0.281454,30.2925,-12.04,-7.595
1218,4158432,0.9587979999999999,-0.154818,-0.29072600000000004,11.7075,-13.895,-14.49
1219,4158529,0.971242,-0.163236,-0.250222,0.455,-7.2625,-18.2175
1220,4158626,0.973194,-0.158844,-0.23119,-2.2925,-0.945,-18.6025
1221,4158722,0.96929,-0.131638,-0.271816,-1.96,-2.695,-16.905
1222,4158819,0.97783,-0.11358199999999999,-0.312076,1.61,-9.38,-14.2275
1223,4158916,0.9642879999999999,-0.131028,-0.30256,7.945,-13.335,-10.2025
1224,4159013,0.9082899999999999,-0.15201199999999998,-0.278526,14.14,-13.405,-5.3725
1225,4159109,0.8367979999999999,-0.16201600000000002,-0.277794,18.655,-13.16,-2.8175
1226,4159206,0.7922680000000001,-0.175314,-0.28181999999999996,20.4225,-13.79,-3.815
1227,4159303,0.77653,-0.174094,-0.271328,19.1625,-14.28,-6.58
1228,4159399,0.780434,-0.165676,-0.254126,16.0475,-12.7225,-10.325
1229,4159496,0.79483,-0.163602,-0.22814,15.5575,-10.1675,-13.545
1230,4159593,0.796782,-0.157502,-0.208986,16.9575,-7.9275,-15.3825
1231,4159690,0.799588,-0.152622,-0.18629400000000002,18.7775,-6.825,-16.5725
1232,4159786,0.8067861,-0.155916,-0.180194,20.545,-6.265,-17.8325
1233,4159883,0.8030041,-0.144448,-0.160918,21.7875,-6.7025,-19.005
1234,4159980,0.808738,-0.15433,-0.142496,21.805,-6.9125,-20.6325
1235,4160076,0.8077621,-0.142496,-0.122976,20.475,-5.8275,-22.05
1236,4160173,0.818498,-0.142862,-0.116998,16.9575,-3.325,-22.7675
1237,4160270,0.8274040000000001,-0.12505,-0.10430999999999999,13.0725,-1.1375,-21.9625
1238,4160367,0.8239880999999999,-0.127368,-0.101382,9.03,0.6125,-21.49
1239,4160463,0.82594,-0.128466,-0.09333,7.1925,0.98,-21.98
1240,4160560,0.8310639999999999,-0.121512,-0.077348,5.1625,1.2425,-22.0325
1241,4160657,0.820938,-0.14090999999999998,-0.070882,3.115,1.8025,-21.4025
1242,4160753,0.8049561,-0.17238599999999998,-0.06527000000000001,3.675,2.5375,-20.2125
1243,4160850,0.792512,-0.179706,-0.080764,5.3025,1.5575,-18.2
1244,4160947,0.79483,-0.17995,-0.078446,7.56,0.0525,-16.8175
1245,4161044,0.7978801,-0.157746,-0.07551801,8.0325,2.38,-16.4325
1246,4161140,0.798978,-0.124074,-0.066124,6.7025,6.7025,-17.0975
1247,4161237,0.804834,-0.079056,-0.06649,5.2325,10.36,-18.1125
1248,4161334,0.8113001,-0.032208,-0.06270801,4.34,12.5475,-19.4075
1249,4161430,0.83021,0.019032,-0.037698,5.4075,14.2625,-20.755
1250,4161527,0.8522921,0.049044,0.000366,9.1525,16.03,-22.3125
1251,4161624,0.8664440000000001,0.059536,0.028426,13.335,18.9175,-23.135
1252,4161721,0.8907221,0.044164,0.047824,15.2075,21.5075,-23.625
1253,4161817,0.941108,0.009272001,0.065148,12.915,22.7325,-24.0275
1254,4161914,1.024556,-0.032451999999999995,0.016958,5.3375,21.63,-24.7275
1255,4162011,1.155096,-0.077714,-0.111752,-2.205,15.225,-25.165
1256,4162108,1.400072,-0.121146,-0.45579200000000003,-10.045,-1.8025,-23.0125
1257,4162204,1.672986,-0.08527801,-0.790194,-3.6225,-33.7575,-15.68
1258,4162301,1.7547259999999998,0.027938,-0.8443620999999999,18.725,-57.54,-5.95
1259,4162398,1.710806,0.147254,-0.6206141,35.5775,-38.8675,2.66
1260,4162494,1.569652,0.164212,-0.374662,48.4575,10.3775,11.97
1261,4162591,1.381162,0.126026,-0.42151000000000005,50.1025,32.2875,17.395
1262,4162688,1.208166,-0.041358,-0.48922,51.9225,8.645,8.7325
1263,4162785,1.1239860000000002,-0.15006,-0.398208,53.445,-13.1075,-0.9625
1264,4162881,1.105442,-0.180072,-0.299266,48.755,-8.26,-6.195
1265,4162978,1.0717700000000001,-0.17543599999999998,-0.238998,41.405,-1.1725,-9.1525
1266,4163075,1.028094,-0.12444000000000001,-0.295606,26.495,-3.0975,-11.375
1267,4163171,1.02541,-0.06929600000000001,-0.385886,21.735,-10.5175,-12.4775
1268,4163268,1.01626,-0.02501,-0.393938,30.9225,-16.835,-9.6075
1269,4163365,1.009306,-0.005734,-0.352946,43.05,-17.815,-3.0975
1270,4163462,0.9918600000000001,-0.028548,-0.336476,51.7125,-18.4625,3.395
1271,4163558,0.979416,-0.065026,-0.330986,53.2,-22.715,6.51
1272,4163655,0.996008,-0.062952,-0.324154,50.5925,-24.325,3.6925
1273,4163752,0.9978379999999999,-0.04941,-0.29426399999999997,49.91,-22.1725,-3.185
1274,4163848,0.957334,-0.042212,-0.260104,50.0325,-20.3525,-10.815
1275,4163945,0.906948,-0.036356,-0.248392,47.7225,-20.2475,-15.645
1276,4164042,0.869128,-0.017446,-0.253272,43.8375,-20.6325,-16.5725
1277,4164139,0.844606,-0.002196,-0.260714,41.3175,-20.7375,-14.9625
1278,4164235,0.818132,0.017202000000000002,-0.26169000000000003,41.3175,-18.095,-11.97
1279,4164332,0.79422,0.042089999999999995,-0.252906,41.965,-12.95,-9.625
1280,4164429,0.7832399999999999,0.064782,-0.25302800000000003,42.91,-8.995,-8.6625
1281,4164525,0.7956840999999999,0.07991000000000001,-0.252052,44.1175,-8.6975,-8.225
1282,4164622,0.8163020999999999,0.093574,-0.2501,43.715,-11.41,-7.28
1283,4164719,0.8375299999999999,0.096624,-0.24082800000000001,41.825,-14.2975,-6.7375
1284,4164816,0.8544879999999999,0.09674601,-0.22057600000000002,40.775,-15.8375,-5.95
1285,4164912,0.870226,0.08906,-0.21862399999999999,40.3025,-15.225,-6.0375
1286,4165009,0.8813280000000001,0.076494,-0.223748,41.195,-13.3,-6.93
1287,4165106,0.8812059999999999,0.054412,-0.226798,44.9925,-10.5875,-8.75
1288,4165202,0.877912,0.023180000000000003,-0.233508,49.91,-7.91,-10.4125
1289,4165299,0.879376,-0.011224,-0.23448400000000003,54.985,-6.685,-11.69
1290,4165396,0.8874280999999999,-0.030378,-0.220088,60.7425,-5.8975,-12.355
1291,4165493,0.8987741,-0.048556,-0.203862,66.9725,-4.97,-13.09
1292,4165589,0.9063379999999999,-0.044896,-0.194346,71.61,-6.09,-13.2825
1293,4165686,0.9174399999999999,-0.034526,-0.18751400000000001,74.3225,-8.1375,-13.3875
1294,4165783,0.927322,-0.017202000000000002,-0.17507,78.05,-8.6625,-13.09
1295,4165880,0.9370821,-0.008174001,-0.152134,80.4475,-8.1725,-13.37
1296,4165976,0.945744,-0.001098,-0.14798599999999998,81.41001,-6.93,-13.7375
1297,4166073,0.9440360999999999,0.007076001,-0.141154,80.6925,-6.8425,-14.0875
1298,4166170,0.9358620999999999,0.02135,-0.16348,76.755,-7.595,-14.455
1299,4166266,0.9269561,0.025863999999999998,-0.202154,71.4525,-9.4675,-15.05
1300,4166363,0.9030440000000001,0.021472,-0.223504,64.4525,-11.515,-15.4175
1301,4166460,0.885842,0.009272001,-0.22996999999999998,59.045,-11.1825,-16.1175
1302,4166556,0.8860860999999999,-0.009150001,-0.232776,58.1,-9.59,-17.2725
1303,4166653,0.8823040000000001,-0.02074,-0.230458,59.1675,-8.26,-18.6375
1304,4166750,0.8875501,-0.020862000000000002,-0.204716,60.6025,-5.6175,-19.9675
1305,4166847,0.90646,-0.021594,-0.173118,64.5575,-1.6625,-20.44
1306,4166943,0.9173181,-0.02928,-0.138958,72.4675,0.4725,-18.7775
1307,4167040,0.9128040000000001,-0.023180000000000003,-0.145424,79.8,1.05,-14.525
1308,4167137,0.9225639999999999,-0.01952,-0.21679400000000001,89.4775,0.35,-9.275
1309,4167233,0.976366,-0.059048,-0.41406800000000005,106.6275,-6.055,-4.34
1310,4167330,1.0645719999999999,-0.15433,-0.47482399999999997,126.0875,-20.9125,-1.995
1311,4167427,1.121302,-0.256932,-0.46506400000000003,126.5425,-30.2575,-7.035
1312,4167524,1.204872,-0.331352,-0.413336,123.8825,-33.075,-24.5
1313,4167620,1.244034,-0.387594,-0.32757,117.32,-37.625,-46.69
1314,4167717,1.210972,-0.395646,-0.243024,97.14251,-36.26,-64.1725
1315,4167814,1.121668,-0.35221399999999997,-0.30805,79.94,-19.0575,-70.9625
1316,4167910,1.0056459999999998,-0.25302800000000003,-0.378444,79.2575,-9.5025,-63.6825
1317,4168007,0.93391,-0.204228,-0.346602,85.0675,-13.8425,-52.8325
1318,4168104,0.9191481,-0.14945,-0.292068,89.65250999999999,-15.61,-43.435
1319,4168201,0.953674,-0.09991799999999999,-0.294996,85.62751,-12.53,-37.5375
1320,4168297,1.015528,-0.08357,-0.30341399999999996,77.035,-11.2525,-33.18
1321,4168394,1.087386,-0.09150001,-0.27889200000000003,64.47,-13.335,-29.645
1322,4168491,1.109956,-0.099552,-0.271084,49.3325,-16.1175,-25.8475
1323,4168587,1.09495,-0.12505,-0.265472,36.6975,-18.5325,-22.4
1324,4168684,1.069574,-0.14579,-0.25681,30.3975,-18.9,-21.0175
1325,4168781,1.051152,-0.162382,-0.240096,32.7425,-15.225,-22.4525
1326,4168878,1.038586,-0.18068199999999998,-0.245098,42.175,-10.1675,-23.2225
1327,4168974,1.0171139999999999,-0.186538,-0.250222,54.6525,-10.115,-20.5975
1328,4169071,0.972218,-0.188124,-0.25376,67.13,-12.32,-16.695
1329,4169168,0.9347639999999999,-0.180926,-0.24351199999999998,75.775,-15.75,-13.9825
1330,4169264,0.909632,-0.16592,-0.23460599999999998,80.1675,-18.6725,-13.755
1331,4169361,0.8843781,-0.159088,-0.222894,82.8625,-19.355,-16.0825
1332,4169458,0.8685181000000001,-0.151036,-0.21813600000000002,83.8425,-18.095,-19.81
1333,4169554,0.8671761,-0.153476,-0.207156,84.6475,-16.555,-24.745
1334,4169651,0.868396,-0.14896199999999998,-0.198006,84.9975,-15.3475,-28.8575
1335,4169748,0.8607100000000001,-0.140666,-0.19215,84.9625,-14.3675,-32.1125
1336,4169845,0.8471681000000001,-0.140544,-0.18287799999999999,84.7875,-13.5275,-35.07
1337,4169941,0.8360661,-0.13456600000000002,-0.170434,84.14001,-12.67,-37.5375
1338,4170038,0.8282579999999999,-0.119804,-0.158722,81.935,-11.235,-39.27
1339,4170135,0.8322841000000001,-0.116022,-0.150792,78.0675,-9.7125,-41.0725
1340,4170231,0.8409459999999999,-0.116388,-0.146766,72.73,-8.4175,-42.735
1341,4170328,0.8543661,-0.116876,-0.14566800000000002,67.13,-6.8425,-43.575
1342,4170425,0.8721780000000001,-0.125416,-0.13298,63.105,-5.3025,-43.96
1343,4170522,0.895236,-0.1403,-0.12444000000000001,61.775,-3.7275,-44.31
1344,4170618,0.9202459999999999,-0.159332,-0.128222,62.545,-3.0275,-44.59
1345,4170715,0.93391,-0.182268,-0.128832,65.4675,-4.0075,-45.465
1346,4170812,0.9325680000000001,-0.20313,-0.135298,69.65,-5.7575,-46.585
1347,4170908,0.928542,-0.215086,-0.140422,74.5325,-7.5075,-48.0375
1348,4171005,0.918538,-0.215696,-0.152622,78.68,-7.945,-49.56
1349,4171102,0.9201241,-0.208986,-0.172508,81.375,-7.665,-50.3475
1350,4171198,0.9440360999999999,-0.191662,-0.18470799999999998,83.4225,-7.49,-49.4725
1351,4171295,0.9709979999999999,-0.17360599999999998,-0.170922,85.1725,-7.1575,-47.7575
1352,4171392,0.9857600000000001,-0.146034,-0.134932,85.365,-6.51,-46.2875
1353,4171489,0.987956,-0.10760399999999999,-0.110776,82.075,-5.11,-46.1125
1354,4171585,0.9707541,-0.074786,-0.09674601,75.3025,-2.66,-47.46
1355,4171682,0.9469641,-0.049288,-0.08417999999999999,67.34000999999999,0.385,-49.6825
1356,4171779,0.921344,-0.033184,-0.050386,59.78,3.4475,-51.94
1357,4171875,0.90036,-0.019642,-0.023790000000000002,53.1125,7.3325,-53.2875
1358,4171972,0.894626,-0.020984,0.000732,50.26,11.1825,-53.655
1359,4172069,0.9018241,-0.044286,0.018666,49.805,14.805,-53.4975
1360,4172165,0.910974,-0.07893401,0.022326,49.8225,18.8825,-53.55
1361,4172262,0.9173181,-0.12065799999999999,0.032574,49.5775,22.5575,-55.0025
1362,4172359,0.9435479999999999,-0.1647,0.015738,47.5825,25.375,-57.155
1363,4172455,1.027484,-0.196542,-0.15433,41.055,23.555,-58.7825
1364,4172552,1.173152,-0.199958,-0.440176,38.9725,10.8675,-57.89
1365,4172649,1.321504,-0.166286,-0.6613621000000001,52.22,-11.165,-51.52
1366,4172746,1.4238620000000002,-0.129442,-0.6301300999999999,73.5,-26.1625,-40.95
1367,4172842,1.5495219999999998,-0.06527000000000001,-0.53314,81.83001,-17.8325,-30.8175
1368,4172939,1.538298,-0.021716,-0.339038,91.07,0.8925,-19.46
1369,4173036,1.37067,-0.121878,-0.188856,108.8675,15.6275,-4.62
1370,4173132,1.103002,-0.014152000000000001,-0.24790399999999999,108.64,18.935,3.745
1371,4173229,0.9322021,0.020862000000000002,-0.26766799999999996,91.2275,7.63,-11.935
1372,4173326,0.852902,-0.098088,-0.254614,75.845,-0.3675,-26.8275
1373,4173423,0.838628,-0.155672,-0.268766,71.47,-2.2925,-32.0775
1374,4173519,0.844606,-0.135664,-0.28377199999999997,70.84000999999999,-1.925,-32.025
1375,4173616,0.8838901,-0.079422,-0.302682,67.41001,0.1575,-30.17
1376,4173713,0.9230520000000001,-0.000488,-0.31524800000000003,63.7875,-2.1,-26.705
1377,4173809,0.9439139999999999,0.071004,-0.333914,65.43251,-7.98,-21.1925
1378,4173906,0.9494040000000001,0.124074,-0.34709,71.3125,-13.7375,-13.755
1379,4174003,0.9684360999999999,0.155184,-0.32208000000000003,77.54251,-15.9775,-6.9475
1380,4174099,0.9995460999999999,0.162138,-0.31049,80.255,-15.1375,-3.605
1381,4174196,1.00284,0.14884,-0.29597199999999996,82.5825,-14.0,-4.515
1382,4174293,0.981978,0.11224,-0.28975,87.95501,-12.8625,-9.7825
1383,4174390,0.9464761,0.07246799999999999,-0.285114,95.6725,-10.9725,-16.9925
1384,4174486,0.9291520000000001,0.047580000000000004,-0.276818,101.7275,-9.4325,-24.99
1385,4174583,0.9392780000000001,0.028182,-0.269254,102.76,-8.1725,-32.1825
1386,4174680,0.9497701,0.026474,-0.270596,102.3925,-7.4375,-37.275
1387,4174776,0.960384,0.038796,-0.26352,101.7625,-7.5425,-39.655
1388,4174873,0.9669721,0.056974000000000004,-0.25803000000000004,101.8675,-7.0,-40.495
1389,4174970,0.9618481,0.074542,-0.24631799999999998,104.265,-7.1925,-40.74
1390,4175066,0.955992,0.08466801,-0.231312,106.75,-8.7675,-41.7025
1391,4175163,0.948306,0.082838,-0.224846,108.92,-11.06,-43.68
1392,4175260,0.9433041,0.072102,-0.225212,109.9875,-13.37,-45.885
1393,4175357,0.9396440999999999,0.06636801,-0.21886799999999998,108.99,-14.735,-47.95
1394,4175453,0.94611,0.056608000000000006,-0.206668,106.7325,-14.385,-49.7
1395,4175550,0.9558701,0.040992,-0.19861600000000001,104.16,-12.6525,-51.415
1396,4175647,0.950868,0.024156,-0.189588,101.815,-9.66,-52.4825
1397,4175743,0.9486720999999999,0.008052001,-0.181536,100.4675,-6.7025,-52.3775
1398,4175840,0.9451341000000001,-0.013786000000000001,-0.168726,100.6075,-4.4975,-51.5375
1399,4175937,0.9415959999999999,-0.030256,-0.16714,101.535,-2.6775,-50.645
1400,4176034,0.94916,-0.039162,-0.17263,102.1825,-1.6625,-49.35
1401,4176130,0.9623360999999999,-0.0488,-0.17214200000000002,102.27,-1.89,-47.4775
1402,4176227,0.9767321,-0.06490399999999999,-0.171166,101.1675,-2.03,-45.5875
1403,4176324,0.9825879999999999,-0.06954,-0.169214,98.175,-1.6275,-44.17
1404,4176420,0.9806360000000001,-0.07588400000000001,-0.168482,94.67501,-0.3325,-42.9275
1405,4176517,0.9770981,-0.08881599,-0.165188,91.8225,0.455,-41.37
1406,4176614,0.9696561,-0.100406,-0.15823399999999999,90.00251,0.805,-39.6725
1407,4176711,0.964044,-0.106018,-0.148596,89.355,1.1025,-37.9925
1408,4176807,0.964532,-0.100284,-0.148596,88.69,1.1375,-36.4525
1409,4176904,0.96624,-0.09784401,-0.144082,88.39251,0.5425,-35.0875
1410,4177001,0.9697780999999999,-0.09333,-0.138348,88.62,-0.385,-33.215
1411,4177097,0.9629459999999999,-0.08564401,-0.15091400000000002,89.39,-1.54,-30.59
1412,4177194,0.9587979999999999,-0.082838,-0.163724,90.265,-2.3625,-27.4575
1413,4177291,0.9577,-0.087352,-0.15420799999999998,91.0175,-1.715,-24.815
1414,4177387,0.951844,-0.08564401,-0.14798599999999998,90.72001,-0.245,-22.2425
1415,4177484,0.940742,-0.074786,-0.16409,87.0275,0.6825,-20.2475
1416,4177581,0.9265901,-0.05929201,-0.177876,82.985,0.945,-18.0425
1417,4177678,0.909998,-0.062220000000000004,-0.170312,82.5825,1.4525,-15.0325
1418,4177774,0.887916,-0.062586,-0.161406,82.46,4.025,-11.305
1419,4177871,0.8788879999999999,-0.061366,-0.13664,82.8975,8.4525,-7.21
1420,4177968,0.8668100000000001,-0.056852,-0.09442801,85.89,14.1225,-2.905
1421,4178064,0.861442,-0.063684,-0.05124001,90.07251,19.81,1.19
1422,4178161,0.8637601,-0.06795401,-0.02684,96.005,23.9925,5.4075
1423,4178258,0.8805960999999999,-0.076494,-0.045018,102.6025,24.1325,9.31
1424,4178355,0.916586,-0.082716,-0.149572,104.2825,19.145,13.195
1425,4178451,1.028948,-0.110654,-0.360388,106.3825,8.33,14.665
1426,4178548,1.20353,-0.131882,-0.48312,96.98501,-8.8375,10.8675
1427,4178645,1.3607879999999999,-0.16201600000000002,-0.5091061,64.2425,-13.475,-1.6625
1428,4178741,1.420934,-0.15054800000000002,-0.46469799999999994,45.1325,6.9825,-19.285
1429,4178838,1.368596,-0.223992,-0.42773199999999995,44.765,25.655,-26.7575
1430,4178935,1.2367139999999999,-0.271816,-0.41382399999999997,45.7275,30.2225,-21.525
1431,4179031,1.045418,-0.188368,-0.364658,52.465,32.27,-14.315
1432,4179128,0.930006,-0.1281,-0.3233,65.94,18.4275,-9.87
1433,4179225,0.8949921000000001,-0.014152000000000001,-0.34526,76.16001,-12.81,-7.2975
1434,4179322,0.9178061,0.09394001,-0.36295,86.0125,-33.11,-6.5275
1435,4179418,0.961726,0.161162,-0.386862,92.83751,-29.1375,-5.7575
1436,4179515,0.990274,0.188002,-0.391864,91.175,-13.2125,-3.325
1437,4179612,0.9975940999999999,0.160918,-0.342332,82.32,1.925,-1.8025
1438,4179708,0.977342,0.08308201,-0.282674,72.7475,7.9275,-3.0975
1439,4179805,0.9465981,-0.012078,-0.23887600000000003,64.34751,8.435,-8.155
1440,4179902,0.955016,-0.082594,-0.22448,57.4525,11.1825,-16.205
1441,4179999,1.003938,-0.11541199999999999,-0.23838800000000002,54.0575,17.2025,-23.5375
1442,4180095,1.059082,-0.1159,-0.25656599999999996,54.4775,20.44,-27.44
1443,4180192,1.068476,-0.109678,-0.261446,58.485,16.835,-26.3025
1444,4180289,1.0384639999999998,-0.108458,-0.249856,63.2275,7.7,-20.965
1445,4180385,0.99308,-0.10394400000000001,-0.25058800000000003,67.69001,-3.325,-14.945
1446,4180482,0.9413520000000001,-0.108458,-0.24192600000000003,74.2175,-12.705,-11.0425
1447,4180579,0.8936501,-0.12065799999999999,-0.221552,80.815,-16.5725,-10.01
1448,4180676,0.8548540000000001,-0.125904,-0.216916,84.175,-14.8575,-11.34
1449,4180772,0.8376520000000001,-0.12358599999999999,-0.214964,84.91,-11.0075,-13.3525
1450,4180869,0.840824,-0.125904,-0.203862,83.58001,-7.385,-16.415
1451,4180966,0.846924,-0.117974,-0.194346,80.605,-5.0575,-19.075
1452,4181062,0.8624181000000001,-0.1159,-0.183854,77.525,-3.78,-21.4025
1453,4181159,0.8752280000000001,-0.12334200000000001,-0.17397200000000002,74.6725,-3.5525,-23.6075
1454,4181256,0.8927959999999999,-0.13151600000000002,-0.171532,72.4675,-4.55,-25.655
1455,4181353,0.9028,-0.146766,-0.16348,71.0675,-5.81,-27.8425
1456,4181449,0.9032879999999999,-0.163114,-0.14335,69.87751,-6.9825,-29.7325
1457,4181546,0.903898,-0.177266,-0.12383,68.39,-8.085,-30.1175
1458,4181643,0.904142,-0.196664,-0.11919400000000001,64.89,-10.255,-29.5225
1459,4181739,0.904508,-0.203008,-0.114802,60.97,-12.53,-27.0025
1460,4181836,0.9080459999999999,-0.203984,-0.108702,56.98,-13.0375,-24.7975
1461,4181933,0.906216,-0.203862,-0.104798,52.9025,-12.1975,-22.4175
1462,4182030,0.9090219999999999,-0.196298,-0.095038,49.8225,-10.955,-20.1075
1463,4182126,0.9145120999999999,-0.193858,-0.091744,46.7075,-10.325,-17.675
1464,4182223,0.9151219999999999,-0.195932,-0.07564,45.57,-9.6425,-15.8375
1465,4182320,0.906216,-0.201666,-0.05917000000000001,46.095,-8.9425,-14.245
1466,4182416,0.8968221,-0.215086,-0.040992,47.0225,-8.2425,-13.7725
1467,4182513,0.9006040999999999,-0.227408,-0.051972000000000004,45.92,-8.435,-13.755
1468,4182610,0.9026780000000001,-0.23546,-0.080398,44.38,-9.905,-13.2475
1469,4182707,0.9063379999999999,-0.23826599999999998,-0.093696,43.855,-11.1475,-12.39
1470,4182803,0.9067040000000001,-0.211182,-0.10052799999999999,40.2675,-10.9025,-11.7775
1471,4182900,0.9080459999999999,-0.174582,-0.10553,35.2275,-7.665,-11.3575
1472,4182997,0.9142680000000001,-0.132126,-0.09869801,31.325,-3.3775,-10.4475
1473,4183093,0.9112181,-0.08674201,-0.08466801,27.44,0.665,-9.8525
1474,4183190,0.9175620000000001,-0.05917000000000001,-0.071614,26.005,4.3225,-10.1325
1475,4183287,0.9174399999999999,-0.05941401,-0.03355,28.2625,8.2425,-10.815
1476,4183384,0.9158540999999999,-0.08784,0.019398,30.6775,12.4775,-11.1825
1477,4183480,0.9128040000000001,-0.12322000000000001,0.044407999999999996,29.4875,15.68,-11.2
1478,4183577,0.942084,-0.158966,0.047214,23.4675,17.4825,-13.3
1479,4183674,1.0323639999999998,-0.17946199999999998,-0.033306,9.7825,17.0975,-17.9725
1480,4183770,1.20536,-0.192882,-0.268156,-5.67,9.8525,-22.9075
1481,4183867,1.42374,-0.178852,-0.630008,-6.3875,-9.905,-22.1375
1482,4183964,1.57807,-0.174826,-0.781898,25.48,-29.61,-12.4425
1483,4184061,1.623332,-0.159576,-0.6724640000000001,49.8925,-31.2725,2.7125
1484,4184157,1.591124,-0.102968,-0.421266,52.465,-7.91,16.3625
1485,4184254,1.43716,-0.010492,-0.264984,44.31,18.3925,23.975
1486,4184351,1.2110940000000001,0.09979600000000001,-0.209108,32.4975,25.2,20.4225
1487,4184447,1.065914,0.063074,-0.260348,15.7325,12.915,6.93
1488,4184544,1.027606,-0.034404000000000004,-0.390644,1.75,-8.9425,-5.495
1489,4184641,1.001986,-0.13480999999999999,-0.400648,4.06,-17.9025,-11.9
1490,4184738,0.9941780000000001,-0.17214200000000002,-0.358558,5.3025,-2.7475,-12.6875
1491,4184834,0.996862,-0.133102,-0.35624,-3.29,11.2525,-12.9675
1492,4184931,0.9618481,-0.08174001,-0.390034,-6.02,9.0475,-13.545
1493,4185028,0.906948,-0.058316,-0.3843,0.9975,-0.945,-11.165
1494,4185124,0.876326,-0.039162,-0.32025,8.96,-6.8775,-5.7575
1495,4185221,0.8755940000000001,-0.035502,-0.272304,13.615,-7.9275,0.35
1496,4185318,0.876326,-0.038064,-0.293898,14.14,-9.3625,5.1625
1497,4185415,0.890966,-0.043554,-0.3111,15.7325,-11.8475,6.3875
1498,4185511,0.9202459999999999,-0.046726,-0.31012399999999996,20.3175,-12.8975,4.0425
1499,4185608,0.9423280999999999,-0.03782,-0.29487399999999997,24.2375,-11.6025,-0.175
1500,4185705,0.944768,-0.031354,-0.287432,25.76,-9.87,-4.48
1501,4185801,0.9302501,-0.024644,-0.288408,25.6375,-10.185,-7.7525
1502,4185898,0.9032879999999999,-0.020618,-0.29768,24.5,-12.4425,-8.8025
1503,4185995,0.865468,-0.009150001,-0.296704,23.8175,-13.1075,-6.86
1504,4186092,0.8397261,0.007686,-0.281088,23.1525,-10.5525,-4.27
1505,4186188,0.8274040000000001,0.03294,-0.266326,22.715,-6.0375,-2.73
1506,4186285,0.8250860000000001,0.058926,-0.24949000000000002,23.0825,-2.9575,-3.01
1507,4186382,0.8304541,0.07490801,-0.238144,22.9775,-2.275,-4.2
1508,4186478,0.8479,0.080886,-0.222406,21.6125,-3.29,-5.5125
1509,4186575,0.864614,0.07442,-0.21166999999999997,18.7775,-4.865,-6.8775
1510,4186672,0.8699821,0.061854,-0.20788800000000002,16.555,-6.0725,-7.805
1511,4186769,0.8736421,0.039772,-0.200202,15.0325,-6.1775,-9.2925
1512,4186865,0.882914,0.02196,-0.188124,14.8225,-5.285,-9.9575
1513,4186962,0.8857200999999999,-0.000732,-0.18849000000000002,15.7675,-3.9025,-10.4475
1514,4187059,0.8885261000000001,-0.029158,-0.172874,18.48,-3.3425,-9.9925
1515,4187155,0.8848659999999999,-0.021594,-0.158356,20.1075,-3.2725,-9.625
1516,4187252,0.8874280999999999,-0.016714,-0.154818,19.7575,-3.7975,-9.4325
1517,4187349,0.8880380999999999,-0.025131999999999998,-0.149206,20.8425,-3.99,-8.9425
1518,4187446,0.8820601,-0.029768,-0.143716,22.7675,-4.34,-9.5375
1519,4187542,0.8834021000000001,-0.03965,-0.134444,24.045,-4.375,-10.29
1520,4187639,0.882182,-0.042822000000000006,-0.11028800000000001,25.445,-3.5525,-11.7775
1521,4187736,0.873886,-0.050752,-0.08417999999999999,26.0225,-2.24,-13.4925
1522,4187832,0.86559,-0.06039,-0.06819800000000001,26.1975,-1.2775,-14.245
1523,4187929,0.8602221,-0.054167999999999994,-0.05819401,25.9525,-0.6825,-14.4375
1524,4188026,0.8701040000000001,-0.045627999999999995,-0.06270801,23.1,-0.3325,-14.42
1525,4188122,0.8926741,-0.042089999999999995,-0.07698201,19.5825,-0.2975,-14.5775
1526,4188219,0.9154880999999999,-0.044896,-0.085888,16.7825,-0.0875,-13.825
1527,4188316,0.9295180000000001,-0.042456,-0.116998,9.73,0.245,-12.0575
1528,4188413,0.91805,-0.038186000000000005,-0.144082,1.4875,2.1,-8.75
1529,4188509,0.9070700999999999,-0.07588400000000001,-0.118218,4.865,5.565,-3.6225
1530,4188606,0.8797421000000001,-0.10614000000000001,-0.09235399999999999,14.1575,9.8525,2.73
1531,4188703,0.8609540999999999,-0.100284,-0.087108,20.3175,11.7775,8.1375
1532,4188799,0.869616,-0.10931199999999999,-0.076494,24.4475,12.1275,11.34
1533,4188896,0.898164,-0.11541199999999999,-0.07503,29.5925,13.8425,14.3325
1534,4188993,0.9231739999999999,-0.12065799999999999,-0.06746601,36.96,15.6275,17.29
1535,4189090,0.9888101,-0.12175599999999999,-0.13176,42.07,16.2925,18.55
1536,4189186,1.152778,-0.12029200000000001,-0.284748,46.1125,8.6275,16.3975
1537,4189283,1.391532,-0.14688800000000002,-0.42578,35.525,-8.5575,6.755
1538,4189380,1.59759,-0.180926,-0.5734,3.885,-18.5325,-10.78
1539,4189476,1.6857959999999999,-0.239242,-0.5127659999999999,-19.95,-12.39,-27.79
1540,4189573,1.631506,-0.305,-0.399794,-23.59,13.965,-33.8275
1541,4189670,1.425692,-0.308294,-0.390522,-14.245,32.76,-25.585
1542,4189766,1.148996,-0.203252,-0.42028999999999994,-15.435,19.8625,-13.825
1543,4189863,1.0248,-0.08417999999999999,-0.33428,-6.4225,-2.7125,-5.53
1544,4189960,1.057862,0.03599,-0.24278000000000002,13.9475,-25.5325,2.3275
1545,4190057,1.1003180000000001,0.119926,-0.307318,27.5975,-33.425,12.11
1546,4190153,1.094462,0.15579400000000002,-0.382348,30.38,-21.455,21.945
1547,4190250,1.057984,0.155916,-0.378322,23.9225,-0.5425,26.355
1548,4190347,0.9994241,0.107726,-0.312808,12.95,12.4775,20.93
1549,4190443,0.9406200000000001,0.013297999999999999,-0.261812,2.8,12.11,9.5025
1550,4190540,0.9186601000000001,-0.07832401,-0.24082800000000001,-2.17,8.4525,-2.31
1551,4190637,0.934276,-0.127368,-0.23253200000000002,-0.945,8.3125,-12.11
1552,4190733,0.9484280999999999,-0.12322000000000001,-0.22777399999999998,2.5025,8.6625,-16.9925
1553,4190830,0.960628,-0.096868,-0.244732,3.745,6.8075,-17.3425
1554,4190927,0.97478,-0.07637200000000001,-0.277428,3.5,1.505,-15.75
1555,4191024,0.976366,-0.078446,-0.28181999999999996,3.8325,-5.25,-12.845
1556,4191120,0.9375700000000001,-0.103822,-0.256322,5.635,-9.7475,-8.435
1557,4191217,0.8693719999999999,-0.129564,-0.247416,5.8275,-12.565,-3.85
1558,4191314,0.80886,-0.14078800000000002,-0.247416,5.9325,-15.8375,-1.5925
1559,4191410,0.780312,-0.132126,-0.24082800000000001,6.65,-17.9375,-1.9075
1560,4191507,0.7820199999999999,-0.12041400000000001,-0.23058,7.6475,-17.395,-3.36
1561,4191604,0.794708,-0.11236199999999999,-0.211914,8.995,-14.28,-4.655
1562,4191700,0.7978801,-0.110898,-0.203008,8.5925,-11.0075,-5.6175
1563,4191797,0.7954399999999999,-0.106628,-0.200202,8.3475,-9.0125,-6.1425
1564,4191894,0.792024,-0.110044,-0.1891,8.785,-9.765,-7.525
1565,4191991,0.79422,-0.12139000000000001,-0.17507,9.52,-12.11,-9.8175
1566,4192087,0.8014180000000001,-0.13151600000000002,-0.155306,10.395,-14.07,-12.355
1567,4192184,0.807396,-0.156648,-0.14274,10.9025,-15.6975,-13.9475
1568,4192281,0.825574,-0.166286,-0.134322,10.7625,-16.9925,-15.47
1569,4192377,0.8493641,-0.172996,-0.122366,9.73,-16.73,-16.0125
1570,4192474,0.863028,-0.16652999999999998,-0.11321600000000001,7.8575,-15.085,-15.9775
1571,4192571,0.8690061,-0.154574,-0.111874,5.5825,-13.615,-16.2575
1572,4192667,0.885964,-0.153598,-0.08820599999999999,3.8675,-12.635,-15.7675
1573,4192764,0.9052401,-0.14993800000000002,-0.051362,1.33,-10.29,-14.49
1574,4192861,0.9125601000000001,-0.14090999999999998,-0.028548,-2.2225,-6.79,-12.8975
1575,4192958,0.8987741,-0.14274,-0.010614,-5.1975,-5.1275,-10.605
1576,4193054,0.8824261,-0.142984,-0.002684,-8.7325,-5.565,-8.9075
1577,4193151,0.8726661,-0.13480999999999999,-0.024766,-14.35,-7.5425,-7.5425
1578,4193248,0.877668,-0.11919400000000001,-0.063928,-16.0475,-10.5525,-6.3
1579,4193344,0.87718,-0.11955999999999999,-0.102968,-12.1975,-11.2175,-5.04
1580,4193441,0.8764481,-0.119682,-0.114802,-7.0525,-9.485,-4.585
1581,4193538,0.8903561,-0.09442801,-0.12017,-3.6925,-6.16,-4.585
1582,4193635,0.901458,-0.05917000000000001,-0.11394800000000001,-0.525,-0.455,-4.8825
1583,4193731,0.9115840000000001,-0.025742,-0.098332,2.6425,6.1075,-4.8825
1584,4193828,0.9209780000000001,0.008418,-0.03782,7.175,12.845,-4.4975
1585,4193925,0.9206120000000001,0.013908000000000002,0.042578,13.0375,19.4425,-3.885
1586,4194021,0.9191481,0.019032,0.09613601,12.2675,24.0275,-2.6775
1587,4194118,0.95709,0.021472,0.09259801,2.4675,22.9075,-2.2575
1588,4194215,1.039928,-0.002684,0.076494,-5.1275,17.885,-3.395
1589,4194311,1.192184,-0.037698,-0.11394800000000001,-13.6325,9.135,-3.9375
1590,4194408,1.4804700000000002,-0.045262000000000004,-0.48824399999999996,-21.49,-14.6125,-3.465
1591,4194505,1.756068,-0.023424,-0.7518859999999999,-6.335,-45.6225,0.8400001
1592,4194602,1.7931560000000002,0.017324000000000003,-0.743468,19.2325,-51.73,8.365
1593,4194698,1.7097080000000002,0.007320001,-0.618174,30.45,-24.5875,14.7525
1594,4194795,1.563064,0.037698,-0.42297399999999996,41.1775,4.34,24.15
1595,4194892,1.2702639999999998,0.101748,-0.247538,48.335,26.0225,26.565
1596,4194988,1.0826280000000001,0.07027201,-0.175558,35.2975,30.135,10.7625
1597,4195085,1.0138200000000002,-0.01037,-0.251076,12.95,4.4275,-5.7575
1598,4195182,1.027484,-0.08405800000000001,-0.361608,0.91,-24.745,-14.1925
1599,4195279,1.027362,-0.113826,-0.41675200000000007,-9.2925,-26.1625,-19.285
1600,4195375,1.026386,-0.07991000000000001,-0.39113200000000004,-20.51,-6.4225,-22.12
1601,4195472,1.030656,-0.054412,-0.36844,-20.65,7.2975,-20.755
1602,4195569,0.978684,-0.05160601,-0.387716,-12.3375,4.4975,-13.545
1603,4195665,0.9150001,-0.059902,-0.357704,-0.735,-4.655,-4.1125
1604,4195762,0.882182,-0.07612801,-0.285114,8.4,-9.8875,2.8875
1605,4195859,0.870958,-0.080886,-0.261812,8.5225,-13.3,6.2125
1606,4195956,0.856562,-0.077714,-0.30048600000000003,6.0025,-17.15,6.0375
1607,4196052,0.8636379999999999,-0.074786,-0.321226,7.7175,-19.915,3.395
1608,4196149,0.8838901,-0.081496,-0.30536599999999997,11.585,-18.935,0.42
1609,4196246,0.8987741,-0.087352,-0.292068,13.02,-15.435,-2.4675
1610,4196342,0.8976761000000001,-0.08881599,-0.293532,12.5825,-13.7025,-5.285
1611,4196439,0.8727879999999999,-0.07344400000000001,-0.29426399999999997,9.975,-15.015,-6.4225
1612,4196536,0.8407021000000001,-0.038796,-0.28682199999999997,6.58,-16.6775,-5.2325
1613,4196632,0.8115439999999999,-0.004392,-0.273036,3.36,-15.575,-1.925
1614,4196729,0.797148,0.029889999999999996,-0.254614,-0.1225,-10.92,2.73
1615,4196826,0.7761640999999999,0.077836,-0.235582,-2.3975,-5.88,6.2825
1616,4196923,0.763598,0.113094,-0.222284,-3.255,-3.4475,7.9625
1617,4197019,0.779458,0.126392,-0.21081599999999998,-4.2875,-3.71,8.855
1618,4197116,0.797636,0.116998,-0.185928,-6.195,-3.01,8.715
1619,4197213,0.815082,0.097966,-0.17580199999999999,-8.715,-1.5575,8.9075
1620,4197309,0.8309421,0.081252,-0.170922,-10.6225,-0.77,8.33
1621,4197406,0.846802,0.059902,-0.159576,-10.0975,-0.8575,8.715
1622,4197503,0.856684,0.050508,-0.147498,-6.7375,-1.1725,10.0275
1623,4197600,0.8632719999999999,0.042578,-0.142984,-2.1175,-2.065,10.955
1624,4197696,0.8713241,0.02806,-0.149206,1.995,-4.48,11.2875
1625,4197793,0.86559,0.023790000000000002,-0.15701400000000001,4.0425,-6.825,10.5875
1626,4197890,0.8718120999999999,0.010614,-0.14566800000000002,5.11,-7.4725,7.805
1627,4197986,0.87108,0.007564001,-0.12749000000000002,6.1775,-5.4075,5.3025
1628,4198083,0.8664440000000001,-0.00671,-0.12078,6.23,-3.2375,3.115
1629,4198180,0.8698601,-0.000488,-0.10833599999999999,6.86,-2.9575,2.0475
1630,4198277,0.87474,0.00244,-0.09942999999999999,7.595,-3.71,0.7175
1631,4198373,0.877424,0.0032939999999999996,-0.078446,8.6275,-3.8675,-0.0175
1632,4198470,0.8842561,0.012565999999999999,-0.05929201,8.505,-2.6075,-0.4375
1633,4198567,0.907192,0.02196,-0.061610000000000005,5.4075,-1.4175,-0.8925
1634,4198663,0.9455,0.02806,-0.078446,-0.8400001,-1.855,-0.945
1635,4198760,0.9784401,0.027938,-0.10809200000000001,-8.575,-1.82,-0.7875
1636,4198857,0.986614,-0.001464,-0.11248399999999999,-11.305,0.945,-0.56
1637,4198953,0.959774,-0.051484,-0.091378,-6.65,5.1975,0.595
1638,4199050,0.9267120000000001,-0.07307801,-0.089426,-4.725,8.05,2.485
1639,4199147,0.9128040000000001,-0.077592,-0.08881599,-4.8825,8.365,3.885
1640,4199243,0.909632,-0.07515201,-0.090036,-1.995,8.8375,5.3375
1641,4199340,0.9264680000000001,-0.057584,-0.069784,0.875,10.7625,6.79
1642,4199437,0.948306,-0.032086,-0.01891,4.1125,15.085,7.9625
1643,4199534,0.9703879999999999,-0.010736,0.0122,8.89,20.1425,9.94
1644,4199630,1.013332,-0.0034159999999999998,-0.047945999999999996,15.0325,21.56,13.23
1645,4199727,1.116422,0.014884,-0.217282,25.5325,14.4375,16.52
1646,4199824,1.257332,-0.006344,-0.26352,28.8225,-1.365,16.24
1647,4199920,1.378722,-0.060146000000000005,-0.41382399999999997,7.455,-8.75,7.8225
1648,4200017,1.48291,-0.10736,-0.48592609999999997,-3.885,-11.5325,-8.225
1649,4200114,1.492426,-0.17836400000000002,-0.429196,-17.2725,-7.9975,-24.7275
1650,4200210,1.411784,-0.220942,-0.342088,-25.34,14.455,-31.9025
1651,4200307,1.280512,-0.298656,-0.3355,-14.5425,35.9625,-30.24
1652,4200404,1.141432,-0.334524,-0.426634,-3.255,27.7725,-26.3375
1653,4200501,1.031144,-0.238998,-0.48104600000000003,-2.3625,-2.345,-24.22
1654,4200597,0.9972281,-0.110044,-0.410408,1.8725,-16.17,-22.54
1655,4200694,0.99979,-0.057828,-0.31585799999999997,11.1125,-11.7425,-14.3675
