,T,ax,ay,az,gx,gy,gz
0,56249,0.407968,-0.096624,-0.702476,18.9175,-18.235,-14.4025
1,56398,0.438956,-0.084912,-0.80642,9.345,-55.2825,-215.4425
2,56496,0.478484,-0.07686,-0.86498,-8.9425,-103.18,-354.1475
3,56594,0.478972,-0.07686,-0.8640040000000001,31.045,-108.675,-89.39
4,56692,0.477508,-0.08052000000000001,-0.8679081,1.47,-7.7,-8.4
5,56791,0.479704,-0.079544,-0.869128,0.9275,-5.8975,-7.035
6,56889,0.47946000000000005,-0.07881200000000001,-0.868396,0.945,-5.81,-6.8425
7,56987,0.480436,-0.079056,-0.8708360999999999,0.9625,-5.81,-6.9475
8,57085,0.477996,-0.079056,-0.870592,0.9625,-5.7575,-6.8425
9,57183,0.47555600000000003,-0.08100801,-0.868884,0.91,-5.7575,-6.93
10,57281,0.47823999999999994,-0.081252,-0.8703481,0.8925,-5.7225,-6.965
11,57379,0.47653199999999996,-0.07856801,-0.871568,0.805,-5.5825,-7.0
12,57477,0.477996,-0.079544,-0.8713241,0.8400001,-5.425,-6.9825
13,57575,0.477508,-0.080764,-0.869616,0.9275,-5.5125,-7.0
14,57673,0.47994799999999993,-0.07856801,-0.8679081,0.91,-5.5475,-7.0175
15,57771,0.47823999999999994,-0.080764,-0.8708360999999999,0.945,-5.635,-6.9825
16,57869,0.478972,-0.079544,-0.870592,0.9275,-5.6,-6.93
17,57967,0.480436,-0.08052000000000001,-0.86864,0.8925,-5.6175,-6.9825
18,58065,0.479704,-0.080276,-0.86864,0.98,-5.705,-6.9125
19,58163,0.477508,-0.080764,-0.8662001,0.9275,-5.7575,-6.9125
20,58262,0.478728,-0.07856801,-0.868884,0.9275,-5.705,-6.9125
21,58360,0.479216,-0.08003201,-0.869616,0.91,-5.705,-6.9125
22,58458,0.47823999999999994,-0.08003201,-0.868152,0.8925,-5.67,-6.9825
23,58556,0.4819,-0.077592,-0.8703481,0.9625,-5.6525,-6.9125
24,58654,0.479704,-0.08100801,-0.865956,0.9975,-5.635,-6.79
25,58752,0.47946000000000005,-0.0793,-0.8701040000000001,1.0675,-5.67,-6.895
26,58850,0.4819,-0.08052000000000001,-0.868152,1.015,-5.705,-6.9475
27,58948,0.47994799999999993,-0.080276,-0.8693719999999999,0.98,-5.74,-6.9125
28,59046,0.47994799999999993,-0.079544,-0.868396,0.9625,-5.7925,-6.8425
29,59144,0.478484,-0.07978801,-0.8703481,0.9275,-5.845,-6.895
30,59242,0.480436,-0.079056,-0.8676640999999999,0.9975,-5.845,-6.9125
31,59340,0.481412,-0.081496,-0.868396,1.015,-5.95,-6.9825
32,59438,0.48092399999999996,-0.07881200000000001,-0.8701040000000001,0.9975,-5.915,-6.86
33,59536,0.480192,-0.079544,-0.8671761,1.085,-5.95,-6.7725
34,59635,0.478728,-0.080276,-0.868152,1.155,-5.8625,-6.755
35,59733,0.47994799999999993,-0.077348,-0.86864,1.1375,-6.02,-6.72
36,59831,0.477996,-0.07856801,-0.8708360999999999,1.26,-6.02,-6.79
37,59929,0.480436,-0.07832401,-0.8674200000000001,1.3125,-6.09,-6.825
38,60027,0.479216,-0.080276,-0.870592,1.295,-6.23,-6.86
39,60125,0.48068,-0.080276,-0.8701040000000001,1.3125,-6.195,-6.79
40,60223,0.47994799999999993,-0.080276,-0.8698601,1.3125,-6.2125,-6.79
41,60321,0.48116800000000004,-0.080276,-0.8693719999999999,1.3125,-6.23,-6.7025
42,60419,0.47994799999999993,-0.081496,-0.8662001,1.4175,-6.3525,-6.65
43,60517,0.478972,-0.07881200000000001,-0.8674200000000001,1.3825,-6.475,-6.72
44,60615,0.477996,-0.080276,-0.86864,1.4875,-6.5975,-6.72
45,60713,0.47946000000000005,-0.081252,-0.8666879999999999,1.4175,-6.615,-6.65
46,60811,0.478972,-0.08003201,-0.8674200000000001,1.4525,-6.65,-6.685
47,60909,0.478972,-0.08100801,-0.868152,1.3475,-6.6675,-6.5275
48,61007,0.47946000000000005,-0.08003201,-0.869616,1.365,-6.6675,-6.545
49,61105,0.47775200000000007,-0.08100801,-0.8701040000000001,1.47,-6.7375,-6.4575
50,61204,0.47946000000000005,-0.08100801,-0.869616,1.575,-6.755,-6.475
51,61302,0.478728,-0.081984,-0.86864,1.5575,-6.825,-6.4925
52,61400,0.4758,-0.0854,-0.8664440000000001,1.5225,-6.965,-6.51
53,61498,0.478972,-0.080764,-0.8674200000000001,1.505,-7.0,-6.44
54,61596,0.47555600000000003,-0.085156,-0.8674200000000001,1.5575,-7.0175,-6.4225
55,61694,0.47702,-0.083204,-0.868884,1.575,-7.1225,-6.4575
56,61792,0.480192,-0.0793,-0.8679081,1.75,-7.0525,-6.4925
57,61890,0.479704,-0.082472,-0.8713241,2.1,-7.21,-6.335
58,61988,0.478728,-0.079544,-0.873764,2.45,-7.4375,-6.2475
59,62086,0.47775200000000007,-0.082716,-0.8713241,2.7825,-7.56,-6.16
60,62184,0.47823999999999994,-0.079544,-0.8781559999999999,3.15,-7.77,-6.265
61,62282,0.480192,-0.079056,-0.877424,3.4125,-7.98,-5.985
62,62380,0.4819,-0.08003201,-0.8762040000000001,4.095,-8.3475,-5.88
63,62478,0.48385200000000006,-0.08100801,-0.8754719999999999,4.795,-8.6275,-5.67
64,62576,0.47604399999999997,-0.08417999999999999,-0.869128,5.215,-9.0475,-5.5475
65,62675,0.478728,-0.082228,-0.876692,5.285,-9.2575,-5.3725
66,62773,0.478728,-0.082472,-0.871568,5.635,-9.59,-5.2325
67,62871,0.474092,-0.089792,-0.8725440999999999,5.95,-9.9925,-5.005
68,62969,0.472872,-0.08881599,-0.8723001,6.055,-10.08,-5.005
69,63067,0.47092,-0.085888,-0.8718120999999999,6.2125,-10.2375,-4.865
70,63165,0.47555600000000003,-0.08881599,-0.8781559999999999,6.2125,-10.255,-4.8125
71,63263,0.464088,-0.090768,-0.870592,6.1775,-10.22,-4.8475
72,63361,0.4636,-0.096624,-0.868396,6.0375,-10.2375,-4.7075
73,63459,0.465308,-0.09979600000000001,-0.8701040000000001,5.81,-9.94,-4.7075
74,63557,0.46506400000000003,-0.100284,-0.8718120999999999,5.7575,-9.765,-4.83
75,63655,0.460672,-0.09589201,-0.873276,5.6525,-9.8525,-4.9
76,63753,0.459696,-0.10809200000000001,-0.8647360000000001,5.4775,-9.7825,-5.005
77,63851,0.45871999999999996,-0.101748,-0.868884,5.145,-9.5025,-5.1625
78,63949,0.452376,-0.10418800000000002,-0.865956,4.83,-9.065,-5.4075
79,64048,0.44652,-0.105652,-0.863516,4.5675,-8.785,-5.5475
80,64146,0.4514,-0.107848,-0.8664440000000001,4.0075,-8.155,-5.7225
81,64244,0.46164799999999995,-0.09711201,-0.873764,3.7975,-7.6125,-5.8625
82,64342,0.458232,-0.105896,-0.8674200000000001,3.885,-7.385,-5.775
83,64440,0.447496,-0.11321600000000001,-0.8625401,3.6575,-7.0525,-5.8975
84,64538,0.449204,-0.11102000000000001,-0.865468,2.8175,-6.44,-6.2475
85,64636,0.448716,-0.11712,-0.8647360000000001,1.9075,-5.88,-6.545
86,64734,0.45896400000000004,-0.1098,-0.8720559999999999,0.91,-5.355,-6.9125
87,64832,0.461892,-0.10394400000000001,-0.8725440999999999,0.455,-5.1625,-7.175
88,64930,0.458476,-0.10931199999999999,-0.868396,0.315,-5.3375,-7.35
89,65028,0.46042799999999995,-0.108824,-0.8671761,-0.0525,-5.285,-7.5075
90,65126,0.4594521,-0.10614000000000001,-0.8703481,-0.5775,-5.1625,-7.5075
91,65224,0.4575,-0.105652,-0.8703481,-0.91,-5.1625,-7.63
92,65322,0.456768,-0.107848,-0.869128,-1.2075,-4.8825,-7.77
93,65420,0.45603599999999994,-0.105652,-0.869616,-1.645,-4.795,-8.05
94,65518,0.46116,-0.10223600000000001,-0.8713241,-2.1175,-4.6375,-8.2425
95,65617,0.456768,-0.104432,-0.8662001,-2.3275,-4.4625,-8.33
96,65715,0.45871999999999996,-0.10394400000000001,-0.8723001,-2.695,-4.3925,-8.4175
97,65813,0.45871999999999996,-0.101748,-0.8693719999999999,-2.9925,-4.2,-8.5925
98,65911,0.457744,-0.102724,-0.8664440000000001,-3.3075,-3.955,-8.75
99,66009,0.45383999999999997,-0.102724,-0.868884,-3.885,-3.71,-8.925
100,66107,0.45432799999999995,-0.104432,-0.8666879999999999,-4.585,-3.2375,-9.205
101,66205,0.45725600000000005,-0.100284,-0.870592,-5.355,-2.765,-9.485
102,66303,0.452376,-0.10638399999999999,-0.8674200000000001,-5.845,-2.2575,-9.765
103,66401,0.449692,-0.100284,-0.8701040000000001,-6.4925,-1.5575,-10.1675
104,66499,0.4553041,-0.09394001,-0.8801081000000001,-7.0525,-0.77,-10.4475
105,66597,0.4575,-0.09272000000000001,-0.8764481,-7.0,0.035,-10.605
106,66695,0.459696,-0.096868,-0.877912,-6.965,0.4725,-10.71
107,66793,0.462136,-0.09442801,-0.8788879999999999,-6.9475,0.98,-11.0425
108,66891,0.46042799999999995,-0.09906401,-0.8744960999999999,-6.9475,1.4875,-11.3925
109,66989,0.45871999999999996,-0.09882,-0.8752280000000001,-7.1225,2.2225,-11.69
110,67088,0.458476,-0.101016,-0.870592,-7.385,2.835,-12.0575
111,67186,0.46335600000000005,-0.09150001,-0.8744960999999999,-7.84,3.7275,-12.495
112,67284,0.466772,-0.09272000000000001,-0.8740081000000001,-8.1725,4.655,-12.88
113,67382,0.471896,-0.087108,-0.8723001,-8.4,5.355,-13.2475
114,67480,0.48214399999999996,-0.07637200000000001,-0.8723001,-8.33,5.8275,-13.475
115,67578,0.486292,-0.07978801,-0.8676640999999999,-7.77,5.8275,-13.6675
116,67676,0.486292,-0.07637200000000001,-0.8727879999999999,-7.875,6.055,-14.035
117,67774,0.48873199999999994,-0.057584,-0.8754719999999999,-7.4725,6.5975,-14.35
118,67872,0.481412,-0.060512,-0.876692,-6.125,7.245,-15.0675
119,67970,0.37502800000000003,-0.079544,-0.9167081,-5.1275,9.1875,-14.98
120,68068,0.41284799999999994,-0.056852,-0.9289081,-5.215,17.3775,-14.0875
121,68166,0.457744,-0.06588,-0.900848,-4.2,26.3725,-14.1575
122,68264,0.458232,-0.06588,-0.90646,-2.66,31.745,-14.385
123,68363,0.447984,-0.080764,-0.9230520000000001,-1.4525,38.395,-15.435
124,68461,0.44725200000000004,-0.081496,-0.9333,-1.3125,46.8125,-17.15
125,68559,0.44334799999999996,-0.087352,-0.96624,-1.47,56.84,-19.7925
126,68657,0.45383999999999997,-0.091012,-0.9501360999999999,-4.1125,68.67,-22.96
127,68755,0.423096,-0.09979600000000001,-0.9484280999999999,-5.845,82.6525,-27.8425
128,68853,0.447984,-0.139568,-0.9882001,-5.9325,98.665,-34.09
129,68951,0.490196,-0.178608,-1.0345600000000001,-8.82,113.96,-40.81
130,69049,0.5233800000000001,-0.119316,-1.0079639999999999,-13.37,126.4375,-47.25
131,69147,0.610488,-0.101748,-0.9845401,-11.585,138.145,-54.4425
132,69245,0.733464,-0.141764,-1.034316,-4.55,146.8425,-60.655
133,69343,0.7317560000000001,-0.132248,-0.993812,4.97,150.1675,-64.9775
134,69441,0.7605481,-0.260836,-1.000644,12.1625,149.1875,-71.4175
135,69539,0.765428,-0.271816,-0.9291520000000001,11.2175,144.55,-78.015
136,69637,0.7422481,-0.31158800000000003,-0.9018241,2.485,137.7075,-84.3675
137,69735,0.61,-0.282796,-0.8335040000000001,-5.985,126.8575,-88.09501
138,69833,0.487756,-0.615124,-1.05774,-4.5675,112.2275,-83.1075
139,69931,0.7854361,-0.8427761,-0.9999121,-9.59,86.73,-53.9175
140,70030,0.753228,-0.8178880999999999,-1.350052,-12.985,66.7625,-18.06
141,70128,0.219844,-0.738588,-1.143384,-8.9775,26.3375,13.475
142,70226,-0.136152,-0.589992,-0.9484280999999999,-8.6625,1.925,35.49
143,70324,-0.159088,-0.413336,-0.9947881,-6.7375,-6.3,45.115
144,70422,-0.0549,-0.29572800000000005,-1.136552,1.365,-14.5775,49.7
145,70520,-0.039284,-0.243024,-1.196576,15.085,-32.9,51.8
146,70618,-0.077836,-0.228384,-1.1716879999999998,28.035,-55.4925,51.3975
147,70716,-0.07686,-0.194712,-1.131428,35.84,-76.195,49.385
148,70814,-0.037088,-0.133224,-1.121668,40.3375,-93.7825,46.0075
149,70912,0.0305,-0.089304,-1.1394799999999998,45.535,-109.445,42.9275
150,71010,0.108824,-0.07564,-1.15168,51.905,-124.2325,41.16
151,71108,0.180804,-0.08174001,-1.148264,57.085,-138.5125,40.8275
152,71206,0.2501,-0.08052000000000001,-1.135576,58.94,-151.375,41.44
153,71304,0.338672,-0.05977999999999999,-1.134112,58.1,-162.1375,42.4375
154,71402,0.43236800000000003,-0.0488,-1.135576,56.0175,-171.08,43.575
155,71500,0.522648,-0.037088,-1.135332,53.6025,-178.29,43.645
156,71599,0.620004,-0.02928,-1.130208,51.555,-183.1025,43.2775
157,71697,0.675148,-0.025376,-1.108492,50.645,-184.94,43.4175
158,71795,0.71248,-0.010492,-1.075064,49.9625,-182.8575,43.47
159,71893,0.7373681,0.013175999999999998,-1.041148,49.3325,-176.75,43.3825
160,71991,0.8052,0.027816000000000004,-1.0504200000000001,48.5625,-167.405,42.9625
161,72089,0.9225639999999999,0.058316,-1.066036,47.3375,-158.2175,41.6675
162,72187,1.004304,0.095648,-1.053104,45.8675,-152.18,39.41
163,72285,1.074088,0.126148,-1.013332,44.5725,-148.19,35.49
164,72383,1.1263040000000002,0.187636,-0.9394,43.575,-144.9525,30.275
165,72481,1.100684,0.20252,-0.803736,42.98,-142.24,23.9925
166,72579,1.0309,0.150792,-0.64172,40.9675,-137.1475,16.7825
167,72677,0.964532,0.098576,-0.494832,34.09,-127.2775,10.22
168,72775,0.9330560999999999,0.060267999999999995,-0.406504,24.15,-113.295,5.7575
169,72873,0.9247601000000001,0.037088,-0.354044,14.49,-97.5975,4.1125
170,72971,0.9120720999999999,0.012931999999999999,-0.305,7.1575,-82.4075,4.13
171,73069,0.892552,-0.002928,-0.256688,1.68,-67.62001,3.745
172,73167,0.8759601,0.001952,-0.23228800000000002,-2.1875,-52.5175,2.0825
173,73266,0.8664440000000001,-0.00366,-0.223992,-2.765,-38.0275,-0.245
174,73364,0.8808401,-0.032695999999999996,-0.225456,-0.875,-24.535,-2.2225
175,73462,0.9032879999999999,-0.08442401,-0.20984,1.12,-12.2325,-3.3075
176,73560,0.9247601000000001,-0.123708,-0.18666,1.1025,-1.015,-3.9025
177,73658,0.9613601,-0.130052,-0.178852,-0.63,10.0275,-3.0275
178,73756,0.9740479999999999,-0.126636,-0.164944,-2.1525,20.5975,-0.7875
179,73854,0.9706319999999999,-0.11760799999999999,-0.143228,-3.4475,31.0275,3.5
180,73952,0.951844,-0.089304,-0.133956,-5.8625,41.23,9.5725
181,74050,-0.4758,-0.330864,-0.708332,-16.765,54.845,17.255
182,74148,-0.5084960000000001,-0.147376,-0.781532,-35.2625,100.765,20.475
183,74246,-0.6373281,-1.485716,-1.411052,-32.83,112.2275,6.2475
184,74344,0.446032,0.368196,-0.916464,-140.84,134.4175,-80.08
185,74442,1.837808,1.067988,-1.497184,-131.0575,146.9475,-82.565
186,74540,2.304824,0.5321640000000001,-2.416332,-57.2075,127.715,-44.625
187,74638,1.089948,0.33428,-1.6438279999999998,-48.4225,58.0825,-34.58
188,74736,-0.23058,-0.303048,-0.520452,-14.2275,18.41,-21.56
189,74834,0.511668,-0.338672,-0.9696561,-16.17,42.0875,-18.3225
190,74932,0.844972,-0.07222401,-1.159,-23.205,43.1025,-18.4275
191,75030,0.5724239999999999,-0.232044,-0.9433041,-14.805,23.205,-15.1725
192,75128,0.469944,-0.377956,-0.8847440999999999,-12.6525,15.015,-13.1075
193,75227,0.4933681,-0.198372,-0.9098761000000001,-19.145,14.0,-14.945
194,75325,0.48726800000000003,-0.09150001,-0.954284,-20.7025,11.0425,-15.575
195,75423,0.46726,-0.147376,-0.89792,-17.535,8.12,-14.945
196,75521,0.46042799999999995,-0.13908,-0.8996280999999999,-15.7675,7.07,-14.1575
197,75619,0.478484,-0.08369201,-0.927688,-14.5075,6.8075,-13.3175
198,75717,0.46433199999999997,-0.08100801,-0.9089001,-11.2525,5.39,-12.0575
199,75815,0.47604399999999997,-0.07490801,-0.906948,-8.2425,4.6725,-10.71
200,75913,0.486292,-0.08466801,-0.908168,-5.355,3.71,-9.205
201,76011,0.490684,-0.13908,-0.8881600000000001,-2.625,2.0125,-8.0675
202,76109,0.4743361,-0.131272,-0.8847440999999999,-2.1,0.56,-7.805
203,76207,0.4758,-0.110776,-0.8945040000000001,-2.03,-0.56,-7.49
204,76305,0.459208,-0.10809200000000001,-0.8849879999999999,-1.1725,-1.575,-7.1225
205,76403,0.459696,-0.117852,-0.8827921000000001,-0.4025,-1.7675,-6.6325
206,76501,0.461892,-0.119804,-0.882548,0.175,-1.8025,-6.3875
207,76599,0.445788,-0.14396,-0.8676640999999999,0.5775,-1.9775,-6.4225
208,76697,0.442616,-0.145912,-0.8671761,-0.21,-1.5225,-6.965
209,76795,0.43773599999999996,-0.144448,-0.863516,-1.33,-0.8925,-7.5775
210,76893,0.439932,-0.148352,-0.8642481,-2.5725,-0.21,-8.19
211,76991,0.44115200000000004,-0.141032,-0.86864,-3.9375,0.525,-8.9775
212,77089,0.43944399999999995,-0.136152,-0.868396,-4.97,1.26,-9.6075
213,77187,0.447008,-0.12980799999999998,-0.8669319999999999,-6.02,2.0825,-10.3425
214,77285,0.44944799999999996,-0.124928,-0.8693719999999999,-6.86,2.5725,-10.99
215,77383,0.450668,-0.12444000000000001,-0.86864,-6.9825,3.045,-11.41
216,77482,0.45432799999999995,-0.12444000000000001,-0.8693719999999999,-7.3325,3.6225,-11.8825
217,77580,0.458476,-0.119316,-0.8744960999999999,-7.8225,4.1825,-12.355
218,77678,0.46164799999999995,-0.119316,-0.8662001,-7.98,4.6025,-12.635
219,77776,0.465308,-0.10760399999999999,-0.87108,-8.2775,5.0575,-13.055
220,77874,0.468236,-0.10540799999999999,-0.8679081,-8.1375,5.04,-13.055
221,77972,0.485804,-0.08369201,-0.883036,-8.1025,4.935,-13.16
222,78070,0.484584,-0.10345599999999999,-0.863516,-7.21,4.5675,-12.915
223,78168,0.49532,-0.082472,-0.873276,-7.07,4.2875,-12.8625
224,78266,0.48824399999999996,-0.08808401,-0.864492,-6.475,4.0075,-12.46
225,78364,0.484584,-0.084912,-0.860344,-5.7575,4.1475,-11.795
226,78462,0.48312,-0.0793,-0.8725440999999999,-5.005,4.48,-11.13
227,78560,0.489464,-0.080276,-0.87474,-4.13,5.075,-10.5525
228,78658,0.49556400000000006,-0.083936,-0.8674200000000001,-3.1675,5.6525,-9.8525
229,78756,0.480192,-0.08417999999999999,-0.8744960999999999,-2.73,6.2125,-9.1525
230,78854,0.472384,-0.077836,-0.874984,-2.1,7.5075,-8.575
231,78952,0.479216,-0.068564,-0.8791321,-1.3125,9.2575,-8.2775
232,79050,0.45579200000000003,-0.082472,-0.8808401,0.315,11.41,-8.4
233,79148,0.462624,-0.07637200000000001,-0.8805960999999999,1.5925,14.4725,-8.785
234,79247,0.465308,-0.1037,-0.8801081000000001,2.73,18.48,-9.275
235,79345,0.388936,-0.142496,-0.9079241,2.555,23.3975,-9.975
236,79443,0.48263199999999995,-0.11736400000000001,-0.861808,2.5375,32.83,-10.6225
237,79541,0.471896,-0.0732,-0.87718,2.1175,39.13,-11.025
238,79639,0.48263199999999995,-0.05856,-0.8857200999999999,3.9375,46.27,-11.97
239,79737,0.460916,-0.040504000000000005,-0.9076799999999999,7.1925,54.0925,-11.8475
240,79835,0.46433199999999997,-0.05977999999999999,-0.9091440000000001,11.69,64.0675,-12.4075
241,79933,0.45261999999999997,-0.067832,-0.9203680000000001,15.3825,74.4975,-13.1775
242,80031,0.45335200000000003,-0.091988,-0.9289081,19.18,85.75,-14.42
243,80129,0.45018,-0.08442401,-0.9301280000000001,22.1375,98.0875,-15.645
244,80227,0.44164,-0.08857201,-0.9389120000000001,25.2875,111.825,-17.01
245,80325,0.44286000000000003,-0.052216,-0.965752,29.96,128.38,-17.99
246,80423,0.42553599999999997,-0.07393200000000001,-0.99308,36.2075,149.6425,-17.71
247,80521,0.372344,-0.135908,-1.0121120000000001,40.4425,175.4375,-17.99
248,80619,0.349408,-0.21447600000000003,-1.041636,38.0275,206.5875,-22.2425
249,80717,0.343552,-0.3111,-1.0528600000000001,30.0825,242.4975,-33.215
250,80815,0.326228,-0.346236,-1.077504,20.755,284.7775,-47.5125
251,80913,0.429928,-0.395036,-1.092144,7.3675,332.57,-64.5575
252,81011,0.733952,-0.47458,-1.306376,-14.1925,387.415,-82.8975
253,81110,1.266116,-0.337208,-1.548912,-37.7825,448.28,-100.8875
254,81208,1.481324,-0.404308,-1.487424,-44.31,497.1225,-113.9775
255,81306,1.586488,-0.48726800000000003,-1.800964,-53.5675,536.865,-132.755
256,81404,2.2845720000000003,0.490196,-1.8351240000000002,-79.5025,483.6475,-104.7375
257,81502,2.2762759999999997,-0.164212,-1.8812400000000002,-31.99,436.0475,-95.375
258,81600,1.402024,0.064416,-2.370216,7.525,377.755,-85.12
259,81698,-0.160308,0.025863999999999998,-2.188192,55.685,303.0825,-74.025
260,81796,-0.246928,0.5543680000000001,-0.996008,79.2925,206.955,-74.25251
261,81894,2.424628,-0.542412,-3.094164,130.83,247.03,-152.4425
262,81992,1.391532,-1.076284,-2.945812,135.24,47.5125,-175.175
263,82090,0.22423600000000002,-1.244644,-1.867332,98.49,-117.53,-153.0375
264,82188,-0.7283400999999999,-1.028216,-1.13216,38.78,-193.305,-140.9275
265,82286,-0.981124,-0.8820601,-0.7078439999999999,10.395,-196.595,-138.005
266,82384,-0.477264,-0.764696,-0.8637601,5.0925,-166.3725,-120.6275
267,82482,0.07027201,-0.8081281,-1.125572,28.105,-151.6025,-83.7725
268,82580,0.3904,-1.003816,-1.225368,56.945,-169.89,-32.1825
269,82678,0.459696,-1.1685159999999999,-1.121424,64.5925,-209.8425,21.9275
270,82776,0.40504,-1.0948280000000001,-0.9337880999999999,42.945,-251.545,65.52
271,82875,0.364536,-0.798856,-0.8066641,7.84,-281.8375,95.7425
272,82973,0.367708,-0.42724399999999996,-0.781532,-18.83,-300.1075,114.66
273,83071,0.4941,-0.122976,-0.8371639999999999,-26.18,-311.9725,123.235
274,83169,0.652456,0.030012,-0.9171961,-16.8525,-322.2275,121.135
275,83267,0.8047121,0.09784401,-0.987712,-1.3125,-332.815,112.14
276,83365,0.9591639999999999,0.068564,-1.025044,14.105,-343.2975,100.0125
277,83463,1.10532,-0.022692,-1.0614,27.125,-352.59,87.5
278,83561,1.2134120000000002,-0.130052,-1.0467600000000001,35.035,-360.1675,79.1
279,83659,1.3066200000000001,-0.18544000000000002,-1.029192,39.2,-364.5775,75.7575
280,83757,1.3651799999999998,-0.21886799999999998,-1.015772,45.0275,-364.07,76.825
281,83855,1.4125159999999999,-0.21374400000000002,-1.037976,52.7975,-357.56,80.43
282,83953,1.499868,-0.22935999999999998,-1.095804,65.3975,-346.29,84.63
283,84051,1.561112,-0.281088,-1.1529,81.41001,-332.9725,87.57
284,84149,1.6857959999999999,-0.388936,-1.312476,98.385,-317.1,87.7275
285,84247,2.07278,-0.447496,-1.5006,115.8675,-301.8575,89.3025
286,84345,2.452688,-0.543632,-1.5669680000000001,132.895,-296.6075,99.33001
287,84444,2.582496,-0.538752,-1.451068,143.605,-300.6325,112.28
288,84542,2.335568,0.41406800000000005,-1.058716,144.585,-302.365,123.8125
289,84640,1.934432,0.9757561,-0.5946279999999999,169.4875,-285.775,139.4925
290,84738,1.981768,0.784704,-0.193248,213.9375,-247.275,149.7125
291,84836,2.340936,0.43602799999999997,0.261812,202.1775,-205.2925,142.2225
292,84934,2.65594,0.183976,0.8025161,136.7625,-173.915,117.7925
293,85032,2.71572,0.48385200000000006,1.146556,42.8225,-150.885,74.655
294,85130,2.590548,1.0948280000000001,1.315404,-15.26,-119.9625,29.3475
295,85228,2.303604,1.1448479999999999,1.368108,5.005,-69.755,-1.9075
296,85326,2.184288,0.577304,1.2505,59.255,-6.475,-14.945
297,85424,1.8541560000000001,-0.5158159999999999,1.3786,76.9475,51.1875,-15.5925
298,85522,2.1225560000000003,-0.8637601,1.624064,-11.3225,131.7575,8.785
299,85620,-0.17934,0.290116,0.8720559999999999,-148.7675,192.36,46.235
300,85718,-0.760792,-0.220088,-1.2322,-159.7225,239.505,60.0075
301,85816,1.311744,1.908568,-2.001532,-219.555,313.355,-4.8475
302,85914,2.796728,4.2058279999999995,-2.924584,-272.4575,298.0775,-109.5325
303,86012,3.2805800000000005,0.1769,-2.830156,-66.325,234.7275,-113.1025
304,86110,1.484984,-1.298812,-1.580144,-72.87,150.57,-87.74501
305,86208,0.48165600000000003,-0.430172,-0.957944,-84.2275,90.3175,-55.1075
306,86306,1.2141440000000001,0.523868,-1.7572880000000002,-86.5025,96.04,-44.765
307,86405,0.874252,-0.239364,-1.103612,-49.3325,59.01,-35.0
308,86503,0.544608,-0.46457600000000004,-0.8720559999999999,-33.2325,34.3,-25.34
309,86601,0.5795,0.035624,-1.087264,-46.2875,28.84,-26.0925
310,86699,0.7088201,-0.105896,-1.0323639999999998,-39.235,21.945,-24.4475
311,86797,0.549244,0.045627999999999995,-0.989176,-34.1075,11.235,-20.685
312,86895,0.565836,-0.0122,-0.978684,-27.02,4.8125,-16.87
313,86993,0.477264,-0.134444,-0.8935280999999999,-18.6725,1.5925,-13.4575
314,87091,0.46164799999999995,-0.0854,-0.908168,-17.6225,0.7525,-12.8625
315,87189,0.44652,-0.083936,-0.899384,-15.575,1.05,-12.215
316,87287,0.43602799999999997,-0.11394800000000001,-0.8764481,-13.7025,1.68,-11.4975
317,87385,0.460916,-0.08003201,-0.8971879999999999,-12.8975,2.695,-11.27
318,87483,0.47092,-0.08100801,-0.8901120000000001,-10.6575,3.1325,-10.6575
319,87581,0.4697,-0.104432,-0.879864,-8.295,3.2025,-9.9575
320,87679,0.46896800000000005,-0.122244,-0.8664440000000001,-7.315,3.2725,-10.01
321,87777,0.46726,-0.125172,-0.8640040000000001,-7.875,3.115,-10.8325
322,87875,0.46116,-0.091012,-0.8671761,-8.82,2.94,-11.8825
323,87973,0.465796,-0.10052799999999999,-0.862784,-9.0825,2.7825,-12.7225
324,88071,0.46238,-0.10418800000000002,-0.863028,-9.135,2.8525,-12.6175
325,88169,0.45896400000000004,-0.11467999999999999,-0.8591241,-9.7125,2.9225,-12.845
326,88268,0.475312,-0.087108,-0.8703481,-11.2,3.01,-13.51
327,88366,0.466528,-0.091988,-0.8632719999999999,-11.445,2.6775,-13.58
328,88464,0.477264,-0.086864,-0.8615640999999999,-11.7775,2.485,-14.21
329,88562,0.489708,-0.054167999999999994,-0.8713241,-11.8825,2.3625,-14.455
330,88660,0.48873199999999994,-0.063684,-0.865956,-10.43,1.785,-13.615
331,88758,0.486292,-0.05246,-0.8757159999999999,-9.38,1.225,-13.1425
332,88856,0.488,-0.050996,-0.8725440999999999,-8.12,1.155,-12.705
333,88954,0.48848800000000003,-0.053924,-0.8708360999999999,-6.9475,1.54,-12.0925
334,89052,0.489464,-0.05246,-0.8698601,-6.02,2.0825,-11.8825
335,89150,0.484828,-0.06270801,-0.8708360999999999,-5.075,2.73,-11.5325
336,89248,0.484584,-0.05856,-0.868396,-3.9025,3.22,-11.1825
337,89346,0.4941,-0.07637200000000001,-0.8625401,-3.5875,3.7625,-10.7975
338,89444,0.483364,-0.06466001,-0.87108,-3.6925,4.27,-10.9025
339,89542,0.48068,-0.062952,-0.8725440999999999,-3.675,5.25,-10.92
340,89640,0.47336000000000006,-0.05368,-0.883768,-3.2375,6.6675,-10.6925
341,89738,0.450912,-0.07002799999999999,-0.8996280999999999,-1.6275,8.9775,-10.64
342,89836,0.377712,-0.12566,-0.8988959999999999,0.455,13.6675,-10.85
343,89934,0.431392,-0.08662001,-0.8964561,-0.035,22.5925,-11.865
344,90032,0.452376,-0.060267999999999995,-0.8964561,0.1925,31.5175,-13.1775
345,90130,0.45286400000000004,-0.05929201,-0.8913321,1.225,39.8125,-14.2625
346,90229,0.454816,-0.03782,-0.91012,3.0275,49.385,-15.4875
347,90327,0.44090799999999997,-0.023668,-0.9254921,5.8975,60.5675,-16.38
348,90425,0.450912,-0.018788,-0.9289081,9.6075,73.4125,-16.555
349,90523,0.440176,-0.008784,-0.9391560999999999,11.76,86.45,-16.38
350,90621,0.458476,-0.005368,-0.9440360999999999,14.5075,100.1175,-16.2575
351,90719,0.46164799999999995,-0.022203999999999998,-0.941108,17.815,114.3625,-15.6625
352,90817,0.45018,-0.0488,-0.9530641,21.9275,129.675,-16.4675
353,90915,0.444568,-0.094672,-0.9711200999999999,25.8825,147.5425,-18.8125
354,91013,0.390156,-0.214232,-0.9796600000000001,28.3675,169.2425,-24.5175
355,91111,0.357216,-0.23472800000000002,-1.050664,22.855,195.4925,-35.2625
356,91209,0.3477,-0.33818400000000004,-1.073112,15.575,227.5,-50.4525
357,91307,0.346968,-0.39113200000000004,-1.09312,1.7675,264.3025,-70.7875
358,91405,0.22423600000000002,-0.41602,-1.1209360000000002,-12.95,308.7175,-94.78
359,91503,0.559736,-0.46164799999999995,-1.175348,-25.445,364.245,-122.6925
360,91601,1.109956,-0.24107199999999998,-1.530124,-49.98,426.8075,-144.7075
361,91699,1.487668,-0.229116,-1.6613959999999999,-53.2175,482.3,-152.1275
362,91798,1.6592,-0.31012399999999996,-1.58112,-45.7975,510.23,-162.2075
363,91896,2.125728,-0.354288,-1.687748,-50.295,506.625,-167.3525
364,91994,2.185752,0.057096,-2.001776,-55.405,463.8025,-163.6775
365,92092,1.848788,-0.357216,-2.446344,-29.2775,405.4225,-151.515
366,92190,0.029524,-0.8169121,-2.508808,12.985,320.985,-126.28
367,92288,0.704916,-0.58194,-1.574288,7.6825,198.0125,-120.365
368,92386,2.169648,-0.7224841,-3.088308,32.13,190.61,-156.555
369,92484,1.089704,-1.284416,-2.820152,76.755,-1.715,-106.0325
370,92582,-0.032451999999999995,-1.225856,-1.6857959999999999,67.795,-135.5375,-60.9525
371,92680,-1.06994,-1.18218,-0.8949921000000001,52.8325,-176.54,-39.375
372,92778,-0.85156,-0.83204,-0.7129681,32.1125,-163.3625,-24.675
373,92876,-0.29646,-0.566812,-0.9884440000000001,30.0825,-137.8125,-8.47
374,92974,0.147376,-0.526308,-1.2322,57.0325,-140.665,13.195
375,93072,0.395768,-0.5926760999999999,-1.2822200000000001,81.585,-173.005,41.1425
376,93170,0.411628,-0.665632,-1.110444,89.3375,-219.8875,67.06
377,93268,0.334036,-0.5843801,-0.9232961,75.0925,-261.415,84.455
378,93366,0.32866799999999996,-0.378688,-0.8003201,52.6575,-288.0325,95.7075
379,93464,0.374296,-0.17641199999999999,-0.746396,38.71,-303.415,102.865
380,93563,0.484828,-0.035868000000000004,-0.7937320999999999,36.8375,-312.34,106.5925
381,93661,0.6453800000000001,0.06929600000000001,-0.8913321,44.4675,-317.8175,108.885
382,93759,0.7956840999999999,0.145424,-0.9623360999999999,56.2975,-322.945,110.4075
383,93857,0.8998719999999999,0.17763199999999998,-1.04554,67.585,-328.2825,108.465
384,93955,1.015772,0.19276,-1.131672,76.3175,-332.92,101.2375
385,94053,1.13826,0.205204,-1.206824,83.195,-337.5575,92.2425
386,94151,1.233176,0.23009200000000002,-1.275876,90.66751,-342.79,84.77
387,94249,1.319796,0.211548,-1.3205280000000001,100.6425,-346.5525,79.52
388,94347,1.441308,0.13176,-1.3771360000000001,111.9125,-347.2875,75.495
389,94445,1.5603799999999999,-0.0034159999999999998,-1.40422,121.7825,-344.785,73.64
390,94543,1.674084,-0.216916,-1.459608,129.535,-337.75,75.3725
391,94641,1.9337,-0.437004,-1.617476,134.085,-324.59,81.62001
392,94739,2.362896,-0.5380199999999999,-1.77388,137.0075,-310.9925,94.95501
393,94837,2.64862,-0.37990799999999997,-1.708488,141.3475,-305.9875,115.745
394,94935,2.5390639999999998,0.45164399999999993,-1.3359,148.2075,-303.73,144.3225
395,95033,2.261636,0.6141479999999999,-0.7754321,178.605,-288.4175,175.21
396,95131,2.25944,0.590236,-0.214964,199.5175,-254.1,195.965
397,95229,2.44122,0.4392,0.4575,178.64,-209.72,216.125
398,95328,2.750124,0.28792,1.220976,113.61,-164.3075,222.1275
399,95426,2.7755,0.555832,1.524512,12.8975,-121.38,190.505
400,95524,2.6400799999999998,1.413248,1.372744,-69.055,-80.22,124.075
401,95622,2.316292,1.758752,0.9967401,-56.6125,-36.1725,56.07
402,95720,2.158668,1.316868,0.6785640000000001,21.525,11.4275,6.965
403,95818,2.057408,0.609268,0.461892,80.15,49.945,-22.4525
404,95916,1.90198,0.093696,0.24790399999999999,83.1075,68.25,-38.605
405,96014,0.9384239999999999,-0.754692,-0.021228,46.55,71.4525,-38.01
406,96112,-0.8735200000000001,0.063196,0.165676,-77.0,108.9375,-16.2575
407,96210,-1.135332,-0.138348,-0.670024,-137.1475,165.1825,-19.2675
408,96308,0.366,-1.081164,-1.130696,-161.0525,224.9975,-73.8325
409,96406,2.7471959999999997,2.119384,-2.139392,-294.2975,269.43,-130.2525
410,96504,2.131096,1.583804,-2.593476,-169.645,220.4125,-109.6725
411,96602,2.5039279999999997,0.258152,-2.3916880000000003,-108.29,163.5375,-99.64499
412,96700,0.8708360999999999,-0.37942,-1.16754,-92.7325,116.2525,-73.09751
413,96798,0.76494,-0.178608,-1.2526959999999998,-73.5,98.4375,-53.27
414,96896,1.156316,0.137372,-1.526708,-62.3875,87.64,-42.9975
415,96994,0.916952,-0.149816,-1.2038959999999999,-41.685,55.5275,-32.55
416,97092,0.49849209999999994,-0.27279200000000003,-0.9242720999999999,-28.2275,32.5325,-22.75
417,97191,0.5414359999999999,-0.09735601,-0.992592,-31.4475,25.445,-20.5975
418,97289,0.6319600000000001,-0.061488,-1.032608,-28.6825,20.895,-18.8125
419,97387,0.46164799999999995,-0.163236,-0.8881600000000001,-19.5475,11.1475,-15.47
420,97485,0.5648601,-0.158112,-0.9418401,-20.755,10.045,-15.015
421,97583,0.45506,-0.08881599,-0.9152440000000001,-21.7175,6.4225,-14.63
422,97681,0.45457200000000003,-0.131272,-0.907192,-20.0375,4.375,-13.9825
423,97779,0.44773999999999997,-0.08759601,-0.913536,-19.88,5.1975,-13.2125
424,97877,0.450912,-0.13542,-0.8998719999999999,-18.0425,5.18,-12.705
425,97975,0.478972,-0.132004,-0.8930401,-17.465,5.9675,-12.705
426,98073,0.489464,-0.11102000000000001,-0.8901120000000001,-16.415,5.2675,-12.6525
427,98171,0.48433999999999994,-0.10516400000000001,-0.8888921000000001,-15.0325,4.0775,-12.145
428,98269,0.48263199999999995,-0.101748,-0.8881600000000001,-13.195,3.0625,-11.6025
429,98367,0.477996,-0.10248,-0.88328,-11.4275,2.4675,-11.2175
430,98465,0.47360399999999997,-0.110776,-0.873276,-10.0975,1.995,-10.9375
431,98563,0.463844,-0.116876,-0.86864,-9.17,1.5225,-10.815
432,98661,0.458232,-0.112972,-0.8740081000000001,-8.6625,1.575,-10.92
433,98759,0.462624,-0.105896,-0.870592,-8.575,2.0125,-11.2875
434,98857,0.46457600000000004,-0.11224,-0.863516,-8.47,2.24,-11.7075
435,98955,0.465308,-0.1159,-0.8601,-8.995,2.0125,-12.18
436,99053,0.468236,-0.117852,-0.8547319999999999,-9.7125,1.6625,-12.6
437,99151,0.46726,-0.10540799999999999,-0.8632719999999999,-10.7625,1.225,-13.16
438,99249,0.47823999999999994,-0.10687200000000001,-0.863028,-11.2,0.9975,-13.3175
439,99348,0.472384,-0.093696,-0.8671761,-10.92,0.8400001,-13.2125
440,99446,0.47823999999999994,-0.07564,-0.874252,-10.64,0.91,-13.265
441,99544,0.47458,-0.086864,-0.87108,-9.52,1.365,-12.81
442,99642,0.46848,-0.08417999999999999,-0.8693719999999999,-8.7325,1.82,-12.46
443,99740,0.476288,-0.077348,-0.8718120999999999,-8.2425,2.695,-12.4075
444,99838,0.482876,-0.07588400000000001,-0.8701040000000001,-7.8225,3.395,-12.46
445,99936,0.48995200000000005,-0.068564,-0.868152,-7.5075,3.885,-12.3375
446,100034,0.48165600000000003,-0.072956,-0.868396,-6.9125,4.4625,-11.8125
447,100132,0.49702799999999997,-0.072956,-0.8701040000000001,-6.3175,5.215,-11.62
448,100230,0.487512,-0.06954,-0.8727879999999999,-5.88,5.5825,-11.3225
449,100328,0.47946000000000005,-0.071248,-0.874252,-5.5825,6.51,-11.06
450,100426,0.471408,-0.0671,-0.885964,-4.7075,8.155,-10.71
451,100524,0.45432799999999995,-0.064416,-0.8903561,-2.9225,10.4825,-10.29
452,100622,0.41968,-0.0732,-0.891576,0.1575,14.84,-9.7475
453,100720,0.32696,-0.08100801,-0.9262239999999999,2.31,22.33,-9.4675
454,100818,0.474092,-0.032695999999999996,-0.902068,3.255,35.035,-10.465
455,100916,0.439932,-0.037576,-0.916464,6.1425,44.24,-10.4825
456,101014,0.42773199999999995,-0.044652,-0.9301280000000001,8.5225,55.6325,-10.255
457,101112,0.39918400000000004,-0.080764,-0.9586761,12.4075,70.035,-11.1475
458,101210,0.390644,-0.101504,-0.9708760000000001,16.695,87.46500999999999,-13.3525
459,101308,0.366732,-0.096868,-1.0079639999999999,17.7975,106.9075,-15.855
460,101407,0.374784,-0.05002,-1.0279719999999999,21.315,129.22,-17.29
461,101505,0.34038,-0.025376,-1.0704280000000002,27.6325,154.3675,-19.1275
462,101603,0.33184,-0.051484,-1.101416,35.8225,184.1,-20.86
463,101701,0.309636,-0.251564,-1.072868,44.17,219.6425,-26.145
464,101799,0.2928,-0.300608,-1.149728,36.82,258.615,-39.6725
465,101897,0.256444,-0.403088,-1.13216,21.07,299.9325,-57.295
466,101995,0.200324,-0.4209,-1.1228879999999999,5.1625,350.3325,-78.785
467,102093,0.587064,-0.35038400000000003,-1.153144,-9.7825,408.625,-101.325
468,102191,1.265384,-0.288164,-1.536468,-29.7675,471.1175,-115.3425
469,102289,1.52744,-0.249612,-1.4959639999999998,-37.8875,510.72,-116.69
470,102387,1.785104,-0.368684,-1.361764,-44.59,519.435,-123.97
471,102485,2.101816,0.02806,-1.594052,-66.08,494.095,-123.8825
472,102583,2.133292,0.030987999999999998,-1.9522439999999999,-52.6225,436.8875,-114.0125
473,102681,1.40788,0.09589201,-2.224304,-10.605,376.39,-100.975
474,102779,-0.443592,0.24570799999999998,-2.170868,50.3825,295.12,-77.3325
475,102877,-0.299632,-0.032451999999999995,-1.1468,106.9425,204.5925,-72.2925
476,102975,2.106696,-0.44383599999999995,-3.2244599999999997,142.5025,190.435,-143.43
477,103073,1.3764040000000002,-1.247816,-2.826252,155.645,1.6975,-144.7075
478,103171,0.138348,-1.26148,-1.6682279999999998,109.62,-145.53,-116.305
479,103269,-0.9394,-1.2075559999999999,-0.9171961,64.015,-196.875,-104.16
480,103367,-0.8525360000000001,-1.041392,-0.6946681,35.0175,-186.935,-94.51751
481,103466,-0.242536,-0.8103239999999999,-0.941108,20.1775,-157.9725,-71.75
482,103564,0.244,-0.752496,-1.152656,39.9,-153.5975,-34.44
483,103662,0.46042799999999995,-0.8410681000000001,-1.194868,69.2825,-180.18,13.0725
484,103760,0.441396,-0.9235399999999999,-1.033828,78.9775,-219.03,59.29
485,103858,0.356484,-0.81618,-0.882548,60.0075,-254.9575,90.42251
486,103956,0.367464,-0.5353359999999999,-0.789828,28.14,-279.6325,105.9975
487,104054,0.384056,-0.219356,-0.79666,4.8475,-296.8525,111.16
488,104152,0.493612,0.015128,-0.8479,1.085,-309.4175,110.2675
489,104250,0.6329359999999999,0.139324,-0.9059721,13.58,-318.64,106.8025
490,104348,0.7612800999999999,0.188124,-0.9459880999999999,32.2525,-326.34,102.4975
491,104446,0.8720559999999999,0.195688,-1.00406,48.23,-332.4825,95.6025
492,104544,0.9862479999999999,0.22082,-1.078236,59.4475,-336.9975,84.385
493,104642,1.097512,0.268888,-1.16144,68.46,-340.3225,71.85501
494,104740,1.222928,0.279868,-1.23586,80.2725,-343.595,60.8475
495,104838,1.374208,0.21886799999999998,-1.3022280000000002,95.07751,-345.975,52.2725
496,104936,1.53598,0.104676,-1.321748,109.69,-346.8675,48.51
497,105034,1.6328479999999999,-0.054167999999999994,-1.304912,120.505,-346.2025,51.3975
498,105132,1.6796959999999999,-0.24278000000000002,-1.289784,125.23,-341.425,59.325
499,105230,1.779248,-0.417972,-1.340048,123.0075,-330.155,68.9675
500,105328,2.0496,-0.534848,-1.444968,118.055,-314.125,78.995
501,105427,2.375828,-0.5380199999999999,-1.4513120000000002,116.76,-300.02,92.41751
502,105525,2.483432,0.050508,-1.2404959999999998,120.1025,-289.8,111.23
503,105623,2.274324,0.659776,-0.7808001,142.1175,-274.8375,134.4525
504,105721,2.115724,0.78446,-0.221308,190.5225,-245.1225,154.6825
505,105819,2.28628,0.60146,0.398696,212.3975,-202.2825,176.4875
506,105917,2.706448,0.160064,1.137284,179.375,-154.4375,198.17
507,106015,2.876028,-0.101016,1.707268,78.8025,-107.7125,191.3975
508,106113,2.762324,0.8403360000000001,1.59576,-57.2075,-68.705,136.535
509,106211,2.3785119999999997,1.532076,1.154364,-99.6275,-30.7825,70.1225
510,106309,1.7694880000000002,1.06628,1.270508,-43.26,32.83,20.2125
511,106407,2.3541119999999998,-0.152256,1.563552,-3.2725,129.7975,5.2325
512,106505,1.0492,-0.47775200000000007,1.19194,-68.6875,179.865,15.4
513,106603,-0.183976,0.046360000000000005,-1.304668,-146.8775,210.3325,24.6225
514,106701,0.655384,0.7956840999999999,-2.2118599999999997,-176.3475,266.385,-21.455
515,106799,2.540772,3.6253519999999995,-2.437316,-252.9625,264.775,-113.05
516,106897,2.529304,0.635864,-2.585668,-70.455,214.4275,-99.4875
517,106995,2.322636,-0.944768,-2.0356919999999996,-52.29,147.875,-77.8575
518,107093,0.123464,-0.5131319999999999,-0.6514800000000001,-69.52750999999999,67.97,-50.8375
519,107191,0.6068279999999999,0.132736,-1.242692,-64.96,86.3975,-41.825
520,107289,1.117276,-0.20788800000000002,-1.2160959999999998,-52.0975,79.555,-42.8575
521,107388,0.719312,-0.589992,-0.9562360999999999,-40.0575,48.6325,-34.6325
522,107486,0.515328,0.009272001,-1.096292,-50.7675,33.04,-30.0125
523,107584,0.644648,0.040748,-1.1241079999999999,-47.5825,27.2475,-28.1575
524,107682,0.520208,-0.05563200000000001,-0.950868,-33.7575,19.5475,-22.785
525,107780,0.5958479999999999,-0.116632,-0.97234,-28.07,15.26,-19.0575
526,107878,0.487756,-0.130052,-0.899384,-24.395,11.1825,-16.4325
527,107976,0.459696,-0.122976,-0.904752,-24.01,7.735,-15.82
528,108074,0.45335200000000003,-0.090768,-0.9015799999999999,-24.185,7.525,-15.9775
529,108172,0.46116,-0.116632,-0.9001161,-22.47,7.6825,-15.33
530,108270,0.49312399999999995,-0.046360000000000005,-0.92232,-21.3325,7.98,-14.8575
531,108368,0.486048,-0.060512,-0.9128040000000001,-17.8675,7.3675,-13.09
532,108466,0.47384799999999994,-0.09906401,-0.9010921000000001,-13.755,6.8075,-11.8475
533,108564,0.488976,-0.115656,-0.876692,-11.69,6.8425,-11.585
534,108662,0.47653199999999996,-0.1098,-0.876692,-10.815,6.195,-11.7425
535,108760,0.47677600000000003,-0.111508,-0.87108,-10.71,5.81,-12.4075
536,108858,0.46774799999999994,-0.109556,-0.864492,-10.745,5.495,-12.81
537,108956,0.46896800000000005,-0.114436,-0.8581479999999999,-11.34,5.3725,-13.44
538,109054,0.47823999999999994,-0.105652,-0.8610761,-12.285,5.11,-14.3325
539,109152,0.480192,-0.085156,-0.869616,-12.88,4.7075,-14.5425
540,109250,0.4758,-0.09150001,-0.86498,-12.425,4.34,-14.245
541,109348,0.480436,-0.085156,-0.8693719999999999,-12.0575,4.585,-14.245
542,109446,0.488,-0.057096,-0.8727879999999999,-11.4625,4.34,-14.1925
543,109544,0.495076,-0.07198,-0.865956,-9.9925,3.7975,-14.28
544,109642,0.493612,-0.058072000000000006,-0.8652241,-9.17,3.22,-13.7725
545,109740,0.500444,-0.055388,-0.865468,-8.47,2.9225,-13.2125
546,109838,0.49751599999999996,-0.056852,-0.8637601,-7.4025,2.6425,-12.6525
547,109936,0.5009319999999999,-0.058803999999999995,-0.8666879999999999,-6.3525,2.6075,-11.76
548,110035,0.49434399999999995,-0.053191999999999996,-0.8674200000000001,-5.285,2.5025,-11.13
549,110133,0.491904,-0.052703999999999994,-0.8740081000000001,-4.1825,3.115,-10.5875
550,110231,0.490684,-0.054167999999999994,-0.8669319999999999,-2.975,3.78,-10.1325
551,110329,0.47994799999999993,-0.05612,-0.8671761,-2.065,4.3925,-9.9925
552,110427,0.4819,-0.052703999999999994,-0.8845,-1.1725,5.67,-9.73
553,110525,0.461892,-0.05977999999999999,-0.8784,0.4725,7.7,-9.5375
554,110623,0.409432,-0.086132,-0.8801081000000001,1.19,11.095,-9.6075
555,110721,0.47458,-0.05563200000000001,-0.8720559999999999,0.9275,17.115,-10.255
556,110819,0.472384,-0.061,-0.8791321,1.5925,22.015,-10.6575
557,110917,0.48848800000000003,-0.042456,-0.8823040000000001,2.66,26.9325,-10.7275
558,111015,0.466772,-0.06466001,-0.8866961,4.725,32.41,-10.6575
559,111113,0.465796,-0.071492,-0.8881600000000001,6.16,39.5325,-11.27
560,111211,0.44676400000000005,-0.05587601,-0.9103641,7.4025,48.44,-12.46
561,111309,0.44505600000000006,-0.041236,-0.9142680000000001,9.8175,59.5875,-13.93
562,111407,0.445788,-0.037332,-0.9269561,12.3375,71.92501,-14.7525
563,111505,0.44676400000000005,-0.027816000000000004,-0.9357401,14.4375,85.2425,-14.4725
564,111603,0.453108,-0.037576,-0.9386681,17.6575,99.75,-14.0875
565,111701,0.43334399999999995,-0.030744,-0.9540401,21.945,115.5525,-14.035
566,111799,0.41992399999999996,-0.06954,-0.9679481,26.7575,133.56,-15.4175
567,111897,0.4209,-0.10540799999999999,-0.987224,31.255,155.155,-18.095
568,111996,0.35282399999999997,-0.209596,-0.9943001,34.72,181.5275,-24.43
569,112094,0.351848,-0.264252,-1.0431,29.295,213.01,-35.1225
570,112192,0.274744,-0.35746,-1.080432,19.95,249.55,-50.5925
571,112290,0.269864,-0.395524,-1.1087360000000002,6.1775,293.93,-71.5575
572,112388,0.294508,-0.40528400000000003,-1.16144,-7.14,348.1975,-93.625
573,112486,0.702232,-0.508252,-1.322236,-20.58,410.4975,-119.84
574,112584,1.327848,-0.08417999999999999,-1.689456,-45.85,478.6425,-133.4725
575,112682,1.2463520000000001,-0.395768,-1.7672919999999999,-37.4325,536.0775,-137.865
576,112780,1.613084,-0.332328,-2.038864,-45.115,563.675,-141.2075
577,112878,2.2955520000000003,0.122732,-1.706048,-75.0925,504.8575,-129.1675
578,112976,2.4551279999999998,-0.014152000000000001,-2.1825799999999997,-48.4925,457.2575,-118.6325
579,113074,1.4940120000000001,-0.067832,-2.695224,-15.0325,381.7625,-102.4625
580,113172,-1.398608,-0.16592,-2.542724,33.2325,273.1925,-72.73
581,113270,2.72304,-0.6117081,-2.204052,52.4475,189.105,-91.945
582,113368,1.945412,-0.6080479999999999,-3.58558,80.2725,147.385,-151.55
583,113466,0.8532681000000001,-1.222928,-2.314828,96.65250999999999,-69.1425,-118.93
584,113564,-0.48068,-1.033828,-1.4330120000000002,58.5375,-176.7325,-93.3975
585,113662,-1.148508,-1.015772,-0.6897880999999999,46.8125,-196.9975,-82.915
586,113760,-0.6771,-0.746396,-0.765672,31.4475,-165.9875,-68.1975
587,113858,-0.038308,-0.66856,-1.067988,39.9525,-141.8025,-45.6575
588,113956,0.396012,-0.727364,-1.236348,69.0025,-156.6775,-14.9275
589,114054,0.513376,-0.8730319999999999,-1.175836,87.3075,-199.0625,25.865
590,114152,0.43066000000000004,-0.9113399999999999,-0.9572120999999999,78.925,-245.9625,62.895
591,114251,0.363072,-0.74054,-0.7673800000000001,49.14,-281.2775,88.06
592,114349,0.364048,-0.462868,-0.705404,17.99,-301.1225,104.475
593,114447,0.44408000000000003,-0.180072,-0.7483479999999999,0.63,-312.4275,113.3475
594,114545,0.601216,0.013908000000000002,-0.856684,1.6275,-320.775,117.0925
595,114643,0.790804,0.145424,-0.9235399999999999,15.54,-329.0,117.845
596,114741,0.902068,0.155184,-0.9982040000000001,32.4625,-338.0125,116.4275
597,114839,1.003572,0.152256,-1.080676,44.3275,-344.6275,108.955
598,114937,1.149484,0.162504,-1.1472879999999999,51.2575,-349.895,97.02
599,115035,1.2883200000000001,0.150792,-1.19804,57.6275,-356.3,86.06501
600,115133,1.3954360000000001,0.131272,-1.22854,65.5375,-362.6,77.7525
601,115231,1.468148,0.132492,-1.26758,74.18251,-364.98,72.205
602,115329,1.5523280000000002,0.11345999999999999,-1.336876,83.8425,-362.915,68.2325
603,115427,1.7048279999999998,-0.000488,-1.4330120000000002,96.005,-358.89,65.695
604,115525,1.868308,-0.180316,-1.5103600000000001,106.05,-355.9675,66.885
605,115623,2.0303240000000002,-0.305732,-1.5555,109.235,-353.36,72.7825
606,115721,2.175992,-0.284992,-1.51768,109.0425,-348.285,81.1475
607,115819,2.261636,-0.186416,-1.403,113.505,-338.03,90.2475
608,115917,2.2713959999999997,0.345992,-1.241472,124.5125,-320.4775,98.40250999999999
609,116015,2.2831080000000004,0.534116,-0.8781559999999999,161.6825,-296.7475,105.4375
610,116113,2.1520799999999998,0.5648601,-0.389424,206.6225,-267.3825,112.385
611,116211,2.125972,0.653676,0.258396,225.6275,-231.3675,129.395
612,116309,2.4329240000000003,0.412116,1.023824,218.96,-185.85,152.005
613,116407,2.656672,-0.113704,1.63724,164.115,-130.4975,157.045
614,116506,2.6227560000000003,0.24717199999999998,1.6631040000000001,49.2275,-76.09000999999999,122.045
615,116604,2.5376,0.8300879999999999,1.1899879999999998,-31.675,-31.395,67.0775
616,116702,2.2972599999999996,0.9813681000000001,0.7078439999999999,-22.4525,8.26,23.415
617,116800,2.10206,0.51972,0.47067600000000004,35.28,44.0475,-1.925
618,116898,1.878312,-0.061,0.34892,78.085,69.44,-9.1525
619,116996,1.601128,-0.41260399999999997,0.22691999999999998,74.8825,84.8575,-1.2775
620,117094,0.09979600000000001,-2.1596439999999997,0.567056,13.9825,105.77,34.7375
621,117192,-0.318176,0.324276,0.045627999999999995,-168.5425,176.05,78.8725
622,117290,-1.41276,-0.7417600000000001,-0.262788,-154.2975,227.9375,32.2525
623,117388,2.136464,3.4286879999999997,-1.8178,-313.495,310.135,-71.47
624,117486,2.947764,2.819664,-3.346704,-245.3325,282.0125,-118.16
625,117584,2.561756,0.368196,-2.497096,-96.3375,201.67,-125.65
626,117682,1.309548,-1.009184,-1.3224799999999999,-93.31,142.9925,-95.1825
627,117780,0.574132,-0.5165481,-1.091412,-92.085,101.2025,-64.61
628,117878,1.1270360000000001,0.430172,-1.643584,-90.70251,104.7725,-49.91
629,117976,1.1570479999999999,-0.051972000000000004,-1.4335,-56.805,73.8325,-41.3175
630,118074,0.552416,-0.382104,-0.921832,-30.205,40.95,-26.4075
631,118172,0.462136,-0.183732,-0.9437921,-34.8775,30.835,-23.1875
632,118270,0.6304960000000001,-0.057584,-1.068964,-36.9775,27.9475,-23.205
633,118368,0.550708,-0.054655999999999996,-0.987224,-29.715,19.4775,-20.09
634,118467,0.5926760999999999,-0.132248,-0.9669721,-24.3075,12.8975,-16.555
635,118565,0.464088,-0.098088,-0.9189040999999999,-23.45,7.4025,-14.805
636,118663,0.44554399999999994,-0.139568,-0.9052401,-21.4725,5.1975,-14.35
637,118761,0.456768,-0.063196,-0.9318360000000001,-21.8575,5.915,-14.245
638,118859,0.453108,-0.099552,-0.9086559999999999,-19.0925,5.705,-13.2125
639,118957,0.46945600000000004,-0.11321600000000001,-0.90402,-16.6425,6.0375,-12.32
640,119055,0.48653599999999997,-0.11126400000000002,-0.8991401,-14.5075,6.0375,-11.655
641,119153,0.486292,-0.111508,-0.8906,-11.725,5.04,-11.0075
642,119251,0.47823999999999994,-0.1098,-0.8849879999999999,-9.94,4.0775,-10.5
643,119349,0.46116,-0.107848,-0.8818159999999999,-8.0325,3.4825,-10.1325
644,119447,0.46042799999999995,-0.114924,-0.8757159999999999,-6.825,3.5525,-9.9925
645,119545,0.45725600000000005,-0.12468399999999999,-0.8676640999999999,-5.915,3.85,-10.0275
646,119643,0.45554799999999995,-0.12468399999999999,-0.8701040000000001,-5.95,4.1475,-10.4825
647,119741,0.45603599999999994,-0.119804,-0.869128,-6.3525,4.6725,-11.06
648,119839,0.46042799999999995,-0.111996,-0.8720559999999999,-6.7375,5.11,-11.6375
649,119937,0.469944,-0.114192,-0.8657120999999999,-6.8425,5.3375,-11.9525
650,120035,0.468724,-0.11053199999999999,-0.860344,-7.315,5.0925,-12.4425
651,120133,0.481412,-0.10248,-0.8674200000000001,-8.26,4.725,-12.915
652,120231,0.47677600000000003,-0.09784401,-0.8613200000000001,-8.6625,3.9025,-13.09
653,120329,0.47946000000000005,-0.09638,-0.8632719999999999,-8.9775,3.4475,-12.915
654,120427,0.48726800000000003,-0.075396,-0.8723001,-8.855,3.0975,-12.88
655,120526,0.48702399999999996,-0.082228,-0.8652241,-7.8925,2.8525,-12.355
656,120624,0.480436,-0.07710399999999999,-0.868884,-7.315,2.7475,-11.76
657,120722,0.479704,-0.087352,-0.865468,-6.5975,3.0975,-11.3575
658,120820,0.47677600000000003,-0.083204,-0.868152,-6.3,3.535,-11.0775
659,120918,0.47458,-0.087108,-0.8674200000000001,-6.16,4.235,-10.85
660,121016,0.484096,-0.09516001,-0.8674200000000001,-6.3,5.32,-10.7975
661,121114,0.4758,-0.08881599,-0.8664440000000001,-6.6325,6.37,-11.1825
662,121212,0.472872,-0.077836,-0.879376,-6.4925,7.525,-11.655
663,121310,0.469944,-0.071004,-0.879864,-5.18,9.3275,-11.6375
664,121408,0.46116,-0.072712,-0.891576,-3.8325,11.4975,-11.55
665,121506,0.44652,-0.08003201,-0.891576,-2.17,15.05,-11.0425
666,121604,0.388448,-0.075396,-0.9181720999999999,-1.19,21.2975,-10.6575
667,121702,0.491904,-0.05002,-0.8964561,-0.2625,31.535,-11.8125
668,121800,0.460916,-0.060024,-0.8888921000000001,2.2575,37.695,-11.9525
669,121898,0.451888,-0.05636401,-0.90036,4.5325,45.9375,-12.04
670,121996,0.44164,-0.048556,-0.931348,7.1925,56.6125,-12.775
671,122094,0.422364,-0.064172,-0.935984,12.0575,69.405,-13.685
672,122192,0.44066400000000006,-0.062952,-0.956968,14.9975,84.01751,-15.4175
673,122290,0.434564,-0.05172801,-0.955016,17.8675,98.805,-15.89
674,122388,0.447984,-0.008296000999999999,-0.9652639999999999,21.98,115.5875,-15.785
675,122486,0.447496,-0.016592,-0.9520881,28.385,132.16,-15.89
676,122585,0.46116,-0.002928,-0.9738041,35.735,149.87,-14.805
677,122683,0.44773999999999997,-0.05124001,-0.9708760000000001,44.1,171.0275,-14.7875
678,122781,0.382592,-0.172508,-0.9784401,48.65,196.6125,-15.9075
679,122879,0.349408,-0.23082399999999997,-1.003328,43.435,225.6975,-23.2925
680,122977,0.352092,-0.325252,-1.0645719999999999,33.565,259.7875,-35.14
681,123075,0.25351599999999996,-0.406016,-1.0626200000000001,22.085,303.555,-51.205
682,123173,0.386008,-0.39284,-1.026996,9.415,358.015,-72.5375
683,123271,0.892552,-0.457012,-1.236348,-9.555,417.7425,-94.2725
684,123369,2.4668400000000004,-0.1952,-1.5103600000000001,-23.52,481.145,-111.5975
685,123467,1.105808,-0.37942,-1.526952,-9.4325,541.5025,-129.815
686,123565,1.4879120000000001,-0.234972,-1.6487080000000003,-35.455,547.89,-128.38
687,123663,2.161108,0.573156,-1.336388,-63.49,468.02,-96.0575
688,123761,2.25578,0.1037,-1.86782,-13.3,427.8925,-87.88501
689,123859,1.480348,0.24424400000000002,-2.38876,30.7825,373.5375,-80.78
690,123957,-0.156404,0.09613601,-2.272616,86.25751,302.6625,-65.415
691,124055,-0.5011760000000001,0.5343600000000001,-0.9772200999999999,129.5875,201.8625,-56.35
692,124153,2.510516,-0.51118,-2.7471959999999997,172.1125,217.385,-138.9675
693,124252,1.563796,-1.15534,-3.008276,167.9125,31.5875,-162.015
694,124350,0.526552,-1.254404,-1.77388,126.56,-137.06,-135.765
695,124448,-0.60878,-1.00894,-1.048956,61.11,-212.94,-122.22
696,124546,-0.8752280000000001,-0.960384,-0.60268,32.76,-214.9525,-116.9875
697,124644,-0.338916,-0.8142281,-0.788608,16.3625,-183.085,-102.69
698,124742,0.24888000000000002,-0.830576,-1.0255319999999999,27.055,-167.1775,-71.575
699,124840,0.522648,-0.9596520000000001,-1.112152,47.9675,-185.4825,-26.46
700,124938,0.5777920999999999,-1.034804,-1.021628,54.46,-224.0875,24.08
701,125036,0.458232,-0.975512,-0.8540000000000001,37.9925,-264.075,66.0975
702,125134,0.388448,-0.755424,-0.7256560000000001,8.9425,-292.6525,91.42
703,125232,0.391376,-0.467504,-0.708576,-15.4875,-309.0325,105.175
704,125330,0.48848800000000003,-0.211304,-0.766892,-24.36,-319.34,113.2775
705,125428,0.638792,-0.046604,-0.8405800999999999,-16.94,-328.335,116.165
706,125526,0.782508,0.071248,-0.9108521,-0.1225,-337.68,115.885
707,125624,0.8815719999999999,0.08442401,-0.9496479999999999,19.635,-345.3625,112.98
708,125722,1.0126,0.063196,-1.013088,35.595,-351.0325,104.335
709,125820,1.161196,0.02562,-1.0889719999999998,46.445,-355.0925,93.065
710,125918,1.2900280000000002,0.027327999999999998,-1.14436,52.325,-359.66,82.705
711,126016,1.399828,0.007076001,-1.172664,60.97,-363.965,74.445
712,126114,1.509628,-0.071248,-1.187548,74.0075,-363.615,71.295
713,126212,1.6491959999999999,-0.15006,-1.2519639999999999,86.695,-358.085,73.5875
714,126310,1.796328,-0.25254,-1.312476,99.03251,-350.42,80.535
715,126409,1.90198,-0.4026,-1.337608,110.075,-342.8775,89.285
716,126507,1.979084,-0.552172,-1.311744,117.635,-333.48,96.56501
717,126605,2.098156,-0.621712,-1.278316,120.82,-319.62,101.535
718,126703,2.273836,-0.6107319999999999,-1.261724,126.0,-301.77,107.8525
719,126801,2.464888,-0.522404,-1.1690040000000002,136.745,-283.255,117.88
720,126899,2.393884,0.277672,-0.8876719999999999,151.4625,-265.7725,131.075
721,126997,1.9551720000000001,0.859856,-0.35526399999999997,193.1125,-242.655,150.57
722,127095,1.770464,0.8371639999999999,0.194956,249.5325,-203.0,172.935
723,127193,2.210884,0.30256,0.743712,254.6425,-153.1075,184.52
724,127291,2.704252,-0.19959200000000002,1.167784,180.25,-110.67,165.4975
725,127389,2.721332,0.29133600000000004,1.2139,44.8875,-84.805,116.55
726,127487,2.476356,1.07726,1.035048,-47.9325,-66.8325,57.925
727,127585,2.057408,1.334924,0.8640040000000001,-35.8925,-35.0175,9.485
728,127683,1.9251599999999998,0.762988,0.734196,34.685,11.6725,-20.8425
729,127782,1.885144,0.017812,0.5799880000000001,81.2875,52.8675,-32.6375
730,127879,1.346148,-0.8664440000000001,0.236192,70.49,76.8775,-26.285
731,127977,0.254736,-1.111176,0.6734399999999999,-42.6125,113.155,14.455
732,128075,0.22252800000000003,0.508984,-0.30841599999999997,-201.04,180.1275,44.7125
733,128174,-0.42016800000000004,-0.18178,-1.202432,-173.1275,205.5025,17.045
734,128272,0.329156,2.524912,-2.007632,-282.59,237.335,-69.44
735,128370,2.00568,1.565504,-2.2640759999999998,-242.27,238.84,-134.4175
736,128468,4.0972480000000004,0.303292,-2.870416,-179.7425,224.5075,-128.8875
737,128566,0.8547319999999999,0.24522,-1.663836,-157.2375,108.29,-96.46
738,128664,0.500444,0.109556,-1.458876,-94.7625,93.3625,-65.765
739,128762,1.255624,0.162748,-1.676036,-63.8925,93.5375,-48.0025
740,128860,0.928176,-0.282064,-1.14192,-40.1625,56.9625,-33.1275
741,128958,0.353556,-0.19276,-0.90036,-30.8525,27.02,-22.12
742,129056,0.5738880000000001,-0.178852,-1.008208,-33.2675,27.055,-21.8575
743,129154,0.538508,-0.162748,-0.9557479999999999,-32.375,22.2075,-21.7175
744,129252,0.492392,-0.058803999999999995,-0.9730721,-33.075,15.015,-20.265
745,129350,0.5343600000000001,-0.05172801,-0.9738041,-28.2975,12.46,-18.165
746,129448,0.43676000000000004,-0.10614000000000001,-0.9140241,-21.8225,8.6625,-14.9275
747,129546,0.428708,-0.155672,-0.8927959999999999,-18.6375,7.42,-13.6325
748,129644,0.479216,-0.12468399999999999,-0.922076,-19.915,7.595,-13.7725
749,129742,0.44822799999999996,-0.09930800000000001,-0.919636,-19.075,6.23,-13.2825
750,129841,0.444568,-0.133468,-0.8998719999999999,-16.4675,6.1425,-12.3375
751,129939,0.4331,-0.122732,-0.9118280000000001,-15.435,6.265,-12.075
752,130037,0.44676400000000005,-0.138836,-0.8847440999999999,-13.7375,6.8075,-12.145
753,130135,0.454084,-0.12175599999999999,-0.8805960999999999,-13.2475,6.8425,-12.3375
754,130233,0.45628,-0.114924,-0.8927959999999999,-12.145,6.475,-12.04
755,130331,0.444324,-0.121268,-0.88328,-10.8325,6.0725,-11.8475
756,130429,0.446276,-0.123708,-0.8791321,-10.7275,6.195,-12.0925
757,130527,0.441396,-0.11541199999999999,-0.8813280000000001,-10.85,6.44,-12.67
758,130625,0.43358800000000003,-0.11614400000000001,-0.883036,-10.85,6.6675,-13.055
759,130723,0.443104,-0.11321600000000001,-0.880352,-11.2,7.455,-13.3875
760,130821,0.452376,-0.09711201,-0.885476,-11.655,7.9625,-13.7725
761,130919,0.45871999999999996,-0.098576,-0.877912,-11.7075,7.9275,-13.965
762,131017,0.471164,-0.08954801,-0.8757159999999999,-11.7775,7.8925,-14.0175
763,131115,0.461892,-0.09247601,-0.8752280000000001,-11.375,7.525,-13.895
764,131213,0.453596,-0.08564401,-0.8906,-10.5525,7.63,-13.51
765,131311,0.468236,-0.08662001,-0.8818159999999999,-9.275,8.8025,-13.5625
766,131409,0.47946000000000005,-0.07442,-0.8808401,-8.575,9.8875,-13.51
767,131507,0.48312,-0.06588,-0.8810841,-7.6475,9.975,-12.985
768,131606,0.475312,-0.07881200000000001,-0.87474,-5.9325,9.8525,-12.53
769,131704,0.463844,-0.074664,-0.8784,-5.39,10.01,-12.0925
770,131802,0.46018400000000004,-0.0793,-0.883524,-4.235,10.885,-11.9
771,131900,0.470188,-0.073688,-0.8735200000000001,-3.36,12.425,-11.865
772,131998,0.474092,-0.07417601,-0.879376,-2.2575,14.1575,-11.48
773,132096,0.484584,-0.0793,-0.8744960999999999,-1.015,16.1175,-11.095
774,132194,0.478728,-0.0793,-0.87718,0.105,17.8325,-10.4825
775,132292,0.47677600000000003,-0.08417999999999999,-0.869128,0.98,19.8275,-10.22
776,132390,0.5321640000000001,-0.057828,-0.85644,1.155,21.8925,-10.0625
777,132488,0.4331,-0.12395199999999999,-0.8754719999999999,1.0675,20.02,-9.695
778,132586,0.471896,-0.07515201,-0.8823040000000001,1.155,21.875,-9.9575
779,132684,0.423096,-0.09418401,-0.888648,2.485,32.2,-11.2525
780,132782,0.48922,-0.028548,-0.8949921000000001,4.445,40.495,-11.69
781,132880,0.4575,-0.034648000000000005,-0.9025559999999999,8.575,48.6675,-11.445
782,132978,0.45335200000000003,-0.046848,-0.906216,11.62,58.9925,-11.3575
783,133076,0.44725200000000004,-0.035868000000000004,-0.9147559999999999,14.5425,71.12,-11.305
784,133175,0.450668,-0.058803999999999995,-0.9298841,17.7975,84.4025,-11.3575
785,133273,0.44554399999999994,-0.071492,-0.934276,20.58,98.0875,-11.585
786,133371,0.450424,-0.08344800000000001,-0.9340321,23.52,112.8925,-13.055
787,133469,0.44212799999999997,-0.0732,-0.9415959999999999,27.4925,129.2725,-14.8575
788,133567,0.4392,-0.067588,-0.9596520000000001,31.9025,146.9475,-17.1675
789,133665,0.434564,-0.087108,-0.9903959999999999,36.75,168.385,-20.02
790,133763,0.308904,-0.21228000000000002,-0.9633120999999999,39.865,195.51,-24.7275
791,133861,0.34721199999999997,-0.24497600000000003,-1.0723799999999999,31.0625,227.43,-35.21
792,133959,0.333304,-0.320372,-1.096292,22.54,264.6525,-47.845
793,134057,0.217404,-0.382348,-1.114348,12.3375,311.4125,-66.08
794,134155,0.413336,-0.42285200000000006,-1.06384,0.28,368.235,-88.2175
795,134253,0.956968,-0.4026,-1.372012,-16.9225,432.4075,-107.905
796,134351,2.103768,0.05172801,-1.4034879999999998,-30.695,496.195,-115.465
797,134449,1.333704,-0.360388,-1.632116,-16.1525,550.3925,-123.6725
798,134547,2.13866,-0.24936799999999998,-1.6801840000000001,-42.5075,551.53,-122.5525
799,134645,2.3077520000000002,0.063684,-1.632116,-59.7275,474.4425,-97.475
800,134743,2.0620439999999998,0.15201199999999998,-2.211128,-12.74,431.9875,-92.7325
801,134841,1.109712,0.042456,-2.772328,22.6625,363.1775,-82.1275
802,134939,-1.8531799999999998,0.23228800000000002,-2.34118,78.715,251.335,-58.8175
803,135037,2.8538240000000004,-0.449204,-2.445612,117.6875,206.2725,-92.365
804,135135,1.9478520000000001,-0.5724239999999999,-3.347436,145.7925,136.605,-161.7525
805,135233,1.003572,-1.261236,-2.412184,148.435,-74.795,-142.765
806,135332,-0.20105599999999998,-1.0077200000000002,-1.386652,86.9925,-196.175,-122.6925
807,135430,-0.9982040000000001,-0.948184,-0.7190681,52.745,-225.9425,-119.9625
808,135528,-0.7427361,-0.7788480999999999,-0.6653880999999999,34.4575,-199.71,-115.465
809,135626,-0.08052000000000001,-0.646844,-0.9413520000000001,36.785,-166.7925,-93.3975
810,135724,0.3965,-0.7141881,-1.131672,65.7475,-166.565,-52.4825
811,135822,0.593896,-0.886452,-1.1148360000000002,89.25,-197.4,-2.2575
812,135920,0.55388,-0.9699,-0.9391560999999999,85.9425,-240.1525,43.8725
813,136018,0.443592,-0.8335040000000001,-0.754204,57.505,-277.305,75.705
814,136116,0.385764,-0.515328,-0.6707561,22.2775,-299.4075,95.1125
815,136214,0.4553041,-0.186904,-0.714676,1.61,-310.765,105.525
816,136312,0.604388,0.01708,-0.8176439999999999,3.5525,-318.9025,109.97
817,136410,0.7705521,0.143228,-0.885964,18.6725,-327.18,111.195
818,136508,0.8813280000000001,0.186904,-0.9413520000000001,37.135,-336.0,110.9325
819,136606,0.9496479999999999,0.211304,-0.993568,52.6225,-342.5975,105.14
820,136704,1.065792,0.195688,-1.037244,64.365,-346.9025,94.4825
821,136802,1.176568,0.24668400000000001,-1.1333799999999998,72.73,-350.77,84.0525
822,136900,1.341024,0.192272,-1.2012120000000002,85.54,-355.5125,74.235
823,136998,1.512312,0.010736,-1.239276,99.085,-359.87,69.0025
824,137096,1.6513919999999997,-0.190808,-1.231468,104.86,-362.67,70.0175
825,137194,1.713368,-0.349896,-1.209508,101.71,-362.1625,78.61
826,137293,1.796328,-0.481412,-1.233908,94.7625,-355.9675,91.8225
827,137391,1.934188,-0.619516,-1.3022280000000002,89.74,-344.2075,106.5575
828,137489,2.148664,-0.693204,-1.407392,85.96,-329.4725,120.4525
829,137587,2.424872,-0.604388,-1.450092,85.41751,-315.9275,134.3825
830,137685,2.568588,-0.19983599999999999,-1.260748,92.505,-306.7575,149.4325
831,137783,2.445368,0.523624,-0.85034,112.1925,-294.8925,162.4
832,137881,2.140124,0.8559521000000001,-0.339648,160.6325,-270.41,169.19
833,137979,2.0754639999999998,0.999668,0.215696,197.82,-228.305,176.3475
834,138077,2.464888,0.644648,0.9015799999999999,198.8875,-179.8125,184.345
835,138175,2.87188,0.09540401,1.528416,140.1575,-134.0675,164.64
836,138273,2.78526,0.6161,1.617476,22.155,-96.3725,104.09
837,138371,2.5512639999999998,1.455948,1.306864,-47.32,-60.9875,31.64
838,138469,2.24602,1.46522,0.9840521000000001,-6.4925,-15.295,-19.25
839,138567,2.179164,0.7117479999999999,0.774212,72.5025,33.9325,-45.4825
840,138665,2.067412,0.015372,0.538996,102.8825,67.095,-54.88
841,138763,0.8300879999999999,-1.747772,0.50264,75.7225,80.3775,-46.235
842,138861,-1.268068,-0.116388,-0.419192,-95.9175,114.52,4.06
843,138959,-2.379,-0.741272,-0.370392,-140.0175,196.1225,-11.69
844,139057,1.0784799999999999,0.860344,-0.612196,-234.57,283.955,-78.6625
845,139155,3.23788,2.249924,-2.945812,-277.62,339.0975,-123.8125
846,139253,2.18502,1.395924,-2.2770080000000004,-146.9475,260.6975,-131.11
847,139351,2.135,-0.31646799999999997,-1.9224759999999999,-145.2675,204.68,-126.56
848,139450,1.346148,-0.818376,-1.578924,-123.0075,155.26,-90.72001
849,139548,2.045696,0.45603599999999994,-2.165012,-110.635,134.1025,-64.4
850,139646,0.864492,0.6883239999999999,-1.5408600000000001,-74.9875,60.9,-41.1775
851,139744,0.562908,-0.33428,-0.942816,-24.0975,29.61,-21.5775
852,139842,0.58316,-0.24644000000000002,-0.9396440999999999,-22.505,28.21,-17.8325
853,139940,0.5885281,-0.05172801,-1.016748,-29.995,19.25,-17.9025
854,140038,0.5206960999999999,-0.111752,-0.9059721,-25.515,11.06,-16.6425
855,140136,0.585112,-0.015372,-0.97478,-24.15,7.7525,-14.945
856,140234,0.502884,-0.09418401,-0.901336,-16.59,3.43,-12.46
857,140332,0.45554799999999995,-0.11760799999999999,-0.8827921000000001,-14.2625,1.715,-11.515
858,140430,0.452376,-0.09247601,-0.8988959999999999,-13.9825,2.6425,-11.62
859,140528,0.46311199999999997,-0.09784401,-0.89426,-12.355,3.7625,-11.27
860,140626,0.465308,-0.11248399999999999,-0.8874280999999999,-10.7975,4.7775,-11.1825
861,140724,0.472628,-0.1159,-0.87718,-9.6075,5.5125,-11.34
862,140822,0.49434399999999995,-0.09442801,-0.879864,-9.3275,5.7225,-11.69
863,140920,0.50508,-0.083936,-0.8713241,-7.7525,5.0575,-11.6025
864,141018,0.503616,-0.08003201,-0.8720559999999999,-6.16,3.675,-11.13
865,141116,0.493856,-0.08637601,-0.868396,-5.1275,2.415,-10.395
866,141215,0.489464,-0.088328,-0.8664440000000001,-4.55,1.7325,-9.8525
867,141313,0.485072,-0.10052799999999999,-0.856196,-4.3925,1.33,-9.7475
868,141411,0.479216,-0.10418800000000002,-0.8586360000000001,-4.515,0.7875,-9.87
869,141509,0.472872,-0.10638399999999999,-0.85644,-4.9175,0.6125,-10.15
870,141607,0.471164,-0.10614000000000001,-0.8544879999999999,-5.565,1.0325,-10.605
871,141705,0.479216,-0.098332,-0.8579041,-6.37,1.295,-11.1825
872,141803,0.485072,-0.0976,-0.8554641,-7.0,1.365,-11.48
873,141901,0.488976,-0.09125599999999999,-0.8559521000000001,-7.3675,1.0325,-11.62
874,141999,0.488,-0.08417999999999999,-0.8579041,-7.5425,0.5075,-11.9875
875,142097,0.487512,-0.0793,-0.8581479999999999,-7.63,0.7875,-11.9875
876,142195,0.490196,-0.07881200000000001,-0.856684,-7.315,0.98,-11.9
877,142293,0.49263599999999996,-0.072956,-0.8601,-6.9475,1.2425,-11.7075
878,142391,0.48824399999999996,-0.089304,-0.859856,-6.545,1.295,-11.7075
879,142489,0.489464,-0.07246799999999999,-0.85888,-6.615,1.645,-11.7075
880,142587,0.49580799999999997,-0.074664,-0.8586360000000001,-6.4225,2.275,-11.6025
881,142685,0.49141599999999996,-0.073688,-0.8625401,-6.335,2.6075,-11.5325
882,142783,0.48848800000000003,-0.0671,-0.8647360000000001,-6.3,3.08,-11.655
883,142881,0.48848800000000003,-0.065148,-0.863516,-5.7925,4.0425,-11.585
884,142979,0.491904,-0.067588,-0.863516,-5.1625,5.25,-11.585
885,143077,0.482876,-0.06124401,-0.8698601,-4.1125,6.5275,-11.62
886,143175,0.475312,-0.060267999999999995,-0.8744960999999999,-2.45,8.54,-11.445
887,143273,0.45603599999999994,-0.061,-0.883768,-0.77,12.0225,-10.7975
888,143371,0.365512,-0.087352,-0.90402,0.5425,17.43,-10.36
889,143469,0.49263599999999996,-0.050263999999999996,-0.885476,0.6825,27.44,-11.48
890,143567,0.4553041,-0.050263999999999996,-0.8967,1.9775,34.1075,-12.1975
891,143665,0.476288,-0.030012,-0.8962120000000001,3.815,42.84,-12.3375
892,143764,0.44652,-0.024156,-0.9079241,7.0175,52.5175,-12.075
893,143862,0.44164,-0.049044,-0.9228081,11.27,65.275,-12.1625
894,143960,0.42602399999999996,-0.06929600000000001,-0.944768,14.77,79.2225,-13.125
895,144058,0.42285200000000006,-0.050508,-0.96624,16.7825,95.02501,-14.0
896,144156,0.42700000000000005,-0.002684,-0.992348,20.965,113.435,-13.685
897,144254,0.388692,0.0061,-1.034804,27.3175,134.5925,-13.23
898,144352,0.36356,-0.015128,-1.079944,35.98,161.2275,-12.4425
899,144450,0.348432,-0.147376,-1.070184,45.92,194.1975,-14.4025
900,144548,0.27084,-0.31842,-1.068232,49.8575,232.2425,-22.8375
901,144646,0.26596,-0.343796,-1.098976,37.0125,270.83,-40.2675
902,144744,0.254492,-0.4023561,-1.117764,21.665,315.0175,-62.0725
903,144842,0.349164,-0.370636,-1.142164,4.13,369.53,-85.085
904,144940,0.9977159999999999,-0.404308,-1.2622120000000001,-9.45,433.72,-105.0175
905,145038,1.4783959999999998,-0.19251600000000002,-1.5852680000000001,-31.6575,483.2275,-113.5575
906,145136,1.4701,-0.327448,-1.432524,-32.2,505.61,-113.4
907,145234,1.855132,-0.007320001,-1.488156,-50.68,503.265,-120.1025
908,145332,2.120848,-0.156404,-1.451068,-57.05,471.0475,-111.125
909,145430,1.963956,0.13761600000000002,-1.996164,-35.875,421.7325,-102.6025
910,145528,1.1224,-0.0034159999999999998,-2.299212,7.315,363.37,-89.9675
911,145626,-0.9845401,-0.044164,-2.195024,62.9825,278.1975,-69.335
912,145725,1.9646880000000002,-0.49873599999999996,-1.8402479999999999,99.015,205.695,-76.9475
913,145823,2.084004,-0.586332,-3.131008,123.865,171.1675,-128.7125
914,145921,1.088484,-1.305888,-2.597868,127.75,-23.8875,-110.215
915,146019,-0.043676,-1.107272,-1.574776,73.29,-151.6375,-85.99501
916,146117,-0.921344,-0.9684360999999999,-0.9459880999999999,33.0225,-192.0275,-82.4425
917,146215,-0.790804,-0.712724,-0.81374,8.0675,-178.4475,-81.83001
918,146313,-0.19251600000000002,-0.5084960000000001,-1.092144,5.005,-152.915,-70.4025
919,146411,0.293288,-0.5172800999999999,-1.292224,34.3875,-154.595,-47.7225
920,146509,0.478728,-0.6480640000000001,-1.2944200000000001,67.305,-187.04,-16.275
921,146607,0.42212,-0.8108121,-1.09556,82.67,-230.4925,16.6775
922,146705,0.312076,-0.802272,-0.8852321,69.9475,-268.1525,41.685
923,146803,0.321348,-0.6068279999999999,-0.781532,43.7325,-290.1325,59.6925
924,146901,0.37454,-0.355996,-0.790072,23.8,-301.7,72.6775
925,146999,0.49141599999999996,-0.16104000000000002,-0.859856,19.4425,-310.6075,81.165
926,147097,0.660996,-0.067588,-0.9552601000000001,28.6475,-319.585,86.555
927,147195,0.8220360000000001,-0.0183,-1.02236,43.0675,-329.5775,89.5825
928,147293,0.9440360999999999,-0.01464,-1.016748,56.5425,-339.85,91.665
929,147391,1.02358,-0.0366,-1.047736,65.4675,-347.445,91.35
930,147490,1.1346,-0.03538,-1.12362,69.9475,-351.2075,88.4975
931,147588,1.293688,-0.069052,-1.220732,77.7875,-353.4825,87.3075
932,147686,1.413248,-0.18788,-1.272704,90.30001,-355.25,93.0475
933,147784,1.512312,-0.288164,-1.317844,97.8425,-355.2325,105.28
934,147882,1.66408,-0.42700000000000005,-1.3725,100.6075,-352.975,119.49
935,147980,1.859768,-0.58194,-1.431792,98.63,-349.58,132.615
936,148078,2.052284,-0.648308,-1.454484,92.7325,-344.47,144.97
937,148176,2.293356,-0.6329359999999999,-1.454728,88.585,-336.0875,157.08
938,148274,2.510272,-0.0549,-1.3571280000000001,90.8775,-324.87,168.7175
939,148372,2.55346,0.601216,-1.06384,113.05,-308.7875,183.1375
940,148470,2.5110040000000002,0.7139439999999999,-0.5838920999999999,170.0825,-283.6575,192.43
941,148568,2.549312,0.836676,-0.021716,201.7925,-248.36,191.1
942,148666,2.628368,0.7564001,0.7300479999999999,197.155,-209.475,184.2575
943,148764,2.929708,0.514596,1.472784,151.795,-168.385,155.295
944,148862,3.001444,0.7929999999999999,1.758264,68.145,-129.64,92.89001
945,148960,2.767448,1.475468,1.593076,3.955,-89.88,17.36
946,149058,2.495876,1.3790879999999999,1.337608,23.6775,-40.1275,-35.0
947,149156,2.074,0.068076,1.4757120000000001,73.85,15.4,-59.1325
948,149254,2.223084,-0.8554641,2.321416,8.5575,102.8125,-46.095
949,149353,-0.8115439999999999,0.346968,0.48995200000000005,-150.5,178.0975,-25.165
950,149451,-1.053348,-1.661152,-1.6765240000000001,-194.0225,250.0225,-54.0225
951,149549,2.6537439999999997,3.223484,-1.527196,-345.625,316.4875,-123.27
952,149647,2.3907119999999997,2.4395119999999997,-2.746464,-230.965,288.54,-126.56
953,149745,3.9833,0.15274400000000002,-3.033652,-104.4925,236.5125,-115.955
954,149843,1.0023520000000001,-0.49141599999999996,-1.344684,-116.095,141.365,-86.3975
955,149941,0.756644,-0.458476,-1.236348,-80.185,117.215,-62.0725
956,150039,1.301252,0.22935999999999998,-1.6926279999999998,-85.78501,98.91001,-53.795
957,150137,0.874252,-0.06929600000000001,-1.176568,-65.3975,60.2175,-39.4975
958,150235,0.538996,-0.193736,-1.02358,-48.8775,34.755,-29.3125
959,150333,0.813496,0.004148001,-1.170224,-48.825,27.755,-27.2125
960,150431,0.496784,0.019032,-0.9633120999999999,-40.32,15.68,-23.24
961,150529,0.604144,0.010736,-0.9752681000000001,-32.06,11.2175,-19.215
962,150627,0.524356,-0.05246,-0.921588,-23.905,6.685,-15.3475
963,150725,0.487512,-0.10931199999999999,-0.889868,-18.1825,3.99,-13.0025
964,150823,0.47506800000000005,-0.07222401,-0.9001161,-16.8,3.9025,-13.125
965,150921,0.478484,-0.07173600000000001,-0.89426,-14.455,4.06,-12.8275
966,151019,0.47994799999999993,-0.051972000000000004,-0.8937719999999999,-12.46,4.48,-12.355
967,151117,0.478972,-0.06270801,-0.895236,-10.0975,4.9525,-11.1825
968,151215,0.4758,-0.10321199999999998,-0.8769360999999999,-7.6825,5.4425,-10.3425
969,151313,0.48824399999999996,-0.100772,-0.8698601,-6.8425,6.1075,-10.5175
970,151411,0.4933681,-0.094916,-0.865956,-7.07,6.125,-10.955
971,151510,0.49605200000000005,-0.090768,-0.8581479999999999,-7.245,5.425,-11.2875
972,151608,0.493856,-0.075396,-0.860344,-7.3675,4.6725,-11.2525
973,151706,0.484584,-0.08954801,-0.8581479999999999,-6.8775,3.6925,-10.8675
974,151804,0.48678,-0.09906401,-0.8574161,-7.1925,3.4475,-10.92
975,151902,0.48848800000000003,-0.09345201,-0.85644,-7.7525,3.1675,-11.445
976,152000,0.49166000000000004,-0.082228,-0.8574161,-8.0675,2.835,-11.7775
977,152098,0.5002,-0.076616,-0.8571719999999999,-8.365,2.415,-12.04
978,152196,0.494588,-0.072956,-0.8586360000000001,-8.505,2.1175,-12.2325
979,152294,0.503128,-0.07198,-0.8576601,-8.715,2.17,-12.04
980,152392,0.502884,-0.058072000000000006,-0.859856,-8.6975,1.995,-12.1275
981,152490,0.508984,-0.0549,-0.8632719999999999,-8.3475,1.9075,-11.8125
982,152588,0.49751599999999996,-0.058316,-0.8547319999999999,-7.1575,1.855,-11.2875
983,152686,0.49727200000000005,-0.051972000000000004,-0.8640040000000001,-6.8425,1.8725,-11.13
984,152784,0.492148,-0.054412,-0.862296,-5.9325,2.275,-10.92
985,152882,0.493856,-0.047336,-0.8664440000000001,-5.075,2.765,-10.535
986,152980,0.490196,-0.035868000000000004,-0.871568,-3.71,3.8325,-10.1675
987,153078,0.48312,-0.061488,-0.8657120999999999,-1.995,5.2675,-9.73
988,153176,0.457988,-0.061732,-0.8725440999999999,-0.875,7.525,-9.485
989,153274,0.506544,-0.052703999999999994,-0.8576601,-0.49,10.885,-9.7825
990,153372,0.490928,-0.061732,-0.8666879999999999,0.385,12.3375,-9.625
991,153470,0.4933681,-0.06929600000000001,-0.8601,0.49,14.805,-10.0975
992,153568,0.486048,-0.071492,-0.868152,0.525,17.955,-10.6225
993,153666,0.48653599999999997,-0.06490399999999999,-0.868396,0.385,21.9275,-11.4975
994,153764,0.489464,-0.056608000000000006,-0.869128,0.77,27.02,-12.3375
995,153862,0.48922,-0.060024,-0.8784,1.4175,32.6725,-12.9675
996,153960,0.46848,-0.05977999999999999,-0.886452,2.975,39.6025,-14.1225
997,154058,0.474092,-0.06124401,-0.8845,4.9525,48.5625,-15.6975
998,154157,0.468236,-0.047092,-0.906948,5.39,58.135,-17.22
999,154255,0.457012,-0.031964,-0.912316,7.2275,68.9325,-18.27
1000,154353,0.457012,-0.042456,-0.9232961,9.24,81.5675,-19.075
1001,154451,0.438224,-0.05977999999999999,-0.945256,10.9025,95.725,-20.545
1002,154549,0.417728,-0.071248,-0.9598959999999999,12.5825,112.385,-22.8375
1003,154647,0.395036,-0.08906,-1.0201639999999998,13.79,132.755,-25.935
1004,154745,0.339648,-0.238632,-1.015528,16.0825,159.1275,-32.83
1005,154843,0.3538,-0.256688,-1.0711600000000001,11.6725,190.925,-44.7125
1006,154941,0.305244,-0.325496,-1.137284,8.855,228.3925,-60.935
1007,155039,0.264496,-0.381128,-1.1651,-0.8400001,270.27,-81.46251
1008,155137,0.349652,-0.386496,-1.121424,-13.895,318.8325,-106.8725
1009,155235,0.709796,-0.263764,-1.303936,-22.8725,374.57,-127.96
1010,155333,1.410076,-0.255712,-1.6799400000000002,-27.93,436.1525,-143.815
1011,155431,1.367376,-0.166652,-1.458632,-30.38,469.84,-154.2625
1012,155529,1.74216,-0.7078439999999999,-1.494988,-24.15,482.7725,-166.0225
1013,155627,1.927844,-0.15982000000000002,-1.55916,-47.985,464.7825,-173.705
1014,155725,2.0693639999999998,-0.606096,-2.053992,-48.16,419.195,-173.3375
1015,155823,1.789252,-0.72468,-2.507588,-14.9975,364.1225,-163.905
1016,155921,-1.139968,-0.90402,-2.6049439999999997,15.75,254.905,-145.04
1017,156019,2.301164,-1.199992,-1.7336200000000002,20.7375,157.92,-135.6425
1018,156117,1.5730680000000001,-1.275144,-3.226412,64.8025,124.285,-107.065
1019,156215,0.567056,-1.42618,-2.0769279999999997,101.0625,-52.955,-39.235
1020,156313,-0.6822239999999999,-1.339316,-1.2761200000000001,83.475,-129.71,-3.815
1021,156411,-1.056764,-1.086776,-0.8178880999999999,63.385,-137.2175,12.5125
1022,156509,-0.49166000000000004,-0.635864,-1.052616,41.4575,-118.6325,17.465
1023,156607,0.041968,-0.41602,-1.397632,53.655,-118.93,23.695
1024,156706,0.371612,-0.36234,-1.511824,84.6475,-149.555,38.85
1025,156804,0.375272,-0.44944799999999996,-1.329312,111.3175,-197.6625,59.3075
1026,156902,0.270352,-0.46628400000000003,-1.071404,114.2225,-240.0125,75.0925
1027,157000,0.22789600000000002,-0.327936,-0.9254921,98.0875,-265.8775,83.58001
1028,157098,0.333304,-0.09979600000000001,-0.9181720999999999,82.285,-278.2325,88.62
1029,157196,0.4933681,0.09125599999999999,-0.9950319999999999,79.905,-286.8075,92.6625
1030,157294,0.62464,0.21228000000000002,-1.069696,90.21251,-296.1525,96.3375
1031,157392,0.74908,0.299144,-1.116056,104.9475,-306.0925,98.665
1032,157490,0.8291120999999999,0.326228,-1.155828,117.7575,-314.9475,97.3
1033,157588,0.9494040000000001,0.350628,-1.199748,124.8625,-322.2625,90.055
1034,157686,1.093364,0.34794400000000003,-1.26026,129.4475,-328.8425,79.5725
1035,157784,1.200968,0.298412,-1.301984,134.8025,-334.9675,71.1725
1036,157882,1.29198,0.22716399999999998,-1.339316,140.945,-339.255,68.18
1037,157980,1.373476,0.15420799999999998,-1.386164,147.455,-341.2675,71.12
1038,158078,1.492304,0.037088,-1.444236,154.1575,-341.0925,78.015
1039,158176,1.646268,-0.055388,-1.494256,159.88,-339.5875,87.5875
1040,158274,1.7592400000000001,0.10321199999999998,-1.52134,163.345,-335.2125,101.7275
1041,158372,1.8666,0.381372,-1.4879120000000001,172.0775,-325.5525,118.5275
1042,158470,2.018612,0.532652,-1.393972,189.1225,-310.835,131.845
1043,158568,2.236504,0.652212,-1.19316,199.7275,-295.1725,135.1875
1044,158666,2.315804,0.565836,-0.889136,195.5275,-280.42,131.5475
1045,158764,2.228452,0.589504,-0.486048,169.715,-261.8875,127.89
1046,158862,2.139636,0.6219561,0.080764,124.1975,-237.125,126.8575
1047,158960,2.187704,0.67588,0.7200439999999999,69.52750999999999,-205.7825,114.73
1048,159058,2.298968,0.9145120999999999,1.06628,16.3625,-168.2975,78.1375
1049,159157,2.4016919999999997,1.25904,1.119472,-1.9775,-123.165,31.6925
1050,159255,2.3333720000000002,1.2404959999999998,1.0767719999999998,29.47,-72.625,-4.7425
1051,159353,2.183312,0.771772,0.9711200999999999,77.2975,-20.79,-24.7975
1052,159451,1.7397200000000002,-0.9186601000000001,1.430572,84.15751,30.065,-31.325
1053,159549,2.32532,-1.3649360000000001,2.2955520000000003,-65.8525,112.2625,-20.055
1054,159647,-0.503128,0.390156,-0.2501,-263.55,159.11,-21.2625
1055,159745,-0.42748800000000003,-0.9264680000000001,-1.9654200000000002,-312.6725,224.2275,-57.6625
1056,159843,1.7263,4.064796,-1.814384,-438.9875,261.135,-119.525
1057,159941,1.215852,2.734752,-1.830732,-251.51,260.1725,-113.5225
1058,160039,1.257088,1.2702639999999998,-1.815116,-104.335,257.88,-108.395
1059,160137,3.116612,-0.666852,-2.416576,-74.935,250.81,-99.155
1060,160235,1.783152,-0.012444,-1.8058439999999998,-87.5875,153.545,-71.155
1061,160333,0.635864,0.698816,-1.657736,-63.9625,86.15250999999999,-48.0375
1062,160431,0.803736,-0.206668,-1.2014559999999999,-44.275,60.6725,-31.85
1063,160529,0.791536,-0.5504641,-0.979416,-42.6475,47.8275,-25.2
1064,160627,0.739564,0.060024,-1.147044,-57.82,31.3425,-24.29
1065,160725,0.6219561,-0.06270801,-0.9803921,-45.78,17.64,-22.26
1066,160823,0.5636399999999999,-0.019275999999999998,-0.9738041,-34.8425,9.9225,-18.095
1067,160921,0.529724,-0.08052000000000001,-0.9181720999999999,-28.0525,7.6475,-15.785
1068,161019,0.48824399999999996,-0.101992,-0.9032879999999999,-21.35,4.795,-13.755
1069,161117,0.513864,-0.056852,-0.9079241,-18.5325,4.76,-13.2125
1070,161215,0.49532,-0.0427,-0.9120720999999999,-14.245,4.2875,-11.5675
1071,161313,0.48433999999999994,-0.07002799999999999,-0.8906,-10.0625,4.62,-9.7475
1072,161411,0.47165200000000007,-0.10736,-0.873276,-7.63,5.4425,-8.7325
1073,161510,0.47702,-0.12395199999999999,-0.8664440000000001,-7.14,6.4575,-8.855
1074,161608,0.480436,-0.116632,-0.861808,-7.5775,7.105,-9.3975
1075,161706,0.49263599999999996,-0.10516400000000001,-0.85888,-7.455,6.825,-9.7825
1076,161804,0.490196,-0.101504,-0.8579041,-7.3675,6.405,-9.9575
1077,161902,0.488976,-0.09735601,-0.8664440000000001,-7.0175,5.74,-10.0975
1078,162000,0.489708,-0.11224,-0.856196,-6.86,5.1975,-10.4825
1079,162098,0.494588,-0.10906800000000001,-0.853756,-7.4375,4.515,-11.06
1080,162196,0.49995600000000007,-0.0976,-0.853756,-7.98,3.605,-11.4275
1081,162294,0.496784,-0.087108,-0.85644,-7.9275,2.695,-11.305
1082,162392,0.49654,-0.07856801,-0.8544879999999999,-7.6475,2.03,-11.025
1083,162490,0.49873599999999996,-0.071248,-0.8605879999999999,-7.1925,1.435,-10.92
1084,162588,0.498004,-0.07637200000000001,-0.8554641,-6.7025,0.8225,-10.7625
1085,162686,0.5072760000000001,-0.057096,-0.8576601,-6.125,0.49,-10.395
1086,162784,0.49898000000000003,-0.061,-0.853512,-4.9875,-0.2275,-9.9225
1087,162882,0.512644,-0.07612801,-0.856684,-4.1125,-0.595,-9.45
1088,162980,0.5063,-0.061488,-0.8579041,-3.08,-1.05,-9.03
1089,163078,0.5038600000000001,-0.06880801,-0.8608319999999999,-2.2575,-1.5925,-8.855
1090,163176,0.49849209999999994,-0.06588,-0.859368,-1.5925,-1.82,-8.8025
1091,163274,0.486292,-0.089304,-0.840824,-1.365,-1.61,-8.785
1092,163372,0.492148,-0.09150001,-0.8479,-1.33,-1.1725,-8.8375
1093,163471,0.49263599999999996,-0.07490801,-0.8581479999999999,-0.91,-0.42,-8.9425
1094,163569,0.489708,-0.07490801,-0.8596120999999999,-0.42,0.385,-9.135
1095,163667,0.490196,-0.075396,-0.8608319999999999,-0.175,1.33,-9.52
1096,163765,0.487512,-0.083936,-0.8586360000000001,-0.0525,2.1525,-9.8
1097,163863,0.469944,-0.085888,-0.8676640999999999,-0.4375,3.4125,-10.0625
1098,163961,0.49263599999999996,-0.079056,-0.8610761,-0.805,6.055,-10.4825
1099,164059,0.488976,-0.06929600000000001,-0.859368,-0.455,7.84,-10.64
1100,164157,0.496296,-0.07564,-0.8552200000000001,-0.0175,9.52,-10.675
1101,164255,0.494832,-0.07832401,-0.8605879999999999,0.2625,11.235,-10.8675
1102,164353,0.48556000000000005,-0.08052000000000001,-0.864492,0.4375,13.6325,-11.375
1103,164451,0.482388,-0.08662001,-0.873764,0.49,17.325,-12.215
1104,164549,0.468236,-0.079056,-0.88328,0.4375,22.3475,-13.44
1105,164647,0.45603599999999994,-0.09320801,-0.8954801,1.2425,28.84,-15.015
1106,164745,0.425048,-0.11224,-0.9093880999999999,2.835,38.2725,-17.115
1107,164843,0.412116,-0.079544,-0.9318360000000001,4.2525,50.6275,-19.88
1108,164941,0.404308,-0.060267999999999995,-0.9562360999999999,4.3925,65.03,-22.89
1109,165039,0.390644,-0.026351999999999997,-1.017968,6.44,82.7225,-25.34
1110,165137,0.34477199999999997,-0.007076001,-1.075064,14.1225,106.435,-28.7175
1111,165235,0.3233,-0.121024,-1.090436,25.1825,136.29,-34.825
1112,165333,0.274256,-0.082716,-1.167052,31.3775,170.345,-43.0325
1113,165431,0.249856,-0.09223200000000001,-1.208532,43.785,212.0475,-59.08
1114,165530,0.185684,-0.36356,-1.2404959999999998,61.67,259.6825,-80.64
1115,165628,0.292068,-0.334524,-1.17364,58.8525,306.8975,-102.025
1116,165726,0.868884,-0.26474000000000003,-1.2117040000000001,70.0175,354.0075,-116.9875
1117,165824,1.368352,-0.336476,-1.516216,92.61001,381.99,-129.955
1118,165922,1.369816,-0.22252800000000003,-1.2634319999999999,103.985,363.7025,-140.945
1119,166020,1.255868,-0.252784,-1.0943399999999999,118.2825,330.7675,-152.705
1120,166118,1.500844,0.08808401,-1.313208,151.095,293.545,-156.905
1121,166216,0.8581479999999999,0.48678,-1.334436,216.44,230.4925,-154.14
1122,166314,0.0488,0.41113999999999995,-1.352248,310.6425,178.3425,-162.295
1123,166412,-0.19764,-0.306952,-1.022604,386.61,116.97,-180.9675
1124,166510,-0.679296,-0.808372,-1.2219520000000001,394.73,47.075,-206.08
1125,166608,0.6231760999999999,-1.161196,-1.3449280000000001,361.55,-12.1625,-219.205
1126,166706,0.538996,-1.701168,-1.411784,315.4375,-50.1025,-191.205
1127,166804,-0.281332,-1.73728,-1.1087360000000002,248.045,-103.5825,-130.3925
1128,166902,-0.29572800000000005,-1.328092,-1.1270360000000001,187.88,-122.4125,-69.86
1129,167000,-0.05587601,-0.7856801,-1.348588,169.5575,-124.7925,0.385
1130,167098,0.119072,-0.378688,-1.505968,173.46,-135.275,67.48001
1131,167196,0.190564,-0.065148,-1.552816,182.8575,-159.11,112.49
1132,167295,0.212036,0.282552,-1.532808,175.3675,-189.0175,130.48
1133,167393,0.276208,0.7666480999999999,-1.551108,158.2875,-219.065,124.4075
1134,167491,0.296216,1.257088,-1.535248,148.4175,-244.09,101.7275
1135,167589,0.34257600000000005,1.626016,-1.550132,146.7025,-262.745,64.995
1136,167687,0.5016641,1.8119439999999998,-1.568432,156.0825,-275.59,14.21
1137,167785,0.686616,1.806332,-1.559648,173.6175,-285.0225,-41.8775
1138,167883,0.8203280000000001,1.618452,-1.508896,191.765,-293.475,-91.9275
1139,167981,0.9423280999999999,1.35054,-1.436428,203.455,-301.2975,-130.2
1140,168079,1.037244,1.10166,-1.329556,208.0225,-307.4225,-156.0475
1141,168177,1.099708,0.9362280000000001,-1.230736,208.5825,-309.0675,-169.7675
1142,168275,1.146312,0.7761640999999999,-1.16998,208.88,-305.9,-174.965
1143,168373,1.185352,0.648796,-1.159732,208.705,-299.2325,-175.9975
1144,168471,1.2038959999999999,0.5926760999999999,-1.1599760000000001,206.4125,-291.6725,-175.8575
1145,168569,1.203164,0.613416,-1.121912,203.875,-283.57,-178.0975
1146,168667,1.215852,0.6980841,-1.034316,204.19,-273.4375,-184.135
1147,168765,1.260504,0.787632,-0.9394,209.195,-259.1575,-192.045
1148,168863,1.330776,0.8332601000000001,-0.8164239999999999,216.4575,-240.8525,-199.9725
1149,168961,1.405196,0.8010520000000001,-0.676124,220.85,-220.22,-206.92
1150,169059,1.41032,0.63318,-0.505324,217.105,-200.305,-208.4075
1151,169157,1.39202,0.42553599999999997,-0.35526399999999997,198.45,-181.4925,-200.6375
1152,169255,1.311744,0.307196,-0.208132,165.795,-162.5925,-186.76
1153,169353,1.3005200000000001,0.338428,-0.107116,130.6375,-142.555,-174.1425
1154,169452,1.380064,0.341844,-0.007808001,109.1475,-120.9075,-162.4525
1155,169550,1.4173959999999999,0.25961599999999996,0.09125599999999999,99.34751,-99.54,-149.0475
1156,169648,1.400072,0.193492,0.156404,89.425,-78.8375,-135.2225
1157,169746,1.39812,0.187392,0.198372,74.6375,-58.1,-119.7175
1158,169844,1.398852,0.23253200000000002,0.203252,55.7725,-37.9575,-102.4625
1159,169942,1.3607879999999999,0.27571999999999997,0.188612,34.7375,-19.0225,-84.8925
1160,170040,1.3022280000000002,0.305244,0.12980799999999998,12.3025,-1.75,-67.935
1161,170138,0.081984,-1.707512,-0.396012,-14.4375,9.9925,-51.1875
1162,170236,0.660752,-1.6143040000000002,-1.70312,-163.0825,1.3125,-51.87
1163,170334,-1.251476,-3.016084,-1.179252,-203.3325,-14.1925,-50.0675
1164,170432,-0.844972,0.434076,-0.28157600000000005,-292.53,3.0275,-112.875
1165,170530,1.89222,2.329956,-2.09718,-274.015,68.0575,-104.4925
1166,170628,1.638216,2.174284,-2.161108,-151.305,59.4475,-69.335
1167,170726,0.131272,0.265228,-0.9635560999999999,-28.35,23.94,-38.1675
1168,170824,0.33305999999999997,-0.198128,-0.9982040000000001,-4.4625,37.9575,-23.205
1169,170922,0.700036,0.136884,-1.1285,-13.9475,43.1375,-16.1525
1170,171020,0.55266,-0.149816,-0.9145120999999999,-2.9925,31.5875,-12.88
1171,171118,0.416996,-0.384056,-0.833992,0.8925,23.8175,-12.11
1172,171216,0.540216,-0.269864,-0.924516,-5.5475,21.945,-13.335
1173,171314,0.559248,-0.14493599999999998,-0.9886881,-11.655,16.1,-14.98
1174,171412,0.478728,-0.14884,-0.9274440999999999,-12.6875,9.1875,-15.1025
1175,171511,0.480436,-0.174948,-0.8964561,-12.8975,6.2825,-14.8225
1176,171609,0.472872,-0.16958,-0.903532,-11.725,4.7075,-13.3
1177,171707,0.44676400000000005,-0.165432,-0.8849879999999999,-10.8675,3.3775,-12.355
1178,171805,0.43724799999999997,-0.161772,-0.8786440999999999,-10.9375,3.15,-11.7775
1179,171903,0.4575,-0.125416,-0.9167081,-11.725,3.6925,-11.4275
1180,172001,0.44408000000000003,-0.145424,-0.8969440000000001,-11.375,3.0625,-11.2525
1181,172099,0.444812,-0.163968,-0.8801081000000001,-11.1475,2.905,-11.0775
1182,172197,0.45383999999999997,-0.166408,-0.8805960999999999,-12.005,3.045,-11.3225
1183,172295,0.43505200000000005,-0.181292,-0.8637601,-12.74,2.695,-11.5325
1184,172393,0.45164399999999993,-0.161772,-0.871568,-14.0,3.1325,-11.9875
1185,172491,0.437004,-0.153232,-0.8662001,-14.7175,3.29,-12.04
1186,172589,0.451888,-0.14347200000000002,-0.8862081,-15.5575,3.6225,-12.04
1187,172687,0.46018400000000004,-0.1464,-0.8740081000000001,-15.54,3.815,-11.8125
1188,172785,0.44725200000000004,-0.160308,-0.868396,-15.33,3.185,-11.55
1189,172883,0.46335600000000005,-0.1464,-0.8815719999999999,-15.9425,3.2725,-11.655
1190,172981,0.46921199999999996,-0.135664,-0.8869401,-15.6275,3.0275,-11.69
1191,173079,0.45335200000000003,-0.145912,-0.8701040000000001,-15.33,2.205,-11.7775
1192,173177,0.464088,-0.139812,-0.8762040000000001,-15.4,2.0475,-12.0225
1193,173276,0.4636,-0.135908,-0.8679081,-15.4525,1.925,-12.3025
1194,173374,0.461404,-0.139324,-0.86864,-15.3475,1.61,-12.6525
1195,173472,0.45993999999999996,-0.138836,-0.8754719999999999,-15.3825,1.575,-12.985
1196,173570,0.467016,-0.12468399999999999,-0.8718120999999999,-15.47,1.7325,-13.1425
1197,173668,0.4594521,-0.1281,-0.8666879999999999,-15.47,1.8725,-13.4225
1198,173766,0.46457600000000004,-0.113704,-0.8744960999999999,-15.5925,1.9075,-13.6325
1199,173864,0.4594521,-0.119804,-0.8703481,-14.91,2.0125,-13.7025
1200,173962,0.48312,-0.10760399999999999,-0.882548,-14.1575,2.1525,-13.825
1201,174060,0.461404,-0.12029200000000001,-0.8701040000000001,-13.545,2.1525,-13.3
1202,174158,0.47092,-0.105652,-0.889868,-13.79,2.8,-13.44
1203,174256,0.456524,-0.102724,-0.8752280000000001,-13.3525,3.255,-13.7375
1204,174354,0.46164799999999995,-0.12175599999999999,-0.8725440999999999,-12.95,4.2875,-13.4575
1205,174452,0.47823999999999994,-0.09418401,-0.8730319999999999,-12.5825,5.39,-13.545
1206,174550,0.473116,-0.10516400000000001,-0.869128,-11.97,5.775,-13.475
1207,174648,0.4743361,-0.12053599999999999,-0.8527800999999999,-11.3925,6.965,-13.5275
1208,174746,0.484828,-0.109556,-0.859368,-10.745,8.1375,-13.6325
1209,174844,0.505568,-0.08954801,-0.8569280999999999,-9.835,8.925,-13.6325
1210,174942,0.488976,-0.08784,-0.876692,-8.05,9.45,-13.0375
1211,175040,0.494832,-0.082228,-0.8781559999999999,-6.7725,9.94,-12.7225
1212,175139,0.5070319999999999,-0.0793,-0.874984,-5.705,10.465,-12.5825
1213,175237,0.49824799999999997,-0.07832401,-0.874252,-4.305,10.6225,-11.4275
1214,175335,0.504592,-0.03538,-0.8884040000000001,-2.4675,11.3925,-10.92
1215,175433,0.5063,-0.055388,-0.8796200000000001,0.56,12.565,-9.7125
1216,175531,0.404552,-0.08417999999999999,-0.924516,4.3925,14.84,-7.665
1217,175629,0.38503200000000004,-0.02562,-0.9530641,7.6125,24.325,-6.8075
1218,175727,0.46506400000000003,-0.06563601,-0.8840120000000001,11.165,38.185,-6.8775
1219,175825,0.461404,-0.054412,-0.9086559999999999,14.7875,46.5325,-6.4925
1220,175923,0.461892,-0.031964,-0.8957241,20.195,56.595,-7.805
1221,176021,0.460672,-0.09442801,-0.8847440999999999,25.27,67.9175,-11.1825
1222,176119,0.42138809999999993,-0.051972000000000004,-0.9262239999999999,29.9775,79.52,-15.1725
1223,176217,0.43163599999999996,-0.042456,-0.9252481,36.0325,93.1,-19.6175
1224,176315,0.422364,0.02562,-0.9757561,43.1375,109.0775,-22.8025
1225,176413,0.432612,0.05563200000000001,-1.0145520000000001,58.205,129.0275,-24.745
1226,176511,0.394548,0.02928,-1.059936,76.6325,152.67,-23.835
1227,176609,0.357948,-0.0061,-1.0626200000000001,91.4375,181.825,-19.18
1228,176707,0.346968,-0.017324000000000003,-1.082384,109.025,216.3525,-18.2
1229,176805,0.313784,-0.051484,-1.07726,132.37,257.8625,-22.4
1230,176903,0.258396,-0.21447600000000003,-1.061888,158.305,310.45,-28.8575
1231,177001,0.460916,-0.468724,-1.146556,171.0975,374.9375,-36.925
1232,177099,0.8596120999999999,-0.281088,-1.410808,163.905,430.3775,-33.8975
1233,177197,1.7111720000000001,-0.401868,-1.634068,170.73,459.8125,-32.8475
1234,177295,1.9117400000000002,0.052703999999999994,-1.8295119999999998,169.225,452.5325,-43.855
1235,177393,2.0252,0.413336,-1.395192,186.2525,404.4075,-18.865
1236,177492,1.584048,0.42285200000000006,-1.6047879999999999,281.9425,359.1875,2.59
1237,177590,1.243424,0.1586,-1.4252040000000001,339.6225,307.475,-12.5825
1238,177688,0.713212,0.463844,-1.63602,352.52,259.9625,-43.8725
1239,177786,-0.20837600000000003,0.5023960999999999,-1.1448479999999999,368.8125,192.5,-66.885
1240,177884,-0.49873599999999996,1.134356,-0.868396,389.8475,130.3925,-91.5775
1241,177982,2.11426,-0.133712,-2.167208,439.635,147.035,-188.09
1242,178080,1.5791680000000001,-1.001132,-2.120116,393.82,-11.4975,-241.08
1243,178178,0.647576,-1.21756,-1.50304,286.3525,-160.825,-229.215
1244,178276,-0.110776,-0.968192,-1.063596,170.7125,-233.5725,-223.195
1245,178374,-0.371856,-0.797392,-0.780556,112.4025,-244.965,-210.49
1246,178472,-0.238632,-0.675148,-0.7954399999999999,83.30001,-226.4325,-174.685
1247,178570,0.05977999999999999,-0.615124,-0.907436,79.0825,-207.9,-114.695
1248,178668,0.22423600000000002,-0.561932,-1.003084,83.86001,-203.35,-43.6275
1249,178766,0.250832,-0.4819,-1.0279719999999999,85.1725,-213.6925,18.935
1250,178864,0.259128,-0.278404,-1.037976,74.0775,-232.3475,60.06
1251,178962,0.27328,0.04148,-1.054568,54.88,-253.0325,78.225
1252,179060,0.313296,0.382348,-1.078724,42.7,-272.1775,77.54251
1253,179158,0.377956,0.62708,-1.075552,46.34,-287.735,65.31
1254,179256,0.461404,0.778116,-1.128256,60.69,-299.74,47.53
1255,179354,0.574864,0.832528,-1.153144,80.0275,-308.5075,26.425
1256,179452,0.6810039999999999,0.7766521,-1.1448479999999999,96.93251,-315.315,3.4825
1257,179550,0.837408,0.7473721,-1.208532,105.8925,-322.1575,-20.755
1258,179648,1.037976,0.650748,-1.267824,116.7075,-331.1175,-42.455
1259,179746,1.159732,0.42212,-1.225856,128.2925,-341.0925,-56.595
1260,179844,1.22976,0.199104,-1.158756,132.1425,-348.985,-62.3525
1261,179942,1.2749,0.030256,-1.08336,130.41,-351.9075,-59.535
1262,180040,1.301008,-0.0671,-1.021872,125.755,-348.74,-48.475
1263,180138,1.343464,-0.14396,-1.0243120000000001,123.62,-339.4475,-32.0425
1264,180237,1.4422840000000001,-0.258884,-1.0882399999999999,124.4425,-325.1675,-11.62
1265,180335,1.6028360000000001,-0.349896,-1.198772,123.0425,-309.715,11.585
1266,180433,1.7934,-0.152988,-1.293444,117.845,-296.3975,33.67
1267,180531,2.0047040000000003,0.09345201,-1.279292,119.42,-285.2675,55.0725
1268,180629,2.203564,0.22935999999999998,-1.08702,127.6625,-276.5,70.735
1269,180727,2.351916,0.38966799999999996,-0.681492,131.5125,-267.085,73.99
1270,180825,2.321416,0.378932,-0.19397999999999999,133.735,-250.425,69.825
1271,180923,2.25578,0.288408,0.29597199999999996,128.345,-220.3075,70.07
1272,181021,2.3250759999999997,0.085888,0.832528,107.135,-180.88,71.2425
1273,181119,2.385832,0.08466801,1.218048,68.2675,-139.3175,55.3525
1274,181217,2.41926,0.402844,1.281,32.3575,-96.39,25.375
1275,181315,2.338252,0.627812,1.238788,32.2525,-51.1,7.9625
1276,181413,2.155252,0.48922,1.141676,56.35,-4.0425,9.3975
1277,181511,1.6328479999999999,-0.40528400000000003,1.355176,65.45,41.195,20.0375
1278,181609,0.44334799999999996,-0.037088,1.1873040000000001,-44.8175,118.8425,35.8225
1279,181707,-0.33818400000000004,-0.485804,-1.2080440000000001,-130.585,158.76,14.8925
1280,181805,0.337208,-0.948184,-1.8473240000000002,-209.65,169.2425,-75.6
1281,181903,1.4186159999999999,3.09148,-1.3176,-366.38,169.0325,-156.415
1282,182001,1.641144,1.5074319999999999,-2.277252,-184.3625,178.5525,-124.32
1283,182099,2.570296,0.046604,-2.4051080000000002,-79.765,157.7975,-96.11
1284,182197,0.8176439999999999,-0.296704,-1.105564,-70.42,107.0475,-59.2025
1285,182295,0.270596,-0.119316,-0.966728,-57.7675,80.99,-45.815
1286,182393,0.9503799999999999,-0.031232,-1.287344,-51.1,89.145,-40.985
1287,182491,1.031388,-0.270352,-1.210972,-41.6675,68.5125,-37.275
1288,182590,0.6021920000000001,-0.35477600000000004,-0.9818561,-30.52,43.75,-27.895
1289,182688,0.5070319999999999,-0.111752,-0.9867360999999999,-34.51,32.585,-24.255
1290,182786,0.6258600000000001,-0.09394001,-1.027728,-33.6525,28.105,-22.6625
1291,182884,0.48995200000000005,-0.06661201,-0.959408,-28.525,18.725,-19.7925
1292,182982,0.477996,-0.10931199999999999,-0.9318360000000001,-24.745,15.2425,-17.7975
1293,183080,0.46311199999999997,-0.143716,-0.895236,-21.56,14.4725,-16.345
1294,183178,0.438468,-0.09735601,-0.9086559999999999,-21.245,13.2125,-15.96
1295,183276,0.5455840000000001,-0.152256,-0.9235399999999999,-21.035,13.545,-16.0475
1296,183374,0.447984,-0.133712,-0.8845,-20.5275,11.4975,-15.6625
1297,183472,0.480192,-0.11955999999999999,-0.892064,-21.1575,10.7275,-15.5575
1298,183570,0.491904,-0.084912,-0.9174399999999999,-20.5975,10.5175,-15.3475
1299,183668,0.49580799999999997,-0.075396,-0.9118280000000001,-18.41,9.485,-14.49
1300,183766,0.49751599999999996,-0.11224,-0.8876719999999999,-15.155,8.75,-13.44
1301,183864,0.49117200000000005,-0.1098,-0.885964,-13.125,7.6125,-13.09
1302,183962,0.482388,-0.105652,-0.879376,-11.725,7.0,-13.1425
1303,184060,0.48433999999999994,-0.10126,-0.8796200000000001,-10.535,6.8425,-13.09
1304,184158,0.47775200000000007,-0.1037,-0.8735200000000001,-9.52,6.7025,-13.02
1305,184256,0.483364,-0.10614000000000001,-0.868152,-9.0125,6.6325,-13.09
1306,184354,0.477264,-0.10687200000000001,-0.862296,-9.1175,6.4925,-13.335
1307,184452,0.49580799999999997,-0.10833599999999999,-0.8574161,-9.5025,6.2825,-13.7725
1308,184550,0.495076,-0.08954801,-0.8642481,-10.1675,6.0025,-13.9825
1309,184648,0.500688,-0.08417999999999999,-0.8679081,-9.975,5.5125,-13.86
1310,184747,0.5023960999999999,-0.089304,-0.858392,-9.1875,5.04,-13.195
1311,184845,0.5063,-0.09272000000000001,-0.8491200000000001,-8.855,4.41,-13.02
1312,184943,0.5084960000000001,-0.06929600000000001,-0.8554641,-8.645,3.7275,-12.8625
1313,185041,0.5009319999999999,-0.08784,-0.8491200000000001,-7.63,3.2725,-12.3725
1314,185139,0.504592,-0.07808001,-0.8493641,-7.2625,3.0275,-12.2325
1315,185237,0.509716,-0.07978801,-0.8488761,-7.105,2.7125,-12.075
1316,185335,0.5011760000000001,-0.079056,-0.8554641,-6.44,2.3975,-11.7775
1317,185433,0.496296,-0.055388,-0.8664440000000001,-5.67,2.485,-11.69
1318,185531,0.499712,-0.063196,-0.8559521000000001,-4.6725,2.975,-11.6725
1319,185629,0.499468,-0.07442,-0.8581479999999999,-4.13,3.64,-11.6025
1320,185727,0.498004,-0.07027201,-0.8571719999999999,-3.255,4.515,-11.41
1321,185825,0.48556000000000005,-0.067588,-0.8662001,-2.1175,5.565,-10.9375
1322,185923,0.485804,-0.06661201,-0.8647360000000001,-0.56,7.5075,-10.3775
1323,186021,0.4743361,-0.064172,-0.87474,0.7525,10.08,-9.7125
1324,186119,0.395036,-0.091988,-0.891576,1.6625,13.825,-9.2225
1325,186217,0.467504,-0.07417601,-0.877912,1.2425,22.225,-9.6075
1326,186315,0.46457600000000004,-0.05587601,-0.8954801,2.0125,29.3825,-10.325
1327,186413,0.474092,-0.027816000000000004,-0.8964561,3.675,36.855,-9.9925
1328,186511,0.44383599999999995,-0.051972000000000004,-0.8998719999999999,7.8225,46.2525,-9.275
1329,186609,0.45286400000000004,-0.045384,-0.9093880999999999,11.025,57.575,-10.3425
1330,186707,0.45579200000000003,-0.038064,-0.9120720999999999,14.42,70.0,-11.4275
1331,186806,0.47482399999999997,-0.027083999999999997,-0.9145120999999999,17.4825,82.67,-11.795
1332,186904,0.4575,-0.02074,-0.927932,20.8425,95.69,-11.2
1333,187002,0.47946000000000005,-0.0183,-0.936716,26.5825,110.18,-11.165
1334,187100,0.47506800000000005,0.014396,-0.9398880999999999,33.88,125.685,-9.625
1335,187198,0.477996,-0.012444,-0.949892,42.7875,142.8525,-7.5425
1336,187296,0.48214399999999996,-0.002684,-0.9720960999999999,51.695,163.2225,-5.1625
1337,187394,0.37551599999999996,-0.09638,-0.990884,59.9725,189.21,-3.4475
1338,187492,0.380396,-0.223992,-1.036268,61.39,221.4975,-5.9675
1339,187590,0.289628,-0.3477,-1.03944,53.2875,258.93,-15.5575
1340,187688,0.26913200000000004,-0.388448,-1.083116,42.315,303.8,-32.5675
1341,187786,0.363072,-0.37502800000000003,-1.0887280000000001,31.01,358.015,-53.4275
1342,187884,0.8164239999999999,-0.41406800000000005,-1.110932,12.775,419.475,-71.8375
1343,187982,2.513688,-0.330864,-1.3207719999999998,3.325,483.1575,-83.895
1344,188080,1.2214639999999999,-0.30402399999999996,-1.4720520000000001,15.2425,531.4575,-103.2675
1345,188178,1.7033639999999999,-0.023668,-1.748748,-14.035,529.7425,-102.97
1346,188276,2.039108,0.7078439999999999,-1.8282919999999998,-32.27,441.5425,-56.1925
1347,188374,1.9942119999999999,0.079056,-1.8641599999999998,43.54,408.415,-50.365
1348,188473,1.1714440000000002,0.339892,-2.26432,93.765,359.625,-43.05
1349,188571,-0.052216,0.20178800000000002,-2.26798,161.525,295.785,-40.88
1350,188669,-0.708576,0.6009720000000001,-1.0972680000000001,201.6175,189.035,-39.3225
1351,188767,2.476844,-0.612928,-2.738656,239.6975,208.39,-118.6675
1352,188865,1.489376,-1.198528,-2.990952,213.08,26.3725,-164.08
1353,188963,0.44090799999999997,-1.1895,-1.821704,140.8575,-147.105,-151.9525
1354,189061,-0.6314721,-0.8581479999999999,-1.16144,61.81,-221.305,-145.18
1355,189159,-0.863516,-0.709796,-0.7483479999999999,34.58,-221.27,-142.3625
1356,189257,-0.343064,-0.5104479999999999,-0.9479401,27.8425,-189.7,-128.3975
1357,189355,0.2074,-0.571692,-1.149972,53.2875,-173.8625,-97.45749
1358,189453,0.4697,-0.7381001,-1.1834,82.6525,-190.295,-54.355
1359,189551,0.472872,-0.8664440000000001,-1.063596,90.59751,-226.275,-10.395
1360,189649,0.39528,-0.8422879999999999,-0.9113399999999999,73.325,-263.1125,22.6975
1361,189747,0.373808,-0.61732,-0.8254520000000001,41.6675,-289.2575,43.2775
1362,189845,0.390888,-0.298656,-0.8378960999999999,16.065,-305.1825,56.56
1363,189943,0.477508,-0.06270801,-0.8849879999999999,11.515,-316.4,65.485
1364,190041,0.6273241,0.077592,-0.955992,23.9575,-325.885,71.295
1365,190139,0.781044,0.09979600000000001,-1.050908,43.2775,-334.2675,74.41
1366,190237,0.8842561,0.07002799999999999,-1.0706719999999998,57.8375,-343.4025,75.4775
1367,190335,1.0138200000000002,0.058316,-1.08702,65.905,-352.2925,75.4775
1368,190433,1.105808,0.109556,-1.16266,65.975,-359.2225,72.9225
1369,190532,1.2383,0.202276,-1.281488,67.5675,-363.86,66.5875
1370,190630,1.377868,0.14005599999999999,-1.328092,77.7525,-367.3425,61.565
1371,190728,1.499136,0.001464,-1.3449280000000001,88.32251,-368.5325,61.4775
1372,190826,1.571116,-0.15372,-1.33956,93.765,-367.185,66.5525
1373,190924,1.645536,-0.298168,-1.365668,93.1875,-361.4975,77.07
1374,191022,1.7633880000000002,-0.442616,-1.4374040000000001,89.565,-351.225,91.0175
1375,191120,1.971032,-0.509472,-1.539884,84.665,-337.4875,107.03
1376,191218,2.28872,-0.47946000000000005,-1.643096,82.355,-324.38,122.7975
1377,191316,2.486116,0.076616,-1.54574,89.04,-315.595,138.25
1378,191414,2.405352,0.7600600000000001,-1.215852,116.1475,-306.1625,158.6375
1379,191512,2.30824,0.749568,-0.680028,180.11,-286.965,178.7625
1380,191610,2.4439040000000003,0.671976,-0.049776,213.745,-253.4875,192.675
1381,191708,2.71084,0.44408000000000003,0.8376520000000001,196.8575,-214.2875,203.77
1382,191806,2.961672,0.008052001,1.706292,126.315,-170.3625,192.7275
1383,191904,2.9431279999999997,0.597312,1.993236,2.59,-124.4425,132.6675
1384,192002,2.78892,1.560868,1.7509439999999998,-69.5625,-78.55751,46.515
1385,192100,2.4746479999999997,1.491572,1.3827479999999999,-15.435,-23.4325,-15.435
1386,192198,2.01666,0.043676,1.49206,76.1775,45.2025,-41.8775
1387,192296,2.495388,-1.1685159999999999,2.017148,57.19,137.3225,-25.025
1388,192394,-0.135908,-0.02196,0.264252,-62.2825,186.6025,-0.21
1389,192492,-1.3322399999999999,-1.271484,-1.449116,-81.06,230.44,2.1175
1390,192590,1.4598520000000001,0.9464761,-1.1951120000000002,-205.17,294.455,-62.335
1391,192689,2.5800560000000003,2.345816,-2.6010400000000002,-246.365,299.7925,-112.0875
1392,192787,3.220068,0.06832001,-3.019012,-84.9275,248.465,-101.3775
1393,192885,1.494988,-0.4453,-1.3205280000000001,-113.1025,156.2575,-87.6225
1394,192983,0.40967600000000004,-0.142984,-1.24318,-101.43,95.655,-64.295
1395,193081,1.203408,-0.02196,-1.5006,-86.415,104.5275,-54.425
1396,193179,0.886452,-0.29768,-1.091656,-67.1125,72.2575,-47.32
1397,193277,0.59536,-0.296216,-1.0582280000000002,-64.34751,45.0275,-40.88
1398,193375,0.716384,-0.02928,-1.194624,-66.6225,36.6275,-37.9575
1399,193473,0.6695361,0.09613601,-1.114592,-55.685,24.325,-32.9
1400,193571,0.487512,-0.044652,-0.9803921,-38.675,11.9525,-24.64
1401,193669,0.586088,0.034404000000000004,-1.001132,-33.355,11.795,-20.8075
1402,193767,0.49751599999999996,-0.063196,-0.944524,-24.185,6.545,-16.2925
1403,193865,0.471164,-0.1098,-0.90646,-17.815,4.2525,-13.44
1404,193963,0.446276,-0.094916,-0.9042641,-16.5375,3.5,-13.195
1405,194061,0.4553041,-0.090768,-0.903532,-14.875,3.99,-13.16
1406,194159,0.47677600000000003,-0.071492,-0.8996280999999999,-12.9325,4.76,-12.53
1407,194258,0.464088,-0.07686,-0.8967,-10.22,4.3575,-11.3225
1408,194355,0.45628,-0.104676,-0.8884040000000001,-8.05,4.585,-10.395
1409,194453,0.46481999999999996,-0.108824,-0.8801081000000001,-7.14,5.2675,-10.4125
1410,194551,0.466772,-0.110776,-0.874252,-6.9475,5.425,-10.7975
1411,194649,0.46774799999999994,-0.10809200000000001,-0.8703481,-7.0,4.83,-11.1125
1412,194747,0.47336000000000006,-0.098088,-0.8752280000000001,-7.7875,4.1825,-11.9
1413,194846,0.464088,-0.09711201,-0.8759601,-8.1375,3.7275,-12.1275
1414,194944,0.471164,-0.10638399999999999,-0.8632719999999999,-8.0675,3.7975,-12.2675
1415,195042,0.47043199999999996,-0.09442801,-0.869616,-8.1025,3.4825,-12.355
1416,195140,0.480436,-0.0854,-0.8669319999999999,-7.7875,3.1675,-12.39
1417,195238,0.476288,-0.082228,-0.8752280000000001,-7.1575,2.5375,-12.04
1418,195336,0.485072,-0.077348,-0.8723001,-6.2825,1.9425,-12.075
1419,195434,0.485804,-0.064416,-0.874984,-5.8625,1.5925,-12.1625
1420,195532,0.48263199999999995,-0.061488,-0.8698601,-5.18,1.2775,-11.6025
1421,195630,0.48068,-0.068564,-0.86864,-4.4625,1.12,-11.2875
1422,195728,0.484584,-0.07222401,-0.8669319999999999,-4.0775,1.1025,-10.7975
1423,195826,0.4819,-0.07637200000000001,-0.859368,-3.85,0.8225,-10.605
1424,195924,0.47384799999999994,-0.06636801,-0.8740081000000001,-3.71,0.8400001,-10.5525
1425,196022,0.47653199999999996,-0.069784,-0.869128,-3.325,1.2075,-10.5175
1426,196120,0.47384799999999994,-0.07344400000000001,-0.8693719999999999,-3.255,1.8025,-10.36
1427,196218,0.472872,-0.07637200000000001,-0.8674200000000001,-3.115,2.5375,-10.255
1428,196316,0.480192,-0.071492,-0.8637601,-3.045,3.045,-10.325
1429,196414,0.47043199999999996,-0.07612801,-0.869128,-2.3975,3.78,-10.15
1430,196512,0.46628400000000003,-0.07076001,-0.8740081000000001,-1.505,5.075,-10.1675
1431,196610,0.457744,-0.060512,-0.8801081000000001,-0.525,6.8075,-10.045
1432,196708,0.449204,-0.06539201,-0.8903561,0.6825,9.6425,-9.765
1433,196806,0.425292,-0.049044,-0.90402,1.295,14.49,-9.485
1434,196904,0.47482399999999997,-0.037088,-0.889136,2.1,21.35,-9.555
1435,197002,0.45896400000000004,-0.05563200000000001,-0.8903561,3.92,26.18,-9.3625
1436,197101,0.457988,-0.091744,-0.879376,5.4075,32.0075,-9.8
1437,197199,0.451888,-0.06880801,-0.904508,5.67,39.025,-11.1825
1438,197297,0.442616,-0.046848,-0.9128040000000001,7.595,48.3175,-12.32
1439,197395,0.443592,-0.05124001,-0.9145120999999999,10.465,59.43,-13.37
1440,197493,0.42773199999999995,-0.039528,-0.9315921,12.6175,71.75,-13.93
1441,197591,0.43676000000000004,-0.03904,-0.942816,15.435,85.225,-14.2275
1442,197689,0.4392,-0.059048,-0.9433041,19.215,100.065,-14.2275
1443,197787,0.43212399999999995,-0.02928,-0.951356,23.38,116.165,-14.245
1444,197885,0.429196,-0.03782,-0.972828,28.7175,133.28,-15.0325
1445,197983,0.42626800000000004,-0.067832,-0.9901521000000001,34.195,153.3525,-15.645
1446,198081,0.38552,-0.12932000000000002,-1.009916,38.6575,178.2375,-18.27
1447,198179,0.3599,-0.229848,-1.001132,37.975,207.2875,-25.7075
1448,198277,0.327692,-0.289628,-1.041148,29.855,239.26,-37.275
1449,198375,0.313296,-0.353312,-1.062376,19.1275,276.675,-53.725
1450,198473,0.30841599999999997,-0.41504399999999997,-1.043588,6.3875,321.8075,-74.025
1451,198571,0.4758,-0.39161999999999997,-0.8554641,-5.0575,374.605,-99.40001
1452,198669,1.06628,-0.360632,-1.280756,-30.87,431.2875,-119.525
1453,198767,2.041548,-0.18056,-1.4520440000000001,-42.595,482.2475,-126.84
1454,198866,1.196332,-0.42748800000000003,-1.309548,-32.7075,526.925,-142.9575
1455,198964,2.1286560000000003,-0.199348,-1.20048,-68.0225,511.0525,-142.7475
1456,199062,2.1228,0.017324000000000003,-1.40788,-75.0925,454.2125,-121.73
1457,199160,2.030812,-0.035136,-1.8756279999999999,-37.7125,416.85,-119.84
1458,199258,1.107272,-0.063196,-2.204784,-2.6775,361.9,-102.935
1459,199356,-0.749324,-0.271328,-2.154764,48.09,286.3525,-79.94
1460,199454,1.655052,-0.6497721,-1.673352,71.085,195.4925,-82.4075
1461,199552,2.275788,-0.647332,-2.943616,93.1875,163.38,-123.795
1462,199650,1.314184,-1.386652,-2.572248,108.85,-37.73,-92.3125
1463,199748,0.165676,-1.116788,-1.40666,59.6575,-177.345,-64.3125
1464,199846,-0.8720559999999999,-0.955016,-0.771528,21.5775,-220.2725,-60.27
1465,199944,-0.790804,-0.726388,-0.595116,2.8175,-203.4025,-64.925
1466,200042,-0.1098,-0.47555600000000003,-0.9181720999999999,2.2225,-169.715,-60.865
1467,200140,0.38503200000000004,-0.40894400000000003,-1.123864,36.9425,-165.1475,-40.355
1468,200238,0.543388,-0.525088,-1.146068,78.54,-191.0475,-6.4575
1469,200336,0.534848,-0.670268,-1.003816,101.08,-230.72,27.8075
1470,200434,0.477996,-0.683932,-0.8371639999999999,94.22,-268.3275,50.68
1471,200532,0.45725600000000005,-0.5160600000000001,-0.7224841,69.44,-294.665,64.4525
1472,200630,0.46603999999999995,-0.27816,-0.701256,46.6025,-309.75,72.5025
1473,200728,0.523868,-0.079544,-0.754692,38.0625,-318.255,76.8425
1474,200826,0.657092,0.044896,-0.85888,45.4825,-323.96,80.8675
1475,200924,0.8086161000000001,0.10321199999999998,-0.9472079999999999,62.825,-328.23,86.22251
1476,201022,0.9467200000000001,0.132248,-1.0208959999999998,82.5125,-332.605,93.17
1477,201121,1.058716,0.10809200000000001,-1.077016,99.40001,-336.2975,100.415
1478,201219,1.1751040000000001,0.025376,-1.116788,109.7075,-338.835,105.35
1479,201317,1.329556,-0.012688,-1.16754,111.23,-341.1275,106.155
1480,201415,1.471808,-0.045384,-1.218292,107.7825,-343.8575,105.2275
1481,201513,1.557696,-0.107116,-1.25904,102.2175,-345.1,105.28
1482,201611,1.6406560000000001,-0.174704,-1.33346,95.7075,-343.945,108.15
1483,201709,1.7821759999999998,-0.312564,-1.397144,91.0875,-341.6,115.185
1484,201807,1.915156,-0.473116,-1.395924,86.32751,-338.835,125.8075
1485,201905,2.013488,-0.468236,-1.357616,78.5225,-332.2725,138.985
1486,202003,2.0986439999999997,-0.22277199999999997,-1.3054,72.87,-318.1675,153.09
1487,202101,2.211616,0.425292,-1.2373239999999999,80.3075,-297.8325,166.2675
1488,202199,2.2945759999999997,0.461892,-1.015772,117.985,-276.5875,176.61
1489,202297,2.309704,0.393084,-0.6646561,152.74,-253.8375,181.1775
1490,202395,2.3260520000000002,0.438956,-0.10931199999999999,150.9725,-230.4225,188.3175
1491,202493,2.332884,0.5392399999999999,0.628544,123.795,-201.2325,192.675
1492,202591,2.464644,0.50142,1.298324,77.56,-160.86,178.5875
1493,202689,2.51076,0.7549359999999999,1.5103600000000001,16.415,-111.1775,131.9675
1494,202787,2.451712,1.205848,1.299788,-20.6675,-60.9175,67.8825
1495,202885,2.331664,1.1716879999999998,0.913292,4.375,-12.845,15.3475
1496,202983,2.262856,0.6649,0.617564,54.915,28.7875,-17.0625
1497,203082,1.97518,0.06563601,0.35136,79.1,55.125,-33.635
1498,203180,1.186572,-1.259772,0.6917399999999999,40.355,81.81251,-28.2625
1499,203278,-0.114192,0.24107199999999998,0.10126,-106.925,142.6075,4.1125
1500,203376,-1.093608,-0.304512,-1.264896,-96.35501,171.0275,0.665
1501,203474,0.025376,-0.471896,-0.760792,-141.82,224.07,-36.5575
1502,203572,2.229428,2.2387,-2.0464279999999997,-261.45,257.81,-111.2825
1503,203670,2.3201959999999997,1.05164,-2.614704,-134.2775,223.4225,-102.0775
1504,203768,1.735328,0.017568,-1.916864,-87.74501,157.6225,-95.7075
1505,203866,1.224148,-0.582428,-1.320284,-83.5625,122.5175,-68.65250999999999
1506,203964,0.464088,-0.349408,-0.965996,-71.8025,85.1025,-51.6075
1507,204062,0.6688041,0.024888,-1.118984,-63.1225,87.6575,-45.115
1508,204160,0.984296,-0.195932,-1.2078,-50.155,77.385,-43.05
1509,204258,0.8427761,-0.434564,-1.0972680000000001,-42.805,54.1625,-36.19
1510,204356,0.49654,-0.032695999999999996,-1.0462719999999999,-45.535,35.6825,-29.7675
1511,204454,0.60146,0.059536,-1.097756,-44.1175,29.5575,-26.985
1512,204552,0.598532,0.017812,-1.042612,-33.0925,22.085,-21.98
1513,204650,0.48214399999999996,-0.09223200000000001,-0.936472,-22.4525,15.1375,-16.0475
1514,204748,0.48678,-0.150792,-0.897432,-18.095,12.74,-13.65
1515,204846,0.43627200000000005,-0.118096,-0.9057280999999999,-18.27,11.515,-13.195
1516,204944,0.502884,-0.162992,-0.908168,-18.725,11.0425,-13.2825
1517,205042,0.450912,-0.135664,-0.889136,-19.635,9.38,-13.7025
1518,205141,0.485804,-0.100284,-0.9084121,-20.475,8.47,-13.65
1519,205239,0.510936,-0.06466001,-0.9225639999999999,-19.1975,8.0675,-12.8275
1520,205337,0.5009319999999999,-0.059536,-0.9206120000000001,-15.2425,5.9675,-11.2175
1521,205435,0.486048,-0.11345999999999999,-0.8967,-10.5175,4.2525,-9.6075
1522,205533,0.47092,-0.13785999999999998,-0.8815719999999999,-8.015,3.4125,-9.1
1523,205631,0.465552,-0.138104,-0.8769360999999999,-7.455,3.5,-9.3275
1524,205729,0.46311199999999997,-0.133956,-0.8752280000000001,-7.4025,3.4825,-10.01
1525,205827,0.46042799999999995,-0.130296,-0.8720559999999999,-7.2975,3.465,-10.675
1526,205925,0.46506400000000003,-0.119072,-0.8723001,-7.3325,3.7275,-11.2
1527,206023,0.470188,-0.115168,-0.8713241,-7.5075,3.7275,-11.48
1528,206121,0.471164,-0.11736400000000001,-0.8679081,-7.5075,3.815,-11.7775
1529,206219,0.4758,-0.11248399999999999,-0.8669319999999999,-7.7,3.71,-12.2325
1530,206317,0.477264,-0.104432,-0.8657120999999999,-7.805,3.36,-12.425
1531,206415,0.48092399999999996,-0.099552,-0.868884,-7.42,3.045,-12.3025
1532,206513,0.48995200000000005,-0.09028,-0.8701040000000001,-7.35,2.6425,-12.2325
1533,206611,0.485804,-0.091988,-0.862296,-6.9825,2.135,-11.9
1534,206709,0.486048,-0.094916,-0.86498,-6.5275,1.8375,-11.305
1535,206807,0.4819,-0.09223200000000001,-0.8664440000000001,-6.4575,1.8025,-11.1125
1536,206905,0.48263199999999995,-0.089304,-0.865468,-6.23,1.8025,-11.165
1537,207003,0.48433999999999994,-0.088328,-0.8652241,-5.9325,1.785,-10.955
1538,207101,0.48531599999999997,-0.094672,-0.861808,-5.8625,1.855,-10.78
1539,207200,0.487756,-0.094916,-0.8613200000000001,-6.1775,1.9075,-10.9725
1540,207298,0.488976,-0.09589201,-0.8632719999999999,-6.4225,1.9775,-11.06
1541,207396,0.49263599999999996,-0.087108,-0.856684,-6.58,2.03,-11.41
1542,207494,0.48556000000000005,-0.086864,-0.861808,-6.895,2.1875,-11.445
1543,207592,0.487756,-0.086864,-0.8574161,-6.93,2.4675,-11.4275
1544,207690,0.48068,-0.090768,-0.8637601,-6.9825,2.835,-11.6375
1545,207788,0.484584,-0.080764,-0.8642481,-7.14,3.92,-11.7425
1546,207886,0.478972,-0.067832,-0.8698601,-6.58,5.0575,-11.76
1547,207984,0.4743361,-0.057584,-0.8788879999999999,-5.1275,6.685,-11.34
1548,208082,0.462136,-0.071004,-0.8786440999999999,-3.08,8.96,-10.4825
1549,208180,0.456524,-0.089304,-0.8788879999999999,-1.085,12.4425,-10.01
1550,208278,0.366976,-0.102724,-0.893284,-0.8575,16.6425,-10.255
1551,208376,0.483608,-0.05977999999999999,-0.8784,-0.7175,24.6925,-10.9725
1552,208474,0.473116,-0.04514,-0.8818159999999999,0.7875,30.415,-10.57
1553,208572,0.504836,-0.014152000000000001,-0.887184,2.8875,36.26,-9.9925
1554,208671,0.475312,-0.053436000000000004,-0.8827921000000001,5.985,42.875,-9.66
1555,208769,0.458232,-0.057339999999999995,-0.903532,8.9425,51.485,-9.485
1556,208867,0.446276,-0.095648,-0.9154880999999999,12.7925,62.79,-10.9025
1557,208965,0.45286400000000004,-0.09516001,-0.93086,15.3825,75.9675,-12.88
1558,209063,0.44505600000000006,-0.062220000000000004,-0.9503799999999999,17.6575,90.02,-13.685
1559,209161,0.4392,-0.025131999999999998,-0.98088,21.3325,106.8725,-13.545
1560,209259,0.4209,-0.0051240009999999996,-1.004304,27.685,126.3675,-12.5475
1561,209357,0.393816,-0.06661201,-1.01748,36.925,149.4675,-12.25
1562,209455,0.379176,-0.08662001,-1.0323639999999998,43.4875,176.5575,-12.6875
1563,209553,0.303048,-0.170312,-1.091412,48.265,208.565,-16.2925
1564,209651,0.28548,-0.34038,-1.030168,45.3075,243.95,-28.595
1565,209749,0.317932,-0.393084,-1.0911680000000001,30.3625,281.8725,-46.0075
1566,209847,0.261812,-0.36282800000000004,-1.067988,14.5075,326.9,-66.7625
1567,209945,0.58316,-0.36282800000000004,-1.061644,1.61,384.0025,-85.96
1568,210043,1.3054,-0.34428400000000003,-1.4356959999999999,-14.245,440.755,-99.41751
1569,210141,1.359812,-0.267912,-1.314916,-27.23,469.8225,-101.8675
1570,210239,1.4691239999999999,-0.269864,-1.127768,-36.785,478.24,-107.1525
1571,210337,1.880264,0.037332,-1.360544,-56.035,467.4775,-108.5875
1572,210435,1.956392,0.07881200000000001,-1.446188,-48.0725,425.4075,-99.75
1573,210533,1.538664,0.155672,-1.784616,-12.88,378.7,-86.9575
1574,210631,0.738588,0.184952,-1.891244,41.8775,330.855,-67.8825
1575,210729,-0.8818159999999999,0.1891,-1.6982400000000002,98.0875,262.7625,-51.94
1576,210828,1.131428,-0.30134,-1.3773799999999998,139.8425,204.9425,-59.955
1577,210926,2.027152,-0.643428,-2.809904,155.75,162.4,-113.155
1578,211024,1.386408,-1.3603,-2.48758,136.1325,-22.995,-106.4875
1579,211122,0.34867600000000004,-1.1651,-1.521096,49.175,-157.43,-92.96
1580,211220,-0.6097560000000001,-0.9540401,-0.8769360999999999,-16.9925,-215.2675,-92.90751
1581,211318,-0.747128,-0.6832,-0.667828,-51.38,-217.595,-101.115
1582,211416,-0.242292,-0.49727200000000005,-0.8586360000000001,-51.03,-194.0225,-94.46500999999999
1583,211514,0.31476,-0.534848,-1.040416,-15.1725,-182.2625,-67.515
1584,211612,0.546804,-0.72224,-1.042124,27.5975,-197.9775,-27.195
1585,211710,0.5363121,-0.9289081,-0.9333,51.1525,-228.6725,15.2425
1586,211808,0.5009319999999999,-1.000156,-0.7861680999999999,46.27,-259.735,48.7375
1587,211906,0.5185,-0.8544879999999999,-0.7088201,19.4775,-282.94,72.5375
1588,212004,0.5443640000000001,-0.6036560999999999,-0.704916,-8.4525,-298.34,89.4775
1589,212102,0.6082920999999999,-0.34281999999999996,-0.768112,-22.2775,-309.4175,100.24
1590,212200,0.735172,-0.106628,-0.844972,-19.425,-318.2375,106.225
1591,212298,0.823256,0.000488,-0.887916,-5.6875,-325.4125,107.1875
1592,212396,0.925736,0.040260000000000004,-0.9496479999999999,12.005,-331.0125,100.555
1593,212494,1.062132,0.09052401,-1.0438319999999999,29.9775,-335.615,88.0775
1594,212592,1.198284,0.05977999999999999,-1.109712,48.965,-340.1825,75.1975
1595,212690,1.335412,0.006832001,-1.162416,68.145,-344.8025,63.5075
1596,212788,1.453264,-0.09735601,-1.186328,87.2375,-348.0225,56.77
1597,212886,1.5523280000000002,-0.244,-1.208532,102.0425,-348.705,56.2625
1598,212984,1.647244,-0.374052,-1.243424,110.6875,-346.64,60.76
1599,213082,1.7387439999999998,-0.472384,-1.274656,113.645,-342.1425,70.3675
1600,213181,1.845616,-0.576816,-1.31272,115.15,-335.86,82.5475
1601,213279,1.978596,-0.6368401,-1.306132,117.215,-326.305,94.8325
1602,213377,2.1301200000000002,-0.58682,-1.264408,120.2075,-312.095,109.4275
1603,213475,2.2957959999999997,-0.28181999999999996,-1.102392,126.63,-293.9475,125.755
1604,213573,2.30824,0.430172,-0.8396040000000001,143.1325,-271.6175,141.855
1605,213671,2.1313400000000002,0.7088201,-0.376736,192.08,-244.09,156.7825
1606,213769,1.999336,0.885964,0.198128,234.85,-205.03,174.51
1607,213867,2.261392,0.47043199999999996,0.865956,239.6275,-157.15,194.8975
1608,213965,2.598112,-0.123464,1.419592,173.11,-106.1375,190.4875
1609,214063,2.578592,0.302072,1.494988,34.6675,-63.07,143.7625
1610,214161,2.43756,1.161684,1.071892,-73.465,-31.605,78.54
1611,214259,2.0984,1.441552,0.6893,-71.9775,2.555,28.35
1612,214357,1.957368,0.9440360999999999,0.450912,-3.3425,43.12,-3.605
1613,214455,1.816336,0.23058,0.30792800000000004,51.7125,75.74,-21.28
1614,214553,1.658712,-0.14078800000000002,0.13078399999999998,54.495,93.9225,-26.8625
1615,214651,-0.082228,-2.0413040000000002,0.209596,19.46,102.095,-10.885
1616,214749,-0.42700000000000005,-0.2257,-0.8235001000000001,-134.9075,137.515,24.815
1617,214847,-1.731668,-1.086288,-0.9018241,-135.45,172.655,7.0875
1618,214945,0.7373681,1.7021439999999999,-0.71126,-277.83,213.1325,-93.975
1619,215043,2.364604,2.256756,-2.413648,-285.9675,238.9625,-134.575
1620,215141,2.454152,0.28181999999999996,-2.430972,-134.645,201.775,-122.4825
1621,215239,1.4210559999999999,0.268644,-1.491328,-152.32,134.8025,-103.8975
1622,215338,0.328424,-0.44652,-0.9098761000000001,-98.91001,98.9975,-78.8025
1623,215436,1.412272,-0.149816,-1.7502119999999999,-87.92,114.835,-62.79
1624,215534,1.2785600000000001,0.342332,-1.611864,-82.3025,78.0675,-49.4025
1625,215632,0.6021920000000001,0.06466001,-1.132892,-44.5375,33.46,-29.085
1626,215730,0.5514399999999999,-0.21716,-0.9511120000000001,-29.54,25.2175,-20.3
1627,215828,0.65514,-0.16714,-0.9679481,-28.245,21.1925,-17.5175
1628,215926,0.548268,-0.042944,-0.951844,-27.23,13.09,-16.3625
1629,216024,0.509716,-0.073688,-0.9203680000000001,-21.6475,6.195,-14.2275
1630,216122,0.513864,-0.07612801,-0.9230520000000001,-17.325,3.3425,-12.4775
1631,216220,0.471896,-0.091012,-0.9010921000000001,-13.6325,1.54,-10.92
1632,216318,0.465552,-0.115168,-0.883036,-11.1475,1.225,-10.1675
1633,216416,0.45993999999999996,-0.10516400000000001,-0.8874280999999999,-10.745,1.68,-10.325
1634,216514,0.46335600000000005,-0.118828,-0.8781559999999999,-10.22,2.3275,-10.5875
1635,216612,0.478728,-0.101748,-0.8805960999999999,-9.7125,2.9575,-10.745
1636,216710,0.48263199999999995,-0.098576,-0.8808401,-8.645,2.7475,-10.7975
1637,216808,0.48165600000000003,-0.09150001,-0.882548,-7.28,2.3975,-10.5175
1638,216906,0.47604399999999997,-0.10418800000000002,-0.8788879999999999,-5.9325,2.24,-10.2375
1639,217004,0.47043199999999996,-0.11126400000000002,-0.873764,-4.8825,2.205,-10.29
1640,217102,0.472384,-0.10540799999999999,-0.8676640999999999,-4.6725,2.415,-10.605
1641,217200,0.4743361,-0.106628,-0.865956,-4.7775,2.6425,-11.06
1642,217299,0.477264,-0.10223600000000001,-0.8664440000000001,-4.9525,2.66,-11.4275
1643,217397,0.4743361,-0.09028,-0.868396,-5.1625,2.9225,-11.3575
1644,217495,0.482388,-0.091012,-0.8674200000000001,-4.69,3.3425,-11.1475
1645,217593,0.482876,-0.08954801,-0.8625401,-4.62,3.6575,-10.85
1646,217691,0.492148,-0.077836,-0.862296,-4.3925,3.675,-10.6925
1647,217789,0.49312399999999995,-0.091988,-0.855708,-3.955,3.29,-10.395
1648,217887,0.489464,-0.085156,-0.863028,-4.1125,2.9575,-10.3775
1649,217985,0.48873199999999994,-0.082228,-0.859368,-4.1825,2.6425,-10.4475
1650,218083,0.48726800000000003,-0.087108,-0.855708,-4.06,2.485,-10.29
1651,218181,0.490196,-0.07564,-0.862784,-4.2,2.3275,-10.325
1652,218279,0.49434399999999995,-0.07198,-0.86498,-3.71,2.3975,-9.87
1653,218377,0.5043479999999999,-0.09613601,-0.849608,-2.975,2.6075,-9.31
1654,218475,0.49654,-0.072712,-0.859856,-3.7625,2.065,-9.625
1655,218573,0.488976,-0.08637601,-0.862296,-3.605,2.1,-9.345
1656,218671,0.492392,-0.08100801,-0.8615640999999999,-3.7975,2.38,-9.4325
1657,218769,0.48824399999999996,-0.07686,-0.8579041,-3.325,3.0975,-9.345
1658,218867,0.49166000000000004,-0.07490801,-0.85644,-2.4325,4.13,-9.1875
1659,218965,0.48922,-0.07564,-0.8666879999999999,-1.7675,4.69,-9.275
1660,219063,0.486048,-0.07417601,-0.8637601,-1.2075,5.95,-9.3275
1661,219161,0.482388,-0.083204,-0.8662001,-0.4375,7.4375,-9.5375
