,T,ax,ay,az,gx,gy,gz
0,48662,0.434076,0.089792,-0.740052,19.11,-18.2,-16.3975
1,48813,0.45603599999999994,0.09150001,-0.813496,-6.8425,-29.3125,45.885
2,48911,0.482876,0.088328,-0.8669319999999999,64.68,-128.87,46.41
3,49009,0.48385200000000006,0.088328,-0.8652241,47.8625,-113.75,-15.19
4,49107,0.48214399999999996,0.091012,-0.869128,2.7125,-6.895,-4.13
5,49205,0.484828,0.08808401,-0.8669319999999999,1.6625,-4.1125,-3.6925
6,49303,0.484828,0.087352,-0.8698601,1.68,-4.1125,-3.71
7,49401,0.4819,0.08637601,-0.8664440000000001,1.68,-4.1125,-3.815
8,49499,0.483608,0.090768,-0.8703481,1.645,-4.1825,-3.8325
9,49597,0.48263199999999995,0.088328,-0.869128,1.645,-4.2175,-3.78
10,49696,0.48116800000000004,0.09028,-0.8698601,1.715,-4.235,-3.71
11,49794,0.48263199999999995,0.08906,-0.8713241,1.7325,-4.165,-3.6925
12,49892,0.486048,0.0854,-0.87108,1.7675,-4.2,-3.675
13,49990,0.48556000000000005,0.08417999999999999,-0.869128,1.785,-4.0775,-3.7275
14,50088,0.48556000000000005,0.086864,-0.869128,1.68,-4.1475,-3.745
15,50186,0.482388,0.08662001,-0.8679081,1.61,-4.1825,-3.815
16,50284,0.487512,0.086132,-0.869616,1.575,-4.2175,-3.78
17,50382,0.486048,0.08662001,-0.868884,1.645,-4.2525,-3.8675
18,50480,0.48068,0.088328,-0.869128,1.5925,-4.2875,-3.7625
19,50578,0.483364,0.09223200000000001,-0.8698601,1.6625,-4.375,-3.71
20,50676,0.48312,0.086864,-0.868884,1.7675,-4.1475,-3.71
21,50774,0.486048,0.087352,-0.8679081,1.8375,-4.1125,-3.675
22,50873,0.485804,0.08759601,-0.8679081,1.89,-4.13,-3.71
23,50971,0.487756,0.086864,-0.869616,1.8025,-4.1475,-3.675
24,51069,0.484828,0.08784,-0.868152,1.8025,-4.1825,-3.6925
25,51167,0.48556000000000005,0.08637601,-0.869128,1.89,-4.27,-3.675
26,51265,0.483608,0.08784,-0.869616,1.8025,-4.2175,-3.6225
27,51363,0.485072,0.086864,-0.8698601,1.8375,-4.3575,-3.64
28,51461,0.48312,0.08954801,-0.8703481,1.8725,-4.2875,-3.675
29,51559,0.48556000000000005,0.08637601,-0.8701040000000001,1.855,-4.2875,-3.64
30,51657,0.484096,0.08759601,-0.8676640999999999,1.9075,-4.2525,-3.6925
31,51755,0.486292,0.085156,-0.868152,1.8725,-4.2875,-3.7275
32,51853,0.48556000000000005,0.084912,-0.869128,1.89,-4.375,-3.64
33,51952,0.484096,0.08466801,-0.8679081,1.855,-4.3575,-3.6575
34,52050,0.486048,0.086132,-0.870592,1.8025,-4.375,-3.6925
35,52148,0.48726800000000003,0.085888,-0.870592,1.82,-4.445,-3.745
36,52246,0.48702399999999996,0.086864,-0.869616,1.8375,-4.515,-3.7275
37,52344,0.486292,0.086864,-0.8676640999999999,1.89,-4.5325,-3.7275
38,52442,0.484096,0.087352,-0.8662001,1.8725,-4.6025,-3.7275
39,52540,0.483364,0.086132,-0.8669319999999999,1.8025,-4.4975,-3.7625
40,52638,0.485804,0.086132,-0.86864,1.8375,-4.445,-3.71
41,52736,0.484584,0.08564401,-0.8666879999999999,1.7675,-4.4975,-3.745
42,52834,0.484828,0.0854,-0.869616,1.75,-4.55,-3.71
43,52932,0.485072,0.08637601,-0.8679081,1.8025,-4.515,-3.6925
44,53030,0.485072,0.084912,-0.868152,1.8375,-4.5675,-3.6925
45,53128,0.48873199999999994,0.08564401,-0.868396,1.8025,-4.69,-3.7625
46,53227,0.48653599999999997,0.08662001,-0.868884,1.785,-4.6025,-3.71
47,53325,0.48702399999999996,0.085888,-0.8701040000000001,1.82,-4.69,-3.71
48,53423,0.48653599999999997,0.08417999999999999,-0.8693719999999999,1.785,-4.8125,-3.7975
49,53521,0.48726800000000003,0.0854,-0.86864,1.8025,-4.7775,-3.7975
50,53619,0.48556000000000005,0.086864,-0.8679081,1.75,-4.97,-3.815
51,53717,0.486048,0.086864,-0.8676640999999999,1.82,-5.005,-3.885
52,53815,0.485804,0.086132,-0.868884,1.82,-5.0925,-3.9025
53,53913,0.48726800000000003,0.0854,-0.868884,1.715,-5.1975,-3.9375
54,54011,0.48848800000000003,0.085888,-0.8698601,1.68,-5.25,-3.9725
55,54109,0.486292,0.083204,-0.868884,1.6275,-5.53,-4.025
56,54207,0.485072,0.08637601,-0.8698601,1.435,-5.6525,-4.13
57,54306,0.48556000000000005,0.082228,-0.86864,1.435,-5.7575,-4.27
58,54404,0.487512,0.085156,-0.8730319999999999,1.4175,-5.7225,-4.2
59,54502,0.484584,0.08417999999999999,-0.8708360999999999,1.365,-5.845,-4.2525
60,54600,0.483608,0.084912,-0.868152,1.155,-5.985,-4.2875
61,54698,0.48556000000000005,0.083936,-0.8703481,1.155,-5.95,-4.34
62,54796,0.482388,0.08466801,-0.8679081,1.015,-6.02,-4.27
63,54894,0.483608,0.08784,-0.8662001,1.12,-6.02,-4.2
64,54992,0.48312,0.08808401,-0.868396,1.085,-6.02,-4.2
65,55090,0.48433999999999994,0.08296,-0.8727879999999999,1.1375,-6.1075,-4.13
66,55188,0.48873199999999994,0.086132,-0.871568,0.8925,-6.1775,-4.165
67,55287,0.48556000000000005,0.084912,-0.8725440999999999,0.6475,-6.2825,-4.27
68,55385,0.48116800000000004,0.091988,-0.8713241,0.385,-6.4925,-4.445
69,55483,0.483608,0.08881599,-0.8727879999999999,0.455,-6.51,-4.3925
70,55581,0.481412,0.08881599,-0.869128,0.455,-6.4925,-4.27
71,55679,0.477508,0.091012,-0.8708360999999999,0.3325,-6.6325,-4.2175
72,55777,0.477996,0.09540401,-0.870592,0.4725,-6.4575,-4.0775
73,55875,0.482876,0.09125599999999999,-0.8769360999999999,0.665,-6.4575,-3.99
74,55973,0.478484,0.09540401,-0.8727879999999999,0.6825,-6.4225,-3.9375
75,56071,0.48092399999999996,0.094916,-0.8703481,0.8925,-6.3875,-3.7275
76,56169,0.47653199999999996,0.09735601,-0.8713241,1.0325,-6.3875,-3.5875
77,56267,0.480436,0.09320801,-0.871568,1.225,-6.2825,-3.4475
78,56366,0.480192,0.09247601,-0.8744960999999999,1.3825,-6.2825,-3.29
79,56464,0.47702,0.09223200000000001,-0.873764,1.2425,-6.475,-3.22
80,56562,0.475312,0.09589201,-0.8708360999999999,1.295,-6.5275,-3.115
81,56660,0.475312,0.089792,-0.87108,1.5225,-6.3875,-3.01
82,56758,0.474092,0.09028,-0.873276,1.575,-6.2475,-2.8525
83,56856,0.47823999999999994,0.0854,-0.876692,1.6625,-6.125,-2.8175
84,56954,0.47653199999999996,0.082716,-0.8735200000000001,1.4175,-6.2125,-2.9575
85,57052,0.475312,0.09272000000000001,-0.8727879999999999,1.2775,-6.2475,-3.045
86,57150,0.4819,0.08174001,-0.8744960999999999,1.19,-6.1425,-3.185
87,57248,0.47360399999999997,0.08296,-0.8723001,0.7875,-6.3525,-3.29
88,57346,0.47823999999999994,0.08954801,-0.8740081000000001,0.595,-6.335,-3.36
89,57445,0.479216,0.08466801,-0.87108,0.6475,-6.2475,-3.3425
90,57543,0.47702,0.09125599999999999,-0.8762040000000001,0.5425,-6.4925,-3.3425
91,57641,0.477508,0.089792,-0.8718120999999999,0.4025,-6.58,-3.465
92,57739,0.467016,0.091012,-0.8701040000000001,0.35,-6.6325,-3.4125
93,57837,0.46628400000000003,0.089304,-0.8703481,0.7175,-6.335,-3.3425
94,57935,0.47092,0.086132,-0.8708360999999999,0.945,-5.9675,-3.3425
95,58033,0.47604399999999997,0.085888,-0.8703481,1.0325,-5.8625,-3.3075
96,58131,0.46506400000000003,0.09125599999999999,-0.8708360999999999,1.1025,-5.8975,-3.22
97,58229,0.46335600000000005,0.08637601,-0.8693719999999999,1.3475,-5.565,-3.2725
98,58327,0.4636,0.079056,-0.868884,1.645,-5.2675,-2.9225
99,58426,0.470188,0.101016,-0.871568,1.6625,-5.1275,-3.0275
100,58524,0.46726,0.0854,-0.8674200000000001,2.1175,-4.7425,-3.1675
101,58622,0.46433199999999997,0.089304,-0.8674200000000001,2.31,-4.4975,-3.0625
102,58720,0.46311199999999997,0.09272000000000001,-0.8698601,2.52,-4.1825,-3.01
103,58818,0.46433199999999997,0.090768,-0.8657120999999999,2.8175,-3.6225,-2.8175
104,58916,0.467016,0.09150001,-0.8698601,3.29,-3.045,-2.625
105,59014,0.47043199999999996,0.09125599999999999,-0.8708360999999999,3.7275,-2.6075,-2.555
106,59112,0.47775200000000007,0.08174001,-0.8740081000000001,3.92,-2.415,-2.345
107,59210,0.472872,0.086864,-0.8698601,3.9725,-2.8,-2.2925
108,59308,0.47360399999999997,0.086864,-0.87108,3.9725,-2.87,-2.415
109,59407,0.47043199999999996,0.087352,-0.865956,4.305,-2.87,-2.31
110,59505,0.46238,0.08100801,-0.863028,4.5675,-2.59,-2.2925
111,59603,0.44822799999999996,0.091012,-0.8605879999999999,4.6375,-2.24,-2.1525
112,59701,0.462136,0.08100801,-0.8723001,5.11,-0.9975,-1.9775
113,59799,0.480192,0.076616,-0.8730319999999999,5.5825,-0.5075,-1.96
114,59897,0.48263199999999995,0.067344,-0.87474,5.1975,-0.9625,-2.345
115,59995,0.48653599999999997,0.06880801,-0.8757159999999999,4.445,-1.3475,-2.835
116,60093,0.465796,0.070516,-0.8671761,3.5175,-1.75,-3.4825
117,60191,0.452132,0.070516,-0.8662001,2.7125,-1.5925,-3.99
118,60289,0.44993599999999995,0.07417601,-0.871568,1.645,-0.315,-4.55
119,60388,0.47043199999999996,0.07808001,-0.8788879999999999,0.7175,0.805,-5.11
120,60486,0.50264,0.050752,-0.8759601,0.5775,1.2075,-5.4425
121,60584,0.496296,0.059536,-0.8752280000000001,-0.7175,0.28,-6.1775
122,60682,0.4758,0.083936,-0.8637601,-1.995,-0.4025,-6.7025
123,60780,0.4819,0.08906,-0.873276,-2.17,-0.525,-6.685
124,60878,0.487756,0.09589201,-0.874984,-2.17,-0.175,-6.5625
125,60976,0.49166000000000004,0.091744,-0.8744960999999999,-1.7675,-0.14,-6.2475
126,61074,0.494588,0.083936,-0.8703481,-1.47,-0.105,-6.0375
127,61172,0.49776000000000004,0.110044,-0.87108,-1.7675,-0.035,-5.8975
128,61270,0.500688,0.098576,-0.870592,-1.3825,-0.2625,-5.4775
129,61369,0.5009319999999999,0.10223600000000001,-0.868396,-1.225,-0.8400001,-4.7425
130,61467,0.493856,0.10321199999999998,-0.8676640999999999,-0.9975,-1.7325,-4.1125
131,61565,0.4941,0.093696,-0.8669319999999999,-0.4025,-2.1,-3.6575
132,61663,0.496296,0.084912,-0.868396,-0.0875,-2.905,-3.6925
133,61761,0.49849209999999994,0.08784,-0.8657120999999999,-0.3325,-3.1325,-3.885
134,61859,0.4941,0.085888,-0.864492,-0.5425,-3.885,-4.0425
135,61957,0.496784,0.088328,-0.8666879999999999,-0.5425,-4.2875,-4.27
136,62055,0.496784,0.08808401,-0.865956,-0.5425,-4.76,-4.445
137,62153,0.49288000000000004,0.08857201,-0.8625401,-0.875,-5.3025,-4.5675
138,62251,0.4933681,0.0854,-0.8640040000000001,-1.295,-5.6875,-4.8125
139,62350,0.49141599999999996,0.08881599,-0.863516,-1.8025,-6.09,-5.0225
140,62448,0.49288000000000004,0.07686,-0.864492,-1.9075,-6.23,-5.075
141,62546,0.487512,0.08881599,-0.8662001,-2.1525,-6.475,-5.0925
142,62644,0.488976,0.086864,-0.8662001,-2.17,-6.5275,-5.11
143,62742,0.48922,0.084912,-0.8657120999999999,-2.03,-6.3875,-5.1275
144,62840,0.490928,0.09418401,-0.868396,-1.89,-6.475,-5.1975
145,62938,0.491904,0.09418401,-0.8671761,-1.61,-6.86,-5.3025
146,63036,0.490684,0.085888,-0.8669319999999999,-1.3125,-7.245,-5.32
147,63134,0.491904,0.094916,-0.870592,-1.365,-7.8575,-5.6525
148,63233,0.489464,0.09589201,-0.869616,-1.295,-8.015,-5.7575
149,63331,0.48385200000000006,0.09979600000000001,-0.8708360999999999,-1.12,-7.9975,-5.5475
150,63429,0.48433999999999994,0.094916,-0.8713241,-1.1025,-8.2425,-5.5825
151,63527,0.48068,0.10687200000000001,-0.868396,-1.33,-8.54,-5.5825
152,63625,0.47482399999999997,0.11102000000000001,-0.8671761,-1.085,-8.6275,-5.5475
153,63723,0.46896800000000005,0.11028800000000001,-0.86498,-0.7175,-8.4175,-5.18
154,63821,0.463844,0.111508,-0.86864,-0.42,-8.05,-4.83
155,63919,0.46457600000000004,0.116388,-0.8679081,-0.035,-7.3675,-4.515
156,64017,0.46726,0.112972,-0.86498,0.735,-6.7375,-4.025
157,64116,0.46848,0.104432,-0.863028,1.4525,-6.335,-3.605
158,64214,0.459696,0.11126400000000002,-0.8647360000000001,1.8025,-5.915,-3.3425
159,64312,0.462624,0.11126400000000002,-0.862296,2.2225,-5.2675,-2.9925
160,64410,0.467992,0.10248,-0.8620521000000001,2.73,-4.7425,-2.6075
161,64508,0.4743361,0.10126,-0.868152,3.0975,-4.2,-2.4325
162,64606,0.472384,0.101504,-0.8662001,3.255,-4.095,-2.4675
163,64704,0.47043199999999996,0.09882,-0.8662001,3.185,-3.92,-2.3975
164,64802,0.47165200000000007,0.096868,-0.8664440000000001,2.975,-3.325,-2.345
165,64900,0.47677600000000003,0.09223200000000001,-0.8674200000000001,2.87,-3.08,-2.3625
166,64999,0.47067600000000004,0.09442801,-0.868396,2.555,-3.2025,-2.4675
167,65097,0.47604399999999997,0.09345201,-0.86864,2.3975,-3.185,-2.485
168,65195,0.487512,0.0854,-0.876692,2.275,-3.0275,-2.6075
169,65293,0.479704,0.10004,-0.868884,2.205,-3.1675,-2.765
170,65391,0.47702,0.09247601,-0.868396,2.5375,-3.185,-2.6775
171,65489,0.47336000000000006,0.091012,-0.8720559999999999,2.5725,-3.395,-2.7125
172,65587,0.480436,0.08954801,-0.871568,2.31,-3.4475,-2.8525
173,65685,0.47336000000000006,0.09735601,-0.8666879999999999,2.1175,-3.0275,-2.94
174,65783,0.47213999999999995,0.09418401,-0.871568,2.135,-2.38,-2.94
175,65881,0.48165600000000003,0.10052799999999999,-0.870592,2.0825,-1.995,-2.8875
176,65980,0.472628,0.09589201,-0.874984,2.0825,-1.6625,-2.8
177,66078,0.47823999999999994,0.10004,-0.86864,2.345,-1.26,-2.415
178,66176,0.47458,0.09345201,-0.8671761,2.8875,-0.56,-2.17
179,66274,0.47653199999999996,0.09540401,-0.8674200000000001,3.2025,-0.0175,-1.8025
180,66372,0.47823999999999994,0.09394001,-0.8669319999999999,3.36,0.6125,-1.5225
181,66470,0.474092,0.09930800000000001,-0.8676640999999999,3.5,1.5925,-1.4525
182,66568,0.478728,0.086864,-0.8666879999999999,3.745,2.625,-1.26
183,66666,0.48702399999999996,0.09442801,-0.862296,3.605,3.605,-1.19
184,66764,0.47653199999999996,0.09345201,-0.870592,3.92,4.5675,-1.3475
185,66863,0.47482399999999997,0.09906401,-0.8662001,4.6725,5.74,-1.1025
186,66961,0.4743361,0.10394400000000001,-0.865956,5.39,7.21,-0.9625
187,67059,0.4758,0.09906401,-0.8666879999999999,5.8975,8.82,-0.56
188,67157,0.465308,0.085888,-0.87474,6.2125,10.99,-0.4025
189,67255,0.479704,0.085888,-0.880352,5.7925,14.245,-0.3675
190,67353,0.487756,0.06661201,-0.8881600000000001,4.585,17.9025,0.14
191,67451,0.450912,0.08784,-0.9110959999999999,2.6775,22.155,0.8575
192,67549,0.37502800000000003,0.06588,-0.954284,1.575,30.135,1.75
193,67647,0.42333999999999994,0.08808401,-0.9555040000000001,-0.35,45.605,3.4125
194,67746,0.41675200000000007,0.07417601,-0.9860040999999999,-1.645,60.7425,4.8125
195,67844,0.39161999999999997,0.05172801,-1.028704,-4.0425,79.2225,7.1225
196,67942,0.387228,0.040504000000000005,-1.035536,-10.4475,101.7625,9.5375
197,68040,0.356484,0.034892,-1.037,-16.135,125.6675,10.7275
198,68138,0.344528,0.02684,-1.067256,-19.67,149.0825,10.92
199,68236,0.3904,0.06954,-1.0316319999999999,-24.3425,173.8275,11.375
200,68334,0.378444,0.102968,-1.078724,-28.6825,198.1875,11.8125
201,68432,0.355752,0.22862800000000003,-1.092632,-28.9975,221.3575,14.595
202,68530,0.458476,0.30109600000000003,-1.030656,-16.45,246.2425,19.74
203,68629,0.573156,0.343308,-0.987712,-5.88,277.9,26.9325
204,68727,0.9054840000000001,0.31476,-1.247084,-0.0175,310.3625,28.4025
205,68825,1.193892,0.145912,-1.3786,-0.4725,325.3075,24.4475
206,68923,1.13826,0.215452,-1.280756,-15.75,333.935,26.18
207,69021,1.1263040000000002,0.41382399999999997,-1.357616,-25.6375,347.3925,37.8
208,69119,1.413248,0.16958,-1.462048,-12.6525,352.94,47.7225
209,69217,1.539884,-0.208132,-1.507188,-22.3825,346.3425,45.57
210,69315,1.303448,0.019764,-1.6865279999999998,-80.7625,322.8925,43.715
211,69413,0.599264,0.346236,-1.596248,-112.1225,285.2325,48.6675
212,69511,-1.1951120000000002,1.069696,-1.4154440000000001,-125.825,240.205,43.505
213,69610,2.000312,1.5372,-2.70962,-127.47,246.6625,24.64
214,69708,1.269288,1.4454559999999999,-2.513932,-71.89,168.91,17.675
215,69806,0.026108,1.322968,-2.224304,20.3175,5.0575,-4.1825
216,69904,-0.630252,0.58804,-1.6389479999999998,99.2075,-72.2575,9.5025
217,70002,-0.759084,0.022936,-1.38104,131.145,-99.4875,37.6425
218,70100,-0.607804,-0.2196,-1.330532,105.0875,-110.915,58.5375
219,70198,-0.382348,-0.08369201,-1.340292,42.805,-126.21,68.005
220,70296,-0.21032800000000001,0.35038400000000003,-1.381528,-20.4575,-154.7175,66.85
221,70394,-0.151036,0.753472,-1.3468799999999999,-48.9475,-193.3575,59.745
222,70492,-0.09711201,0.9237841,-1.22976,-40.6,-229.145,50.9075
223,70591,-0.030744,0.892064,-1.092876,-16.205,-257.565,38.3425
224,70689,0.061975999999999996,0.727364,-0.975024,0.63,-277.8475,21.21
225,70787,0.167872,0.5892601,-0.8957241,-1.6975,-291.095,-0.07
226,70885,0.293288,0.51972,-0.8657120999999999,-17.4825,-298.5325,-22.085
227,70983,0.47360399999999997,0.484584,-0.9052401,-36.4,-302.5575,-40.5125
228,71081,0.685396,0.4392,-0.9801479999999999,-52.185,-306.1625,-53.55
229,71179,0.8679081,0.373808,-1.052616,-62.6325,-311.955,-61.075
230,71277,0.989176,0.25742,-1.086776,-69.3525,-317.975,-63.14
231,71375,1.060912,0.159088,-1.0614,-77.245,-321.0375,-59.4475
232,71473,1.142652,0.136152,-1.05164,-88.1475,-316.4525,-50.47
233,71572,1.297348,0.17324,-1.114104,-101.5175,-304.22,-40.39
234,71670,1.513044,0.27328,-1.245376,-116.9175,-290.115,-35.735
235,71768,1.7275200000000002,0.441396,-1.3510280000000001,-133.0875,-280.21,-41.44
236,71866,1.80194,0.5504641,-1.381772,-141.6625,-276.885,-55.965
237,71964,1.8160919999999998,0.494588,-1.297104,-139.7375,-273.56,-74.9875
238,72062,1.862452,0.30548800000000004,-1.1995040000000001,-133.98,-264.53,-92.71500999999999
239,72160,1.9712759999999998,0.10126,-1.1211799999999998,-130.13,-250.88,-106.365
240,72258,2.1413439999999997,-0.006587999999999999,-1.092144,-129.08,-237.37,-114.5375
241,72356,2.2482159999999998,-0.049044,-1.0023520000000001,-120.855,-229.635,-119.21
242,72454,2.224304,0.03538,-0.7105279999999999,-100.7125,-226.0475,-121.73
243,72553,2.0923,0.082228,-0.19276,-66.745,-218.365,-121.485
244,72651,2.0191,-0.000488,0.303048,-28.35,-195.9825,-120.4525
245,72749,2.14842,-0.451888,0.748104,-7.4375,-153.1425,-116.1475
246,72847,2.400716,-0.865956,0.9862479999999999,-25.9,-99.68,-113.8025
247,72945,2.507344,-0.628788,0.975512,-71.3125,-45.64,-117.6
248,73043,2.5561439999999997,-0.354044,0.8364321,-74.445,-1.61,-114.625
249,73141,2.424872,-0.42822,0.7625,-27.44,30.6075,-98.5075
250,73239,2.1886799999999997,-0.749812,0.669292,26.215,57.47,-74.4975
251,73337,0.233264,1.121424,-0.233508,62.6675,78.3825,-59.64
252,73435,0.05124001,0.072956,-0.328424,214.235,147.9625,-73.395
253,73533,-1.251232,0.2196,-1.6143040000000002,242.8475,160.195,-15.3475
254,73632,0.40357600000000005,-2.6071400000000002,-0.061,353.745,183.3825,7.7175
255,73730,1.438136,-3.6002199999999998,-1.039928,252.0525,272.405,34.405
256,73828,1.482544,-2.0984,-1.589416,56.7875,306.04,54.2325
257,73926,1.582096,0.31476,-1.797548,-18.4625,285.74,65.50251
258,74024,5.007368,1.910032,-3.619496,-32.2875,273.77,37.66
259,74122,0.174704,-0.357948,-0.642696,80.5,60.2,20.125
260,74220,0.513864,-0.077592,-1.2117040000000001,58.8,48.86,17.9725
261,74318,1.046028,0.39723200000000003,-1.166808,31.22,69.965,11.725
262,74416,0.38795999999999997,0.15420799999999998,-0.8308200000000001,38.6575,29.1025,10.3425
263,74515,0.598288,0.085156,-1.008208,38.6225,28.875,11.6025
264,74613,0.59658,0.09882,-0.968192,32.9175,22.4875,10.36
265,74711,0.5846241,0.0366,-0.9784401,29.225,11.9875,8.2775
266,74809,0.525332,0.039284,-0.925736,21.9275,6.335,5.2675
267,74907,0.513376,0.060024,-0.9140241,15.26,2.1525,2.2925
268,75005,0.5124001,0.04514,-0.9030440000000001,11.7775,0.1225,0.595
269,75103,0.48116800000000004,0.101992,-0.8815719999999999,7.4375,-2.0475,-1.3825
270,75201,0.462136,0.11248399999999999,-0.8815719999999999,5.6525,-2.345,-2.2925
271,75299,0.453108,0.1098,-0.8786440999999999,4.9175,-2.555,-2.6075
272,75397,0.473116,0.10736,-0.8862081,4.3925,-2.0125,-2.87
273,75496,0.472872,0.127856,-0.8735200000000001,3.4125,-1.96,-3.0625
274,75594,0.463844,0.124196,-0.8718120999999999,3.1675,-2.0825,-2.9925
275,75692,0.46433199999999997,0.135664,-0.865956,3.5175,-1.54,-2.695
276,75790,0.454816,0.135908,-0.8693719999999999,4.305,-1.365,-2.3625
277,75888,0.46335600000000005,0.123464,-0.870592,5.5825,-0.7,-1.6975
278,75986,0.45896400000000004,0.129076,-0.868396,6.23,-0.5425,-1.33
279,76084,0.450424,0.121268,-0.8701040000000001,6.9125,-0.28,-0.9975
280,76182,0.460916,0.11224,-0.8647360000000001,7.525,0.735,-0.5425
281,76280,0.467992,0.11102000000000001,-0.868884,7.6825,1.3825,-0.5425
282,76378,0.4758,0.09223200000000001,-0.8664440000000001,7.385,1.26,-0.5775
283,76477,0.47775200000000007,0.09979600000000001,-0.8669319999999999,5.9675,0.805,-1.015
284,76575,0.48556000000000005,0.08759601,-0.873276,5.2675,0.63,-1.435
285,76673,0.47823999999999994,0.071004,-0.8610761,3.85,0.5075,-1.8025
286,76771,0.479704,0.09906401,-0.864492,1.995,-0.4725,-2.625
287,76869,0.46848,0.098332,-0.8815719999999999,1.2425,-1.0325,-2.9225
288,76967,0.472384,0.09540401,-0.8718120999999999,1.435,0.5075,-2.6075
289,77065,0.465796,0.101748,-0.8769360999999999,1.7325,1.8025,-2.415
290,77163,0.46628400000000003,0.104676,-0.868396,2.2225,2.6075,-2.1
291,77261,0.475312,0.102724,-0.862296,2.52,3.0625,-1.8025
292,77359,0.46945600000000004,0.10614000000000001,-0.869128,2.6775,3.1675,-1.4175
293,77458,0.472384,0.107848,-0.8613200000000001,3.535,3.885,-1.2075
294,77556,0.47677600000000003,0.107848,-0.868884,4.7425,5.3025,-0.735
295,77654,0.48214399999999996,0.111508,-0.8652241,6.2125,6.51,-0.5425
296,77752,0.472628,0.11224,-0.86864,7.735,7.7,-0.0175
297,77850,0.469944,0.12712400000000001,-0.8754719999999999,8.7675,9.8525,-0.1925
298,77948,0.46457600000000004,0.102724,-0.8815719999999999,9.835,12.6,-0.07
299,78046,0.46433199999999997,0.09150001,-0.8820601,9.1,15.5925,0.07
300,78144,0.4819,0.08662001,-0.8901120000000001,7.91,19.9675,0.35
301,78242,0.466772,0.06124401,-0.887916,6.0025,25.0075,0.9275
302,78340,0.380152,0.061975999999999996,-0.9171961,3.4475,28.9275,1.3475
303,78439,0.496784,0.049288,-0.885964,0.8400001,39.9,2.415
304,78537,0.439688,0.077348,-0.9284200999999999,-1.54,47.775,1.47
305,78635,0.452132,0.087352,-0.9442801,-3.5525,60.55,2.52
306,78733,0.39284,0.098576,-0.9803921,-5.985,75.5125,4.1125
307,78831,0.388692,0.054167999999999994,-0.9852719999999999,-8.085,95.4625,6.8775
308,78929,0.30256,0.040016,-1.073844,-14.28,118.9825,9.905
309,79027,0.30988000000000004,0.00488,-1.1477760000000001,-18.9875,148.47,10.22
310,79125,0.260592,0.047580000000000004,-1.192672,-27.965,181.9475,8.505
311,79223,0.219112,0.098332,-1.231956,-37.625,220.6575,8.33
312,79322,0.23887600000000003,0.189588,-1.330288,-48.6675,261.905,8.9775
313,79420,0.205204,0.39161999999999997,-1.375672,-45.57,307.1425,14.35
314,79518,0.354044,0.31598000000000004,-1.342488,-26.6,363.58,15.1375
315,79616,0.8876719999999999,0.25790799999999997,-1.548424,-17.8675,414.7675,0.4375
316,79714,1.446676,0.303292,-1.74948,-45.255,459.69,2.3975
317,79812,1.523048,0.299632,-1.898564,-43.225,503.965,28.56
318,79910,2.047892,0.158112,-1.9068599999999998,-27.58,514.99,51.8175
319,80008,2.107428,-0.214964,-2.1569599999999998,-47.46,487.0425,44.7825
320,80106,1.179984,-0.010736,-2.346548,-125.0725,426.58,42.21
321,80204,-0.353312,0.30866,-2.4817240000000003,-166.11,347.3225,47.3725
322,80303,0.277428,0.696376,-0.263276,-211.26,256.795,24.045
323,80401,2.832352,1.8605,-3.712704,-251.0375,304.325,56.07
324,80499,0.774944,2.234064,-3.060248,-143.185,62.51,40.6175
325,80597,-0.633424,1.7109279999999998,-2.179896,-9.2225,-105.945,26.4075
326,80695,-0.985516,0.628788,-1.509384,121.8,-176.505,49.6475
327,80793,-0.919392,-0.041968,-1.075552,146.3175,-185.64,72.17
328,80891,-0.538508,-0.25302800000000003,-1.051884,91.385,-181.4225,80.0975
329,80989,-0.242292,-0.045627999999999995,-1.097512,0.28,-191.1,69.755
330,81087,-0.16104000000000002,0.471896,-1.0967799999999999,-75.2325,-218.6975,42.49
331,81185,-0.06588,0.8615640999999999,-1.0645719999999999,-95.62,-249.2,17.64
332,81284,0.050263999999999996,0.8823040000000001,-1.005524,-64.9425,-275.625,-0.2275
333,81382,0.22252800000000003,0.620736,-0.9547720999999999,-20.23,-294.385,-14.7525
334,81480,0.340136,0.27889200000000003,-0.8845,6.125,-312.095,-28.35
335,81578,0.453108,0.053436000000000004,-0.860344,2.905,-325.3775,-39.9175
336,81676,0.5856,-0.032695999999999996,-0.894748,-17.9375,-334.075,-48.02
337,81774,0.72102,-0.057828,-0.9716081,-41.37,-338.2925,-51.03
338,81872,0.8788879999999999,-0.071248,-1.09922,-59.0275,-340.55,-48.5625
339,81970,1.0650600000000001,-0.126148,-1.192672,-69.895,-344.155,-40.3725
340,82068,1.192184,-0.229604,-1.170224,-78.82,-349.5275,-26.4775
341,82166,1.2395200000000002,-0.25302800000000003,-1.061888,-92.34751,-351.2075,-9.5725
342,82265,1.331508,-0.116388,-0.9950319999999999,-109.655,-344.2425,4.41
343,82363,1.50304,0.125416,-1.114104,-126.14,-329.1225,7.3675
344,82461,1.7775400000000001,0.416508,-1.3163799999999999,-136.7975,-312.76,-5.5125
345,82559,2.0008,0.608536,-1.4234959999999999,-140.4725,-304.08,-31.01
346,82657,2.137684,0.762744,-1.3710360000000001,-139.0375,-300.72,-64.995
347,82755,2.162816,0.8091041,-1.256356,-127.3475,-297.465,-106.4875
348,82853,2.2018560000000003,0.7373681,-1.1028799999999999,-103.1625,-287.6125,-153.125
349,82951,2.310192,0.57218,-0.9999121,-71.0325,-270.165,-195.895
350,83049,2.433656,0.453596,-0.863516,-33.145,-253.8025,-231.3675
351,83147,2.550288,0.259372,-0.544852,12.0925,-240.1175,-254.1175
352,83246,2.616412,0.14347200000000002,-0.041236,59.2025,-225.8025,-257.8275
353,83344,2.564684,-0.47677600000000003,0.653432,102.48,-204.155,-241.3425
354,83442,2.473184,-1.20048,1.235372,102.76,-164.045,-206.7975
355,83540,2.713768,-1.541104,1.396656,35.5075,-100.485,-157.85
356,83638,3.158092,-1.5159719999999999,1.3510280000000001,-47.81,-40.1625,-95.3575
357,83736,3.1051439999999997,-1.005768,1.170712,-104.125,-2.2575,-27.3
358,83834,1.921744,0.330376,1.0889719999999998,-79.5725,33.5825,29.2775
359,83932,1.484008,0.8513161,1.186816,52.0625,160.7375,43.015
360,84030,-0.9137799999999999,0.232776,-1.322968,173.775,144.235,61.705
361,84128,-0.036356,-0.30988000000000004,-1.621624,175.9625,240.66,48.5625
362,84227,1.8751400000000003,-2.7142560000000002,-0.634156,181.9475,301.07,30.695
363,84325,2.2235720000000003,-1.7294720000000001,-2.214788,49.84,314.4575,52.815
364,84423,1.428376,0.026595999999999998,-1.342732,-17.57,274.015,68.81
365,84521,3.6148599999999997,2.55346,-2.77916,-22.8025,251.8425,58.135
366,84619,1.342488,0.628544,-1.21634,73.7975,146.7725,38.2025
367,84717,0.49898000000000003,-0.6944241,-1.2463520000000001,122.2025,63.0175,36.2425
368,84815,1.125084,0.20642399999999997,-1.294664,62.125,77.1225,27.055
369,84913,0.48165600000000003,0.12980799999999998,-0.9562360999999999,47.7225,43.1725,16.0825
370,85011,0.6231760999999999,-0.038308,-1.039684,50.96,31.1325,15.9425
371,85109,0.654408,0.019275999999999998,-1.024068,37.7825,24.2725,11.76
372,85208,0.502884,0.054412,-0.940132,29.1725,11.0775,7.49
373,85306,0.5443640000000001,0.044407999999999996,-0.9240280000000001,21.6475,8.12,4.515
374,85404,0.49776000000000004,0.032695999999999996,-0.913048,15.6275,4.655,2.0825
375,85502,0.493856,0.052703999999999994,-0.8988959999999999,10.2375,2.485,-0.1575
376,85600,0.489708,0.066856,-0.891576,6.6325,1.33,-1.8375
377,85698,0.47555600000000003,0.101016,-0.8827921000000001,3.325,0.245,-3.22
378,85796,0.459696,0.111508,-0.882548,1.4,0.385,-3.745
379,85894,0.46018400000000004,0.10809200000000001,-0.8810841,0.805,1.26,-3.71
380,85992,0.45725600000000005,0.135664,-0.8723001,1.1375,1.4525,-3.6225
381,86091,0.4514,0.151036,-0.870592,2.8,1.505,-3.045
382,86189,0.46896800000000005,0.120048,-0.86864,5.215,2.0125,-1.8725
383,86287,0.45871999999999996,0.10906800000000001,-0.874252,6.16,1.9075,-1.5225
384,86385,0.46506400000000003,0.10345599999999999,-0.8796200000000001,6.2475,1.995,-1.6275
385,86483,0.47043199999999996,0.11102000000000001,-0.8735200000000001,5.9325,2.1875,-1.6275
386,86581,0.46628400000000003,0.130296,-0.8676640999999999,5.4075,1.82,-1.715
387,86679,0.46896800000000005,0.12248800000000001,-0.8674200000000001,5.985,1.6275,-1.2075
388,86777,0.47067600000000004,0.12248800000000001,-0.868152,6.72,1.54,-0.6825
389,86875,0.47213999999999995,0.1098,-0.8708360999999999,7.665,1.47,-0.0525
390,86974,0.48531599999999997,0.08808401,-0.8725440999999999,8.365,1.47,0.2275
391,87072,0.474092,0.10126,-0.869616,8.085,0.8575,0.3325
392,87170,0.47555600000000003,0.09979600000000001,-0.869128,8.225,1.2075,0.2975
393,87268,0.47067600000000004,0.09028,-0.8671761,8.7325,0.7875,0.28
394,87366,0.47384799999999994,0.09784401,-0.8730319999999999,8.96,0.9625,0.14
395,87464,0.472628,0.087108,-0.8703481,8.75,1.3475,0.14
396,87562,0.47677600000000003,0.09345201,-0.868884,9.1525,2.3275,0.035
397,87660,0.47775200000000007,0.096624,-0.8664440000000001,9.0825,3.2725,0.1575
398,87758,0.48848800000000003,0.08003201,-0.8666879999999999,9.135,4.025,0.035
399,87857,0.48165600000000003,0.091988,-0.870592,8.5225,4.1825,0.0525
400,87955,0.479216,0.091012,-0.87474,8.3475,5.0575,0.0175
401,88053,0.481412,0.10004,-0.87108,8.4525,6.3,-0.0525
402,88151,0.47677600000000003,0.1037,-0.8757159999999999,8.575,8.19,-0.2975
403,88249,0.46848,0.1037,-0.88328,8.7325,10.64,0.0525
404,88347,0.48653599999999997,0.08784,-0.8918200000000001,8.7675,13.3,0.35
405,88445,0.43041599999999997,0.061975999999999996,-0.9108521,8.05,16.38,0.4025
406,88543,0.394548,0.040504000000000005,-0.9198799999999999,5.46,21.9625,1.295
407,88641,0.47823999999999994,0.041724000000000004,-0.887184,1.89,31.01,2.835
408,88740,0.47092,0.030256,-0.889624,-1.085,36.5925,2.135
409,88838,0.471164,0.06466001,-0.9001161,-3.5875,44.4325,1.4175
410,88936,0.44847200000000004,0.107848,-0.9413520000000001,-5.0225,54.5475,2.765
411,89034,0.434564,0.10004,-0.9767321,-5.67,69.51,6.1075
412,89132,0.419192,0.0976,-0.9852719999999999,-6.86,88.32251,9.9925
413,89230,0.397476,0.04514,-1.001132,-9.1525,108.675,13.3525
414,89328,0.328424,-0.028304000000000003,-1.059936,-12.11,131.425,14.595
415,89426,0.29768,-0.038308,-1.124352,-19.4075,158.515,12.81
416,89524,0.28694400000000003,0.020984,-1.178276,-29.9075,190.12,10.85
417,89622,0.239364,0.0854,-1.274412,-39.1825,226.6075,7.6825
418,89721,0.186172,0.183976,-1.25538,-45.745,269.5175,7.2625
419,89819,0.24936799999999998,0.316956,-1.340292,-40.145,318.3425,14.07
420,89917,0.49263599999999996,0.365268,-1.437892,-25.83,381.185,17.395
421,90015,1.0979999999999999,0.396988,-1.6267479999999999,-21.805,424.06,9.3275
422,90113,1.49938,0.17446,-1.6145479999999999,-33.5125,459.48,10.2725
423,90211,1.437892,0.508008,-1.708732,-42.2975,490.63,36.3475
424,90309,1.962248,0.07222401,-1.6731080000000003,-24.36,491.1025,57.295
425,90407,1.96298,-0.047092,-2.072536,-55.615,459.165,53.3225
426,90505,1.208288,0.155672,-2.118408,-125.055,398.93,56.735
427,90604,-0.7229720000000001,0.536068,-2.113772,-169.505,313.0925,62.3
428,90702,0.8376520000000001,1.084824,-0.681248,-211.2075,241.92,44.9225
429,90800,2.670824,1.891,-3.133692,-225.4875,270.725,66.7275
430,90898,0.5577840000000001,2.464156,-2.782332,-101.0275,15.75,25.13
431,90996,-0.6170760000000001,1.538176,-1.781932,53.0775,-130.0775,15.33
432,91094,-0.8801081000000001,0.5321640000000001,-1.147044,169.1725,-181.4925,44.45
433,91192,-0.71492,-0.024156,-0.8757159999999999,182.945,-183.575,70.8225
434,91290,-0.359656,-0.212036,-0.865468,125.0375,-181.055,84.735
435,91388,-0.11126400000000002,0.011468,-0.936716,31.4825,-194.355,76.0025
436,91486,-0.071004,0.530212,-0.9147559999999999,-46.8825,-225.19,48.1425
437,91585,-0.038796,0.9110959999999999,-0.858392,-72.1175,-254.4675,21.9625
438,91683,0.07417601,0.9884440000000001,-0.8261841000000001,-49.35,-275.9575,1.3825
439,91781,0.221796,0.759328,-0.758108,-8.1375,-292.215,-17.395
440,91879,0.32208000000000003,0.447984,-0.7232161,15.225,-304.6575,-35.3325
441,91977,0.404308,0.225944,-0.735904,9.975,-313.4775,-54.46
442,92075,0.5397281,0.134444,-0.803492,-13.265,-318.4475,-71.05
443,92173,0.71858,0.138348,-0.9325680000000001,-39.1475,-321.37,-80.675
444,92271,0.8808401,0.15738,-1.063596,-56.6125,-325.115,-82.8975
445,92369,1.0255319999999999,0.121512,-1.1599760000000001,-64.295,-330.3475,-78.7675
446,92468,1.16144,0.015128,-1.164124,-68.65250999999999,-335.965,-70.0875
447,92566,1.190232,-0.115656,-1.06384,-76.4225,-338.5025,-59.115
448,92664,1.283928,-0.07881200000000001,-1.042368,-92.26001,-331.0125,-47.18
449,92762,1.549156,0.047336,-1.187792,-111.02,-314.8075,-38.2025
450,92860,1.9224759999999999,0.307684,-1.397632,-130.3575,-302.33,-38.4475
451,92958,2.1779439999999997,0.6463561,-1.465708,-146.3875,-300.5625,-49.6125
452,93056,2.2692,0.9503799999999999,-1.36152,-150.2025,-302.1025,-73.6925
453,93154,2.284084,1.064816,-1.16144,-135.5025,-297.4475,-110.285
454,93252,2.33386,0.9679481,-1.000888,-108.8675,-281.9425,-152.075
455,93351,2.448052,0.7761640999999999,-0.8398479999999999,-80.185,-259.595,-194.8625
456,93449,2.489288,0.58682,-0.599996,-52.605,-237.895,-236.355
457,93547,2.4687919999999997,0.313052,-0.110044,-14.525,-216.6325,-270.235
458,93645,2.498072,-0.0732,0.467504,32.1475,-188.405,-281.8025
459,93743,2.464156,-0.7759199999999999,1.0126,74.76,-149.415,-260.5575
460,93841,2.618852,-1.392508,1.228784,60.795,-94.53501,-217.1575
461,93939,3.024136,-1.747528,1.173152,2.7475,-39.935,-161.6125
462,94037,3.055612,-1.464976,0.9974719999999999,-65.22251,-3.5875,-94.2725
463,94135,2.57908,-0.832528,0.6956439999999999,-93.7125,19.67,-19.39
464,94234,1.8470799999999998,0.45603599999999994,0.71736,-31.815,52.955,36.365
465,94332,0.07710399999999999,0.43432,0.140544,134.1375,140.91,43.6625
466,94430,-0.5751081,0.101992,-1.9490720000000001,219.5025,128.485,68.88
467,94528,-0.121512,-0.549488,-1.0384639999999998,219.485,182.315,38.71
468,94626,1.340048,-2.8538240000000004,-0.659532,213.2725,236.005,32.2
469,94724,1.837076,-1.9734720000000001,-2.0769279999999997,74.655,268.73,47.7575
470,94822,1.576484,-0.48433999999999994,-1.45302,-4.795,236.425,61.0925
471,94920,1.2078,1.72386,-1.5384200000000001,-37.7825,190.8375,45.7275
472,95018,2.28872,1.8160919999999998,-1.911252,7.5075,192.15,39.7425
473,95117,0.636596,-0.116632,-1.112884,86.765,76.30001,30.59
474,95215,0.624884,-0.18104800000000001,-1.1468,78.26,71.5575,32.76
475,95313,0.9181720999999999,0.363072,-1.128744,46.4625,72.66,23.765
476,95411,0.587064,-0.09784401,-1.048712,54.145,43.9425,18.7775
477,95509,0.5743761,-0.002196,-0.974292,47.18,29.9775,14.7
478,95607,0.577548,0.164456,-0.96014,33.46,23.5725,10.185
479,95705,0.5724239999999999,0.020252000000000003,-0.9674601,33.11,16.135,8.715
480,95803,0.59536,0.0122,-0.921344,25.7075,10.9725,6.3525
481,95901,0.49556400000000006,0.06124401,-0.906216,17.5525,4.34,3.0625
482,96000,0.5072760000000001,0.08174001,-0.895236,13.9825,4.445,1.5575
483,96098,0.49532,0.091012,-0.883036,11.1475,2.66,0.3675
484,96196,0.49824799999999997,0.09735601,-0.8784,8.75,1.7675,-0.6475
485,96294,0.495076,0.09979600000000001,-0.8788879999999999,6.9125,1.12,-1.435
486,96392,0.493856,0.09711201,-0.8744960999999999,5.635,1.05,-1.75
487,96490,0.48653599999999997,0.10906800000000001,-0.8757159999999999,4.8125,0.8225,-1.96
488,96588,0.486292,0.116876,-0.868396,4.7425,0.6825,-1.995
489,96686,0.48824399999999996,0.106628,-0.86498,4.795,0.3675,-1.8025
490,96784,0.48531599999999997,0.110044,-0.86498,4.6725,0.07,-1.96
491,96883,0.47702,0.105896,-0.8640040000000001,4.655,-0.035,-2.0125
492,96981,0.47458,0.10687200000000001,-0.8647360000000001,4.7775,0.5075,-1.96
493,97079,0.47775200000000007,0.10614000000000001,-0.8625401,4.9525,0.805,-1.7675
494,97177,0.476288,0.11248399999999999,-0.859856,4.795,0.665,-1.5225
495,97275,0.480436,0.12322000000000001,-0.8571719999999999,4.6725,0.91,-1.2425
496,97373,0.485072,0.09930800000000001,-0.853024,5.3375,0.8925,-0.6825
497,97471,0.48092399999999996,0.10321199999999998,-0.8586360000000001,5.915,0.9275,-0.6475
498,97569,0.48312,0.09247601,-0.863516,6.0375,1.7675,-0.665
499,97668,0.48385200000000006,0.09125599999999999,-0.8657120999999999,6.475,2.2225,-0.455
500,97766,0.48653599999999997,0.091744,-0.8610761,6.65,2.7475,-0.5775
501,97864,0.485072,0.09979600000000001,-0.8625401,6.3525,3.395,-0.5775
502,97962,0.490928,0.10004,-0.861808,6.3,4.13,-0.5775
503,98060,0.50142,0.10052799999999999,-0.862296,6.7375,5.145,-0.7525
504,98158,0.49263599999999996,0.101992,-0.8579041,7.245,5.7225,-0.56
505,98256,0.49117200000000005,0.102724,-0.8601,8.0325,6.2125,-0.3675
506,98354,0.49776000000000004,0.091744,-0.85888,8.645,6.7725,-0.105
507,98452,0.491904,0.09418401,-0.861808,8.925,7.91,-0.42
508,98550,0.494588,0.09418401,-0.8647360000000001,8.82,9.415,-0.5775
509,98649,0.502152,0.081984,-0.8642481,8.7325,11.3575,-0.7875
510,98747,0.47994799999999993,0.05856,-0.877668,7.455,13.3175,-0.91
511,98845,0.47702,0.09028,-0.885964,4.48,16.765,-0.875
512,98943,0.376736,0.08442401,-0.9267120000000001,2.625,21.9975,0.315
513,99041,0.498004,0.090768,-0.8818159999999999,0.455,32.6375,2.3275
514,99139,0.486292,0.038064,-0.8903561,-0.8925,39.4275,3.08
515,99237,0.48824399999999996,0.050752,-0.8930401,-2.66,46.9525,2.3975
516,99335,0.47067600000000004,0.053191999999999996,-0.9189040999999999,-4.6725,57.1725,2.4325
517,99433,0.462136,0.098332,-0.951356,-7.0875,71.19,3.7275
518,99532,0.42578,0.14005599999999999,-0.9833200000000001,-9.9925,87.7275,6.5975
519,99630,0.419192,0.08417999999999999,-0.9903959999999999,-11.235,107.8875,10.9025
520,99728,0.35038400000000003,0.01708,-1.079212,-13.265,131.075,13.2475
521,99826,0.316956,0.031964,-1.130696,-19.4075,158.445,12.6525
522,99924,0.283528,0.081252,-1.173884,-28.42,190.645,12.5825
523,100022,0.30622,0.1464,-1.285392,-36.505,227.6575,13.6675
524,100120,0.22643200000000002,0.196176,-1.230004,-37.345,269.8325,17.71
525,100218,0.31598000000000004,0.30744,-1.285392,-25.1125,318.2025,25.6025
526,100316,0.633424,0.40138,-1.428132,-8.9425,377.615,29.6275
527,100415,1.2038959999999999,0.396012,-1.494744,-5.5125,419.5975,24.5175
528,100513,1.526952,0.179096,-1.659444,-17.43,445.1825,25.5325
529,100611,1.4478959999999998,0.7600600000000001,-1.648464,-25.2875,469.2275,53.7775
530,100709,1.99836,0.004636001,-1.572336,6.615,468.545,73.7275
531,100807,1.921988,0.114436,-2.101328,-31.7975,437.745,69.5625
532,100905,1.006744,0.223504,-2.073024,-89.72251,380.03,69.965
533,101003,-1.051884,0.711992,-2.106208,-130.935,302.89,69.0375
534,101102,1.3978760000000001,1.267336,-1.297836,-173.075,252.1225,43.505
535,101200,2.168672,1.803648,-2.977044,-182.175,254.3975,46.3225
536,101298,0.438224,2.223328,-2.776964,-80.6225,20.93,-1.225
537,101396,-0.6117081,1.5645280000000001,-1.9083240000000001,35.9275,-109.9875,-13.1075
538,101494,-0.771772,0.50874,-1.392752,144.1475,-160.335,16.31
539,101592,-0.57584,-0.152988,-1.16632,159.3725,-170.2575,43.225
540,101690,-0.284748,-0.41406800000000005,-1.1211799999999998,99.38251,-176.295,59.2725
541,101788,-0.081984,-0.23301999999999998,-1.119472,2.3275,-195.265,59.57
542,101886,-0.066124,0.29792399999999997,-1.079944,-80.7275,-227.71,44.03
543,101985,-0.033428,0.6980841,-1.007232,-109.5325,-257.7925,28.2625
544,102083,0.063684,0.820572,-0.952332,-91.1225,-279.09,14.9975
545,102181,0.19861600000000001,0.656116,-0.888648,-53.7425,-293.5625,-0.8225
546,102279,0.29646,0.39528,-0.8298440999999999,-27.37,-305.3575,-20.2825
547,102377,0.404064,0.213988,-0.8322841000000001,-25.06,-313.4075,-40.3725
548,102475,0.542168,0.100284,-0.8698601,-38.0975,-318.325,-57.3475
549,102573,0.692716,0.05977999999999999,-0.9613601,-56.14,-321.4925,-68.1625
550,102671,0.863028,0.042212,-1.088484,-71.1025,-324.1525,-72.275
551,102769,1.03578,-0.000244,-1.198772,-80.36,-328.4225,-70.8225
552,102868,1.1834,-0.09711201,-1.229516,-87.64,-335.195,-64.4525
553,102966,1.278316,-0.190564,-1.159732,-97.45749,-340.9525,-53.69
554,103064,1.341756,-0.12980799999999998,-1.088484,-111.2475,-339.955,-39.62
555,103162,1.4783959999999998,-0.012931999999999999,-1.117276,-123.8125,-330.4,-27.5625
556,103260,1.7267880000000002,0.197884,-1.2456200000000002,-136.3075,-316.0675,-24.8675
557,103358,2.001044,0.449204,-1.345904,-147.6825,-305.97,-34.3525
558,103456,2.151836,0.62342,-1.319552,-153.7375,-301.805,-54.845
559,103554,2.204296,0.708088,-1.179008,-151.69,-296.485,-87.395
560,103653,2.226744,0.6885680999999999,-1.041636,-137.6375,-283.675,-126.2975
561,103751,2.244556,0.43334399999999995,-0.916464,-110.1625,-263.0425,-165.585
562,103849,2.370704,0.16201600000000002,-0.726876,-77.7,-239.435,-201.9675
563,103947,2.471964,0.174948,-0.47702,-39.5325,-218.7675,-226.695
564,104045,2.570052,0.14347200000000002,-0.105896,12.4425,-200.27,-229.5475
565,104143,2.4512240000000003,-0.596336,0.577548,75.0575,-184.135,-212.5725
566,104241,2.262368,-1.286612,1.1477760000000001,85.1025,-152.005,-183.575
567,104339,2.485872,-1.40788,1.2871,30.1,-89.95,-151.27
568,104437,2.9197040000000003,-1.182424,1.167052,-29.0675,-27.1775,-107.695
569,104535,2.9636240000000003,-0.700036,0.9703879999999999,-56.63,13.965,-56.42
570,104634,1.48718,0.63318,0.718824,-26.18,41.1075,-12.18
571,104732,1.570384,0.9703879999999999,1.0797,102.5325,153.5625,-6.685
572,104830,-0.443104,0.403088,-1.209264,207.06,154.0875,6.4575
573,104928,-0.203008,-0.29646,-1.6750599999999998,237.475,207.7775,-3.395
574,105026,1.3029600000000001,-3.595096,-0.21081599999999998,272.615,244.8425,-8.61
575,105124,1.6565159999999999,-2.819664,-1.903688,98.21,298.585,8.47
576,105222,1.934432,-1.18706,-1.6814040000000001,-8.4525,284.9525,61.6175
577,105320,1.299788,1.887584,-1.553548,-56.6125,237.545,51.52
578,105418,3.145648,2.059604,-2.3441080000000003,-9.065,232.61,40.495
579,105517,0.582184,-0.372344,-1.10166,101.115,80.2375,32.3925
580,105615,0.892552,-0.262788,-1.310036,84.7525,74.865,33.2675
581,105713,0.921344,0.296704,-1.127768,42.77,71.5225,20.195
582,105811,0.443592,0.040504000000000005,-0.9699,51.45,32.2875,15.7675
583,105909,0.705892,0.014152000000000001,-1.026752,46.9175,31.115,14.175
584,106007,0.58072,0.046848,-0.9547720999999999,32.935,19.39,9.765
585,106105,0.518012,0.09930800000000001,-0.9384239999999999,24.4475,8.435,5.74
586,106203,0.5368,0.033184,-0.909632,19.39,7.035,3.6925
587,106301,0.495076,0.070516,-0.8940161,14.2275,3.605,1.26
588,106400,0.500444,0.08662001,-0.8962120000000001,10.675,2.31,-0.3675
589,106498,0.49995600000000007,0.081496,-0.8849879999999999,8.5925,1.7675,-1.3125
590,106596,0.49434399999999995,0.10809200000000001,-0.8808401,6.0025,1.6275,-2.1
591,106694,0.48848800000000003,0.091012,-0.8791321,4.4975,1.155,-2.485
592,106792,0.490196,0.09418401,-0.873764,3.325,0.8400001,-2.94
593,106890,0.479704,0.113704,-0.865956,2.555,0.6475,-3.3075
594,106988,0.487512,0.132248,-0.8613200000000001,2.8875,0.28,-3.1675
595,107086,0.48312,0.117852,-0.863028,3.815,0.1575,-2.6775
596,107184,0.47384799999999994,0.101504,-0.8642481,4.2525,0.1925,-2.485
597,107283,0.46774799999999994,0.121024,-0.8664440000000001,4.375,0.7,-2.4325
598,107381,0.467992,0.12932000000000002,-0.859856,4.8825,1.54,-2.0475
599,107479,0.4819,0.13176,-0.869128,5.53,1.54,-1.4175
600,107577,0.48433999999999994,0.12712400000000001,-0.853512,6.265,1.47,-0.5075
601,107675,0.47604399999999997,0.12053599999999999,-0.862784,6.965,1.3475,-0.105
602,107773,0.487756,0.101992,-0.8579041,7.6475,1.6975,0.0525
603,107871,0.482876,0.11345999999999999,-0.8576601,7.805,1.575,0.0875
604,107969,0.49166000000000004,0.10906800000000001,-0.8544879999999999,8.0675,1.925,0.2975
605,108067,0.48702399999999996,0.09345201,-0.858392,8.9075,1.9425,0.455
606,108166,0.490928,0.09052401,-0.865956,8.6275,2.4675,0.2975
607,108264,0.489708,0.091012,-0.8613200000000001,8.0325,2.415,0.28
608,108362,0.491904,0.092964,-0.8615640999999999,8.3475,3.15,0.2625
609,108460,0.49288000000000004,0.094672,-0.861808,8.645,3.9025,0.1225
610,108558,0.49727200000000005,0.085888,-0.8576601,8.4175,4.69,0.0175
611,108656,0.503128,0.08808401,-0.858392,8.33,5.18,-0.4725
612,108754,0.517768,0.077592,-0.8586360000000001,8.0675,5.74,-0.595
613,108852,0.494588,0.09638,-0.8615640999999999,7.665,6.58,-1.085
614,108950,0.49556400000000006,0.10052799999999999,-0.8640040000000001,6.9125,7.0175,-0.945
615,109049,0.48068,0.090036,-0.8727879999999999,6.8775,8.3825,-0.7175
616,109147,0.471408,0.07612801,-0.8796200000000001,5.985,11.27,-0.2975
617,109245,0.461892,0.08100801,-0.8901120000000001,3.8675,15.1375,-0.035
618,109343,0.397476,0.069052,-0.909632,2.6425,20.8425,0.4025
619,109441,0.5002,0.070516,-0.88328,0.5075,31.0275,1.8725
620,109539,0.486048,0.023180000000000003,-0.8842561,-0.8400001,36.5225,1.89
621,109637,0.49702799999999997,0.04392,-0.9042641,-2.415,44.765,1.5225
622,109735,0.48312,0.069052,-0.9140241,-4.6025,53.725,1.12
623,109833,0.458232,0.107848,-0.9418401,-6.79,65.345,2.2925
624,109932,0.441396,0.109556,-0.96014,-8.89,80.6225,4.9875
625,110030,0.41723999999999994,0.08100801,-0.9711200999999999,-10.36,98.77,8.225
626,110128,0.390888,0.042456,-1.0255319999999999,-13.4225,118.3875,10.0275
627,110226,0.355752,-0.02806,-1.048956,-17.185,140.1225,9.59
628,110324,0.327692,-0.01098,-1.09556,-25.305,166.1275,7.21
629,110422,0.309392,0.05124001,-1.18584,-35.84,197.155,2.7825
630,110520,0.27889200000000003,0.19885999999999998,-1.291248,-46.655,234.22,0.8225
631,110618,0.34648,0.309148,-1.266604,-42.7175,276.36,5.2675
632,110717,0.34867600000000004,0.381128,-1.284904,-29.645,325.99,11.2875
633,110815,0.57462,0.35868,-1.617964,-9.765,379.715,7.7875
634,110913,1.2700200000000001,0.35136,-1.643584,-18.1125,422.975,5.81
635,111011,1.552816,0.34721199999999997,-1.8522040000000002,-34.475,480.62,24.36
636,111109,1.689456,0.732244,-1.747528,-29.4525,516.915,61.1975
637,111207,2.202344,-0.045872,-1.7489919999999999,-5.3025,508.9875,78.575
638,111305,1.868308,0.16714,-2.251144,-64.0325,460.4075,70.98001
639,111403,0.786412,0.308904,-2.3311759999999997,-115.29,392.2975,78.225
640,111501,-2.221376,0.7754321,-2.013488,-153.9475,294.0875,74.06
641,111600,2.201124,1.441308,-2.850652,-201.8625,267.61,56.525
642,111698,2.0862,1.640168,-2.74744,-207.3225,214.9,66.7975
643,111796,0.1342,2.440244,-2.60226,-113.0325,-33.915,20.615
644,111894,-0.7556681,1.5135319999999999,-1.60674,27.1775,-155.5575,4.13
645,111992,-0.7476161,0.618784,-1.1241079999999999,128.2575,-182.7875,32.48
646,112090,-0.453596,0.060267999999999995,-0.954528,142.1175,-182.2275,49.0
647,112188,-0.149572,-0.125172,-0.9708760000000001,90.59751,-187.7575,50.9775
648,112286,-0.042212,0.064416,-0.9977159999999999,12.285,-206.815,36.6975
649,112384,-0.006832001,0.453596,-0.9581881,-47.53,-235.025,10.5
650,112483,0.06832001,0.713212,-0.9191481,-60.8125,-261.6075,-11.48
651,112581,0.190808,0.731268,-0.8752280000000001,-36.015,-282.485,-27.7375
652,112679,0.329888,0.533628,-0.81862,0.1225,-298.27,-42.315
653,112777,0.42602399999999996,0.275964,-0.782508,23.625,-312.4275,-56.5775
654,112875,0.496296,0.121268,-0.784216,24.99,-324.52,-70.0875
655,112973,0.593896,0.052948,-0.833016,14.035,-332.395,-79.4325
656,113071,0.759084,0.05636401,-0.9259799999999999,0.3325,-336.98,-82.53
657,113169,0.9340321,0.07808001,-1.043588,-10.6925,-341.4425,-79.485
658,113267,1.0845799999999999,0.069052,-1.134356,-18.375,-347.935,-73.465
659,113366,1.2219520000000001,0.010492,-1.1716879999999998,-26.04,-356.16,-65.8175
660,113464,1.337364,0.019032,-1.133624,-37.7475,-363.7375,-56.735
661,113562,1.434232,0.133956,-1.090436,-52.815,-366.7125,-46.515
662,113660,1.507188,0.248148,-1.074088,-65.15250999999999,-362.53,-38.885
663,113758,1.6723759999999999,0.372832,-1.085312,-76.1775,-350.56,-36.47
664,113856,1.9358959999999998,0.542656,-1.1385040000000002,-90.79,-332.9725,-38.605
665,113954,2.176968,0.69906,-1.174128,-108.2025,-314.0025,-49.315
666,114052,2.302384,0.762012,-1.090924,-124.6175,-296.38,-72.87
667,114151,2.291404,0.7986121,-0.9318360000000001,-135.4675,-278.4075,-104.7725
668,114249,2.274812,0.79056,-0.796416,-134.9075,-256.5675,-136.115
669,114347,2.1774560000000003,0.484584,-0.626836,-120.4525,-232.295,-162.6275
670,114445,1.991528,-0.42602399999999996,-0.254492,-101.71,-208.1975,-189.0875
671,114543,2.3719240000000004,-0.03294,-0.19959200000000002,-104.58,-176.015,-211.3125
672,114641,2.5632200000000003,-0.014396,0.037088,-67.27,-151.2,-197.9775
673,114739,2.366556,-0.781776,0.47702,-1.0675,-138.1275,-159.67
674,114837,2.41926,-1.236348,0.805688,10.6925,-112.0525,-123.2875
675,114935,2.483188,-1.291248,0.9655081,-20.4575,-73.675,-81.2875
676,115033,2.461716,-0.9752681000000001,0.960628,-59.9375,-32.3575,-32.935
677,115132,2.3841240000000004,-0.494588,0.7822640000000001,-75.9675,6.0375,8.1375
678,115230,2.0984,-0.148596,0.550708,-62.2475,38.3075,32.655
679,115328,1.002108,0.8103239999999999,-0.050996,-34.4575,65.5375,34.125
680,115426,-0.104676,1.049688,-0.259372,99.05001,86.59,-8.89
681,115524,-0.783972,1.3066200000000001,-1.896612,190.9425,184.8,-10.255
682,115622,-0.5070319999999999,0.161528,-0.5172800999999999,299.04,152.0225,4.2525
683,115720,1.4435040000000001,-3.9101,-0.45457200000000003,378.84,243.9325,45.465
684,115818,1.9346759999999998,-3.463824,-2.303604,165.0425,275.94,56.3675
685,115916,1.35542,-1.5281719999999999,-1.514508,16.73,239.12,63.455
686,116015,1.802428,1.974936,-2.068876,-61.3025,213.815,45.22
687,116113,2.091812,1.42008,-1.742404,-6.2825,189.1575,24.7275
688,116211,0.37088000000000004,-0.022203999999999998,-1.093364,75.1975,70.805,24.36
689,116309,0.60146,0.131272,-1.0201639999999998,57.6625,84.33249,27.16
690,116407,0.94306,0.46335600000000005,-1.111664,46.3225,85.68,25.1475
691,116505,0.6893,-0.223992,-1.11996,59.815,55.8775,23.03
692,116603,0.585112,0.056608000000000006,-1.06018,47.95,37.38,18.025
693,116701,0.582428,0.17397200000000002,-0.978928,33.145,28.6125,11.48
694,116799,0.5653481,-0.040504000000000005,-1.006744,35.63,17.6925,10.115
695,116897,0.5458281,0.056852,-0.9684360999999999,25.97,12.215,6.545
696,116996,0.468236,0.064416,-0.9274440999999999,19.0225,6.8425,3.2725
697,117094,0.47213999999999995,0.085156,-0.921832,15.5925,6.1425,1.6625
698,117192,0.47043199999999996,0.09930800000000001,-0.9076799999999999,12.3725,5.6875,0.315
699,117290,0.48385200000000006,0.09638,-0.898408,9.9575,5.5825,-0.5775
700,117388,0.485072,0.11345999999999999,-0.889136,7.21,4.8125,-1.6275
701,117486,0.475312,0.10638399999999999,-0.885964,5.285,4.4625,-2.065
702,117584,0.453108,0.11467999999999999,-0.885476,4.2175,3.9375,-2.485
703,117682,0.442616,0.139568,-0.8791321,4.13,4.2525,-2.59
704,117781,0.4594521,0.145424,-0.869128,5.425,4.9175,-2.0825
705,117879,0.47213999999999995,0.120048,-0.885476,6.5625,5.32,-1.3475
706,117977,0.45871999999999996,0.099552,-0.8786440999999999,6.1775,5.005,-1.3475
707,118075,0.4553041,0.122,-0.87474,5.145,4.76,-1.785
708,118173,0.45725600000000005,0.14078800000000002,-0.8679081,5.145,5.1625,-1.61
709,118271,0.47653199999999996,0.121512,-0.8703481,6.195,5.3025,-0.8575
710,118369,0.47677600000000003,0.123708,-0.8576601,6.2125,4.795,-0.3675
711,118467,0.47384799999999994,0.104676,-0.8620521000000001,6.44,4.7775,-0.14
712,118565,0.47165200000000007,0.10760399999999999,-0.8601,6.4575,5.5475,0.0
713,118664,0.484584,0.10858,-0.863028,6.825,5.775,-0.035
714,118762,0.47213999999999995,0.10760399999999999,-0.870592,7.2275,5.005,-0.0875
715,118860,0.487756,0.0976,-0.864492,7.2625,5.145,-0.2275
716,118958,0.479704,0.10492,-0.8666879999999999,7.21,5.7225,-0.77
717,119056,0.48385200000000006,0.09320801,-0.8642481,7.1925,4.6725,-0.9625
718,119154,0.488,0.110776,-0.8666879999999999,7.28,5.3025,-1.2775
719,119252,0.483608,0.10345599999999999,-0.868884,7.8225,6.3,-0.9625
720,119350,0.48726800000000003,0.101504,-0.8674200000000001,8.0675,7.7175,-0.49
721,119448,0.482876,0.10614000000000001,-0.868396,8.61,8.26,-0.735
722,119547,0.487512,0.091744,-0.863516,9.2925,8.8725,-0.2975
723,119645,0.50752,0.07564,-0.870592,8.61,9.73,-0.455
724,119743,0.48702399999999996,0.071492,-0.8708360999999999,7.21,10.71,-1.1375
725,119841,0.47482399999999997,0.081496,-0.8784,5.5825,12.6175,-1.6625
726,119939,0.46311199999999997,0.09223200000000001,-0.8913321,3.7975,14.8575,-1.2425
727,120037,0.40528400000000003,0.08344800000000001,-0.9098761000000001,2.7125,18.8125,-0.7
728,120135,0.4819,0.10906800000000001,-0.8940161,1.3125,27.8775,0.5425
729,120233,0.47823999999999994,0.068564,-0.8954801,1.5225,34.8075,1.33
730,120331,0.48848800000000003,0.046360000000000005,-0.8937719999999999,-0.0175,41.4575,1.3125
731,120430,0.489708,0.048068,-0.8959681,-2.835,48.8775,0.7525
732,120528,0.48556000000000005,0.071492,-0.91012,-5.4775,57.26,-0.0175
733,120626,0.45506,0.109556,-0.9362280000000001,-7.9275,68.18,0.98
734,120724,0.447008,0.10248,-0.9596520000000001,-10.325,82.5475,3.43
735,120822,0.505324,0.08296,-1.0248,-11.8825,98.14,5.81
736,120920,0.37502800000000003,0.028548,-1.017236,-14.0175,114.9925,7.49
737,121018,0.395768,0.01708,-0.9969841,-18.6725,133.4025,7.0525
738,121116,0.39405999999999997,-0.021472,-1.0126,-25.7075,153.3525,3.8675
739,121214,0.38503200000000004,-0.0051240009999999996,-1.104588,-35.0175,180.1275,-1.3125
740,121313,0.326228,0.137372,-1.186328,-47.25,210.455,-6.7025
741,121411,0.370636,0.328912,-1.286612,-48.335,246.6275,-7.3675
742,121509,0.32696,0.33379200000000003,-1.23098,-34.755,291.41,-4.62
743,121607,0.493612,0.35087199999999996,-1.4774200000000002,-21.4375,344.3825,-4.795
744,121705,1.063596,0.347456,-1.536224,-22.54,383.25,-10.4475
745,121803,1.5257319999999999,0.34794400000000003,-1.62504,-31.8325,430.9025,-0.175
746,121901,1.7160520000000001,0.38795999999999997,-1.633824,-29.0325,466.9175,22.925
747,121999,1.905152,0.207156,-1.8412240000000002,-23.6775,483.0875,47.0925
748,122098,1.9293080000000002,-0.047336,-2.006656,-44.59,463.715,50.085
749,122196,1.350296,-0.031476,-2.066436,-105.4375,417.7075,48.37
750,122294,0.450424,0.19032000000000002,-2.252364,-148.6625,361.0775,53.165
751,122392,-1.924916,0.755424,-1.2322,-194.6525,272.23,41.2475
752,122490,2.534672,1.5067,-3.7854160000000006,-231.525,296.3625,60.06
753,122588,1.695312,1.6326040000000002,-2.672288,-181.44,167.5275,75.3725
754,122686,0.37746799999999997,1.911252,-2.501488,-74.2175,-29.82,58.45
755,122784,-0.334524,1.152412,-1.62382,62.7025,-146.755,62.545
756,122882,-0.59048,0.5002,-1.1346,144.7075,-190.925,92.26001
757,122981,-0.51118,0.106628,-0.893284,154.875,-196.77,112.21
758,123079,-0.35477600000000004,0.002928,-0.844484,109.4975,-196.35,114.52
759,123177,-0.236436,0.134688,-0.815448,38.2375,-203.175,96.32
760,123275,-0.11614400000000001,0.454816,-0.8342360000000001,-28.8225,-216.0025,63.735
761,123373,-0.013908000000000002,0.76494,-0.8601,-62.7375,-235.9175,27.6325
762,123471,0.10540799999999999,0.8827921000000001,-0.839116,-56.91,-256.27,-3.8675
763,123569,0.212036,0.796416,-0.795928,-28.56,-274.995,-28.0175
764,123667,0.28792,0.5248441,-0.7381001,1.26,-290.3425,-45.3075
765,123765,0.383812,0.256688,-0.74298,12.2675,-301.4025,-57.8375
766,123864,0.518012,0.08637601,-0.791048,2.135,-309.9775,-67.3925
767,123962,0.650992,0.022203999999999998,-0.85644,-19.04,-317.5375,-72.31
768,124060,0.780556,0.027572000000000003,-0.9552601000000001,-41.0725,-324.6075,-72.6425
769,124158,0.9315921,0.05172801,-1.057496,-57.225,-331.2225,-69.4575
770,124256,1.10166,0.046848,-1.149484,-66.43,-338.905,-62.16
771,124354,1.252208,0.018788,-1.203652,-72.8875,-347.8475,-52.535
772,124452,1.363716,-0.020984,-1.175348,-80.43,-356.335,-42.9275
773,124550,1.422032,-0.015616,-1.080432,-90.755,-360.885,-33.6875
774,124648,1.479372,0.09589201,-1.0565200000000001,-104.2475,-356.1775,-25.865
775,124747,1.601372,0.23155599999999998,-1.094584,-116.97,-342.895,-23.2925
776,124845,1.8051119999999998,0.47384799999999994,-1.1873040000000001,-130.4625,-325.15,-29.3475
777,124943,2.02276,0.698328,-1.288076,-141.3825,-308.77,-45.115
778,125041,2.2301599999999997,0.85156,-1.282464,-146.02,-296.59,-75.2675
779,125139,2.3807080000000003,0.941108,-1.1655879999999998,-141.3825,-286.44,-114.7475
780,125237,2.3738759999999997,0.80276,-0.941108,-123.06,-273.7,-152.5475
781,125335,2.27774,0.25254,-0.565836,-96.46,-251.685,-186.1125
782,125433,2.4090119999999997,0.162748,-0.25522399999999995,-79.0825,-216.825,-215.2325
783,125532,2.672044,0.271572,-0.000244,-48.93,-182.4025,-222.1975
784,125630,2.548092,-0.42773199999999995,0.655384,14.875,-160.3525,-199.92
785,125728,2.50588,-0.9354959999999999,1.039196,34.3,-128.31,-163.52
786,125826,2.710596,-1.337608,1.27978,-2.0125,-76.8775,-122.395
787,125924,2.865536,-1.125572,1.206092,-65.765,-24.78,-83.0375
788,126022,2.780136,-0.6378159999999999,1.007476,-102.8475,16.9925,-45.7625
789,126120,2.501976,-0.236192,0.732244,-92.34751,51.2575,-12.1625
790,126218,1.4513120000000002,0.45579200000000003,0.13298,-51.765,79.3275,6.58
791,126316,-0.540704,1.097024,-0.9237841,87.0275,87.74501,-25.48
792,126415,-0.808372,0.984296,-2.111088,209.3875,188.65,-34.265
793,126513,-1.089216,-0.10394400000000001,-0.338428,275.3975,158.8125,-26.74
794,126611,1.297104,-4.1972879999999995,-0.027327999999999998,351.3475,258.8425,4.27
795,126709,2.434388,-3.507744,-2.528084,129.8325,323.8375,30.7475
796,126807,1.621868,-1.61284,-1.428864,17.57,262.22,68.9325
797,126905,0.749812,1.9246720000000002,-1.473516,-52.5875,226.905,62.6675
798,127003,3.5065239999999998,2.240408,-2.485384,-3.1675,240.065,41.1775
799,127101,0.626836,-0.31402800000000003,-1.0845799999999999,113.925,89.2675,37.8175
800,127199,0.6878361,-0.364292,-1.281976,97.895,70.945,37.0125
801,127298,1.021872,0.33379200000000003,-1.148264,52.99,76.16001,22.1725
802,127396,0.388448,0.023424,-0.97478,56.0525,33.1625,15.9425
803,127494,0.7017439999999999,0.037088,-1.048956,52.2375,34.1775,15.8025
804,127592,0.6527,-0.008540001,-0.9767321,37.275,23.7125,10.9025
805,127690,0.558272,0.09272000000000001,-0.9376921,25.8825,9.5725,6.37
806,127788,0.518988,0.057339999999999995,-0.9059721,20.335,7.07,4.0425
807,127886,0.477996,0.08637601,-0.8940161,16.4325,3.3075,2.205
808,127984,0.48312,0.09272000000000001,-0.887916,13.1425,3.0975,0.805
809,128082,0.489464,0.101748,-0.8940161,10.745,2.975,0.07
810,128181,0.48922,0.108824,-0.8849879999999999,9.24,2.6775,-0.49
811,128279,0.477508,0.10858,-0.876692,7.8225,2.5375,-1.0675
812,128377,0.48556000000000005,0.090768,-0.8796200000000001,6.9125,2.59,-1.295
813,128475,0.47360399999999997,0.107848,-0.8740081000000001,5.5825,2.0475,-1.7325
814,128573,0.47702,0.119072,-0.869616,5.2675,1.8725,-1.9425
815,128671,0.4819,0.10321199999999998,-0.8671761,5.4075,1.9075,-1.715
816,128769,0.48092399999999996,0.10126,-0.8703481,4.97,1.8375,-1.8725
817,128867,0.47360399999999997,0.10248,-0.8754719999999999,4.1475,1.8375,-2.1525
818,128966,0.473116,0.102724,-0.86864,3.1325,1.6625,-2.555
819,129064,0.471408,0.127856,-0.865956,3.045,2.31,-2.59
820,129162,0.47775200000000007,0.133224,-0.8586360000000001,4.235,2.6075,-2.1875
821,129260,0.47823999999999994,0.12444000000000001,-0.8586360000000001,5.635,2.59,-1.5225
822,129358,0.477508,0.116388,-0.858392,6.5625,2.9225,-1.12
823,129456,0.48214399999999996,0.10736,-0.8591241,6.9475,3.7975,-0.7175
824,129554,0.47482399999999997,0.094916,-0.8632719999999999,6.965,3.9025,-0.525
825,129652,0.493612,0.112972,-0.8581479999999999,7.0,3.5875,-0.6475
826,129750,0.499712,0.10004,-0.8613200000000001,7.0175,3.5875,-1.365
827,129849,0.49654,0.084912,-0.8601,7.385,3.885,-1.75
828,129947,0.49044,0.10248,-0.8605879999999999,7.2625,3.85,-1.4875
829,130045,0.479704,0.09638,-0.8671761,6.9475,4.445,-1.3825
830,130143,0.488976,0.100772,-0.8613200000000001,6.475,6.3875,-1.33
831,130241,0.493856,0.0976,-0.8591241,6.5625,7.9625,-1.365
832,130339,0.48995200000000005,0.09442801,-0.86498,6.9125,8.19,-1.0675
833,130437,0.49995600000000007,0.07588400000000001,-0.865468,6.545,9.1,-1.225
834,130535,0.490928,0.08637601,-0.869128,5.04,10.465,-1.785
835,130633,0.486048,0.094672,-0.8718120999999999,3.5,12.7225,-1.365
836,130732,0.4404201,0.08369201,-0.8908440999999999,2.7475,15.5925,-0.7875
837,130830,0.49654,0.09882,-0.87718,1.5925,21.35,0.4375
838,130928,0.466528,0.09150001,-0.8913321,0.525,25.305,1.0325
839,131026,0.493856,0.09028,-0.8884040000000001,-0.2625,32.4975,1.6975
840,131124,0.472872,0.058803999999999995,-0.8893800999999999,-0.875,39.2175,1.925
841,131222,0.48214399999999996,0.045872,-0.904752,-2.7125,48.37,2.0475
842,131320,0.462136,0.08003201,-0.9340321,-6.2475,59.08,2.31
843,131418,0.45261999999999997,0.10760399999999999,-0.942816,-9.1525,72.8525,3.955
844,131516,0.439688,0.079544,-0.9469641,-11.0775,88.70749,6.5625
845,131615,0.41113999999999995,0.05246,-0.9633120999999999,-13.9825,105.4025,8.645
846,131713,0.374052,0.005612,-1.019432,-16.87,123.5675,9.6075
847,131811,0.360632,0.027327999999999998,-1.065548,-23.73,146.5625,8.785
848,131909,0.331352,0.053436000000000004,-1.105076,-32.0075,174.055,7.875
849,132007,0.31451599999999996,0.09223200000000001,-1.218536,-40.0225,206.64,6.0025
850,132105,0.258152,0.284748,-1.266116,-48.3,245.8925,5.7575
851,132203,0.301584,0.370636,-1.288564,-40.6,290.115,14.4725
852,132301,0.37502800000000003,0.366976,-1.285392,-20.51,344.995,21.385
853,132400,0.809348,0.44725200000000004,-1.682136,-10.395,404.425,18.4975
854,132498,1.387628,0.388204,-1.654564,-27.37,448.175,23.87
855,132596,1.423984,0.47043199999999996,-1.8583040000000002,-29.1725,496.1075,50.015
856,132694,1.8180439999999998,0.597068,-1.887584,-11.27,517.72,80.6225
857,132792,2.101328,-0.0549,-1.843176,1.435,496.16,84.735
858,132890,1.50426,0.104676,-2.285792,-75.005,446.39,77.735
859,132988,0.22472399999999998,0.266448,-2.320928,-113.68,368.655,77.665
860,133086,-1.553304,0.8271601000000001,-0.826428,-173.2325,262.1325,53.2525
861,133184,2.780868,1.735816,-3.956948,-226.7125,297.0275,60.6375
862,133283,1.4391120000000002,1.8756279999999999,-2.561024,-185.78,134.19,42.315
863,133381,-0.00366,2.226988,-2.233332,-84.8925,-57.82,4.34
864,133479,-0.620492,1.2117040000000001,-1.3607879999999999,76.1775,-159.005,8.925
865,133577,-0.705404,0.37112399999999995,-0.8525360000000001,162.61,-183.505,42.805
866,133675,-0.52094,-0.08174001,-0.74908,159.9675,-180.915,62.8425
867,133773,-0.23838800000000002,-0.21106,-0.7476161,93.6075,-181.23,65.485
868,133871,-0.065148,0.062220000000000004,-0.771772,2.4675,-194.915,46.795
869,133969,-0.02684,0.546072,-0.7598161,-66.6225,-220.535,15.3475
870,134068,0.05856,0.8698601,-0.755424,-83.66751,-244.1425,-11.8475
871,134166,0.18446400000000002,0.9171961,-0.729804,-58.1525,-262.2375,-33.565
872,134264,0.291824,0.7017439999999999,-0.6944241,-17.395,-276.5175,-53.0775
873,134362,0.36575599999999997,0.404552,-0.685396,9.205,-289.17,-70.6125
874,134460,0.4636,0.203496,-0.7229720000000001,10.045,-297.9375,-85.295
875,134558,0.564372,0.09906401,-0.8071520000000001,-4.27,-304.9375,-93.695
876,134656,0.719312,0.081496,-0.93086,-23.0125,-310.625,-94.325
877,134754,0.9174399999999999,0.116388,-1.067256,-39.69,-316.9775,-89.0925
878,134852,1.110932,0.149328,-1.1836440000000001,-50.995,-326.48,-80.78
879,134951,1.2524520000000001,0.14274,-1.236348,-57.6975,-339.01,-71.2775
880,135049,1.350784,0.11834000000000001,-1.206336,-63.91,-350.7875,-61.775
881,135147,1.405928,0.13908,-1.1211799999999998,-71.505,-357.4375,-52.1325
882,135245,1.449116,0.13542,-1.0499319999999999,-79.905,-354.7075,-41.335
883,135343,1.592832,0.221308,-1.077504,-95.1475,-342.02,-33.1275
884,135441,1.8297560000000002,0.406016,-1.208288,-118.195,-323.995,-32.6375
885,135539,2.057652,0.624884,-1.311256,-141.715,-307.93,-43.4
886,135637,2.216496,0.8042239999999999,-1.313696,-158.8475,-296.9575,-65.8875
887,135735,2.285304,0.913048,-1.216828,-163.1175,-288.12,-97.44
888,135834,2.273348,0.8596120999999999,-1.059448,-151.305,-276.4825,-131.18
889,135932,2.112552,0.387228,-0.8327720999999999,-125.545,-260.1025,-164.2375
890,136030,2.102548,-0.202764,-0.437492,-99.5925,-234.57,-200.515
891,136128,2.4851400000000003,0.2562,-0.17641199999999999,-84.28,-198.2225,-224.245
892,136226,2.5866439999999997,-0.167384,0.374052,-14.8925,-172.935,-210.455
893,136324,2.4992919999999996,-1.0406600000000001,0.9767321,50.2425,-145.5125,-176.3125
894,136422,2.579324,-1.606252,1.31516,38.325,-94.395,-139.5975
895,136520,2.694248,-1.6440720000000002,1.43716,-12.1975,-24.885,-95.2875
896,136618,2.82064,-0.8601,1.118984,-44.205,42.28,-49.98
897,136717,3.069032,0.454084,1.0704280000000002,1.785,99.05001,-8.5225
898,136815,0.178608,0.479216,0.6466,176.5225,134.435,26.425
899,136913,-0.647576,-0.36844,-2.20332,324.2225,132.685,82.3725
900,137011,0.987956,-2.130364,-1.217804,314.965,220.5175,75.5825
901,137109,1.277584,-3.427224,-1.0406600000000001,234.185,250.4075,71.47
902,137207,1.832684,-1.58356,-1.9488279999999998,34.7375,269.3775,68.425
903,137305,1.365668,0.509716,-1.507188,-34.545,231.665,62.8775
904,137403,2.983388,1.961028,-2.224304,-24.465,213.955,44.5375
905,137501,0.6029241,0.765428,-0.894748,60.3575,92.54001,26.845
906,137600,0.5231359999999999,-0.316712,-1.2500120000000001,90.265,79.9575,34.195
907,137698,1.078968,0.130296,-1.2012120000000002,63.4375,83.37001,29.9425
908,137796,0.655384,0.21838000000000002,-1.040904,54.145,56.8225,22.96
909,137894,0.49995600000000007,-0.049288,-0.985516,57.75,35.35,20.2475
910,137992,0.6229319999999999,0.124928,-0.9784401,47.495,32.1475,16.24
911,138090,0.651968,0.030744,-1.002108,41.6325,22.1375,13.4575
912,138188,0.548024,-0.006587999999999999,-0.9418401,33.3725,13.3875,9.7125
913,138286,0.519476,0.040748,-0.908168,23.3275,8.925,5.11
914,138384,0.518012,0.07442,-0.8881600000000001,17.29,6.4225,2.5025
915,138483,0.517768,0.07832401,-0.8820601,13.685,5.8625,0.9625
916,138581,0.5104479999999999,0.07808001,-0.879376,10.57,4.235,-0.1575
917,138679,0.5009319999999999,0.071248,-0.8796200000000001,8.4875,3.255,-0.9275
918,138777,0.496784,0.07978801,-0.8949921000000001,7.0,1.995,-1.6975
919,138875,0.483608,0.156404,-0.8723001,5.705,1.855,-2.0825
920,138973,0.49556400000000006,0.13078399999999998,-0.85888,6.8775,2.345,-1.3125
921,139071,0.492392,0.09906401,-0.8669319999999999,7.315,1.785,-0.7525
922,139169,0.487756,0.09711201,-0.8759601,6.9475,1.6975,-0.8400001
923,139267,0.49312399999999995,0.092964,-0.869616,6.51,1.855,-1.19
924,139365,0.494832,0.119316,-0.8632719999999999,6.3175,1.995,-1.2775
925,139464,0.49556400000000006,0.133956,-0.863516,6.51,2.2225,-1.1375
926,139562,0.499712,0.10760399999999999,-0.85644,6.65,2.1,-0.63
927,139660,0.49702799999999997,0.10418800000000002,-0.85888,7.105,2.135,-0.385
928,139758,0.49995600000000007,0.10248,-0.854244,7.4025,2.065,-0.315
929,139856,0.49824799999999997,0.10004,-0.8586360000000001,7.2625,2.3275,-0.455
930,139954,0.49873599999999996,0.09247601,-0.8527800999999999,7.7,2.6075,-0.5425
931,140052,0.49995600000000007,0.085888,-0.8576601,7.5775,3.36,-0.63
932,140150,0.49824799999999997,0.093696,-0.8554641,7.4725,3.5525,-0.8225
933,140249,0.5016641,0.09589201,-0.8642481,7.4725,3.0975,-0.7875
934,140347,0.493612,0.094672,-0.8571719999999999,7.56,3.7625,-1.085
935,140445,0.503372,0.09052401,-0.8571719999999999,7.455,5.0575,-1.54
936,140543,0.51362,0.082472,-0.8544879999999999,7.945,4.865,-1.68
937,140641,0.503128,0.096868,-0.8549761,7.385,4.6725,-1.68
938,140739,0.49580799999999997,0.08100801,-0.859368,6.7725,5.5125,-1.6975
939,140837,0.499224,0.07612801,-0.8549761,5.5125,8.19,-1.4875
940,140935,0.499712,0.077836,-0.862784,4.0775,10.325,-1.4
941,141033,0.465308,0.09247601,-0.8784,3.3425,11.865,-0.8225
942,141132,0.4819,0.08954801,-0.87474,3.0275,15.2075,0.2275
943,141230,0.492148,0.104676,-0.871568,2.415,19.8275,1.365
944,141328,0.49849209999999994,0.081496,-0.8725440999999999,2.52,24.185,2.2225
945,141426,0.494588,0.07002799999999999,-0.8818159999999999,2.1175,28.735,2.3975
946,141524,0.487512,0.0793,-0.898164,0.8575,35.105,2.765
947,141622,0.506544,0.040260000000000004,-0.895236,0.0,44.3275,2.975
948,141720,0.48653599999999997,0.02928,-0.89792,-3.01,53.515,3.3425
949,141818,0.465796,0.03538,-0.9154880999999999,-7.0525,64.54,3.92
950,141916,0.45261999999999997,0.050996,-0.930616,-10.71,78.6975,4.165
951,142015,0.416508,0.068076,-0.974292,-14.315,94.67501,4.62
952,142113,0.403088,0.03172,-1.0065,-16.6425,112.91,5.4425
953,142211,0.377224,0.023424,-1.056032,-20.3875,134.9775,5.7575
954,142309,0.357948,0.07612801,-1.095316,-26.215,161.595,5.4775
955,142407,0.316224,0.155672,-1.191452,-33.4075,193.375,5.8275
956,142505,0.28328400000000004,0.252296,-1.292712,-38.4825,230.3175,9.0825
957,142603,0.31476,0.28548,-1.268068,-32.6725,272.4575,17.99
958,142701,0.363316,0.2928,-1.236592,-19.8975,322.2975,26.3725
959,142799,0.627568,0.398208,-1.549644,-3.3775,379.9775,25.3575
960,142898,1.133868,0.264984,-1.6623720000000002,-3.5175,425.0575,18.5675
961,142996,1.470588,0.5060560000000001,-1.8531799999999998,-21.6125,475.6325,35.6125
962,143094,1.5791680000000001,0.7171161,-1.7202,-8.7325,513.7825,69.51
963,143192,2.11548,0.014396,-1.599664,22.5925,511.4725,85.99501
964,143290,1.9717639999999999,0.188368,-2.149152,-30.1875,470.295,77.525
965,143388,0.843508,0.216916,-2.190632,-89.3025,405.2125,70.735
966,143486,-1.80194,0.679784,-2.1059639999999997,-140.525,313.7225,59.01
967,143584,1.730692,1.253672,-1.912716,-189.2275,266.8225,28.2275
968,143682,2.01422,1.706292,-2.647888,-208.67,246.89,18.83
969,143781,0.208864,2.33386,-2.5583400000000003,-110.18,8.9425,-38.2375
970,143879,-0.6109760000000001,1.4966959999999998,-1.7441119999999999,23.9575,-113.8375,-52.885
971,143977,-0.6917399999999999,0.37942,-1.2641639999999998,140.2975,-157.395,-17.5525
972,144075,-0.499712,-0.295484,-1.085312,154.42,-168.84,10.85
973,144173,-0.19154000000000002,-0.526308,-1.092388,94.16751,-178.7275,25.4275
974,144271,0.037332,-0.336476,-1.1094680000000001,1.435,-201.775,26.7225
975,144369,0.059536,0.15054800000000002,-1.060424,-71.75,-238.245,15.015
976,144467,0.10906800000000001,0.501908,-0.998692,-91.5075,-271.8275,5.9325
977,144565,0.22935999999999998,0.5946279999999999,-0.9623360999999999,-66.53501,-296.9225,0.56
978,144664,0.348432,0.458232,-0.873276,-25.9875,-315.2975,-8.82
979,144762,0.41504399999999997,0.229604,-0.81374,3.5525,-329.5075,-20.6675
980,144860,0.487512,0.07246799999999999,-0.799588,10.4125,-339.185,-33.985
981,144958,0.574132,0.006344,-0.8352120000000001,1.2425,-343.35,-46.655
982,145056,0.7134560999999999,-0.003172,-0.9325680000000001,-13.3525,-343.1925,-56.07
983,145154,0.8849879999999999,0.018544,-1.032608,-26.775,-341.775,-61.6875
984,145252,1.05408,0.043432,-1.12484,-36.0675,-342.195,-63.6825
985,145350,1.214876,0.040748,-1.148752,-41.825,-344.19,-61.8975
986,145448,1.335412,0.031476,-1.108248,-47.8625,-345.66,-57.8725
987,145547,1.42984,0.113704,-1.0948280000000001,-56.245,-342.8425,-53.4625
988,145645,1.550864,0.332328,-1.153632,-65.135,-333.7425,-49.0875
989,145743,1.7326439999999999,0.6109760000000001,-1.2465959999999998,-70.595,-322.49,-49.42
990,145841,1.933212,0.8818159999999999,-1.311256,-73.36,-314.58,-61.2325
991,145939,2.083516,1.0723799999999999,-1.260504,-74.795,-309.225,-88.53251
992,146037,2.1591560000000003,1.198284,-1.106296,-71.3125,-301.4725,-130.935
993,146135,2.185996,1.249768,-0.9506241,-58.8875,-285.7225,-179.62
994,146233,2.2972599999999996,1.1834,-0.83936,-36.19,-262.675,-225.295
995,146331,2.173552,0.9591639999999999,-0.786412,-4.7425,-239.575,-262.745
996,146430,2.7406080000000004,0.009028000999999999,0.024644,35.56,-196.0525,-285.8625
997,146528,2.6105560000000003,-0.29133600000000004,0.42773199999999995,31.71,-178.71,-291.375
998,146626,2.69132,-0.9398880999999999,0.8991401,30.3975,-142.8875,-256.83
999,146724,2.716208,-1.258308,1.1807159999999999,7.1575,-106.89,-191.8525
1000,146822,2.94386,-1.645536,1.3388280000000001,-25.9525,-57.9775,-105.1225
1001,146920,3.116368,-1.172176,1.350784,-71.015,-10.64,-23.0475
1002,147018,3.15004,0.10540799999999999,1.532808,-70.77,37.065,36.89
1003,147116,2.678632,1.263676,2.203564,39.3575,100.8,67.0075
1004,147214,-0.859856,-0.959408,0.368196,239.8375,145.075,80.3425
1005,147312,0.983564,-0.846924,-2.573468,147.4025,283.6225,51.9925
1006,147411,2.426336,-2.7298720000000003,-1.188768,110.8275,337.19,31.185
1007,147509,2.279692,-1.310768,-2.057896,27.8425,272.1425,71.6975
1008,147607,3.82836,1.8949040000000001,-2.833084,-37.065,240.38,56.28
1009,147705,0.131272,1.658468,-0.6480640000000001,52.675,108.3425,34.5625
1010,147803,0.8791321,0.238632,-1.381528,105.5075,91.5425,38.3775
1011,147901,1.078236,-0.5975560000000001,-1.262456,109.2,87.4825,38.7625
1012,147999,0.654652,0.330376,-1.074088,63.8925,55.3,23.7825
1013,148097,0.6634359999999999,0.102968,-1.1192280000000001,55.5975,38.71,17.99
1014,148196,0.5968241,-0.148352,-0.9903959999999999,55.79,31.92,18.8475
1015,148294,0.587796,0.1403,-0.9320801,33.95,16.9225,9.87
1016,148392,0.58072,-0.09735601,-0.917684,27.1075,15.19,7.035
1017,148490,0.5307,0.03416,-0.9186601000000001,15.9425,6.72,2.345
1018,148588,0.508008,0.096868,-0.87474,10.395,6.4225,-0.2625
1019,148686,0.492392,0.0976,-0.8752280000000001,7.4725,4.2525,-1.5225
1020,148784,0.48678,0.049532,-0.888648,7.035,4.0075,-1.54
1021,148882,0.46848,0.134688,-0.883768,4.8825,4.3575,-2.5725
1022,148980,0.49044,0.150304,-0.869128,5.88,5.3375,-1.82
1023,149078,0.50874,0.095648,-0.8674200000000001,7.875,6.16,-0.7525
1024,149176,0.5011760000000001,0.079056,-0.8730319999999999,7.21,5.74,-1.12
1025,149275,0.494588,0.09345201,-0.8708360999999999,6.16,5.6175,-1.785
1026,149373,0.49288000000000004,0.10638399999999999,-0.8674200000000001,5.2325,5.915,-2.31
1027,149471,0.496296,0.111508,-0.8652241,5.3725,6.1425,-2.1875
1028,149569,0.496784,0.105896,-0.8637601,5.6,6.1425,-2.205
1029,149667,0.49727200000000005,0.10540799999999999,-0.8632719999999999,6.1075,6.16,-2.17
1030,149765,0.496784,0.10858,-0.859368,6.1775,5.8975,-2.1525
1031,149863,0.505568,0.09345201,-0.85888,5.7575,6.16,-1.785
1032,149961,0.5016641,0.09613601,-0.8605879999999999,5.425,6.37,-1.54
1033,150059,0.502152,0.108824,-0.8552200000000001,5.215,6.8425,-1.1725
1034,150158,0.4941,0.084912,-0.8559521000000001,5.6875,6.79,-0.7
1035,150256,0.49263599999999996,0.087352,-0.8532681000000001,4.97,6.6325,-0.6475
1036,150354,0.47213999999999995,0.086132,-0.8671761,4.1825,6.965,-0.4725
1037,150452,0.5119121,0.09223200000000001,-0.8552200000000001,4.06,8.8725,0.245
1038,150550,0.5011760000000001,0.088328,-0.8540000000000001,4.34,9.2225,0.4375
1039,150648,0.5084960000000001,0.081496,-0.8518040000000001,4.095,10.2025,0.7175
1040,150746,0.513376,0.08808401,-0.853024,3.5525,10.3425,0.9275
1041,150844,0.51362,0.080764,-0.846924,3.3425,10.71,0.77
1042,150942,0.521672,0.07393200000000001,-0.8400921,3.15,10.7975,0.49
1043,151041,0.519476,0.07198,-0.844484,2.4675,11.2525,0.0525
1044,151139,0.518256,0.07222401,-0.8457040000000001,1.7325,11.69,-0.4725
1045,151237,0.523868,0.07710399999999999,-0.8479,1.0325,12.5825,-0.5775
1046,151335,0.521184,0.08637601,-0.853512,0.315,13.7725,-0.6475
1047,151433,0.512888,0.095648,-0.864492,0.2625,15.995,-0.1575
1048,151531,0.5121560000000001,0.087352,-0.862296,0.35,18.9,0.7525
1049,151629,0.506544,0.08417999999999999,-0.86864,-0.0525,22.995,1.4875
1050,151727,0.5043479999999999,0.06270801,-0.87474,-0.455,27.72,2.1
1051,151825,0.499712,0.029768,-0.874252,-1.68,34.6325,2.0125
1052,151924,0.48824399999999996,-0.0017079999999999999,-0.887184,-4.305,42.6125,0.7875
1053,152022,0.466772,-0.007564001,-0.9059721,-8.4,52.465,-1.5925
1054,152120,0.450424,0.02806,-0.9328120000000001,-13.475,66.0275,-4.1125
1055,152218,0.426512,0.058803999999999995,-0.9860040999999999,-17.745,82.18,-5.565
1056,152316,0.395768,0.086864,-1.011868,-20.7725,100.6075,-5.495
1057,152414,0.35526399999999997,0.08052000000000001,-1.098976,-23.8525,123.445,-3.465
1058,152512,0.302072,0.071248,-1.17852,-26.1275,152.18,-3.325
1059,152610,0.221796,0.138836,-1.279536,-33.145,189.4025,-3.1325
1060,152708,0.22789600000000002,0.204716,-1.3266280000000001,-41.825,235.55,-1.8025
1061,152806,0.193248,0.31158800000000003,-1.32736,-39.9,285.7925,5.6525
1062,152905,0.251564,0.31842,-1.4332559999999999,-21.455,344.4175,12.6
1063,153003,0.6883239999999999,0.42431599999999997,-1.726056,-8.2425,411.9325,12.145
1064,153101,1.392752,0.324764,-1.539396,-3.605,465.745,10.92
1065,153199,1.586244,0.397964,-1.700436,3.045,502.6175,22.3825
1066,153297,1.9461439999999999,0.538752,-1.7036080000000002,24.85,525.56,48.3525
1067,153395,2.157692,-0.05368,-1.948584,47.8625,497.3675,53.41
1068,153493,1.506944,0.116632,-2.167208,-13.125,441.35,44.5725
1069,153591,0.30109600000000003,0.183732,-2.4319479999999998,-42.0875,373.9575,36.68
1070,153689,-2.303604,1.102636,-1.2017,-90.00251,277.69,5.8275
1071,153788,2.525644,1.8109680000000001,-3.8076199999999996,-123.8125,305.1475,-17.7975
1072,153886,1.2073120000000002,1.899784,-2.5988439999999997,-52.57,158.9175,-42.4025
1073,153984,-0.156648,1.705316,-2.039352,87.53501,-31.8675,-70.7
1074,154082,-0.656116,0.45871999999999996,-1.31882,234.5875,-113.295,-37.3275
1075,154180,-0.6021920000000001,-0.223992,-0.9113399999999999,277.9175,-141.05,2.4325
1076,154278,-0.281332,-0.474092,-0.9262239999999999,240.345,-151.0075,28.07
1077,154376,-0.01952,-0.34281999999999996,-0.9474520000000001,159.4775,-171.08,37.8
1078,154474,0.040016,0.11834000000000001,-0.9023121,78.995,-206.045,33.5825
1079,154572,0.09345201,0.60146,-0.8513161,37.975,-244.3875,26.2675
1080,154671,0.15762400000000001,0.828624,-0.780068,45.4475,-276.6225,21.455
1081,154769,0.295484,0.850584,-0.697596,76.44001,-300.195,14.455
1082,154867,0.391376,0.7451760000000001,-0.599996,107.7825,-319.095,3.1325
1083,154965,0.45457200000000003,0.6380600000000001,-0.5397281,120.8375,-331.4325,-11.375
1084,155063,0.5307,0.6029241,-0.532896,115.185,-335.3,-29.8725
1085,155161,0.6470880999999999,0.6317159999999999,-0.58072,99.45251,-330.925,-50.4525
1086,155259,0.7937320999999999,0.696376,-0.656848,83.3875,-322.0,-71.9075
1087,155357,0.954528,0.7551800000000001,-0.749568,74.3575,-312.7075,-91.4025
1088,155455,1.143628,0.8071520000000001,-0.84424,73.4475,-305.2,-104.685
1089,155554,1.369084,0.841556,-0.9093880999999999,76.615,-301.385,-110.18
1090,155652,1.536224,0.921588,-0.9347639999999999,78.9775,-301.6475,-112.21
1091,155750,1.6391919999999998,1.051884,-0.919392,79.135,-302.435,-115.8675
1092,155848,1.6914080000000002,1.178764,-0.8813280000000001,79.3625,-298.935,-126.0525
1093,155946,1.746552,1.306376,-0.859856,81.18251,-289.38,-145.39
1094,156044,1.881484,1.43838,-0.8195960999999999,85.71500999999999,-276.71,-172.3925
1095,156142,2.031788,1.485228,-0.7937320999999999,94.57,-263.4625,-203.3325
1096,156240,2.11548,1.589172,-0.7808001,105.315,-251.3,-234.395
1097,156338,2.146712,1.613572,-0.652456,120.855,-239.96,-262.01
1098,156436,2.161352,1.4569239999999999,-0.450668,138.005,-224.175,-283.675
1099,156535,2.149152,1.139724,-0.148596,143.815,-202.8775,-296.7125
1100,156633,2.2265,0.758596,0.252296,132.51,-176.2425,-294.4725
1101,156731,2.421456,0.33184,0.52582,101.675,-146.2475,-265.825
1102,156829,2.603724,-0.172264,0.710284,44.73,-114.38,-207.725
1103,156927,2.596892,-0.44066400000000006,0.826672,-40.7925,-87.64,-134.505
1104,157025,2.549068,-0.301584,0.863028,-133.665,-67.9,-65.3275
1105,157123,2.070584,0.211304,0.745664,-192.6575,-50.89,-6.7375
1106,157221,2.156228,0.46042799999999995,1.409832,-173.95,5.2325,22.8375
1107,157319,1.80194,1.035292,1.0521280000000002,-115.2725,73.465,19.3025
1108,157418,1.700924,1.78852,0.6939361,4.6725,119.98,-30.625
1109,157516,-0.019032,-1.082384,-0.510204,161.98,140.5775,-68.53
1110,157614,0.9110959999999999,-2.827716,-1.969568,76.335,224.7875,-84.5425
1111,157712,2.029836,-2.586888,-1.9459,14.9975,235.2,-92.82001
1112,157810,4.284152,-0.323544,-3.190544,-19.32,206.7975,16.4325
1113,157908,0.549488,1.687016,-0.9442801,-8.715,70.6825,24.7975
1114,158006,-0.426512,1.084824,-0.615368,33.88,-5.25,14.0525
1115,158104,1.403732,-0.6258600000000001,-1.480104,54.0225,89.86251,12.81
1116,158202,0.6414761,0.261324,-0.9684360999999999,34.265,32.8475,7.5775
1117,158301,0.257664,0.9254921,-0.7200439999999999,13.125,14.63,1.575
1118,158399,0.6856399999999999,-0.000976,-1.054812,43.7325,28.8575,10.08
1119,158497,0.5846241,-0.02562,-0.9977159999999999,41.895,17.64,10.6225
1120,158595,0.500688,0.187636,-0.9262239999999999,24.9025,8.365,4.8825
1121,158693,0.544608,0.038308,-0.935008,23.1875,7.1925,4.235
1122,158791,0.49995600000000007,0.102724,-0.9054840000000001,16.3625,3.535,1.6625
1123,158889,0.49263599999999996,0.12322000000000001,-0.8957241,11.1475,1.4175,-0.0875
1124,158987,0.48873199999999994,0.109556,-0.8918200000000001,9.38,0.28,-0.6825
1125,159085,0.48068,0.12029200000000001,-0.88328,7.3675,-0.98,-1.3125
1126,159183,0.46921199999999996,0.111752,-0.883524,6.405,-1.75,-1.61
1127,159282,0.4636,0.10760399999999999,-0.882548,5.5825,-1.855,-1.96
1128,159380,0.465796,0.11541199999999999,-0.8786440999999999,4.6025,-1.295,-2.2925
1129,159478,0.461892,0.116388,-0.873764,4.0775,-0.9975,-2.38
1130,159576,0.469944,0.119804,-0.874252,4.2525,-0.63,-2.24
1131,159674,0.472872,0.10931199999999999,-0.8786440999999999,4.3225,-0.8400001,-2.3275
1132,159772,0.46945600000000004,0.104432,-0.8718120999999999,3.5175,-1.2775,-2.6075
1133,159870,0.467016,0.10760399999999999,-0.8769360999999999,2.94,-1.54,-2.94
1134,159968,0.46238,0.11834000000000001,-0.8752280000000001,2.6425,-1.47,-3.0975
1135,160066,0.467016,0.11248399999999999,-0.8693719999999999,2.9225,-1.4175,-3.1325
1136,160165,0.474092,0.11834000000000001,-0.8693719999999999,3.08,-1.6275,-2.8875
1137,160263,0.45871999999999996,0.125172,-0.8647360000000001,3.535,-1.6975,-2.555
1138,160361,0.457012,0.12078,-0.863516,4.62,-1.5225,-2.1525
1139,160459,0.46164799999999995,0.1342,-0.86498,5.705,-1.0675,-1.4175
1140,160557,0.45164399999999993,0.11955999999999999,-0.8647360000000001,6.8075,-0.28,-0.91
1141,160655,0.45871999999999996,0.10906800000000001,-0.869128,7.5775,0.2975,-0.49
1142,160753,0.4575,0.107848,-0.8698601,7.455,0.8925,-0.3325
1143,160851,0.450668,0.10736,-0.8664440000000001,7.1925,1.4525,-0.315
1144,160949,0.45554799999999995,0.098332,-0.87718,7.105,2.3625,-0.14
1145,161048,0.46628400000000003,0.07246799999999999,-0.8735200000000001,6.3175,3.15,-0.2625
1146,161146,0.450668,0.10638399999999999,-0.8723001,4.48,3.185,-0.7
1147,161244,0.4697,0.09735601,-0.86864,4.585,4.5675,-0.1925
1148,161342,0.464088,0.10858,-0.86864,4.375,5.3025,-0.0175
1149,161440,0.49605200000000005,0.080276,-0.8744960999999999,4.865,6.65,0.6475
1150,161538,0.48824399999999996,0.101016,-0.8788879999999999,4.41,7.385,0.49
1151,161636,0.48922,0.10126,-0.8735200000000001,4.2525,8.4175,0.0875
1152,161734,0.50752,0.10321199999999998,-0.87474,4.48,9.3975,0.07
1153,161832,0.48068,0.098576,-0.8813280000000001,5.0225,9.9225,-0.0175
1154,161931,0.492392,0.054655999999999996,-0.885964,5.285,12.495,-0.56
1155,162029,0.4819,0.06880801,-0.8820601,3.0275,14.7,-1.3825
1156,162127,0.467504,0.082472,-0.8906,0.3325,17.325,-1.61
1157,162225,0.413092,0.08808401,-0.9237841,-1.05,21.4725,-1.365
1158,162323,0.48678,0.079056,-0.8913321,-2.6775,28.035,-0.63
1159,162421,0.48531599999999997,0.050752,-0.8913321,-4.0075,34.4925,-1.225
1160,162519,0.5011760000000001,0.05856,-0.8801081000000001,-6.44,37.905,-2.625
1161,162617,0.496296,0.008296000999999999,-0.855708,-5.8275,42.98,-4.83
1162,162715,0.493612,0.107116,-0.903532,-7.3675,49.07,-6.7725
1163,162814,0.475312,0.09418401,-0.9362280000000001,-6.86,58.2925,-6.405
1164,162912,0.434076,0.128832,-0.9821,-7.07,70.49,-4.83
1165,163010,0.384056,0.1037,-1.080676,-6.4225,88.44501,-2.695
1166,163108,0.319396,0.205692,-1.143872,-7.7525,114.205,0.315
1167,163206,0.280844,0.1647,-1.161928,-4.375,147.6825,4.445
1168,163304,0.21667199999999998,0.15128,-1.242936,-6.8775,185.0625,8.155
1169,163402,0.22326,0.15274400000000002,-1.3527360000000002,-7.91,226.7475,10.885
1170,163500,0.17812,0.290604,-1.311012,-1.435,270.2,17.57
1171,163599,0.36136399999999996,0.350628,-1.378844,17.6925,318.92,26.8625
1172,163697,0.8698601,0.57462,-1.589172,53.2175,370.8075,33.8625
1173,163795,1.239276,0.42212,-1.600884,101.325,411.8625,40.005
1174,163893,1.241228,0.6314721,-1.6555400000000002,144.76,427.77,44.3275
1175,163991,1.301008,0.48653599999999997,-1.36884,208.145,437.43,54.88
1176,164089,1.3851879999999999,0.208864,-1.067012,259.91,424.0775,46.76
1177,164187,1.4964520000000001,0.380396,-1.760704,270.9175,399.7875,26.285
1178,164285,0.71614,0.691008,-1.560868,280.5425,341.635,-2.8175
1179,164383,-0.787632,1.13826,-1.06384,323.3475,282.2225,-34.965
1180,164482,0.79666,1.671156,-0.031232,361.2525,276.325,-82.495
1181,164580,2.653988,1.444724,-2.3982759999999996,391.51,313.0575,-112.2275
1182,164678,0.8740081000000001,0.9547720999999999,-1.85684,462.665,91.91001,-154.735
1183,164776,-0.08637601,0.19739600000000002,-1.267092,496.79,-23.415,-127.925
1184,164874,-0.33671999999999996,-0.410652,-1.0255319999999999,493.0625,-67.725,-46.0425
1185,164972,-0.079544,-0.6368401,-1.1570479999999999,430.4475,-77.91,39.0425
1186,165070,0.27816,-0.350628,-1.369084,317.5375,-96.6175,100.73
1187,165168,0.479216,0.410408,-1.507188,197.575,-141.365,131.95
1188,165266,0.508252,1.262944,-1.450092,122.2025,-202.6325,139.7725
1189,165364,0.484096,1.863184,-1.274412,107.0125,-258.195,137.34
1190,165463,0.44164,2.1896560000000003,-1.0553,134.2425,-300.44,123.235
1191,165561,0.444324,2.203808,-0.8203280000000001,174.6325,-328.265,95.9175
1192,165659,0.503616,2.126216,-0.70028,199.815,-341.845,56.1575
1193,165757,0.568764,2.001532,-0.58194,203.0525,-347.3225,5.74
1194,165855,0.6029241,1.9122279999999998,-0.5206960999999999,189.0,-347.165,-48.9125
1195,165953,0.634156,1.804136,-0.473116,167.86,-340.62,-98.91001
1196,166051,0.707356,1.6860400000000002,-0.480192,143.6925,-326.795,-137.9875
1197,166149,0.8762040000000001,1.582584,-0.5887720000000001,116.2525,-308.07,-163.24
1198,166247,1.194136,1.498648,-0.746396,86.03,-289.38,-176.225
1199,166346,1.504992,1.525976,-0.869616,55.8075,-279.0375,-182.805
1200,166444,1.7172720000000001,1.613084,-0.883768,32.9175,-277.3225,-184.9225
1201,166542,1.8641599999999998,1.736548,-0.823256,21.4725,-277.8125,-184.0825
1202,166640,1.920036,1.7882759999999998,-0.751276,18.025,-273.4375,-186.935
1203,166738,1.88368,1.67628,-0.658068,17.3075,-262.1675,-199.71
1204,166836,1.827804,1.589904,-0.630252,11.7775,-245.5075,-219.8875
1205,166934,1.8941720000000002,1.3825040000000002,-0.6563601,2.5025,-226.4325,-238.315
1206,167032,2.020076,1.142896,-0.731268,-12.8975,-210.2275,-250.67
1207,167130,2.142564,0.94306,-0.783728,-33.9325,-201.145,-254.1
1208,167229,2.131828,0.787388,-0.782508,-56.14,-199.3075,-248.29
1209,167327,2.011048,0.668316,-0.697108,-74.3925,-200.1475,-239.225
1210,167425,1.88368,0.62952,-0.577548,-88.44501,-197.3825,-231.4725
1211,167523,1.7733919999999999,0.614636,-0.43432,-99.10251,-186.725,-226.17
1212,167621,1.7443560000000002,0.681492,-0.326228,-106.33,-168.455,-226.2575
1213,167719,1.725324,0.68076,-0.186904,-106.3825,-145.4075,-232.54
1214,167817,1.66652,0.419192,-0.045872,-95.795,-118.2475,-243.4075
1215,167915,1.7699759999999998,0.21008400000000002,0.138348,-82.845,-85.19,-256.2875
1216,168013,2.051552,0.284748,0.196664,-68.985,-49.2275,-258.0025
1217,168111,2.234064,0.036356,0.31964000000000004,-35.665,-21.7,-241.4125
1218,168210,2.323124,-0.354532,0.42578,-10.535,-3.2375,-216.1425
1219,168308,2.240652,-0.68808,0.49532,-13.2825,11.9875,-187.7225
1220,168406,2.090592,-0.7929999999999999,0.48068,-37.6775,29.05,-157.535
1221,168504,1.891,-0.619272,0.301584,-60.34,48.2475,-126.315
1222,168602,1.539884,-0.141764,0.329644,-25.8825,79.1525,-99.8025
1223,168700,2.080832,0.944768,0.5799880000000001,92.0675,158.4975,-98.0
1224,168798,0.42602399999999996,-0.8786440999999999,-0.101504,273.0,175.2975,-74.4625
1225,168896,0.643184,-2.147688,-2.3963240000000003,287.3325,214.13,7.2275
1226,168994,1.633092,-4.786304,-1.270996,287.0175,199.01,74.4975
1227,169093,1.635532,-2.346304,-1.712148,95.305,208.6175,95.5325
1228,169191,3.551908,1.425936,-2.839672,-46.13,211.5925,42.7175
1229,169289,-0.07393200000000001,1.3908,-0.5565640000000001,25.7775,29.75,10.71
1230,169387,0.42187600000000003,0.5246,-1.0492,53.27,50.0325,15.435
1231,169485,0.9437921,-0.2318,-1.1150799999999998,67.8825,65.1175,22.6625
1232,169583,0.619272,0.313296,-0.951356,43.4,38.3425,15.4875
1233,169681,0.41675200000000007,0.33013200000000004,-0.8906,41.685,27.37,13.3175
1234,169779,0.658556,0.052703999999999994,-1.005768,51.905,30.2225,17.22
1235,169877,0.552904,0.031476,-0.9620920000000001,45.3425,19.95,14.0875
1236,169975,0.5441199999999999,0.09516001,-0.9528200000000001,36.1375,13.125,10.15
1237,170074,0.620736,-0.010736,-0.9564799999999999,30.555,10.2025,8.015
1238,170172,0.503616,0.077592,-0.9018241,20.16,1.9775,4.2525
1239,170270,0.5231359999999999,0.08954801,-0.885476,14.77,1.295,1.9425
1240,170368,0.49995600000000007,0.10858,-0.8735200000000001,11.6375,-0.2625,0.7175
1241,170466,0.45286400000000004,0.13054000000000002,-0.86498,9.275,-1.5225,-0.28
1242,170564,0.467992,0.12712400000000001,-0.880352,8.785,-0.8925,-0.315
1243,170662,0.462868,0.13542,-0.8708360999999999,8.54,0.0525,-0.0875
1244,170760,0.46433199999999997,0.13785999999999998,-0.868884,8.4525,0.63,0.1925
1245,170858,0.46921199999999996,0.118584,-0.8723001,9.2575,1.1025,0.56
1246,170957,0.49702799999999997,0.09442801,-0.8754719999999999,9.275,1.575,0.6125
1247,171055,0.48653599999999997,0.098088,-0.870592,8.015,1.26,0.1225
1248,171153,0.480192,0.09613601,-0.8703481,6.895,1.05,-0.42
1249,171251,0.478972,0.09418401,-0.8679081,6.265,1.12,-0.875
1250,171349,0.48263199999999995,0.09052401,-0.876692,5.425,1.2425,-1.2075
1251,171447,0.478728,0.10321199999999998,-0.8662001,4.375,1.295,-1.5575
1252,171545,0.471164,0.102968,-0.86864,4.13,2.03,-1.6625
1253,171643,0.48092399999999996,0.10516400000000001,-0.868884,3.78,2.5375,-1.4525
1254,171741,0.48848800000000003,0.08881599,-0.8647360000000001,3.5875,3.22,-1.4525
1255,171840,0.48873199999999994,0.09735601,-0.8605879999999999,2.9925,3.36,-1.82
1256,171938,0.487512,0.1037,-0.8591241,2.835,3.7975,-2.065
1257,172036,0.48995200000000005,0.10248,-0.8525360000000001,2.8875,4.2,-2.45
1258,172134,0.488976,0.086864,-0.8718120999999999,2.8175,4.0425,-2.4675
1259,172232,0.5084960000000001,0.106628,-0.8601,2.5025,4.55,-2.7475
1260,172330,0.496784,0.101992,-0.8637601,2.87,4.445,-3.01
1261,172428,0.5023960999999999,0.09979600000000001,-0.860344,3.57,4.2875,-2.8875
1262,172526,0.49849209999999994,0.10492,-0.8615640999999999,4.3225,4.4275,-3.045
1263,172625,0.488976,0.10004,-0.8666879999999999,4.375,4.7425,-3.0275
1264,172723,0.491904,0.09711201,-0.859368,4.27,6.195,-3.1675
1265,172821,0.492392,0.09613601,-0.8652241,3.85,7.6475,-3.4825
1266,172919,0.495076,0.085888,-0.8764481,3.185,9.2925,-3.3775
1267,173017,0.5084960000000001,0.082472,-0.8703481,2.345,10.7975,-3.0975
1268,173115,0.494588,0.09638,-0.8637601,1.365,12.215,-2.8525
1269,173213,0.47702,0.099552,-0.874252,0.5775,14.7175,-2.31
1270,173311,0.411872,0.123464,-0.9113399999999999,0.0175,18.725,-1.1725
1271,173409,0.486048,0.10540799999999999,-0.8796200000000001,-0.4025,26.1975,0.7175
1272,173508,0.480192,0.08857201,-0.8884040000000001,-0.5425,32.6025,1.68
1273,173606,0.48556000000000005,0.07173600000000001,-0.887184,-1.4525,39.2875,1.6975
1274,173704,0.49263599999999996,0.06929600000000001,-0.8976761000000001,-2.695,48.0025,1.61
1275,173802,0.4933681,0.046360000000000005,-0.90036,-4.3575,57.505,0.77
1276,173900,0.490928,0.06539201,-0.919392,-8.9425,69.0725,-0.2625
1277,173998,0.479216,0.09247601,-0.930372,-13.1425,81.4275,-0.1225
1278,174096,0.487756,0.11053199999999999,-0.9501360999999999,-14.84,94.44751,1.5225
1279,174194,0.461404,0.157136,-0.9503799999999999,-15.225,107.835,4.025
1280,174292,0.441884,0.16104000000000002,-1.009184,-14.315,123.3225,7.105
1281,174391,0.388692,0.14688800000000002,-1.033828,-11.1125,141.4875,9.31
1282,174489,0.376736,0.230336,-1.099952,-10.3075,166.25,12.0225
1283,174587,0.38356799999999996,0.25986,-1.158268,-7.6125,195.09,16.9925
1284,174685,0.390644,0.374052,-1.1636360000000001,-1.2425,227.535,27.9125
1285,174783,0.409432,0.27084,-1.146068,14.945,264.8275,42.0
1286,174881,0.566812,0.35136,-1.26148,30.7825,308.4025,52.85
1287,174979,0.8576601,0.468724,-1.462536,43.645,356.0725,59.745
1288,175077,1.292468,0.310856,-1.575264,44.31,399.3325,63.385
1289,175175,1.261968,0.5546121,-1.6574919999999997,41.9475,427.525,75.915
1290,175274,1.497916,0.661972,-1.636264,62.44,452.795,97.93
1291,175372,1.7633880000000002,0.356484,-1.5079200000000001,100.0825,450.03,109.62
1292,175470,1.7211759999999998,0.5343600000000001,-2.0215400000000003,86.32751,426.02,105.4375
1293,175568,0.636352,0.7673800000000001,-1.984452,73.5,368.6725,91.385
1294,175666,-1.4837639999999999,1.510604,-1.6731080000000003,61.2325,297.2025,62.475
1295,175764,2.45708,1.717516,-2.380952,53.7075,292.915,16.8
1296,175862,1.7455759999999998,1.6394360000000001,-2.56566,65.22251,228.725,-31.955
1297,175960,0.444812,1.62626,-2.170624,119.14,28.385,-93.94
1298,176058,-0.416264,0.8962120000000001,-1.4713200000000002,180.46,-67.1475,-87.5
1299,176156,-0.46042799999999995,0.13078399999999998,-1.0797,222.355,-96.18,-44.8525
1300,176255,-0.188612,-0.339404,-1.0169920000000001,203.8575,-103.705,1.085
1301,176353,0.07564,-0.43432,-1.018944,135.59,-118.7725,33.425
1302,176451,0.19959200000000002,-0.12468399999999999,-0.9950319999999999,45.4825,-147.07,49.665
1303,176549,0.22667600000000002,0.381128,-0.9547720999999999,-25.0425,-186.2525,52.6225
1304,176647,0.19251600000000002,0.800076,-0.8869401,-49.1225,-224.9975,49.2625
1305,176745,0.21106,0.9933241,-0.787876,-34.3525,-253.1725,42.9625
1306,176843,0.244488,0.998692,-0.683932,-1.19,-273.735,29.47
1307,176941,0.277672,0.859368,-0.5936520000000001,28.14,-288.1375,9.59
1308,177039,0.324276,0.730292,-0.571448,38.4125,-296.66,-14.91
1309,177138,0.4026,0.657824,-0.592188,31.2025,-301.0525,-41.72
1310,177236,0.5121560000000001,0.6563601,-0.650992,15.8025,-303.03,-66.29
1311,177334,0.648552,0.686616,-0.741272,0.945,-304.9725,-86.6775
1312,177432,0.780312,0.702232,-0.8427761,-8.645,-308.4375,-102.1475
1313,177530,0.8913321,0.6653880999999999,-0.9330560999999999,-14.1225,-313.355,-112.63
1314,177628,1.007476,0.5577840000000001,-0.9969841,-19.8975,-319.305,-117.7225
1315,177726,1.152168,0.537532,-1.053592,-31.6575,-324.9925,-117.705
1316,177824,1.3200399999999999,0.5392399999999999,-1.077504,-46.9175,-328.44,-112.98
1317,177922,1.4518,0.5726680000000001,-1.030412,-62.755,-329.6825,-106.7675
1318,178021,1.574288,0.6368401,-1.009672,-80.90250999999999,-324.66,-102.06
1319,178119,1.8004759999999997,0.7415161,-1.1070280000000001,-100.835,-311.9725,-102.8825
1320,178217,2.123776,0.8520479999999999,-1.20658,-121.835,-296.9925,-114.24
1321,178315,2.35216,0.9889319999999999,-1.244888,-138.705,-287.07,-135.3625
1322,178413,2.447808,1.01016,-1.16754,-143.6575,-281.47,-158.9
1323,178511,2.5571200000000003,0.9354959999999999,-0.989664,-137.725,-274.1375,-177.1
1324,178609,2.639348,0.743712,-0.7617681,-127.225,-262.0275,-185.08
1325,178707,2.4734279999999997,0.185196,-0.46481999999999996,-117.0575,-244.5975,-184.765
1326,178805,2.1374400000000002,-0.9354959999999999,0.12395199999999999,-116.9175,-219.4675,-187.215
1327,178903,2.369484,-0.549732,0.216916,-156.3975,-176.785,-190.855
1328,179001,2.606164,-0.398696,0.290604,-147.875,-137.4275,-168.4375
1329,179100,2.6278799999999998,-0.764208,0.5219159999999999,-93.31,-114.345,-130.165
1330,179198,2.565172,-1.295884,0.8657120999999999,-57.505,-92.62751,-96.77501
1331,179296,2.3006759999999997,-1.341024,0.987224,-64.61,-58.24,-67.5675
1332,179394,1.874164,-0.64172,1.2261,-54.5825,-2.1875,-42.1575
1333,179492,2.60836,0.6019479999999999,0.944524,10.675,113.505,-30.275
1334,179590,0.44383599999999995,0.675148,0.457988,196.735,158.6375,-19.25
1335,179688,-0.410408,-0.8601,-2.297748,379.5225,164.99,51.5725
1336,179786,1.6735959999999999,-3.3857440000000003,-1.426668,383.2675,231.665,88.70749
1337,179884,1.284904,-4.183624,-1.446188,269.6925,235.6025,109.41
1338,179982,1.573556,-1.19926,-1.7043400000000002,13.9125,249.3225,80.815
1339,180081,3.6275480000000004,1.890268,-2.8016080000000003,-52.43,240.7475,53.095
1340,180179,0.8174001000000001,1.302716,-1.043344,30.52,127.2775,26.11
1341,180277,0.34867600000000004,-0.034648000000000005,-1.104344,90.685,69.37,35.49
1342,180375,0.9494040000000001,0.085156,-1.207068,69.2125,83.335,31.8325
1343,180473,0.7571321,0.37551599999999996,-1.078968,55.545,59.815,25.6725
1344,180571,0.5231359999999999,-0.003172,-1.027484,61.0925,38.6575,24.2725
1345,180669,0.7139439999999999,-0.040504000000000005,-1.072868,54.4075,33.495,20.1075
1346,180767,0.5043479999999999,0.167628,-0.942572,37.1,19.53,12.1975
1347,180865,0.582184,0.09150001,-0.9716081,33.88,12.0225,9.8875
1348,180964,0.48653599999999997,0.033428,-0.9262239999999999,28.6825,8.12,8.05
1349,181062,0.48702399999999996,0.10687200000000001,-0.9057280999999999,20.545,4.27,4.2175
1350,181160,0.48726800000000003,0.07978801,-0.8954801,16.3975,3.9725,2.6775
1351,181258,0.48312,0.123464,-0.882548,12.5825,2.9925,1.0325
1352,181356,0.467992,0.118096,-0.8847440999999999,10.535,2.4325,0.4025
1353,181454,0.473116,0.112728,-0.8845,9.6425,2.66,0.0875
1354,181552,0.460672,0.144204,-0.879864,8.435,2.4675,-0.875
1355,181650,0.456768,0.166164,-0.8718120999999999,8.33,2.4325,-1.0675
1356,181748,0.47384799999999994,0.160552,-0.868396,9.415,2.975,-0.4025
1357,181846,0.47555600000000003,0.142252,-0.86864,9.9225,3.045,0.14
1358,181945,0.479216,0.111752,-0.8769360999999999,9.66,2.5725,0.2975
1359,182043,0.472872,0.122976,-0.870592,8.6625,2.135,-0.1575
1360,182141,0.46603999999999995,0.12395199999999999,-0.8698601,8.3475,1.995,-0.4025
1361,182239,0.46945600000000004,0.13908,-0.86864,8.3825,2.24,-0.2625
1362,182337,0.471164,0.13078399999999998,-0.86864,8.4875,2.2925,0.1575
1363,182435,0.47067600000000004,0.112728,-0.863028,8.61,2.345,0.525
1364,182533,0.47677600000000003,0.119316,-0.862784,9.03,2.2925,0.49
1365,182631,0.457988,0.11224,-0.8571719999999999,9.7475,2.765,0.56
1366,182729,0.46921199999999996,0.11224,-0.8601,10.3775,3.0975,0.525
1367,182827,0.46628400000000003,0.117852,-0.871568,9.5375,3.15,0.2625
1368,182926,0.47092,0.128832,-0.8701040000000001,9.7825,3.64,0.1225
1369,183024,0.48678,0.133468,-0.8520479999999999,10.01,5.6525,0.0175
1370,183122,0.477996,0.10638399999999999,-0.868152,10.7975,6.125,0.0
1371,183220,0.484828,0.114192,-0.8676640999999999,10.6225,5.6525,0.0175
1372,183318,0.485072,0.10492,-0.8669319999999999,10.7975,6.265,-0.2275
1373,183416,0.48922,0.10736,-0.8625401,10.71,7.455,-0.315
1374,183514,0.494832,0.1098,-0.8652241,10.1325,8.715,-0.385
1375,183612,0.5099600000000001,0.060512,-0.8666879999999999,9.485,9.7475,-0.35
1376,183710,0.49434399999999995,0.10052799999999999,-0.8662001,6.5275,11.1475,-0.8400001
1377,183809,0.47506800000000005,0.09882,-0.8796200000000001,4.69,11.83,-0.2275
1378,183907,0.42944,0.10248,-0.902068,3.43,14.63,0.3325
1379,184005,0.492148,0.111752,-0.87718,2.52,20.72,1.47
1380,184103,0.48092399999999996,0.094672,-0.8927959999999999,2.2925,25.3575,1.785
1381,184201,0.484584,0.111752,-0.8903561,1.7675,29.6625,2.45
1382,184299,0.484584,0.10223600000000001,-0.889136,1.2075,35.98,3.1325
1383,184397,0.4941,0.052216,-0.8957241,0.56,43.365,3.7275
1384,184495,0.476288,0.04392,-0.9049959999999999,-1.89,52.185,3.7275
1385,184593,0.453596,0.07027201,-0.928176,-5.67,63.5075,4.0425
1386,184691,0.45579200000000003,0.09028,-0.951844,-8.435,76.44001,4.9525
1387,184790,0.406016,0.091012,-0.973316,-11.06,91.77,6.58
1388,184888,0.401136,0.06270801,-1.015284,-12.7575,109.515,7.8925
1389,184986,0.386008,0.046360000000000005,-1.039684,-16.0825,129.4475,8.8375
1390,185084,0.35526399999999997,0.090036,-1.0826280000000001,-21.945,153.09,9.1875
1391,185182,0.32403200000000004,0.157136,-1.148508,-26.6875,181.3525,9.5725
1392,185280,0.316224,0.311344,-1.280512,-30.1,215.985,14.315
1393,185378,0.329888,0.296216,-1.230492,-21.98,253.8025,24.1675
1394,185476,0.36209600000000003,0.352092,-1.2136559999999998,-8.8025,296.7475,35.6475
1395,185574,0.55266,0.366976,-1.34322,7.385,347.8825,41.895
1396,185673,1.0262639999999998,0.340136,-1.524756,12.3025,395.71,40.9325
1397,185771,1.39812,0.265228,-1.5786799999999999,-9.1175,429.7825,42.525
1398,185869,1.352248,0.77104,-1.70678,-27.1425,472.22,71.225
1399,185967,1.743868,0.407236,-1.5135319999999999,2.0125,482.7025,100.45
1400,186065,2.089128,0.305,-1.849032,-0.3325,460.3725,105.175
1401,186163,1.362252,0.42944,-2.155252,-61.1975,413.1575,103.11
1402,186261,0.047092,0.668316,-2.169892,-84.07001,339.745,101.01
1403,186359,-0.41284799999999994,1.380064,-0.178852,-123.41,249.97,71.6975
1404,186457,2.851872,2.065948,-3.5780160000000003,-162.33,297.7975,56.1925
1405,186555,1.1387479999999999,2.018368,-2.3851,-114.2925,103.845,-13.755
1406,186654,-0.395524,2.021784,-1.9110080000000003,-38.9025,-52.57,-65.45
1407,186752,-0.841556,1.012844,-1.255136,69.895,-118.37,-63.2975
1408,186850,-0.5321640000000001,0.12078,-1.057008,122.1325,-120.855,-34.4925
1409,186948,-0.169824,-0.333548,-1.08702,99.8025,-126.35,-13.895
1410,187046,0.035624,-0.384544,-1.109712,27.65,-145.565,-0.4375
1411,187144,0.09906401,-0.059536,-1.077016,-53.7075,-178.3075,3.465
1412,187242,0.125172,0.367952,-1.038952,-100.8,-217.1925,0.91
1413,187340,0.155672,0.574864,-0.9833200000000001,-98.42,-250.635,-0.3325
1414,187438,0.219356,0.548512,-0.904752,-67.69001,-275.485,-2.73
1415,187536,0.271816,0.367464,-0.815936,-34.825,-294.4725,-9.275
1416,187634,0.327448,0.166652,-0.7625,-20.3875,-308.77,-19.2325
1417,187732,0.398208,0.08637601,-0.752008,-26.8625,-318.71,-31.0975
1418,187831,0.5043479999999999,0.09735601,-0.792024,-43.155,-324.7825,-40.4075
1419,187929,0.633912,0.15201199999999998,-0.8796200000000001,-59.9725,-328.685,-47.145
1420,188027,0.764208,0.208864,-0.9962521000000001,-73.02750999999999,-332.64,-53.6725
1421,188125,0.8996280999999999,0.239364,-1.111664,-81.4975,-337.7325,-60.41
1422,188223,1.049444,0.215452,-1.202432,-87.97251,-343.805,-65.73
1423,188321,1.179252,0.168604,-1.247572,-94.99,-350.4725,-68.11
1424,188419,1.305156,0.11712,-1.224148,-103.9325,-355.32,-66.01
1425,188517,1.4173959999999999,0.13908,-1.17974,-115.4825,-354.795,-59.7625
1426,188615,1.524756,0.23887600000000003,-1.176812,-128.345,-345.6425,-52.0975
1427,188714,1.673352,0.41284799999999994,-1.244644,-141.9775,-326.48,-49.315
1428,188812,1.9544400000000002,0.622688,-1.35054,-157.535,-302.96,-58.5725
1429,188910,2.207468,0.8252079999999999,-1.380796,-168.665,-283.64,-84.7175
1430,189008,2.267736,0.9286639999999999,-1.266848,-167.16,-270.2875,-123.6025
1431,189106,2.162572,0.9347639999999999,-1.0797,-149.6075,-255.7625,-167.93
1432,189204,2.130852,0.679784,-0.8544879999999999,-116.515,-233.275,-211.26
1433,189302,2.240164,0.239608,-0.570472,-77.875,-204.9775,-252.2275
1434,189400,2.501732,0.479704,-0.41016400000000003,-42.945,-175.6125,-279.79
1435,189498,2.709864,0.026595999999999998,0.014152000000000001,23.52,-155.2775,-278.215
1436,189596,2.4795279999999997,-0.8940161,0.501908,81.41001,-145.635,-253.12
1437,189695,2.4209680000000002,-1.449116,0.8759601,69.51,-118.5975,-219.1175
1438,189793,2.619584,-1.891732,1.123864,17.85,-74.06,-168.9625
1439,189891,2.844064,-1.6918959999999998,1.130208,-55.475,-29.505,-102.585
1440,189989,2.782332,-1.125816,0.949892,-107.4325,6.6675,-35.1575
1441,190087,1.4213,0.697596,0.269864,-106.295,31.8325,19.53
1442,190185,1.08092,1.1594879999999999,0.474092,33.9675,110.075,21.4025
1443,190283,-0.284748,1.2763639999999998,-1.423008,183.5225,148.3125,12.3725
1444,190381,-0.788608,0.787876,-1.21268,260.155,164.3075,40.495
1445,190479,0.703696,-2.082052,0.02074,377.79,197.3475,53.025
1446,190577,1.554524,-3.0575639999999997,-2.084492,276.745,268.3975,76.405
1447,190676,1.286856,-2.2326,-1.455216,123.2,252.5775,80.4825
1448,190774,0.954528,-0.450668,-1.2517200000000002,25.0425,230.0375,80.045
1449,190872,2.04228,1.587464,-2.054968,-25.4975,233.2925,62.615
1450,190970,2.139148,1.302716,-1.642852,35.665,199.0275,43.855
1451,191068,0.581208,0.122,-1.2099959999999998,90.59751,77.63,36.61
1452,191166,0.761524,-0.020984,-1.223904,75.67,84.7175,39.655
1453,191264,0.8117880000000001,0.223748,-1.0858,59.185,73.955,30.1525
1454,191362,0.625128,0.000732,-1.088484,60.655,49.0175,24.1675
1455,191460,0.61,-0.033672,-1.032608,54.4425,35.875,20.1775
1456,191558,0.554856,0.171532,-0.9435479999999999,39.445,26.3025,13.0025
1457,191656,0.641964,0.05612,-0.9952761,36.3825,17.8675,11.2
1458,191755,0.53192,0.027816000000000004,-0.9311040999999999,30.5725,10.1675,8.7675
1459,191853,0.5077640999999999,0.08662001,-0.9076799999999999,21.91,4.6375,5.0225
1460,191951,0.49288000000000004,0.080764,-0.9037761000000001,18.0075,2.7475,3.1675
1461,192049,0.487512,0.10004,-0.8884040000000001,14.4025,1.26,1.5925
1462,192147,0.49532,0.104432,-0.8918200000000001,11.62,0.735,0.6475
1463,192245,0.480192,0.116388,-0.879376,9.73,-0.175,-0.07
1464,192343,0.47823999999999994,0.11248399999999999,-0.8786440999999999,8.225,-0.7525,-0.63
1465,192441,0.47823999999999994,0.100772,-0.8813280000000001,7.455,-1.0675,-1.05
1466,192539,0.47213999999999995,0.102724,-0.8762040000000001,6.405,-1.2775,-1.6625
1467,192637,0.471896,0.104676,-0.8752280000000001,5.635,-1.4525,-2.2225
1468,192736,0.46506400000000003,0.115168,-0.873764,4.9875,-1.3475,-2.59
1469,192834,0.462136,0.127368,-0.8713241,4.6725,-1.19,-2.765
1470,192932,0.46116,0.129076,-0.8723001,4.795,-1.05,-2.73
1471,193030,0.4636,0.13078399999999998,-0.8676640999999999,4.9875,-0.77,-2.52
1472,193128,0.465552,0.129076,-0.8662001,5.1275,-0.5075,-2.1525
1473,193226,0.464088,0.125904,-0.8652241,5.7925,-0.1575,-1.75
1474,193324,0.463844,0.126392,-0.869616,6.4225,0.07,-1.4525
1475,193422,0.467992,0.128588,-0.8674200000000001,7.35,0.4375,-0.77
1476,193520,0.464088,0.114924,-0.8625401,8.1725,0.945,-0.035
1477,193618,0.48092399999999996,0.101992,-0.8576601,8.61,0.49,0.0525
1478,193717,0.46481999999999996,0.10223600000000001,-0.8769360999999999,7.735,-0.56,-0.28
1479,193815,0.4697,0.09540401,-0.8740081000000001,7.2625,0.4375,-0.4025
1480,193913,0.4697,0.110044,-0.8703481,7.1575,1.295,-0.9975
1481,194011,0.466772,0.110776,-0.8708360999999999,7.56,1.1375,-1.015
1482,194109,0.467016,0.104676,-0.86498,7.4375,1.7675,-0.7175
1483,194207,0.47336000000000006,0.107848,-0.865468,6.44,3.6225,-0.3675
1484,194305,0.481412,0.10833599999999999,-0.86498,6.1425,4.55,-0.8575
1485,194403,0.472872,0.118096,-0.8652241,7.0525,4.6025,-0.9275
1486,194501,0.47092,0.119072,-0.8708360999999999,7.84,5.215,-0.175
1487,194599,0.47458,0.102968,-0.8713241,8.2075,6.3525,0.07
1488,194697,0.479216,0.110044,-0.874984,8.2775,8.225,0.0525
1489,194796,0.4819,0.102724,-0.8762040000000001,8.4175,9.73,-0.1225
1490,194894,0.5016641,0.09320801,-0.8723001,8.3475,11.5325,0.0525
1491,194992,0.4743361,0.087352,-0.8847440999999999,7.595,13.1775,-0.4025
1492,195090,0.46018400000000004,0.076616,-0.889868,5.9325,16.6775,0.0525
1493,195188,0.416996,0.09735601,-0.9206120000000001,3.605,20.265,0.4725
1494,195286,0.46506400000000003,0.081984,-0.9001161,2.835,26.7225,1.785
1495,195384,0.484584,0.099552,-0.8998719999999999,1.2775,35.2625,3.0975
1496,195482,0.482876,0.10223600000000001,-0.906948,1.295,40.4425,3.9725
1497,195580,0.471408,0.09052401,-0.9208561,0.8225,49.5075,5.2325
1498,195679,0.467504,0.060512,-0.936472,0.1575,61.53,6.7725
1499,195777,0.42187600000000003,0.086132,-0.9852719999999999,-3.255,76.2825,8.5575
1500,195875,0.390644,0.068564,-1.003328,-5.32,95.04251,10.85
1501,195973,0.34867600000000004,0.06270801,-1.0650600000000001,-10.045,118.3525,12.3725
1502,196071,0.3233,0.034648000000000005,-1.0911680000000001,-14.49,143.0975,12.53
1503,196169,0.310856,0.082228,-1.09922,-22.4525,171.675,14.455
1504,196267,0.29743600000000003,0.091744,-1.169736,-28.9625,202.825,17.5875
1505,196365,0.34648,0.064172,-1.174372,-31.4125,238.875,20.5275
1506,196463,0.29987600000000003,0.359656,-1.226344,-37.7125,278.215,27.3
1507,196561,0.47384799999999994,0.195932,-1.1455799999999998,-15.6275,322.035,32.095
1508,196660,0.7522521,0.381128,-1.432036,-10.9725,367.255,29.925
1509,196758,1.2724600000000001,0.252296,-1.5074319999999999,-17.99,404.9325,27.965
1510,196856,1.340292,0.600484,-1.6384599999999998,-25.025,432.6525,45.1325
1511,196954,1.413736,0.558272,-1.4574120000000002,-3.9025,449.435,71.9075
1512,197052,1.802184,0.12029200000000001,-1.309792,12.4775,443.3625,85.3125
1513,197150,1.882216,0.172264,-1.7336200000000002,-32.9875,417.6725,82.5475
1514,197248,1.000156,0.205448,-1.8119439999999998,-89.215,364.0525,79.5725
1515,197346,-0.315004,0.331352,-1.741916,-127.8725,301.2275,75.81
1516,197444,0.21008400000000002,0.9108521,-0.17202,-174.1775,232.96,51.6425
1517,197543,2.607628,1.587708,-2.764764,-209.965,275.1175,50.1375
1518,197641,1.116056,1.939556,-2.180872,-147.28,83.685,2.2925
1519,197739,-0.226188,1.952488,-1.8134080000000001,-52.5175,-59.3425,-33.39
1520,197837,-0.6231760999999999,0.9774639999999999,-1.1916959999999999,76.1075,-125.055,-23.905
1521,197935,-0.513864,0.238632,-0.9128040000000001,136.01,-131.11,1.33
1522,198033,-0.232044,-0.156648,-0.9032879999999999,121.45,-129.0625,13.7025
1523,198131,-0.006832001,-0.190076,-0.935008,58.1,-139.335,16.0125
1524,198229,0.068564,0.11467999999999999,-0.9459880999999999,-17.08,-164.185,7.945
1525,198327,0.07637200000000001,0.510692,-0.9398880999999999,-63.105,-197.4175,-5.67
1526,198425,0.142984,0.7285841,-0.9125601000000001,-66.045,-227.255,-16.7125
1527,198524,0.2318,0.7478600000000001,-0.870592,-40.985,-251.6325,-26.9325
1528,198622,0.31451599999999996,0.601704,-0.8047121,-8.505,-271.145,-37.94
1529,198720,0.374784,0.39894,-0.769576,11.83,-288.0675,-49.1575
1530,198818,0.44066400000000006,0.24351199999999998,-0.7617681,12.4075,-301.21,-60.2175
1531,198916,0.5353359999999999,0.182024,-0.7986121,-0.945,-310.6425,-68.88
1532,199014,0.664168,0.184952,-0.8596120999999999,-19.39,-317.485,-73.43
1533,199112,0.822524,0.21716,-0.956968,-36.9775,-322.7525,-74.6375
1534,199210,0.976,0.23009200000000002,-1.063108,-51.345,-328.1775,-74.04251
1535,199308,1.137772,0.188124,-1.127524,-63.49,-335.125,-72.205
1536,199406,1.278316,0.09711201,-1.124352,-76.3525,-343.91,-67.83
1537,199505,1.37494,0.027572000000000003,-1.053836,-93.45,-349.86,-61.04
1538,199603,1.4837639999999999,0.060267999999999995,-1.015284,-114.8875,-347.9,-51.905
1539,199701,1.655052,0.194956,-1.067988,-136.5,-336.455,-42.56
1540,199799,1.873676,0.3843,-1.16998,-155.96,-319.4625,-39.8125
1541,199897,2.127924,0.607316,-1.2702639999999998,-172.025,-303.1525,-50.645
1542,199995,2.279692,0.744688,-1.228784,-178.745,-290.85,-75.5825
1543,200093,2.2113720000000003,0.708332,-1.071892,-171.01,-277.9875,-108.6225
1544,200191,2.040572,0.30988000000000004,-0.8581479999999999,-151.34,-258.965,-143.92
1545,200289,2.104012,-0.164944,-0.555832,-130.9175,-227.045,-179.8125
1546,200387,2.3658240000000004,0.217648,-0.403088,-114.2225,-188.475,-206.465
1547,200485,2.568832,0.40381999999999996,-0.09540401,-52.43,-157.9375,-208.355
1548,200584,2.3685080000000003,-0.43505200000000005,0.499468,42.0,-141.05,-190.68
1549,200682,2.216496,-1.16266,0.8405800999999999,73.5,-114.3975,-167.3175
1550,200780,2.28384,-1.522316,0.9857600000000001,35.77,-69.51,-145.0925
1551,200878,2.53638,-1.346392,0.8988959999999999,-25.2175,-19.46,-114.2225
1552,200976,2.623732,-0.98088,0.724924,-56.0,14.455,-66.4825
1553,201074,2.35948,-0.8091041,0.586332,-48.02,35.7,-9.03
1554,201172,0.7556681,0.9869800999999999,-0.404796,-28.6475,48.3175,34.37
1555,201270,0.564128,0.364292,0.08564401,114.9225,90.59751,35.2275
1556,201368,-0.8476561,1.631384,-2.43878,170.835,143.3425,51.1
1557,201466,-0.5846241,0.7571321,-1.073356,255.08,103.635,45.045
1558,201564,0.40626,-2.505148,0.480436,358.575,163.695,64.645
1559,201663,1.9351639999999999,-2.1191400000000002,-2.3333720000000002,224.8575,225.33,75.35501
1560,201761,1.15534,-1.9407759999999998,-1.422764,104.9825,198.555,77.1575
1561,201859,0.697108,0.135908,-1.224148,20.265,173.0575,61.6525
1562,201957,2.871148,1.2517200000000002,-2.36558,-12.39,199.2025,39.025
1563,202055,0.665876,0.376736,-0.987224,52.6575,77.56,24.6225
1564,202153,0.48678,0.209596,-1.1150799999999998,52.465,64.0325,26.565
1565,202251,0.7224841,0.22667600000000002,-1.030412,47.2325,65.4675,23.4675
1566,202349,0.5997520000000001,0.293288,-0.9679481,46.48,50.1375,20.65
1567,202447,0.5873079999999999,0.087108,-0.9955200000000001,49.5775,39.55,19.4075
1568,202545,0.603168,0.015372,-1.001132,46.1125,31.045,16.87
1569,202644,0.528748,0.180072,-0.9357401,36.015,20.6325,11.8125
1570,202742,0.50752,0.12688,-0.9252481,33.635,14.1575,10.0625
1571,202840,0.535092,0.021228,-0.9362280000000001,31.0625,12.11,8.7325
1572,202938,0.5511961,0.045627999999999995,-0.9415959999999999,23.205,8.505,5.46
1573,203036,0.49605200000000005,0.098088,-0.898164,16.94,5.3725,2.7825
1574,203134,0.503616,0.096868,-0.887916,13.7725,3.605,1.225
1575,203232,0.493856,0.10418800000000002,-0.886452,10.9725,1.7325,-0.07
1576,203330,0.483608,0.11834000000000001,-0.877424,8.4525,0.455,-1.05
1577,203428,0.491904,0.1159,-0.8808401,6.895,0.0875,-1.54
1578,203527,0.482876,0.132492,-0.8757159999999999,5.425,-0.56,-2.0475
1579,203625,0.47604399999999997,0.1403,-0.87108,5.0575,-0.77,-2.17
1580,203723,0.47482399999999997,0.138348,-0.868152,5.145,-0.315,-2.1525
1581,203821,0.4758,0.128588,-0.873764,5.39,0.2625,-1.96
1582,203919,0.47336000000000006,0.124196,-0.8725440999999999,5.215,0.4375,-1.9425
1583,204017,0.469944,0.128344,-0.8698601,4.7075,0.455,-2.0475
1584,204115,0.47653199999999996,0.130296,-0.868152,4.725,1.085,-2.065
1585,204213,0.484584,0.129564,-0.8703481,5.0575,1.4175,-1.8375
1586,204311,0.47702,0.13054000000000002,-0.864492,5.2325,1.3125,-1.7675
1587,204410,0.47555600000000003,0.12761199999999998,-0.8671761,5.4075,1.2775,-1.5575
1588,204508,0.479704,0.120048,-0.8605879999999999,5.565,1.54,-1.33
1589,204606,0.494832,0.101016,-0.8666879999999999,5.075,1.19,-1.4175
1590,204704,0.48263199999999995,0.112972,-0.865956,4.55,0.805,-1.7325
1591,204802,0.48263199999999995,0.12395199999999999,-0.861808,4.2875,0.5775,-1.89
1592,204900,0.47506800000000005,0.115656,-0.8676640999999999,4.6725,0.8225,-1.54
1593,204998,0.48726800000000003,0.127368,-0.858392,5.005,1.435,-1.3825
1594,205096,0.476288,0.12248800000000001,-0.8615640999999999,5.8975,1.645,-1.2075
1595,205194,0.47458,0.126392,-0.859856,6.79,1.3825,-1.225
1596,205293,0.478484,0.12688,-0.8591241,7.2975,2.4325,-0.9275
1597,205391,0.47946000000000005,0.120048,-0.8632719999999999,7.525,3.4475,-0.8575
1598,205489,0.49556400000000006,0.116876,-0.8652241,7.5775,4.2175,-1.085
1599,205587,0.500688,0.10760399999999999,-0.860344,7.56,4.62,-1.435
1600,205685,0.49776000000000004,0.10760399999999999,-0.8596120999999999,7.91,5.3025,-1.295
1601,205783,0.48873199999999994,0.10516400000000001,-0.863516,7.805,5.985,-1.3825
1602,205881,0.493856,0.11224,-0.8613200000000001,7.84,6.93,-1.2775
1603,205979,0.493856,0.11053199999999999,-0.8647360000000001,7.98,8.19,-1.26
1604,206077,0.5063,0.089304,-0.8647360000000001,7.14,10.3075,-1.3125
1605,206176,0.48824399999999996,0.10418800000000002,-0.8730319999999999,5.1275,11.7075,-1.4
1606,206274,0.48726800000000003,0.096868,-0.87474,3.9025,14.7525,-1.05
1607,206372,0.45579200000000003,0.11053199999999999,-0.899384,2.52,17.78,-0.7175
1608,206470,0.477264,0.08906,-0.8847440999999999,0.9625,21.98,0.0525
1609,206568,0.49532,0.09028,-0.8823040000000001,-0.8400001,29.33,0.7
1610,206666,0.49654,0.10394400000000001,-0.8866961,-1.155,33.32,0.8575
1611,206764,0.481412,0.14078800000000002,-0.902068,-1.8025,40.845,1.295
1612,206862,0.481412,0.138104,-0.907436,-0.9625,49.1225,3.43
1613,206960,0.47604399999999997,0.10614000000000001,-0.927688,-1.2075,59.395,5.3025
1614,207058,0.43627200000000005,0.083936,-0.9555040000000001,-3.78,74.3925,7.0875
1615,207157,0.416996,0.064416,-0.9799041,-6.2475,92.9425,9.5025
1616,207255,0.36136399999999996,0.06929600000000001,-1.040904,-11.025,114.1525,10.0975
1617,207353,0.349408,0.050263999999999996,-1.073356,-15.75,139.3175,11.0775
1618,207451,0.312076,0.059048,-1.1028799999999999,-22.5225,167.5975,11.76
1619,207549,0.30353600000000003,0.05124001,-1.131916,-31.01,198.9925,12.0575
1620,207647,0.336476,0.128344,-1.266604,-41.2475,235.235,11.48
1621,207745,0.347456,0.200568,-1.1953559999999999,-40.425,273.6125,13.4925
1622,207843,0.389424,0.30866,-1.179008,-30.24,319.27,14.455
1623,207941,0.6439159999999999,0.325496,-1.447408,-14.6125,366.6075,9.73
1624,208040,1.257088,0.43236800000000003,-1.5542799999999999,-17.1325,411.04,8.8725
1625,208138,1.458632,0.393084,-1.603812,-24.1675,445.0075,25.3225
1626,208236,1.4823,0.719312,-1.4276440000000001,-16.835,467.9675,52.99
1627,208334,1.916132,0.005368,-1.404952,4.725,462.42,70.9275
1628,208432,1.8417119999999998,0.042944,-1.796328,-30.0125,424.935,64.6625
1629,208530,1.003084,0.02074,-1.855864,-97.37,372.505,60.165
1630,208628,-0.315736,0.172752,-1.7211759999999998,-140.1225,304.465,59.0275
1631,208726,-0.083204,0.5463161,-0.126636,-203.6475,234.85,39.2
1632,208824,2.579568,1.5384200000000001,-3.0012,-255.6225,280.175,61.215
1633,208923,1.292956,1.998848,-2.342644,-196.4375,94.44751,34.965
1634,209021,-0.10321199999999998,2.0923,-1.939312,-86.38,-61.53,6.6675
1635,209119,-0.5516840000000001,1.1636360000000001,-1.21146,66.2375,-142.8175,14.28
1636,209217,-0.5455840000000001,0.39113200000000004,-0.883768,139.93,-157.185,41.37
1637,209315,-0.316224,-0.030256,-0.818376,130.585,-154.385,50.3475
1638,209413,-0.0671,-0.08344800000000001,-0.8337481,64.9775,-159.95,43.05
1639,209511,0.025376,0.21618400000000002,-0.8486319999999999,-14.9975,-179.13,24.255
1640,209609,0.061488,0.601704,-0.8569280999999999,-66.745,-206.92,1.225
1641,209707,0.126148,0.8042239999999999,-0.853512,-71.6975,-233.7125,-17.115
1642,209805,0.23424,0.7812880999999999,-0.821304,-46.2875,-255.5875,-31.2375
1643,209904,0.32574000000000003,0.576328,-0.769088,-14.1925,-273.735,-43.575
1644,210002,0.387228,0.329644,-0.733952,3.325,-289.38,-53.7425
1645,210100,0.47043199999999996,0.171532,-0.743712,-0.28,-301.0525,-61.635
1646,210198,0.583648,0.118096,-0.790804,-16.6425,-309.6625,-65.8
1647,210296,0.7224841,0.141032,-0.877424,-36.82,-317.2575,-66.53501
1648,210394,0.86498,0.186172,-0.9801479999999999,-54.5125,-324.2575,-65.15250999999999
1649,210492,1.0086959999999998,0.21374400000000002,-1.075064,-66.9725,-331.6425,-63.14
1650,210590,1.1651,0.18544000000000002,-1.13094,-75.425,-340.0775,-60.165
1651,210688,1.27368,0.172752,-1.1507040000000002,-85.3825,-348.285,-55.3875
1652,210787,1.35664,0.10638399999999999,-1.078968,-96.28501,-352.9225,-51.275
1653,210885,1.438624,0.130052,-1.01016,-110.81,-350.245,-46.83
1654,210983,1.569896,0.232776,-0.9906401,-127.1725,-337.8725,-42.2625
1655,211081,1.7611919999999999,0.454816,-1.077504,-142.8,-316.7675,-42.56
1656,211179,2.0742439999999998,0.8066641,-1.212436,-155.7675,-293.1775,-55.72
1657,211277,2.3372759999999997,1.098244,-1.20048,-157.4825,-275.66,-84.15751
1658,211375,2.337764,1.179252,-0.9840521000000001,-141.2075,-265.3875,-125.4225
1659,211473,2.234552,1.093364,-0.7176041,-111.8075,-250.4425,-170.4675
1660,211571,2.216008,0.7537159999999999,-0.45018,-80.0275,-223.16,-209.51
1661,211669,2.136708,-0.06636801,-0.081252,-56.1925,-188.9475,-247.975
1662,211768,2.4026680000000002,0.135664,0.094672,-52.0275,-148.0325,-284.7425
1663,211866,2.60226,-0.216428,0.44164,-10.08,-111.23,-285.6525
1664,211964,2.616412,-1.062376,0.789828,44.45,-85.27750999999999,-249.4625
1665,212062,2.696932,-1.75558,1.058716,44.6075,-57.575,-198.87
1666,212160,2.844064,-1.914668,1.161684,-6.825,-21.6825,-139.1775
1667,212258,2.711816,-1.514996,1.042612,-73.2025,11.655,-73.36
1668,212356,1.771928,-0.047580000000000004,0.192272,-109.795,39.69,-12.355
1669,212454,0.7473721,0.850584,0.284016,14.21,82.67,14.77
1670,212552,-0.056608000000000006,1.344684,-1.641144,179.76,161.5775,27.9125
1671,212650,-0.9289081,1.087996,-1.57746,260.015,137.0775,59.045
1672,212749,0.386984,-2.3489880000000003,0.324764,396.8475,167.51,98.68251
1673,212847,1.7507,-2.822348,-1.880264,307.615,249.6375,127.5225
1674,212945,1.2014559999999999,-1.9712759999999998,-1.1333799999999998,117.4075,251.8775,102.6375
1675,213043,2.433168,0.702232,-2.312144,28.42,249.2525,79.975
1676,213141,2.464888,0.8913321,-2.001288,34.965,215.9675,50.295
1677,213239,0.540948,0.026351999999999997,-1.212924,87.6925,64.1025,35.63
1678,213337,0.735172,0.059048,-1.242936,68.915,61.5475,28.8225
1679,213435,0.73444,0.082228,-0.9989360999999999,53.9,56.7175,21.0875
1680,213534,0.5607121,0.31232,-0.9674601,45.815,44.275,17.8675
1681,213631,0.5309441,0.152988,-0.9269561,46.83,32.725,15.5575
1682,213730,0.668316,-0.02562,-1.025776,47.95,27.58,15.3825
1683,213828,0.6317159999999999,0.038308,-0.9699,34.5625,16.66,9.9575
1684,213926,0.5131319999999999,0.126392,-0.9025559999999999,23.345,7.665,5.215
1685,214024,0.5363121,0.065148,-0.8935280999999999,20.5275,6.3525,4.375
1686,214122,0.5099600000000001,0.09028,-0.8857200999999999,16.1175,4.4625,2.8
1687,214220,0.514352,0.119072,-0.877912,12.145,2.695,1.155
1688,214318,0.496784,0.12566,-0.874252,11.165,1.575,0.9275
1689,214416,0.517524,0.079544,-0.885476,10.8675,1.33,0.945
1690,214515,0.5002,0.10638399999999999,-0.8759601,8.68,0.385,0.07
1691,214613,0.5016641,0.09930800000000001,-0.868884,7.0525,0.385,-0.7875
1692,214711,0.491904,0.10126,-0.8698601,5.985,0.4025,-1.225
1693,214809,0.493612,0.11760799999999999,-0.8608319999999999,4.8125,0.7,-1.61
1694,214907,0.496296,0.11321600000000001,-0.8591241,3.7625,0.6475,-1.9075
1695,215005,0.493856,0.111508,-0.860344,3.9375,0.805,-1.82
1696,215103,0.49044,0.10931199999999999,-0.8605879999999999,4.025,0.8575,-1.855
1697,215201,0.48873199999999994,0.118828,-0.861808,4.2525,1.2425,-1.855
1698,215299,0.48995200000000005,0.11248399999999999,-0.8586360000000001,4.62,1.6625,-1.8025
