,T,ax,ay,az,gx,gy,gz
0,170236,0.46042799999999995,-0.033184,-0.7237041,13.51,-14.7175,-13.9475
1,170387,0.479216,-0.027327999999999998,-0.8117880000000001,119.21,-127.5925,-85.99501
2,170484,0.510692,-0.027572000000000003,-0.865468,126.1225,-152.25,-51.6075
3,170581,0.510692,-0.027816000000000004,-0.8608319999999999,65.1175,-114.3275,-36.19
4,170678,0.511424,-0.030256,-0.8625401,3.7625,-6.3875,-4.095
5,170775,0.509716,-0.030012,-0.8620521000000001,2.0475,-3.4475,-3.15
6,170872,0.508984,-0.033672,-0.86498,1.925,-3.5,-3.2025
7,170970,0.509472,-0.028792,-0.864492,1.785,-3.5,-3.3075
8,171067,0.5060560000000001,-0.028304000000000003,-0.8637601,1.68,-3.5,-3.36
9,171164,0.5077640999999999,-0.024644,-0.8652241,1.68,-3.3775,-3.255
10,171261,0.506544,-0.026108,-0.8664440000000001,1.8375,-3.2025,-3.08
11,171358,0.506788,-0.027083999999999997,-0.8647360000000001,1.995,-3.1675,-2.975
12,171455,0.508252,-0.025863999999999998,-0.865956,2.135,-3.185,-2.9225
13,171552,0.508984,-0.027327999999999998,-0.865468,2.135,-3.1675,-2.7825
14,171649,0.50752,-0.028304000000000003,-0.8642481,2.2575,-3.2025,-2.7125
15,171746,0.50874,-0.029524,-0.865956,2.31,-3.1325,-2.73
16,171843,0.508008,-0.029524,-0.8664440000000001,2.205,-3.08,-2.8525
17,171940,0.5104479999999999,-0.02806,-0.8657120999999999,2.1875,-3.0975,-2.8525
18,172037,0.5099600000000001,-0.028548,-0.8671761,2.3275,-3.0975,-2.8875
19,172134,0.511668,-0.027327999999999998,-0.8669319999999999,2.3275,-3.0625,-2.9225
20,172231,0.509472,-0.029524,-0.8664440000000001,2.275,-3.01,-2.8175
21,172328,0.5063,-0.031476,-0.8666879999999999,2.45,-3.0975,-2.835
22,172426,0.508008,-0.029768,-0.8669319999999999,2.4325,-2.9225,-2.8
23,172523,0.508008,-0.027816000000000004,-0.8679081,2.2225,-2.7475,-2.7475
24,172620,0.51118,-0.0244,-0.8674200000000001,2.31,-2.695,-2.5725
25,172717,0.509472,-0.02806,-0.8669319999999999,2.345,-2.555,-2.1875
26,172814,0.510936,-0.025863999999999998,-0.8693719999999999,2.485,-2.4325,-1.9425
27,172911,0.5099600000000001,-0.03172,-0.869616,2.485,-2.2925,-1.7325
28,173008,0.5104479999999999,-0.033916,-0.868152,2.415,-2.2225,-1.75
29,173105,0.5072760000000001,-0.036844,-0.864492,2.275,-2.2225,-1.995
30,173202,0.509472,-0.032695999999999996,-0.8652241,2.0475,-2.205,-2.38
31,173299,0.504104,-0.033184,-0.8676640999999999,1.89,-2.31,-2.66
32,173396,0.508008,-0.034648000000000005,-0.8671761,1.785,-2.2225,-2.7475
33,173493,0.506544,-0.031476,-0.86498,1.645,-2.275,-2.8875
34,173590,0.503616,-0.030987999999999998,-0.8671761,1.6275,-2.3275,-3.08
35,173687,0.506788,-0.029524,-0.86498,1.715,-2.275,-3.115
36,173784,0.506544,-0.030744,-0.8642481,1.75,-2.2925,-3.185
37,173881,0.5060560000000001,-0.028304000000000003,-0.8637601,1.855,-2.3625,-3.1325
38,173978,0.5063,-0.025863999999999998,-0.864492,1.96,-2.5025,-3.15
39,174075,0.50508,-0.029768,-0.8662001,2.03,-2.5025,-3.045
40,174173,0.5072760000000001,-0.027816000000000004,-0.8657120999999999,2.1875,-2.5375,-3.045
41,174270,0.5077640999999999,-0.030012,-0.8657120999999999,2.2225,-2.7125,-2.9575
42,174367,0.5058121,-0.032208,-0.8664440000000001,2.275,-2.6425,-2.905
43,174464,0.5043479999999999,-0.033916,-0.8647360000000001,2.2225,-2.6075,-3.045
44,174561,0.504592,-0.035136,-0.864492,2.205,-2.5375,-3.15
45,174658,0.506544,-0.032451999999999995,-0.8662001,2.1175,-2.5375,-3.325
46,174755,0.506788,-0.033916,-0.8637601,2.1,-2.6425,-3.4125
47,174852,0.504592,-0.030256,-0.8664440000000001,1.96,-2.59,-3.5875
48,174949,0.503616,-0.03294,-0.8637601,1.855,-2.4675,-3.745
49,175046,0.5063,-0.02806,-0.86498,1.855,-2.5375,-3.78
50,175143,0.505568,-0.029768,-0.8671761,1.855,-2.5025,-3.7975
51,175240,0.506544,-0.029524,-0.8669319999999999,1.89,-2.45,-3.815
52,175337,0.503616,-0.031964,-0.8669319999999999,1.82,-2.3625,-3.815
53,175434,0.503616,-0.030987999999999998,-0.8666879999999999,1.8025,-2.24,-3.745
54,175531,0.505324,-0.029036000000000003,-0.868396,1.7325,-2.1,-3.745
55,175628,0.5084960000000001,-0.02562,-0.8679081,1.785,-2.0125,-3.675
56,175725,0.5072760000000001,-0.028304000000000003,-0.8652241,1.9075,-2.0825,-3.4475
57,175823,0.5084960000000001,-0.031232,-0.865468,2.065,-2.1,-3.3775
58,175920,0.508984,-0.0305,-0.86498,2.0125,-2.1,-3.3425
59,176017,0.5121560000000001,-0.029768,-0.86498,2.0825,-2.135,-3.4475
60,176114,0.509228,-0.028792,-0.8642481,2.1175,-2.17,-3.4475
61,176211,0.50874,-0.026351999999999997,-0.8657120999999999,2.1175,-2.275,-3.3075
62,176308,0.5072760000000001,-0.027816000000000004,-0.8637601,2.1875,-2.2225,-3.2375
63,176405,0.508984,-0.0305,-0.8637601,2.1,-2.205,-3.15
64,176502,0.505568,-0.032208,-0.86498,2.31,-2.3275,-3.185
65,176599,0.503616,-0.0305,-0.8669319999999999,2.275,-2.275,-3.1675
66,176696,0.503128,-0.028548,-0.8637601,2.2575,-2.275,-3.1675
67,176793,0.5016641,-0.029036000000000003,-0.8620521000000001,2.17,-2.2575,-3.2025
68,176890,0.50264,-0.02928,-0.8608319999999999,2.2575,-2.24,-3.08
69,176987,0.50142,-0.02806,-0.8642481,2.24,-2.205,-2.94
70,177084,0.5063,-0.030012,-0.8652241,2.135,-1.96,-2.8525
71,177182,0.503128,-0.028304000000000003,-0.8657120999999999,2.17,-2.03,-2.8
72,177279,0.506788,-0.028548,-0.865956,2.2225,-1.9075,-2.7475
73,177376,0.508008,-0.031964,-0.8652241,2.2225,-2.0125,-2.625
74,177473,0.5060560000000001,-0.02806,-0.864492,2.2925,-2.0475,-2.6075
75,177570,0.509716,-0.03172,-0.868884,2.3625,-1.9775,-2.6075
76,177667,0.509716,-0.032451999999999995,-0.8647360000000001,2.38,-2.0475,-2.5725
77,177764,0.509716,-0.030987999999999998,-0.8662001,2.275,-2.0475,-2.6075
78,177861,0.510936,-0.033916,-0.862784,2.275,-2.1,-2.66
79,177958,0.509716,-0.032695999999999996,-0.8666879999999999,2.24,-2.065,-2.625
80,178055,0.510204,-0.035136,-0.8613200000000001,2.205,-2.1875,-2.73
81,178152,0.5099600000000001,-0.032451999999999995,-0.865956,2.03,-2.205,-2.94
82,178249,0.5084960000000001,-0.033184,-0.8642481,2.03,-2.2225,-3.0275
83,178346,0.506544,-0.033184,-0.864492,1.9425,-2.205,-3.22
84,178444,0.5077640999999999,-0.032695999999999996,-0.8671761,1.8375,-2.1875,-3.325
85,178541,0.509472,-0.028792,-0.863516,1.7675,-1.995,-3.29
86,178638,0.505568,-0.029036000000000003,-0.86498,1.855,-2.1175,-3.2375
87,178735,0.508252,-0.028304000000000003,-0.8642481,1.925,-2.0125,-3.1675
88,178832,0.5072760000000001,-0.031964,-0.865956,1.9075,-2.1175,-3.0275
89,178929,0.509716,-0.029524,-0.864492,1.9775,-2.065,-2.975
90,179026,0.5104479999999999,-0.02928,-0.86498,2.205,-2.2225,-2.9225
91,179123,0.50874,-0.032451999999999995,-0.865468,2.1875,-2.17,-2.975
92,179220,0.50874,-0.029524,-0.8640040000000001,2.1525,-2.2225,-2.9575
93,179317,0.510204,-0.02928,-0.864492,2.1875,-2.3275,-3.01
94,179414,0.509472,-0.030256,-0.8632719999999999,2.2225,-2.38,-3.045
95,179511,0.509472,-0.029524,-0.864492,2.205,-2.3975,-2.9925
96,179608,0.510204,-0.030012,-0.8642481,2.1875,-2.5375,-3.1325
97,179706,0.5077640999999999,-0.031964,-0.8642481,2.17,-2.5725,-3.2025
98,179803,0.510204,-0.0305,-0.862296,2.1175,-2.5025,-3.15
99,179900,0.5070319999999999,-0.031964,-0.8640040000000001,2.1,-2.4675,-3.185
100,179997,0.508008,-0.028548,-0.8640040000000001,1.9425,-2.4325,-3.2025
101,180094,0.508008,-0.030256,-0.8642481,2.065,-2.4675,-3.2025
102,180191,0.508252,-0.029768,-0.8642481,2.0475,-2.485,-3.185
103,180288,0.5077640999999999,-0.032451999999999995,-0.8657120999999999,1.96,-2.4675,-3.15
104,180385,0.504836,-0.034404000000000004,-0.8640040000000001,1.96,-2.45,-3.1675
105,180482,0.508252,-0.031476,-0.8640040000000001,1.9425,-2.38,-3.08
106,180579,0.509472,-0.028548,-0.8632719999999999,1.9425,-2.275,-3.08
107,180676,0.5084960000000001,-0.030744,-0.8625401,1.9425,-2.24,-2.975
108,180774,0.509228,-0.03172,-0.86498,2.0125,-2.275,-2.9225
109,180871,0.509716,-0.0305,-0.8610761,2.065,-2.38,-2.87
110,180968,0.5119121,-0.03172,-0.865468,2.065,-2.5025,-2.9575
111,181065,0.510204,-0.0305,-0.86498,2.065,-2.52,-2.94
112,181162,0.508984,-0.032695999999999996,-0.8669319999999999,2.03,-2.5725,-2.9925
113,181259,0.5084960000000001,-0.032695999999999996,-0.865956,2.1175,-2.6075,-3.08
114,181356,0.509472,-0.030987999999999998,-0.863516,2.0125,-2.5375,-3.115
115,181453,0.506544,-0.03294,-0.8664440000000001,1.9775,-2.555,-3.2025
116,181550,0.5077640999999999,-0.031232,-0.863516,2.03,-2.6075,-3.3425
117,181647,0.508008,-0.028792,-0.864492,1.995,-2.555,-3.2375
118,181744,0.506788,-0.03294,-0.865468,1.96,-2.555,-3.255
119,181841,0.503616,-0.03172,-0.86498,2.03,-2.4675,-3.255
120,181938,0.5023960999999999,-0.033184,-0.8632719999999999,2.0125,-2.555,-3.255
121,182035,0.499712,-0.02806,-0.863516,1.9775,-2.52,-3.3425
122,182133,0.502152,-0.025863999999999998,-0.8642481,1.925,-2.4675,-3.255
123,182230,0.5016641,-0.030012,-0.8601,2.03,-2.3625,-3.045
124,182327,0.5038600000000001,-0.034648000000000005,-0.8642481,2.17,-2.345,-2.835
125,182424,0.5072760000000001,-0.034648000000000005,-0.8647360000000001,2.03,-2.2225,-2.7825
126,182521,0.50752,-0.033916,-0.8657120999999999,1.925,-2.31,-2.8875
127,182618,0.509228,-0.031232,-0.8642481,1.8725,-2.2225,-3.0275
128,182715,0.511424,-0.031964,-0.863028,1.8725,-2.24,-3.1675
129,182812,0.509716,-0.029524,-0.863028,1.9075,-2.2925,-3.185
130,182909,0.509716,-0.032451999999999995,-0.8647360000000001,1.925,-2.345,-3.185
131,183006,0.509228,-0.030744,-0.864492,1.8375,-2.4325,-3.2025
132,183103,0.50874,-0.029768,-0.8637601,1.8025,-2.38,-3.185
133,183200,0.50874,-0.030256,-0.862784,1.8725,-2.4325,-3.2375
134,183297,0.5072760000000001,-0.03294,-0.8657120999999999,1.96,-2.5025,-3.325
135,183395,0.5072760000000001,-0.033672,-0.865956,1.8725,-2.5375,-3.29
136,183492,0.50752,-0.032451999999999995,-0.862296,1.9425,-2.5025,-3.2725
137,183589,0.50752,-0.031232,-0.8637601,1.925,-2.555,-3.2725
138,183686,0.50508,-0.033672,-0.863516,1.9075,-2.625,-3.255
139,183783,0.508984,-0.031232,-0.86498,1.89,-2.695,-3.2725
140,183880,0.5084960000000001,-0.030987999999999998,-0.863516,1.8375,-2.6425,-3.2725
141,183977,0.5070319999999999,-0.02806,-0.8640040000000001,1.8375,-2.5725,-3.185
142,184074,0.5060560000000001,-0.03172,-0.8642481,1.8375,-2.5725,-3.255
143,184171,0.5058121,-0.033428,-0.8615640999999999,1.855,-2.555,-3.22
144,184268,0.508984,-0.030744,-0.8637601,1.6975,-2.52,-3.2375
145,184365,0.506544,-0.031476,-0.864492,1.68,-2.45,-3.29
146,184462,0.502152,-0.030012,-0.860344,1.6275,-2.3975,-3.36
147,184559,0.50874,-0.03172,-0.8625401,1.645,-2.275,-3.3425
148,184656,0.505324,-0.03416,-0.8637601,1.61,-2.1875,-3.4475
149,184753,0.5063,-0.032451999999999995,-0.8652241,1.575,-2.17,-3.5525
150,184851,0.504836,-0.03416,-0.862296,1.54,-2.135,-3.57
151,184948,0.5077640999999999,-0.029524,-0.864492,1.505,-2.1175,-3.605
152,185045,0.504104,-0.029524,-0.8666879999999999,1.4875,-1.995,-3.605
153,185142,0.5072760000000001,-0.030012,-0.8652241,1.61,-1.8725,-3.605
154,185239,0.504836,-0.02806,-0.865468,1.5925,-1.96,-3.57
155,185336,0.50508,-0.030012,-0.8637601,1.645,-1.96,-3.4475
156,185433,0.5060560000000001,-0.029524,-0.8647360000000001,1.75,-1.8725,-3.325
157,185530,0.508252,-0.030012,-0.8620521000000001,1.715,-1.9075,-3.2725
158,185627,0.508008,-0.030256,-0.8640040000000001,1.715,-2.0125,-3.3075
159,185724,0.508008,-0.027083999999999997,-0.8647360000000001,1.8375,-2.0475,-3.2025
160,185821,0.509228,-0.02928,-0.8647360000000001,1.855,-2.135,-3.1675
161,185918,0.510204,-0.030012,-0.86498,1.925,-2.205,-3.0975
162,186015,0.508984,-0.028304000000000003,-0.8642481,1.96,-2.275,-3.08
163,186113,0.508008,-0.02806,-0.863028,1.96,-2.1875,-2.9925
164,186210,0.5084960000000001,-0.029768,-0.863028,2.065,-2.24,-2.9925
165,186307,0.50752,-0.029768,-0.8632719999999999,2.1,-2.275,-2.94
166,186404,0.5072760000000001,-0.029036000000000003,-0.8640040000000001,2.065,-2.3275,-3.0275
167,186501,0.5077640999999999,-0.03416,-0.86498,2.1175,-2.38,-2.9925
168,186598,0.509472,-0.031476,-0.8625401,2.1525,-2.345,-3.01
169,186695,0.508984,-0.031476,-0.862296,2.03,-2.275,-3.08
170,186792,0.50874,-0.029524,-0.862784,1.96,-2.3275,-3.22
171,186889,0.510204,-0.030744,-0.8637601,1.925,-2.3975,-3.1675
172,186986,0.50752,-0.029768,-0.862296,1.9425,-2.52,-3.2725
173,187083,0.510692,-0.029768,-0.8640040000000001,1.8725,-2.485,-3.2725
174,187180,0.5099600000000001,-0.030012,-0.8637601,1.7675,-2.415,-3.29
175,187277,0.506788,-0.02928,-0.8632719999999999,1.89,-2.45,-3.29
176,187374,0.506544,-0.02928,-0.864492,1.8725,-2.52,-3.2375
177,187472,0.5072760000000001,-0.027572000000000003,-0.8640040000000001,1.82,-2.485,-3.29
178,187569,0.5058121,-0.031232,-0.86498,1.925,-2.52,-3.325
179,187666,0.5060560000000001,-0.028548,-0.8642481,1.925,-2.485,-3.1325
180,187763,0.5060560000000001,-0.030987999999999998,-0.8642481,1.9425,-2.38,-3.185
181,187860,0.5070319999999999,-0.0305,-0.8637601,2.0825,-2.485,-3.1675
182,187957,0.50752,-0.028548,-0.863516,2.1175,-2.45,-3.0975
183,188054,0.50874,-0.028548,-0.864492,2.1525,-2.4325,-3.0625
184,188151,0.506544,-0.027816000000000004,-0.8632719999999999,2.2575,-2.5375,-2.94
185,188248,0.50874,-0.029036000000000003,-0.8642481,2.17,-2.6425,-2.975
186,188345,0.506788,-0.029524,-0.863516,2.24,-2.59,-2.905
187,188442,0.5070319999999999,-0.030987999999999998,-0.862296,2.2925,-2.625,-2.87
188,188539,0.508252,-0.02928,-0.8615640999999999,2.2575,-2.6775,-2.905
189,188636,0.5077640999999999,-0.031232,-0.8625401,2.205,-2.625,-2.9225
190,188733,0.5077640999999999,-0.030744,-0.8625401,2.135,-2.66,-3.01
191,188831,0.5072760000000001,-0.029524,-0.863516,2.1,-2.695,-2.9925
192,188928,0.508252,-0.029036000000000003,-0.8640040000000001,2.135,-2.59,-2.9575
193,189025,0.50752,-0.030744,-0.8613200000000001,2.1875,-2.625,-3.115
194,189122,0.5063,-0.032451999999999995,-0.86498,2.1,-2.555,-3.0625
195,189219,0.5077640999999999,-0.030012,-0.8625401,2.065,-2.52,-3.115
196,189316,0.50752,-0.030256,-0.8642481,2.0475,-2.5725,-3.1675
197,189413,0.5063,-0.030012,-0.8615640999999999,1.9425,-2.45,-3.22
198,189510,0.509228,-0.030987999999999998,-0.8637601,1.9075,-2.4675,-3.3075
199,189607,0.508252,-0.030012,-0.863516,1.9075,-2.45,-3.325
200,189704,0.5072760000000001,-0.031476,-0.8640040000000001,1.9075,-2.38,-3.395
201,189801,0.5063,-0.031964,-0.86498,1.82,-2.3275,-3.3075
202,189898,0.508252,-0.031232,-0.863028,1.8375,-2.3275,-3.3425
203,189995,0.504836,-0.030987999999999998,-0.8652241,1.8725,-2.3975,-3.36
204,190093,0.504104,-0.0305,-0.865468,1.8025,-2.3275,-3.5
205,190190,0.504836,-0.030012,-0.8632719999999999,1.82,-2.38,-3.4125
206,190287,0.50508,-0.030012,-0.8632719999999999,1.855,-2.275,-3.3075
207,190384,0.50508,-0.030012,-0.8652241,1.9075,-2.31,-3.255
208,190481,0.505568,-0.030256,-0.8637601,1.82,-2.31,-3.2375
209,190578,0.504836,-0.0305,-0.8632719999999999,1.995,-2.2925,-3.08
210,190675,0.5058121,-0.0305,-0.8642481,1.995,-2.17,-3.08
211,190772,0.5072760000000001,-0.03172,-0.8637601,1.9425,-2.1525,-3.0975
212,190869,0.5084960000000001,-0.030744,-0.863516,1.925,-2.03,-3.08
213,190966,0.5060560000000001,-0.030256,-0.863028,1.995,-2.0825,-3.1325
214,191063,0.508252,-0.030744,-0.862784,2.1,-2.135,-2.8875
215,191160,0.508008,-0.029768,-0.8637601,2.1175,-2.17,-2.7475
216,191257,0.509228,-0.030744,-0.8640040000000001,2.17,-2.2575,-2.835
217,191354,0.506544,-0.028792,-0.8632719999999999,2.1875,-2.24,-2.8875
218,191452,0.5070319999999999,-0.029768,-0.864492,2.2225,-2.17,-2.73
219,191549,0.50752,-0.030256,-0.8625401,2.275,-2.1175,-2.7125
220,191646,0.5038600000000001,-0.03172,-0.864492,2.45,-2.0825,-2.625
221,191743,0.5072760000000001,-0.029768,-0.862296,2.5375,-2.0825,-2.625
222,191840,0.5077640999999999,-0.033428,-0.864492,2.5725,-2.1875,-2.5725
223,191937,0.50752,-0.033916,-0.8642481,2.5375,-2.1,-2.6425
224,192034,0.508984,-0.03172,-0.862296,2.415,-2.275,-2.7825
225,192131,0.5063,-0.031232,-0.8601,2.4325,-2.205,-2.8
226,192228,0.5077640999999999,-0.033672,-0.8657120999999999,2.3275,-2.1875,-2.9225
227,192325,0.5070319999999999,-0.030744,-0.8613200000000001,2.3275,-2.1875,-2.905
228,192422,0.506788,-0.032208,-0.8640040000000001,2.275,-2.2575,-2.9925
229,192519,0.508008,-0.032451999999999995,-0.861808,2.17,-2.2575,-3.01
230,192616,0.5070319999999999,-0.033916,-0.863516,2.1175,-2.24,-3.08
231,192714,0.5063,-0.0305,-0.862296,2.0475,-2.2575,-3.15
232,192811,0.506788,-0.030744,-0.8620521000000001,2.03,-2.24,-3.185
233,192908,0.506544,-0.031232,-0.8632719999999999,2.065,-2.2225,-3.15
234,193005,0.5072760000000001,-0.030256,-0.8625401,2.135,-2.205,-3.045
235,193102,0.50874,-0.030744,-0.8632719999999999,2.3625,-2.2575,-2.8875
236,193199,0.506544,-0.031964,-0.8610761,2.3625,-2.24,-2.8
237,193296,0.509228,-0.031232,-0.862296,2.5025,-2.3275,-2.7825
238,193393,0.509228,-0.030987999999999998,-0.8647360000000001,2.485,-2.31,-2.7125
239,193490,0.509472,-0.03294,-0.861808,2.485,-2.2925,-2.73
240,193587,0.5084960000000001,-0.033428,-0.865956,2.4325,-2.2925,-2.7125
241,193684,0.506544,-0.032208,-0.86498,2.3975,-2.3625,-2.765
242,193781,0.506544,-0.034404000000000004,-0.861808,2.3975,-2.2925,-2.8175
243,193878,0.506788,-0.03538,-0.863028,2.31,-2.3275,-2.8875
244,193976,0.5077640999999999,-0.033916,-0.8642481,2.17,-2.275,-3.01
245,194073,0.508252,-0.033428,-0.8652241,2.1875,-2.3275,-3.0625
246,194170,0.5077640999999999,-0.032695999999999996,-0.8647360000000001,2.1175,-2.3275,-3.115
247,194267,0.509228,-0.030987999999999998,-0.863028,2.0825,-2.3275,-3.0975
248,194364,0.5072760000000001,-0.033672,-0.8666879999999999,2.0825,-2.2925,-3.01
249,194461,0.5084960000000001,-0.030012,-0.863516,2.1,-2.2925,-2.9925
250,194558,0.5063,-0.03294,-0.863516,2.0475,-2.275,-2.9575
251,194655,0.5063,-0.034648000000000005,-0.86498,2.0475,-2.3275,-3.01
252,194752,0.5084960000000001,-0.035136,-0.8637601,2.0125,-2.17,-3.045
253,194849,0.5058121,-0.034892,-0.864492,2.0825,-2.205,-3.1325
254,194946,0.5070319999999999,-0.034648000000000005,-0.8657120999999999,1.96,-2.1875,-3.115
255,195043,0.508008,-0.033428,-0.8652241,2.0475,-2.1875,-3.115
256,195140,0.508008,-0.030987999999999998,-0.863028,2.03,-2.3275,-3.1675
257,195238,0.5058121,-0.032451999999999995,-0.8640040000000001,2.03,-2.31,-3.1675
258,195335,0.509228,-0.03172,-0.8620521000000001,2.03,-2.345,-3.115
259,195432,0.508008,-0.034892,-0.8620521000000001,1.96,-2.2575,-3.115
260,195529,0.508008,-0.032695999999999996,-0.862784,1.9075,-2.38,-3.185
261,195626,0.50752,-0.032451999999999995,-0.862296,1.9775,-2.4675,-3.08
262,195723,0.508008,-0.033672,-0.8642481,2.0125,-2.4675,-3.0975
263,195820,0.5058121,-0.034404000000000004,-0.8637601,1.9425,-2.485,-3.0975
264,195917,0.506544,-0.034892,-0.8652241,1.8375,-2.4325,-3.2375
265,196014,0.5084960000000001,-0.035624,-0.8613200000000001,1.8375,-2.52,-3.185
266,196111,0.510204,-0.033428,-0.8625401,1.855,-2.45,-3.2725
267,196208,0.508252,-0.032208,-0.8637601,1.855,-2.45,-3.2375
268,196305,0.506788,-0.032451999999999995,-0.8632719999999999,1.8375,-2.5025,-3.2725
269,196402,0.504592,-0.034648000000000005,-0.861808,1.89,-2.555,-3.2375
270,196500,0.506544,-0.034404000000000004,-0.8632719999999999,1.9425,-2.6075,-3.2375
271,196597,0.5084960000000001,-0.03416,-0.863516,1.89,-2.52,-3.2375
272,196694,0.5070319999999999,-0.033916,-0.864492,1.9075,-2.5375,-3.325
273,196791,0.506788,-0.033428,-0.861808,1.82,-2.5025,-3.325
274,196888,0.5060560000000001,-0.034648000000000005,-0.863516,1.855,-2.5725,-3.395
275,196985,0.5072760000000001,-0.032695999999999996,-0.862296,1.75,-2.5025,-3.4125
276,197082,0.50874,-0.032451999999999995,-0.8625401,1.715,-2.4675,-3.5175
277,197179,0.505568,-0.035136,-0.8632719999999999,1.6275,-2.4325,-3.5525
278,197276,0.5060560000000001,-0.034404000000000004,-0.863028,1.68,-2.3975,-3.6225
279,197373,0.503616,-0.03538,-0.8620521000000001,1.575,-2.2575,-3.675
280,197470,0.5038600000000001,-0.03294,-0.862784,1.5925,-2.2225,-3.57
281,197567,0.502884,-0.033184,-0.8640040000000001,1.575,-2.24,-3.605
282,197664,0.5009319999999999,-0.029036000000000003,-0.8620521000000001,1.6275,-2.205,-3.5525
283,197762,0.50508,-0.0305,-0.8637601,1.6625,-2.0825,-3.36
284,197859,0.505324,-0.031476,-0.8610761,1.8025,-2.1,-3.2725
285,197956,0.506788,-0.032208,-0.863028,1.82,-2.1175,-3.2725
286,198053,0.5060560000000001,-0.034648000000000005,-0.8642481,1.925,-2.1175,-3.185
287,198150,0.50752,-0.031964,-0.8620521000000001,1.995,-2.205,-3.2025
288,198247,0.508252,-0.03294,-0.8632719999999999,1.925,-2.2225,-3.15
289,198344,0.5063,-0.03172,-0.860344,1.9425,-2.205,-3.1675
290,198441,0.506788,-0.030012,-0.862296,1.8725,-2.17,-3.115
291,198538,0.5060560000000001,-0.032695999999999996,-0.8615640999999999,1.995,-2.1875,-3.0975
292,198635,0.50752,-0.030744,-0.8625401,2.0125,-2.2925,-3.01
293,198732,0.5060560000000001,-0.033428,-0.864492,1.9775,-2.2575,-2.975
294,198829,0.508984,-0.031964,-0.8640040000000001,1.9775,-2.1525,-2.975
295,198926,0.506788,-0.033916,-0.8632719999999999,2.0475,-2.17,-2.9925
296,199024,0.508008,-0.03416,-0.863516,1.96,-2.24,-3.0275
297,199121,0.508252,-0.032208,-0.862296,1.89,-2.2225,-3.115
298,199218,0.509472,-0.032451999999999995,-0.862296,1.89,-2.2225,-3.15
299,199315,0.508984,-0.031964,-0.863028,1.925,-2.275,-3.2375
300,199412,0.509472,-0.031964,-0.8615640999999999,1.9075,-2.3275,-3.255
301,199509,0.508252,-0.031964,-0.861808,1.8725,-2.31,-3.22
302,199606,0.506544,-0.031476,-0.862296,1.7675,-2.415,-3.22
303,199703,0.506788,-0.030744,-0.8615640999999999,1.855,-2.45,-3.2725
304,199800,0.506788,-0.031964,-0.863028,1.89,-2.4325,-3.255
305,199897,0.5060560000000001,-0.031964,-0.8605879999999999,1.8375,-2.415,-3.255
306,199994,0.5077640999999999,-0.033184,-0.8615640999999999,1.89,-2.345,-3.2725
307,200091,0.5077640999999999,-0.032695999999999996,-0.8620521000000001,1.9075,-2.2925,-3.1325
308,200188,0.5084960000000001,-0.033672,-0.8640040000000001,1.9075,-2.2925,-3.115
309,200286,0.5084960000000001,-0.032208,-0.863516,1.9425,-2.38,-3.185
310,200383,0.5084960000000001,-0.030987999999999998,-0.862296,1.925,-2.3625,-3.2025
311,200480,0.508984,-0.03294,-0.8625401,1.925,-2.415,-3.22
312,200577,0.508252,-0.033184,-0.86498,1.995,-2.4325,-3.22
313,200674,0.508008,-0.03172,-0.863516,1.96,-2.5025,-3.15
314,200771,0.50874,-0.0305,-0.8625401,1.9775,-2.45,-3.15
315,200868,0.506544,-0.032695999999999996,-0.86498,1.9775,-2.45,-3.1675
316,200965,0.50508,-0.034892,-0.8625401,2.03,-2.625,-3.15
317,201062,0.505568,-0.034404000000000004,-0.862784,2.03,-2.6425,-3.08
318,201159,0.5060560000000001,-0.033184,-0.863028,2.0825,-2.555,-3.15
319,201256,0.5077640999999999,-0.030987999999999998,-0.861808,2.0475,-2.4675,-3.115
320,201353,0.5060560000000001,-0.031964,-0.8613200000000001,1.9775,-2.5025,-3.1325
321,201450,0.508252,-0.033184,-0.8657120999999999,1.995,-2.555,-3.2375
322,201548,0.506788,-0.03416,-0.8657120999999999,1.9075,-2.485,-3.36
323,201645,0.50752,-0.030744,-0.862296,1.8725,-2.485,-3.3425
324,201742,0.50752,-0.031232,-0.8637601,1.8725,-2.5025,-3.3425
325,201839,0.5060560000000001,-0.027572000000000003,-0.8642481,1.82,-2.4325,-3.395
326,201936,0.5060560000000001,-0.034404000000000004,-0.864492,1.8725,-2.5025,-3.395
327,202033,0.5063,-0.033672,-0.863516,1.855,-2.45,-3.4475
328,202130,0.504592,-0.03294,-0.86498,1.7675,-2.3625,-3.5525
329,202227,0.503616,-0.033428,-0.862784,1.785,-2.2575,-3.535
330,202324,0.502152,-0.030012,-0.862296,1.7325,-2.38,-3.6575
331,202421,0.5060560000000001,-0.030256,-0.8640040000000001,1.715,-2.2225,-3.535
332,202518,0.5043479999999999,-0.031232,-0.8647360000000001,1.785,-2.2575,-3.36
333,202615,0.505324,-0.033672,-0.862296,1.75,-2.1525,-3.4475
334,202713,0.506788,-0.033184,-0.861808,1.68,-2.205,-3.5175
335,202810,0.506788,-0.0305,-0.8615640999999999,1.6975,-2.1875,-3.465
336,202907,0.5072760000000001,-0.030987999999999998,-0.8625401,1.7325,-2.205,-3.465
337,203004,0.5063,-0.032451999999999995,-0.863516,1.8025,-2.2225,-3.4825
338,203101,0.505568,-0.032208,-0.863516,1.7675,-2.1175,-3.4475
339,203198,0.5070319999999999,-0.032208,-0.8637601,1.785,-2.1875,-3.3075
340,203295,0.506544,-0.03172,-0.8632719999999999,1.89,-2.135,-3.29
341,203392,0.505324,-0.033184,-0.862784,1.89,-2.0825,-3.2025
342,203489,0.505568,-0.032695999999999996,-0.8610761,1.89,-2.065,-3.29
343,203586,0.504592,-0.028792,-0.8620521000000001,1.82,-1.89,-3.3075
344,203683,0.505568,-0.028304000000000003,-0.862296,1.8725,-1.9425,-3.2725
345,203780,0.5070319999999999,-0.0305,-0.8632719999999999,1.8025,-1.9425,-3.3075
346,203877,0.504104,-0.033672,-0.8657120999999999,1.8725,-1.855,-3.22
347,203975,0.506544,-0.030744,-0.8615640999999999,1.8725,-1.855,-3.1325
348,204072,0.5072760000000001,-0.031964,-0.8642481,1.8725,-1.925,-3.115
349,204169,0.506544,-0.0305,-0.8605879999999999,1.96,-2.03,-3.115
350,204266,0.509228,-0.031232,-0.863028,1.96,-2.135,-3.0975
351,204363,0.5077640999999999,-0.029524,-0.861808,1.9075,-2.1,-3.1675
352,204460,0.508008,-0.030256,-0.863028,2.1,-2.275,-3.1325
353,204557,0.50752,-0.02928,-0.8642481,2.065,-2.38,-2.9925
354,204654,0.5063,-0.032451999999999995,-0.865956,2.24,-2.415,-2.835
355,204751,0.5060560000000001,-0.029524,-0.861808,2.2225,-2.3975,-2.94
356,204848,0.5084960000000001,-0.032208,-0.863028,2.1525,-2.4325,-2.9225
357,204945,0.506788,-0.030744,-0.863028,2.205,-2.4325,-2.94
358,205042,0.5072760000000001,-0.034648000000000005,-0.864492,2.135,-2.5375,-3.01
359,205139,0.509716,-0.031964,-0.863028,2.135,-2.5375,-3.01
360,205237,0.5060560000000001,-0.031232,-0.8601,2.17,-2.5025,-2.9925
361,205334,0.50752,-0.031476,-0.8632719999999999,2.0825,-2.52,-2.975
362,205431,0.5070319999999999,-0.032208,-0.8625401,2.135,-2.555,-3.0975
363,205528,0.505568,-0.032451999999999995,-0.8652241,2.065,-2.485,-3.15
364,205625,0.504836,-0.033428,-0.864492,2.0475,-2.38,-3.0625
365,205722,0.5070319999999999,-0.034648000000000005,-0.8625401,1.96,-2.345,-3.0275
366,205819,0.508008,-0.032208,-0.8632719999999999,1.9775,-2.3975,-3.1675
367,205916,0.508984,-0.030012,-0.8640040000000001,1.9775,-2.45,-3.1675
368,206013,0.505568,-0.033672,-0.8640040000000001,1.9775,-2.38,-3.115
369,206110,0.5060560000000001,-0.030987999999999998,-0.8620521000000001,2.0125,-2.415,-3.1325
370,206207,0.5099600000000001,-0.030012,-0.8632719999999999,2.03,-2.485,-3.0975
371,206304,0.506788,-0.032451999999999995,-0.863516,1.995,-2.52,-3.045
372,206401,0.5072760000000001,-0.03416,-0.8640040000000001,1.9775,-2.5375,-3.1325
373,206498,0.508252,-0.033672,-0.865468,1.9775,-2.555,-3.08
374,206596,0.5077640999999999,-0.031232,-0.8632719999999999,2.0125,-2.52,-3.115
375,206693,0.508252,-0.033428,-0.863516,1.925,-2.3975,-3.1675
376,206790,0.5070319999999999,-0.033428,-0.8647360000000001,1.995,-2.3975,-3.325
377,206887,0.506544,-0.032695999999999996,-0.8642481,1.9075,-2.2925,-3.3075
378,206984,0.508008,-0.031232,-0.861808,1.855,-2.3275,-3.36
379,207081,0.508008,-0.030012,-0.8640040000000001,1.82,-2.3975,-3.3775
380,207178,0.5060560000000001,-0.030012,-0.862784,1.8725,-2.415,-3.3075
381,207275,0.5063,-0.033672,-0.8642481,2.0125,-2.4675,-3.255
382,207372,0.5099600000000001,-0.030987999999999998,-0.863028,1.9425,-2.5375,-3.2725
383,207469,0.506544,-0.031476,-0.8640040000000001,2.03,-2.6075,-3.29
384,207566,0.50874,-0.029768,-0.864492,2.0825,-2.625,-3.1675
385,207663,0.509228,-0.031476,-0.8625401,2.135,-2.7125,-3.15
386,207760,0.5084960000000001,-0.031232,-0.8632719999999999,2.1875,-2.7825,-3.0275
387,207857,0.50874,-0.031476,-0.862784,2.1875,-2.87,-3.08
388,207955,0.5063,-0.033916,-0.8632719999999999,2.2225,-2.8525,-3.185
389,208052,0.504592,-0.033428,-0.8632719999999999,2.135,-2.94,-3.2375
390,208149,0.5063,-0.032451999999999995,-0.8615640999999999,2.0475,-2.835,-3.29
391,208246,0.5023960999999999,-0.03538,-0.862784,1.9775,-2.8,-3.3775
392,208343,0.505324,-0.032208,-0.8632719999999999,1.96,-2.7125,-3.4475
393,208440,0.5063,-0.032451999999999995,-0.8620521000000001,1.9075,-2.73,-3.535
394,208537,0.5060560000000001,-0.033184,-0.862784,1.8725,-2.66,-3.605
395,208634,0.50264,-0.032208,-0.864492,1.8025,-2.5725,-3.6225
396,208731,0.5009319999999999,-0.030744,-0.8625401,1.7325,-2.5025,-3.71
397,208828,0.502152,-0.028792,-0.8608319999999999,1.6975,-2.415,-3.605
398,208925,0.50142,-0.030987999999999998,-0.8613200000000001,1.75,-2.4675,-3.57
399,209022,0.505324,-0.031476,-0.862296,1.925,-2.3975,-3.43
400,209120,0.5038600000000001,-0.031964,-0.8637601,1.855,-2.2575,-3.465
401,209217,0.503372,-0.028792,-0.8637601,1.8725,-2.275,-3.5175
402,209314,0.5043479999999999,-0.033672,-0.863028,1.8025,-2.1525,-3.5175
403,209411,0.5038600000000001,-0.02928,-0.865468,1.8375,-2.205,-3.5175
404,209508,0.5043479999999999,-0.030012,-0.8652241,1.8725,-2.135,-3.5175
405,209605,0.506788,-0.0305,-0.8620521000000001,1.89,-2.275,-3.4125
406,209702,0.50508,-0.030256,-0.8632719999999999,1.8375,-2.2925,-3.3775
407,209799,0.506544,-0.028304000000000003,-0.863516,1.96,-2.275,-3.325
408,209896,0.504104,-0.030744,-0.864492,2.0475,-2.3625,-3.2375
409,209993,0.5060560000000001,-0.030987999999999998,-0.8647360000000001,2.1,-2.45,-3.3075
410,210090,0.506544,-0.032451999999999995,-0.863516,2.1875,-2.485,-3.2375
411,210187,0.5070319999999999,-0.032208,-0.8637601,2.275,-2.5025,-3.185
412,210284,0.5070319999999999,-0.030987999999999998,-0.8620521000000001,2.275,-2.5725,-3.08
413,210381,0.505324,-0.033184,-0.8625401,2.2575,-2.5725,-3.115
414,210479,0.506544,-0.030744,-0.8640040000000001,2.24,-2.695,-3.2025
415,210576,0.5043479999999999,-0.03294,-0.864492,2.2575,-2.6425,-3.2725
416,210673,0.504104,-0.033916,-0.862784,2.135,-2.59,-3.2025
417,210770,0.504836,-0.030256,-0.8666879999999999,2.0125,-2.415,-3.2375
418,210867,0.503128,-0.029524,-0.8669319999999999,1.9775,-2.3625,-3.045
419,210964,0.50508,-0.02928,-0.8637601,1.925,-2.2575,-2.7825
420,211061,0.505324,-0.032451999999999995,-0.8652241,2.2575,-2.4325,-2.4675
421,211158,0.5043479999999999,-0.033916,-0.861808,2.24,-2.4675,-2.3275
422,211255,0.505324,-0.031964,-0.8637601,2.17,-2.4325,-2.275
423,211352,0.506788,-0.034892,-0.863516,2.1875,-2.45,-2.38
424,211449,0.5058121,-0.037576,-0.863516,2.065,-2.555,-2.555
425,211546,0.503372,-0.037088,-0.8632719999999999,1.96,-2.555,-2.835
426,211643,0.5038600000000001,-0.034892,-0.863028,1.9075,-2.59,-2.94
427,211741,0.50142,-0.0366,-0.8615640999999999,1.855,-2.5375,-3.115
428,211838,0.504104,-0.034404000000000004,-0.8615640999999999,1.8025,-2.485,-3.3075
429,211935,0.5016641,-0.03294,-0.8664440000000001,1.855,-2.6075,-3.4125
430,212032,0.505324,-0.033428,-0.8608319999999999,1.8725,-2.59,-3.465
431,212129,0.503372,-0.030744,-0.865956,1.8725,-2.59,-3.57
432,212226,0.503616,-0.031232,-0.865956,1.9075,-2.6425,-3.57
433,212323,0.505324,-0.032695999999999996,-0.8620521000000001,1.9775,-2.6775,-3.71
434,212420,0.505324,-0.030256,-0.8642481,1.995,-2.73,-3.675
435,212517,0.5038600000000001,-0.030987999999999998,-0.8657120999999999,1.9775,-2.73,-3.57
436,212614,0.5038600000000001,-0.031476,-0.8666879999999999,2.1175,-2.8,-3.605
437,212711,0.5038600000000001,-0.029768,-0.8662001,2.03,-2.765,-3.535
438,212808,0.5038600000000001,-0.029768,-0.862784,2.1175,-2.8,-3.4825
439,212905,0.503128,-0.030012,-0.8662001,2.1,-2.7825,-3.4125
440,213002,0.5023960999999999,-0.030744,-0.865468,2.065,-2.6425,-3.3775
441,213100,0.50264,-0.030744,-0.863028,2.0125,-2.66,-3.29
442,213197,0.50264,-0.029524,-0.862784,1.89,-2.6075,-3.08
443,213294,0.505568,-0.029524,-0.8664440000000001,2.0125,-2.6075,-3.08
444,213391,0.501908,-0.03172,-0.865468,1.925,-2.7125,-3.0975
445,213488,0.503616,-0.0305,-0.8647360000000001,1.9775,-2.66,-3.01
446,213585,0.502884,-0.030012,-0.8652241,2.0125,-2.6075,-2.9925
447,213682,0.502152,-0.032451999999999995,-0.86498,2.03,-2.52,-2.9925
448,213779,0.503372,-0.034648000000000005,-0.862296,2.065,-2.6075,-3.0975
449,213876,0.5023960999999999,-0.030256,-0.8647360000000001,2.1,-2.6075,-3.115
450,213973,0.501908,-0.03172,-0.865956,2.1525,-2.6075,-3.22
451,214070,0.500688,-0.031964,-0.8640040000000001,2.1175,-2.6775,-3.255
452,214167,0.500444,-0.0305,-0.8642481,2.0475,-2.73,-3.2375
453,214265,0.501908,-0.0305,-0.8632719999999999,2.1525,-2.6425,-3.2025
454,214362,0.501908,-0.032695999999999996,-0.8662001,2.1525,-2.5375,-3.1325
455,214459,0.50142,-0.031476,-0.8652241,2.0825,-2.59,-3.1325
456,214556,0.502152,-0.03172,-0.8647360000000001,2.0475,-2.6075,-3.255
457,214653,0.5016641,-0.032695999999999996,-0.8662001,2.0125,-2.625,-3.3775
458,214750,0.50264,-0.030256,-0.8664440000000001,2.065,-2.66,-3.5175
459,214847,0.50264,-0.031964,-0.865956,2.0825,-2.6075,-3.4475
460,214944,0.502884,-0.031232,-0.8674200000000001,2.17,-2.6775,-3.465
461,215041,0.50264,-0.032451999999999995,-0.8674200000000001,2.2575,-2.695,-3.4125
462,215138,0.503372,-0.03294,-0.8647360000000001,2.0825,-2.59,-3.22
463,215235,0.5016641,-0.02806,-0.8662001,2.03,-2.5025,-3.045
464,215332,0.5038600000000001,-0.029036000000000003,-0.8666879999999999,2.0475,-2.2925,-2.7475
465,215430,0.503616,-0.0305,-0.8713241,1.9075,-2.1875,-2.3625
466,215527,0.5038600000000001,-0.027327999999999998,-0.8674200000000001,1.9075,-2.135,-1.7675
467,215624,0.503372,-0.032695999999999996,-0.8671761,1.8025,-2.1,-1.19
468,215721,0.50142,-0.033428,-0.8574161,1.4525,-2.205,-0.945
469,215818,0.5009319999999999,-0.034892,-0.8664440000000001,0.91,-2.0125,-1.12
470,215915,0.503616,-0.03782,-0.8608319999999999,0.595,-1.7675,-1.3825
471,216012,0.5023960999999999,-0.040016,-0.8666879999999999,0.105,-1.5925,-1.96
472,216109,0.5009319999999999,-0.04514,-0.861808,-0.07,-1.4525,-2.5725
473,216206,0.503128,-0.034892,-0.863516,-0.175,-1.47,-3.0625
474,216303,0.499468,-0.009516001,-0.8615640999999999,-0.07,-1.68,-3.5
475,216400,0.49263599999999996,-0.043676,-0.850096,0.455,-1.7675,-3.92
476,216497,0.504592,-0.027327999999999998,-0.8620521000000001,0.28,-1.995,-3.745
477,216595,0.501908,-0.031476,-0.8615640999999999,0.5775,-2.2575,-3.6575
478,216692,0.5063,-0.03294,-0.8610761,0.8225,-2.2925,-3.8325
479,216789,0.505568,-0.031476,-0.8647360000000001,0.9975,-2.5375,-3.92
480,216886,0.5038600000000001,-0.02684,-0.862784,1.4,-2.835,-3.9025
481,216983,0.500688,-0.026108,-0.8669319999999999,1.7325,-2.975,-3.8325
482,217080,0.5016641,-0.026351999999999997,-0.8647360000000001,2.0825,-3.045,-3.6925
483,217177,0.502152,-0.027083999999999997,-0.8664440000000001,2.2925,-3.115,-3.6925
484,217274,0.502152,-0.027816000000000004,-0.8637601,2.66,-3.2375,-3.57
485,217371,0.502884,-0.031232,-0.86498,2.9575,-3.255,-3.4475
486,217468,0.502884,-0.033184,-0.8647360000000001,3.1325,-3.465,-3.5875
487,217565,0.501908,-0.030744,-0.8647360000000001,3.2375,-3.535,-3.92
488,217662,0.498004,-0.030012,-0.8669319999999999,3.255,-3.36,-4.165
489,217759,0.49898000000000003,-0.027816000000000004,-0.868396,3.4125,-3.2375,-4.2525
490,217857,0.5009319999999999,-0.026108,-0.868396,3.4125,-2.8525,-4.1825
491,217954,0.501908,-0.030987999999999998,-0.8671761,3.3775,-2.5375,-4.0075
492,218051,0.503372,-0.032208,-0.868396,3.115,-2.205,-3.815
493,218148,0.502884,-0.031476,-0.8669319999999999,2.8875,-2.03,-3.78
494,218245,0.503128,-0.028548,-0.865956,2.765,-1.8025,-3.6575
495,218342,0.499468,-0.025863999999999998,-0.86498,2.765,-1.61,-3.5175
496,218439,0.5016641,-0.024156,-0.869128,2.8,-1.2775,-3.15
497,218536,0.502152,-0.03172,-0.8693719999999999,2.905,-0.9625,-2.8
498,218633,0.502152,-0.033672,-0.8664440000000001,2.87,-0.525,-2.6425
499,218730,0.499712,-0.038551999999999996,-0.865468,2.555,-0.175,-2.6075
500,218827,0.503372,-0.037088,-0.862296,2.2925,-0.105,-2.8175
501,218924,0.5077640999999999,-0.03172,-0.8632719999999999,2.1175,-0.1225,-2.9575
502,219021,0.5058121,-0.02684,-0.8664440000000001,2.065,-0.385,-2.8525
503,219118,0.5058121,-0.026351999999999997,-0.8632719999999999,2.24,-0.5425,-2.5725
504,219215,0.5038600000000001,-0.027816000000000004,-0.864492,2.485,-0.6475,-2.17
505,219312,0.508008,-0.036112,-0.860344,2.66,-0.98,-1.7675
506,219410,0.5038600000000001,-0.042944,-0.860344,2.6775,-1.2425,-1.8375
507,219507,0.5063,-0.043188,-0.861808,2.3625,-1.435,-2.2575
508,219604,0.5070319999999999,-0.038308,-0.862296,1.995,-1.4525,-2.8175
509,219701,0.50508,-0.037332,-0.8647360000000001,1.6625,-1.4175,-3.29
510,219798,0.503372,-0.03294,-0.863028,1.47,-1.4875,-3.605
511,219895,0.508008,-0.031476,-0.8613200000000001,1.1725,-1.4,-3.85
512,219992,0.504104,-0.0305,-0.8664440000000001,1.12,-1.47,-4.0075
513,220089,0.5060560000000001,-0.026351999999999997,-0.8637601,1.085,-1.47,-3.8325
514,220186,0.506788,-0.026595999999999998,-0.8642481,1.2075,-1.365,-3.5175
515,220283,0.5072760000000001,-0.029524,-0.8632719999999999,0.9975,-1.3125,-3.15
516,220380,0.508008,-0.029768,-0.859856,0.9625,-1.295,-2.9925
517,220477,0.50874,-0.027572000000000003,-0.863516,0.945,-1.54,-2.9575
518,220574,0.508984,-0.029036000000000003,-0.8605879999999999,0.9625,-1.6975,-2.87
519,220672,0.509716,-0.025863999999999998,-0.863028,0.7525,-1.8725,-2.695
520,220769,0.510692,-0.02562,-0.8632719999999999,0.805,-2.1875,-2.6775
521,220866,0.506544,-0.026595999999999998,-0.8620521000000001,0.945,-2.4675,-2.6775
522,220963,0.508008,-0.023912,-0.859368,1.225,-2.7475,-2.625
523,221060,0.508008,-0.024888,-0.8615640999999999,1.54,-3.0275,-2.45
524,221157,0.5063,-0.030012,-0.862784,1.9075,-3.36,-2.345
525,221254,0.500688,-0.024644,-0.8647360000000001,2.3275,-3.6225,-2.3625
526,221351,0.499712,-0.026351999999999997,-0.8620521000000001,2.7825,-3.8325,-2.1525
527,221448,0.5011760000000001,-0.028304000000000003,-0.8601,3.255,-3.92,-1.855
528,221545,0.505324,-0.043188,-0.85644,3.71,-4.1125,-1.8725
529,221642,0.49849209999999994,-0.02928,-0.85644,3.8325,-4.2525,-2.0125
530,221739,0.5009319999999999,-0.042944,-0.8613200000000001,4.025,-4.375,-2.205
531,221836,0.49995600000000007,-0.044407999999999996,-0.860344,4.1125,-4.2175,-2.52
532,221933,0.49873599999999996,-0.036356,-0.863516,3.7975,-4.095,-3.2725
533,222031,0.499468,-0.035868000000000004,-0.863028,3.6225,-3.885,-3.465
534,222128,0.49995600000000007,-0.049532,-0.8652241,3.675,-3.78,-4.025
535,222225,0.500688,-0.03782,-0.863028,3.255,-3.3775,-4.55
536,222322,0.5072760000000001,-0.044652,-0.8657120999999999,2.905,-3.08,-4.9525
537,222419,0.503372,-0.019032,-0.8637601,2.555,-2.87,-5.1275
538,222516,0.5043479999999999,-0.035136,-0.8640040000000001,2.31,-2.73,-4.7075
539,222613,0.505324,-0.035624,-0.8652241,2.3275,-2.7125,-4.2
540,222710,0.5043479999999999,-0.034404000000000004,-0.865468,2.1875,-2.625,-3.99
541,222807,0.502152,-0.036356,-0.862784,2.0475,-2.66,-3.9375
542,222904,0.503372,-0.03538,-0.8640040000000001,1.8375,-2.7475,-3.9025
543,223001,0.5002,-0.032451999999999995,-0.8625401,1.75,-2.695,-4.025
544,223098,0.498004,-0.03172,-0.8620521000000001,1.785,-2.905,-3.9375
545,223195,0.4941,-0.03294,-0.8615640999999999,1.8025,-2.9225,-3.8325
546,223293,0.49605200000000005,-0.037576,-0.863028,1.785,-2.87,-3.85
547,223390,0.49532,-0.032695999999999996,-0.865468,1.75,-2.695,-3.885
548,223487,0.499712,-0.031476,-0.86498,1.785,-2.555,-3.8325
549,223584,0.49654,-0.038064,-0.865468,1.82,-2.415,-3.7275
550,223681,0.49824799999999997,-0.039528,-0.8671761,1.61,-2.1175,-3.92
551,223778,0.49824799999999997,-0.030012,-0.8666879999999999,1.54,-2.0475,-4.0075
552,223875,0.49556400000000006,-0.030987999999999998,-0.8666879999999999,1.54,-1.75,-3.955
553,223972,0.49556400000000006,-0.03538,-0.863516,1.6275,-1.61,-3.745
554,224069,0.49873599999999996,-0.054412,-0.865468,1.5925,-1.1725,-3.9375
555,224166,0.50752,-0.02196,-0.8662001,1.1725,-0.7525,-4.48
556,224263,0.5072760000000001,-0.029524,-0.865468,1.1025,-0.7175,-4.375
557,224360,0.515084,-0.06636801,-0.868884,1.2075,-0.63,-4.3575
558,224457,0.5121560000000001,-0.012444,-0.869616,0.8575,-0.77,-4.4625
559,224555,0.5038600000000001,-0.027572000000000003,-0.8666879999999999,1.2775,-0.98,-3.99
560,224652,0.515084,-0.031232,-0.8632719999999999,1.4875,-1.1725,-3.85
561,224749,0.510204,-0.025131999999999998,-0.868152,1.505,-1.33,-3.605
562,224846,0.5072760000000001,-0.027327999999999998,-0.86498,1.715,-1.6275,-3.3425
563,224943,0.508008,-0.02684,-0.8662001,1.855,-1.785,-3.1675
564,225040,0.5063,-0.027327999999999998,-0.8669319999999999,2.2225,-1.89,-2.905
565,225137,0.503372,-0.028304000000000003,-0.8642481,2.4325,-2.1525,-2.7125
566,225234,0.49995600000000007,-0.025863999999999998,-0.865956,2.6425,-2.1525,-2.5025
567,225331,0.500444,-0.03172,-0.8662001,2.94,-2.1175,-2.135
568,225428,0.502884,-0.031476,-0.8674200000000001,3.1675,-2.0475,-1.9775
569,225525,0.500688,-0.033916,-0.8674200000000001,3.1675,-1.89,-1.89
570,225622,0.511424,-0.040260000000000004,-0.8647360000000001,3.0625,-1.785,-2.065
571,225719,0.506544,-0.038551999999999996,-0.863516,2.8,-1.61,-2.2575
572,225817,0.5099600000000001,-0.037332,-0.8615640999999999,2.555,-1.5925,-2.625
573,225914,0.50752,-0.036112,-0.8640040000000001,2.24,-1.505,-2.9225
574,226011,0.5099600000000001,-0.035868000000000004,-0.861808,1.995,-1.435,-3.2375
575,226108,0.50752,-0.035136,-0.8647360000000001,1.855,-1.5225,-3.29
576,226205,0.506544,-0.03294,-0.8613200000000001,1.7325,-1.4,-3.5
577,226302,0.504592,-0.032451999999999995,-0.86498,1.6975,-1.5225,-3.5875
578,226399,0.505324,-0.027816000000000004,-0.8640040000000001,1.645,-1.575,-3.57
579,226496,0.504104,-0.028304000000000003,-0.862296,1.75,-1.7325,-3.5525
580,226593,0.506788,-0.028548,-0.8625401,1.8375,-1.8725,-3.3425
581,226690,0.5084960000000001,-0.031232,-0.8632719999999999,1.9775,-1.9425,-3.1675
582,226787,0.5072760000000001,-0.029524,-0.8620521000000001,2.065,-2.1525,-3.1325
583,226884,0.5070319999999999,-0.030256,-0.8632719999999999,2.1525,-2.31,-3.115
584,226981,0.5058121,-0.02928,-0.8632719999999999,2.24,-2.52,-2.9575
585,227079,0.505324,-0.02806,-0.862784,2.415,-2.7825,-2.8
586,227176,0.509228,-0.030744,-0.863516,2.38,-2.87,-2.6425
587,227273,0.5072760000000001,-0.035136,-0.863028,2.5375,-3.115,-2.6775
588,227370,0.501908,-0.034404000000000004,-0.864492,2.4675,-3.2375,-2.8
589,227467,0.503128,-0.03416,-0.8647360000000001,2.31,-3.2725,-3.01
590,227564,0.503372,-0.028548,-0.863028,2.205,-3.1675,-2.975
591,227661,0.5060560000000001,-0.032208,-0.863516,2.275,-3.2375,-2.73
592,227758,0.505568,-0.032208,-0.8642481,2.345,-3.15,-2.38
593,227855,0.5070319999999999,-0.029524,-0.863516,2.345,-3.29,-2.0125
594,227952,0.5063,-0.036844,-0.8640040000000001,2.31,-3.3425,-1.7325
595,228049,0.508252,-0.034404000000000004,-0.8647360000000001,1.9425,-3.5175,-1.6975
596,228146,0.506788,-0.0366,-0.8632719999999999,1.5575,-3.57,-1.68
597,228243,0.509716,-0.039284,-0.8642481,1.295,-3.57,-1.8025
598,228341,0.5063,-0.039528,-0.8637601,0.9275,-3.395,-2.275
599,228438,0.5077640999999999,-0.035136,-0.865956,0.5775,-3.3075,-2.5725
600,228535,0.504592,-0.040016,-0.865468,0.4375,-3.15,-2.8175
601,228632,0.503616,-0.038551999999999996,-0.865956,0.2625,-2.905,-3.2725
602,228729,0.50264,-0.035624,-0.86498,0.0875,-2.695,-3.7975
603,228826,0.49898000000000003,-0.033672,-0.865956,-0.07,-2.485,-3.9375
604,228923,0.5016641,-0.0305,-0.86498,0.0525,-2.3975,-4.0075
605,229020,0.50142,-0.030987999999999998,-0.863028,0.175,-2.31,-4.095
606,229117,0.499712,-0.030744,-0.8601,0.4025,-2.3275,-3.99
607,229214,0.5002,-0.029036000000000003,-0.864492,0.7875,-2.38,-3.9375
608,229311,0.5009319999999999,-0.0305,-0.8605879999999999,1.19,-2.5025,-3.8325
609,229408,0.502152,-0.033672,-0.865956,1.47,-2.6075,-3.71
610,229506,0.49995600000000007,-0.031232,-0.861808,1.6275,-2.73,-3.7275
611,229603,0.5016641,-0.031964,-0.86498,1.785,-2.7475,-3.7975
612,229700,0.50264,-0.03294,-0.864492,1.855,-2.7475,-3.8675
613,229797,0.502152,-0.03538,-0.8647360000000001,1.8025,-2.695,-4.06
614,229894,0.49995600000000007,-0.034404000000000004,-0.8676640999999999,1.75,-2.6075,-4.3225
615,229991,0.50264,-0.031232,-0.8676640999999999,1.715,-2.4675,-4.4975
616,230088,0.50264,-0.03172,-0.86864,1.7675,-2.415,-4.5325
617,230185,0.5016641,-0.031232,-0.8662001,1.715,-2.2925,-4.48
618,230282,0.5023960999999999,-0.029768,-0.8640040000000001,1.575,-2.1525,-4.3925
619,230379,0.502152,-0.028548,-0.8642481,1.4,-1.9425,-4.305
620,230476,0.502152,-0.0244,-0.865956,1.4175,-1.9075,-4.2175
621,230573,0.503128,-0.02562,-0.864492,1.5225,-1.855,-4.06
622,230670,0.504592,-0.024888,-0.865468,1.68,-1.8725,-3.78
623,230768,0.5063,-0.024888,-0.862296,1.785,-1.89,-3.675
624,230865,0.50142,-0.0244,-0.865956,1.9425,-1.89,-3.43
625,230962,0.50142,-0.025863999999999998,-0.8679081,1.9425,-1.7675,-3.255
626,231059,0.5043479999999999,-0.025131999999999998,-0.8669319999999999,2.17,-1.715,-3.15
627,231156,0.502152,-0.022203999999999998,-0.8666879999999999,2.5025,-1.645,-3.01
628,231253,0.49898000000000003,-0.025131999999999998,-0.8662001,2.73,-1.4175,-2.765
629,231350,0.499224,-0.023668,-0.8652241,3.045,-1.2775,-2.4675
630,231447,0.49824799999999997,-0.025376,-0.8640040000000001,3.3075,-1.1025,-2.135
631,231544,0.496296,-0.02928,-0.8632719999999999,3.5,-0.875,-1.8025
632,231641,0.49580799999999997,-0.030744,-0.8632719999999999,3.4475,-0.5775,-1.6975
633,231738,0.49702799999999997,-0.026351999999999997,-0.860344,3.29,-0.2975,-1.5575
634,231835,0.498004,-0.02928,-0.8605879999999999,3.2375,0.14,-1.3825
635,231932,0.498004,-0.031476,-0.8601,3.2025,0.8575,-1.365
636,232030,0.5016641,-0.025376,-0.8632719999999999,3.255,1.96,-1.33
637,232127,0.49556400000000006,-0.027572000000000003,-0.8620521000000001,3.64,3.115,-0.9975
638,232224,0.49702799999999997,-0.027327999999999998,-0.859856,3.955,4.585,-0.7175
639,232321,0.49117200000000005,-0.015128,-0.8613200000000001,4.27,6.37,-0.2275
640,232418,0.493856,-0.01098,-0.862296,4.83,8.4,0.7175
641,232515,0.489464,-0.009516001,-0.870592,5.32,10.9025,2.2925
642,232612,0.48653599999999997,0.0122,-0.8823040000000001,6.23,14.77,4.76
643,232709,0.485804,-0.15372,-0.847412,8.0325,19.8625,7.8225
644,232806,0.332572,0.124928,-1.028704,3.9375,29.6275,10.7275
645,232903,0.472384,-0.0671,-0.904752,13.5975,45.675,10.71
646,233000,0.477996,0.03782,-0.9394,14.1925,58.66,12.8275
647,233097,0.48214399999999996,-0.032208,-0.9501360999999999,15.5225,73.22,15.3825
648,233194,0.48702399999999996,-0.028548,-0.9418401,18.0775,89.355,17.29
649,233291,0.49263599999999996,0.013908000000000002,-0.9864921,20.1425,107.38,19.53
650,233389,0.5063,-0.008052001,-0.9860040999999999,27.09,126.4025,22.05
651,233486,0.5219159999999999,0.020984,-1.0187,33.215,145.425,24.5
652,233583,0.508252,-0.032451999999999995,-0.9889319999999999,42.6475,163.135,27.615
653,233680,0.537288,-0.067344,-0.9901521000000001,48.9475,178.5,31.2725
654,233777,0.610488,-0.057096,-0.9684360999999999,52.57,192.3425,34.8075
655,233874,0.7105279999999999,-0.057339999999999995,-0.9567241,56.21,202.37,38.815
656,233971,0.7849480999999999,-0.133956,-0.9577,59.0975,208.845,40.5825
657,234068,0.803492,-0.11736400000000001,-0.936716,56.56,211.505,39.9525
658,234165,0.7747001,-0.22667600000000002,-0.8823040000000001,46.6375,209.125,36.995
659,234262,0.558516,-0.07442,-1.0431,20.265,194.5475,29.6625
660,234359,0.33623200000000003,0.19154000000000002,-1.2841719999999999,-3.22,168.525,18.725
661,234456,-0.011956,0.5604680000000001,-1.59454,-11.9525,129.5875,6.2125
662,234554,-0.23155599999999998,0.8527800999999999,-1.739232,-6.5275,70.4025,-15.5225
663,234651,0.251808,0.669292,-1.7326439999999999,7.07,6.2125,-45.43
664,234748,0.280844,0.33818400000000004,-2.053016,1.4,-49.3675,-73.5
665,234845,-0.043188,0.122244,-1.6757919999999997,-12.6175,-116.34,-87.88501
666,234942,-0.137128,-0.07686,-1.33956,-26.355,-164.675,-83.4925
667,235039,-0.066124,-0.132492,-1.148996,-43.2775,-191.4325,-70.56
668,235136,0.067588,-0.06563601,-1.055056,-62.545,-206.5525,-58.59
669,235233,0.21057199999999998,0.008296000999999999,-0.9974719999999999,-75.18,-217.6825,-51.555
670,235330,0.35672800000000005,-0.00488,-0.9476959999999999,-78.61,-224.8575,-48.8075
671,235427,0.531676,-0.0732,-0.8937719999999999,-77.735,-227.5525,-46.76
672,235524,0.6895439999999999,-0.149572,-0.824232,-78.1025,-226.2925,-43.1025
673,235621,0.8066641,-0.192028,-0.73444,-81.095,-220.2725,-37.1875
674,235719,0.8788879999999999,-0.19861600000000001,-0.610244,-83.3175,-209.265,-28.7
675,235816,0.8937719999999999,-0.149816,-0.522404,-83.30001,-192.255,-18.025
676,235913,0.9711200999999999,-0.068076,-0.48995200000000005,-80.045,-170.2575,-8.33
677,236010,0.964532,-0.015128,-0.43212399999999995,-73.535,-147.6475,-2.905
678,236107,1.017236,0.016836,-0.424072,-67.935,-123.3575,-0.735
679,236204,1.126792,0.024888,-0.456524,-67.375,-99.715,-1.5925
680,236301,1.251476,0.053924,-0.515572,-73.43,-81.1475,-7.3675
681,236398,1.352492,0.10126,-0.567056,-82.075,-70.0,-18.515
682,236495,1.4130040000000001,0.1647,-0.59292,-84.49,-66.01,-33.3725
683,236592,1.416176,0.18104800000000001,-0.580476,-74.305,-66.60501,-48.4925
684,236689,1.482544,0.08174001,-0.47506800000000005,-52.64,-68.8975,-59.85
685,236786,1.2197559999999998,-0.368196,0.318176,6.1075,-51.7475,-52.1675
686,236883,1.5859999999999999,-0.377956,0.185684,59.0625,-8.2775,-36.68
687,236980,1.8407360000000001,-0.478484,0.123708,80.9375,13.2825,-24.64
688,237078,1.7516759999999998,-0.359168,0.24766,81.91751,27.755,-11.97
689,237175,1.447408,-0.23911999999999997,0.254492,93.3975,43.8025,4.7075
690,237272,0.9423280999999999,-0.038308,-1.333704,109.3925,57.8025,17.3075
691,237369,0.654896,-0.185928,-1.565016,108.5875,37.59,17.0625
692,237466,0.197884,-0.407236,-0.768356,86.87,19.8275,17.115
693,237563,0.181292,-0.30475599999999997,-0.634644,64.9075,33.0575,11.3225
694,237660,0.400892,-0.14786400000000002,-0.965752,48.7725,52.325,0.105
695,237757,0.40967600000000004,-0.05563200000000001,-0.8527800999999999,35.7,56.735,-11.725
696,237854,1.4337440000000001,-0.21472,-1.658956,29.96,59.2025,-22.2775
697,237951,0.7510321,-0.708332,-0.9247601000000001,34.65,27.44,-7.9625
698,238048,0.561932,0.0427,-0.8369200000000001,13.755,-2.4325,6.09
699,238145,0.537044,-0.023912,-0.917684,10.885,6.7025,-2.3275
700,238242,0.48873199999999994,-0.11955999999999999,-0.88328,9.275,0.56,-7.2625
701,238340,0.462868,-0.034648000000000005,-0.850584,4.9875,4.06,-9.2925
702,238437,0.482876,0.038551999999999996,-0.898408,2.73,4.2,-10.955
703,238534,0.498004,0.041724000000000004,-0.8591241,2.6425,4.3575,-9.2925
704,238631,0.5655920999999999,0.010004,-0.8698601,0.8225,3.3425,-6.9125
705,238728,0.664168,0.026595999999999998,-0.9125601000000001,-2.205,1.435,-5.6525
706,238825,0.548024,-0.034404000000000004,-0.8239880999999999,-3.4475,-0.5775,-6.125
707,238922,0.5814520000000001,0.021472,-0.849852,-5.3375,-1.5925,-6.4925
708,239019,0.547292,-0.003172,-0.874252,-6.265,-3.045,-7.28
709,239116,0.524112,-0.004392,-0.879376,-7.035,-3.535,-7.98
710,239213,0.550708,0.000244,-0.885964,-8.5225,-3.6225,-9.3275
711,239310,0.538752,0.003904,-0.87474,-8.9075,-3.4825,-10.3075
712,239407,0.543144,-0.005368,-0.886452,-8.1025,-3.4825,-10.92
713,239504,0.544852,0.02562,-0.8762040000000001,-7.665,-3.6225,-11.1825
714,239602,0.537044,0.039772,-0.863516,-5.6525,-4.3575,-11.8125
715,239699,0.519476,0.058316,-0.8625401,-2.975,-5.4075,-11.655
716,239796,0.503128,0.05977999999999999,-0.8569280999999999,-0.105,-6.02,-10.5175
717,239893,0.488976,0.07515201,-0.8420440999999999,2.135,-5.7925,-8.82
718,239990,0.484096,0.05929201,-0.8527800999999999,3.7975,-5.11,-7.07
719,240087,0.496296,0.0732,-0.8518040000000001,5.215,-4.5675,-4.9525
720,240184,0.499224,0.06490399999999999,-0.8522921,6.86,-4.4275,-3.01
721,240281,0.5002,0.05124001,-0.8508280999999999,8.1025,-4.3575,-1.4
722,240378,0.503372,0.043432,-0.846924,8.4875,-4.41,-0.385
723,240475,0.510936,0.042212,-0.8508280999999999,8.7325,-4.41,0.3675
724,240572,0.508984,0.043188,-0.8559521000000001,9.3275,-4.76,1.0675
725,240670,0.5043479999999999,0.039772,-0.8581479999999999,10.57,-5.075,2.2925
726,240767,0.50508,0.033184,-0.855708,12.3025,-5.7925,3.675
727,240864,0.50264,0.015128,-0.8596120999999999,13.895,-6.0725,4.97
728,240961,0.504592,0.029524,-0.862784,14.525,-6.265,5.9325
729,241058,0.5307,-0.021472,-0.864492,15.4,-6.44,7.0525
730,241155,0.510936,0.041724000000000004,-0.8520479999999999,15.785,-6.7025,8.19
731,241252,0.5119121,0.023912,-0.8476561,16.5025,-6.51,9.1
732,241349,0.50264,0.000976,-0.8591241,16.135,-6.4925,9.1525
733,241446,0.5072760000000001,0.00366,-0.850584,16.4325,-6.125,9.695
734,241543,0.479216,-0.045384,-0.8698601,16.835,-5.4075,9.8
735,241640,0.483608,-0.056608000000000006,-0.8610761,16.7475,-5.04,9.555
736,241737,0.47653199999999996,-0.040504000000000005,-0.839116,16.485,-3.325,9.1875
737,241834,0.48433999999999994,-0.041724000000000004,-0.8540000000000001,14.805,-2.0825,7.5075
738,241932,0.46726,-0.046360000000000005,-0.8581479999999999,13.9825,-0.21,6.3
739,242029,0.526552,-0.026595999999999998,-0.818376,12.32,1.12,4.445
740,242126,0.499224,-0.027572000000000003,-0.8632719999999999,11.06,2.835,3.29
741,242223,0.552416,-0.031964,-0.8642481,9.8,3.78,2.87
742,242320,0.5219159999999999,0.049776,-0.877912,8.4525,4.935,2.1
743,242417,0.504592,-0.131028,-0.8662001,8.75,5.6875,2.73
744,242514,0.540948,-0.001464,-0.874984,6.3175,6.4925,3.08
745,242611,0.515084,-0.130296,-0.861808,7.21,7.63,4.795
746,242708,0.5307,0.012444,-0.8476561,4.935,9.2575,4.3925
747,242805,0.48653599999999997,-0.015372,-0.8571719999999999,6.3525,12.25,5.25
748,242902,0.47994799999999993,-0.009028000999999999,-0.8754719999999999,4.6375,15.785,4.6375
749,243000,0.489464,0.044407999999999996,-0.908168,5.81,20.5625,6.265
750,243097,0.301584,-0.09150001,-0.973316,9.9575,28.7525,9.31
751,243194,0.49044,0.067832,-0.9191481,10.0275,45.9725,9.7475
752,243291,0.46481999999999996,-0.020008,-0.913048,11.7075,63.7,12.8975
753,243388,0.461404,0.007808001,-0.9577,10.0275,80.5,15.5575
754,243485,0.43188000000000004,-0.02196,-0.995764,12.11,101.8675,18.8825
755,243582,0.423828,0.022203999999999998,-1.05164,12.3725,129.8325,21.945
756,243679,0.43602799999999997,0.057339999999999995,-1.075552,15.54,160.6675,26.215
757,243776,0.42944,0.08369201,-1.116544,21.91,191.065,34.2125
758,243873,0.47506800000000005,0.072956,-1.095316,28.6125,219.345,44.835
759,243970,0.44847200000000004,0.08759601,-1.16022,38.4475,249.3575,55.16
760,244068,0.44212799999999997,0.09711201,-1.186328,50.1025,276.22,66.92
761,244165,0.558272,0.000732,-1.0948280000000001,63.1225,298.935,80.115
762,244262,0.820816,-0.0854,-1.121668,71.2075,326.2,87.6225
763,244359,1.20414,-0.071248,-1.21512,82.9325,360.0625,85.2075
764,244456,1.359324,-0.172996,-1.297348,86.24,377.1775,78.2425
765,244553,0.9052401,-0.032695999999999996,-1.3603,76.3175,363.02,74.9175
766,244650,1.453752,0.101504,-1.303204,50.8025,342.1075,64.5925
767,244747,0.388448,0.733708,-1.916864,37.38,348.915,56.9975
768,244844,-0.12053599999999999,2.102548,-2.5632200000000003,55.51,283.0975,29.5225
769,244941,1.131672,2.150616,-2.857728,94.71,145.2675,-53.8475
770,245038,0.555832,1.19926,-2.837964,100.0825,6.0025,-148.505
771,245136,-0.27694,0.41846000000000005,-1.8292680000000001,99.9775,-101.9375,-189.07
772,245233,-0.46433199999999997,-0.232776,-1.2900280000000002,76.79,-145.7225,-191.6425
773,245330,-0.24863600000000002,-0.5814520000000001,-1.161684,35.1225,-166.39,-164.8675
774,245427,-0.057096,-0.585112,-1.188524,-15.1725,-181.0725,-121.3975
775,245524,0.062220000000000004,-0.380152,-1.242448,-54.6,-200.725,-76.9125
776,245621,0.187148,-0.16689600000000002,-1.2402520000000001,-70.7875,-226.24,-39.0075
777,245718,0.29646,-0.02928,-1.161684,-68.2675,-251.335,-10.6225
778,245815,0.376004,0.019275999999999998,-1.0431,-59.3075,-270.235,6.825
779,245912,0.48653599999999997,-0.007320001,-0.9476959999999999,-55.16,-280.7525,13.5975
780,246009,0.6075600999999999,0.005612,-0.934276,-60.41,-284.48,11.41
781,246106,0.778604,-0.011224,-0.9398880999999999,-69.66751,-284.2,3.71
782,246204,0.954528,-0.054412,-0.9564799999999999,-76.615,-283.64,-3.43
783,246301,1.085068,-0.080764,-0.915976,-81.60251,-282.59,-5.0575
784,246398,1.13826,-0.06539201,-0.803492,-85.0675,-278.2675,-2.0125
785,246495,1.065548,-0.019032,-0.630984,-87.78,-265.545,2.6775
786,246592,1.0323639999999998,0.060267999999999995,-0.5948720000000001,-87.6925,-241.36,6.0725
787,246689,1.144116,0.11541199999999999,-0.720288,-84.9625,-211.225,6.79
788,246786,1.156316,0.11126400000000002,-0.7195560000000001,-85.69751,-186.2525,1.645
789,246883,1.106052,0.082716,-0.6373281,-94.395,-163.065,-11.6025
790,246980,1.2256120000000001,0.062464,-0.677344,-104.825,-134.505,-32.3925
791,247077,1.446676,0.061,-0.796904,-106.82,-107.065,-56.2625
792,247174,1.740696,0.077592,-0.9242720999999999,-92.4525,-90.63251,-76.6675
793,247271,2.038864,0.099552,-1.0145520000000001,-64.6975,-89.425,-91.2275
794,247369,2.177212,-0.071248,-0.9208561,-29.155,-102.025,-104.405
795,247466,2.088884,-0.36087600000000003,-0.5795,1.47,-121.0125,-114.3625
796,247563,1.981524,-0.694912,-0.208864,23.1175,-131.9325,-112.77
797,247660,2.0220279999999997,-0.968192,0.01342,34.335,-128.73,-97.615
798,247757,2.009096,-1.041148,0.161772,33.3375,-120.33,-73.85
799,247854,1.9947,-0.924516,0.257664,31.6575,-109.8475,-47.95
800,247951,1.88978,-0.798124,0.389912,40.04,-97.3875,-24.3075
801,248048,1.7511880000000002,-0.70516,0.500444,57.54,-79.8875,-2.6425
802,248145,1.6582240000000001,-0.57462,0.556076,75.9325,-57.19,19.0575
803,248242,1.4959639999999998,-0.447496,0.560956,87.3425,-33.04,39.3575
804,248339,1.342488,-0.410652,0.473116,85.5925,-6.09,49.6825
805,248436,1.19438,-0.330376,0.293288,65.9225,21.035,45.64
806,248534,0.205448,0.017324000000000003,-0.41113999999999995,40.88,43.435,30.695
807,248631,0.748592,-0.22033200000000003,-0.211792,53.4625,69.7725,12.6875
808,248728,-0.06661201,-0.17934,-1.1651,50.3125,97.72,7.98
809,248825,-0.662704,0.085888,-2.585424,28.84,102.7775,6.3525
810,248922,0.697108,0.31964000000000004,-1.6499279999999998,10.1675,97.405,20.7025
811,249019,0.665144,0.589504,-0.69662,-4.4625,92.2425,37.8525
812,249116,1.123864,0.209352,-0.8332601000000001,11.83,98.7,20.125
813,249213,1.043588,-0.32866799999999996,-1.206336,11.97,89.1975,-10.0625
814,249310,0.6344,-0.5260640000000001,-1.085556,4.83,66.9375,-16.905
815,249407,0.510692,-0.300852,-0.805932,-9.66,56.035,-7.875
816,249504,0.8723001,0.15982000000000002,-1.360056,-19.8975,55.545,-12.3375
817,249601,0.8637601,-0.11394800000000001,-1.125328,-6.6675,37.5725,-17.745
818,249699,0.554124,0.095648,-0.769576,-13.9475,10.08,-14.0175
819,249796,0.6222,-0.014396,-0.97356,-8.4,14.98,-17.08
820,249893,0.515328,0.079056,-0.935008,-10.4125,5.25,-14.5775
821,249990,0.5077640999999999,0.062464,-0.8708360999999999,-10.08,5.705,-13.65
822,250087,0.5221600000000001,0.08344800000000001,-0.944524,-8.3825,3.395,-12.6
823,250184,0.597068,-0.005612,-0.8337481,-6.9475,1.365,-13.1075
824,250281,0.547048,0.077348,-0.879376,-5.6525,-0.63,-11.83
825,250378,0.48702399999999996,0.09272000000000001,-0.8901120000000001,-3.4125,-3.5875,-10.675
826,250475,0.513376,0.073688,-0.8574161,-0.42,-3.99,-9.1175
827,250572,0.492392,0.09442801,-0.8657120999999999,2.17,-4.2175,-7.14
828,250669,0.4933681,0.09320801,-0.863028,5.25,-4.235,-5.25
829,250766,0.516304,0.087108,-0.8674200000000001,7.8925,-4.1825,-3.5175
830,250864,0.48995200000000005,0.06563601,-0.8647360000000001,10.465,-4.445,-2.135
831,250961,0.492392,0.09052401,-0.8569280999999999,12.9325,-5.005,-0.385
832,251058,0.501908,0.053436000000000004,-0.8413120000000001,15.4,-5.215,0.735
833,251155,0.49288000000000004,0.069784,-0.859368,16.975,-5.2325,2.065
834,251252,0.486292,0.05977999999999999,-0.86864,18.4975,-5.95,3.255
835,251349,0.48433999999999994,0.06075601,-0.862296,20.9825,-6.0725,5.5125
836,251446,0.47994799999999993,0.05929201,-0.862296,23.7125,-5.6,7.7525
837,251543,0.483608,0.049776,-0.879864,26.25,-5.3375,9.7475
838,251640,0.534116,0.038796,-0.86864,27.2125,-5.4775,11.13
839,251737,0.49580799999999997,0.021472,-0.8757159999999999,27.02,-5.775,12.39
840,251834,0.49727200000000005,-0.009028000999999999,-0.8823040000000001,26.5825,-5.9675,12.1625
841,251932,0.503128,-0.007320001,-0.879376,24.745,-5.9325,11.62
842,252029,0.49702799999999997,-0.013908000000000002,-0.87474,22.96,-6.3,10.815
843,252126,0.48653599999999997,-0.021228,-0.8591241,20.4575,-6.0725,9.6075
844,252223,0.485804,-0.030744,-0.8610761,17.815,-5.32,7.7
845,252320,0.49532,-0.038308,-0.8676640999999999,15.6975,-3.9375,5.6175
846,252417,0.47360399999999997,-0.031476,-0.8554641,12.74,-2.695,3.5875
847,252514,0.47043199999999996,-0.027572000000000003,-0.849608,10.535,-1.3825,2.135
848,252611,0.47458,-0.044896,-0.868884,8.75,0.28,1.2425
849,252708,0.478972,-0.0244,-0.850584,6.7375,1.715,0.3675
850,252805,0.465552,-0.027816000000000004,-0.850096,5.425,2.275,0.0
851,252902,0.47653199999999996,-0.052703999999999994,-0.8525360000000001,3.7275,3.43,-0.3325
852,252999,0.488,-0.042212,-0.86498,1.6625,3.7625,-0.49
853,253097,0.49263599999999996,-0.051484,-0.8620521000000001,-0.385,4.3225,-1.1375
854,253194,0.5011760000000001,-0.041236,-0.855708,-2.905,4.4625,-1.8025
855,253291,0.522648,-0.049776,-0.8527800999999999,-4.4625,4.165,-1.9425
856,253388,0.5170359999999999,-0.0122,-0.8847440999999999,-4.095,3.8675,-1.5925
857,253485,0.509228,0.011712,-0.8679081,-2.03,2.66,-0.8575
858,253582,0.48678,0.022936,-0.8862081,0.0175,1.925,0.0175
859,253679,0.542412,0.023180000000000003,-0.870592,3.465,1.225,1.5925
860,253776,0.512888,0.001952,-0.8813280000000001,5.39,1.6625,2.415
861,253873,0.51362,0.007808001,-0.874252,7.4375,2.275,2.3975
862,253970,0.520208,0.020496,-0.8637601,9.555,3.1675,2.0825
863,254067,0.499468,0.007808001,-0.874252,10.92,5.3375,1.4
864,254165,0.5016641,-0.059048,-0.8693719999999999,10.815,7.4725,1.05
865,254262,0.5170359999999999,-0.040504000000000005,-0.8759601,9.52,10.08,0.4375
866,254359,0.530212,0.033184,-0.8786440999999999,8.61,12.5825,0.6475
867,254456,0.516792,0.067588,-0.860344,8.2425,15.3825,1.7325
868,254553,0.50142,0.01342,-0.874252,8.2075,19.46,3.4475
869,254650,0.500444,0.046360000000000005,-0.8908440999999999,7.8225,24.885,6.09
870,254747,0.22814,-0.015128,-1.0086959999999998,9.7125,34.44,10.955
871,254844,0.467504,0.058803999999999995,-0.9267120000000001,11.2525,58.8,14.455
872,254941,0.39113200000000004,-0.015128,-0.9703879999999999,11.095,84.735,19.4425
873,255038,0.397476,0.0427,-1.037976,6.65,112.77,22.015
874,255135,0.396988,0.0034159999999999998,-1.047004,9.0125,141.68,24.0975
875,255232,0.380396,0.018056,-1.1070280000000001,10.22,173.985,25.655
876,255330,0.32866799999999996,0.035136,-1.15412,12.8625,207.27,27.4225
877,255427,0.34794400000000003,0.05124001,-1.13094,18.9,238.3675,32.025
878,255524,0.399428,0.055388,-1.1407,26.3725,267.75,39.5325
879,255621,0.454084,0.076616,-1.092632,37.6425,292.285,51.0825
880,255718,0.643672,-0.025863999999999998,-1.099952,45.9725,320.355,62.16
881,255815,0.9489161,-0.163236,-1.0018639999999999,58.835,355.1275,66.325
882,255912,1.222928,-0.036844,-1.238788,65.835,393.015,61.845
883,256009,1.12362,-0.172508,-1.170712,67.3575,408.625,55.9125
884,256106,0.780312,-0.10638399999999999,-1.2695319999999999,47.0925,392.0175,53.935
885,256203,1.349808,-0.060267999999999995,-0.964532,23.485,373.1,49.4025
886,256300,0.841556,0.175924,-1.022848,16.555,395.01,50.155
887,256398,0.243024,0.8457040000000001,-1.7863240000000002,25.83,379.4875,53.3575
888,256495,0.266448,2.019344,-3.101972,66.29,293.6325,37.485
889,256592,1.7265439999999999,1.480836,-3.983544,116.3225,122.4475,-25.48
890,256689,0.729316,0.7200439999999999,-3.150772,115.5525,-52.815,-86.415
891,256786,-0.29377600000000004,0.20496,-1.890268,97.5975,-176.7675,-106.9075
892,256883,-0.5309441,-0.1891,-1.124596,64.855,-231.7875,-98.96251
893,256980,-0.242292,-0.381128,-0.847412,24.85,-240.8875,-72.135
894,257077,0.07832401,-0.345504,-0.9052401,-18.1475,-236.0925,-37.5725
895,257174,0.25790799999999997,-0.11028800000000001,-1.0845799999999999,-55.615,-237.3525,-6.86
896,257271,0.428464,0.149084,-1.1899879999999998,-77.2625,-255.1675,10.745
897,257368,0.48702399999999996,0.309148,-1.159732,-78.75,-283.01,16.5725
898,257465,0.515572,0.311344,-1.016504,-69.44,-306.25,11.9
899,257563,0.5636399999999999,0.203984,-0.885476,-61.3375,-316.8725,-0.9975
900,257660,0.64904,0.019764,-0.7978801,-59.9725,-316.5575,-16.1175
901,257757,0.800808,-0.204228,-0.7515201,-65.8875,-309.6625,-27.2475
902,257854,0.94306,-0.38064000000000003,-0.727608,-77.2275,-300.4225,-28.875
903,257951,1.116788,-0.43944399999999995,-0.720288,-88.6375,-288.26,-18.235
904,258048,1.2153639999999999,-0.35746,-0.7178479999999999,-97.21251,-272.0375,0.49
905,258145,1.16022,-0.174704,-0.69784,-103.4075,-254.03,15.7325
906,258242,1.18584,-0.005612,-0.758596,-106.0675,-236.4425,18.6725
907,258339,1.2404959999999998,0.118828,-0.8788879999999999,-104.055,-221.7075,10.5175
908,258436,1.324188,0.118584,-0.984784,-99.68,-209.7725,-4.585
909,258533,1.362496,0.05172801,-0.9730721,-96.6875,-202.2125,-24.99
910,258630,1.377624,-0.050996,-0.877424,-92.76751,-194.1275,-46.3225
911,258727,1.46522,-0.153476,-0.807884,-86.17,-180.3375,-63.63
912,258825,1.613572,-0.2074,-0.7881199999999999,-79.1,-164.9025,-77.2625
913,258922,1.7836400000000001,-0.229848,-0.79178,-71.99501,-153.6325,-89.2675
914,259019,1.932968,-0.257664,-0.732244,-63.3325,-148.82,-99.7675
915,259116,1.9476080000000002,-0.317932,-0.576572,-51.59,-147.9625,-106.26
916,259213,2.0112919999999996,-0.41723999999999994,-0.371612,-32.97,-146.02,-102.3925
917,259310,2.027884,-0.42187600000000003,-0.040260000000000004,-14.3325,-143.7625,-84.9975
918,259407,1.9266240000000001,-0.447008,0.384056,-2.8175,-135.9925,-58.24
919,259504,1.8292680000000001,-0.48263199999999995,0.7598161,-5.425,-112.175,-34.755
920,259601,1.8214599999999999,-0.44725200000000004,0.9391560999999999,-30.345,-74.5325,-20.0025
921,259698,1.741916,-0.3416,0.9528200000000001,-62.8775,-30.03,-11.2175
922,259795,1.678964,-0.215696,0.786412,-89.355,14.8225,-7.28
923,259892,1.659932,-0.139568,0.5504641,-104.0725,53.0075,-6.9125
924,259989,1.525244,-0.08857201,0.351848,-110.3375,81.46251,-6.755
925,260087,1.034804,1.719956,-0.8432639999999999,-103.5125,105.3325,-3.2375
926,260184,0.787632,0.7388319999999999,-0.590236,55.58,151.9875,-3.9725
927,260281,0.564616,0.256444,-1.199016,164.7625,166.18,-15.5225
928,260378,-0.06588,0.42285200000000006,-1.8038919999999998,180.075,151.6725,-40.075
929,260475,-0.11028800000000001,-0.22496799999999997,-1.8941720000000002,183.785,128.625,-41.9125
930,260572,0.021716,-1.469856,-0.9455,152.4075,118.265,-14.1925
931,260669,0.8574161,-1.411052,-0.8559521000000001,101.57,133.91,9.52
932,260766,1.160952,-1.0650600000000001,-1.23098,67.1825,125.8775,22.2425
933,260863,0.7754321,-0.500688,-1.0206520000000001,43.19,98.7175,20.09
934,260960,2.3846119999999997,0.14274,-2.05082,48.405,78.3125,18.69
935,261057,0.35282399999999997,0.040992,-0.30475599999999997,64.8725,14.945,18.9175
936,261155,0.9979600000000001,-0.18544000000000002,-1.358592,59.36,13.37,12.88
937,261252,0.369904,-0.26961999999999997,-0.7473721,47.4425,4.1825,6.8425
938,261349,0.59048,-0.000244,-0.9889319999999999,35.875,2.24,2.1175
939,261446,0.459696,0.045872,-0.8300879999999999,31.99,2.38,-3.745
940,261543,0.57096,0.161772,-0.8957241,32.4625,1.8725,-0.56
941,261640,0.428708,0.071004,-0.754692,33.25,-0.2625,4.5325
942,261737,0.6602640000000001,0.06539201,-0.9228081,30.94,-1.9775,9.5375
943,261834,0.43358800000000003,-0.010004,-0.87718,28.6825,-5.9325,11.6375
944,261931,0.65758,0.043432,-0.895236,24.0975,-6.4925,11.48
945,262028,0.5363121,-0.003172,-0.898652,21.6475,-6.8075,10.745
946,262125,0.5504641,-0.029524,-0.873276,18.55,-6.615,9.6075
947,262222,0.53192,-0.053436000000000004,-0.8676640999999999,14.665,-6.125,7.07
948,262320,0.552416,-0.050752,-0.8605879999999999,11.55,-5.7575,3.5875
949,262417,0.51484,-0.029768,-0.8723001,8.8025,-4.3225,0.42
950,262514,0.5363121,-0.042212,-0.869616,6.545,-2.9575,-2.135
951,262611,0.533384,-0.023180000000000003,-0.865468,5.0925,-1.785,-3.9725
952,262708,0.531188,0.015616,-0.862296,4.0775,-1.12,-5.3025
953,262805,0.531188,0.028548,-0.8596120999999999,4.1125,-1.085,-4.9
954,262902,0.5307,0.023912,-0.859368,4.2525,-1.26,-3.465
955,262999,0.5307,0.012931999999999999,-0.8559521000000001,5.075,-1.7325,-2.1
956,263096,0.528748,-0.000244,-0.849852,5.39,-1.82,-1.33
957,263193,0.520208,-0.009516001,-0.8569280999999999,5.3375,-1.6625,-1.085
958,263290,0.516304,-0.021228,-0.8483879999999999,4.76,-1.1725,-1.225
959,263387,0.5077640999999999,-0.022203999999999998,-0.8510719999999999,3.395,-0.1225,-2.0125
960,263485,0.5038600000000001,-0.044164,-0.844484,1.8375,0.9275,-3.1325
961,263582,0.506544,-0.044164,-0.833992,-2.695,2.9225,-5.1975
962,263679,0.509716,-0.045872,-0.83936,-6.405,4.4275,-7.2275
963,263776,0.518744,-0.023912,-0.8610761,-8.715,5.495,-8.82
964,263873,0.514352,0.0061,-0.85644,-8.5925,6.0725,-9.3625
965,263970,0.5124001,0.015616,-0.8513161,-8.7325,5.565,-8.435
966,264067,0.51118,0.020252000000000003,-0.8522921,-7.035,5.285,-7.0875
967,264164,0.513864,0.0427,-0.8671761,-4.4625,4.6375,-5.075
968,264261,0.5292359999999999,0.0549,-0.8610761,0.5075,3.8325,-2.38
969,264358,0.537532,0.06270801,-0.8610761,6.4575,2.87,0.8575
970,264455,0.523624,0.002928,-0.8693719999999999,7.84,2.1175,3.5
971,264552,0.5516840000000001,0.00366,-0.8413120000000001,10.4825,1.575,5.4075
972,264650,0.533872,0.0244,-0.8481440999999998,11.445,1.0675,6.8075
973,264747,0.534604,0.00122,-0.8418,11.7775,1.1375,8.1725
974,264844,0.532652,-0.003904,-0.845216,12.285,1.4525,9.6775
975,264941,0.54656,-0.023180000000000003,-0.8479,11.1475,2.415,10.5875
976,265038,0.519964,-0.016347999999999998,-0.8481440999999998,9.0125,4.41,10.395
977,265135,0.525576,-0.034404000000000004,-0.8476561,7.1925,7.3675,9.52
978,265232,0.518744,-0.030012,-0.8615640999999999,5.145,11.0425,8.2425
979,265329,0.5063,-0.034892,-0.8669319999999999,1.7675,15.435,7.0875
980,265426,0.32696,-0.016347999999999998,-0.9638,0.0525,23.0125,6.4225
981,265523,0.49605200000000005,-0.017324000000000003,-0.880352,5.075,38.15,4.7425
982,265620,0.490684,-0.033428,-0.9140241,2.1,49.8925,2.9575
983,265717,0.471896,-0.01952,-0.9110959999999999,0.5075,62.2825,0.735
984,265815,0.446276,-0.011468,-0.9337880999999999,0.49,75.705,-0.4375
985,265912,0.481412,-0.009028000999999999,-0.924516,-0.595,88.585,-1.0675
986,266009,0.5219159999999999,-0.017324000000000003,-0.9208561,-2.5725,102.97,-1.5225
987,266106,0.484096,-0.011468,-0.9528200000000001,-5.0225,119.385,-2.765
988,266203,0.450668,-0.018056,-0.9889319999999999,-7.5425,135.94,-4.9525
989,266300,0.435784,-0.031476,-0.9913719999999999,-6.9825,152.8275,-7.1575
990,266397,0.46335600000000005,-0.001464,-0.9752681000000001,-4.97,173.215,-7.6825
991,266494,0.400404,0.015128,-1.019432,-2.4675,195.3525,-5.2675
992,266591,0.4941,0.02684,-0.9286639999999999,2.17,212.4675,-0.42
993,266688,0.590968,0.038308,-1.01626,5.495,237.7025,5.32
994,266785,0.6695361,0.083204,-1.029192,16.1175,269.2025,7.945
995,266882,0.919392,0.024156,-0.87108,36.995,307.685,4.13
996,266980,1.123376,-0.011956,-0.9806360000000001,48.195,360.9375,-2.765
997,267077,1.135576,-0.068564,-1.0086959999999998,63.4725,401.1,-10.15
998,267174,1.03944,-0.10858,-1.0826280000000001,53.1125,402.8675,-10.6925
999,267271,0.9191481,-0.09223200000000001,-1.153632,23.6075,389.4975,-1.47
1000,267368,0.936472,0.057584,-0.9511120000000001,6.6325,367.395,13.51
1001,267465,1.205848,0.10321199999999998,-0.9630681000000001,7.875,384.5275,20.0025
1002,267562,0.692472,0.172508,-1.04798,12.0225,435.75,24.745
1003,267659,0.687104,0.29036,-1.001132,16.6775,433.5975,35.8925
1004,267756,0.25302800000000003,1.6394360000000001,-2.394616,20.5275,388.64,49.0875
1005,267853,2.67302,1.833904,-4.846572,57.085,228.4625,10.0625
1006,267950,1.826584,1.1411879999999999,-4.208756,81.48001,-28.9975,-66.255
1007,268047,-0.202276,0.534116,-2.187948,90.825,-222.8625,-106.6275
1008,268145,-0.66368,-0.181536,-0.9911281,87.5525,-288.82,-102.4275
1009,268242,-0.161772,-0.635864,-0.8461921,61.0925,-282.1175,-64.61
1010,268339,0.465552,-0.712236,-1.204628,14.0525,-266.9625,-16.8525
1011,268436,0.718824,-0.449692,-1.5445200000000001,-41.51,-282.1875,27.5975
1012,268533,0.844972,-0.185928,-1.584048,-76.895,-330.26,60.095
1013,268630,0.7766521,-0.033184,-1.334436,-85.3125,-383.845,83.755
1014,268727,0.735416,0.000732,-0.9989360999999999,-79.87,-417.9525,99.5225
1015,268824,0.7556681,0.008540001,-0.706136,-79.0475,-428.05,102.7775
1016,268921,0.805932,0.009272001,-0.502152,-85.5225,-420.315,92.26001
1017,269018,0.8422879999999999,-0.010492,-0.36966,-92.76751,-399.735,75.8625
1018,269115,0.9110959999999999,-0.077836,-0.30036399999999996,-99.05001,-367.6575,60.725
1019,269212,0.960384,-0.06929600000000001,-0.37746799999999997,-108.0625,-329.4375,50.365
1020,269310,1.136308,0.040260000000000004,-0.633912,-118.9475,-291.935,39.3575
1021,269407,1.1385040000000002,0.132736,-0.781044,-127.61,-266.8925,23.45
1022,269504,1.217072,0.18470799999999998,-0.9262239999999999,-131.5475,-248.675,3.7975
1023,269601,1.362252,0.1891,-1.1148360000000002,-128.1525,-233.205,-19.145
1024,269698,1.506456,0.056852,-1.134356,-121.1875,-224.4375,-41.9475
1025,269795,1.584048,-0.130052,-0.9691681000000001,-115.5875,-217.9275,-63.2975
1026,269892,1.689944,-0.276696,-0.807396,-108.745,-204.715,-79.24
1027,269989,1.88002,-0.320372,-0.8100801,-96.0575,-185.71,-86.5375
1028,270086,2.120116,-0.33671999999999996,-0.800808,-77.7875,-170.1175,-87.46500999999999
1029,270183,2.189412,-0.304268,-0.6944241,-57.54,-161.84,-86.415
1030,270280,2.16062,-0.30402399999999996,-0.414312,-33.18,-157.5,-82.6875
1031,270378,2.118164,-0.260348,-0.110044,-13.055,-151.165,-75.985
1032,270475,2.103036,-0.265716,0.14688800000000002,1.6275,-141.4,-65.22251
1033,270572,2.060092,-0.345992,0.388448,3.2725,-129.71,-52.71
1034,270669,1.9883560000000002,-0.444568,0.601216,-10.43,-113.6275,-39.7425
1035,270766,1.938336,-0.484828,0.6834439999999999,-34.1775,-91.105,-27.58
1036,270863,1.8529360000000001,-0.519476,0.720288,-54.215,-64.47,-17.36
1037,270960,1.724836,-0.5414359999999999,0.5997520000000001,-62.5625,-35.665,-8.54
1038,271057,1.669448,-0.539972,0.34281999999999996,-50.785,-8.7675,-1.2075
1039,271154,1.52988,-0.515572,0.113704,-23.52,8.8375,8.0675
1040,271251,1.11874,0.060512,-0.35843600000000003,14.7875,20.65,19.32
1041,271348,0.54168,-0.8371639999999999,-0.548512,126.4025,52.36,38.01
1042,271445,0.132004,-0.28987199999999996,-1.212192,129.92,72.205,46.025
1043,271543,-0.171044,0.1891,-1.54818,89.565,72.0475,46.62
1044,271640,-0.071248,0.354288,-0.8708360999999999,76.8425,76.5625,66.46500999999999
1045,271737,0.6422081000000001,0.428464,-0.85156,70.6475,104.79,65.03
1046,271834,0.9596520000000001,0.193004,-0.954284,63.28,115.78,42.2975
1047,271931,0.9406200000000001,-0.189344,-1.083848,47.5475,109.4275,10.255
1048,272028,0.7564001,-0.5172800999999999,-1.0401719999999999,32.4975,97.9475,-9.03
1049,272125,0.600484,-0.5511961,-0.9642879999999999,15.4525,89.4425,-8.785
1050,272222,0.452132,-0.31964000000000004,-0.8483879999999999,-0.315,85.97751,-8.05
1051,272319,0.419192,-0.089792,-0.8400921,-15.225,88.8825,-15.995
1052,272416,1.2756319999999999,0.515328,-1.9185720000000002,-30.5025,93.2225,-25.55
1053,272513,1.1716879999999998,-0.284748,-1.096536,8.96,62.9825,-24.535
1054,272610,0.631228,0.22716399999999998,-0.7107720000000001,-1.96,23.555,-11.4625
1055,272708,0.64904,0.02196,-1.0309,3.1675,24.325,-14.1225
1056,272805,0.5663239999999999,-0.013175999999999998,-0.942572,1.8375,12.5825,-11.445
1057,272902,0.356484,0.01708,-0.9857600000000001,-4.9525,10.535,-12.775
1058,272999,0.8762040000000001,0.16226,-0.9596520000000001,-8.75,6.965,-15.505
1059,273096,0.528504,0.11834000000000001,-0.81374,-11.7425,3.43,-16.2225
1060,273193,0.5404601,0.108824,-0.8996280999999999,-8.9425,0.28,-15.2075
1061,273290,0.545096,0.11248399999999999,-0.8579041,-7.5425,-0.385,-13.545
1062,273387,0.5414359999999999,0.139812,-0.8754719999999999,-6.685,-0.5425,-12.705
1063,273484,0.513376,0.112728,-0.8657120999999999,-5.3025,-0.8575,-11.795
1064,273581,0.523624,0.10931199999999999,-0.8574161,-4.76,-0.4725,-11.0075
1065,273678,0.513376,0.10540799999999999,-0.8608319999999999,-5.04,-0.5075,-11.0425
1066,273775,0.515572,0.119072,-0.8493641,-5.6,-0.1925,-11.305
1067,273873,0.49824799999999997,0.130052,-0.8378960999999999,-5.74,0.2975,-11.375
1068,273970,0.505324,0.121268,-0.8493641,-5.075,0.56,-11.1475
1069,274067,0.5060560000000001,0.127856,-0.8405800999999999,-4.6025,0.49,-10.57
1070,274164,0.498004,0.133712,-0.838628,-3.6925,0.2975,-10.045
1071,274261,0.508984,0.141764,-0.83936,-2.0825,0.0175,-8.8025
1072,274358,0.503372,0.144448,-0.8398479999999999,0.1225,-0.315,-6.7025
1073,274455,0.50508,0.132492,-0.845216,2.4675,-0.5775,-4.48
1074,274552,0.498004,0.131272,-0.835456,4.3925,-0.6125,-2.6425
1075,274649,0.495076,0.12980799999999998,-0.844484,5.8975,-0.1925,-1.47
1076,274746,0.50264,0.115168,-0.8432639999999999,7.1225,0.315,-0.7
1077,274843,0.49995600000000007,0.12175599999999999,-0.8418,8.05,1.05,0.1925
1078,274941,0.5099600000000001,0.10540799999999999,-0.847412,9.4325,1.61,0.91
1079,275038,0.504836,0.107848,-0.8471681000000001,10.6225,1.715,1.9775
1080,275135,0.509228,0.11102000000000001,-0.8427761,11.7775,1.435,2.8525
1081,275232,0.48312,0.108824,-0.8471681000000001,13.1775,1.05,3.7275
1082,275329,0.531676,0.135664,-0.8471681000000001,14.6825,0.7875,4.5675
1083,275426,0.515572,0.10760399999999999,-0.8491200000000001,16.24,0.49,5.3375
1084,275523,0.531188,0.111752,-0.8457040000000001,17.885,0.21,6.545
1085,275620,0.5260640000000001,0.11028800000000001,-0.844484,19.7575,-0.525,7.84
1086,275717,0.5214281,0.104676,-0.854244,22.7325,-1.75,10.2725
1087,275814,0.5170359999999999,0.11028800000000001,-0.8493641,26.3025,-3.6575,14.2625
1088,275911,0.509472,0.083936,-0.863028,31.7275,-6.58,20.5275
1089,276008,0.540704,0.14713199999999999,-0.8457040000000001,39.6725,-10.7275,29.925
1090,276106,0.56242,0.141032,-0.8403360000000001,48.3875,-13.58,37.7475
1091,276203,0.548756,0.139812,-0.8291120999999999,52.045,-13.93,40.355
1092,276300,0.5314321,0.007564001,-0.865468,46.69,-11.2875,35.98
1093,276397,0.514596,-0.010004,-0.8664440000000001,38.9025,-9.3975,30.6775
1094,276494,0.5043479999999999,-0.09150001,-0.8708360999999999,30.45,-7.42,23.6425
1095,276591,0.504592,-0.08662001,-0.869616,21.875,-3.7625,15.5225
1096,276688,0.502884,-0.08417999999999999,-0.861808,15.155,-0.63,7.8925
1097,276785,0.505324,-0.056852,-0.865468,9.275,2.73,1.7325
1098,276882,0.5131319999999999,-0.029524,-0.8666879999999999,4.9875,5.6875,-2.59
1099,276979,0.511424,0.019275999999999998,-0.8596120999999999,1.96,8.1725,-5.32
1100,277076,0.525332,0.038064,-0.8513161,1.54,10.115,-6.1425
1101,277173,0.53192,0.06563601,-0.8525360000000001,2.59,12.0575,-5.25
1102,277270,0.526308,0.08174001,-0.85156,4.515,13.755,-3.3425
1103,277368,0.532896,0.08417999999999999,-0.8525360000000001,6.825,15.435,0.175
1104,277465,0.547048,0.092964,-0.86498,8.8025,17.78,4.76
1105,277562,0.530456,-0.011956,-0.8422879999999999,10.7625,21.28,10.71
1106,277659,0.392596,0.24107199999999998,-0.984784,6.51,27.2475,17.0975
1107,277756,0.379176,-0.006832001,-0.9713639999999999,18.4275,43.4,24.2375
1108,277853,0.484828,0.041236,-0.901336,20.3525,63.3325,28.7175
1109,277950,0.483608,-0.010004,-0.8967,17.0625,81.4975,32.4275
1110,278047,0.398696,0.011468,-1.0060120000000001,14.49,101.4825,32.935
1111,278144,0.43602799999999997,-0.010492,-1.0316319999999999,11.97,123.0425,32.0425
1112,278241,0.41675200000000007,-0.038308,-1.060424,14.56,148.855,27.93
1113,278338,0.41382399999999997,-0.033672,-1.065792,16.6425,174.2825,23.5375
1114,278435,0.393572,-0.014396,-1.0528600000000001,19.1275,201.04,22.96
1115,278532,0.41113999999999995,0.006832001,-1.086044,20.8425,229.1625,25.0425
1116,278629,0.42822,0.01586,-0.998448,27.79,255.045,29.96
1117,278727,0.590236,-0.02562,-1.057008,31.255,281.505,35.7525
1118,278824,0.849608,-0.037332,-0.9089001,42.2625,307.6675,42.175
1119,278921,1.059448,-0.10736,-0.9418401,50.645,340.235,42.175
1120,279018,1.145824,-0.06661201,-1.185352,53.515,366.73,38.6575
1121,279115,1.037244,-0.194468,-1.132892,51.0825,370.545,32.55
1122,279212,0.8220360000000001,-0.043676,-1.256844,25.4625,350.2625,29.4525
1123,279309,1.609424,-0.068564,-1.0711600000000001,12.7225,330.05,27.72
1124,279406,0.846924,0.49312399999999995,-1.7282520000000001,1.68,341.5475,31.15
1125,279503,0.3111,1.468148,-2.617876,21.2275,288.05,23.205
1126,279600,0.4087,2.35704,-3.24032,70.9975,140.0,-19.985
1127,279697,0.715896,1.37494,-3.134668,109.76,-40.32,-101.78
1128,279794,-0.465308,0.5858439999999999,-1.7141,119.84,-149.3275,-150.0625
1129,279891,-0.6222,0.010736,-1.1324040000000002,97.9475,-192.85,-166.005
1130,279989,-0.219112,-0.28621199999999997,-1.075552,59.8325,-205.59,-152.3025
1131,280086,0.01464,-0.306708,-1.14314,19.355,-214.2,-118.02
1132,280183,0.069784,-0.132492,-1.170712,-8.7675,-229.075,-77.77
1133,280280,0.104676,0.0549,-1.117276,-14.0875,-251.2125,-41.6675
1134,280377,0.217648,0.047336,-0.9718521000000001,-5.2675,-271.88,-14.7175
1135,280474,0.37332,0.0305,-0.9067040000000001,-3.115,-283.5525,2.4325
1136,280571,0.5636399999999999,-0.00976,-0.8759601,-10.675,-287.2975,13.58
1137,280668,0.780312,-0.05856,-0.8569280999999999,-24.6925,-287.56,19.5125
1138,280765,0.9262239999999999,-0.062464,-0.8235001000000001,-42.21,-286.5975,24.64
1139,280862,1.0443200000000001,-0.050508,-0.7707961,-56.8575,-282.205,33.81
1140,280959,1.1385040000000002,-0.022692,-0.6985720999999999,-67.62001,-272.895,46.9
1141,281056,1.129232,0.07222401,-0.579256,-78.7325,-259.3675,60.34
1142,281154,1.069208,0.23472800000000002,-0.490684,-88.7775,-240.415,68.285
1143,281251,1.1324040000000002,0.416996,-0.558516,-94.23751,-214.8125,69.52750999999999
1144,281348,1.2444,0.50508,-0.6463561,-96.1975,-189.7,62.755
1145,281445,1.2073120000000002,0.545096,-0.5946279999999999,-99.855,-168.5775,44.7475
1146,281542,1.1533879999999999,0.542168,-0.502884,-104.44,-144.795,18.165
1147,281639,1.24684,0.47506800000000005,-0.5897479999999999,-104.09,-115.71,-11.4275
1148,281736,1.454484,0.34404,-0.8076399999999999,-96.3025,-89.985,-38.1325
1149,281833,1.659444,0.172752,-0.9950319999999999,-86.22251,-78.8025,-59.64
1150,281930,1.71288,0.000732,-1.0208959999999998,-76.3175,-83.87751,-76.5275
1151,282027,1.666032,-0.15762400000000001,-0.8740081000000001,-66.0275,-96.67,-87.4825
1152,282124,1.587952,-0.252052,-0.6307401,-55.475,-107.6775,-89.2675
1153,282221,1.5616,-0.301584,-0.44944799999999996,-43.6975,-110.915,-82.0575
1154,282318,1.55672,-0.40577199999999997,-0.29597199999999996,-28.35,-105.63,-69.0375
1155,282416,1.60186,-0.43798000000000004,-0.255712,-20.23,-100.3975,-55.9125
1156,282513,1.498648,-0.434076,-0.11541199999999999,-15.9075,-96.88,-44.8875
1157,282610,1.42862,-0.407724,-0.033184,-8.4875,-87.255,-35.105
1158,282707,1.399584,-0.43505200000000005,0.026351999999999997,10.29,-71.47,-25.7425
1159,282804,1.363228,-0.48824399999999996,0.09930800000000001,41.72,-52.6925,-15.0675
1160,282901,1.308816,-0.6795401,0.20496,80.675,-29.05,-2.52
1161,282998,1.341756,-0.8132520999999999,0.21008400000000002,110.145,-1.015,9.0825
1162,283095,1.368108,-0.895236,0.098332,125.5975,27.1775,17.9375
1163,283192,1.39446,-0.9469641,0.0051240009999999996,128.45,50.435,23.3625
1164,283289,1.323944,-1.023824,0.002684,120.4175,69.055,27.8425
1165,283386,0.5838920999999999,-0.7598161,-0.821304,97.615,85.4525,32.0425
1166,283483,0.6675840000000001,-0.539972,-1.417884,76.4575,80.15,40.425
1167,283580,0.5577840000000001,0.216916,-1.21634,46.83,69.37,51.625
1168,283677,0.508008,0.650992,-0.863028,31.3075,72.135,51.555
1169,283774,0.6141479999999999,0.522648,-0.787876,40.0225,80.3775,28.84
1170,283871,0.733708,0.040016,-0.9703879999999999,44.695,83.96500999999999,0.2975
1171,283968,2.38022,-1.079944,-2.170868,38.185,75.005,-15.1375
1172,284065,0.251076,-0.369904,-0.369904,11.34,21.4025,8.2075
1173,284162,0.873764,-0.0732,-1.2075559999999999,1.9775,12.88,11.4975
1174,284259,0.396012,-0.052703999999999994,-0.760304,1.085,11.585,2.555
1175,284356,0.567788,-0.19739600000000002,-0.9982040000000001,-5.2675,8.0675,-4.165
1176,284453,0.47994799999999993,-0.112972,-0.863516,-12.145,6.1425,-7.4025
1177,284550,0.524356,0.000732,-0.8998719999999999,-14.8925,4.55,-10.22
1178,284647,0.49824799999999997,0.017568,-0.8823040000000001,-13.965,3.1675,-11.2525
1179,284744,0.47677600000000003,0.016104,-0.8893800999999999,-11.7075,3.045,-10.4125
1180,284841,0.5158159999999999,-0.000488,-0.8901120000000001,-8.5225,2.1525,-9.17
1181,284938,0.528504,0.023668,-0.883524,-5.3375,0.5775,-8.6275
1182,285036,0.531676,0.034404000000000004,-0.8866961,-1.96,-1.26,-8.4175
1183,285133,0.537776,0.059048,-0.8827921000000001,3.7625,-3.2025,-7.665
1184,285230,0.538752,0.050508,-0.874252,8.33,-4.8825,-6.44
1185,285327,0.511668,0.035868000000000004,-0.8652241,11.6725,-6.1075,-4.76
1186,285424,0.49312399999999995,0.0549,-0.862296,13.5275,-6.79,-2.2225
1187,285521,0.499224,0.047336,-0.856684,15.2775,-7.14,0.35
1188,285618,0.505568,0.038796,-0.8610761,16.2925,-6.965,2.31
1189,285715,0.486048,0.012931999999999999,-0.8544879999999999,15.6275,-6.615,3.43
1190,285812,0.5002,0.005368,-0.8508280999999999,15.4175,-5.74,4.5675
1191,285909,0.46628400000000003,0.00488,-0.8669319999999999,13.685,-4.5325,4.725
1192,286006,0.48702399999999996,-0.002196,-0.8554641,12.32,-3.2375,4.2
1193,286103,0.50142,-0.006832001,-0.8613200000000001,10.9025,-2.03,3.85
1194,286200,0.479704,-0.003904,-0.8410681000000001,9.8525,-1.225,2.87
1195,286297,0.516304,-0.01586,-0.859856,8.3475,-0.6825,2.31
1196,286394,0.518012,-0.004392,-0.8605879999999999,6.16,0.385,1.435
1197,286491,0.492148,-0.002684,-0.8723001,6.125,1.2775,0.56
1198,286588,0.56608,-0.022203999999999998,-0.8744960999999999,5.46,2.205,-0.4375
1199,286685,0.514596,-0.025863999999999998,-0.8781559999999999,5.5125,3.08,-0.9975
1200,286782,0.49044,0.008784,-0.8888921000000001,5.2325,3.1675,-1.89
1201,286879,0.550708,-0.010248,-0.874984,6.09,2.485,-2.205
1202,286976,0.49702799999999997,-0.015616,-0.8744960999999999,6.7725,1.3825,-1.1025
1203,287073,0.511424,-0.000976,-0.8632719999999999,6.58,1.015,-0.5425
1204,287170,0.50752,-0.016104,-0.8554641,7.9275,0.245,0.7
1205,287267,0.517524,-0.016836,-0.855708,8.68,-0.035,1.5575
1206,287364,0.50752,-0.041724000000000004,-0.8703481,7.875,-0.1225,1.995
1207,287461,0.50752,0.001464,-0.868152,8.47,0.14,1.7325
1208,287558,0.49580799999999997,-0.01952,-0.856196,7.805,-0.175,2.3975
1209,287655,0.488,-0.012931999999999999,-0.869616,8.505,0.5075,1.995
1210,287752,0.4941,-0.028304000000000003,-0.8620521000000001,6.86,0.35,1.9775
1211,287849,0.47994799999999993,-0.047580000000000004,-0.8657120999999999,7.525,1.0675,2.3625
1212,287947,0.508008,-0.021228,-0.8525360000000001,5.8975,2.1875,1.6275
1213,288044,0.510936,-0.05002,-0.8698601,6.195,3.3075,2.3625
1214,288141,0.5009319999999999,-0.01098,-0.8703481,5.1275,3.2725,2.5725
1215,288238,0.50264,-0.054412,-0.87108,5.775,4.2175,3.955
1216,288335,0.50874,-0.022203999999999998,-0.8576601,4.3225,4.76,4.34
1217,288432,0.49654,-0.036844,-0.8662001,5.39,6.44,5.32
1218,288529,0.528504,-0.010248,-0.8459479999999999,3.0275,8.155,4.7425
1219,288626,0.50264,-0.004392,-0.853756,3.2025,11.4975,4.55
1220,288723,0.489708,-0.037576,-0.8615640999999999,1.1725,15.155,3.7275
1221,288820,0.48995200000000005,-0.002196,-0.8874280999999999,0.8400001,20.195,4.0775
1222,288917,0.348432,-0.040748,-0.9467200000000001,1.0325,28.385,5.425
1223,289014,0.42553599999999997,0.03416,-0.9413520000000001,0.455,47.4075,4.7075
1224,289111,0.44944799999999996,-0.005368,-0.9191481,3.0975,68.5125,4.9875
1225,289208,0.443592,-0.005368,-0.9674601,0.8400001,86.18751,6.3525
1226,289305,0.435784,-0.044652,-0.9823440999999999,2.17,104.685,6.1075
1227,289402,0.38356799999999996,-0.009272001,-1.0499319999999999,-0.385,127.96,4.5675
1228,289499,0.386252,0.010736,-1.077992,0.63,153.6675,2.3625
1229,289596,0.354288,0.0305,-1.090436,3.08,179.2175,2.2225
1230,289693,0.47946000000000005,0.015128,-0.984296,5.6875,199.6225,5.635
1231,289790,0.483364,-0.020252000000000003,-0.965752,8.3825,219.7825,9.8
1232,289887,0.36136399999999996,-0.028304000000000003,-0.9564799999999999,12.845,238.1575,15.505
1233,289984,0.516304,-0.056608000000000006,-0.968924,13.6675,256.9175,22.1375
1234,290081,0.711016,0.049532,-1.0025959999999998,20.86,288.5575,26.95
1235,290178,0.7944641,0.00976,-1.0248,45.5875,327.495,27.2825
1236,290275,1.083116,-0.133468,-0.9247601000000001,71.2775,364.77,25.6375
1237,290372,1.218048,-0.018788,-0.9813681000000001,88.02501,405.7375,17.6575
1238,290469,1.059204,-0.188368,-1.122156,83.66751,417.48,13.685
1239,290566,0.850584,-0.020496,-1.2397639999999999,58.7825,396.6375,18.06
1240,290663,0.8457040000000001,0.05612,-1.176812,48.4575,368.62,22.6275
1241,290760,1.4252040000000001,0.135908,-0.951356,65.45,378.105,24.4475
1242,290858,0.762988,0.328912,-1.0643280000000002,87.9375,426.93,29.995
1243,290955,0.34428400000000003,0.6068279999999999,-1.399584,113.4525,415.2575,40.6175
1244,291052,0.642696,2.341668,-3.231048,147.91,339.6225,38.0975
1245,291149,2.538088,1.304668,-4.880244,176.925,147.6475,-44.975
1246,291246,1.0243120000000001,0.5392399999999999,-3.426736,146.4575,-98.49,-110.1275
1247,291343,-0.45579200000000003,0.041236,-1.6765240000000001,112.175,-248.6925,-131.565
1248,291440,-0.5307,-0.48385200000000006,-0.9006040999999999,81.91751,-284.725,-105.1925
1249,291537,0.044652,-0.74054,-0.870592,43.47,-273.2275,-51.8525
1250,291634,0.429196,-0.620004,-1.148752,-10.045,-266.105,2.24
1251,291731,0.609024,-0.276452,-1.360056,-66.92,-286.4225,41.65
1252,291828,0.74298,0.047092,-1.367864,-101.8325,-327.915,63.665
1253,291925,0.7166279999999999,0.284504,-1.18096,-109.7775,-369.88,73.6925
1254,292022,0.721996,0.34281999999999996,-0.9718521000000001,-97.5275,-397.075,73.02750999999999
1255,292119,0.7598161,0.23155599999999998,-0.772748,-82.3025,-408.0825,63.0
1256,292216,0.8281360999999999,0.0122,-0.6070720000000001,-76.895,-406.4025,47.04
1257,292313,0.871568,-0.19178399999999998,-0.44896,-83.37001,-395.15,32.8475
1258,292410,0.8964561,-0.378932,-0.313052,-97.28251,-372.7325,29.7675
1259,292507,1.080188,-0.41553199999999996,-0.34721199999999997,-115.605,-337.8025,37.555
1260,292604,1.293688,-0.229604,-0.555588,-134.3475,-299.495,47.74
1261,292701,1.267092,0.016347999999999998,-0.6722199999999999,-149.2575,-271.775,46.97
1262,292798,1.351516,0.23448400000000003,-0.7998321,-154.385,-251.7025,31.4125
1263,292895,1.45424,0.313052,-0.9577,-145.845,-233.6075,4.06
1264,292992,1.5852680000000001,0.19764,-1.000644,-131.5825,-218.5225,-27.65
1265,293089,1.6775,0.00122,-0.9079241,-121.5375,-206.29,-59.0625
1266,293186,1.7443560000000002,-0.159576,-0.774456,-113.295,-191.3275,-84.7525
1267,293283,1.8768479999999998,-0.266204,-0.661728,-103.9675,-172.83,-101.6225
1268,293380,1.968348,-0.314272,-0.562908,-91.6825,-153.895,-111.79
1269,293477,2.092788,-0.381372,-0.487512,-73.045,-137.76,-116.8125
1270,293574,2.230648,-0.362584,-0.48556000000000005,-53.8825,-128.065,-117.495
1271,293672,2.314828,-0.28914,-0.404064,-30.7125,-129.7625,-111.7025
1272,293769,2.167208,-0.32086,-0.06539201,-2.4675,-140.5425,-98.9275
1273,293866,2.057896,-0.49117200000000005,0.325496,21.175,-143.08,-77.84
1274,293963,1.968592,-0.680028,0.7198,21.455,-130.3575,-51.905
1275,294060,1.9224759999999999,-0.602436,1.067988,-2.345,-101.395,-26.4425
1276,294157,1.6975080000000002,-0.48556000000000005,1.345904,-13.02,-36.4875,-1.1375
1277,294254,1.939068,-0.26961999999999997,0.8954801,-2.765,33.915,15.4175
1278,294351,1.9429720000000001,-0.050263999999999996,0.32574000000000003,46.7075,83.4225,16.1525
1279,294448,0.565836,-0.57706,-0.523624,117.635,107.38,4.585
1280,294545,0.408456,-0.342088,-1.407148,128.31,101.92,-10.7275
1281,294642,0.155428,-0.329156,-1.3139399999999999,94.36,94.045,-10.255
1282,294739,0.25742,-0.480436,-0.85034,75.67,99.225,19.53
1283,294836,0.6836880999999999,-0.246196,-0.9857600000000001,57.68,111.23,35.455
1284,294933,0.9320801,-0.148352,-1.163392,43.0675,112.3675,26.0925
1285,295030,0.822768,-0.149572,-1.037,31.08,98.525,7.665
1286,295127,0.7019880000000001,-0.24790399999999999,-0.9415959999999999,26.9325,87.22,-1.085
1287,295224,0.6885680999999999,-0.2989,-1.0065,21.7525,82.0575,-0.98
1288,295321,0.472872,-0.22814,-0.917684,10.9375,75.04,-2.45
1289,295418,1.545496,-0.09613601,-1.6799400000000002,19.0225,60.7425,-5.11
1290,295515,0.203252,0.183976,-0.332084,18.935,18.83,-1.5925
1291,295612,0.9869800999999999,0.036844,-1.323212,19.1975,26.4425,-4.4625
1292,295709,0.303048,0.05587601,-0.835456,14.4725,12.005,-3.115
1293,295806,0.650992,-0.06661201,-0.9630681000000001,10.5875,12.775,-2.6775
1294,295903,0.559736,0.046116000000000004,-0.882548,6.93,9.275,-1.2075
1295,296000,0.4331,-0.10736,-0.734196,5.67,6.1775,-2.0125
1296,296097,0.7278521,0.080276,-0.960384,2.6775,5.005,-2.2225
1297,296194,0.555832,0.028304000000000003,-0.9145120999999999,1.645,0.5775,-3.9375
1298,296291,0.5648601,0.030256,-0.88328,2.5725,-0.63,-4.795
1299,296388,0.561932,0.0549,-0.898164,3.535,-2.03,-5.5825
1300,296486,0.522892,0.057584,-0.8796200000000001,4.8475,-3.29,-5.6175
1301,296583,0.521184,0.050263999999999996,-0.8657120999999999,6.7025,-3.465,-4.97
1302,296680,0.5185,0.049776,-0.865956,7.56,-3.255,-4.5675
1303,296777,0.510936,0.039528,-0.8723001,7.9625,-2.6075,-4.515
1304,296874,0.5043479999999999,0.043432,-0.860344,7.8575,-1.8025,-4.5675
1305,296971,0.49995600000000007,0.06490399999999999,-0.8554641,7.84,-1.6625,-4.305
1306,297068,0.500688,0.09052401,-0.847412,9.45,-2.205,-2.625
1307,297165,0.50752,0.051972000000000004,-0.844972,10.7625,-2.0125,-1.155
1308,297262,0.5002,0.057584,-0.840824,10.4825,-1.505,-0.5075
1309,297359,0.50508,0.029768,-0.85034,10.29,-1.4525,-0.0525
1310,297456,0.5063,0.017812,-0.8508280999999999,9.625,-1.155,0.0
1311,297553,0.49751599999999996,0.007564001,-0.854244,8.575,-0.7,-0.175
1312,297650,0.47994799999999993,-0.015372,-0.83814,7.3675,-0.14,-0.8575
1313,297747,0.498004,-0.015616,-0.8508280999999999,6.2125,0.8400001,-1.9075
1314,297844,0.48433999999999994,0.001952,-0.8291120999999999,4.06,1.575,-2.38
1315,297941,0.49117200000000005,0.025131999999999998,-0.8488761,2.1525,2.3975,-2.4325
1316,298038,0.47823999999999994,0.005612,-0.8769360999999999,1.225,3.115,-2.52
1317,298135,0.542412,0.010736,-0.8540000000000001,1.295,3.675,-2.2225
1318,298232,0.491904,0.02928,-0.8813280000000001,1.1025,3.885,-1.575
1319,298329,0.555832,0.027083999999999997,-0.8740081000000001,2.765,3.465,-0.3325
1320,298426,0.50752,0.05636401,-0.8781559999999999,4.305,2.7475,1.3125
1321,298523,0.5023960999999999,0.039528,-0.879864,6.72,2.1175,2.695
1322,298620,0.560956,0.013175999999999998,-0.8576601,7.1225,1.6625,3.5175
1323,298717,0.525576,0.020984,-0.8679081,8.19,1.12,3.5525
1324,298814,0.518988,0.01708,-0.8518040000000001,8.0325,1.3825,3.01
1325,298911,0.5192319999999999,0.009028000999999999,-0.8674200000000001,8.6625,2.0475,2.4325
1326,299008,0.5343600000000001,0.018544,-0.854244,8.6975,2.7125,2.555
1327,299105,0.523624,0.033428,-0.8525360000000001,9.2225,3.605,3.115
1328,299202,0.514108,0.029036000000000003,-0.8554641,7.9975,4.69,3.3775
1329,299299,0.522892,-0.004636001,-0.8693719999999999,7.9275,6.125,3.325
1330,299396,0.5246,-0.017568,-0.8596120999999999,5.775,8.155,2.6775
1331,299493,0.543388,-0.012688,-0.8476561,3.78,10.395,2.31
1332,299590,0.547048,-0.002196,-0.841556,2.24,12.88,1.5225
1333,299687,0.5429,-0.0017079999999999999,-0.844972,0.735,16.1875,0.595
1334,299784,0.528748,0.020008,-0.862784,-0.735,20.3175,0.1925
1335,299881,0.483364,0.027327999999999998,-0.8884040000000001,-4.06,25.655,0.7525
1336,299978,0.258884,0.18788,-1.064084,-5.88,35.525,2.24
1337,300075,0.482876,0.058316,-0.916464,6.8775,54.8975,4.935
1338,300172,0.494832,0.019032,-0.907192,4.9175,69.37,7.805
1339,300269,0.46726,0.035136,-0.9262239999999999,5.145,83.335,9.2225
1340,300367,0.438468,-0.029036000000000003,-0.9516,4.025,99.6975,9.1175
1341,300464,0.46335600000000005,-0.022692,-0.9921040999999999,-0.1225,117.11,8.1025
1342,300561,0.43798000000000004,-0.06588,-1.018456,-0.805,139.02,4.0775
1343,300658,0.413336,0.008296000999999999,-1.024556,-1.4,163.24,-1.68
1344,300755,0.387228,0.011224,-0.9967401,0.665,188.405,-3.4825
1345,300852,0.329156,0.058803999999999995,-1.102392,2.4675,216.545,-0.91
1346,300949,0.354288,0.030744,-1.024068,9.485,241.2725,4.3225
1347,301046,0.5553441,0.05977999999999999,-1.19072,11.3225,273.6475,9.9925
1348,301143,0.71614,0.096624,-0.9286639999999999,26.2675,306.3025,12.6175
1349,301240,1.2017,-0.00976,-0.861808,40.8275,343.5775,8.3825
1350,301337,1.254404,-0.081252,-1.00284,56.84,400.1375,1.89
1351,301434,1.145092,-0.12980799999999998,-1.095804,58.7125,421.0675,-2.87
1352,301531,0.9528200000000001,-0.12468399999999999,-1.200968,34.79,410.235,4.235
1353,301628,0.8625401,0.037332,-1.03944,18.3925,389.06,17.6225
1354,301725,1.19682,0.10004,-0.863516,20.2125,399.945,21.1925
1355,301822,0.650992,0.19251600000000002,-1.147044,21.07,455.98,22.2425
1356,301919,0.6029241,0.278648,-0.9459880999999999,29.54,456.365,29.2425
1357,302016,0.14762,1.286856,-2.197952,36.0675,417.165,40.53
1358,302113,2.640812,1.381772,-4.337587999999999,70.21,273.7525,16.555
1359,302210,2.161596,0.987956,-4.435676,91.2975,33.9325,-34.37
1360,302307,0.299632,0.542412,-2.657648,94.46500999999999,-181.51,-66.675
1361,302404,-0.482388,0.08759601,-1.288564,88.2,-285.145,-74.9525
1362,302501,-0.408456,-0.316712,-0.730292,71.0325,-301.105,-53.41
1363,302598,0.09345201,-0.47067600000000004,-0.7759199999999999,41.965,-281.995,-16.135
1364,302695,0.45725600000000005,-0.36502399999999996,-1.087264,2.45,-268.555,22.82
1365,302792,0.6653880999999999,-0.12029200000000001,-1.341756,-35.3325,-283.115,51.905
1366,302889,0.767868,0.0732,-1.340536,-58.415,-320.46,68.705
1367,302986,0.75762,0.17519200000000001,-1.2017,-64.47,-358.4,77.5075
1368,303083,0.75884,0.203252,-1.017236,-62.02,-383.985,78.435
1369,303180,0.820084,0.18104800000000001,-0.8459479999999999,-59.465,-397.6175,71.96
1370,303277,0.8608319999999999,0.135176,-0.6985720999999999,-61.0925,-399.7875,60.41
1371,303374,0.9025559999999999,0.08369201,-0.581208,-63.9625,-390.74,47.7925
1372,303471,0.9423280999999999,0.072712,-0.49605200000000005,-69.16,-371.98,37.38
1373,303568,0.9911281,0.095648,-0.48214399999999996,-74.04251,-343.1575,28.7875
1374,303666,1.0462719999999999,0.165188,-0.59048,-80.3425,-308.455,20.1775
1375,303763,1.077992,0.24034,-0.686616,-87.5875,-277.655,8.1375
1376,303860,1.071892,0.30134,-0.769332,-94.58751,-254.0125,-8.12
1377,303957,1.1746159999999999,0.332084,-0.983564,-97.475,-230.965,-28.665
1378,304054,1.328824,0.264252,-1.115812,-99.31251,-213.36,-50.19
1379,304151,1.414712,0.148352,-1.071404,-104.545,-202.0375,-72.5025
1380,304248,1.520608,0.030256,-0.9396440999999999,-112.6125,-187.9675,-93.765
1381,304345,1.7101959999999998,-0.077592,-0.880352,-121.0475,-168.98,-111.3525
1382,304442,2.0425240000000002,-0.141276,-0.9186601000000001,-125.51,-151.7075,-123.095
1383,304539,2.32654,-0.187392,-0.9267120000000001,-120.2075,-144.5325,-127.3125
1384,304636,2.3860759999999996,-0.260592,-0.712236,-102.445,-150.1325,-122.4475
1385,304733,2.383148,-0.366,-0.37698000000000004,-76.9475,-158.3925,-108.5
1386,304830,2.3250759999999997,-0.41992399999999996,-0.035868000000000004,-50.855,-162.855,-85.26
1387,304927,2.185264,-0.50142,0.372832,-31.01,-160.51,-56.8225
1388,305024,2.10816,-0.55998,0.69662,-25.2,-147.7875,-28.2625
1389,305121,2.055456,-0.5858439999999999,0.9084121,-36.61,-123.8125,-5.2325
1390,305218,1.9842080000000002,-0.548268,1.033096,-56.9975,-89.6175,10.7275
1391,305315,1.719712,-0.209596,0.8708360999999999,-71.05,-46.5675,22.085
1392,305412,1.6609080000000003,-0.037576,1.0323639999999998,-28.0175,18.7075,35.7
1393,305509,1.743868,0.154452,0.327936,58.6425,86.4325,41.86
1394,305606,0.773968,-0.4453,-0.613416,164.3425,116.935,36.435
1395,305703,0.46018400000000004,-0.211792,-1.486204,185.78,106.4525,22.295
1396,305800,-0.23301999999999998,-0.30182800000000004,-1.164856,151.8125,93.1,21.0175
1397,305897,-0.021472,-0.561688,-0.773968,129.4475,104.0375,47.495
1398,305994,0.756156,-0.584868,-1.027728,112.0175,125.4225,64.295
1399,306091,1.035536,-0.428464,-1.16022,83.405,125.125,56.315
1400,306188,0.8466800999999999,-0.185684,-0.8625401,58.625,109.6375,33.705
1401,306285,0.8256960999999999,-0.079056,-1.001376,49.175,106.155,16.0475
1402,306382,0.795928,-0.13785999999999998,-1.251232,41.9475,103.005,3.9725
1403,306479,0.7032079999999999,-0.26718000000000003,-0.8652241,30.2225,91.84000999999999,-6.5625
1404,306576,1.929552,-0.5267960999999999,-1.916864,30.2925,83.16001,-9.87
1405,306673,0.5353359999999999,0.07808001,-0.5516840000000001,32.1825,32.2875,2.5025
1406,306770,0.8781559999999999,0.036844,-1.244644,21.77,27.7375,0.735
1407,306867,0.483364,-0.07246799999999999,-0.9006040999999999,18.1125,15.4175,-1.47
1408,306964,0.543144,0.03172,-1.0401719999999999,12.4775,12.845,-1.435
1409,307061,0.681736,-0.06588,-0.9730721,5.425,8.575,-4.865
1410,307158,0.5267960999999999,0.07978801,-0.8486319999999999,2.2225,6.5975,-3.4125
1411,307255,0.548024,0.010736,-0.8996280999999999,1.1725,4.7075,-5.005
1412,307352,0.56852,-0.008540001,-0.8957241,-0.4025,4.1475,-6.195
1413,307449,0.5231359999999999,0.002684,-0.8845,-3.78,3.605,-9.0825
1414,307546,0.509472,0.01464,-0.8569280999999999,-6.3175,4.27,-11.655
1415,307643,0.48922,0.014884,-0.8788879999999999,-8.4,4.9525,-13.7375
1416,307740,0.512888,0.038308,-0.860344,-8.225,4.7425,-13.8075
1417,307837,0.48531599999999997,0.029768,-0.8486319999999999,-7.84,4.9,-13.3875
1418,307934,0.4575,0.0017079999999999999,-0.8910879999999999,-8.2775,5.6525,-13.125
1419,308031,0.520452,0.041968,-0.864492,-8.2775,5.74,-12.425
1420,308129,0.508252,0.031964,-0.8508280999999999,-9.5725,6.37,-12.495
1421,308226,0.5165481,0.088328,-0.8674200000000001,-10.3775,7.175,-11.7075
1422,308323,0.5511961,0.086132,-0.873276,-8.75,6.37,-10.08
1423,308420,0.548024,0.11102000000000001,-0.865956,-5.6875,4.55,-8.2775
1424,308517,0.533872,0.106628,-0.8640040000000001,-1.855,2.5375,-6.3525
1425,308614,0.537532,0.09442801,-0.859368,1.54,0.8400001,-3.3075
1426,308711,0.533628,0.08052000000000001,-0.86498,4.935,-0.7,-1.0325
1427,308808,0.531676,0.071248,-0.861808,7.7175,-2.3625,0.7525
1428,308905,0.521184,0.06588,-0.8510719999999999,10.8675,-3.85,2.345
1429,309002,0.5104479999999999,0.057096,-0.8513161,12.1275,-4.3925,3.22
1430,309099,0.50264,0.047336,-0.8552200000000001,13.4925,-5.18,4.3925
1431,309196,0.496296,0.056852,-0.8591241,16.135,-5.4425,6.4925
1432,309293,0.49873599999999996,0.03782,-0.8525360000000001,18.865,-6.51,9.5725
1433,309390,0.49580799999999997,0.058316,-0.8640040000000001,23.1175,-7.9625,13.895
1434,309487,0.49702799999999997,0.061975999999999996,-0.8510719999999999,27.9125,-9.4325,18.41
1435,309584,0.51972,0.080764,-0.8569280999999999,31.7625,-11.305,22.9425
1436,309681,0.49849209999999994,0.057584,-0.8669319999999999,34.475,-12.04,25.9
1437,309778,0.48848800000000003,0.030012,-0.8410681000000001,35.7,-11.515,26.81
1438,309875,0.49751599999999996,-0.02928,-0.865956,32.13,-8.505,24.185
1439,309972,0.527772,-0.047336,-0.8559521000000001,27.16,-5.635,19.2325
1440,310069,0.49263599999999996,-0.063196,-0.8718120999999999,23.1525,-3.71,15.575
1441,310167,0.50142,-0.047824,-0.856684,19.7225,-1.995,12.705
1442,310264,0.5070319999999999,-0.052948,-0.859856,17.3775,-0.49,10.8325
1443,310361,0.51972,-0.044407999999999996,-0.861808,15.3125,0.91,9.0825
1444,310458,0.514108,-0.03416,-0.8662001,12.5125,2.065,8.0675
1445,310555,0.503372,-0.057339999999999995,-0.8576601,10.71,3.5,6.9475
1446,310652,0.516304,-0.06124401,-0.8693719999999999,7.7525,6.055,5.215
1447,310749,0.515572,-0.067832,-0.858392,5.9325,8.8025,3.2375
1448,310846,0.51118,-0.052948,-0.8591241,2.765,11.725,1.225
1449,310943,0.512644,-0.04514,-0.863516,0.665,14.84,-0.14
1450,311040,0.5321640000000001,-0.05563200000000001,-0.8784,-0.6125,18.9875,-1.295
1451,311137,0.487756,-0.01464,-0.90402,-1.8375,24.6925,-2.24
1452,311234,0.241804,0.07588400000000001,-1.03334,-2.87,35.1925,-2.73
1453,311331,0.46116,-0.028304000000000003,-0.9049959999999999,1.3125,57.225,-3.6225
1454,311428,0.46433199999999997,0.000244,-0.934276,-0.595,75.1975,-2.8525
1455,311525,0.44408000000000003,-0.036844,-0.9291520000000001,-1.3825,94.81501,-2.3975
1456,311623,0.42431599999999997,-0.045872,-0.965752,-3.71,118.23,-3.3075
1457,311720,0.382348,-0.023912,-1.040904,-7.2275,145.425,-5.1975
1458,311817,0.37112399999999995,0.011468,-1.107272,-7.84,175.3325,-6.2475
1459,311914,0.34477199999999997,0.015372,-1.104832,-3.64,205.03,-6.335
1460,312011,0.361852,0.022936,-1.051152,2.835,232.6625,-2.555
1461,312108,0.378932,0.05587601,-1.121912,7.0,262.885,5.425
1462,312205,0.47946000000000005,0.047580000000000004,-1.042368,16.6075,290.9375,15.4875
1463,312302,0.815448,0.09638,-1.162416,24.2725,324.975,25.27
1464,312399,1.0401719999999999,0.002196,-1.1265479999999999,47.285,367.3075,30.1525
1465,312496,1.231956,-0.09223200000000001,-1.1873040000000001,72.7475,410.62,25.76
1466,312593,1.1746159999999999,-0.186904,-1.311256,72.135,423.2725,18.2175
1467,312690,0.9406200000000001,-0.011468,-1.402512,55.545,400.085,24.9725
1468,312787,1.311012,0.086132,-1.136064,54.425,389.4275,30.0125
1469,312884,0.7229720000000001,0.322812,-1.10776,52.15,414.8025,32.41
1470,312981,0.081496,0.7598161,-1.535004,76.685,401.8175,44.94
1471,313079,0.7673800000000001,1.208776,-2.928244,127.05,319.9525,47.67
1472,313176,1.8709919999999998,0.762988,-4.172644,160.6325,146.8075,20.405
1473,313273,0.763476,0.296948,-3.02926,138.18,-48.02,-7.8925
1474,313370,-0.396012,0.154696,-1.7082439999999999,84.8925,-169.0675,-28.9625
1475,313467,-0.587796,0.10321199999999998,-1.079944,32.55,-212.1175,-36.33
1476,313564,-0.240096,0.10906800000000001,-0.9396440999999999,-3.955,-216.4225,-30.45
1477,313661,-0.004148001,0.11467999999999999,-1.004792,-21.1575,-213.955,-18.025
1478,313758,0.164944,0.143716,-1.154608,-30.8175,-222.7225,-8.1725
1479,313855,0.3233,0.16201600000000002,-1.229028,-33.0225,-244.8425,-2.4325
1480,313952,0.40821199999999996,0.143716,-1.216584,-30.905,-273.035,-0.0875
1481,314049,0.467992,0.07002799999999999,-1.126792,-29.645,-298.55,0.21
1482,314146,0.47702,-0.00488,-1.005036,-33.8275,-316.5925,-2.0475
1483,314243,0.550952,-0.0976,-0.9106081,-42.8925,-326.5675,-4.7775
1484,314340,0.6541640000000001,-0.182268,-0.8176439999999999,-53.0075,-328.685,-4.48
1485,314437,0.758352,-0.255956,-0.746152,-61.635,-322.56,1.2075
1486,314535,0.899384,-0.32866799999999996,-0.7229720000000001,-68.4775,-308.8575,11.375
1487,314632,1.105808,-0.296216,-0.7895840999999999,-75.1975,-290.955,25.515
1488,314729,1.155096,-0.17568,-0.758352,-82.8275,-273.0,38.745
1489,314826,1.095072,0.009028000999999999,-0.7766521,-91.14,-253.3825,42.0525
1490,314923,1.14802,0.17934,-0.90036,-93.9225,-235.0775,32.48
1491,315020,1.247084,0.269376,-1.0645719999999999,-91.28,-220.8675,15.3475
1492,315117,1.212436,0.20691199999999998,-1.0321200000000001,-88.11251,-210.7,-6.055
1493,315214,1.229516,0.08881599,-0.9340321,-91.98001,-197.575,-30.31
1494,315311,1.347124,-0.016347999999999998,-0.8810841,-100.03,-177.905,-52.4125
1495,315408,1.640412,-0.091744,-0.978928,-109.725,-157.5175,-69.93
1496,315505,1.97396,-0.09320801,-1.143384,-112.245,-148.3825,-83.51001
1497,315602,2.195268,-0.143716,-1.1326479999999999,-100.5025,-155.3825,-91.5775
1498,315699,2.21674,-0.215696,-0.9191481,-80.045,-170.9925,-94.8325
1499,315796,2.157692,-0.296704,-0.5987760999999999,-51.8175,-183.6275,-91.875
1500,315893,2.079124,-0.386496,-0.149572,-21.945,-187.53,-80.9375
1501,315991,1.9849400000000001,-0.42748800000000003,0.321104,-1.1025,-179.2175,-62.4225
1502,316088,1.957856,-0.411872,0.680028,4.8125,-156.6425,-40.53
1503,316185,2.0169040000000003,-0.43334399999999995,0.964776,-10.2725,-126.28,-22.61
1504,316282,1.975424,-0.446276,1.118496,-40.0925,-89.145,-8.505
1505,316379,1.896612,-0.376736,1.050176,-73.7625,-44.9225,0.8575
1506,316476,1.903444,0.279136,0.797636,-91.595,-1.1025,6.5975
1507,316573,1.624796,0.31890799999999997,0.5185,-28.945,59.7275,13.825
1508,316670,1.738256,0.114924,0.05368,68.3025,103.74,15.225
1509,316767,0.645868,-0.57584,-0.780556,151.235,117.9675,5.6175
1510,316864,0.11345999999999999,-0.652456,-1.279536,144.5675,103.3725,-8.5575
1511,316961,-0.05856,-0.8296,-1.117276,100.0125,101.9375,-4.445
1512,317058,0.407724,-0.748592,-0.9384239999999999,75.3725,118.335,24.5
1513,317155,0.9860040999999999,-0.321104,-1.084092,50.1375,131.4425,37.94
1514,317252,0.957944,0.04392,-1.069208,34.58,123.76,23.5375
1515,317350,0.846924,0.148352,-1.02724,30.065,110.46,2.45
1516,317447,0.8640040000000001,0.058803999999999995,-1.0919,32.6375,103.67,-11.1125
1517,317544,1.505968,-0.023912,-1.915888,36.26,92.995,-16.695
1518,317641,1.677012,-0.8625401,-1.516704,54.4775,48.72,-5.7225
1519,317738,0.5885281,0.10614000000000001,-0.777628,18.1475,3.4125,2.765
1520,317835,0.440176,0.02684,-0.8810841,16.87,9.695,-4.9875
1521,317932,0.5607121,-0.07832401,-0.9979600000000001,15.5575,4.4275,-5.9325
1522,318029,0.49654,0.011712,-0.8884040000000001,14.665,2.0825,-5.11
1523,318126,0.46848,0.07588400000000001,-0.9140241,15.645,-0.4725,-3.815
1524,318223,0.49141599999999996,0.050752,-0.8620521000000001,19.355,-2.0825,0.0175
1525,318320,0.559736,0.082228,-0.942084,21.7,-2.8,3.7625
1526,318417,0.584136,0.044164,-0.8857200999999999,21.9625,-4.165,5.5825
1527,318514,0.5158159999999999,0.008540001,-0.873276,21.0175,-5.39,6.965
1528,318611,0.471408,0.004636001,-0.8927959999999999,19.425,-5.9675,6.37
1529,318708,0.506544,0.012688,-0.8857200999999999,18.76,-5.6875,6.4225
1530,318806,0.47823999999999994,0.047580000000000004,-0.889136,17.675,-5.88,6.93
1531,318903,0.48385200000000006,-0.008540001,-0.883768,17.2375,-5.5475,6.9475
1532,319000,0.47604399999999997,-0.030256,-0.8625401,14.945,-3.9725,4.8825
1533,319097,0.48312,-0.032208,-0.883768,12.25,-2.1525,1.6625
1534,319194,0.48385200000000006,-0.029768,-0.8801081000000001,9.59,-0.035,-1.4525
1535,319291,0.48995200000000005,-0.006344,-0.8888921000000001,6.9125,2.065,-3.7975
1536,319388,0.475312,0.034404000000000004,-0.8959681,5.705,2.415,-4.935
1537,319485,0.49727200000000005,0.048068,-0.8757159999999999,5.95,2.065,-4.305
1538,319582,0.49288000000000004,0.029036000000000003,-0.87108,7.91,1.2775,-2.24
1539,319679,0.5009319999999999,0.017812,-0.8796200000000001,9.3625,0.5075,-0.2975
1540,319776,0.49166000000000004,-0.0051240009999999996,-0.868884,9.24,-0.245,0.7875
1541,319873,0.4933681,0.004148001,-0.869128,9.0125,-0.77,1.3825
1542,319970,0.48263199999999995,-0.007564001,-0.883524,8.645,-0.875,1.68
1543,320067,0.47092,-0.016592,-0.877912,7.6825,-0.91,1.855
1544,320164,0.48824399999999996,-0.01342,-0.8810841,7.42,-0.49,1.82
1545,320261,0.47043199999999996,-0.024644,-0.8823040000000001,7.665,-0.8400001,2.275
1546,320358,0.488,-0.025376,-0.8784,7.6825,-0.455,2.1525
1547,320456,0.48678,-0.01952,-0.8759601,7.315,-0.5425,2.485
1548,320553,0.49312399999999995,-0.033428,-0.8730319999999999,7.0875,-0.5775,2.835
1549,320650,0.485072,-0.034648000000000005,-0.8740081000000001,7.07,-0.035,3.08
1550,320747,0.4819,-0.033916,-0.869128,5.74,0.4025,2.6075
1551,320844,0.49166000000000004,-0.060267999999999995,-0.864492,5.0225,0.8575,1.925
1552,320941,0.49263599999999996,-0.029768,-0.86864,2.7475,1.9775,1.015
1553,321038,0.49532,-0.038551999999999996,-0.8801081000000001,2.905,2.87,0.07
1554,321135,0.493856,-0.066124,-0.8679081,1.75,3.2025,-0.875
1555,321232,0.49605200000000005,-0.015128,-0.8723001,0.665,3.92,-1.8025
1556,321329,0.48312,-0.024888,-0.8730319999999999,1.015,3.955,-2.03
1557,321426,0.49532,0.014396,-0.886452,0.8575,4.27,-1.9425
1558,321523,0.49727200000000005,0.011468,-0.8866961,0.595,4.76,-1.5225
1559,321620,0.513864,-0.004636001,-0.886452,2.1175,4.76,-0.56
1560,321717,0.503372,0.015372,-0.8810841,1.6975,5.6,-0.07
1561,321814,0.5016641,-0.048312,-0.85034,2.275,6.7725,0.945
1562,321912,0.49824799999999997,-0.006344,-0.8549761,2.1525,7.665,1.7325
1563,322009,0.48678,-0.015128,-0.8671761,2.0475,9.5725,2.0475
1564,322106,0.475312,-0.057096,-0.8723001,1.4875,11.83,1.575
1565,322203,0.480192,0.026595999999999998,-0.8935280999999999,0.455,15.5925,1.12
1566,322300,0.49044,0.06539201,-0.925736,3.605,21.84,3.6575
1567,322397,0.486292,0.062952,-0.9152440000000001,7.9975,29.12,9.135
1568,322494,0.307196,-0.190808,-0.898652,13.3875,37.9225,14.315
1569,322591,0.481412,0.07686,-0.9323239999999999,9.5025,57.1725,14.2975
1570,322688,0.417972,-0.046116000000000004,-0.9455,9.2225,72.0475,16.3975
1571,322785,0.43334399999999995,0.002196,-0.989176,9.3275,90.545,16.3625
1572,322882,0.429684,-0.001464,-0.989664,10.605,112.175,16.205
1573,322979,0.409432,-0.015616,-1.0079639999999999,12.39,135.24,17.7275
1574,323076,0.410408,-0.007808001,-1.050664,12.565,161.63,18.585
1575,323174,0.387716,0.03416,-1.086288,13.8075,190.0675,19.6875
1576,323271,0.395768,0.0034159999999999998,-1.0643280000000002,20.8075,215.88,23.1175
1577,323368,0.4404201,0.06636801,-1.0760399999999999,24.5525,241.22,29.12
1578,323465,0.427976,-0.05612,-0.9874681000000001,32.7425,263.4625,36.1025
1579,323562,0.6344,-0.044896,-1.0765280000000002,32.165,285.0225,43.2425
1580,323659,0.824232,-0.108824,-0.9943001,43.085,321.195,47.8625
1581,323756,1.1538760000000001,-0.034892,-1.285636,57.8725,355.9325,44.975
1582,323853,1.3351680000000001,-0.09418401,-1.116544,63.805,373.66,41.5275
1583,323950,0.898408,-0.170068,-1.203164,61.7925,376.53,41.7375
1584,324047,0.9913719999999999,-0.006832001,-1.017236,40.635,356.37,41.65
1585,324144,1.10166,0.043676,-1.19316,26.635,361.8475,38.01
1586,324241,0.799588,0.279868,-1.157292,26.215,372.6975,45.4125
1587,324338,0.07393200000000001,1.229028,-2.147932,53.4275,344.7675,52.64
1588,324435,1.053836,1.9215,-3.0683,116.97,226.45,26.0925
1589,324533,1.284904,1.087752,-3.7044080000000004,146.4575,53.5675,-41.825
1590,324630,0.02562,0.471408,-2.29604,131.4775,-100.6775,-90.475
1591,324727,-0.6422081000000001,0.043432,-1.231956,93.6075,-178.2725,-112.84
1592,324824,-0.488976,-0.2684,-0.9079241,47.4425,-197.1725,-108.115
1593,324921,-0.045384,-0.422608,-0.975024,2.0825,-193.9,-83.30001
1594,325018,0.110776,-0.330864,-1.146312,-37.8525,-196.0875,-50.47
1595,325115,0.247416,-0.141032,-1.259284,-63.8925,-214.6725,-21.0875
1596,325212,0.335256,0.027572000000000003,-1.259284,-69.685,-244.02,1.785
1597,325309,0.37332,0.114436,-1.1346,-64.3125,-272.055,16.3625
1598,325406,0.416996,0.130296,-0.983564,-59.0975,-291.165,21.035
1599,325503,0.5060560000000001,0.09930800000000001,-0.906948,-60.6375,-299.985,17.115
1600,325600,0.65758,0.00244,-0.8693719999999999,-66.9725,-303.205,10.1675
1601,325697,0.8003201,-0.09442801,-0.837408,-76.3525,-302.3825,5.705
1602,325794,0.9247601000000001,-0.16128399999999998,-0.8215481,-86.20501,-297.99,7.5425
1603,325892,1.057984,-0.15982000000000002,-0.82594,-93.08249,-289.45,17.255
1604,325989,1.160464,-0.08466801,-0.80886,-97.02,-277.62,30.205
1605,326086,1.1204479999999999,0.044164,-0.7549359999999999,-100.765,-262.5175,39.6725
1606,326183,1.045784,0.21374400000000002,-0.7324881,-101.71,-244.195,41.02
1607,326280,1.066524,0.348188,-0.839116,-99.7325,-222.145,34.895
1608,326377,1.1070280000000001,0.39113200000000004,-0.9010921000000001,-95.55,-200.62,20.5975
1609,326474,1.051152,0.346968,-0.8235001000000001,-93.0125,-181.0375,0.4725
1610,326571,0.99308,0.24522,-0.707356,-93.485,-155.645,-21.0525
1611,326668,1.062132,0.111752,-0.708576,-96.79251,-122.395,-41.2125
1612,326765,1.384944,0.004148001,-0.9191481,-101.2025,-90.66751,-57.33
1613,326862,1.6994599999999997,-0.08296,-1.135576,-104.6325,-72.9925,-69.0725
1614,326959,2.007144,-0.10638399999999999,-1.279536,-110.3025,-76.2125,-78.1375
1615,327056,2.1230439999999997,-0.07832401,-1.192184,-112.175,-99.61,-85.9425
1616,327153,2.065948,-0.163236,-0.8893800999999999,-102.76,-129.43,-92.7325
1617,327250,2.084004,-0.328912,-0.576572,-85.83751,-151.865,-94.65751
1618,327347,2.086688,-0.518256,-0.19861600000000001,-70.7875,-166.3725,-89.0925
1619,327444,2.146712,-0.6107319999999999,0.165432,-61.1975,-174.2125,-75.4075
1620,327542,2.027396,-0.6709999999999999,0.627812,-55.1775,-172.76,-56.9975
1621,327639,1.7924240000000002,-0.787876,1.0845799999999999,-53.97,-152.04,-37.3625
1622,327736,1.594784,-0.698816,1.572092,-47.5475,-99.24251,-14.945
1623,327833,1.4095879999999998,-0.388204,1.2078,-17.395,-12.4075,8.96
1624,327930,1.603812,-0.113704,0.652212,37.1525,59.8325,21.49
1625,328027,1.49694,0.18104800000000001,0.050752,112.7875,108.535,20.2125
1626,328124,0.5975560000000001,-0.41406800000000005,-0.6822239999999999,200.7075,129.7275,0.0175
1627,328221,0.345992,-0.409188,-1.323456,214.8825,121.24,-22.015
1628,328318,0.08174001,-0.493612,-1.17486,163.275,111.8075,-35.2975
1629,328415,0.350628,-1.021628,-0.856684,133.7,119.875,-16.0825
1630,328512,0.9503799999999999,-1.025288,-1.05408,104.545,129.745,-0.385
1631,328609,1.086532,-0.904752,-1.1716879999999998,80.2725,120.225,2.0825
1632,328706,0.8437520000000001,-0.5897479999999999,-1.022604,62.4575,99.085,4.69
1633,328803,0.746396,-0.20861999999999997,-0.9757561,49.14,89.495,6.685
1634,328901,0.81374,-0.058316,-1.154608,42.0525,84.8225,0.56
1635,328998,0.8344801,-0.008052001,-1.204628,36.33,75.145,-7.2275
1636,329095,1.263188,-0.522648,-1.392264,46.655,48.2125,-4.9
1637,329192,0.52704,0.15494000000000002,-0.7707961,27.5975,5.0925,6.72
1638,329289,0.63562,0.075396,-0.9442801,33.18,11.7775,3.0275
1639,329386,0.582916,0.0122,-1.030412,38.43,1.0675,6.895
1640,329483,0.599996,-0.01708,-0.9023121,36.68,-0.9975,8.9425
1641,329580,0.489464,0.072712,-0.8818159999999999,33.9325,-4.305,11.515
1642,329677,0.7129681,-0.007808001,-0.942084,30.5375,-6.2825,13.72
1643,329774,0.5353359999999999,-0.021472,-0.87718,28.7875,-8.225,15.855
1644,329871,0.538996,-0.044164,-0.887184,25.8125,-8.645,15.085
1645,329968,0.540948,-0.050752,-0.87474,22.3825,-8.6625,13.685
1646,330065,0.5321640000000001,-0.03538,-0.882548,19.8975,-8.295,11.7775
1647,330162,0.528748,-0.046848,-0.876692,17.325,-7.7175,9.6775
1648,330259,0.49751599999999996,-0.091988,-0.8547319999999999,15.2075,-6.055,6.72
1649,330356,0.4941,-0.091744,-0.85888,11.2175,-3.92,2.6075
1650,330454,0.508984,-0.08662001,-0.8791321,8.5225,-1.9075,-1.12
1651,330551,0.496784,-0.063684,-0.871568,6.0725,-0.175,-4.27
1652,330648,0.5058121,-0.020252000000000003,-0.8613200000000001,4.62,0.595,-6.055
1653,330745,0.5060560000000001,-0.008540001,-0.863516,4.2,0.4025,-6.125
1654,330842,0.510936,0.016836,-0.8693719999999999,4.69,-0.07,-4.795
1655,330939,0.515572,0.01586,-0.863028,5.81,-1.1725,-2.7125
1656,331036,0.5160600000000001,-0.00244,-0.8591241,7.21,-2.4675,-0.2975
1657,331133,0.522404,-0.00366,-0.8642481,8.9775,-3.7625,1.9425
1658,331230,0.508984,-0.016104,-0.8674200000000001,11.0775,-5.1275,4.165
1659,331327,0.5077640999999999,-0.024156,-0.8608319999999999,12.53,-5.985,6.02
1660,331424,0.49654,-0.041236,-0.8615640999999999,13.4225,-6.4925,7.1575
1661,331521,0.48556000000000005,-0.06636801,-0.8510719999999999,13.7375,-6.5625,7.63
1662,331618,0.492148,-0.063684,-0.862296,13.3525,-6.23,8.12
1663,331715,0.48214399999999996,-0.09272000000000001,-0.844484,12.5475,-5.74,8.54
1664,331812,0.48678,-0.08466801,-0.8540000000000001,11.97,-5.1275,8.5225
1665,331910,0.47946000000000005,-0.08296,-0.846924,10.675,-4.41,8.155
1666,332007,0.4697,-0.081496,-0.856196,9.3975,-3.2725,7.665
1667,332104,0.49849209999999994,-0.09442801,-0.8481440999999998,8.0675,-1.6275,6.965
1668,332201,0.461404,-0.079056,-0.8461921,6.37,0.0175,6.3525
1669,332298,0.47384799999999994,-0.0854,-0.8483879999999999,4.9875,1.715,5.4425
1670,332395,0.479704,-0.101992,-0.8344801,2.45,3.7275,4.9175
1671,332492,0.471408,-0.10687200000000001,-0.8493641,-0.0175,5.7575,4.06
1672,332589,0.49166000000000004,-0.130052,-0.844484,-2.6775,8.26,3.01
1673,332686,0.498004,-0.138836,-0.8493641,-6.1425,11.3575,1.0675
1674,332783,0.468724,-0.15762400000000001,-0.8247200000000001,-10.57,16.1175,-3.675
1675,332880,0.49166000000000004,-0.141276,-0.8513161,-17.325,22.2425,-10.0625
1676,332977,0.50264,-0.056852,-0.8969440000000001,-23.8525,28.5425,-15.0325
1677,333074,0.5023960999999999,0.002196,-0.9201241,-24.4125,33.425,-15.3475
1678,333171,0.515328,0.026351999999999997,-0.9167081,-22.225,39.8475,-12.2325
1679,333268,0.45383999999999997,-0.162504,-0.9225639999999999,-21.28,51.4325,-7.6825
1680,333365,0.13761600000000002,0.285236,-1.268312,-28.0525,80.0975,-3.955
1681,333462,0.34477199999999997,-0.048068,-1.076284,-7.245,126.5775,-5.0225
1682,333560,0.4594521,0.14152,-1.053592,-7.6475,166.775,-1.2075
1683,333657,0.41504399999999997,0.057584,-1.10776,-1.0325,205.6775,6.1075
1684,333754,0.36087600000000003,0.03172,-1.19804,4.3925,241.8675,11.025
1685,333851,0.376248,0.036844,-1.24684,14.175,275.3975,15.7675
1686,333948,0.398452,-0.048312,-1.319064,30.1175,304.0975,22.3825
1687,334045,0.671244,0.175924,-1.259772,49.2975,327.215,29.19
1688,334142,1.081408,0.196908,-1.2080440000000001,65.1875,343.1925,36.9775
1689,334239,1.097024,0.019032,-1.348344,82.95,361.6375,42.105
