,T,ax,ay,az,gx,gy,gz
0,129156,0.539484,-0.14688800000000002,-0.636108,16.8175,-16.7825,-17.045
1,129308,0.5577840000000001,-0.14005599999999999,-0.735416,10.7975,-65.6775,-94.97251
2,129404,0.59536,-0.161772,-0.773724,40.215,-167.755,-172.235
3,129500,0.596092,-0.160796,-0.772504,46.13,-132.44,-59.01
4,129597,0.5948720000000001,-0.165188,-0.775188,3.1325,-9.03,-5.565
5,129693,0.5946279999999999,-0.166164,-0.779824,1.19,-4.165,-3.6225
6,129789,0.5980439999999999,-0.16811600000000002,-0.7795801,0.8925,-4.3925,-3.9375
7,129885,0.59536,-0.165432,-0.779824,0.665,-4.5325,-4.27
8,129982,0.596336,-0.166408,-0.780068,0.455,-4.515,-4.375
9,130078,0.597068,-0.162504,-0.782752,0.2275,-4.4625,-4.5675
10,130174,0.5958479999999999,-0.16201600000000002,-0.781776,0.2275,-4.3575,-4.515
11,130270,0.597068,-0.157136,-0.780556,0.4375,-4.2,-4.585
12,130367,0.599996,-0.1586,-0.787144,0.6825,-4.0075,-4.375
13,130463,0.600484,-0.160796,-0.7869,1.1375,-3.535,-4.165
14,130559,0.6029241,-0.159332,-0.7834840000000001,1.575,-2.94,-4.0425
15,130655,0.604388,-0.159088,-0.7903161,1.8725,-2.415,-3.92
16,130752,0.6036560999999999,-0.164212,-0.7788480999999999,2.1,-1.89,-3.885
17,130848,0.599996,-0.155428,-0.77836,2.0475,-1.4875,-3.9375
18,130944,0.5948720000000001,-0.161528,-0.7766521,2.1875,-1.645,-3.885
19,131040,0.5968241,-0.16128399999999998,-0.777384,2.1175,-1.925,-3.6225
20,131137,0.59536,-0.16128399999999998,-0.773968,2.0125,-2.3275,-3.535
21,131233,0.5934081,-0.165432,-0.7732359999999999,1.8375,-2.7125,-3.605
22,131329,0.595604,-0.16201600000000002,-0.7766521,1.68,-2.905,-3.535
23,131425,0.5934081,-0.159088,-0.777872,1.5925,-3.1325,-3.5875
24,131522,0.59536,-0.159332,-0.776896,1.575,-3.185,-3.605
25,131618,0.594384,-0.159576,-0.777872,1.6975,-3.3075,-3.5525
26,131714,0.592432,-0.158356,-0.776896,1.89,-3.36,-3.43
27,131810,0.5980439999999999,-0.156648,-0.777628,2.03,-3.36,-3.395
28,131907,0.5968241,-0.159088,-0.777872,2.1525,-3.465,-3.2375
29,132003,0.60024,-0.160552,-0.781044,2.2575,-3.5,-3.0625
30,132099,0.6007279999999999,-0.160308,-0.7829961,2.5025,-3.4475,-3.1325
31,132195,0.60024,-0.157868,-0.778116,2.975,-3.3775,-3.22
32,132292,0.595604,-0.159332,-0.7793359999999999,3.255,-3.395,-3.1325
33,132388,0.601216,-0.16201600000000002,-0.777384,3.43,-3.36,-3.115
34,132484,0.599508,-0.16226,-0.777628,3.3425,-3.4825,-3.22
35,132580,0.596336,-0.163236,-0.7754321,3.1325,-3.5175,-3.255
36,132677,0.597068,-0.164944,-0.7732359999999999,2.8525,-3.6575,-3.3775
37,132773,0.59658,-0.166408,-0.774944,2.625,-3.7975,-3.3775
38,132869,0.59658,-0.1647,-0.7734800000000001,2.1875,-4.06,-3.535
39,132965,0.596092,-0.163724,-0.775676,1.89,-4.1475,-3.465
40,133062,0.599264,-0.16201600000000002,-0.776896,1.82,-4.375,-3.5525
41,133158,0.593896,-0.16226,-0.7754321,1.8375,-4.3925,-3.64
42,133254,0.5946279999999999,-0.16348,-0.776408,1.7675,-4.34,-3.675
43,133351,0.5946279999999999,-0.160308,-0.776896,1.8025,-4.4975,-3.64
44,133447,0.594384,-0.158112,-0.778604,1.9425,-4.34,-3.465
45,133543,0.5948720000000001,-0.1586,-0.779092,2.0825,-4.375,-3.395
46,133639,0.5997520000000001,-0.16201600000000002,-0.779092,2.0825,-4.48,-3.185
47,133736,0.598288,-0.159332,-0.7771399999999999,2.03,-4.6025,-2.9575
48,133832,0.599996,-0.159576,-0.776896,1.89,-4.76,-2.7475
49,133928,0.6009720000000001,-0.162748,-0.7761640999999999,1.645,-4.8475,-2.45
50,134024,0.601216,-0.162992,-0.777384,1.4,-4.8475,-2.345
51,134121,0.60024,-0.16348,-0.781044,1.4175,-4.8825,-2.2575
52,134217,0.5958479999999999,-0.163724,-0.7812880999999999,1.505,-4.8125,-2.415
53,134313,0.598288,-0.1647,-0.779824,1.61,-4.7075,-2.6425
54,134410,0.597068,-0.164212,-0.780556,1.61,-4.55,-2.8525
55,134506,0.597312,-0.163968,-0.781776,1.575,-4.4625,-2.94
56,134602,0.595604,-0.16226,-0.779824,1.5575,-4.2875,-3.0275
57,134698,0.5997520000000001,-0.164456,-0.7766521,1.61,-4.2525,-3.045
58,134795,0.5975560000000001,-0.16128399999999998,-0.780556,1.6275,-4.2,-3.045
59,134891,0.5975560000000001,-0.162504,-0.782508,1.6625,-4.1125,-3.1325
60,134987,0.5980439999999999,-0.164456,-0.7788480999999999,1.75,-3.92,-3.0625
61,135083,0.5980439999999999,-0.163724,-0.780312,1.82,-3.92,-3.045
62,135180,0.597312,-0.16201600000000002,-0.780312,1.8375,-3.8675,-3.08
63,135276,0.59658,-0.16348,-0.7788480999999999,1.8375,-3.7625,-3.0625
64,135372,0.597068,-0.169336,-0.7788480999999999,1.785,-3.8325,-3.185
65,135469,0.595116,-0.165676,-0.7788480999999999,1.7675,-3.8675,-3.4475
66,135565,0.5975560000000001,-0.163968,-0.777628,1.7675,-3.85,-3.5
67,135661,0.598532,-0.163724,-0.7793359999999999,1.6625,-3.745,-3.43
68,135757,0.598532,-0.164212,-0.777872,1.715,-3.7975,-3.395
69,135854,0.5997520000000001,-0.163968,-0.77836,1.68,-3.78,-3.3775
70,135950,0.599996,-0.162504,-0.780312,1.7675,-3.7625,-3.43
71,136046,0.59902,-0.162748,-0.7808001,1.7675,-3.745,-3.43
72,136142,0.5997520000000001,-0.162992,-0.7766521,1.82,-3.6575,-3.465
73,136239,0.5958479999999999,-0.165676,-0.776896,1.82,-3.6925,-3.465
74,136335,0.59902,-0.164456,-0.777628,1.785,-3.6925,-3.4825
75,136431,0.596092,-0.164212,-0.7795801,1.645,-3.71,-3.57
76,136527,0.595604,-0.164944,-0.781044,1.5925,-3.7275,-3.605
77,136624,0.593896,-0.164944,-0.7793359999999999,1.5575,-3.745,-3.71
78,136720,0.595116,-0.162992,-0.777384,1.5225,-3.78,-3.745
79,136816,0.5980439999999999,-0.163236,-0.77836,1.505,-3.6925,-3.7625
80,136913,0.598288,-0.163236,-0.7771399999999999,1.5225,-3.745,-3.745
81,137009,0.598288,-0.161528,-0.7795801,1.575,-3.78,-3.6575
82,137105,0.59902,-0.16201600000000002,-0.780556,1.6275,-3.7625,-3.64
83,137201,0.5987760999999999,-0.162748,-0.7793359999999999,1.75,-3.6925,-3.5
84,137298,0.599508,-0.16348,-0.778604,1.8375,-3.675,-3.465
85,137394,0.5978,-0.165432,-0.777384,1.8375,-3.71,-3.5175
86,137490,0.5975560000000001,-0.166164,-0.7766521,1.89,-3.605,-3.4825
87,137586,0.5948720000000001,-0.163724,-0.780556,1.855,-3.43,-3.5175
88,137683,0.5978,-0.166164,-0.7771399999999999,1.82,-3.36,-3.4825
89,137779,0.597068,-0.163724,-0.7788480999999999,1.75,-3.4825,-3.57
90,137875,0.598288,-0.16201600000000002,-0.7793359999999999,1.645,-3.36,-3.4825
91,137971,0.5975560000000001,-0.16226,-0.7793359999999999,1.4875,-3.255,-3.3425
92,138068,0.5978,-0.162504,-0.777872,1.33,-2.94,-3.115
93,138164,0.597312,-0.16811600000000002,-0.778604,1.1375,-2.8,-2.9575
94,138260,0.596092,-0.163724,-0.7793359999999999,0.9975,-3.045,-2.9925
95,138357,0.5980439999999999,-0.16226,-0.779824,0.9625,-3.1325,-3.1675
96,138453,0.598288,-0.165676,-0.777872,0.945,-3.1325,-3.22
97,138549,0.599508,-0.166164,-0.775188,1.05,-3.22,-3.4125
98,138645,0.5968241,-0.161772,-0.775676,1.1025,-3.36,-3.5175
99,138742,0.5997520000000001,-0.162992,-0.7793359999999999,1.085,-3.57,-3.71
100,138838,0.5975560000000001,-0.162992,-0.778116,1.1375,-3.6225,-3.6225
101,138934,0.601216,-0.16104000000000002,-0.7788480999999999,1.2075,-3.78,-3.675
102,139030,0.595116,-0.162992,-0.775188,1.2425,-3.8325,-3.675
103,139127,0.595116,-0.162504,-0.774944,1.4,-3.955,-3.6575
104,139223,0.5948720000000001,-0.165188,-0.7766521,1.505,-4.025,-3.6575
105,139319,0.596092,-0.163968,-0.7771399999999999,1.54,-4.095,-3.71
106,139415,0.5946279999999999,-0.163724,-0.7766521,1.5925,-4.165,-3.64
107,139512,0.5926760999999999,-0.16348,-0.774212,1.61,-4.2,-3.605
108,139608,0.592188,-0.162748,-0.777872,1.61,-4.2875,-3.64
109,139704,0.5987760999999999,-0.163968,-0.775676,1.61,-4.2875,-3.675
110,139801,0.59292,-0.162992,-0.774456,1.5575,-4.2175,-3.71
111,139897,0.5919439999999999,-0.162992,-0.774944,1.5575,-4.305,-3.675
112,139993,0.59658,-0.163236,-0.77836,1.4875,-4.2,-3.675
113,140089,0.59536,-0.160064,-0.7771399999999999,1.505,-4.27,-3.745
114,140186,0.596336,-0.16104000000000002,-0.7771399999999999,1.6625,-4.165,-3.675
115,140282,0.5958479999999999,-0.163724,-0.7793359999999999,1.75,-4.2175,-3.5525
116,140378,0.599508,-0.16226,-0.7788480999999999,1.9075,-4.2,-3.6575
117,140474,0.5978,-0.160552,-0.779092,1.89,-4.27,-3.64
118,140571,0.5978,-0.162504,-0.77836,1.925,-4.3575,-3.6225
119,140667,0.599996,-0.161772,-0.777384,1.925,-4.41,-3.57
120,140763,0.596092,-0.16104000000000002,-0.7771399999999999,1.82,-4.41,-3.5875
121,140860,0.599508,-0.163236,-0.779824,1.6975,-4.305,-3.57
122,140956,0.600484,-0.162504,-0.779824,1.61,-4.06,-3.605
123,141052,0.5997520000000001,-0.161772,-0.778116,1.575,-3.7975,-3.5
124,141148,0.5975560000000001,-0.16226,-0.783728,1.5925,-3.6925,-3.465
125,141245,0.5978,-0.160796,-0.780312,1.6275,-3.71,-3.535
126,141341,0.59658,-0.161772,-0.779092,1.6625,-3.7625,-3.5875
127,141437,0.595116,-0.16201600000000002,-0.780556,1.6275,-3.7275,-3.6225
128,141533,0.598532,-0.163236,-0.7766521,1.6275,-3.7625,-3.675
129,141630,0.59536,-0.159332,-0.7771399999999999,1.5575,-3.675,-3.7275
130,141726,0.5975560000000001,-0.16128399999999998,-0.780312,1.61,-3.7975,-3.7625
131,141822,0.5978,-0.163236,-0.7793359999999999,1.5925,-3.78,-3.815
132,141918,0.597068,-0.161772,-0.778604,1.645,-3.71,-3.7975
133,142015,0.595116,-0.160796,-0.778604,1.61,-3.675,-3.7275
134,142111,0.596092,-0.161772,-0.777384,1.6625,-3.6225,-3.6925
135,142207,0.5980439999999999,-0.16104000000000002,-0.7795801,1.68,-3.64,-3.5875
136,142303,0.595116,-0.1586,-0.7788480999999999,1.8025,-3.6575,-3.57
137,142400,0.598288,-0.16128399999999998,-0.7788480999999999,1.8025,-3.605,-3.43
138,142496,0.596092,-0.166164,-0.7771399999999999,1.715,-3.605,-3.4475
139,142592,0.597068,-0.166652,-0.775188,1.6275,-3.7625,-3.5875
140,142688,0.5941401,-0.165188,-0.774212,1.575,-3.8325,-3.7275
141,142785,0.5948720000000001,-0.16348,-0.776896,1.4175,-3.9375,-3.8675
142,142881,0.593164,-0.1647,-0.7759199999999999,1.3125,-3.9025,-3.92
143,142977,0.5934081,-0.16226,-0.774944,1.155,-4.025,-4.095
144,143074,0.5958479999999999,-0.16226,-0.779092,1.1725,-4.095,-4.0775
145,143170,0.5968241,-0.161772,-0.778116,1.19,-4.13,-4.025
146,143266,0.5941401,-0.16104000000000002,-0.7761640999999999,1.26,-4.1475,-4.095
147,143362,0.596092,-0.161528,-0.778116,1.295,-4.095,-4.0075
148,143459,0.595604,-0.16201600000000002,-0.777872,1.3475,-4.095,-4.0075
149,143555,0.59902,-0.160796,-0.7812880999999999,1.3825,-4.1125,-3.955
150,143651,0.595604,-0.15982000000000002,-0.777872,1.3125,-4.0425,-3.99
151,143747,0.5980439999999999,-0.16128399999999998,-0.778604,1.33,-3.9375,-3.8675
152,143844,0.59902,-0.159332,-0.779824,1.4,-3.955,-3.7625
153,143940,0.59902,-0.160796,-0.780068,1.435,-3.9025,-3.7975
154,144036,0.595604,-0.160308,-0.778116,1.61,-3.7975,-3.6225
155,144132,0.5968241,-0.160308,-0.7793359999999999,1.715,-3.71,-3.6575
156,144229,0.5980439999999999,-0.16128399999999998,-0.77836,1.7675,-3.57,-3.605
157,144325,0.596092,-0.158356,-0.7788480999999999,1.8375,-3.5,-3.6225
158,144421,0.596092,-0.159576,-0.77836,1.96,-3.325,-3.57
159,144517,0.5975560000000001,-0.16226,-0.7795801,1.925,-3.4125,-3.535
160,144614,0.595116,-0.1586,-0.7793359999999999,1.925,-3.3425,-3.535
161,144710,0.6007279999999999,-0.15982000000000002,-0.780312,1.995,-3.1675,-3.6575
162,144806,0.597312,-0.16104000000000002,-0.777628,2.03,-3.22,-3.6575
163,144903,0.5978,-0.158356,-0.7759199999999999,2.0125,-3.22,-3.5
164,144999,0.5978,-0.160064,-0.7766521,2.0125,-3.29,-3.4825
165,145095,0.59658,-0.161772,-0.777384,1.96,-3.36,-3.4825
166,145191,0.5958479999999999,-0.16226,-0.775676,1.89,-3.43,-3.4475
167,145288,0.5948720000000001,-0.15982000000000002,-0.777872,1.89,-3.4125,-3.325
168,145384,0.5968241,-0.161772,-0.778604,1.89,-3.5525,-3.3075
169,145480,0.595604,-0.16128399999999998,-0.7754321,1.8725,-3.5875,-3.2025
170,145577,0.597068,-0.161528,-0.776896,1.8725,-3.535,-3.22
171,145673,0.59536,-0.158356,-0.778604,1.8375,-3.5875,-3.29
172,145769,0.5978,-0.160796,-0.777628,1.8725,-3.5875,-3.22
173,145865,0.5975560000000001,-0.16226,-0.77836,1.7675,-3.71,-3.255
174,145962,0.5968241,-0.16104000000000002,-0.7766521,1.7675,-3.6925,-3.15
175,146058,0.597068,-0.1586,-0.775188,1.7675,-3.7975,-3.2375
176,146154,0.597312,-0.158844,-0.7761640999999999,1.715,-3.8325,-3.1675
177,146250,0.595604,-0.16201600000000002,-0.777872,1.715,-3.85,-3.0975
178,146347,0.5978,-0.161772,-0.7788480999999999,1.6625,-3.9375,-3.185
179,146443,0.597068,-0.16104000000000002,-0.77836,1.6625,-3.9375,-3.2375
180,146539,0.596092,-0.16226,-0.7795801,1.61,-3.8675,-3.325
181,146636,0.5958479999999999,-0.16201600000000002,-0.7761640999999999,1.6625,-3.9375,-3.29
182,146732,0.596336,-0.163236,-0.7788480999999999,1.7325,-4.025,-3.2725
183,146828,0.598288,-0.162504,-0.77836,1.8375,-3.9375,-3.3425
184,146924,0.596336,-0.16226,-0.7788480999999999,1.855,-3.6575,-3.4125
185,147021,0.598288,-0.160796,-0.777872,1.6975,-3.57,-3.4825
186,147117,0.597068,-0.160308,-0.779092,1.6975,-3.5175,-3.4825
187,147213,0.596336,-0.162504,-0.7766521,1.6625,-3.4825,-3.4825
188,147310,0.5978,-0.162504,-0.777872,1.68,-3.5,-3.5
189,147406,0.5968241,-0.16201600000000002,-0.77836,1.6625,-3.5,-3.5175
190,147502,0.5978,-0.162992,-0.7788480999999999,1.6975,-3.535,-3.5175
191,147598,0.59536,-0.160796,-0.776408,1.645,-3.5,-3.57
192,147695,0.598288,-0.161772,-0.7795801,1.505,-3.5,-3.64
193,147791,0.5978,-0.160308,-0.77836,1.47,-3.5875,-3.6575
194,147887,0.5978,-0.160796,-0.778604,1.5575,-3.7275,-3.535
195,147983,0.596336,-0.162504,-0.776896,1.3825,-3.71,-3.5525
196,148080,0.597312,-0.160796,-0.776896,1.3475,-3.78,-3.6575
197,148176,0.594384,-0.16226,-0.773968,1.3125,-3.885,-3.64
198,148272,0.593164,-0.162504,-0.775676,1.3475,-3.7975,-3.5875
199,148369,0.592432,-0.16348,-0.774944,1.3125,-3.7625,-3.7275
200,148465,0.594384,-0.16104000000000002,-0.776408,1.4175,-3.745,-3.7625
201,148561,0.596336,-0.160552,-0.7761640999999999,1.295,-3.745,-3.6925
202,148657,0.597068,-0.15738,-0.77836,1.365,-3.6925,-3.6225
203,148754,0.596092,-0.160552,-0.777628,1.505,-3.71,-3.535
204,148850,0.5958479999999999,-0.159088,-0.777872,1.68,-3.6925,-3.5175
205,148946,0.5980439999999999,-0.159088,-0.775676,1.6275,-3.64,-3.5
206,149042,0.5968241,-0.161528,-0.77836,1.5925,-3.7275,-3.4475
207,149139,0.594384,-0.163236,-0.776408,1.61,-3.745,-3.605
208,149235,0.595116,-0.16348,-0.7766521,1.575,-3.8675,-3.64
209,149331,0.5958479999999999,-0.160796,-0.776896,1.5575,-3.7625,-3.675
210,149428,0.5975560000000001,-0.159576,-0.7795801,1.575,-3.7975,-3.675
211,149524,0.5958479999999999,-0.158356,-0.7759199999999999,1.68,-3.675,-3.64
212,149620,0.5975560000000001,-0.160552,-0.776896,1.8025,-3.71,-3.535
213,149716,0.5978,-0.158112,-0.7759199999999999,1.75,-3.5875,-3.57
214,149813,0.597068,-0.159576,-0.7759199999999999,1.8025,-3.6575,-3.5875
215,149909,0.598532,-0.16201600000000002,-0.779824,1.82,-3.6925,-3.4825
216,150005,0.59902,-0.159332,-0.7771399999999999,1.89,-3.6225,-3.5
217,150101,0.598532,-0.160796,-0.778604,1.925,-3.71,-3.535
218,150198,0.5987760999999999,-0.15738,-0.7771399999999999,2.03,-3.6925,-3.5
219,150294,0.59658,-0.161772,-0.7761640999999999,2.0125,-3.5875,-3.5
220,150390,0.5978,-0.162992,-0.777872,1.96,-3.6925,-3.4125
221,150487,0.5987760999999999,-0.160552,-0.77836,1.9425,-3.675,-3.535
222,150583,0.596092,-0.162992,-0.7771399999999999,1.855,-3.535,-3.5875
223,150679,0.5948720000000001,-0.160064,-0.776896,1.96,-3.6225,-3.5875
224,150775,0.5968241,-0.162748,-0.7766521,1.9425,-3.6575,-3.5525
225,150872,0.597312,-0.16128399999999998,-0.776896,1.8375,-3.6575,-3.5525
226,150968,0.5980439999999999,-0.160552,-0.777384,1.855,-3.71,-3.57
227,151064,0.5980439999999999,-0.159088,-0.7766521,1.8025,-3.7275,-3.5175
228,151160,0.5975560000000001,-0.159576,-0.7771399999999999,1.75,-3.71,-3.4825
229,151257,0.5987760999999999,-0.158356,-0.7754321,1.855,-3.78,-3.465
230,151353,0.5968241,-0.161772,-0.778116,1.75,-3.7975,-3.5175
231,151449,0.5948720000000001,-0.160796,-0.777872,1.7325,-3.745,-3.4475
232,151545,0.5958479999999999,-0.16128399999999998,-0.7771399999999999,1.6975,-3.71,-3.57
233,151642,0.5958479999999999,-0.16104000000000002,-0.7761640999999999,1.6975,-3.815,-3.605
234,151738,0.596092,-0.16104000000000002,-0.776896,1.6275,-3.815,-3.6225
235,151834,0.597068,-0.158844,-0.775676,1.68,-3.8325,-3.64
236,151930,0.598532,-0.159088,-0.774456,1.7675,-3.815,-3.465
237,152027,0.597068,-0.16226,-0.7771399999999999,1.7325,-3.8325,-3.535
238,152123,0.597068,-0.161528,-0.7771399999999999,1.6975,-3.9025,-3.5175
239,152219,0.595604,-0.16226,-0.7766521,1.645,-3.92,-3.465
240,152316,0.595604,-0.161528,-0.777384,1.61,-3.8675,-3.5525
241,152412,0.597068,-0.16201600000000002,-0.777872,1.61,-3.85,-3.535
242,152508,0.59658,-0.160552,-0.777384,1.5575,-3.8325,-3.57
243,152604,0.597068,-0.160308,-0.7766521,1.54,-3.815,-3.5525
244,152701,0.59536,-0.160308,-0.776896,1.6275,-3.8325,-3.5875
245,152797,0.5941401,-0.160796,-0.774944,1.5925,-3.8325,-3.535
246,152893,0.596092,-0.160308,-0.7761640999999999,1.6275,-3.8675,-3.4125
247,152989,0.5978,-0.159332,-0.7771399999999999,1.715,-3.815,-3.3775
248,153086,0.59658,-0.16104000000000002,-0.7754321,1.68,-3.8675,-3.3775
249,153182,0.5980439999999999,-0.161772,-0.7793359999999999,1.715,-3.85,-3.36
250,153278,0.5968241,-0.160796,-0.777872,1.75,-3.815,-3.465
251,153374,0.597068,-0.159088,-0.775676,1.7325,-3.745,-3.395
252,153471,0.598532,-0.15982000000000002,-0.777384,1.68,-3.815,-3.395
253,153567,0.597312,-0.159576,-0.7766521,1.785,-3.85,-3.255
254,153663,0.598288,-0.16128399999999998,-0.778116,1.8375,-3.7625,-3.1675
255,153760,0.59658,-0.16104000000000002,-0.777872,1.89,-3.745,-3.115
256,153856,0.598288,-0.160796,-0.77836,2.03,-3.7275,-3.1675
257,153952,0.5978,-0.160796,-0.77836,1.96,-3.955,-3.2025
258,154048,0.597312,-0.16226,-0.7788480999999999,1.925,-3.85,-3.3775
259,154145,0.5975560000000001,-0.160552,-0.7766521,1.82,-3.885,-3.2725
260,154241,0.59658,-0.160308,-0.775188,1.82,-3.955,-3.22
261,154337,0.5980439999999999,-0.159332,-0.774944,1.785,-3.955,-3.1675
262,154433,0.596092,-0.16226,-0.7771399999999999,1.7675,-4.0425,-3.0975
263,154530,0.595604,-0.16226,-0.775676,1.8025,-4.165,-3.22
264,154626,0.5936520000000001,-0.161772,-0.774944,1.75,-4.1125,-3.2725
265,154722,0.5948720000000001,-0.162748,-0.774944,1.68,-4.06,-3.3075
266,154819,0.5946279999999999,-0.162748,-0.776896,1.6975,-4.025,-3.325
267,154915,0.59536,-0.161772,-0.7771399999999999,1.6275,-4.025,-3.395
268,155011,0.5948720000000001,-0.160796,-0.7771399999999999,1.68,-4.0425,-3.3425
269,155107,0.5980439999999999,-0.162504,-0.778604,1.6625,-3.99,-3.3075
270,155204,0.597068,-0.160796,-0.7766521,1.6625,-3.955,-3.3075
271,155300,0.5936520000000001,-0.161772,-0.7759199999999999,1.6275,-3.8675,-3.465
272,155396,0.59292,-0.162748,-0.776408,1.6625,-3.78,-3.4125
273,155492,0.593896,-0.16226,-0.7766521,1.5925,-3.885,-3.5175
274,155589,0.59292,-0.164944,-0.7747001,1.645,-3.78,-3.5875
275,155685,0.595116,-0.160552,-0.7771399999999999,1.61,-3.85,-3.535
276,155781,0.592432,-0.161772,-0.7754321,1.54,-3.9025,-3.57
277,155877,0.595116,-0.16201600000000002,-0.776408,1.4875,-3.8325,-3.57
278,155974,0.5978,-0.16201600000000002,-0.77836,1.54,-3.8325,-3.535
279,156070,0.59536,-0.161772,-0.7771399999999999,1.505,-3.815,-3.64
280,156166,0.5948720000000001,-0.160552,-0.7771399999999999,1.54,-3.7975,-3.675
281,156263,0.5941401,-0.162748,-0.7747001,1.505,-3.815,-3.605
282,156359,0.5958479999999999,-0.160064,-0.7771399999999999,1.5225,-3.78,-3.605
283,156455,0.596336,-0.161772,-0.7766521,1.6275,-3.675,-3.675
284,156551,0.597068,-0.160796,-0.7766521,1.6275,-3.6925,-3.535
285,156648,0.595604,-0.1586,-0.778604,1.645,-3.6575,-3.535
286,156744,0.599508,-0.160308,-0.7788480999999999,1.6975,-3.64,-3.465
287,156840,0.597312,-0.162748,-0.777384,1.75,-3.675,-3.57
288,156936,0.5968241,-0.160796,-0.77836,1.7325,-3.71,-3.5525
289,157033,0.596336,-0.160552,-0.7754321,1.61,-3.6575,-3.5
290,157129,0.597068,-0.160796,-0.7761640999999999,1.645,-3.7275,-3.535
291,157225,0.59658,-0.161528,-0.776408,1.6625,-3.85,-3.5175
292,157322,0.5948720000000001,-0.15982000000000002,-0.776408,1.6975,-3.7625,-3.5525
293,157418,0.595116,-0.162504,-0.774456,1.61,-3.7625,-3.4475
294,157514,0.5958479999999999,-0.160552,-0.7766521,1.6275,-3.7975,-3.5175
295,157610,0.5946279999999999,-0.160308,-0.777384,1.54,-3.6925,-3.4825
296,157707,0.5968241,-0.161772,-0.778604,1.5925,-3.6925,-3.5525
297,157803,0.5978,-0.1586,-0.7766521,1.68,-3.7275,-3.535
298,157899,0.5968241,-0.161528,-0.777628,1.7325,-3.745,-3.5
299,157995,0.59902,-0.16128399999999998,-0.779824,1.7325,-3.675,-3.395
300,158092,0.594384,-0.158844,-0.777872,1.715,-3.6925,-3.4475
301,158188,0.59658,-0.160796,-0.776408,1.68,-3.5,-3.3775
302,158284,0.59536,-0.162504,-0.7759199999999999,1.715,-3.4475,-3.255
303,158381,0.5958479999999999,-0.16128399999999998,-0.777384,1.6625,-3.4475,-3.29
304,158477,0.59536,-0.160552,-0.775676,1.68,-3.4825,-3.255
305,158573,0.5968241,-0.16128399999999998,-0.778116,1.7325,-3.5525,-3.255
306,158669,0.597312,-0.160796,-0.775188,1.645,-3.5175,-3.15
307,158766,0.59658,-0.161772,-0.778116,1.6975,-3.6575,-3.22
308,158862,0.597068,-0.160796,-0.7759199999999999,1.7675,-3.6225,-3.325
309,158958,0.596092,-0.16348,-0.774944,1.7675,-3.7625,-3.3425
310,159054,0.597068,-0.16226,-0.777384,1.68,-3.6925,-3.3425
311,159151,0.596092,-0.161772,-0.774456,1.6275,-3.815,-3.4125
312,159247,0.595116,-0.162748,-0.7761640999999999,1.54,-3.7975,-3.5
313,159343,0.596336,-0.15982000000000002,-0.776896,1.4875,-3.9725,-3.605
314,159440,0.5948720000000001,-0.16201600000000002,-0.774944,1.3825,-3.955,-3.7275
315,159536,0.5946279999999999,-0.16104000000000002,-0.7761640999999999,1.3825,-4.06,-3.64
316,159632,0.594384,-0.161528,-0.777384,1.365,-4.0425,-3.6925
317,159728,0.5958479999999999,-0.16104000000000002,-0.7766521,1.3125,-4.0425,-3.745
318,159825,0.594384,-0.160796,-0.7771399999999999,1.3475,-4.165,-3.7625
319,159921,0.595116,-0.16201600000000002,-0.7754321,1.365,-4.0425,-3.78
320,160017,0.595116,-0.160796,-0.7771399999999999,1.33,-4.06,-3.8325
321,160113,0.59536,-0.16104000000000002,-0.777872,1.435,-4.0425,-3.78
322,160210,0.5946279999999999,-0.159576,-0.777628,1.4175,-3.92,-3.815
323,160306,0.596092,-0.158112,-0.77836,1.4525,-3.99,-3.7625
324,160402,0.597068,-0.158356,-0.7771399999999999,1.505,-3.955,-3.78
325,160499,0.595116,-0.160308,-0.7761640999999999,1.54,-3.9025,-3.6575
326,160595,0.59658,-0.160064,-0.7766521,1.5925,-3.85,-3.605
327,160691,0.5946279999999999,-0.159088,-0.778604,1.61,-3.7975,-3.5
328,160787,0.595604,-0.15982000000000002,-0.77836,1.6625,-3.815,-3.535
329,160884,0.5968241,-0.160064,-0.7754321,1.6625,-3.8325,-3.5875
330,160980,0.5936520000000001,-0.16348,-0.7761640999999999,1.6975,-3.7275,-3.5
331,161076,0.594384,-0.16226,-0.7766521,1.6275,-3.7275,-3.535
332,161172,0.59658,-0.158112,-0.777628,1.6625,-3.675,-3.605
333,161269,0.59536,-0.158844,-0.7771399999999999,1.75,-3.5525,-3.605
334,161365,0.5948720000000001,-0.1647,-0.7754321,1.8375,-3.5175,-3.5875
335,161461,0.595604,-0.161772,-0.778116,1.785,-3.4475,-3.6225
336,161557,0.596336,-0.157136,-0.7795801,1.68,-3.5875,-3.6925
337,161654,0.599996,-0.160552,-0.779092,1.8025,-3.4825,-3.5875
338,161750,0.59902,-0.15762400000000001,-0.7766521,1.855,-3.3775,-3.5
339,161846,0.5978,-0.156648,-0.777384,1.96,-3.43,-3.5
340,161943,0.5968241,-0.159332,-0.7771399999999999,1.9075,-3.43,-3.5
341,162039,0.596336,-0.159332,-0.7771399999999999,1.9075,-3.465,-3.4125
342,162135,0.5958479999999999,-0.16226,-0.777384,1.9075,-3.57,-3.4475
343,162231,0.597068,-0.159088,-0.7754321,1.8725,-3.535,-3.4825
344,162328,0.595604,-0.15982000000000002,-0.777384,1.96,-3.5525,-3.3775
345,162424,0.597312,-0.16201600000000002,-0.777384,1.9425,-3.5875,-3.3425
346,162520,0.5958479999999999,-0.159576,-0.777872,1.9425,-3.6225,-3.3775
347,162617,0.5987760999999999,-0.1586,-0.774944,2.0125,-3.6225,-3.4125
348,162713,0.596336,-0.16104000000000002,-0.777628,1.9425,-3.5525,-3.3425
349,162809,0.5978,-0.16104000000000002,-0.777628,1.7675,-3.57,-3.2725
350,162905,0.5975560000000001,-0.16201600000000002,-0.777872,1.8375,-3.64,-3.325
351,163002,0.594384,-0.160796,-0.7761640999999999,1.8725,-3.7275,-3.36
352,163098,0.59536,-0.16226,-0.7766521,1.855,-3.7275,-3.325
353,163194,0.596336,-0.162992,-0.776896,1.7675,-3.7625,-3.325
354,163290,0.596092,-0.162748,-0.7771399999999999,1.645,-3.745,-3.395
355,163387,0.59658,-0.161528,-0.776408,1.68,-3.745,-3.3775
356,163483,0.5975560000000001,-0.160552,-0.777384,1.7325,-3.675,-3.325
357,163579,0.59536,-0.161772,-0.776896,1.6975,-3.7625,-3.4125
358,163676,0.5975560000000001,-0.16128399999999998,-0.778116,1.5925,-3.8325,-3.395
359,163772,0.5958479999999999,-0.162504,-0.7759199999999999,1.6275,-3.815,-3.36
360,163868,0.5968241,-0.16201600000000002,-0.776408,1.645,-3.7625,-3.2725
361,163964,0.597312,-0.162748,-0.7795801,1.6625,-3.8325,-3.36
362,164061,0.5978,-0.161772,-0.777872,1.5925,-3.78,-3.325
363,164157,0.597312,-0.16201600000000002,-0.777872,1.6275,-3.92,-3.4125
364,164253,0.595604,-0.161772,-0.776896,1.5925,-3.7275,-3.36
365,164349,0.596092,-0.163724,-0.778116,1.5575,-3.675,-3.2725
366,164446,0.596092,-0.162992,-0.7771399999999999,1.505,-3.6925,-3.3075
367,164542,0.5958479999999999,-0.160064,-0.777384,1.4525,-3.9025,-3.3775
368,164638,0.5975560000000001,-0.16128399999999998,-0.776408,1.4875,-4.025,-3.395
369,164734,0.599508,-0.160796,-0.779092,1.5225,-3.9025,-3.255
370,164831,0.597068,-0.158844,-0.776408,1.5925,-3.9025,-3.22
371,164927,0.596336,-0.160796,-0.776408,1.6625,-3.92,-3.2025
372,165023,0.5958479999999999,-0.160796,-0.774456,1.645,-3.9725,-3.1325
373,165120,0.5975560000000001,-0.16226,-0.7766521,1.6275,-3.99,-3.08
374,165216,0.596092,-0.160796,-0.776408,1.645,-3.885,-2.9925
375,165312,0.59658,-0.163724,-0.7766521,1.5925,-4.025,-3.01
376,165408,0.596336,-0.161772,-0.77836,1.645,-4.0075,-3.0625
377,165505,0.59536,-0.165188,-0.7754321,1.5925,-4.025,-3.2025
378,165601,0.595116,-0.16201600000000002,-0.776896,1.5575,-4.095,-3.3425
379,165697,0.594384,-0.159332,-0.778604,1.47,-3.9725,-3.395
380,165793,0.594384,-0.161772,-0.776408,1.5575,-3.9375,-3.3075
381,165890,0.5980439999999999,-0.160552,-0.77836,1.54,-4.025,-3.4125
382,165986,0.59536,-0.158112,-0.7795801,1.5575,-3.92,-3.395
383,166082,0.59658,-0.158356,-0.7795801,1.505,-3.9725,-3.5
384,166179,0.597068,-0.160552,-0.777872,1.5225,-4.0075,-3.5
385,166275,0.5975560000000001,-0.158112,-0.7759199999999999,1.5575,-4.0075,-3.535
386,166371,0.596336,-0.15738,-0.777872,1.5575,-3.9725,-3.5175
387,166467,0.596092,-0.16348,-0.776896,1.715,-3.955,-3.4475
388,166564,0.5958479999999999,-0.158844,-0.777872,1.715,-3.9025,-3.43
389,166660,0.597068,-0.16104000000000002,-0.779824,1.6975,-3.885,-3.4475
390,166756,0.5958479999999999,-0.16104000000000002,-0.777384,1.645,-3.7975,-3.4825
391,166852,0.5941401,-0.159332,-0.780068,1.7325,-3.7975,-3.4825
392,166949,0.5980439999999999,-0.160308,-0.779092,1.89,-3.7625,-3.4825
393,167045,0.59536,-0.15738,-0.780068,1.995,-3.6925,-3.36
394,167141,0.5978,-0.159088,-0.7759199999999999,2.0825,-3.6225,-3.2025
395,167238,0.595604,-0.158844,-0.776896,2.2575,-3.605,-3.1325
396,167334,0.596092,-0.160308,-0.779092,2.31,-3.5175,-3.115
397,167430,0.5968241,-0.160796,-0.7771399999999999,2.415,-3.4125,-2.9925
398,167526,0.5975560000000001,-0.161528,-0.7788480999999999,2.415,-3.535,-2.9575
399,167623,0.598288,-0.158844,-0.7788480999999999,2.4675,-3.4825,-2.975
400,167719,0.595604,-0.15982000000000002,-0.777628,2.485,-3.535,-2.87
401,167815,0.596092,-0.160064,-0.778116,2.485,-3.5175,-2.8175
402,167911,0.5975560000000001,-0.163236,-0.778116,2.59,-3.3775,-2.6775
403,168008,0.597068,-0.160308,-0.779824,2.695,-3.2025,-2.765
404,168104,0.59658,-0.162504,-0.781776,2.8875,-2.9925,-2.765
405,168200,0.594384,-0.16592,-0.774212,3.08,-2.415,-2.7125
406,168296,0.598532,-0.16201600000000002,-0.776896,3.0975,-2.24,-2.9225
407,168393,0.598288,-0.163968,-0.7808001,3.15,-2.415,-3.1675
408,168489,0.598288,-0.164212,-0.7771399999999999,3.325,-2.31,-3.29
409,168585,0.599996,-0.165432,-0.776408,3.325,-2.275,-3.4825
410,168681,0.60024,-0.164212,-0.7759199999999999,3.3075,-2.2575,-3.6225
411,168778,0.599996,-0.16835999999999998,-0.7732359999999999,3.0625,-2.135,-3.57
412,168874,0.59536,-0.162992,-0.771528,2.6425,-2.205,-3.605
413,168970,0.60024,-0.16128399999999998,-0.7700640999999999,2.345,-2.3275,-3.5875
414,169067,0.597068,-0.15982000000000002,-0.774944,2.3975,-2.3975,-3.2375
415,169163,0.5978,-0.16201600000000002,-0.772992,2.5375,-2.52,-2.905
416,169259,0.595116,-0.15982000000000002,-0.775188,2.66,-2.6075,-2.625
417,169355,0.597068,-0.16226,-0.772748,2.87,-2.6775,-2.345
418,169452,0.598288,-0.164944,-0.7712840999999999,2.9925,-2.6075,-2.1525
419,169548,0.5987760999999999,-0.16104000000000002,-0.773968,2.975,-2.87,-2.0475
420,169644,0.599996,-0.166408,-0.773968,2.975,-2.87,-1.995
421,169740,0.597312,-0.164944,-0.7747001,2.905,-3.0975,-2.135
422,169837,0.600484,-0.170312,-0.772992,2.6775,-3.115,-2.1
423,169933,0.6009720000000001,-0.171532,-0.77104,2.5375,-3.29,-2.2925
424,170029,0.6007279999999999,-0.168848,-0.7712840999999999,2.2575,-3.4125,-2.45
425,170126,0.60146,-0.16958,-0.771528,1.9425,-3.535,-2.66
426,170222,0.5997520000000001,-0.166164,-0.774944,1.82,-3.5875,-2.8875
427,170318,0.600484,-0.166652,-0.777384,1.6975,-3.7625,-2.905
428,170414,0.60146,-0.165676,-0.7771399999999999,1.47,-3.64,-2.9225
429,170511,0.60024,-0.16811600000000002,-0.7747001,1.5225,-3.325,-2.9925
430,170607,0.598532,-0.172264,-0.7734800000000001,1.645,-3.3425,-3.115
431,170703,0.6009720000000001,-0.170312,-0.774456,1.7325,-3.08,-3.395
432,170799,0.5978,-0.168848,-0.7754321,1.7675,-2.94,-3.6225
433,170896,0.5987760999999999,-0.167384,-0.777872,1.575,-2.9925,-3.675
434,170992,0.598288,-0.16714,-0.770308,1.5575,-3.1325,-3.6925
435,171088,0.599508,-0.163724,-0.769576,1.5225,-3.255,-3.675
436,171185,0.597312,-0.164456,-0.7734800000000001,1.54,-3.43,-3.535
437,171281,0.598288,-0.163236,-0.769332,1.54,-3.57,-3.535
438,171377,0.596092,-0.165188,-0.7700640999999999,1.61,-3.675,-3.4825
439,171473,0.599996,-0.16592,-0.772504,1.715,-3.71,-3.4825
440,171570,0.60268,-0.166164,-0.771528,1.7675,-3.85,-3.325
441,171666,0.598288,-0.165676,-0.772992,1.785,-3.955,-3.255
442,171762,0.5997520000000001,-0.166652,-0.772748,1.82,-3.745,-3.185
443,171858,0.60024,-0.167384,-0.771528,1.855,-3.92,-3.15
444,171955,0.5975560000000001,-0.166408,-0.7707961,1.82,-3.955,-3.0625
445,172051,0.6009720000000001,-0.169336,-0.772504,1.9775,-3.9375,-3.0275
446,172147,0.5997520000000001,-0.167384,-0.771528,1.9775,-4.0075,-3.0625
447,172244,0.598532,-0.16689600000000002,-0.774456,1.855,-4.165,-3.1675
448,172340,0.5997520000000001,-0.16909200000000002,-0.7722600000000001,1.6975,-4.3225,-3.2025
449,172436,0.6007279999999999,-0.167628,-0.7734800000000001,1.645,-4.3925,-3.2375
450,172532,0.6029241,-0.167872,-0.7771399999999999,1.61,-4.4275,-3.4125
451,172629,0.601704,-0.166652,-0.777628,1.5225,-4.025,-3.4475
452,172725,0.6007279999999999,-0.16592,-0.777628,1.435,-3.745,-3.43
453,172821,0.5987760999999999,-0.169824,-0.7754321,1.4175,-3.57,-3.4475
454,172917,0.600484,-0.163968,-0.7761640999999999,1.3125,-3.3425,-3.4825
455,173014,0.5997520000000001,-0.16909200000000002,-0.775676,1.295,-3.22,-3.3425
456,173110,0.5987760999999999,-0.1708,-0.7734800000000001,1.225,-3.325,-3.3075
457,173206,0.60024,-0.16689600000000002,-0.7766521,0.8925,-3.115,-3.465
458,173303,0.60024,-0.16909200000000002,-0.774456,0.735,-3.2375,-3.5175
459,173399,0.599508,-0.17128800000000002,-0.773724,0.5775,-3.4475,-3.64
460,173495,0.600484,-0.16714,-0.773968,0.4725,-3.5525,-3.885
461,173591,0.60268,-0.1708,-0.7722600000000001,0.35,-3.6225,-4.1475
462,173688,0.5987760999999999,-0.167628,-0.774212,0.21,-3.8675,-4.375
463,173784,0.5987760999999999,-0.16835999999999998,-0.771528,-0.0175,-3.9725,-4.62
464,173880,0.6009720000000001,-0.16714,-0.772992,-0.105,-4.0775,-4.83
465,173976,0.604632,-0.166652,-0.774456,-0.2625,-4.13,-4.9525
466,174073,0.601704,-0.167872,-0.773968,-0.2975,-4.095,-5.04
467,174169,0.59658,-0.163236,-0.774212,-0.245,-4.1825,-5.075
468,174265,0.5980439999999999,-0.164212,-0.771772,-0.35,-4.3225,-5.1625
469,174361,0.5980439999999999,-0.161528,-0.774456,-0.3325,-4.375,-5.3025
470,174458,0.5968241,-0.158356,-0.77104,-0.245,-4.4275,-5.2325
471,174554,0.595116,-0.158356,-0.7761640999999999,0.035,-4.4975,-4.935
472,174650,0.599996,-0.158112,-0.7734800000000001,0.4725,-4.515,-4.655
473,174746,0.5958479999999999,-0.155916,-0.776896,0.77,-4.4625,-4.655
474,174843,0.5968241,-0.15616,-0.774944,1.0325,-4.3925,-4.375
475,174939,0.59658,-0.155916,-0.7747001,1.295,-4.375,-4.0775
476,175035,0.597068,-0.158844,-0.775188,1.435,-4.1825,-3.8325
477,175132,0.596092,-0.155916,-0.7761640999999999,1.68,-3.955,-3.6225
478,175228,0.596092,-0.159576,-0.775188,2.03,-3.745,-3.3075
479,175324,0.597312,-0.159088,-0.774944,2.205,-3.745,-3.15
480,175420,0.595604,-0.158356,-0.773968,2.38,-3.7275,-3.115
481,175517,0.5914560000000001,-0.15762400000000001,-0.772992,2.8,-3.815,-2.7475
482,175613,0.587064,-0.155916,-0.772992,3.36,-3.5875,-2.45
483,175709,0.587796,-0.15201199999999998,-0.775188,4.1125,-3.22,-2.0125
484,175805,0.5838920999999999,-0.155672,-0.772992,4.865,-2.6075,-1.505
485,175902,0.580232,-0.15396400000000002,-0.7754321,5.705,-2.1875,-0.8575
486,175998,0.5914560000000001,-0.170312,-0.779824,6.3175,-1.54,-0.315
487,176094,0.60878,-0.161528,-0.7747001,6.5275,-0.9975,-0.2975
488,176191,0.607316,-0.163968,-0.780068,6.4925,-1.0675,-0.0875
489,176287,0.616588,-0.16104000000000002,-0.7722600000000001,6.7025,-0.8225,0.385
490,176383,0.6170760000000001,-0.171776,-0.767624,7.0525,-0.7525,0.7875
491,176479,0.620736,-0.165676,-0.772504,6.86,-1.12,0.9975
492,176576,0.61488,-0.177876,-0.7732359999999999,6.545,-1.3125,0.9975
493,176672,0.605364,-0.170068,-0.771528,6.16,-1.82,0.9275
494,176768,0.6117081,-0.187636,-0.770308,6.0025,-1.5575,0.3675
495,176865,0.6036560999999999,-0.185928,-0.765672,5.39,-2.0825,-0.2625
496,176961,0.5797441,-0.189832,-0.781532,4.865,-2.17,-0.63
497,177057,0.62464,-0.183732,-0.76372,4.2,-2.1875,-0.9975
498,177153,0.6019479999999999,-0.182756,-0.772504,4.025,-2.5375,-1.6275
499,177250,0.609024,-0.18251199999999998,-0.772748,3.3425,-2.7825,-2.2225
500,177346,0.60268,-0.185684,-0.7686,2.7125,-2.9925,-2.8175
501,177442,0.6058520000000001,-0.182268,-0.7700640999999999,2.1175,-3.3075,-3.36
502,177538,0.606584,-0.181536,-0.769088,1.6625,-3.465,-3.78
503,177635,0.6109760000000001,-0.179096,-0.7747001,1.2425,-3.395,-4.1475
504,177731,0.61122,-0.1769,-0.7700640999999999,0.945,-3.395,-4.4625
505,177827,0.614636,-0.17397200000000002,-0.7686,0.91,-3.3425,-4.4625
506,177924,0.6095119999999999,-0.17543599999999998,-0.76982,1.085,-3.4825,-4.585
507,178020,0.6107319999999999,-0.172264,-0.772016,1.2075,-3.64,-4.4975
508,178116,0.606584,-0.172508,-0.771528,1.3475,-3.395,-4.375
509,178212,0.6068279999999999,-0.167872,-0.7766521,1.68,-3.0975,-4.0075
510,178309,0.6034121,-0.171044,-0.774456,1.82,-2.9225,-3.675
511,178405,0.601704,-0.16835999999999998,-0.770308,1.855,-2.66,-3.71
512,178501,0.599264,-0.167872,-0.7661600000000001,2.0125,-2.7475,-3.6225
513,178597,0.59048,-0.172996,-0.764452,2.17,-2.975,-3.5875
514,178694,0.5934081,-0.171044,-0.765184,2.415,-2.8525,-3.3775
515,178790,0.596092,-0.17202,-0.7673800000000001,2.5375,-2.8525,-3.15
516,178886,0.601704,-0.172752,-0.767868,2.7125,-2.8875,-3.045
517,178983,0.604876,-0.174216,-0.766892,2.835,-2.8875,-2.87
518,179079,0.6009720000000001,-0.17543599999999998,-0.768356,2.9225,-2.9575,-2.555
519,179175,0.60268,-0.178852,-0.7625,2.94,-3.0275,-2.485
520,179271,0.602436,-0.181536,-0.765428,2.8175,-3.2725,-2.3975
521,179368,0.603168,-0.176656,-0.765672,2.73,-3.22,-2.275
522,179464,0.6009720000000001,-0.18056,-0.76494,2.8175,-3.0625,-1.9425
523,179560,0.6075600999999999,-0.178608,-0.762988,2.8,-3.1325,-1.9075
524,179656,0.604632,-0.1769,-0.76982,2.8875,-3.08,-1.925
525,179753,0.609024,-0.18104800000000001,-0.765672,3.0975,-2.87,-1.8725
526,179849,0.605364,-0.182024,-0.764208,3.0975,-2.9925,-1.925
527,179945,0.604876,-0.181292,-0.7639640999999999,2.9575,-3.0975,-1.9775
528,180042,0.604876,-0.183488,-0.7661600000000001,2.695,-3.2025,-2.2225
529,180138,0.6039,-0.180804,-0.7659161,2.5025,-3.2725,-2.31
530,180234,0.60268,-0.17934,-0.7659161,2.5025,-3.3425,-2.45
531,180330,0.604876,-0.174216,-0.7661600000000001,2.3975,-3.43,-2.5025
532,180427,0.60268,-0.180072,-0.7666480999999999,2.52,-3.5175,-2.4675
533,180523,0.6029241,-0.18324400000000002,-0.761524,2.3975,-3.71,-2.5025
534,180619,0.5987760999999999,-0.18666,-0.761524,2.135,-3.92,-2.73
535,180715,0.601216,-0.183732,-0.7622561,1.6275,-4.1825,-3.0975
536,180812,0.606584,-0.184952,-0.764452,1.085,-4.3225,-3.325
537,180908,0.606096,-0.187148,-0.7664041,0.7875,-4.4275,-3.5525
538,181004,0.607316,-0.183732,-0.765184,0.315,-4.5675,-3.85
539,181100,0.606584,-0.18104800000000001,-0.768112,0.035,-4.655,-4.2525
540,181197,0.604632,-0.180072,-0.766892,-0.07,-4.7775,-4.515
541,181293,0.604388,-0.18056,-0.7671359999999999,-0.14,-4.725,-4.6375
542,181389,0.6019479999999999,-0.18104800000000001,-0.7664041,-0.2275,-4.6725,-4.865
543,181486,0.599996,-0.18104800000000001,-0.767868,-0.14,-4.6025,-5.0575
544,181582,0.601704,-0.177144,-0.769332,-0.21,-4.515,-5.2325
545,181678,0.6021920000000001,-0.17763199999999998,-0.7664041,-0.315,-4.4625,-5.425
546,181774,0.605364,-0.172264,-0.7686,-0.3675,-4.41,-5.5125
547,181871,0.606584,-0.1708,-0.771528,-0.245,-4.2525,-5.32
548,181967,0.606096,-0.17202,-0.76982,0.0875,-4.0775,-4.97
549,182063,0.606096,-0.172752,-0.770308,0.42,-3.99,-4.725
550,182160,0.6029241,-0.169336,-0.768356,0.6825,-3.8325,-4.34
551,182256,0.604632,-0.165188,-0.772504,1.1025,-3.6575,-3.9725
552,182352,0.599508,-0.16958,-0.76982,1.54,-3.5525,-3.43
553,182448,0.5987760999999999,-0.17324,-0.764452,1.715,-3.465,-3.15
554,182545,0.599996,-0.179584,-0.765184,1.75,-3.36,-3.115
555,182641,0.599264,-0.18324400000000002,-0.764452,1.61,-3.5175,-3.36
556,182737,0.59658,-0.185684,-0.763232,1.3125,-3.6575,-3.745
557,182833,0.5978,-0.18446400000000002,-0.766892,0.8925,-3.9025,-4.2875
558,182930,0.599996,-0.186416,-0.7661600000000001,0.525,-3.9375,-4.7775
559,183026,0.6034121,-0.180316,-0.7671359999999999,0.105,-4.13,-5.3375
560,183122,0.6058520000000001,-0.167628,-0.767624,-0.07,-4.305,-5.5475
561,183219,0.6095119999999999,-0.170312,-0.7707961,-0.0875,-4.3575,-5.4775
562,183315,0.6117081,-0.17055599999999999,-0.77104,0.1225,-4.235,-5.25
563,183411,0.6070720000000001,-0.168604,-0.769576,0.28,-4.165,-5.075
564,183507,0.607804,-0.166408,-0.768112,0.4725,-4.095,-4.8475
565,183604,0.6080479999999999,-0.16835999999999998,-0.77104,0.7,-3.9375,-4.4975
566,183700,0.609268,-0.166652,-0.772748,1.0325,-3.71,-4.235
567,183796,0.6082920999999999,-0.164212,-0.7705521,1.3475,-3.4825,-3.9025
568,183892,0.6075600999999999,-0.166408,-0.7712840999999999,1.645,-3.3075,-3.465
569,183989,0.607804,-0.166164,-0.7712840999999999,1.9425,-3.0975,-3.22
570,184085,0.609024,-0.170312,-0.773724,2.1175,-3.045,-2.975
571,184181,0.6107319999999999,-0.171776,-0.771772,2.3625,-3.0975,-2.87
572,184278,0.607316,-0.17055599999999999,-0.7707961,2.205,-3.1325,-2.94
573,184374,0.606096,-0.17202,-0.772016,2.1875,-3.2025,-3.0625
574,184470,0.604388,-0.169336,-0.772992,2.1875,-2.975,-2.94
575,184566,0.6097560000000001,-0.179096,-0.773968,2.205,-1.75,-2.8
576,184663,0.608536,-0.167872,-0.7707961,1.855,-1.33,-2.7475
577,184759,0.6095119999999999,-0.174948,-0.771772,1.4175,-1.1725,-2.52
578,184855,0.6124400999999999,-0.182756,-0.7673800000000001,0.9975,-0.6825,-2.2575
579,184951,0.612196,-0.183732,-0.762988,0.49,-0.6825,-2.5025
580,185048,0.6117081,-0.174704,-0.762012,0.1225,-1.2425,-2.8525
581,185144,0.615368,-0.17738800000000002,-0.763476,0.0525,-1.75,-3.08
582,185240,0.61122,-0.17763199999999998,-0.7666480999999999,-0.28,-2.4325,-3.3425
583,185336,0.612928,-0.16592,-0.764696,-0.7525,-3.3425,-3.395
584,185433,0.613904,-0.169336,-0.7666480999999999,-0.63,-3.8675,-3.6925
585,185529,0.609268,-0.170312,-0.7639640999999999,-0.6125,-4.445,-3.7975
586,185625,0.6070720000000001,-0.168604,-0.765428,-0.6125,-4.8475,-3.7625
587,185722,0.6039,-0.17055599999999999,-0.7673800000000001,-0.63,-5.0225,-4.0075
588,185818,0.6039,-0.171532,-0.7671359999999999,-0.7525,-5.0575,-4.025
589,185914,0.599996,-0.17446,-0.765428,-0.875,-5.25,-4.1825
590,186010,0.601704,-0.173484,-0.768112,-0.9975,-5.46,-4.585
591,186107,0.6058520000000001,-0.172752,-0.7700640999999999,-0.875,-5.5125,-4.9875
592,186203,0.605364,-0.169336,-0.7759199999999999,-0.525,-5.46,-5.4425
593,186299,0.6070720000000001,-0.16958,-0.772504,-0.2975,-5.285,-5.7575
594,186396,0.604876,-0.17055599999999999,-0.769332,0.0875,-5.0225,-6.0725
595,186492,0.6097560000000001,-0.168848,-0.7617681,0.4725,-5.18,-6.2475
596,186588,0.597068,-0.163236,-0.770308,0.6825,-5.145,-6.23
597,186684,0.601704,-0.161772,-0.7622561,0.8575,-5.1275,-6.125
598,186781,0.5919439999999999,-0.17055599999999999,-0.7610359999999999,0.8925,-5.215,-5.81
599,186877,0.59658,-0.169824,-0.76982,0.8575,-5.4075,-5.74
600,186973,0.601704,-0.17128800000000002,-0.7666480999999999,0.77,-5.04,-5.705
601,187069,0.602436,-0.16909200000000002,-0.768844,0.77,-5.1975,-5.705
602,187166,0.6019479999999999,-0.166408,-0.772016,0.91,-5.18,-5.7225
603,187262,0.612684,-0.164456,-0.7700640999999999,0.91,-5.1275,-5.6525
604,187358,0.6009720000000001,-0.164456,-0.7759199999999999,0.63,-5.075,-5.39
605,187455,0.5917,-0.171044,-0.765184,0.175,-5.5825,-5.6525
606,187551,0.607316,-0.162504,-0.767624,-0.49,-5.0575,-5.6175
607,187647,0.5980439999999999,-0.16201600000000002,-0.768356,-0.875,-5.11,-5.635
608,187743,0.607316,-0.16201600000000002,-0.773968,-0.91,-4.9525,-5.4425
609,187840,0.6107319999999999,-0.148352,-0.7832399999999999,-0.77,-4.7775,-5.3025
610,187936,0.594384,-0.159576,-0.773968,-0.7175,-5.1625,-5.25
611,188032,0.6068279999999999,-0.155428,-0.7707961,-0.63,-4.8125,-5.005
612,188128,0.601704,-0.15054800000000002,-0.7759199999999999,-0.28,-4.6725,-4.76
613,188225,0.6117081,-0.15616,-0.7707961,0.1225,-4.62,-4.2175
614,188321,0.599508,-0.14078800000000002,-0.779092,0.56,-4.4975,-3.6225
615,188417,0.601704,-0.147376,-0.772748,1.3825,-4.445,-3.3425
616,188514,0.601704,-0.14884,-0.773968,2.1175,-4.1125,-2.8
617,188610,0.5978,-0.149816,-0.7759199999999999,2.66,-3.955,-2.4325
618,188706,0.604876,-0.14493599999999998,-0.778604,3.1325,-3.7975,-2.03
619,188802,0.605608,-0.149572,-0.7754321,3.6225,-3.3775,-1.47
620,188899,0.596092,-0.158356,-0.7705521,3.815,-3.395,-1.19
621,188995,0.6021920000000001,-0.163724,-0.7686,3.71,-3.255,-0.98
622,189091,0.60146,-0.160064,-0.7747001,3.36,-3.4475,-1.155
623,189187,0.5919439999999999,-0.166408,-0.7666480999999999,3.0975,-3.6225,-1.4175
624,189284,0.599264,-0.158356,-0.773724,2.8875,-3.5175,-1.47
625,189380,0.595116,-0.153232,-0.771528,3.08,-3.2375,-1.1725
626,189476,0.6029241,-0.148352,-0.7812880999999999,3.85,-2.9225,-0.6475
627,189572,0.6007279999999999,-0.155672,-0.774456,4.48,-2.8,-0.42
628,189669,0.6124400999999999,-0.15494000000000002,-0.7732359999999999,5.32,-2.1875,0.28
629,189765,0.6080479999999999,-0.162748,-0.774212,5.74,-2.0125,0.8225
630,189861,0.6036560999999999,-0.163968,-0.7734800000000001,5.6875,-2.4325,0.8225
631,189958,0.6095119999999999,-0.169824,-0.7722600000000001,5.565,-2.345,0.735
632,190054,0.6075600999999999,-0.1647,-0.7747001,5.6,-2.4325,0.63
633,190150,0.5997520000000001,-0.17128800000000002,-0.773724,5.2325,-2.4325,0.5775
634,190246,0.6039,-0.183732,-0.771772,4.69,-2.205,0.105
635,190343,0.60268,-0.182756,-0.769088,3.7625,-2.1525,-0.6125
636,190439,0.61,-0.18422,-0.7661600000000001,2.9225,-2.1875,-1.225
637,190535,0.609024,-0.185928,-0.7598161,2.4325,-2.485,-1.89
638,190631,0.607316,-0.180316,-0.7661600000000001,1.8025,-3.185,-2.2575
639,190728,0.604632,-0.188124,-0.75762,1.2775,-4.0075,-2.7825
640,190824,0.6075600999999999,-0.18422,-0.758352,0.2625,-4.8475,-3.5525
641,190920,0.604876,-0.186416,-0.755912,-1.0675,-5.8625,-4.4975
642,191016,0.6036560999999999,-0.167384,-0.767868,-2.17,-6.8425,-5.075
643,191113,0.5948720000000001,-0.17738800000000002,-0.767624,-2.6075,-7.735,-5.5475
644,191209,0.5997520000000001,-0.162748,-0.774944,-2.905,-8.4875,-6.09
645,191305,0.5958479999999999,-0.163968,-0.762988,-3.0975,-9.415,-6.615
646,191401,0.589992,-0.1525,-0.781044,-2.905,-9.905,-6.755
647,191498,0.599264,-0.150792,-0.7795801,-2.0475,-10.1675,-6.685
648,191594,0.5987760999999999,-0.15176800000000001,-0.778604,-1.155,-9.4675,-6.2125
649,191690,0.599264,-0.156404,-0.780312,-0.14,-8.6625,-5.5475
650,191787,0.599264,-0.162992,-0.779824,0.77,-7.875,-5.04
651,191883,0.5980439999999999,-0.165676,-0.7771399999999999,1.295,-7.0875,-4.7075
652,191979,0.595604,-0.16689600000000002,-0.780068,1.785,-6.3525,-4.48
653,192075,0.5958479999999999,-0.18178,-0.772992,2.0825,-5.8275,-4.3225
654,192172,0.59292,-0.181536,-0.772992,1.6275,-5.565,-4.7775
655,192268,0.5941401,-0.181292,-0.766892,0.8400001,-5.6,-5.425
656,192364,0.58804,-0.187148,-0.7666480999999999,-0.105,-6.0025,-6.1075
657,192460,0.589016,-0.17812,-0.764696,-1.3825,-6.6675,-7.14
658,192557,0.581696,-0.174216,-0.773968,-2.52,-7.3675,-7.8925
659,192653,0.581696,-0.18544000000000002,-0.760792,-3.6575,-8.4175,-8.8025
660,192749,0.5843801,-0.160796,-0.767624,-4.97,-8.715,-9.4325
661,192845,0.5734,-0.14078800000000002,-0.78446,-5.18,-8.645,-8.8025
662,192942,0.5694961,-0.157136,-0.7722600000000001,-4.55,-8.505,-8.435
663,193038,0.5797441,-0.08857201,-0.7998321,-4.2175,-7.56,-7.2975
664,193134,0.59902,-0.14713199999999999,-0.774944,-2.695,-6.6325,-5.5825
665,193231,0.572912,-0.122,-0.788608,-1.82,-4.97,-3.99
666,193327,0.576816,-0.105896,-0.79666,-0.8925,-3.4825,-2.9225
667,193423,0.595116,-0.17616800000000002,-0.772748,0.5075,-1.9425,-1.6275
668,193519,0.5936520000000001,-0.1281,-0.8010520000000001,1.4175,-0.315,-0.665
669,193616,0.611464,-0.110776,-0.80886,2.66,1.2775,-0.28
670,193712,0.624152,-0.161772,-0.754692,4.34,2.03,0.0175
671,193808,0.59658,-0.187636,-0.7834840000000001,4.445,3.185,0.0175
672,193904,0.594384,-0.119072,-0.8193521,4.2,3.1675,-0.525
673,194001,0.6280560000000001,-0.173728,-0.737124,4.1125,3.395,-0.805
674,194097,0.5917,-0.173484,-0.797392,3.99,3.78,-1.0325
675,194193,0.5873079999999999,-0.152256,-0.807884,3.57,4.3575,-1.5225
676,194289,0.6036560999999999,-0.143716,-0.8086161000000001,3.6575,5.2325,-1.5925
677,194386,0.572912,-0.215696,-0.759084,3.5,5.7925,-2.38
678,194482,0.59536,-0.182756,-0.801784,3.185,8.225,-1.7325
679,194578,0.620004,-0.13761600000000002,-0.8296,4.48,9.2925,-1.4175
680,194674,0.613416,-0.118828,-0.832528,5.67,11.8125,-0.875
681,194771,0.588284,-0.142252,-0.841556,8.1725,16.45,0.665
682,194867,0.43554,-0.22862800000000003,-0.886452,11.27,22.75,1.3475
683,194963,0.48214399999999996,-0.199348,-0.839116,9.135,38.6925,-2.59
684,195059,0.570716,-0.200568,-0.8430200999999999,10.4825,57.75,-8.295
685,195156,0.557052,-0.193736,-0.81252,10.7275,66.6575,-13.4225
686,195252,0.550708,-0.17055599999999999,-0.8095920999999999,11.9875,79.1,-17.1675
687,195348,0.5612,-0.159576,-0.7937320999999999,12.775,94.29,-20.65
688,195444,0.5607121,-0.18251199999999998,-0.776896,12.3725,111.2475,-23.905
689,195541,0.5887720000000001,-0.20788800000000002,-0.8003201,10.71,128.9925,-28.6825
690,195637,0.5968241,-0.201544,-0.8039801,4.9525,144.095,-33.355
691,195733,0.612684,-0.234972,-0.80886,0.5075,154.7175,-37.3275
692,195830,0.609024,-0.212036,-0.8149601,-6.9125,161.1225,-42.595
693,195926,0.624396,-0.211792,-0.8166680000000001,-13.3175,169.1725,-48.5975
694,196022,0.639768,-0.194712,-0.833992,-17.745,178.7975,-55.0375
695,196118,0.6917399999999999,-0.20178800000000002,-0.812276,-19.88,189.2975,-62.86
696,196215,0.743712,-0.17519200000000001,-0.785924,-24.9725,205.275,-69.93
697,196311,0.9089001,-0.144204,-0.7539600000000001,-30.625,231.945,-73.3075
698,196407,1.140944,-0.004392,-0.822524,-34.1425,263.725,-68.845
699,196503,1.3449280000000001,-0.029036000000000003,-0.9125601000000001,-32.5675,280.28,-58.5725
700,196600,1.3893360000000001,0.12980799999999998,-0.9010921000000001,-28.3325,286.7025,-46.1825
701,196696,1.20536,-0.083936,-0.9057280999999999,-16.2575,285.6525,-34.8425
702,196792,1.3146719999999998,-0.194224,-0.987224,-2.2225,275.6075,-23.765
703,196888,1.305644,-0.200568,-0.9850280999999999,1.5925,281.68,-12.74
704,196985,1.067012,-0.59658,-1.358592,8.5925,292.775,-10.01
705,197081,0.423584,-1.0584719999999999,-1.31882,2.2575,241.5875,10.4125
706,197177,0.410408,-1.315404,-2.35704,-24.7275,185.6925,49.5775
707,197273,1.085312,-1.245376,-2.1228,-68.5125,45.01,88.18251
708,197370,0.662216,-0.840824,-2.0925439999999997,-96.79251,-39.2175,123.935
709,197466,-0.196908,-0.42626800000000004,-1.4393559999999999,-113.12,-130.235,142.1875
710,197562,-0.413092,-0.011468,-1.1651,-112.735,-156.835,136.3425
711,197658,-0.27718400000000004,0.2501,-1.095072,-95.97,-170.0125,118.125
712,197755,-0.112728,0.309392,-1.117276,-65.2575,-176.715,92.1725
713,197851,0.002928,0.249856,-1.182424,-37.5375,-185.99,58.5025
714,197947,0.11955999999999999,0.186172,-1.241472,-22.7325,-201.2675,22.1025
715,198044,0.309636,0.147376,-1.288808,-17.29,-220.745,-10.36
716,198140,0.46018400000000004,0.15128,-1.235372,-12.74,-243.285,-36.365
717,198236,0.5934081,0.15054800000000002,-1.11752,-1.8375,-263.2,-55.9825
718,198332,0.689056,0.060024,-0.9806360000000001,15.96,-275.3275,-69.7725
719,198429,0.8425321,-0.116632,-0.8532681000000001,35.4025,-279.3875,-77.0175
720,198525,0.9286639999999999,-0.30256,-0.7256560000000001,49.14,-277.3925,-76.615
721,198621,0.9469641,-0.42944,-0.615368,53.62,-269.15,-67.655
722,198717,0.93086,-0.472384,-0.604876,50.6625,-254.7475,-52.3075
723,198814,0.9262239999999999,-0.432856,-0.6724640000000001,45.99,-236.25,-31.465
724,198910,0.9862479999999999,-0.310612,-0.777384,43.12,-217.6825,-7.5425
725,199006,1.0316319999999999,-0.174216,-0.784704,36.8025,-203.4725,13.86
726,199102,0.9142680000000001,0.020496,-0.6368401,20.2125,-190.0325,25.1125
727,199199,0.8693719999999999,0.23228800000000002,-0.538752,0.735,-163.2575,24.5175
728,199295,1.754116,-0.093696,-0.9691681000000001,-8.5225,-124.4425,18.3925
729,199391,1.60064,0.260592,-1.220976,-24.64,-112.0,16.1175
730,199487,1.133868,0.263764,-0.465796,-22.365,-127.9425,6.7375
731,199584,1.84342,0.194712,-0.839116,4.62,-84.8925,14.4025
732,199680,3.079524,0.06490399999999999,-1.111664,36.82,-94.5525,25.165
733,199776,2.2911599999999996,-0.105896,-0.19983599999999999,44.975,-134.68,25.935
734,199872,2.207468,-0.038796,0.343064,32.69,-167.5625,13.0725
735,199969,1.91662,0.194956,1.074576,14.84,-171.5875,-10.29
736,200065,2.089128,0.14078800000000002,1.356884,20.37,-130.6725,-21.2625
737,200161,2.164036,0.018544,1.45912,26.565,-86.415,-24.9375
738,200257,2.048868,0.1098,1.434476,16.1175,-43.4175,-27.9475
739,200354,1.9297959999999998,0.329156,1.406172,-1.575,0.665,-32.795
740,200450,1.902956,0.6058520000000001,1.2817319999999999,-3.0975,52.71,-41.16
741,200546,1.009428,0.033672,0.09052401,21.4025,100.4675,-51.1175
742,200642,1.415932,-0.7285841,-1.933456,27.1075,108.43,-44.905
743,200739,0.6895439999999999,-0.69296,-0.8142281,18.7775,71.505,-32.4275
744,200835,0.8813280000000001,-0.39967199999999997,-0.478484,6.72,71.0675,-29.295
745,200931,2.40218,-0.183732,-1.9663959999999998,-5.1975,79.73001,-10.36
746,201027,0.15762400000000001,0.12932000000000002,-0.38674000000000003,-22.1375,3.6575,-6.93
747,201124,1.013332,-0.17055599999999999,-1.152168,-5.915,4.725,-10.8325
748,201220,0.533628,0.08564401,-0.7598161,-3.535,5.075,-0.6825
749,201316,0.774944,0.008540001,-0.885476,6.86,6.79,5.4075
750,201412,0.658312,-0.156892,-0.7869,17.78,2.6775,11.9
751,201509,0.686372,-0.12053599999999999,-0.813496,23.0825,3.465,17.3425
752,201605,0.662216,-0.174216,-0.8025161,26.18,2.275,19.005
753,201701,0.628788,-0.187636,-0.8113001,27.5975,2.0825,19.25
754,201797,0.61732,-0.15372,-0.8081281,28.6125,2.8,18.5325
755,201894,0.615368,-0.16104000000000002,-0.803248,29.9075,2.9575,18.06
756,201990,0.62342,-0.182268,-0.8047121,31.22,3.3775,17.8675
757,202086,0.6019479999999999,-0.250344,-0.744444,31.2375,2.7125,17.0275
758,202183,0.580232,-0.251808,-0.764452,29.6975,3.4475,15.6625
759,202279,0.5926760999999999,-0.25522399999999995,-0.7732359999999999,27.1775,3.64,13.615
760,202375,0.583404,-0.27523200000000003,-0.749568,25.4625,3.2025,11.445
761,202471,0.568764,-0.30988000000000004,-0.7422481,22.6975,2.4675,8.995
762,202568,0.557296,-0.334036,-0.7166279999999999,18.655,1.4175,5.6525
763,202664,0.5543680000000001,-0.32208000000000003,-0.7224841,13.09,0.4375,1.6975
764,202760,0.564128,-0.31232,-0.7176041,7.49,-1.12,-2.4325
765,202856,0.5743761,-0.31158800000000003,-0.718824,1.96,-3.15,-6.6675
766,202953,0.586576,-0.28548,-0.7390760000000001,-3.255,-4.9,-10.5525
767,203049,0.580476,-0.255468,-0.7449321,-6.7025,-6.055,-13.0375
768,203145,0.5917,-0.259372,-0.748104,-9.1175,-7.7,-15.05
769,203241,0.586576,-0.231312,-0.7549359999999999,-10.85,-8.1375,-16.3275
770,203338,0.5814520000000001,-0.22423600000000002,-0.7551800000000001,-12.635,-9.3625,-17.4825
771,203434,0.580232,-0.215452,-0.756644,-14.0,-10.045,-17.9025
772,203530,0.576572,-0.203984,-0.7598161,-15.26,-10.4825,-17.955
773,203626,0.5692520000000001,-0.18446400000000002,-0.760304,-16.5725,-10.3075,-17.64
774,203723,0.568276,-0.187392,-0.744444,-18.4975,-10.01,-18.165
775,203819,0.5690081,-0.187148,-0.74054,-21.595,-10.115,-19.355
776,203915,0.567056,-0.201544,-0.741028,-25.6725,-10.5525,-20.8075
777,204011,0.571692,-0.22057600000000002,-0.776896,-30.5725,-11.3225,-22.4
778,204108,0.57828,-0.09418401,-0.834724,-32.9175,-12.4425,-23.6075
779,204204,0.5343600000000001,-0.268644,-0.791536,-30.835,-14.5075,-24.9025
780,204300,0.55632,-0.234972,-0.7834840000000001,-30.5725,-15.3475,-20.545
781,204396,0.576572,-0.172264,-0.7937320999999999,-30.975,-14.035,-19.7925
782,204493,0.572912,-0.191052,-0.780556,-28.35,-16.1,-19.7225
783,204589,0.58194,-0.174948,-0.777872,-26.3025,-15.9775,-19.18
784,204685,0.5795,-0.15006,-0.7732359999999999,-25.515,-15.4875,-19.67
785,204781,0.576572,-0.152256,-0.779824,-24.85,-15.33,-19.2675
786,204878,0.565836,-0.155428,-0.787144,-24.115,-14.7175,-18.2
787,204974,0.5690081,-0.122976,-0.8054439999999999,-23.87,-14.175,-17.64
788,205070,0.579256,-0.110044,-0.815448,-21.9275,-11.34,-17.01
789,205167,0.599264,-0.10614000000000001,-0.81618,-18.0775,-6.79,-16.59
790,205263,0.6141479999999999,-0.06954,-0.8195960999999999,-14.8925,-3.2375,-15.6975
791,205359,0.558272,-0.081496,-0.8352120000000001,-10.325,0.63,-14.07
792,205455,0.612928,-0.08954801,-0.8117880000000001,-5.9675,4.3925,-12.8625
793,205552,0.5636399999999999,-0.07515201,-0.83936,-2.4325,7.35,-12.2675
794,205648,0.6224441,-0.09540401,-0.8115439999999999,0.77,10.115,-10.99
795,205744,0.5926760999999999,-0.11541199999999999,-0.8142281,2.8175,11.9875,-10.535
796,205840,0.6058520000000001,-0.11394800000000001,-0.811056,3.6575,14.28,-10.6575
797,205937,0.591212,-0.059048,-0.889868,5.0225,17.5,-11.3225
798,206033,0.388204,-0.290848,-0.9110959999999999,12.0575,22.855,-14.595
799,206129,0.47506800000000005,-0.09247601,-0.96624,4.9875,45.9725,-18.9
800,206225,0.48995200000000005,-0.256688,-0.8918200000000001,5.25,72.5025,-22.7325
801,206322,0.491904,-0.149572,-0.9315921,7.1575,95.7775,-30.5375
802,206418,0.44944799999999996,-0.141032,-0.9254921,8.9775,123.5325,-37.5025
803,206514,0.42773199999999995,-0.121512,-0.9067040000000001,13.195,157.395,-41.6675
804,206610,0.477508,-0.124928,-0.9598959999999999,17.1675,193.515,-44.1175
805,206707,0.5043479999999999,-0.11224,-1.015772,15.1375,214.0075,-47.1275
806,206803,0.513864,-0.060512,-0.897432,9.1175,217.2975,-51.5375
807,206899,0.4819,-0.036844,-0.8493641,4.4625,229.0925,-55.4575
808,206995,0.489464,-0.011224,-0.812032,2.2925,250.46,-58.625
809,207092,0.721508,0.039772,-0.89426,-4.06,272.3525,-61.635
810,207188,0.8105680000000001,-0.000488,-0.764208,-7.28,283.7975,-61.53
811,207284,1.11264,0.06636801,-0.701256,-12.46,310.695,-49.42
812,207381,1.2280520000000001,0.135664,-0.5453399999999999,-17.255,333.9,-29.8725
813,207477,1.338584,0.126392,-0.697108,-18.83,360.8675,-8.9775
814,207573,1.34566,0.007320001,-0.743468,-19.705,358.8025,6.5625
815,207669,1.1873040000000001,0.002684,-0.749568,-19.53,340.8125,18.6375
816,207766,0.9964959999999999,-0.039772,-0.569984,-21.2625,322.875,22.855
817,207862,0.9389120000000001,-0.079544,-0.48433999999999994,-31.78,316.4,28.21
818,207958,1.249524,-0.039528,-0.54778,-39.0075,337.015,38.15
819,208054,1.374452,-0.18666,-1.034804,-32.62,373.4675,47.4075
820,208151,1.2439120000000001,-0.6675840000000001,-1.465708,-17.15,333.5325,63.1575
821,208247,0.80642,-0.921588,-2.566392,-25.5325,233.1175,88.9525
822,208343,1.41642,-0.5873079999999999,-2.892376,-56.2625,44.1525,99.24251
823,208439,1.2627,-0.486292,-2.778916,-90.265,-143.7625,79.3625
824,208536,-0.141276,-0.07076001,-1.565748,-103.0575,-242.0775,54.6175
825,208632,-0.032208,0.152988,-1.280756,-86.5025,-274.33,28.2275
826,208728,0.142984,0.11955999999999999,-1.065792,-48.7375,-290.15,15.6975
827,208824,0.309148,-0.149572,-0.954284,-16.835,-300.65,5.4775
828,208921,0.35868,-0.379176,-0.8796200000000001,-11.13,-306.4425,-7.4025
829,209017,0.462624,-0.410896,-0.8786440999999999,-31.325,-313.3725,-20.755
830,209113,0.595116,-0.32086,-0.9189040999999999,-56.7525,-321.3525,-30.66
831,209209,0.7078439999999999,-0.162504,-0.9076799999999999,-71.5225,-328.755,-38.2025
832,209306,0.794708,-0.034404000000000004,-0.8371639999999999,-67.7425,-334.8625,-45.0625
833,209402,0.922076,-0.00488,-0.7661600000000001,-49.1925,-334.495,-53.6725
834,209498,0.9974719999999999,-0.08759601,-0.667828,-22.2775,-327.4425,-62.195
835,209594,1.0260200000000002,-0.273036,-0.5799880000000001,3.255,-314.79,-68.0225
836,209691,1.102392,-0.4743361,-0.567056,20.51,-298.7075,-67.9175
837,209787,1.065792,-0.6095119999999999,-0.538996,27.0375,-281.3475,-59.1325
838,209883,0.9818561,-0.71492,-0.546804,26.705,-260.47,-43.015
839,209979,1.037,-0.665876,-0.651968,23.555,-234.6575,-23.1175
840,210076,1.193892,-0.509472,-0.75762,27.8425,-211.8025,0.945
841,210172,1.22732,-0.404308,-0.714432,36.4875,-196.0,25.3575
842,210268,1.095072,-0.20837600000000003,-0.536068,38.8675,-178.5875,39.4275
843,210364,1.059692,-0.022203999999999998,-0.46042799999999995,37.3275,-147.8925,41.0375
844,210461,1.4269120000000002,0.07002799999999999,-0.656848,47.0225,-109.0775,38.2725
845,210557,1.921744,-0.011224,-0.87108,74.7075,-85.71500999999999,43.8025
846,210653,2.231868,-0.189588,-0.8759601,102.655,-93.03,57.5575
847,210749,2.2118599999999997,-0.298656,-0.621468,107.03,-124.74,66.7275
848,210846,1.9768880000000002,-0.22814,-0.139568,88.55,-159.6525,61.7925
849,210942,1.7211759999999998,-0.069052,0.413092,66.7275,-176.225,46.3225
850,211038,1.760948,0.035136,0.71248,53.515,-163.1525,26.81
851,211134,2.00812,0.006587999999999999,0.74908,54.915,-137.62,13.3875
852,211231,2.0047040000000003,-0.07198,0.820084,59.78,-123.41,13.0375
853,211327,1.727032,-0.07832401,0.9918600000000001,49.7525,-114.345,17.1325
854,211423,1.468148,-0.00122,1.0845799999999999,20.09,-88.585,17.0975
855,211519,1.4208120000000002,0.11394800000000001,0.969412,-20.2475,-43.4875,12.11
856,211616,0.7890961,0.434564,0.642696,-64.7675,1.2425,2.94
857,211712,1.499624,1.167052,0.563396,-120.785,54.39,-32.165
858,211808,0.5463161,0.185196,-0.684176,-77.21,91.1225,-40.985
859,211904,-0.013175999999999998,0.10516400000000001,-1.5982,-59.0975,98.35,-45.92
860,212001,0.478972,-0.09223200000000001,-1.4898639999999999,-13.09,121.835,-57.7675
861,212097,1.255136,-0.16811600000000002,-0.5978,9.5725,140.7875,-62.7725
862,212193,1.429352,-0.087108,-0.6375721,-3.465,129.045,-41.4575
863,212289,1.41886,-0.012931999999999999,-1.4337440000000001,-13.4575,112.245,-17.85
864,212386,0.903532,0.11224,-1.1150799999999998,-14.1925,76.2125,-14.455
865,212482,0.865468,0.101016,-0.8662001,-3.2375,62.6325,-12.075
866,212578,1.074576,0.016836,-1.111908,7.1575,59.045,-0.525
867,212674,0.979416,0.134932,-1.013332,8.295,32.0425,6.0725
868,212771,0.7171161,-0.276696,-0.775188,15.9075,0.3675,2.7825
869,212867,0.666608,-0.195688,-0.778604,17.85,8.0325,11.1125
870,212963,0.69662,-0.21032800000000001,-0.8549761,14.1925,-1.2775,11.27
871,213059,0.624152,-0.209108,-0.781532,15.645,-2.5725,10.885
872,213156,0.6414761,-0.211304,-0.800808,15.8025,-2.835,10.43
873,213252,0.625616,-0.213988,-0.780068,15.1375,-2.45,9.24
874,213348,0.625128,-0.230336,-0.777628,14.4375,-2.24,7.175
875,213444,0.611464,-0.227408,-0.780556,12.5825,-2.17,5.215
876,213541,0.5919439999999999,-0.211792,-0.777384,11.13,-1.925,3.4825
877,213637,0.589504,-0.21106,-0.775188,9.4675,-2.0475,1.6625
878,213733,0.586332,-0.215452,-0.7795801,7.9275,-1.925,0.0525
879,213829,0.585356,-0.21008400000000002,-0.7788480999999999,6.3525,-1.4525,-1.3475
880,213926,0.5875520000000001,-0.24058400000000002,-0.765184,4.935,-1.2075,-3.045
881,214022,0.590236,-0.250344,-0.753472,2.275,-1.3825,-4.8475
882,214118,0.576816,-0.239364,-0.7537159999999999,-1.1375,-2.135,-7.5775
883,214214,0.576328,-0.221552,-0.7571321,-5.285,-3.465,-10.5175
884,214311,0.580964,-0.19764,-0.733708,-8.6975,-4.585,-12.7575
885,214407,0.5987760999999999,-0.111508,-0.8047121,-10.3775,-5.565,-15.6975
886,214503,0.579012,-0.22082,-0.7483479999999999,-10.15,-9.1875,-19.6875
887,214599,0.56608,-0.297192,-0.744444,-10.8325,-10.43,-18.6025
888,214696,0.563396,-0.25864000000000004,-0.760792,-13.335,-9.9925,-15.89
889,214792,0.5604680000000001,-0.164944,-0.767624,-15.89,-9.0125,-13.44
890,214888,0.5785241,-0.158844,-0.773968,-16.8525,-9.135,-13.3175
891,214984,0.5655920999999999,-0.165432,-0.7834840000000001,-17.2025,-9.8,-13.405
892,215081,0.5799880000000001,-0.144204,-0.7893399999999999,-17.4475,-9.7475,-12.635
893,215177,0.5743761,-0.138836,-0.7734800000000001,-16.66,-9.8,-11.55
894,215273,0.587796,-0.143228,-0.791292,-16.5375,-9.1175,-10.5175
895,215369,0.5702281,-0.13761600000000002,-0.801296,-16.52,-9.275,-9.975
896,215466,0.56242,-0.158112,-0.777384,-14.945,-8.2425,-9.0125
897,215562,0.571204,-0.15738,-0.786656,-14.91,-7.0525,-8.68
898,215658,0.5309441,-0.16689600000000002,-0.767624,-13.9125,-6.86,-8.435
899,215754,0.553392,-0.181292,-0.774456,-13.545,-6.2125,-8.7325
900,215851,0.576572,-0.17616800000000002,-0.7834840000000001,-13.2475,-6.545,-9.345
901,215947,0.5404601,-0.16714,-0.769332,-13.545,-7.105,-10.255
902,216043,0.5543680000000001,-0.177144,-0.76372,-13.93,-6.895,-11.1125
903,216139,0.5614439999999999,-0.138348,-0.788608,-15.7675,-6.755,-11.3225
904,216236,0.5941401,-0.1159,-0.807884,-15.19,-3.85,-10.5525
905,216332,0.618784,-0.079056,-0.813984,-12.355,-0.5075,-9.2575
906,216428,0.6344,-0.062464,-0.830332,-7.28,4.1125,-6.5625
907,216524,0.599996,-0.049532,-0.8413120000000001,-0.6125,8.05,-3.185
908,216621,0.6441600000000001,-0.032451999999999995,-0.8376520000000001,5.7225,11.41,0.5425
909,216717,0.615124,-0.037088,-0.85156,11.8825,14.9275,4.7425
910,216813,0.6348881,-0.08784,-0.8203280000000001,15.9425,17.4825,8.6625
911,216909,0.626104,-0.112728,-0.812276,18.6725,19.5825,12.04
912,217006,0.5734,-0.134444,-0.83204,20.125,21.8225,13.7725
913,217102,0.62464,-0.164456,-0.8010520000000001,22.05,25.4975,14.98
914,217198,0.586332,-0.08442401,-0.8420440999999999,23.3975,29.54,14.6825
915,217294,0.326228,-0.393328,-0.8298440999999999,33.3725,36.645,12.6
916,217391,0.48726800000000003,-0.06588,-0.945256,30.7125,60.8125,7.5425
917,217487,0.4941,-0.25522399999999995,-0.83936,32.795,82.425,2.73
918,217583,0.47775200000000007,-0.122244,-0.8976761000000001,35.0175,103.67,-1.8725
919,217679,0.477264,-0.165676,-0.8554641,39.795,129.3075,-5.88
920,217776,0.515084,-0.14688800000000002,-0.811056,41.0025,158.8475,-9.9925
921,217872,0.5070319999999999,-0.187148,-0.9147559999999999,40.3025,188.2475,-14.5075
922,217968,0.5023960999999999,-0.22204000000000002,-0.892064,35.1925,205.3975,-17.815
923,218064,0.553148,-0.212036,-0.8652241,21.665,219.2575,-21.91
924,218161,0.547048,-0.25132,-0.8949921000000001,8.19,235.9,-24.99
925,218257,0.630008,-0.252296,-0.8388721,-11.55,253.12,-26.25
926,218353,0.6178081,-0.194956,-0.822524,-34.265,277.1475,-20.2475
927,218449,0.835456,-0.040992,-0.7954399999999999,-52.5,314.5975,-9.8175
928,218546,1.1529,0.055388,-0.850584,-57.3825,360.92,2.905
929,218642,1.323456,0.08296,-0.8818159999999999,-44.24,390.8975,20.4925
930,218738,1.560868,-0.133468,-0.737124,-30.6425,397.4075,36.995
931,218834,1.47254,-0.09784401,-0.8962120000000001,-37.555,386.435,43.2425
932,218931,1.220732,-0.187392,-0.937448,-49.49,363.8075,36.9425
933,219027,0.9738041,-0.280844,-0.8881600000000001,-62.09,346.465,33.46
934,219123,1.2078,-0.238632,-0.8869401,-64.6625,368.4275,49.42
935,219219,1.278804,-0.21447600000000003,-1.250988,-40.8275,416.3425,64.365
936,219316,0.8827921000000001,-0.244,-1.548668,-4.2,372.4,70.805
937,219412,0.762012,0.366244,-3.163948,20.5275,232.435,71.3125
938,219508,2.75842,-0.415288,-3.6865959999999998,56.2975,10.115,28.91
939,219604,0.74908,-0.345016,-2.3494759999999997,30.485,-169.4875,-21.385
940,219701,-0.398696,-0.260836,-1.5342719999999999,17.01,-275.8,-63.4375
941,219797,-0.187148,-0.266448,-1.1709559999999999,19.25,-295.155,-87.95501
942,219893,0.158844,-0.46774799999999994,-0.9989360999999999,27.825,-303.5375,-91.5425
943,219989,0.303048,-0.6709999999999999,-0.853024,26.81,-307.23,-83.335
944,220086,0.3111,-0.7881199999999999,-0.805932,11.83,-311.0275,-71.19
945,220182,0.340868,-0.756888,-0.8147161,-16.0475,-313.9325,-59.9025
946,220278,0.460672,-0.591212,-0.8730319999999999,-41.7025,-316.085,-51.59
947,220374,0.5565640000000001,-0.382104,-0.865956,-52.5,-319.62,-43.7675
948,220471,0.6075600999999999,-0.20374,-0.822524,-43.7675,-321.4575,-36.855
949,220567,0.6790520999999999,-0.114436,-0.7537159999999999,-20.755,-317.45,-33.635
950,220663,0.7771399999999999,-0.16201600000000002,-0.699792,7.4725,-308.9275,-33.985
951,220759,0.9125601000000001,-0.289628,-0.667828,29.5925,-298.7075,-36.96
952,220856,1.026752,-0.404552,-0.606096,39.34,-288.5575,-40.145
953,220952,1.033096,-0.451888,-0.6036560999999999,38.745,-277.06,-41.055
954,221048,1.10166,-0.459208,-0.673928,37.0475,-259.875,-37.275
955,221144,1.149972,-0.41260399999999997,-0.7088201,40.6175,-241.7975,-24.535
956,221241,1.203652,-0.36112,-0.692716,46.3225,-224.8575,-4.3225
957,221337,1.21634,-0.294752,-0.6082920999999999,43.19,-206.8325,15.7675
958,221433,1.172664,-0.142008,-0.493856,28.63,-184.2925,25.76
959,221529,1.2444,-0.05612,-0.503372,14.28,-153.0025,26.95
960,221626,1.741184,-0.072956,-0.837408,14.8225,-118.6675,26.285
961,221722,2.559804,-0.16811600000000002,-1.22,26.74,-107.065,37.5375
962,221818,2.689368,-0.23155599999999998,-1.063108,39.6725,-142.7825,57.0675
963,221914,2.267248,-0.067832,-0.475312,35.9975,-193.4975,66.46500999999999
964,222011,1.897588,0.21520799999999998,0.17812,23.835,-215.705,58.1175
965,222107,1.952,0.15201199999999998,0.5997520000000001,21.945,-203.3675,39.3925
966,222203,2.186972,0.006587999999999999,0.7237041,21.9975,-178.36,19.5475
967,222299,2.2250360000000002,0.044407999999999996,0.8147161,19.4075,-163.2925,10.1675
968,222396,1.583804,0.19983599999999999,0.9806360000000001,26.5825,-150.36,12.0575
969,222492,1.444724,0.15006,1.8480560000000001,29.47,-100.24,8.085
970,222588,1.9407759999999998,0.119072,1.275144,23.5375,-6.3,1.12
971,222684,2.0679,0.082228,0.9784401,4.585,58.9575,-3.745
972,222781,1.7863240000000002,-0.037088,0.83204,-12.81,91.84000999999999,-1.015
973,222877,0.6082920999999999,0.052703999999999994,0.193248,-34.8075,130.2175,4.41
974,222973,0.856684,-0.101016,-1.44082,-45.255,158.585,15.4525
975,223069,0.8252079999999999,0.012688,-1.4400879999999998,-34.09,156.415,25.865
976,223166,0.9118280000000001,0.359412,-0.9501360999999999,-22.3125,144.1475,20.02
977,223262,0.975024,0.5514399999999999,-0.8420440999999999,-11.0075,136.325,12.4775
978,223358,1.006988,0.44383599999999995,-1.169248,-3.8675,121.24,0.56
979,223454,0.9389120000000001,0.170068,-1.174372,8.3125,95.83,-18.69
980,223551,2.112064,-0.43724799999999997,-1.352004,-4.4975,51.59,-23.9925
981,223647,0.354044,-0.490196,-0.137128,-24.1675,-26.495,-23.9225
982,223743,0.990884,-0.178852,-1.056764,-24.5875,15.2775,-16.1175
983,223839,0.61122,-0.08808401,-0.8020281,-28.4725,-7.945,-13.9125
984,223936,0.66368,-0.298168,-0.7510321,-19.1975,-6.615,-12.5475
985,224032,0.659288,-0.346724,-0.777384,-20.4225,-13.195,-12.4075
986,224128,0.614636,-0.27084,-0.7659161,-23.5725,-14.77,-16.345
987,224224,0.61122,-0.20252,-0.8076399999999999,-25.3225,-17.3775,-19.845
988,224321,0.6231760999999999,-0.18422,-0.76372,-24.7975,-18.9875,-21.63
989,224417,0.606096,-0.134444,-0.779824,-24.255,-18.725,-21.7875
990,224513,0.6307401,-0.101748,-0.779824,-22.7675,-16.4675,-21.245
991,224609,0.619272,-0.075396,-0.803736,-20.5625,-14.56,-19.0225
992,224706,0.605608,-0.09516001,-0.8025161,-17.6575,-12.6175,-16.0125
993,224802,0.626104,-0.07588400000000001,-0.8071520000000001,-14.8925,-10.3775,-13.125
994,224898,0.58072,-0.068564,-0.812032,-11.6025,-7.8225,-10.5875
995,224994,0.628788,-0.062464,-0.8188641,-7.8925,-4.585,-7.3325
996,225091,0.6036560999999999,-0.086132,-0.803248,-3.955,-2.485,-4.235
997,225187,0.61488,-0.102968,-0.797392,-1.295,-0.6125,-1.82
998,225283,0.6117081,-0.11760799999999999,-0.790804,0.6475,0.0175,-0.4725
999,225379,0.614636,-0.142252,-0.780312,1.6275,-0.4725,0.07
1000,225476,0.6034121,-0.158112,-0.783728,1.225,-1.68,-0.595
1001,225572,0.5958479999999999,-0.1525,-0.780556,-0.175,-3.2375,-2.2925
1002,225668,0.589016,-0.148596,-0.780068,-1.26,-4.4625,-4.025
1003,225764,0.5753520000000001,-0.133956,-0.782752,-2.1875,-5.565,-5.355
1004,225861,0.5673,-0.127856,-0.784704,-2.695,-6.2475,-6.3175
1005,225957,0.564128,-0.139812,-0.769332,-2.8875,-6.7025,-6.93
1006,226053,0.577548,-0.132736,-0.784704,-3.6225,-7.56,-7.91
1007,226149,0.5738880000000001,-0.127856,-0.7795801,-4.41,-8.2775,-8.7675
1008,226246,0.575596,-0.12395199999999999,-0.7849480999999999,-5.2325,-8.645,-9.415
1009,226342,0.58072,-0.11224,-0.7832399999999999,-5.6875,-8.54,-9.7125
1010,226438,0.582184,-0.09052401,-0.791536,-5.04,-7.595,-9.1
1011,226534,0.580964,-0.070516,-0.792512,-3.2725,-5.915,-7.4375
1012,226631,0.5631520000000001,-0.07002799999999999,-0.8003201,-0.4375,-2.905,-4.6725
1013,226727,0.5897479999999999,-0.067832,-0.798124,2.625,-0.2975,-1.925
1014,226823,0.5799880000000001,-0.08003201,-0.79422,4.9875,2.345,0.2625
1015,226919,0.554856,-0.09882,-0.793244,7.875,5.3025,2.1
1016,227016,0.595116,-0.12980799999999998,-0.789828,9.94,8.0675,3.99
1017,227112,0.582916,-0.116388,-0.8030041,11.235,9.17,4.97
1018,227208,0.5873079999999999,-0.086132,-0.8525360000000001,11.7775,10.3075,5.32
1019,227304,0.6375721,-0.158112,-0.733952,12.3025,10.99,5.53
1020,227401,0.583404,-0.17202,-0.799588,11.9175,11.9525,5.39
1021,227497,0.596092,-0.121024,-0.803736,11.4625,12.4425,4.5675
1022,227593,0.612684,-0.12468399999999999,-0.7890961,10.5,12.285,3.5525
1023,227689,0.5858439999999999,-0.172264,-0.7998321,9.5725,12.67,2.4325
1024,227786,0.6290319999999999,-0.14518,-0.807396,8.645,13.2125,1.1025
1025,227882,0.31451599999999996,-0.335256,-0.8283799999999999,10.0275,14.525,-2.5025
1026,227978,0.5743761,-0.175924,-0.8481440999999998,1.715,32.7075,-9.1525
1027,228074,0.549732,-0.262788,-0.8115439999999999,1.925,42.805,-17.045
1028,228171,0.54656,-0.21057199999999998,-0.8327720999999999,-1.8725,53.2175,-24.7625
1029,228267,0.562664,-0.17202,-0.812276,-0.8225,65.7125,-31.395
1030,228363,0.5499761,-0.150792,-0.8271601000000001,0.875,81.4975,-37.0475
1031,228460,0.5458281,-0.140544,-0.8066641,2.6075,99.5225,-41.0725
1032,228556,0.552172,-0.11834000000000001,-0.8230120999999999,3.8325,121.7825,-42.7525
1033,228652,0.557052,-0.123464,-0.8547319999999999,6.5275,144.6025,-42.63
1034,228748,0.6097560000000001,-0.10345599999999999,-0.87718,4.8825,160.055,-42.56
1035,228845,0.5826720000000001,-0.08759601,-0.864492,3.08,165.375,-45.22
1036,228941,0.5787680000000001,-0.09516001,-0.8525360000000001,0.7175,171.7975,-49.7525
1037,229037,0.539972,-0.09589201,-0.8383841000000001,-2.1,184.8875,-55.1425
1038,229133,0.5636399999999999,-0.052948,-0.827892,-1.8375,205.1,-62.4575
1039,229229,0.5673,-0.111996,-0.7993439999999999,-5.5475,222.11,-71.82
1040,229326,0.7129681,-0.00122,-0.7983680000000001,-11.305,242.7425,-80.29
1041,229422,0.8671761,-0.000976,-0.664168,-9.31,275.345,-77.9275
1042,229518,1.211948,0.047092,-0.586088,-14.3325,316.6625,-67.9525
1043,229614,1.228784,0.13298,-0.740052,-20.5625,363.1425,-52.08
1044,229711,1.447652,0.17128800000000002,-0.8166680000000001,-17.8325,372.96,-31.4125
1045,229807,1.4945,0.165676,-0.90402,4.7075,354.725,-7.105
1046,229903,1.2578200000000002,0.046848,-0.924516,40.04,322.98,16.94
1047,229999,1.005524,0.04514,-0.8361879999999999,70.91001,299.25,30.2575
1048,230096,1.538176,0.062952,-0.46603999999999995,92.5925,296.6075,44.1175
1049,230192,1.345172,-0.098088,-1.060424,127.26,353.6925,61.985
1050,230288,1.06628,-0.90402,-1.485472,168.1225,332.255,79.0825
1051,230385,0.180072,-1.879288,-2.154032,155.6625,214.655,109.55
1052,230481,1.1934040000000001,-1.9478520000000001,-2.596404,72.415,71.295,148.6275
1053,230577,1.292468,-1.5525719999999998,-2.359236,-40.005,-87.2725,173.285
1054,230673,-0.101748,-0.7178479999999999,-1.339316,-120.61,-189.0,177.87
1055,230769,-0.102724,-0.164456,-1.165832,-152.81,-216.4925,162.1025
1056,230866,0.15054800000000002,0.212524,-1.1163,-151.515,-237.44,140.77
1057,230962,0.266204,0.313784,-1.081408,-124.3375,-262.9025,116.97
1058,231058,0.404064,0.288652,-1.027728,-89.67,-284.69,86.17
1059,231154,0.452376,0.219356,-0.916952,-63.0875,-307.02,51.5375
1060,231251,0.47458,0.178608,-0.7951961,-48.1075,-323.925,16.7475
1061,231347,0.619272,0.202764,-0.71492,-41.265,-331.205,-16.9925
1062,231443,0.9076799999999999,0.197884,-0.70394,-29.6625,-329.6125,-46.0425
1063,231539,1.0438319999999999,0.122244,-0.6348881,-13.3525,-321.895,-69.23
1064,231636,0.9625799999999999,-0.032451999999999995,-0.49263599999999996,5.355,-308.3325,-89.7575
1065,231732,1.0377319999999999,-0.17812,-0.43066000000000004,23.38,-288.8375,-107.5725
1066,231828,1.232444,-0.35014,-0.403332,41.825,-272.0025,-120.19
1067,231924,1.267092,-0.576816,-0.34257600000000005,60.095,-259.8925,-124.53
1068,232021,1.2993,-0.8117880000000001,-0.34404,73.90250999999999,-245.07,-119.42
1069,232117,1.288808,-0.9906401,-0.309148,84.1925,-227.7625,-98.9275
1070,232213,1.2500120000000001,-1.102148,-0.266936,88.04251,-205.905,-60.9175
1071,232309,1.218292,-1.069696,-0.25522399999999995,80.43,-177.59,-14.1925
1072,232406,1.1838879999999998,-0.8727879999999999,-0.23472800000000002,65.17,-147.2975,29.8025
1073,232502,1.130452,-0.546804,-0.23424,44.24,-116.6375,60.2875
1074,232598,1.111664,-0.24351199999999998,-0.298168,27.615,-86.27501,74.6725
1075,232694,1.162416,-0.046360000000000005,-0.423096,19.88,-59.85,76.335
1076,232791,1.3644479999999999,-0.040504000000000005,-0.658556,18.0425,-43.2775,69.72
1077,232887,1.711904,-0.167384,-0.9372040999999999,13.125,-46.41,58.7475
1078,232983,1.821704,-0.230336,-1.0060120000000001,1.75,-75.28501,49.6125
1079,233079,1.526952,-0.10809200000000001,-0.7832399999999999,-11.235,-115.15,45.6225
1080,233176,1.2585520000000001,0.021716,-0.503128,-13.5625,-138.7925,41.7025
1081,233272,1.317844,-0.016836,-0.3965,-3.2725,-139.5625,34.125
1082,233368,1.425936,-0.1342,-0.331108,7.5075,-135.38,28.385
1083,233464,1.31028,-0.20788800000000002,-0.154452,9.9925,-135.73,30.975
1084,233561,1.20292,-0.205204,0.004636001,0.735,-129.8675,36.19
1085,233657,1.130696,-0.121512,0.11614400000000001,-18.0425,-114.1525,39.6025
1086,233753,1.1350879999999999,0.0017079999999999999,0.164456,-44.5725,-92.68001,38.395
1087,233849,1.24806,0.166164,0.152256,-69.23,-70.2275,32.235
1088,233946,1.3710360000000001,0.28938400000000003,0.156404,-83.265,-53.4625,25.0075
1089,234042,1.3712799999999998,0.35282399999999997,0.195444,-86.32751,-42.385,17.99
1090,234138,1.358592,0.34526,0.211548,-81.48001,-31.395,10.4125
1091,234234,1.2822200000000001,0.334768,0.256932,-73.325,-19.6,2.52
1092,234331,1.1960879999999998,0.330864,0.274256,-68.72251,-4.7075,-6.2825
1093,234427,1.248548,0.359656,0.15494000000000002,-73.955,13.3525,-20.3175
1094,234523,1.246108,0.49117200000000005,-0.045384,-83.65001,26.0225,-36.8025
1095,234619,0.685396,0.326472,-1.051884,-77.945,29.89,-64.12
1096,234716,0.49849209999999994,0.364292,-1.274412,-56.07,35.7,-92.5225
1097,234812,0.197152,0.252052,-1.798768,-29.96,53.2875,-106.61
1098,234908,0.5104479999999999,-0.753472,-1.368108,27.125,63.28,-88.5675
1099,235004,0.9108521,-1.143628,-0.6009720000000001,38.815,84.28,-73.3425
1100,235101,1.061644,-0.773724,-0.233752,7.4725,90.9825,-49.2625
1101,235197,1.1570479999999999,-0.018788,-1.054812,-15.9775,97.44,-12.5125
1102,235293,0.767624,0.46506400000000003,-1.1892559999999999,-19.005,78.7325,0.8575
1103,235389,0.510204,0.49995600000000007,-0.801784,2.8525,65.1875,-1.6975
1104,235486,0.9921040999999999,0.163968,-1.098732,23.555,69.6325,4.1825
1105,235582,1.12606,-0.019032,-0.9633120999999999,33.0575,46.27,15.4525
1106,235678,0.665144,-0.38356799999999996,-0.706136,32.515,4.375,15.5225
1107,235774,0.711504,-0.090036,-0.8662001,32.6025,20.5625,25.6725
1108,235871,0.712236,-0.10418800000000002,-0.8371639999999999,28.9625,9.94,24.7975
1109,235967,0.696132,-0.219844,-0.8020281,31.2725,9.3275,24.15
1110,236063,0.66856,-0.20496,-0.768356,29.6625,7.9275,23.5725
1111,236159,0.7134560999999999,-0.21032800000000001,-0.7766521,30.2925,9.3275,22.5925
1112,236256,0.625372,-0.22326,-0.7951961,29.995,8.54,21.2975
1113,236352,0.633668,-0.217404,-0.764696,29.26,8.225,19.11
1114,236448,0.621712,-0.235948,-0.764452,28.4725,8.225,17.6225
1115,236544,0.6039,-0.213988,-0.7829961,28.245,7.9275,16.9575
1116,236641,0.61732,-0.225944,-0.7829961,27.9825,7.9625,16.1525
1117,236737,0.5799880000000001,-0.239364,-0.76494,28.14,7.4375,15.4175
1118,236833,0.592432,-0.272548,-0.7442,27.2125,6.965,13.755
1119,236930,0.6007279999999999,-0.281088,-0.735904,24.9725,6.1075,11.795
1120,237026,0.592432,-0.251808,-0.739564,22.505,5.4075,10.395
1121,237122,0.586576,-0.258152,-0.735416,20.93,4.0075,9.135
1122,237218,0.599264,-0.25742,-0.7551800000000001,19.25,3.5175,8.4875
1123,237315,0.601704,-0.24644000000000002,-0.764696,18.0775,1.82,7.595
1124,237411,0.5795,-0.24424400000000002,-0.744688,17.9025,0.5075,6.9125
1125,237507,0.590968,-0.25790799999999997,-0.740296,17.2375,-0.175,5.635
1126,237603,0.5856,-0.2684,-0.744688,15.6975,-1.05,4.445
1127,237700,0.586088,-0.25522399999999995,-0.734928,14.63,-0.9975,3.4825
1128,237796,0.574864,-0.260592,-0.745908,13.3,-1.1375,3.08
1129,237892,0.59658,-0.262788,-0.738344,11.9525,-0.6475,2.03
1130,237988,0.5919439999999999,-0.251076,-0.7417600000000001,10.7975,-1.0675,1.435
1131,238085,0.568276,-0.267424,-0.7217521,9.73,-0.91,1.015
1132,238181,0.597068,-0.298168,-0.715408,8.3125,0.1575,0.07
1133,238277,0.568276,-0.280356,-0.72956,5.565,0.1575,-1.26
1134,238373,0.57218,-0.27694,-0.710284,2.2225,-1.5575,-2.6425
1135,238469,0.553392,-0.28767600000000004,-0.729072,0.14,-0.3675,-5.145
1136,238566,0.5665680000000001,-0.32452,-0.6878361,-3.78,-1.225,-8.2075
1137,238662,0.5655920999999999,-0.320128,-0.6973520000000001,-8.5225,-1.295,-11.1125
1138,238758,0.558028,-0.32866799999999996,-0.6954,-14.77,-2.205,-15.575
1139,238854,0.5636399999999999,-0.326472,-0.7017439999999999,-22.155,-4.2875,-21.1925
1140,238951,0.5734,-0.317688,-0.7156520000000001,-30.695,-7.875,-27.8425
1141,239047,0.5926760999999999,-0.28938400000000003,-0.741028,-39.445,-12.25,-34.3
1142,239143,0.6107319999999999,-0.290116,-0.734928,-45.5175,-16.7125,-38.6925
1143,239239,0.6124400999999999,-0.23521599999999998,-0.772992,-48.7025,-19.4775,-40.53
1144,239336,0.632204,-0.193248,-0.780068,-47.8625,-18.76,-40.915
1145,239432,0.619272,-0.171044,-0.7812880999999999,-45.29,-16.975,-38.955
1146,239528,0.6156119999999999,-0.16128399999999998,-0.7622561,-43.82,-17.36,-36.7325
1147,239624,0.589504,-0.182024,-0.764452,-42.0525,-16.3975,-34.7375
1148,239721,0.6466,-0.169336,-0.7861680999999999,-42.175,-16.555,-32.41
1149,239817,0.6109760000000001,-0.12175599999999999,-0.831308,-39.655,-16.03,-29.54
1150,239913,0.6573359999999999,-0.09735601,-0.80642,-32.97,-12.565,-26.11
1151,240009,0.625372,-0.091012,-0.82594,-25.515,-7.8225,-23.2575
1152,240106,0.580232,-0.094672,-0.8491200000000001,-19.3025,-4.6025,-20.3525
1153,240202,0.632448,-0.081496,-0.822768,-13.125,-0.21,-17.9375
1154,240298,0.620492,-0.107848,-0.8398479999999999,-7.5775,4.0075,-16.1175
1155,240394,0.6009720000000001,-0.008784,-0.903532,0.735,9.24,-14.6475
1156,240491,0.568764,-0.233996,-0.8315520000000001,16.275,16.0125,-15.4525
1157,240587,0.351116,-0.16104000000000002,-0.9340321,13.3525,32.9525,-17.85
1158,240683,0.485804,-0.131272,-0.9301280000000001,8.575,65.66,-19.25
1159,240779,0.472628,-0.172752,-0.8949921000000001,19.32,92.1025,-23.6075
1160,240876,0.446032,-0.1342,-0.9381801,21.035,125.8425,-27.125
1161,240972,0.377712,-0.09442801,-0.937448,29.155,163.5025,-29.645
1162,241068,0.42431599999999997,-0.135908,-0.958432,33.425,202.8075,-33.005
1163,241164,0.48678,-0.07832401,-1.019432,29.5575,227.85,-37.135
1164,241261,0.462136,-0.08637601,-0.9345201,23.3625,237.5975,-41.545
1165,241357,0.514108,-0.018788,-0.907436,16.7125,254.765,-43.8375
1166,241453,0.689056,0.03416,-0.9347639999999999,14.7175,271.005,-44.3975
1167,241549,0.7473721,0.016104,-0.72468,19.4775,285.0225,-39.165
1168,241646,0.9745360000000001,0.060024,-0.786656,25.025,322.7,-22.8375
1169,241742,1.328336,-0.00366,-0.673196,32.5675,348.8975,1.925
1170,241838,1.471076,0.06636801,-0.9379360000000001,29.5225,366.415,24.045
1171,241934,1.254648,0.0061,-0.72468,23.6075,360.955,40.18
1172,242031,1.226344,-0.110776,-0.874984,19.3025,353.9375,42.665
1173,242127,1.0060120000000001,-0.19276,-0.8400921,4.8825,338.975,37.0475
1174,242223,1.0821399999999999,-0.222284,-0.635376,-10.2725,337.96,33.1975
1175,242319,1.2580639999999998,-0.330376,-0.9557479999999999,-12.2675,380.275,35.6475
1176,242416,1.213168,-0.694912,-1.535492,-9.31,381.0275,45.885
1177,242512,0.6307401,-0.957944,-2.2118599999999997,-27.685,284.9,63.945
1178,242608,1.137528,-0.599996,-3.1719999999999997,-60.235,113.8025,77.3675
1179,242704,1.467416,-0.521184,-3.227388,-103.7575,-88.4275,53.3575
1180,242801,-0.36941599999999997,0.005856,-1.861476,-130.9875,-214.025,13.2125
1181,242897,-0.42212,0.19154000000000002,-1.514508,-115.1325,-252.385,-32.34
1182,242993,-0.011468,0.118096,-1.34932,-79.2225,-270.5675,-62.58
1183,243090,0.212524,-0.17934,-1.2221959999999998,-45.3775,-291.2525,-83.825
1184,243186,0.293044,-0.39528,-1.139724,-28.175,-306.425,-98.105
1185,243282,0.39284,-0.5282600000000001,-1.0882399999999999,-25.305,-322.5775,-101.57
1186,243378,0.5072760000000001,-0.5997520000000001,-1.016748,-27.8425,-336.4725,-94.6925
1187,243475,0.5785241,-0.599996,-0.8852321,-31.0625,-344.5925,-80.15
1188,243571,0.636108,-0.554124,-0.755424,-31.9375,-342.5275,-63.035
1189,243667,0.7195560000000001,-0.492148,-0.656848,-28.3325,-328.755,-48.1425
1190,243763,0.889136,-0.485804,-0.649284,-17.605,-308.5075,-37.065
1191,243860,1.02846,-0.511424,-0.628544,-4.4975,-291.375,-28.595
1192,243956,1.062376,-0.555832,-0.60878,6.615,-277.41,-21.4025
1193,244052,1.131672,-0.618784,-0.715408,13.195,-258.3175,-16.6075
1194,244148,1.301496,-0.612684,-0.8805960999999999,20.72,-239.6975,-10.4825
1195,244245,1.458388,-0.593896,-0.9286639999999999,32.4625,-229.9675,3.9725
1196,244341,1.474492,-0.524356,-0.7707961,39.6375,-225.4,23.1525
1197,244437,1.46644,-0.330864,-0.6068279999999999,37.625,-213.6925,36.225
1198,244533,1.607716,-0.099552,-0.5499761,35.6125,-190.9775,41.895
1199,244630,1.7921799999999999,-0.0122,-0.5382640000000001,48.195,-167.3175,46.585
1200,244726,2.038864,-0.082716,-0.49288000000000004,68.65250999999999,-151.1475,55.965
1201,244822,2.19112,-0.250832,-0.384788,79.135,-146.9825,67.4275
1202,244918,2.216252,-0.29743600000000003,-0.16104000000000002,66.60501,-156.1175,73.2025
1203,245015,2.048136,-0.15494000000000002,0.153232,41.6675,-166.5475,69.4925
1204,245111,1.9712759999999998,0.099552,0.42431599999999997,21.805,-164.3425,58.7825
1205,245207,1.879288,0.1403,0.58804,20.4925,-154.385,45.85
1206,245303,1.9720080000000002,0.299632,0.684664,32.9525,-139.2125,29.1725
1207,245400,1.725568,0.25058800000000003,0.917684,52.78,-122.5175,19.9675
1208,245496,1.516704,0.063684,1.303448,55.965,-77.77,7.2625
1209,245592,1.790716,0.023424,1.203408,23.45,8.8375,-10.1325
1210,245689,2.1347560000000003,0.122244,0.7686,-18.27,68.9675,-12.74
1211,245785,1.746552,0.101016,0.7176041,-40.2675,88.655,-7.1575
1212,245881,0.5614439999999999,0.260592,0.14688800000000002,-56.9975,121.1,0.2975
1213,245977,0.941108,0.151524,-1.526464,-63.4375,148.925,7.0
1214,246074,0.9555040000000001,0.400892,-1.62626,-52.395,142.94,5.53
1215,246170,0.9442801,0.428464,-0.899384,-29.5225,123.83,-10.0275
1216,246266,1.032608,0.22033200000000003,-0.7795801,-18.06,112.77,-22.0675
1217,246362,1.102392,-0.101504,-1.116544,-14.2275,102.235,-23.135
1218,246458,0.813496,-0.207644,-0.9252481,-12.1625,82.11,-20.4925
1219,246555,2.2201560000000002,0.014396,-1.8361,-17.0275,71.99501,-12.8975
1220,246651,0.340868,0.114192,-0.386984,-25.7425,7.175,-17.8325
1221,246747,0.8876719999999999,-0.2928,-1.040416,-15.015,8.05,-18.025
1222,246843,0.535824,-0.094672,-0.7046720999999999,-19.8625,0.385,-8.855
1223,246940,0.745664,-0.211304,-0.829356,-20.16,-2.52,-7.1225
1224,247036,0.667828,-0.314272,-0.765672,-20.9475,-13.4575,-8.6975
1225,247132,0.673928,-0.28987199999999996,-0.782752,-23.695,-15.925,-13.405
1226,247228,0.633668,-0.225212,-0.787388,-25.4975,-20.7375,-18.7075
1227,247325,0.611464,-0.17128800000000002,-0.7829961,-25.55,-21.8225,-22.1725
1228,247421,0.632448,-0.10931199999999999,-0.7922680000000001,-24.4125,-20.6675,-22.7325
1229,247517,0.655628,-0.07637200000000001,-0.7993439999999999,-21.665,-19.005,-21.105
1230,247613,0.645868,-0.054655999999999996,-0.7991,-18.445,-17.2375,-18.13
1231,247710,0.6314721,-0.060512,-0.80886,-14.7175,-15.4,-14.49
1232,247806,0.601216,-0.06832001,-0.8142281,-10.815,-12.845,-10.8675
1233,247902,0.5934081,-0.077348,-0.8117880000000001,-7.6125,-9.2925,-7.875
1234,247998,0.599264,-0.07856801,-0.8220360000000001,-4.2175,-5.775,-4.8125
1235,248095,0.611464,-0.072712,-0.813984,-1.0325,-2.7125,-1.8725
1236,248191,0.59902,-0.112972,-0.7893399999999999,1.61,-0.5775,0.63
1237,248287,0.60268,-0.121512,-0.7937320999999999,2.7825,0.6125,1.715
1238,248383,0.5897479999999999,-0.138348,-0.7883640000000001,2.9925,0.665,1.7325
1239,248480,0.58682,-0.157868,-0.779824,2.73,0.1225,0.9275
1240,248576,0.587796,-0.15420799999999998,-0.784216,1.7325,-0.9975,-0.5425
1241,248672,0.5648601,-0.15006,-0.7732359999999999,0.4025,-2.5725,-2.03
1242,248768,0.5702281,-0.147376,-0.783728,-0.5075,-3.605,-3.43
1243,248865,0.571448,-0.14396,-0.780068,-1.225,-4.4625,-4.83
1244,248961,0.573156,-0.147376,-0.775676,-1.995,-4.9525,-6.125
1245,249057,0.57218,-0.142252,-0.7705521,-3.2725,-5.775,-7.525
1246,249153,0.576084,-0.13639600000000002,-0.7759199999999999,-4.585,-6.02,-8.505
1247,249249,0.583648,-0.12029200000000001,-0.784704,-5.1975,-6.1075,-9.1175
1248,249346,0.576816,-0.098576,-0.793976,-4.76,-5.3725,-8.68
1249,249442,0.5458281,-0.07490801,-0.813496,-2.7825,-2.765,-7.6475
1250,249538,0.6080479999999999,-0.062952,-0.798124,-0.105,0.14,-5.705
1251,249634,0.5885281,-0.061732,-0.8147161,2.7825,1.995,-3.115
1252,249731,0.597312,-0.06490399999999999,-0.8149601,5.845,4.0775,-0.665
1253,249827,0.61122,-0.111752,-0.780312,8.2075,6.5975,1.82
1254,249923,0.590236,-0.120048,-0.7978801,9.2575,7.9975,3.1325
1255,250019,0.5914560000000001,-0.11345999999999999,-0.8100801,9.7125,9.1175,3.605
1256,250116,0.614392,-0.09442801,-0.8317960999999999,10.0625,9.9925,3.5875
1257,250212,0.62952,-0.180072,-0.739564,10.4475,10.71,3.3425
1258,250308,0.6109760000000001,-0.195688,-0.784704,9.1875,11.0425,2.205
1259,250404,0.6131721,-0.174216,-0.79666,8.1025,10.605,0.42
1260,250501,0.6070720000000001,-0.157868,-0.796904,6.58,10.4825,-2.0475
1261,250597,0.599996,-0.150304,-0.8020281,6.0025,10.71,-4.3225
1262,250693,0.32696,-0.2867,-0.8369200000000001,8.33,13.23,-7.3325
1263,250789,0.606096,-0.089304,-0.8461921,3.3075,32.6025,-11.6725
1264,250886,0.5631520000000001,-0.187148,-0.815448,6.9475,42.98,-15.505
1265,250982,0.5565640000000001,-0.1342,-0.8418,6.2475,52.7625,-18.69
1266,251078,0.557296,-0.125904,-0.81862,9.2925,65.345,-20.685
1267,251174,0.549244,-0.11541199999999999,-0.8230120999999999,10.7275,82.2325,-22.6975
1268,251271,0.540216,-0.11102000000000001,-0.834968,13.2475,101.5175,-24.4475
1269,251367,0.538508,-0.1098,-0.8095920999999999,15.68,122.4475,-25.5675
1270,251463,0.56242,-0.136884,-0.821792,18.06,146.4225,-27.0725
1271,251559,0.606584,-0.125904,-0.8488761,16.94,163.9925,-29.3825
1272,251656,0.603168,-0.134444,-0.8327720999999999,14.28,170.52,-32.3225
1273,251752,0.571936,-0.15762400000000001,-0.83204,10.255,174.3,-35.63
1274,251848,0.5797441,-0.071248,-0.800076,6.51,184.415,-39.865
1275,251944,0.5751081,-0.184952,-0.899384,4.9,199.36,-45.885
1276,252041,0.624396,-0.06636801,-0.7795801,-1.225,212.135,-55.0025
1277,252137,0.7198,-0.133224,-0.820084,-4.4625,236.6875,-65.065
1278,252233,0.8405800999999999,-0.070516,-0.71858,-7.3675,274.1725,-68.355
1279,252329,1.1836440000000001,-0.12468399999999999,-0.659044,-11.4625,314.7725,-63.35
1280,252426,1.297348,0.04148,-0.76982,-16.3625,365.8025,-51.8
1281,252522,1.5669680000000001,0.13054000000000002,-0.882548,-21.49,381.0625,-40.1275
1282,252618,1.519144,0.019275999999999998,-0.9674601,-11.97,361.4975,-23.73
1283,252714,1.2526959999999998,-0.09589201,-1.041636,7.245,331.6075,-10.36
1284,252811,1.069208,-0.15006,-0.8725440999999999,5.95,309.1725,-7.5075
1285,252907,1.28344,-0.15054800000000002,-0.85156,-2.2925,336.28,2.3975
1286,253003,1.242204,-0.299144,-1.2275639999999999,8.085,394.5725,5.5475
1287,253099,0.659776,-0.657824,-1.318576,17.92,350.5775,9.975
1288,253196,0.663924,-1.113616,-2.778184,6.9825,271.5825,28.245
1289,253292,2.169404,-1.375184,-3.113928,-11.83,70.2625,63.4725
1290,253388,1.3383399999999999,-1.091656,-2.651304,-48.86,-116.41,92.6625
1291,253484,-0.187148,-0.68686,-1.583316,-83.9125,-238.7175,95.9875
1292,253581,-0.288896,-0.28987199999999996,-1.2134120000000002,-104.93,-264.6875,81.25251
1293,253677,-0.09540401,-0.11224,-0.9977159999999999,-101.4825,-274.5575,69.1075
1294,253773,0.0793,-0.046848,-0.858392,-84.0525,-280.2975,58.485
1295,253869,0.19032000000000002,-0.061732,-0.8410681000000001,-62.93,-280.4025,43.4
1296,253966,0.343796,-0.071492,-0.8820601,-50.295,-284.935,24.395
1297,254062,0.475312,-0.041236,-0.908168,-45.2725,-294.5425,4.025
1298,254158,0.5612,-0.011224,-0.9208561,-40.495,-304.7275,-14.665
1299,254254,0.7141881,0.029036000000000003,-0.927932,-32.48,-311.6575,-29.0325
1300,254351,0.909632,0.057828,-0.8964561,-18.165,-315.6825,-38.5175
1301,254447,1.063108,0.030256,-0.826916,2.6425,-318.115,-45.78
1302,254543,1.16144,-0.057584,-0.7324881,25.235,-316.6275,-52.57
1303,254639,1.2256120000000001,-0.194956,-0.638304,44.765,-311.3075,-59.115
1304,254736,1.249036,-0.322324,-0.5553441,57.6625,-302.155,-62.2475
1305,254832,1.217072,-0.45115600000000006,-0.496784,64.26,-288.5925,-59.465
1306,254928,1.216584,-0.528748,-0.540704,65.8,-268.765,-51.7475
1307,255024,1.2900280000000002,-0.5002,-0.6258600000000001,69.2475,-245.1925,-36.575
1308,255121,1.467172,-0.424072,-0.7190681,79.345,-224.525,-11.4275
1309,255217,1.493036,-0.374296,-0.629764,86.4325,-210.665,16.9225
1310,255313,1.364692,-0.223504,-0.44847200000000004,80.92,-195.2125,36.995
1311,255409,1.329556,-0.071004,-0.335256,67.375,-168.4375,46.4275
1312,255506,1.539884,-0.017812,-0.426756,58.1525,-134.785,51.59
1313,255602,1.914668,-0.09418401,-0.586088,58.17,-110.7925,58.135
1314,255698,2.088884,-0.14274,-0.5694961,58.5375,-109.34,68.6875
1315,255794,1.94712,-0.183488,-0.323544,52.1325,-124.0925,78.435
1316,255891,1.8112119999999998,-0.139568,-0.010736,38.605,-137.2,78.925
1317,255987,1.736548,-0.045872,0.24497600000000003,25.9875,-136.675,69.8425
1318,256083,1.72386,0.13151600000000002,0.42578,21.1925,-128.4675,53.935
1319,256179,1.701656,0.278648,0.537044,33.39,-116.13,37.0125
1320,256276,1.63114,0.288896,0.6612401,59.3075,-99.82,23.9225
1321,256372,1.541104,0.233752,0.726388,82.32,-78.0325,14.875
1322,256468,1.519876,0.133224,0.6646561,90.86,-49.4725,8.2075
1323,256564,1.038952,-0.061,0.60634,81.2175,-21.98,2.45
1324,256661,1.42618,0.082228,0.9067040000000001,15.0325,30.1875,-24.465
1325,256757,1.521828,0.23668000000000003,0.400648,-50.4525,95.2175,-40.0925
1326,256853,1.625528,0.173728,0.217648,-75.5475,127.2425,-42.1575
1327,256949,0.371368,-0.431148,-0.791536,-82.11,132.0725,-44.065
1328,257046,0.650992,-0.23546,-1.64212,-91.8225,143.3775,-48.685
1329,257142,0.990884,0.12980799999999998,-1.02724,-66.0275,142.6775,-46.8825
1330,257238,1.068964,0.346968,-0.612684,-51.6425,138.6,-34.1425
1331,257334,1.322724,0.08759601,-1.1228879999999999,-44.7825,131.18,-15.995
1332,257431,2.8967680000000002,0.334524,-2.4382919999999997,-55.7375,95.3925,-11.9525
1333,257527,0.118096,0.053924,-0.039284,-57.96,-13.335,-41.02
1334,257623,1.128012,-0.40211199999999997,-1.176568,-42.665,1.8025,-43.26
1335,257719,0.42944,0.22423600000000002,-0.752496,-44.1,-3.5875,-26.2675
1336,257816,0.7671359999999999,0.004636001,-0.9340321,-32.9525,-4.2875,-20.5975
1337,257912,0.687104,-0.1464,-0.780068,-24.535,-15.3825,-10.9375
1338,258008,0.703696,-0.285724,-0.7707961,-19.67,-14.1225,-9.17
1339,258104,0.6729520999999999,-0.23424,-0.798856,-21.21,-18.7775,-11.515
1340,258201,0.646112,-0.21813600000000002,-0.788608,-20.3525,-18.585,-14.105
1341,258297,0.630008,-0.1708,-0.785192,-19.565,-17.4475,-15.68
1342,258393,0.631228,-0.123464,-0.800564,-17.465,-15.1375,-15.7325
1343,258489,0.602436,-0.09589201,-0.801296,-14.3675,-13.2475,-13.9825
1344,258586,0.61854,-0.094672,-0.796172,-10.8325,-10.745,-11.1825
1345,258682,0.596336,-0.09320801,-0.7991,-7.805,-8.855,-8.33
1346,258778,0.596092,-0.1098,-0.803492,-4.445,-6.44,-5.2675
1347,258874,0.5987760999999999,-0.129564,-0.7993439999999999,-1.8375,-4.865,-2.905
1348,258971,0.605364,-0.141764,-0.795928,-0.21,-3.15,-1.5575
1349,259067,0.5987760999999999,-0.148596,-0.783728,0.665,-2.275,-1.0325
1350,259163,0.589016,-0.16958,-0.7722600000000001,1.1375,-2.3975,-0.9975
1351,259260,0.604388,-0.177876,-0.7734800000000001,0.28,-3.2025,-2.03
1352,259356,0.5858439999999999,-0.185928,-0.7612800999999999,-1.4875,-4.655,-3.675
1353,259452,0.5738880000000001,-0.171044,-0.772016,-3.4475,-6.2125,-5.5475
1354,259548,0.57584,-0.16909200000000002,-0.7854361,-4.865,-6.6325,-6.8075
1355,259645,0.57706,-0.16104000000000002,-0.7890961,-5.6875,-6.4225,-7.6475
1356,259741,0.5702281,-0.162504,-0.784216,-6.3525,-6.335,-8.505
1357,259837,0.56852,-0.15396400000000002,-0.783972,-6.8775,-5.8975,-9.38
1358,259933,0.585356,-0.13908,-0.787144,-6.3875,-5.0225,-9.9925
1359,260030,0.5799880000000001,-0.136884,-0.7829961,-5.565,-4.165,-9.905
1360,260126,0.626836,-0.115656,-0.775188,-4.375,-2.7125,-9.52
1361,260222,0.5936520000000001,-0.108824,-0.798856,-3.57,-1.4,-9.3625
1362,260318,0.5936520000000001,-0.088328,-0.8010520000000001,-2.765,-0.5075,-8.0675
1363,260415,0.601216,-0.09540401,-0.8047121,-0.6475,0.77,-6.23
1364,260511,0.6034121,-0.07564,-0.823256,1.61,2.03,-4.025
1365,260607,0.601216,-0.088328,-0.7944641,4.48,3.5525,-1.365
1366,260703,0.6007279999999999,-0.10760399999999999,-0.7832399999999999,7.0525,5.46,1.155
1367,260800,0.59536,-0.114192,-0.8020281,8.75,6.5275,3.1325
1368,260896,0.61122,-0.144448,-0.771528,10.0625,7.455,4.515
1369,260992,0.598532,-0.156648,-0.787876,10.675,8.19,5.145
1370,261088,0.607316,-0.14274,-0.7983680000000001,10.7975,8.365,4.7775
1371,261185,0.607804,-0.132004,-0.812032,10.92,8.8025,4.095
1372,261281,0.606584,-0.161772,-0.794708,11.445,9.5725,3.465
1373,261377,0.604632,-0.151524,-0.7929999999999999,11.8475,10.395,2.5725
1374,261473,0.5795,-0.14762,-0.805932,15.33,11.375,1.26
1375,261570,0.43602799999999997,-0.240096,-0.8174001000000001,21.1225,14.3325,-0.735
1376,261666,0.5777920999999999,-0.121512,-0.8252079999999999,14.7,28.9625,-3.2375
1377,261762,0.5702281,-0.19397999999999999,-0.7944641,15.995,39.41,-5.425
1378,261858,0.5726680000000001,-0.142008,-0.7998321,15.5575,47.0225,-7.49
1379,261955,0.551928,-0.17934,-0.805932,17.115,57.54,-8.925
1380,262051,0.5612,-0.172996,-0.8020281,17.115,70.8925,-11.1825
1381,262147,0.555588,-0.21594000000000002,-0.801296,17.5175,88.2875,-15.1375
1382,262243,0.541192,-0.231068,-0.7903161,16.45,105.805,-21.7525
1383,262340,0.568032,-0.19251600000000002,-0.77104,15.3125,124.8625,-29.2425
1384,262436,0.574132,-0.250832,-0.8730319999999999,12.7225,144.025,-35.245
1385,262532,0.5826720000000001,-0.216916,-0.8796200000000001,9.2575,154.105,-39.8125
1386,262628,0.6109760000000001,-0.167872,-0.8364321,2.1525,161.385,-45.64
1387,262725,0.5414359999999999,-0.233264,-0.8679081,0.56,172.76,-51.9925
1388,262821,0.555588,-0.073688,-0.8762040000000001,-5.0575,185.185,-57.995
1389,262917,0.5799880000000001,-0.13664,-0.877668,-1.995,198.6425,-65.1175
1390,263013,0.619516,-0.024644,-0.725168,-5.9325,217.735,-71.015
1391,263110,0.726876,-0.08417999999999999,-0.7788480999999999,-6.4925,252.2625,-71.085
1392,263206,0.979416,0.00488,-0.661728,-7.6475,284.41,-64.295
1393,263302,1.1855959999999999,-0.042944,-0.6197600000000001,-8.855,339.2025,-52.6925
1394,263398,1.251476,0.03538,-0.6956439999999999,-24.465,382.83,-38.15
1395,263495,1.45668,0.031964,-0.765672,-31.4825,390.145,-25.8475
1396,263591,1.56526,0.0427,-0.8937719999999999,-33.88,373.275,-18.8825
1397,263687,1.268556,-0.057339999999999995,-0.8962120000000001,-23.485,341.95,-10.9725
1398,263783,1.064816,-0.142496,-0.8642481,-17.4475,315.49,-10.85
1399,263880,1.066524,-0.241804,-0.687348,-23.905,301.525,-3.675
1400,263976,1.485472,-0.156404,-0.709064,-24.7275,345.8175,11.0075
1401,264072,1.33346,-0.18544000000000002,-1.303204,1.015,407.9775,23.2575
1402,264168,0.767868,-0.3721,-1.3620079999999999,34.3,342.9125,31.57
1403,264265,0.9113399999999999,-0.450424,-3.008032,63.91,240.5725,49.7525
1404,264361,2.952156,-1.2458639999999999,-3.4147800000000004,87.3075,34.685,69.055
1405,264457,1.1575360000000001,-1.1916959999999999,-2.124996,38.2025,-159.6,74.7425
1406,264553,-0.10809200000000001,-0.793976,-1.281976,-28.6125,-266.1575,52.08
1407,264650,-0.128588,-0.343552,-0.996008,-73.7275,-279.4925,30.555
1408,264746,0.154452,-0.14078800000000002,-0.9418401,-74.165,-277.6375,27.2125
1409,264842,0.37454,-0.166164,-0.869128,-48.615,-280.07,35.2625
1410,264938,0.439932,-0.258396,-0.81862,-21.8575,-288.435,46.4625
1411,265035,0.408456,-0.33671999999999996,-0.7610359999999999,-12.5825,-300.8775,49.6825
1412,265131,0.44652,-0.280356,-0.7217521,-27.09,-314.5625,38.955
1413,265227,0.550952,-0.14347200000000002,-0.72712,-47.5475,-323.5225,19.95
1414,265323,0.657092,0.036844,-0.7332201,-58.31,-328.195,-1.1375
1415,265420,0.73078,0.16104000000000002,-0.7137001000000001,-51.5025,-330.05,-19.39
1416,265516,0.794952,0.18056,-0.66368,-29.715,-325.92,-34.44
1417,265612,0.8174001000000001,0.086864,-0.589016,-2.0475,-315.7875,-46.2875
1418,265708,0.9137799999999999,-0.11028800000000001,-0.5636399999999999,22.3125,-299.74,-54.7225
1419,265805,1.068232,-0.334524,-0.5785241,37.52,-283.2025,-58.4325
1420,265901,1.08702,-0.4819,-0.5602239999999999,43.33,-269.815,-55.2125
1421,265997,1.003816,-0.5919439999999999,-0.5231359999999999,42.9625,-256.235,-44.765
1422,266093,1.019188,-0.6141479999999999,-0.618784,40.145,-236.88,-29.645
1423,266189,1.198528,-0.57096,-0.772992,39.9525,-216.7725,-8.155
1424,266286,1.329312,-0.499712,-0.86498,39.4625,-205.03,18.13
1425,266382,1.240984,-0.366732,-0.755912,31.7625,-199.815,40.0225
1426,266478,1.130452,-0.13908,-0.624396,16.135,-186.8475,50.1725
1427,266574,1.140456,-0.005612,-0.581696,4.235,-161.2975,50.645
1428,266671,1.369328,-0.036112,-0.70516,4.06,-130.725,48.93
1429,266767,1.850496,-0.147376,-0.966728,12.8625,-110.0575,52.885
1430,266863,2.217228,-0.23448400000000003,-1.0401719999999999,24.57,-115.395,66.1325
1431,266959,2.329956,-0.251808,-0.859368,29.2775,-144.5325,82.0925
1432,267056,2.043988,-0.166652,-0.36575599999999997,21.49,-181.2475,89.74
1433,267152,1.74826,0.010004,0.179828,7.6475,-201.3725,81.165
1434,267248,1.9061279999999998,0.1525,0.37746799999999997,5.1275,-190.225,60.27
1435,267344,1.772416,0.301584,0.596092,18.9,-172.76,40.18
1436,267441,1.562088,0.419192,1.319308,37.6775,-141.8375,18.3225
1437,267537,1.634068,0.37502800000000003,1.4032440000000002,62.72,-78.62751,1.1025
1438,267633,2.020076,0.192028,1.17852,71.4875,-8.1725,-11.235
1439,267729,1.9727400000000002,0.050996,0.9503799999999999,56.49,35.56,-18.865
1440,267826,1.735328,0.062952,0.756644,20.265,67.7775,-26.6525
1441,267922,1.60552,0.14786400000000002,0.6158561,-8.1375,101.395,-35.2625
1442,268018,0.648552,0.150304,-0.077348,-28.105,131.4075,-45.08
1443,268114,1.023824,-0.3233,-1.565504,-38.92,143.9375,-51.0825
1444,268211,1.04188,-0.101992,-1.522316,-37.17,127.5225,-55.58
1445,268307,0.9433041,0.1891,-0.668072,-21.56,105.9975,-56.0175
1446,268403,1.134112,0.159088,-0.877912,-17.7625,102.7075,-45.8325
1447,268499,1.16632,-0.029768,-1.2261,-8.715,90.79,-35.0875
1448,268596,0.6895439999999999,-0.058803999999999995,-0.8376520000000001,-3.8325,63.8925,-34.09
1449,268692,2.045696,-0.460672,-1.5677,-3.9375,56.805,-29.4875
1450,268788,0.544852,-0.12468399999999999,-0.415288,-30.835,4.235,-21.805
1451,268884,0.8786440999999999,-0.303048,-1.025776,-25.3925,-3.2025,-21.91
1452,268981,0.624396,0.017812,-0.809348,-25.1125,-1.9425,-13.125
1453,269077,0.6810039999999999,-0.143228,-0.765428,-15.1725,-7.56,-10.4475
1454,269173,0.764208,-0.199104,-0.8464360000000001,-10.7625,-3.78,-5.0575
1455,269269,0.638304,-0.156404,-0.802272,-6.4925,-4.4275,-3.4825
1456,269366,0.6785640000000001,-0.135664,-0.817156,-3.885,-1.715,-1.645
1457,269462,0.633424,-0.163724,-0.8100801,-0.3675,-0.875,-0.245
1458,269558,0.620736,-0.142008,-0.8025161,1.6625,0.0,1.1375
1459,269654,0.616588,-0.148352,-0.793976,4.0425,1.2775,2.625
1460,269751,0.6182960999999999,-0.17324,-0.788852,6.5625,2.6075,3.955
1461,269847,0.6036560999999999,-0.163236,-0.789828,8.12,4.13,4.935
1462,269943,0.590236,-0.186904,-0.760792,9.135,5.39,5.32
1463,270039,0.575596,-0.23911999999999997,-0.74664,7.9275,5.18,4.2525
1464,270136,0.570472,-0.25132,-0.7227279999999999,4.3225,4.1475,1.9075
1465,270232,0.582916,-0.24863600000000002,-0.7320001,-1.1725,2.87,-1.3825
1466,270328,0.5892601,-0.233752,-0.72102,-7.0175,0.8575,-4.9875
1467,270424,0.599996,-0.264984,-0.7317560000000001,-13.335,-0.7875,-9.2925
1468,270521,0.586088,-0.27328,-0.74542,-19.67,-4.585,-12.8275
1469,270617,0.586088,-0.24766,-0.75884,-23.6775,-8.4175,-15.8025
1470,270713,0.592188,-0.223016,-0.772748,-26.3375,-12.88,-18.6725
1471,270809,0.590236,-0.198372,-0.76982,-27.755,-17.6575,-21.21
1472,270906,0.59536,-0.17055599999999999,-0.7759199999999999,-27.93,-20.9475,-22.9775
1473,271002,0.5734,-0.148596,-0.780556,-27.685,-22.435,-24.15
1474,271098,0.5897479999999999,-0.132736,-0.777384,-27.3175,-22.085,-24.185
1475,271194,0.576084,-0.114924,-0.783972,-27.0375,-22.2775,-22.995
1476,271291,0.595604,-0.109556,-0.791048,-25.8475,-21.035,-21.56
1477,271387,0.5814520000000001,-0.10906800000000001,-0.793488,-23.4325,-18.06,-20.02
1478,271483,0.6168319999999999,-0.05612,-0.8047121,-20.5275,-14.84,-17.5875
1479,271579,0.5875520000000001,-0.063928,-0.81252,-15.82,-10.22,-14.5775
1480,271676,0.598288,-0.06344,-0.815692,-11.2175,-6.51,-11.62
1481,271772,0.604876,-0.061,-0.8195960999999999,-6.195,-3.4825,-8.8025
1482,271868,0.5897479999999999,-0.0793,-0.815204,-2.52,-0.14,-6.3175
1483,271964,0.590968,-0.08417999999999999,-0.8086161000000001,0.875,2.3275,-4.095
1484,272061,0.609024,-0.082716,-0.817156,4.4975,4.865,-1.715
1485,272157,0.601216,-0.087108,-0.817156,7.49,6.8775,0.1575
1486,272253,0.593164,-0.123464,-0.8066641,9.52,8.4875,1.715
1487,272349,0.596336,-0.131028,-0.805932,10.5525,9.66,2.135
1488,272446,0.6009720000000001,-0.132248,-0.8003201,11.0075,11.095,2.0475
1489,272542,0.595604,-0.125904,-0.7986121,11.4975,12.425,2.31
1490,272638,0.60634,-0.127368,-0.7937320999999999,11.9525,13.5975,2.5375
1491,272734,0.609268,-0.12395199999999999,-0.791292,12.8275,15.365,2.8175
1492,272831,0.614392,-0.032208,-0.8315520000000001,14.455,18.0075,3.2025
1493,272927,0.5294800000000001,-0.15396400000000002,-0.820084,21.805,20.37,2.9575
1494,273023,0.393816,-0.211548,-0.8823040000000001,23.0825,32.165,0.98
1495,273119,0.534848,-0.223016,-0.8271601000000001,15.2425,55.1775,-2.8525
1496,273216,0.522892,-0.201544,-0.8725440999999999,18.445,68.915,-8.2425
1497,273312,0.530456,-0.16226,-0.8281360999999999,18.5675,85.71500999999999,-14.595
1498,273408,0.46848,-0.171776,-0.877424,21.1225,109.235,-20.7725
1499,273504,0.5292359999999999,-0.11614400000000001,-0.8296,19.075,135.485,-26.6175
1500,273601,0.520208,-0.225212,-0.8796200000000001,20.1075,162.3125,-31.3425
1501,273697,0.6158561,-0.10931199999999999,-0.8483879999999999,14.49,177.4325,-35.56
1502,273793,0.555588,-0.188856,-0.8959681,11.6025,185.4825,-38.745
1503,273889,0.5987760999999999,-0.042212,-0.7812880999999999,2.87,190.505,-41.0725
1504,273986,0.558272,-0.227652,-0.8549761,0.945,202.1075,-43.2075
1505,274082,0.7041841,-0.046848,-0.80276,-8.54,211.2075,-46.935
1506,274178,0.589504,-0.150304,-0.7239479999999999,-6.1775,224.2975,-52.29
1507,274274,0.7134560999999999,-0.125904,-0.826428,-14.4725,256.9875,-56.9275
1508,274371,0.9345201,-0.141276,-0.631228,-22.47,294.735,-54.6875
1509,274467,1.280024,0.027083999999999997,-0.729804,-36.785,349.4925,-49.4025
1510,274563,1.16388,0.01342,-0.73688,-41.4225,396.83,-34.895
1511,274659,1.4898639999999999,0.07344400000000001,-0.7515201,-50.2775,405.4225,-24.115
1512,274756,1.525244,-0.006587999999999999,-0.927932,-47.9675,389.27,-11.165
1513,274852,1.3085719999999998,0.004392,-1.000156,-36.96,355.81,-2.6425
1514,274948,1.073356,-0.153232,-0.892064,-31.57,328.2125,-1.575
1515,275044,1.256844,-0.27205999999999997,-0.6378159999999999,-37.3625,315.6825,8.05
1516,275141,1.4356959999999999,-0.1952,-0.9032879999999999,-36.1025,368.27,27.545
1517,275237,1.356884,-0.264496,-1.3764040000000002,-10.9025,414.33,35.1575
1518,275333,0.5514399999999999,-0.812276,-1.679452,8.6275,332.5175,42.77
1519,275429,1.390556,-0.9501360999999999,-2.6901,15.3825,187.95,73.09751
1520,275526,2.893596,-1.323212,-3.61608,4.9525,-18.13,102.515
1521,275622,0.388448,-0.871568,-1.918816,-51.485,-214.9525,105.8575
1522,275718,-0.36892800000000003,-0.37088000000000004,-1.286856,-84.42,-271.775,82.0575
1523,275814,-0.06539201,-0.07198,-1.154608,-85.225,-276.9725,63.245
1524,275911,0.311344,-0.064172,-1.096536,-60.2525,-282.8875,55.825
1525,276007,0.453596,-0.203008,-1.039928,-31.5,-295.0325,54.565
1526,276103,0.45383999999999997,-0.328912,-0.983808,-15.015,-310.065,51.5725
1527,276199,0.44652,-0.348188,-0.887184,-18.5325,-326.7425,44.485
1528,276296,0.443592,-0.26156799999999997,-0.7808001,-33.3725,-338.1175,34.2125
1529,276392,0.60878,-0.104432,-0.7766521,-47.145,-340.1125,19.075
1530,276488,0.83204,0.06270801,-0.797148,-48.3,-337.3825,1.015
1531,276584,0.9357401,0.10906800000000001,-0.7822640000000001,-32.76,-333.2875,-17.36
1532,276681,0.969412,0.039528,-0.73078,-8.82,-328.09,-36.505
1533,276777,1.0911680000000001,-0.09320801,-0.720776,14.2625,-322.4025,-53.6025
1534,276873,1.233176,-0.258884,-0.72102,32.2175,-317.8875,-62.965
1535,276969,1.209264,-0.369172,-0.655628,42.2275,-313.0925,-61.25
1536,277066,1.2075559999999999,-0.453108,-0.67588,45.185,-301.875,-51.0825
1537,277162,1.391532,-0.457012,-0.800564,42.35,-286.3875,-36.0675
1538,277258,1.486448,-0.34648,-0.8261841000000001,39.9,-275.5375,-16.275
1539,277354,1.5279280000000002,-0.18104800000000001,-0.7417600000000001,41.8775,-266.0175,5.9675
1540,277451,1.636264,-0.09540401,-0.648552,42.07,-253.085,23.5025
1541,277547,1.7080000000000002,-0.037088,-0.5504641,28.9975,-239.295,30.5725
1542,277643,1.830976,0.049044,-0.537044,3.2375,-223.3875,26.5125
1543,277739,2.067412,0.189588,-0.538508,-18.69,-205.8525,18.585
1544,277836,2.2662720000000003,0.24936799999999998,-0.43505200000000005,-23.1175,-193.725,15.365
1545,277932,2.228696,0.19642,-0.052948,-19.7925,-189.63,10.99
1546,278028,2.065216,0.086864,0.472872,-18.4975,-184.3625,-5.4425
1547,278124,2.069852,0.0549,0.8439959999999999,-17.9725,-169.4,-30.9575
1548,278221,2.1959999999999997,0.107116,0.983808,-1.2775,-142.1875,-48.545
1549,278317,2.1657439999999997,0.114436,1.11264,34.79,-114.5375,-47.635
1550,278413,2.02276,-0.020008,1.209264,73.99,-83.545,-32.76
1551,278509,1.8646479999999999,-0.132492,1.1829120000000002,88.795,-46.7775,-15.5925
1552,278606,1.749236,-0.121268,0.9525761,71.575,-7.8925,-3.535
1553,278702,2.043988,-0.4148,1.522804,33.7925,28.105,-1.435
1554,278798,0.774212,0.327692,0.306464,-40.25,93.7125,-20.9475
1555,278894,0.919392,-0.20837600000000003,-1.264408,-35.175,117.0225,-27.895
1556,278991,-0.054412,-0.271816,-1.3298,-28.8925,108.255,-31.6575
1557,279087,0.357216,-0.166164,-1.105808,-1.505,117.9675,-51.4675
1558,279183,1.085556,-0.23253200000000002,-0.6463561,8.2775,143.0975,-63.665
1559,279279,1.425448,-0.2135,-0.8003201,-8.4175,138.5825,-53.375
1560,279376,1.387628,-0.187148,-1.162416,-15.75,116.8475,-32.5675
1561,279472,0.9762440999999998,-0.089304,-1.016016,-20.37,88.27,-23.3625
1562,279568,0.8786440999999999,0.072712,-0.9208561,-16.9575,75.35501,-16.4325
1563,279664,0.8203280000000001,0.23424,-0.9821,-7.8575,69.0725,-5.635
1564,279761,1.647488,0.18446400000000002,-1.4966959999999998,2.3275,59.185,-1.2075
1565,279857,0.5260640000000001,-0.0051240009999999996,-0.549244,2.7825,16.2925,-3.9725
1566,279953,0.856196,-0.48556000000000005,-0.913536,8.6975,0.4375,-3.9375
1567,280049,0.577304,-0.081984,-0.735172,3.08,4.13,5.0575
1568,280146,0.71004,-0.20105599999999998,-0.855708,3.9375,-1.4525,3.955
1569,280242,0.616344,-0.22057600000000002,-0.759328,5.8975,-3.465,5.32
1570,280338,0.6646561,-0.190564,-0.793244,7.315,-0.245,6.4925
1571,280435,0.641232,-0.17641199999999999,-0.7881199999999999,9.31,1.6625,7.7
1572,280531,0.638548,-0.181536,-0.7761640999999999,11.7075,2.905,8.5575
1573,280627,0.6375721,-0.156404,-0.790072,13.895,4.585,9.94
1574,280723,0.6273241,-0.16592,-0.793244,16.905,6.7025,11.6375
1575,280819,0.613416,-0.165188,-0.786412,20.44,8.575,13.4225
1576,280916,0.6039,-0.174704,-0.79056,23.1525,10.5525,14.735
1577,281012,0.6070720000000001,-0.20496,-0.7766521,25.27,11.095,15.26
1578,281108,0.60146,-0.22204000000000002,-0.769332,26.18,11.4275,15.645
1579,281204,0.575596,-0.229116,-0.746152,25.935,11.1825,15.365
1580,281301,0.6197600000000001,-0.270108,-0.71858,26.005,10.85,14.8225
1581,281397,0.5926760999999999,-0.270352,-0.7320001,24.325,10.2025,14.49
1582,281493,0.59536,-0.28377199999999997,-0.705892,21.56,8.7675,12.74
1583,281589,0.5968241,-0.30182800000000004,-0.72224,18.3575,7.455,10.535
1584,281686,0.6109760000000001,-0.330376,-0.7076001000000001,14.525,5.635,7.1575
1585,281782,0.58804,-0.310368,-0.71492,10.395,3.92,3.4125
1586,281878,0.59292,-0.302804,-0.721996,6.02,2.135,-0.4375
1587,281974,0.597068,-0.28938400000000003,-0.7141881,1.89,0.8225,-4.27
1588,282071,0.5997520000000001,-0.25986,-0.734196,-1.295,-0.1575,-7.0875
1589,282167,0.604388,-0.2501,-0.734928,-3.57,-1.0325,-9.1875
1590,282263,0.606096,-0.24082800000000001,-0.739564,-5.0925,-1.47,-10.2725
1591,282359,0.613416,-0.233996,-0.750544,-5.8975,-1.785,-10.85
1592,282456,0.6097560000000001,-0.22643200000000002,-0.746396,-6.6675,-2.0125,-11.1825
1593,282552,0.606584,-0.23692399999999997,-0.733708,-7.42,-2.9575,-10.885
1594,282648,0.6095119999999999,-0.230336,-0.748592,-7.315,-2.2225,-10.2025
1595,282744,0.615368,-0.239852,-0.726876,-7.2975,-1.995,-9.905
1596,282841,0.604144,-0.21472,-0.756644,-6.9475,-0.875,-9.4325
1597,282937,0.604388,-0.230336,-0.7376119999999999,-7.35,-1.05,-9.3275
1598,283033,0.614636,-0.23009200000000002,-0.74298,-7.2275,-0.28,-9.2575
1599,283129,0.6029241,-0.251564,-0.726876,-8.3475,-0.5425,-10.3425
1600,283226,0.601216,-0.250344,-0.7373681,-9.8175,-1.1725,-11.9175
1601,283322,0.6170760000000001,-0.245952,-0.7329760000000001,-11.9525,-1.7675,-13.2475
1602,283418,0.625128,-0.23692399999999997,-0.746396,-13.02,-1.3125,-13.93
1603,283514,0.616588,-0.22472399999999998,-0.7439560000000001,-14.5425,-1.96,-14.2625
1604,283610,0.650992,-0.203496,-0.7612800999999999,-14.9975,-1.26,-13.86
1605,283707,0.644648,-0.193004,-0.772016,-13.7375,0.0175,-12.8975
1606,283803,0.640012,-0.18446400000000002,-0.777628,-12.5125,1.4875,-10.9375
1607,283899,0.64294,-0.165188,-0.785924,-10.15,3.3775,-8.26
1608,283995,0.6409881,-0.16689600000000002,-0.789828,-6.5625,6.195,-5.67
1609,284092,0.6317159999999999,-0.14762,-0.7944641,-2.205,9.8,-3.1325
1610,284188,0.582184,-0.019275999999999998,-0.9001161,4.8125,15.47,-0.9275
1611,284284,0.596092,-0.22789600000000002,-0.7951961,20.9475,23.205,-0.0525
1612,284380,0.370148,-0.315492,-0.815936,20.16,36.4,-0.35
1613,284477,0.557296,-0.217892,-0.8169121,14.8575,61.8275,-4.935
1614,284573,0.5553441,-0.201544,-0.807396,21.735,79.7825,-8.3475
1615,284669,0.518988,-0.21106,-0.8249639999999999,23.38,98.42,-11.4275
1616,284765,0.544608,-0.192028,-0.8247200000000001,25.8125,120.68,-14.805
1617,284862,0.5736441,-0.196176,-0.7856801,25.445,143.0975,-17.3425
1618,284958,0.5814520000000001,-0.18446400000000002,-0.8791321,23.5025,160.2825,-19.25
1619,285054,0.601216,-0.139324,-0.829356,20.615,171.3075,-19.635
1620,285150,0.6117081,-0.18544000000000002,-0.8252079999999999,19.8625,184.24,-18.6025
1621,285247,0.6463561,-0.130052,-0.815936,14.0,194.8275,-16.8875
1622,285343,0.726388,-0.172996,-0.7500560000000001,12.6175,206.465,-13.1075
1623,285439,0.593896,-0.098088,-0.8371639999999999,12.67,226.2925,-2.905
1624,285535,0.9650200999999999,-0.132492,-0.7517640999999999,8.3475,251.1775,5.2675
1625,285632,0.9630681000000001,-0.145912,-0.675148,8.26,301.1225,13.0375
1626,285728,1.102636,-0.022448,-0.792024,2.0125,343.035,26.1625
1627,285824,1.210728,0.011224,-0.8976761000000001,2.5725,373.8525,42.3325
1628,285920,1.384212,-0.15372,-0.628544,0.21,380.1,54.7225
1629,286017,1.410076,-0.22716399999999998,-0.883768,-10.15,381.71,62.755
1630,286113,1.180228,-0.183488,-1.087264,-33.1275,371.7875,50.505
1631,286209,1.339072,-0.323788,-1.289784,-37.1,355.8275,42.8225
1632,286305,1.62016,-0.352092,-1.0979999999999999,-19.1275,355.845,57.1375
1633,286402,1.510848,-0.25986,-1.690432,20.79,396.6725,85.99501
1634,286498,0.25058800000000003,-0.7834840000000001,-2.0364240000000002,40.5825,291.6375,66.99
1635,286594,1.719956,-0.5502199999999999,-3.252764,7.5075,89.5125,47.0575
1636,286690,1.200236,-0.22643200000000002,-3.109048,-30.765,-117.005,-14.6475
1637,286787,-0.6463561,0.21447600000000003,-1.7970599999999999,-51.415,-259.07,-69.3875
1638,286883,-0.205936,-0.116632,-1.5020639999999998,-0.0525,-263.4625,-98.91001
1639,286979,0.18056,-0.6563601,-1.282708,32.0425,-278.0925,-100.52
1640,287075,0.25424800000000003,-0.96624,-1.097756,23.1,-299.8975,-91.0875
1641,287171,0.203008,-1.0077200000000002,-0.9572120999999999,-13.405,-319.6375,-74.585
1642,287268,0.1769,-0.8193521,-0.8518040000000001,-54.88,-331.2575,-58.03
1643,287364,0.21301199999999998,-0.549488,-0.7849480999999999,-81.3575,-334.04,-43.2075
1644,287460,0.200324,-0.26766799999999996,-0.675148,-84.595,-327.4775,-30.8525
1645,287556,0.339404,-0.1464,-0.713212,-63.42,-307.86,-24.6225
1646,287653,0.7076001000000001,-0.219356,-0.8759601,-30.6425,-285.635,-25.025
1647,287749,0.9333,-0.41504399999999997,-0.9289081,-3.6575,-279.8425,-23.9225
1648,287845,1.047492,-0.5453399999999999,-0.9057280999999999,4.0775,-286.2125,-21.49
1649,287941,1.191208,-0.5692520000000001,-0.877912,-1.9775,-290.7975,-20.4925
1650,288038,1.357372,-0.5282600000000001,-0.86864,-7.8925,-290.0975,-18.515
1651,288134,1.563308,-0.519476,-0.832528,-3.9375,-287.42,-12.705
1652,288230,1.739232,-0.538996,-0.6897880999999999,6.0025,-286.7725,-2.205
1653,288326,1.82634,-0.514596,-0.51362,12.915,-282.4325,10.6225
1654,288423,2.0461840000000002,-0.4933681,-0.35868,18.0075,-271.6525,23.5025
1655,288519,2.10938,-0.429684,-0.164456,19.11,-258.965,33.635
1656,288615,2.174772,-0.36844,0.018544,18.655,-244.1775,40.285
1657,288711,2.140612,-0.26766799999999996,0.223504,18.7775,-228.9175,44.52
1658,288808,2.121824,-0.164456,0.462868,20.9475,-210.875,46.4625
1659,288904,2.234308,0.223748,0.784704,18.97,-176.505,31.8675
1660,289000,2.5800560000000003,0.194712,0.835456,31.2025,-118.685,7.4725
1661,289096,2.3894919999999997,0.17763199999999998,1.152412,32.9175,-85.71500999999999,-8.015
1662,289193,2.162816,0.166164,1.4435040000000001,32.165,-63.805,-21.0525
1663,289289,2.259928,0.23155599999999998,1.845616,27.1775,-13.615,-31.395
1664,289385,2.478064,0.43358800000000003,2.435608,12.2675,54.81,-34.0025
1665,289481,1.6348,0.369172,0.93086,-14.945,139.0725,-30.8875
1666,289578,1.622356,-0.447984,-2.749392,-10.045,172.13,-17.5
1667,289674,0.392596,0.540948,-0.8849879999999999,-28.665,103.18,-13.5275
1668,289770,1.26514,0.225212,-0.9652639999999999,-8.9425,113.2075,-27.3525
1669,289866,1.088484,-0.134932,-1.158512,8.3475,101.43,-22.19
1670,289963,1.8873400000000002,-0.535092,-1.4208120000000002,-6.2475,62.72,-15.1025
1671,290059,0.696376,-0.332084,-0.516304,-25.375,6.44,-16.94
1672,290155,0.8808401,-0.034648000000000005,-1.0004,-14.77,18.9,-11.27
1673,290251,0.72468,0.002928,-0.8403360000000001,-9.275,4.76,-4.655
1674,290348,0.725412,-0.188612,-0.775676,5.04,5.4425,1.89
1675,290444,0.674416,-0.303048,-0.758108,7.9625,0.42,5.7925
1676,290540,0.6258600000000001,-0.31354,-0.7473721,5.18,-3.0275,3.92
1677,290636,0.6117081,-0.304512,-0.7390760000000001,1.33,-6.1075,0.035
1678,290733,0.599508,-0.29768,-0.7612800999999999,-1.995,-7.455,-3.3775
1679,290829,0.591212,-0.27694,-0.74908,-4.4625,-8.2075,-6.4575
1680,290925,0.5892601,-0.24717199999999998,-0.75274,-6.7025,-7.98,-8.6975
1681,291021,0.589016,-0.25058800000000003,-0.753472,-8.2775,-7.735,-10.3425
1682,291118,0.5873079999999999,-0.230336,-0.7473721,-9.8,-7.7525,-11.27
1683,291214,0.598288,-0.21008400000000002,-0.7571321,-10.7275,-6.8075,-11.8825
1684,291311,0.605364,-0.18422,-0.758596,-11.445,-6.2475,-11.655
1685,291406,0.599508,-0.192028,-0.7793359999999999,-12.2675,-5.39,-11.5675
1686,291503,0.564372,-0.188612,-0.74664,-12.6875,-4.97,-11.1475
1687,291599,0.6117081,-0.17519200000000001,-0.6856399999999999,-13.545,-3.4825,-11.34
1688,291695,0.6197600000000001,-0.24668400000000001,-0.8052,-14.245,-2.8525,-14.77
1689,291792,0.5363121,-0.264008,-0.7076001000000001,-13.9825,-5.285,-12.32
1690,291888,0.6156119999999999,-0.163968,-0.761524,-16.5025,-2.3625,-12.0575
1691,291984,0.612928,-0.22496799999999997,-0.7664041,-18.5675,-4.7425,-14.0175
1692,292080,0.630008,-0.2135,-0.758108,-19.845,-6.4925,-14.1575
1693,292177,0.5919439999999999,-0.2135,-0.7564001,-17.8675,-6.65,-13.93
1694,292273,0.6107319999999999,-0.15982000000000002,-0.790804,-20.055,-6.195,-14.63
1695,292369,0.577304,-0.15372,-0.7625,-18.41,-6.9825,-14.455
1696,292465,0.5702281,-0.11541199999999999,-0.768844,-17.5525,-6.72,-14.245
1697,292562,0.6036560999999999,-0.20642399999999997,-0.7483479999999999,-16.065,-8.2075,-13.965
1698,292658,0.596092,-0.1159,-0.796416,-14.1225,-6.895,-12.145
1699,292754,0.5885281,-0.134688,-0.7712840999999999,-13.2825,-6.8425,-11.3925
1700,292850,0.5978,-0.146644,-0.785192,-12.74,-7.105,-10.6225
1701,292947,0.561932,-0.139324,-0.7659161,-13.335,-7.49,-10.36
1702,293043,0.583648,-0.15762400000000001,-0.768844,-13.09,-6.545,-10.5175
1703,293139,0.6068279999999999,-0.13859200000000002,-0.7761640999999999,-12.4775,-3.8675,-10.5525
1704,293235,0.58194,-0.119072,-0.799588,-11.34,-1.0675,-10.2725
1705,293332,0.628544,-0.12175599999999999,-0.790072,-7.8225,1.645,-9.485
1706,293428,0.620492,-0.10126,-0.8103239999999999,-5.0225,3.605,-8.5925
1707,293524,0.62342,-0.126148,-0.795928,-1.9775,5.845,-7.525
1708,293620,0.6161,-0.11248399999999999,-0.800076,-0.105,7.6825,-7.0525
1709,293717,0.625128,-0.10736,-0.8044680999999999,1.7325,9.7825,-6.3
1710,293813,0.6231760999999999,-0.136152,-0.7983680000000001,3.6575,11.3925,-5.4425
1711,293909,0.620492,-0.130296,-0.8039801,4.235,12.53,-5.32
1712,294006,0.6222,-0.150304,-0.780312,5.6,14.2625,-5.04
1713,294102,0.619516,-0.13639600000000002,-0.800076,7.8575,17.2375,-5.4425
1714,294198,0.39284,-0.266204,-0.889868,15.54,21.56,-7.1925
1715,294294,0.485804,-0.071248,-0.9289081,12.3725,42.84,-12.7925
1716,294391,0.514596,-0.30182800000000004,-0.8439959999999999,8.9425,70.1225,-19.18
1717,294487,0.48922,-0.110044,-0.916952,10.85,90.7375,-24.9025
1718,294583,0.477996,-0.1952,-0.8791321,12.88,119.84,-28.91
1719,294679,0.520208,-0.16201600000000002,-0.850584,13.72,152.215,-33.25
