,T,ax,ay,az,gx,gy,gz
0,4210401,0.9153661,0.026718000000000002,-0.17202,18.55,-16.59,-14.98
1,4210557,0.8874280999999999,0.034404000000000004,-0.28328400000000004,-25.795,-11.06,-177.17
2,4210655,0.9231739999999999,0.040626,-0.305122,-78.5225,29.05,-270.9
3,4210753,0.925126,0.05185,-0.310002,21.6125,-88.7775,-86.15250999999999
4,4210851,0.9263459999999999,0.043432,-0.31158800000000003,10.85,-11.235,-8.3475
5,4210949,0.946232,0.036722000000000005,-0.30805,13.7725,-6.7025,-4.1825
6,4211047,0.9678261,0.029524,-0.30341399999999996,13.755,-7.0525,-4.2875
7,4211144,0.984906,0.037332,-0.301706,12.565,-7.42,-3.955
8,4211242,1.00101,0.037332,-0.31146599999999997,12.985,-8.5575,-3.6575
9,4211340,0.987102,0.010858,-0.310856,13.3175,-9.66,-3.43
10,4211438,0.9990581000000001,0.024522,-0.32879,12.9675,-10.5875,-3.43
11,4211536,0.980514,0.008662000999999999,-0.343796,14.5075,-12.5825,-3.185
12,4211634,0.95465,0.002928,-0.364292,14.6475,-14.175,-3.255
13,4211732,0.9450120000000001,0.036722000000000005,-0.375272,16.1175,-15.995,-3.535
14,4211830,0.856806,-0.05612,-0.37027,24.5875,-18.1825,-3.815
15,4211928,0.8464360000000001,0.007320001,-0.43676000000000004,21.6125,-16.66,-5.075
16,4212026,0.838628,0.005246,-0.44078599999999996,29.995,-10.7625,-6.0025
17,4212123,0.8547319999999999,0.008784,-0.433954,41.545,2.8875,-7.1225
18,4212221,0.8846219999999999,0.000122,-0.382714,47.5475,24.22,-8.575
19,4212319,0.9469641,-0.015006,-0.27510999999999997,46.69,47.32,-9.5725
20,4212417,0.9924700000000001,-0.046482,-0.188246,37.345,61.075,-9.6075
21,4212515,1.263066,-0.196786,0.180926,20.0725,56.1925,-8.6275
22,4212613,1.03273,0.102968,-0.067588,-31.605,12.9325,-0.56
23,4212711,0.9474520000000001,0.027938,-0.140544,-28.91,-42.2975,1.8025
24,4212809,0.9531860000000001,-0.018788,-0.25376,0.77,-48.2825,-1.7675
25,4212907,0.9204901,-0.011101999999999999,-0.32086,5.4425,-31.605,-4.305
26,4213005,0.9263459999999999,-0.020618,-0.326594,6.16,-12.565,-5.145
27,4213102,0.937326,-0.025863999999999998,-0.310734,2.87,-6.86,-4.585
28,4213200,0.9391560999999999,-0.030012,-0.29097,-1.5575,-9.695,-3.8675
29,4213298,0.9436701,-0.032818,-0.273768,-4.27,-12.11,-3.4125
30,4213396,0.95099,-0.02928,-0.261202,-6.0025,-10.92,-3.0625
31,4213494,0.951844,-0.026718000000000002,-0.258884,-6.755,-8.5575,-2.8525
32,4213592,0.954284,-0.023424,-0.260348,-6.2125,-7.665,-2.765
33,4213690,0.951844,-0.021106,-0.267058,-5.5125,-8.19,-2.765
34,4213788,0.95099,-0.021106,-0.274378,-5.18,-9.1525,-2.73
35,4213886,0.946232,-0.018056,-0.27999,-5.1975,-9.6775,-2.555
36,4213984,0.9450120000000001,-0.014884,-0.281088,-5.3025,-9.3625,-2.45
37,4214081,0.9444020000000001,-0.01403,-0.279014,-5.32,-8.715,-2.38
38,4214179,0.943426,-0.01403,-0.275476,-5.2675,-8.2075,-2.38
39,4214277,0.94306,-0.011468,-0.27389,-5.3025,-7.7525,-2.38
40,4214375,0.9439139999999999,-0.011346,-0.27279200000000003,-5.425,-7.35,-2.275
41,4214473,0.9446460999999999,-0.012078,-0.276086,-5.565,-6.8775,-2.4325
42,4214571,0.9465981,-0.012444,-0.280966,-5.53,-6.545,-2.415
43,4214669,0.9467200000000001,-0.011224,-0.28121,-5.355,-5.8975,-2.555
44,4214767,0.945744,-0.014274,-0.282918,-5.1275,-5.285,-2.7125
45,4214865,0.9456220999999999,-0.01525,-0.28304,-4.8825,-4.9875,-2.7825
46,4214963,0.9431821,-0.016836,-0.28609,-4.62,-4.795,-2.9925
47,4215060,0.9412299999999999,-0.017812,-0.288042,-4.4275,-4.725,-3.045
48,4215158,0.940132,-0.019154,-0.28853,-4.41,-4.795,-3.2725
49,4215256,0.9408639999999999,-0.02196,-0.29036,-4.55,-4.76,-3.255
50,4215354,0.9413520000000001,-0.025376,-0.292556,-4.69,-4.585,-3.22
51,4215452,0.9415959999999999,-0.027206,-0.29377600000000004,-4.7775,-4.5675,-3.2375
52,4215550,0.9442801,-0.026718000000000002,-0.295118,-5.1625,-4.445,-3.0975
53,4215648,0.94611,-0.025498,-0.29426399999999997,-5.495,-4.4275,-2.975
54,4215746,0.949526,-0.023546,-0.29402,-5.74,-4.48,-2.8875
55,4215844,0.9516,-0.022326,-0.294508,-5.845,-4.515,-2.8
56,4215942,0.9540401,-0.019764,-0.294752,-5.8975,-4.83,-2.8175
57,4216039,0.9540401,-0.018544,-0.294752,-5.8275,-4.83,-2.8175
58,4216137,0.9531860000000001,-0.018788,-0.29402,-5.81,-4.795,-2.8175
59,4216235,0.9516,-0.019642,-0.294996,-5.7225,-4.9,-2.905
60,4216333,0.9505020000000001,-0.019398,-0.297558,-5.705,-5.0225,-3.0275
61,4216431,0.9496479999999999,-0.019764,-0.297192,-5.6175,-5.18,-3.22
62,4216529,0.9489161,-0.020496,-0.298412,-5.4425,-5.18,-3.395
63,4216627,0.9476959999999999,-0.019642,-0.29743600000000003,-5.3025,-5.1975,-3.57
64,4216725,0.9474520000000001,-0.020008,-0.29829,-5.215,-5.285,-3.71
65,4216823,0.9456220999999999,-0.017812,-0.298656,-5.0225,-5.4775,-3.9025
66,4216920,0.9442801,-0.016592,-0.30012,-4.76,-5.67,-3.955
67,4217018,0.9440360999999999,-0.016714,-0.29731399999999997,-4.515,-5.8275,-3.9725
68,4217116,0.942206,-0.017324000000000003,-0.298534,-4.2525,-6.0025,-4.0425
69,4217214,0.940742,-0.01647,-0.29902199999999995,-4.0425,-6.0375,-4.1125
70,4217312,0.940254,-0.015128,-0.29987600000000003,-3.885,-5.88,-4.2175
71,4217410,0.9398880999999999,-0.014396,-0.300852,-3.745,-5.915,-4.445
72,4217508,0.940254,-0.01403,-0.297802,-3.5525,-5.95,-4.6375
73,4217606,0.941718,-0.012444,-0.29572800000000005,-3.29,-6.2825,-4.865
74,4217704,0.9436701,-0.0122,-0.29487399999999997,-3.0275,-6.4925,-5.005
75,4217801,0.9439139999999999,-0.01342,-0.29365399999999997,-2.8,-6.6675,-5.11
76,4217899,0.944524,-0.014762,-0.29377600000000004,-2.5725,-6.755,-5.2325
77,4217997,0.9451341000000001,-0.014518000000000001,-0.295118,-2.31,-6.8775,-5.145
78,4218095,0.944768,-0.013908000000000002,-0.2928,-2.345,-6.9125,-5.215
79,4218193,0.945744,-0.013908000000000002,-0.292678,-2.4675,-6.9475,-5.0575
80,4218291,0.9486720999999999,-0.01037,-0.294752,-2.6425,-6.8775,-4.7775
81,4218389,0.9474520000000001,-0.009516001,-0.294508,-2.6425,-6.7025,-4.515
82,4218487,0.946842,-0.008540001,-0.293532,-2.3625,-6.44,-4.48
83,4218585,0.946232,-0.008540001,-0.293532,-2.1175,-6.3875,-4.4975
84,4218682,0.944524,-0.006587999999999999,-0.291214,-1.6275,-6.475,-4.4625
85,4218780,0.9459880999999999,-0.0051240009999999996,-0.289018,-1.155,-6.545,-4.7075
86,4218878,0.9463540000000001,-0.00183,-0.291214,-0.7525,-6.51,-5.04
87,4218976,0.9456220999999999,-0.000488,-0.289018,-0.21,-6.3875,-5.6175
88,4219074,0.944768,-0.000244,-0.28926199999999996,0.2275,-6.16,-6.1425
89,4219172,0.943426,0.002196,-0.288774,0.595,-5.915,-6.72
90,4219270,0.9409860999999999,0.001342,-0.28767600000000004,0.8925,-5.7925,-7.07
91,4219368,0.9403761,-0.001098,-0.29036,0.98,-5.74,-7.2275
92,4219466,0.9385460999999999,0.00122,-0.291458,0.91,-5.425,-7.4025
93,4219564,0.9378139999999999,-0.002562,-0.294752,0.7525,-5.1275,-7.245
94,4219661,0.9375700000000001,-0.005246,-0.296094,0.7175,-4.6375,-6.9825
95,4219759,0.9362280000000001,-0.007564001,-0.294996,0.805,-4.2,-6.685
96,4219857,0.9337880999999999,-0.006954000000000001,-0.293166,0.9625,-4.13,-6.4225
97,4219955,0.9358620999999999,-0.008540001,-0.294142,0.9625,-4.3225,-6.09
98,4220053,0.9403761,-0.008052001,-0.293044,1.0325,-4.6025,-5.95
99,4220151,0.9433041,-0.006222,-0.29072600000000004,1.2425,-4.795,-5.9675
100,4220249,0.94855,-0.004026,-0.28926199999999996,1.505,-4.725,-6.3
101,4220347,0.951356,-0.002562,-0.288408,1.715,-4.62,-6.7375
102,4220445,0.9514780999999999,0.000732,-0.28609,1.89,-4.515,-7.07
103,4220543,0.9500139999999999,0.001586,-0.28328400000000004,2.0475,-4.165,-7.2975
104,4220641,0.9531860000000001,0.001098,-0.282796,2.2925,-3.9375,-7.3325
105,4220738,0.9502581,0.0017079999999999999,-0.28328400000000004,2.38,-3.7975,-7.42
106,4220836,0.9514780999999999,-0.000732,-0.282308,2.4325,-3.6925,-7.35
107,4220934,0.951722,-0.0008540001,-0.282796,2.38,-3.6575,-7.175
108,4221032,0.9514780999999999,-0.004392,-0.28462600000000005,2.17,-3.5,-7.035
109,4221130,0.9506241,-0.007076001,-0.282674,2.0125,-3.4475,-6.86
110,4221228,0.9530641,-0.008296000999999999,-0.282796,1.9075,-3.3775,-6.545
111,4221326,0.951844,-0.009882,-0.284138,1.6975,-3.2725,-6.3875
112,4221424,0.9526979999999999,-0.010004,-0.28377199999999997,1.4,-3.36,-6.3
113,4221522,0.9541620000000001,-0.011346,-0.282796,1.2075,-3.2725,-6.125
114,4221620,0.953308,-0.012444,-0.281454,0.945,-3.1675,-6.1775
115,4221717,0.9507460999999999,-0.013663999999999999,-0.282064,0.6825,-2.975,-6.055
116,4221815,0.950868,-0.013541999999999998,-0.281332,0.2975,-3.0275,-5.9675
117,4221913,0.9505020000000001,-0.01281,-0.282308,-0.07,-3.29,-5.9325
118,4222011,0.950868,-0.009637999999999999,-0.283528,-0.3675,-3.535,-5.95
119,4222109,0.9530641,-0.008784,-0.281454,-0.5075,-3.605,-5.88
120,4222207,0.953674,-0.0064659999999999995,-0.275354,-0.6475,-3.71,-5.7925
121,4222305,0.9530641,-0.004514,-0.275964,-0.91,-4.06,-5.775
122,4222403,0.95465,-0.0035380000000000003,-0.273524,-0.91,-4.55,-5.6
123,4222501,0.9575780999999999,-0.002196,-0.27071799999999996,-0.9975,-4.8475,-5.5475
124,4222599,0.9581881,-0.002074,-0.267424,-1.1375,-5.005,-5.6525
125,4222696,0.9589200999999999,-0.002074,-0.265716,-1.19,-4.935,-5.67
126,4222794,0.957822,-0.003904,-0.265594,-1.295,-4.9,-5.9325
127,4222892,0.957456,-0.004514,-0.26352,-1.365,-5.11,-6.1075
128,4222990,0.957334,-0.006344,-0.25656599999999996,-1.54,-5.11,-6.3
129,4223088,0.9562360999999999,-0.0061,-0.25742,-1.8025,-4.865,-6.405
130,4223186,0.9575780999999999,-0.007076001,-0.253882,-2.1,-4.8125,-6.37
131,4223284,0.957334,-0.007320001,-0.25376,-2.5725,-4.6025,-6.3
132,4223382,0.9587979999999999,-0.008052001,-0.255102,-3.0275,-4.5325,-6.125
133,4223480,0.9585541,-0.008052001,-0.25742,-3.2375,-4.34,-5.775
134,4223578,0.9587979999999999,-0.008540001,-0.256688,-3.57,-4.0775,-5.4775
135,4223675,0.9575780999999999,-0.006832001,-0.2562,-3.85,-3.85,-5.075
136,4223773,0.9572120999999999,-0.006344,-0.260226,-4.0775,-3.6575,-4.6375
137,4223871,0.957334,-0.00488,-0.26461799999999996,-4.2175,-3.6575,-4.3575
138,4223969,0.9580661,-0.004148001,-0.26657,-4.375,-3.675,-4.1475
139,4224067,0.9595300999999999,-0.001586,-0.266204,-4.34,-3.7975,-4.025
140,4224165,0.959408,0.002196,-0.264862,-4.1475,-3.815,-4.06
141,4224263,0.9602620999999999,0.00549,-0.265838,-4.1125,-3.9025,-4.1475
142,4224361,0.96441,0.007808001,-0.264496,-4.0425,-4.025,-4.375
143,4224459,0.9623360999999999,0.010004,-0.264252,-3.85,-4.095,-4.585
144,4224556,0.9613601,0.010004,-0.264008,-3.5525,-4.305,-4.8125
145,4224654,0.9625799999999999,0.008784,-0.264374,-3.185,-4.4625,-5.005
146,4224752,0.9623360999999999,0.009272001,-0.263642,-3.0275,-4.83,-5.145
147,4224850,0.9630681000000001,0.00671,-0.26474000000000003,-2.8,-5.1975,-5.2325
148,4224948,0.9628241,0.00427,-0.262544,-2.66,-5.4425,-5.32
149,4225046,0.9642879999999999,0.0034159999999999998,-0.263398,-2.5375,-5.74,-5.145
150,4225144,0.96624,0.002562,-0.2623,-2.415,-5.8275,-5.11
151,4225242,0.9655081,0.00244,-0.265472,-2.3975,-5.985,-4.97
152,4225340,0.9648979999999999,0.003904,-0.264008,-2.3275,-6.2475,-4.9
153,4225438,0.9651421,0.004758,-0.264984,-2.1175,-6.335,-4.8125
154,4225535,0.96441,0.0061,-0.26657,-2.065,-6.4925,-4.8125
155,4225633,0.963922,0.006832001,-0.266692,-1.7675,-6.7375,-4.795
156,4225731,0.9633120999999999,0.008174001,-0.26766799999999996,-1.645,-7.035,-4.8475
157,4225829,0.9609940999999999,0.010248,-0.269498,-1.435,-7.2625,-4.76
158,4225927,0.95831,0.010736,-0.268156,-1.225,-7.28,-4.7425
159,4226025,0.955992,0.011956,-0.270108,-1.12,-7.42,-4.7425
160,4226123,0.9516,0.011956,-0.270962,-0.875,-7.5075,-4.7425
161,4226221,0.949526,0.010126000000000001,-0.271206,-0.595,-7.5425,-4.76
162,4226319,0.9486720999999999,0.008784,-0.27205999999999997,-0.4375,-7.5075,-4.725
163,4226416,0.9464761,0.008662000999999999,-0.271816,-0.2975,-7.5075,-4.725
164,4226514,0.9451341000000001,0.007808001,-0.27218200000000004,-0.14,-7.4375,-4.655
165,4226612,0.9440360999999999,0.00976,-0.274012,0.0175,-7.1575,-4.6725
166,4226710,0.945866,0.00976,-0.274744,-0.0525,-7.035,-4.7775
167,4226808,0.9472079999999999,0.011101999999999999,-0.274134,0.0875,-6.8775,-4.83
168,4226906,0.9500139999999999,0.01281,-0.274256,0.1925,-6.6325,-4.8475
169,4227004,0.9514780999999999,0.011956,-0.274256,0.28,-6.6325,-4.865
170,4227102,0.953674,0.009637999999999999,-0.2745,0.3325,-6.37,-4.8825
171,4227200,0.9541620000000001,0.010248,-0.27266999999999997,0.5425,-6.3875,-4.935
172,4227297,0.9535521,0.008662000999999999,-0.27389,0.735,-6.195,-4.9525
173,4227395,0.9547720999999999,0.008662000999999999,-0.277062,0.9625,-6.125,-5.145
174,4227493,0.9548940999999999,0.005856,-0.27523200000000003,0.9975,-6.3525,-5.1625
175,4227591,0.954528,0.003904,-0.276818,0.98,-6.4575,-5.075
176,4227689,0.95709,0.003904,-0.278648,0.9975,-6.58,-5.075
177,4227787,0.9577,0.00244,-0.27816,1.085,-6.72,-5.04
178,4227885,0.9562360999999999,0.002562,-0.27876999999999996,1.1025,-6.9475,-5.11
179,4227983,0.957334,0.004026,-0.278404,1.0325,-7.035,-5.145
180,4228081,0.9562360999999999,0.005002,-0.278526,1.155,-7.0,-5.215
181,4228178,0.9547720999999999,0.004636001,-0.280356,1.33,-7.035,-5.285
182,4228276,0.95221,0.004026,-0.280844,1.295,-7.1575,-5.5125
183,4228374,0.9514780999999999,0.0032939999999999996,-0.279624,1.225,-7.3325,-5.53
184,4228472,0.949526,0.0008540001,-0.280356,1.12,-7.4025,-5.7575
185,4228570,0.9476959999999999,0.00061,-0.279746,0.98,-7.42,-5.845
186,4228668,0.9467200000000001,-0.0008540001,-0.280356,0.8575,-7.2975,-5.915
187,4228766,0.948184,-0.0032939999999999996,-0.281942,0.6125,-7.35,-5.8275
188,4228863,0.947818,-0.0032939999999999996,-0.28157600000000005,0.385,-7.2625,-5.8275
189,4228961,0.948184,-0.004392,-0.28181999999999996,0.2275,-7.245,-5.705
190,4229059,0.9489161,-0.004392,-0.280966,0.0525,-7.175,-5.6175
191,4229157,0.9480620000000001,-0.003782,-0.27999,-0.0875,-7.21,-5.46
192,4229255,0.9487940999999999,-0.0035380000000000003,-0.27889200000000003,-0.2275,-7.07,-5.39
193,4229353,0.9490379999999999,-0.00183,-0.279502,-0.21,-6.72,-5.25
194,4229451,0.947818,-0.00061,-0.277672,-0.2275,-6.51,-5.215
195,4229549,0.947818,-0.003172,-0.279624,-0.28,-6.335,-5.11
196,4229647,0.9494040000000001,-0.002684,-0.278038,-0.4725,-6.0375,-5.145
197,4229744,0.9470860000000001,-0.000976,-0.27816,-0.525,-5.845,-5.1275
198,4229842,0.947818,-0.00061,-0.27876999999999996,-0.56,-5.635,-5.075
199,4229940,0.9450120000000001,-0.0008540001,-0.27755,-0.56,-5.39,-5.145
200,4230038,0.942816,-0.0017079999999999999,-0.27718400000000004,-0.7875,-5.18,-5.1625
201,4230136,0.9444020000000001,-0.001464,-0.278648,-1.085,-5.1275,-5.1625
202,4230234,0.944524,-0.003904,-0.27816,-1.1725,-5.0225,-5.145
203,4230332,0.94489,-0.005002,-0.278526,-1.3475,-4.7425,-5.25
204,4230430,0.9437921,-0.005612,-0.275354,-1.5925,-4.34,-5.0925
205,4230528,0.9439139999999999,-0.005978,-0.27523200000000003,-1.96,-4.2525,-4.97
206,4230625,0.9440360999999999,-0.005856,-0.274744,-2.345,-4.1125,-4.8475
207,4230723,0.94489,-0.004392,-0.27694,-2.59,-3.85,-4.8125
208,4230821,0.9484280999999999,-0.0035380000000000003,-0.275964,-2.8525,-3.675,-4.725
209,4230919,0.9490379999999999,0.000244,-0.27145,-2.9925,-3.3775,-4.515
210,4231017,0.949892,0.002806,-0.270108,-3.08,-3.15,-4.5675
211,4231115,0.9503799999999999,0.005368,-0.26900999999999997,-3.22,-3.1675,-4.445
212,4231213,0.951356,0.00427,-0.270596,-3.36,-3.08,-4.3575
213,4231311,0.950868,0.004636001,-0.269254,-3.535,-2.66,-4.27
214,4231409,0.9501360999999999,0.001952,-0.269376,-3.6925,-2.5725,-4.2
215,4231507,0.9496479999999999,0.002318,-0.269742,-3.8325,-2.4675,-4.0425
216,4231605,0.9535521,0.001342,-0.270108,-3.9725,-2.45,-3.9725
217,4231702,0.9558701,0.0017079999999999999,-0.271206,-4.06,-2.31,-4.095
218,4231800,0.9590420000000001,0.001952,-0.271816,-4.06,-2.345,-4.13
219,4231898,0.9602620999999999,0.002074,-0.272426,-3.9025,-2.3625,-4.0425
220,4231996,0.9618481,0.004392,-0.271694,-3.8325,-2.485,-3.9025
221,4232094,0.96319,0.006222,-0.273524,-3.85,-2.6425,-3.815
222,4232192,0.9633120999999999,0.006587999999999999,-0.273768,-3.7625,-2.94,-3.8325
223,4232290,0.9653860000000001,0.007076001,-0.27389,-3.71,-3.2725,-3.6925
224,4232388,0.9655081,0.006954000000000001,-0.275476,-3.605,-3.745,-3.815
225,4232486,0.9650200999999999,0.006954000000000001,-0.274378,-3.3425,-4.2175,-3.815
226,4232583,0.964776,0.008662000999999999,-0.274988,-3.115,-4.5325,-3.7625
227,4232681,0.9627020000000001,0.009516001,-0.275598,-2.905,-4.865,-3.7625
228,4232779,0.96075,0.009882,-0.274866,-2.7125,-5.1625,-3.8675
229,4232877,0.964044,0.010492,-0.27523200000000003,-2.415,-5.635,-3.99
230,4232975,0.9619700000000001,0.011590000000000001,-0.274256,-2.1875,-6.0025,-4.06
231,4233073,0.9602620999999999,0.013908000000000002,-0.270596,-1.8725,-6.1425,-4.1475
232,4233171,0.9586761,0.013054,-0.270962,-1.54,-6.5275,-4.2875
233,4233269,0.9564799999999999,0.014762,-0.269742,-1.155,-6.825,-4.34
234,4233367,0.9539181000000001,0.01708,-0.268766,-0.77,-6.72,-4.445
235,4233465,0.9512341000000001,0.014884,-0.267424,-0.455,-6.72,-4.62
236,4233562,0.9528200000000001,0.014884,-0.263642,-0.14,-6.895,-4.865
237,4233660,0.9541620000000001,0.015616,-0.259738,0.315,-7.1225,-5.215
238,4233758,0.956968,0.01403,-0.259128,0.735,-7.21,-5.4775
239,4233856,0.957944,0.014884,-0.25961599999999996,1.0675,-7.1225,-5.775
240,4233954,0.9618481,0.016225999999999997,-0.257054,1.365,-6.825,-5.8975
241,4234052,0.961726,0.016958,-0.255346,1.855,-6.5625,-6.2125
242,4234150,0.961482,0.018544,-0.255956,2.31,-6.055,-6.4225
243,4234248,0.96014,0.017568,-0.25681,2.6075,-5.4775,-6.4925
244,4234346,0.9564799999999999,0.017934000000000002,-0.256932,2.87,-5.1275,-6.6325
245,4234443,0.9548940999999999,0.017812,-0.25498000000000004,3.01,-4.5675,-6.79
246,4234541,0.9500139999999999,0.013175999999999998,-0.255834,3.2375,-4.27,-6.8425
247,4234639,0.948184,0.011101999999999999,-0.25925,3.43,-4.13,-6.9125
248,4234737,0.9455,0.008906,-0.25961599999999996,3.64,-3.9025,-7.14
249,4234835,0.942084,0.007198,-0.25986,3.78,-3.5,-7.175
250,4234933,0.94001,0.004636001,-0.264862,3.78,-3.01,-7.14
251,4235031,0.937448,0.001952,-0.265716,3.43,-2.6075,-6.965
252,4235129,0.9368380999999999,0.001952,-0.266814,3.1325,-2.135,-6.79
253,4235226,0.936716,-0.00122,-0.26718000000000003,2.8,-1.8725,-6.58
254,4235324,0.9376921,-0.00122,-0.266936,2.38,-1.75,-6.3525
255,4235422,0.940742,-0.001098,-0.266936,2.0125,-1.435,-6.09
256,4235520,0.9451341000000001,-0.001464,-0.26718000000000003,1.68,-1.47,-5.88
257,4235618,0.9490379999999999,-0.002806,-0.268156,1.3125,-1.505,-5.67
258,4235716,0.953308,-0.00183,-0.270962,1.0325,-1.3475,-5.285
259,4235814,0.957944,-0.002074,-0.27084,0.8225,-1.12,-5.145
260,4235912,0.9609940999999999,-0.004148001,-0.271938,0.63,-1.0675,-5.0575
261,4236010,0.962458,-0.00244,-0.27218200000000004,0.42,-1.1025,-4.865
262,4236107,0.9648979999999999,-0.004392,-0.273036,0.2625,-1.435,-4.7075
263,4236205,0.9653860000000001,-0.004636001,-0.274378,0.21,-1.9075,-4.69
264,4236303,0.967094,-0.004026,-0.27523200000000003,0.14,-2.275,-4.6375
265,4236401,0.9652639999999999,-0.004514,-0.275964,0.175,-2.555,-4.6375
266,4236499,0.96441,-0.003904,-0.27510999999999997,0.0175,-3.185,-4.585
267,4236597,0.9628241,-0.002196,-0.27389,-0.245,-3.7275,-4.55
268,4236695,0.9630681000000001,-0.000732,-0.27071799999999996,-0.595,-4.3925,-4.48
269,4236793,0.96441,-0.001464,-0.270596,-0.805,-4.865,-4.41
270,4236891,0.964776,-0.002074,-0.268278,-1.155,-5.3025,-4.34
271,4236988,0.964776,-0.002196,-0.265716,-1.225,-5.705,-4.13
272,4237086,0.963922,-0.002562,-0.26596,-1.19,-6.1075,-4.025
273,4237184,0.9608721,-0.001952,-0.265228,-1.365,-6.51,-3.9725
274,4237282,0.95831,-0.001952,-0.263886,-1.61,-6.7025,-3.9025
275,4237380,0.9563581,-0.002196,-0.263276,-1.8725,-6.6325,-3.6575
276,4237478,0.9555040000000001,-0.001952,-0.261446,-1.8375,-6.7025,-3.535
277,4237576,0.955992,-0.001098,-0.257542,-1.8725,-6.6675,-3.5175
278,4237674,0.9558701,-0.000976,-0.258884,-1.96,-6.615,-3.5175
279,4237771,0.9558701,0.000488,-0.25742,-1.9425,-6.5975,-3.5
280,4237869,0.9561139999999999,0.000976,-0.258274,-1.89,-6.72,-3.57
281,4237967,0.9552601000000001,0.00183,-0.255468,-1.9775,-6.65,-3.605
282,4238065,0.9562360999999999,0.00366,-0.254736,-2.0825,-6.405,-3.57
283,4238163,0.9572120999999999,0.004758,-0.252784,-2.205,-6.3525,-3.465
284,4238261,0.9575780999999999,0.003904,-0.253882,-2.275,-6.2475,-3.4475
285,4238359,0.957822,0.000244,-0.25437,-2.31,-6.2825,-3.535
286,4238457,0.9587979999999999,-0.001952,-0.25559,-2.17,-6.3,-3.5525
287,4238555,0.9591639999999999,0.00122,-0.256688,-1.96,-6.3175,-3.5525
288,4238653,0.957334,0.001342,-0.256444,-1.9775,-6.3,-3.4825
289,4238750,0.9561139999999999,0.0017079999999999999,-0.258396,-1.9775,-6.23,-3.43
290,4238848,0.9563581,0.002196,-0.259006,-2.0475,-6.0725,-3.4825
291,4238946,0.9577,0.001952,-0.254614,-1.96,-6.0025,-3.5
292,4239044,0.9566020000000001,-0.000244,-0.254126,-1.855,-6.055,-3.605
293,4239142,0.95709,0.001464,-0.257542,-1.925,-6.2475,-3.7275
294,4239240,0.957822,0.002074,-0.258152,-1.8025,-6.37,-3.7275
295,4239338,0.95709,0.004026,-0.25851799999999997,-1.855,-6.3875,-3.675
296,4239436,0.9566020000000001,0.004514,-0.257176,-1.5925,-6.335,-3.745
297,4239534,0.9566020000000001,0.00549,-0.255834,-1.5925,-6.5275,-3.885
298,4239631,0.956968,0.004758,-0.254004,-1.6975,-6.7375,-4.0075
299,4239729,0.9577,0.005612,-0.254736,-1.6275,-6.7375,-4.1125
300,4239827,0.9575780999999999,0.004758,-0.253394,-1.54,-6.7025,-4.13
301,4239925,0.955992,0.004758,-0.254858,-1.645,-6.405,-3.955
302,4240023,0.9557479999999999,0.0034159999999999998,-0.25376,-1.54,-6.0725,-4.06
303,4240121,0.9547720999999999,0.001586,-0.25522399999999995,-1.295,-5.8275,-4.13
304,4240219,0.952332,0.0017079999999999999,-0.256688,-1.2075,-5.635,-4.1125
305,4240317,0.952332,0.0008540001,-0.257664,-1.1025,-5.6175,-4.165
306,4240415,0.95221,0.0008540001,-0.258396,-1.0325,-5.635,-4.0775
307,4240513,0.952942,-0.000366,-0.257664,-0.98,-5.7575,-3.9725
308,4240610,0.955016,-0.002562,-0.25986,-0.8400001,-5.915,-3.92
309,4240708,0.957334,-0.0008540001,-0.259372,-0.7875,-5.8275,-4.025
310,4240806,0.9587979999999999,0.0,-0.258762,-0.7,-5.7225,-4.1475
311,4240904,0.961116,0.000488,-0.259982,-0.8400001,-5.7575,-4.165
312,4241002,0.9612379999999999,0.001586,-0.260104,-0.9625,-5.6875,-4.13
313,4241100,0.9589200999999999,0.003782,-0.26047,-0.8400001,-5.67,-3.99
314,4241198,0.959774,0.0032939999999999996,-0.25925,-0.385,-5.7225,-4.025
315,4241296,0.9595300999999999,0.002562,-0.25986,-0.0875,-5.8625,-3.99
316,4241394,0.959774,0.00122,-0.262666,0.245,-6.09,-4.06
317,4241492,0.9585541,-0.000122,-0.264252,0.3675,-6.3,-4.2175
318,4241589,0.9587979999999999,-0.0008540001,-0.263398,0.63,-6.51,-4.305
319,4241687,0.9567241,0.000366,-0.262666,0.7175,-6.3875,-4.41
320,4241785,0.9555040000000001,0.000976,-0.26352,0.7875,-6.265,-4.4625
321,4241883,0.9564799999999999,0.001952,-0.26535,1.015,-6.265,-4.48
322,4241981,0.9553821,0.0035380000000000003,-0.263764,1.1725,-6.055,-4.55
323,4242079,0.9548940999999999,0.002806,-0.26291,1.2775,-6.09,-4.69
324,4242177,0.955626,0.00305,-0.26303200000000004,1.4175,-6.335,-4.62
325,4242275,0.9561139999999999,0.00122,-0.263764,1.5925,-6.475,-4.725
326,4242373,0.9562360999999999,-0.0035380000000000003,-0.265106,1.8025,-6.685,-4.725
327,4242470,0.957334,-0.004636001,-0.265472,2.0475,-6.72,-4.7425
328,4242568,0.956968,-0.006344,-0.262544,2.1,-6.51,-4.795
329,4242666,0.954284,-0.007686,-0.265838,2.1175,-6.37,-4.795
330,4242764,0.9539181000000001,-0.007198,-0.264374,2.0475,-6.1775,-4.9175
331,4242862,0.9526979999999999,-0.006954000000000001,-0.263398,2.0125,-6.0725,-4.9525
332,4242960,0.9526979999999999,-0.005734,-0.264862,1.855,-6.0375,-5.0575
333,4243058,0.9525761,-0.005368,-0.263764,1.68,-6.1775,-5.005
334,4243156,0.950868,-0.004392,-0.26413000000000003,1.715,-6.23,-4.8825
335,4243254,0.952332,-0.004758,-0.26474000000000003,1.47,-6.3175,-4.9
336,4243352,0.95221,-0.006222,-0.262788,1.2075,-6.2475,-5.005
337,4243450,0.9541620000000001,-0.007686,-0.2623,1.015,-6.335,-5.1275
338,4243547,0.953308,-0.010614,-0.26169000000000003,0.8925,-6.2825,-5.215
339,4243645,0.953308,-0.012322,-0.26352,0.8400001,-6.3175,-5.1625
340,4243743,0.9526979999999999,-0.013541999999999998,-0.264862,0.6825,-6.51,-5.0225
341,4243841,0.951844,-0.013541999999999998,-0.264862,0.525,-6.5275,-4.9875
342,4243939,0.9537959999999999,-0.01342,-0.26657,0.245,-6.58,-4.9
343,4244037,0.9525761,-0.010858,-0.266326,-0.035,-6.4575,-4.8125
344,4244135,0.954406,-0.010492,-0.26766799999999996,-0.35,-6.3525,-4.585
345,4244233,0.9561139999999999,-0.011712,-0.26766799999999996,-0.595,-6.2475,-4.3575
346,4244331,0.954528,-0.010858,-0.265716,-0.8575,-6.2475,-4.3575
347,4244429,0.9547720999999999,-0.010004,-0.268156,-0.9625,-6.3875,-4.27
348,4244526,0.9524540000000001,-0.008052001,-0.269254,-1.3125,-6.3525,-4.235
349,4244624,0.9503799999999999,-0.007686,-0.269742,-1.4,-6.2825,-4.2875
350,4244722,0.9500139999999999,-0.008906,-0.270962,-1.5575,-6.3175,-4.2525
351,4244820,0.9492821,-0.009272001,-0.268644,-1.7675,-6.335,-4.2525
352,4244918,0.9520881,-0.006587999999999999,-0.269376,-1.89,-6.44,-4.305
353,4245016,0.9537959999999999,-0.008418,-0.270474,-1.96,-6.4225,-4.305
354,4245114,0.9557479999999999,-0.007198,-0.270108,-2.065,-6.335,-4.375
355,4245212,0.9561139999999999,-0.007198,-0.27023,-2.03,-6.2825,-4.4275
356,4245310,0.9561139999999999,-0.00793,-0.269742,-2.0125,-6.23,-4.2875
357,4245408,0.954406,-0.007320001,-0.26718000000000003,-1.9775,-6.335,-4.2525
358,4245506,0.9535521,-0.005856,-0.27023,-2.0125,-6.51,-4.2175
359,4245604,0.9531860000000001,-0.005246,-0.271572,-1.96,-6.5275,-4.235
360,4245702,0.953674,-0.005368,-0.271084,-2.03,-6.6325,-4.305
361,4245799,0.954406,-0.00488,-0.272548,-2.1175,-6.5625,-4.3225
362,4245897,0.954406,-0.004758,-0.273524,-2.1,-6.6325,-4.165
363,4245995,0.955016,-0.005978,-0.270962,-2.135,-6.615,-4.1125
364,4246093,0.955016,-0.005612,-0.270962,-2.03,-6.79,-4.06
365,4246191,0.9539181000000001,-0.006344,-0.270108,-1.9775,-6.8425,-4.0775
366,4246289,0.9535521,-0.005246,-0.27266999999999997,-2.0475,-7.0,-4.1475
367,4246387,0.9535521,-0.005368,-0.272426,-2.0825,-7.105,-4.1125
368,4246485,0.953674,-0.006344,-0.269742,-2.1525,-6.965,-4.13
369,4246583,0.9534301,-0.005246,-0.269498,-2.3625,-6.8775,-4.1475
370,4246681,0.954406,-0.004392,-0.268766,-2.45,-6.79,-4.235
371,4246779,0.955626,-0.004636001,-0.268888,-2.345,-6.895,-4.2875
372,4246876,0.957822,-0.002074,-0.267912,-2.4325,-7.07,-4.41
373,4246974,0.95831,0.000366,-0.267424,-2.31,-7.0875,-4.445
374,4247072,0.95709,0.000366,-0.265472,-2.0475,-7.1925,-4.655
375,4247170,0.95465,0.002196,-0.262666,-1.9075,-7.315,-4.69
376,4247268,0.9567241,0.002806,-0.262056,-1.8375,-7.49,-4.69
377,4247366,0.9567241,0.003782,-0.25961599999999996,-1.68,-7.4375,-4.725
378,4247464,0.956968,0.00305,-0.25986,-1.61,-7.1575,-4.8475
379,4247562,0.9539181000000001,0.000366,-0.26169000000000003,-1.3825,-6.7725,-4.76
380,4247660,0.9528200000000001,0.000244,-0.26291,-1.3125,-6.72,-4.69
381,4247758,0.9506241,-0.0008540001,-0.264862,-1.19,-6.5625,-4.8125
382,4247856,0.9487940999999999,-0.001586,-0.26766799999999996,-1.1375,-6.5275,-4.865
383,4247953,0.949892,-0.002196,-0.269742,-1.1025,-6.475,-5.0575
384,4248052,0.951722,-0.002562,-0.269498,-0.9625,-6.405,-5.2675
385,4248149,0.9519661,-0.002684,-0.26779000000000003,-0.8575,-6.37,-5.25
386,4248247,0.9514780999999999,-0.0034159999999999998,-0.2684,-0.8225,-6.0025,-5.1625
387,4248345,0.951722,-0.004392,-0.26961999999999997,-0.7525,-5.8975,-5.0925
388,4248443,0.9526979999999999,-0.00427,-0.270962,-0.91,-5.8625,-4.97
389,4248541,0.9514780999999999,-0.004758,-0.271816,-0.9275,-5.705,-4.865
390,4248639,0.95099,-0.004636001,-0.273524,-0.875,-5.705,-4.6725
391,4248737,0.951356,-0.002806,-0.273646,-1.05,-5.74,-4.7075
392,4248835,0.9531860000000001,-0.002318,-0.27571999999999997,-1.1725,-5.775,-4.6375
393,4248933,0.9555040000000001,-0.00305,-0.275476,-1.225,-5.81,-4.6025
394,4249030,0.9558701,-0.002562,-0.27510999999999997,-1.3125,-5.705,-4.515
395,4249128,0.9572120999999999,-0.0017079999999999999,-0.276452,-1.4175,-5.5825,-4.515
396,4249226,0.957944,-0.000122,-0.276086,-1.365,-5.74,-4.5325
397,4249324,0.957822,-0.00305,-0.274866,-1.365,-5.81,-4.655
398,4249422,0.955626,-0.00305,-0.27816,-1.295,-5.8975,-4.7775
399,4249520,0.954284,-0.0034159999999999998,-0.279258,-1.155,-5.9325,-4.7075
400,4249618,0.9524540000000001,-0.001952,-0.27876999999999996,-1.05,-6.055,-4.62
401,4249716,0.9520881,-0.002562,-0.277428,-1.0325,-6.335,-4.4975
402,4249814,0.952332,-0.002806,-0.277428,-0.9275,-6.475,-4.48
403,4249912,0.9525761,-0.00244,-0.277062,-0.7525,-6.58,-4.4275
404,4250010,0.9526979999999999,-0.004392,-0.276574,-0.665,-6.6325,-4.34
405,4250107,0.9528200000000001,-0.0034159999999999998,-0.27571999999999997,-0.6825,-6.615,-4.305
406,4250205,0.9537959999999999,-0.000488,-0.27571999999999997,-0.6475,-6.615,-4.3925
407,4250303,0.9539181000000001,-0.00122,-0.274988,-0.4375,-6.5625,-4.3925
408,4250401,0.9541620000000001,-0.00122,-0.27328,-0.49,-6.7375,-4.585
409,4250499,0.9548940999999999,-0.000366,-0.274378,-0.49,-6.86,-4.62
410,4250597,0.9537959999999999,-0.001586,-0.27389,-0.455,-7.035,-4.6375
411,4250695,0.9562360999999999,-0.002562,-0.27510999999999997,-0.4725,-7.0875,-4.69
412,4250793,0.9552601000000001,-0.004148001,-0.274744,-0.6475,-7.2275,-4.62
413,4250891,0.95465,-0.004392,-0.274012,-0.6475,-7.175,-4.515
414,4250989,0.9547720999999999,-0.00488,-0.273524,-0.7875,-7.07,-4.4625
415,4251087,0.9531860000000001,-0.005246,-0.273524,-0.8575,-7.07,-4.34
416,4251185,0.952332,-0.004758,-0.274378,-0.945,-6.8425,-4.27
417,4251283,0.9514780999999999,-0.004148001,-0.274866,-1.05,-6.7725,-4.165
418,4251380,0.952332,-0.003904,-0.275476,-1.0675,-6.7375,-4.0775
419,4251478,0.9502581,-0.00061,-0.27389,-1.1375,-6.545,-4.095
420,4251576,0.94916,0.00122,-0.273402,-1.015,-6.3875,-4.13
421,4251674,0.94855,0.003782,-0.272426,-0.7525,-6.1425,-4.27
422,4251772,0.9486720999999999,0.00488,-0.273036,-0.385,-6.02,-4.3925
423,4251870,0.9472079999999999,0.00793,-0.271694,0.0,-6.02,-4.62
424,4251968,0.9476959999999999,0.007564001,-0.2745,0.1575,-6.0725,-4.9525
425,4252066,0.9501360999999999,0.010736,-0.273402,0.49,-5.9675,-5.1625
426,4252164,0.951722,0.008296000999999999,-0.274622,0.945,-5.8625,-5.5475
427,4252261,0.9520881,0.00549,-0.273768,1.4875,-5.67,-5.775
428,4252359,0.951722,0.005002,-0.274866,1.89,-5.5825,-5.9675
429,4252457,0.9514780999999999,0.001098,-0.274134,2.31,-5.6175,-6.23
430,4252555,0.952942,-0.00122,-0.27523200000000003,2.5025,-5.8975,-6.3875
431,4252653,0.954284,-0.004148001,-0.27816,2.765,-6.09,-6.3525
432,4252751,0.9547720999999999,-0.004636001,-0.27999,2.765,-6.2475,-6.3875
433,4252849,0.9535521,-0.005368,-0.27694,2.9225,-6.265,-6.3
434,4252947,0.9555040000000001,-0.0051240009999999996,-0.278038,2.9925,-6.3,-6.265
435,4253045,0.954284,-0.00549,-0.277306,3.08,-6.265,-6.2475
436,4253143,0.953674,-0.004758,-0.277794,3.255,-6.2825,-6.0725
437,4253240,0.9539181000000001,-0.005246,-0.27828200000000003,3.29,-6.44,-6.09
438,4253338,0.9534301,-0.004514,-0.279624,3.36,-6.5975,-6.0725
439,4253436,0.9555040000000001,-0.0051240009999999996,-0.279868,3.395,-6.7025,-6.265
440,4253534,0.9555040000000001,-0.0061,-0.278648,3.4125,-6.9125,-6.3875
441,4253632,0.9558701,-0.0064659999999999995,-0.27828200000000003,3.5875,-7.105,-6.475
442,4253730,0.9537959999999999,-0.006587999999999999,-0.276818,3.7275,-7.0175,-6.475
443,4253828,0.9494040000000001,-0.006344,-0.27694,3.745,-6.9825,-6.475
444,4253926,0.94916,-0.006954000000000001,-0.276696,3.7625,-7.035,-6.44
445,4254024,0.9484280999999999,-0.006222,-0.276452,3.71,-7.035,-6.4225
446,4254122,0.949892,-0.007686,-0.277672,3.5875,-6.9825,-6.44
447,4254219,0.9505020000000001,-0.010004,-0.277794,3.395,-6.9475,-6.3525
448,4254317,0.9524540000000001,-0.011468,-0.278526,3.3075,-6.7025,-6.1775
449,4254415,0.9511120000000001,-0.010736,-0.27938,3.2725,-6.37,-6.02
450,4254513,0.9480620000000001,-0.0122,-0.280356,3.15,-6.2475,-5.88
451,4254611,0.94611,-0.010492,-0.279502,3.0625,-6.09,-5.74
452,4254709,0.945866,-0.01281,-0.282552,2.87,-6.1425,-5.46
453,4254807,0.94611,-0.012078,-0.283406,2.6775,-6.125,-5.25
454,4254905,0.9480620000000001,-0.013175999999999998,-0.282308,2.3625,-6.16,-5.1275
455,4255003,0.9503799999999999,-0.014518000000000001,-0.28121,2.1875,-6.2825,-5.1275
456,4255101,0.9502581,-0.014274,-0.28011199999999997,2.0475,-6.2475,-5.0225
457,4255198,0.9503799999999999,-0.014518000000000001,-0.279868,1.8725,-6.0725,-4.9875
458,4255296,0.9507460999999999,-0.013908000000000002,-0.279624,1.5925,-5.985,-4.9
459,4255394,0.950868,-0.01342,-0.279136,1.2425,-6.0025,-4.9175
460,4255492,0.9500139999999999,-0.012322,-0.28072199999999997,0.9625,-5.88,-4.8475
461,4255590,0.94916,-0.01342,-0.281332,0.56,-6.02,-4.725
462,4255688,0.948184,-0.015372,-0.28328400000000004,0.21,-6.0725,-4.55
463,4255786,0.947574,-0.01586,-0.282918,-0.175,-5.9675,-4.5325
464,4255884,0.949892,-0.01769,-0.281088,-0.49,-5.8275,-4.48
465,4255982,0.9500139999999999,-0.015128,-0.279014,-0.805,-5.7575,-4.4275
466,4256079,0.9525761,-0.015006,-0.279868,-1.19,-5.6,-4.515
467,4256177,0.9511120000000001,-0.014274,-0.279258,-1.645,-5.5125,-4.4625
468,4256275,0.94916,-0.013908000000000002,-0.281454,-2.1175,-5.3725,-4.4975
469,4256373,0.94916,-0.012688,-0.281332,-2.4325,-5.425,-4.585
470,4256471,0.9501360999999999,-0.010736,-0.281332,-2.7825,-5.5475,-4.4625
471,4256569,0.9497701,-0.009028000999999999,-0.28365,-3.0625,-5.6175,-4.55
472,4256667,0.9511120000000001,-0.008174001,-0.282308,-3.1325,-5.7225,-4.6025
473,4256765,0.9524540000000001,-0.005734,-0.28011199999999997,-3.115,-5.635,-4.585
474,4256863,0.953308,-0.005368,-0.279868,-3.2025,-5.7225,-4.585
475,4256961,0.951722,-0.005368,-0.281332,-3.3425,-5.845,-4.6725
476,4257059,0.9501360999999999,-0.004758,-0.282186,-3.3425,-5.8625,-4.62
477,4257156,0.949526,-0.004758,-0.28328400000000004,-3.43,-5.7575,-4.5325
478,4257254,0.947574,-0.0051240009999999996,-0.284016,-3.5875,-5.7575,-4.4275
479,4257352,0.9464761,-0.004392,-0.285968,-3.675,-5.7925,-4.515
480,4257450,0.9469641,-0.002318,-0.28377199999999997,-3.5875,-5.8275,-4.6025
481,4257548,0.9487940999999999,-0.000976,-0.28243,-3.43,-5.705,-4.725
482,4257646,0.9470860000000001,0.001342,-0.284016,-3.185,-5.6525,-4.8125
483,4257744,0.9476959999999999,0.0035380000000000003,-0.28157600000000005,-3.0625,-5.7225,-4.9175
484,4257842,0.9480620000000001,0.003172,-0.282064,-2.835,-5.7925,-4.76
485,4257940,0.948306,0.005002,-0.282674,-2.5025,-5.775,-4.8475
486,4258038,0.94855,0.005978,-0.284016,-2.24,-5.8975,-4.8475
487,4258135,0.9486720999999999,0.00549,-0.28072199999999997,-1.7675,-5.95,-4.935
488,4258233,0.947574,0.008418,-0.279502,-1.2425,-6.1075,-5.04
489,4258331,0.9470860000000001,0.010492,-0.279502,-0.6475,-6.2475,-5.25
490,4258429,0.9465981,0.01281,-0.27938,0.0,-6.195,-5.5125
491,4258527,0.9497701,0.01586,-0.278526,0.4025,-6.0725,-5.7225
492,4258625,0.95099,0.018788,-0.277428,0.8225,-5.74,-5.9675
493,4258723,0.953308,0.017812,-0.275598,1.4175,-5.46,-6.2825
494,4258821,0.954284,0.01891,-0.275476,2.03,-5.39,-6.4925
495,4258919,0.9558701,0.017934000000000002,-0.274134,2.73,-5.285,-6.8075
496,4259017,0.952942,0.019032,-0.276208,3.7275,-5.425,-7.1225
497,4259114,0.952942,0.01952,-0.278648,4.655,-5.4775,-7.2975
498,4259212,0.9496479999999999,0.019154,-0.28121,5.53,-5.5825,-7.5775
499,4259310,0.9496479999999999,0.018178,-0.28304,6.23,-5.5825,-7.6475
500,4259408,0.948306,0.015982,-0.28157600000000005,6.9125,-5.6875,-7.8225
501,4259506,0.9503799999999999,0.014762,-0.28243,7.7,-6.0375,-8.05
502,4259604,0.9501360999999999,0.013663999999999999,-0.281698,8.4,-6.2125,-8.2425
503,4259702,0.9524540000000001,0.013908000000000002,-0.282552,9.2225,-6.2825,-8.61
504,4259800,0.953674,0.012444,-0.282308,9.835,-6.3875,-8.8025
505,4259898,0.952332,0.012444,-0.28316199999999997,10.5175,-6.3875,-9.0125
506,4259996,0.9541620000000001,0.009882,-0.282064,10.85,-6.4225,-9.135
507,4260094,0.9539181000000001,0.009394,-0.28181999999999996,11.2525,-6.5625,-9.345
508,4260192,0.954406,0.007564001,-0.28181999999999996,11.69,-6.72,-9.4675
509,4260290,0.9551379999999999,0.00549,-0.282064,12.18,-6.86,-9.6425
510,4260388,0.953674,0.002196,-0.282064,12.53,-6.8425,-9.5725
511,4260485,0.9528200000000001,0.00183,-0.283528,12.7225,-6.965,-9.5025
512,4260583,0.9525761,-0.0017079999999999999,-0.284382,12.7925,-7.0175,-9.5375
513,4260681,0.955016,-0.0034159999999999998,-0.285114,12.81,-7.105,-9.4325
514,4260779,0.9551379999999999,-0.003782,-0.28682199999999997,12.7225,-7.105,-9.3275
515,4260877,0.954528,-0.0034159999999999998,-0.287432,12.81,-7.0,-9.3975
516,4260975,0.9511120000000001,-0.002806,-0.288896,12.8275,-6.9125,-9.3275
517,4261073,0.94916,-0.00244,-0.287066,12.8275,-7.1225,-9.3275
518,4261171,0.9474520000000001,-0.0035380000000000003,-0.287066,12.635,-7.14,-9.3975
519,4261269,0.9446460999999999,-0.00305,-0.28767600000000004,12.355,-7.2625,-9.31
520,4261367,0.9459880999999999,-0.004758,-0.287066,12.145,-7.6125,-9.345
521,4261465,0.9473301,-0.005002,-0.287554,11.97,-7.91,-9.45
522,4261563,0.94916,-0.006954000000000001,-0.287066,11.62,-8.1725,-9.5025
523,4261661,0.9519661,-0.008540001,-0.28621199999999997,11.445,-8.295,-9.4675
524,4261759,0.9525761,-0.010126000000000001,-0.28609,11.0425,-8.47,-9.555
525,4261857,0.954406,-0.009028000999999999,-0.28682199999999997,10.4825,-8.7675,-9.4325
526,4261955,0.9540401,-0.008296000999999999,-0.285724,10.01,-8.9425,-9.2925
527,4262053,0.9539181000000001,-0.007198,-0.282308,9.59,-8.925,-9.0475
528,4262150,0.953674,-0.005612,-0.282796,9.1525,-8.6975,-8.925
529,4262248,0.9516,-0.004758,-0.283528,8.785,-8.3825,-8.6975
530,4262346,0.951356,0.0,-0.28181999999999996,8.505,-8.12,-8.5925
531,4262444,0.950868,0.002318,-0.280844,8.3825,-8.0325,-8.365
532,4262542,0.9487940999999999,0.0032939999999999996,-0.281088,8.435,-7.875,-8.2775
533,4262640,0.9496479999999999,0.005612,-0.280966,8.4525,-7.8575,-8.1025
534,4262738,0.9484280999999999,0.0051240009999999996,-0.28243,8.6275,-7.9275,-8.1375
535,4262836,0.9489161,0.004758,-0.280966,8.8375,-7.8575,-8.1375
536,4262934,0.9464761,0.005246,-0.281942,9.03,-7.6475,-8.155
537,4263032,0.947574,0.0061,-0.282552,9.2575,-7.35,-8.19
538,4263130,0.9463540000000001,0.008418,-0.284138,9.625,-7.0875,-8.4
539,4263228,0.9472079999999999,0.0061,-0.283406,9.87,-6.93,-8.4
540,4263326,0.9480620000000001,0.00488,-0.285358,10.0625,-6.5975,-8.33
541,4263424,0.944768,0.002684,-0.28633400000000003,10.0625,-6.3175,-8.4175
542,4263521,0.941718,0.001464,-0.285968,10.115,-6.09,-8.47
543,4263619,0.940742,0.0,-0.287432,9.9925,-5.985,-8.54
544,4263717,0.9429379999999999,-0.00061,-0.287798,9.8,-5.95,-8.4525
545,4263815,0.9453780999999999,-0.004514,-0.28914,9.2225,-5.8625,-8.4
546,4263913,0.94855,-0.00488,-0.29036,8.82,-6.0725,-8.3475
547,4264011,0.9512341000000001,-0.008540001,-0.28731,8.47,-6.23,-8.19
548,4264109,0.9492821,-0.008418,-0.288042,7.98,-6.195,-8.1375
549,4264207,0.9479401,-0.010004,-0.28621199999999997,7.595,-6.1425,-7.91
550,4264305,0.9474520000000001,-0.01281,-0.287188,7.245,-6.125,-7.56
551,4264403,0.9469641,-0.011590000000000001,-0.285724,6.4925,-6.1075,-7.2625
552,4264501,0.9484280999999999,-0.012931999999999999,-0.28694400000000003,5.67,-6.195,-6.9125
553,4264599,0.9494040000000001,-0.013663999999999999,-0.288652,5.0225,-6.335,-6.545
554,4264697,0.9511120000000001,-0.012322,-0.28767600000000004,4.2875,-6.1075,-6.16
555,4264795,0.954528,-0.010614,-0.288652,3.605,-6.055,-6.0025
556,4264892,0.95221,-0.009394,-0.28792,3.08,-6.09,-5.845
557,4264990,0.9516,-0.007198,-0.28926199999999996,2.6075,-6.055,-5.53
558,4265088,0.9511120000000001,-0.0064659999999999995,-0.29036,2.31,-6.1075,-5.46
559,4265186,0.9500139999999999,-0.0051240009999999996,-0.291824,2.03,-5.985,-5.2675
560,4265284,0.9503799999999999,-0.005612,-0.29097,1.8375,-6.23,-5.1975
561,4265382,0.9492821,-0.00671,-0.28938400000000003,1.6625,-6.3875,-5.18
562,4265480,0.9524540000000001,-0.007564001,-0.29036,1.5225,-6.475,-5.11
563,4265578,0.9539181000000001,-0.008906,-0.291702,1.295,-6.4575,-5.1275
564,4265676,0.9530641,-0.00793,-0.292678,0.98,-6.6325,-5.1625
565,4265774,0.951844,-0.006344,-0.29365399999999997,0.805,-6.825,-5.215
566,4265872,0.951844,-0.006222,-0.29463,0.735,-6.86,-5.145
567,4265970,0.9520881,-0.00488,-0.291092,0.7,-6.755,-4.97
568,4266067,0.950868,-0.00671,-0.286456,0.805,-7.0175,-4.83
569,4266165,0.9526979999999999,-0.005368,-0.285968,0.665,-7.315,-4.76
570,4266263,0.954528,-0.004758,-0.288286,0.56,-7.5075,-4.585
571,4266361,0.9551379999999999,-0.0051240009999999996,-0.28621199999999997,0.5775,-7.49,-4.4275
572,4266459,0.9564799999999999,-0.006222,-0.285114,0.49,-7.3675,-4.2175
573,4266557,0.956968,-0.008418,-0.28548,0.1575,-7.4725,-4.1475
574,4266655,0.9541620000000001,-0.012078,-0.28462600000000005,-0.1225,-7.2975,-4.1475
575,4266753,0.951356,-0.011956,-0.28486999999999996,-0.315,-7.14,-4.2
576,4266851,0.94611,-0.014152000000000001,-0.285114,-0.5775,-7.1225,-4.2875
577,4266949,0.941108,-0.016836,-0.28548,-0.91,-7.14,-4.1125
578,4267046,0.939522,-0.020618,-0.28682199999999997,-1.4,-7.14,-4.0075
579,4267144,0.940742,-0.023424,-0.285602,-2.0125,-7.315,-3.78
580,4267242,0.9409860999999999,-0.025986000000000002,-0.285114,-2.59,-7.4375,-3.4125
581,4267340,0.9444020000000001,-0.025376,-0.2867,-3.255,-7.5775,-3.3075
582,4267438,0.94611,-0.023058000000000002,-0.287554,-4.025,-7.3325,-3.1325
583,4267536,0.9453780999999999,-0.023058000000000002,-0.287066,-4.7425,-7.1225,-3.0625
584,4267634,0.9473301,-0.022082,-0.285358,-5.3375,-6.965,-2.9925
585,4267732,0.9467200000000001,-0.021594,-0.282064,-5.9325,-6.8075,-2.8175
586,4267830,0.9456220999999999,-0.020008,-0.28157600000000005,-6.195,-6.8425,-2.73
587,4267927,0.9467200000000001,-0.017568,-0.28243,-6.615,-6.58,-2.625
588,4268025,0.94855,-0.015982,-0.28694400000000003,-7.1575,-6.7025,-2.5725
589,4268123,0.9484280999999999,-0.01525,-0.28987199999999996,-7.7525,-6.8425,-2.4675
590,4268221,0.952942,-0.018788,-0.290116,-8.225,-7.035,-2.345
591,4268319,0.9562360999999999,-0.019154,-0.292556,-8.925,-7.21,-2.38
592,4268417,0.9586761,-0.021228,-0.29219,-9.66,-7.665,-2.4325
593,4268515,0.9568459999999999,-0.022936,-0.294508,-10.325,-8.2425,-2.7125
594,4268613,0.9524540000000001,-0.023668,-0.297558,-10.9025,-8.7675,-2.765
595,4268711,0.95465,-0.023180000000000003,-0.30378,-11.48,-9.5725,-2.8
596,4268809,0.9552601000000001,-0.019032,-0.30805,-12.145,-10.29,-2.625
597,4268907,0.954528,-0.01464,-0.31354,-12.6525,-10.7975,-2.345
598,4269004,0.954528,-0.008906,-0.318542,-12.9675,-11.1475,-2.205
599,4269102,0.954528,-0.004758,-0.318664,-13.055,-11.4275,-1.995
600,4269200,0.951722,0.002196,-0.312686,-12.915,-11.6025,-1.8375
601,4269298,0.945866,0.009272001,-0.307562,-12.495,-11.76,-1.8375
602,4269396,0.9394,0.018666,-0.30780599999999997,-12.075,-11.9875,-2.0125
603,4269494,0.9315921,0.025376,-0.310856,-11.5325,-12.355,-2.0125
604,4269592,0.9228081,0.030012,-0.312198,-10.7625,-12.6175,-2.275
605,4269690,0.9147559999999999,0.032818,-0.31232,-9.975,-12.355,-2.415
606,4269788,0.906216,0.037576,-0.31585799999999997,-9.31,-11.935,-2.66
607,4269886,0.9029221,0.041724000000000004,-0.319152,-8.8375,-11.515,-2.7825
608,4269984,0.904386,0.047945999999999996,-0.32452,-8.4525,-10.71,-3.185
609,4270081,0.912926,0.052216,-0.325862,-7.665,-9.345,-3.8675
610,4270179,0.9198799999999999,0.055388,-0.321348,-6.58,-7.7525,-4.6375
611,4270277,0.9295180000000001,0.063928,-0.31903000000000004,-5.3025,-6.265,-5.74
612,4270375,0.938058,0.06954,-0.315614,-3.6575,-5.11,-7.0175
613,4270473,0.9418401,0.07332201,-0.313418,-1.435,-4.2175,-8.225
614,4270571,0.935984,0.07551801,-0.31415,1.4,-3.7275,-9.5025
615,4270669,0.927688,0.07332201,-0.312076,4.1475,-3.3425,-10.8325
616,4270767,0.9208561,0.07222401,-0.309026,7.0175,-3.5,-11.9
617,4270865,0.912438,0.069784,-0.307562,9.835,-3.57,-12.7925
618,4270963,0.9090219999999999,0.06405001,-0.307684,12.4075,-3.36,-13.545
619,4271061,0.9093880999999999,0.061975999999999996,-0.306708,14.9275,-2.73,-14.035
620,4271158,0.9139021,0.05941401,-0.308172,17.43,-1.82,-14.63
621,4271256,0.917074,0.057096,-0.305976,20.055,-1.015,-14.91
622,4271354,0.921222,0.05624199999999999,-0.306342,22.3125,-0.56,-15.155
623,4271452,0.9234180000000001,0.05063,-0.30536599999999997,24.1675,-0.4025,-15.365
624,4271550,0.9261021,0.047580000000000004,-0.304146,25.935,-0.455,-15.575
625,4271648,0.9302501,0.045384,-0.30353600000000003,27.195,-0.49,-15.7675
626,4271746,0.93696,0.035624,-0.30134,27.8425,-0.6825,-15.8025
627,4271844,0.94306,0.024522,-0.29902199999999995,28.21,-0.91,-15.54
628,4271942,0.950868,0.013541999999999998,-0.30036399999999996,28.175,-0.9275,-15.12
629,4272040,0.9585541,0.003904,-0.30036399999999996,27.44,-0.9275,-14.6125
630,4272138,0.9653860000000001,-0.004636001,-0.30439,26.285,-1.015,-13.9825
631,4272235,0.9714860000000001,-0.010858,-0.30402399999999996,24.815,-1.26,-13.125
632,4272333,0.97173,-0.015982,-0.307196,23.065,-1.645,-12.32
633,4272431,0.972706,-0.019764,-0.310002,21.1225,-2.73,-11.515
634,4272529,0.9757561,-0.022936,-0.313662,19.1975,-4.1125,-10.5525
635,4272627,0.97783,-0.024156,-0.3172,17.01,-5.3725,-9.4325
636,4272725,0.978806,-0.024766,-0.318176,14.9275,-6.4575,-8.295
637,4272823,0.979294,-0.025863999999999998,-0.316956,12.985,-7.595,-7.455
638,4272921,0.9767321,-0.028669999999999998,-0.31585799999999997,11.34,-8.9075,-6.65
639,4273019,0.9725841000000001,-0.029524,-0.316346,10.01,-9.94,-6.09
640,4273117,0.9669721,-0.023546,-0.321226,8.7675,-10.7275,-5.565
641,4273214,0.9605060999999999,-0.016592,-0.324154,7.595,-11.41,-5.0575
642,4273312,0.9537959999999999,-0.006954000000000001,-0.323544,6.44,-11.9525,-4.55
643,4273410,0.9511120000000001,-0.000122,-0.319274,5.425,-12.425,-4.1125
644,4273508,0.9500139999999999,0.007442,-0.31524800000000003,4.5675,-12.74,-3.9725
645,4273606,0.947574,0.012688,-0.311954,4.1125,-13.2125,-4.0075
646,4273704,0.947574,0.015738,-0.310856,3.9375,-13.475,-4.13
647,4273802,0.9489161,0.01891,-0.31012399999999996,4.1125,-13.6675,-4.585
648,4273900,0.9474520000000001,0.022448,-0.310856,4.69,-13.9825,-5.1625
649,4273998,0.9474520000000001,0.025254,-0.310734,4.9525,-14.455,-5.3025
650,4274096,0.9480620000000001,0.023302,-0.30866,5.18,-14.6125,-5.4425
651,4274194,0.949526,0.02074,-0.305122,5.18,-14.5075,-5.6175
652,4274292,0.9503799999999999,0.01891,-0.306952,5.3025,-14.4725,-5.74
653,4274389,0.94611,0.01098,-0.310246,5.425,-14.21,-5.845
654,4274487,0.942694,0.004758,-0.312076,5.565,-13.79,-5.8975
655,4274585,0.9368380999999999,-0.001098,-0.315004,5.4775,-13.3,-5.81
656,4274683,0.9324460999999999,-0.005856,-0.3172,4.9,-12.775,-5.635
657,4274781,0.9311040999999999,-0.012565999999999999,-0.317444,4.3575,-12.04,-5.4775
658,4274879,0.9302501,-0.014274,-0.317932,3.535,-11.2875,-5.25
659,4274977,0.9269561,-0.017812,-0.32025,2.66,-10.71,-4.9875
660,4275075,0.9198799999999999,-0.023058000000000002,-0.32269000000000003,2.0125,-10.22,-4.7425
661,4275173,0.9147559999999999,-0.02684,-0.323788,1.4175,-9.6425,-4.235
662,4275271,0.908168,-0.029646,-0.327448,0.63,-9.38,-3.605
663,4275369,0.9063379999999999,-0.025986000000000002,-0.329278,-0.3675,-9.0825,-3.0275
664,4275466,0.9060940000000001,-0.023546,-0.329156,-1.3125,-8.6975,-2.5025
665,4275564,0.9084121,-0.020374,-0.329034,-2.1525,-8.5925,-2.03
666,4275662,0.9118280000000001,-0.017812,-0.332572,-2.94,-8.5925,-1.4525
667,4275760,0.91561,-0.016714,-0.332084,-3.6225,-8.365,-1.295
668,4275858,0.918294,-0.016958,-0.333426,-4.1825,-7.91,-1.26
669,4275956,0.9230520000000001,-0.015982,-0.334402,-4.725,-7.63,-1.5225
670,4276054,0.928542,-0.016592,-0.335866,-5.145,-7.35,-1.9775
671,4276152,0.9333,-0.014396,-0.336354,-5.4775,-7.2975,-2.4675
672,4276250,0.9385460999999999,-0.009394,-0.335866,-5.775,-7.28,-2.94
673,4276348,0.9453780999999999,-0.007320001,-0.334646,-6.1075,-7.525,-3.465
674,4276445,0.9503799999999999,-0.004514,-0.336476,-6.405,-7.8225,-3.85
675,4276543,0.9557479999999999,-0.00488,-0.335134,-6.4925,-8.3475,-4.13
676,4276641,0.9562360999999999,-0.004758,-0.334768,-6.545,-8.7675,-4.4275
677,4276739,0.953674,-0.005002,-0.3355,-6.545,-8.645,-4.5325
678,4276837,0.9506241,-0.005612,-0.335012,-6.2125,-8.505,-4.4975
679,4276935,0.9440360999999999,-0.005368,-0.337452,-6.055,-8.47,-4.375
680,4277033,0.937326,-0.004514,-0.33916,-5.7225,-8.365,-4.06
681,4277131,0.9282981,-0.0034159999999999998,-0.339892,-5.355,-7.945,-3.7625
682,4277229,0.9200021,-0.000732,-0.34123400000000004,-4.795,-7.455,-3.5175
683,4277326,0.9118280000000001,0.000244,-0.34281999999999996,-4.3225,-6.9475,-3.2375
684,4277424,0.9054840000000001,-0.001464,-0.34404,-3.7625,-6.37,-3.2375
685,4277522,0.9042641,0.001464,-0.342942,-3.3425,-5.95,-3.115
686,4277620,0.9052401,0.003904,-0.34038,-2.87,-5.215,-3.22
687,4277718,0.9085340000000001,0.0051240009999999996,-0.34404,-2.205,-4.4975,-3.2725
688,4277816,0.9137799999999999,0.006832001,-0.344528,-1.2775,-3.9725,-3.3425
689,4277914,0.9140241,0.007198,-0.345016,-0.525,-3.5525,-3.4125
690,4278012,0.9154880999999999,0.004514,-0.344894,0.175,-3.0975,-3.6925
691,4278110,0.9186601000000001,0.00366,-0.342698,0.8575,-2.5725,-3.815
692,4278208,0.9214661,0.000488,-0.34123400000000004,1.365,-2.5725,-4.0425
693,4278305,0.9261021,-0.004392,-0.344894,1.6975,-2.87,-4.305
694,4278403,0.9295180000000001,-0.008174001,-0.34099,1.575,-3.0275,-4.515
695,4278501,0.9333,-0.013908000000000002,-0.336598,1.1025,-3.045,-4.69
696,4278599,0.9351299999999999,-0.017568,-0.33671999999999996,0.4375,-3.15,-4.6375
697,4278697,0.9356180000000001,-0.022813999999999997,-0.335622,-0.2975,-3.5525,-4.585
698,4278795,0.935984,-0.027327999999999998,-0.333426,-0.9625,-4.095,-4.34
699,4278893,0.9370821,-0.029401999999999998,-0.329278,-1.6975,-4.34,-4.13
700,4278991,0.9392780000000001,-0.031842,-0.326716,-2.6075,-4.3225,-3.7625
701,4279089,0.940742,-0.031842,-0.325252,-3.5175,-4.27,-3.3075
702,4279187,0.9403761,-0.033794,-0.324276,-4.62,-4.3225,-3.1325
703,4279284,0.940132,-0.036356,-0.320738,-5.74,-4.4275,-3.01
704,4279382,0.936472,-0.040138,-0.317688,-6.86,-4.55,-2.835
705,4279480,0.9337880999999999,-0.040138,-0.318786,-8.19,-4.8825,-2.555
706,4279578,0.9291520000000001,-0.038308,-0.317932,-9.7475,-5.25,-2.065
707,4279676,0.92537,-0.040016,-0.32086,-11.305,-5.355,-1.5225
708,4279774,0.9228081,-0.040504000000000005,-0.323788,-12.8275,-5.3375,-0.98
709,4279872,0.9224421,-0.040138,-0.323544,-14.385,-5.46,-0.455
710,4279970,0.9274440999999999,-0.04404201,-0.316346,-16.0825,-6.335,0.0525
711,4280068,0.9383020000000001,-0.050142,-0.308172,-17.675,-7.63,0.49
712,4280166,0.9501360999999999,-0.053070000000000006,-0.305,-18.8125,-8.9425,0.7175
713,4280264,0.960628,-0.053314,-0.304512,-19.95,-9.7825,0.805
714,4280361,0.966118,-0.05209400000000001,-0.298412,-20.9825,-10.01,0.91
715,4280459,0.968192,-0.043188,-0.296338,-22.1725,-10.01,0.875
716,4280557,0.9678261,-0.035624,-0.290238,-23.1875,-10.22,0.875
717,4280655,0.9680700000000001,-0.032330000000000005,-0.287066,-24.01,-10.5525,0.7875
718,4280753,0.9677040000000001,-0.025498,-0.283894,-24.64,-10.885,0.7875
719,4280851,0.965752,-0.022448,-0.282064,-25.095,-11.025,0.9275
720,4280949,0.9619700000000001,-0.01586,-0.281698,-25.41,-10.64,0.98
721,4281047,0.9551379999999999,-0.008174001,-0.279136,-25.445,-10.115,1.155
722,4281145,0.9492821,-0.00305,-0.282552,-25.795,-9.9225,1.33
723,4281243,0.947574,0.005612,-0.28486999999999996,-26.0225,-9.625,1.435
724,4281340,0.9444020000000001,0.009637999999999999,-0.284138,-25.8475,-9.2225,1.5225
725,4281438,0.9419620999999999,0.01525,-0.281942,-25.6725,-8.9775,1.61
726,4281536,0.9415959999999999,0.0183,-0.28609,-25.6375,-8.855,1.435
727,4281634,0.93879,0.016104,-0.28767600000000004,-25.06,-8.2425,1.2425
728,4281732,0.93269,0.01891,-0.291458,-24.185,-7.8225,1.0675
729,4281830,0.924516,0.022203999999999998,-0.296704,-23.5375,-7.3325,0.945
730,4281928,0.918294,0.024156,-0.30097399999999996,-22.89,-7.0,1.0325
731,4282026,0.9142680000000001,0.020618,-0.301218,-22.26,-6.65,1.05
732,4282124,0.9098761000000001,0.020618,-0.302194,-21.315,-6.3175,0.9275
733,4282222,0.9085340000000001,0.018788,-0.30402399999999996,-20.1775,-5.9675,0.805
734,4282319,0.904386,0.018178,-0.30683,-18.8125,-5.6525,0.595
735,4282417,0.9034101000000001,0.019032,-0.312076,-17.325,-5.53,0.5075
736,4282515,0.9049959999999999,0.020130000000000002,-0.319396,-16.1,-5.39,0.3325
737,4282613,0.9082899999999999,0.023546,-0.324154,-15.2075,-5.4075,0.1925
738,4282711,0.9139021,0.023424,-0.332694,-14.2625,-5.4775,0.07
739,4282809,0.9208561,0.024888,-0.340014,-13.4225,-5.6525,0.105
740,4282907,0.9265901,0.021716,-0.346602,-12.7225,-6.1425,0.385
741,4283005,0.9287861,0.016836,-0.34953,-12.3375,-6.79,0.9275
742,4283103,0.9291520000000001,0.011956,-0.35221399999999997,-12.075,-7.0525,1.645
743,4283200,0.92781,0.00488,-0.359534,-11.6725,-7.3325,2.87
744,4283298,0.9290299999999999,-0.00305,-0.368318,-11.2525,-7.6125,4.13
745,4283396,0.936106,-0.00488,-0.38247,-11.2175,-7.84,5.215
746,4283494,0.94916,-0.012322,-0.406504,-11.585,-8.5225,5.985
747,4283592,0.971974,-0.020008,-0.399306,-12.495,-9.45,6.3875
748,4283690,0.9911281,-0.029768,-0.392108,-13.51,-9.52,5.81
749,4283788,0.9977159999999999,-0.034648000000000005,-0.392962,-14.35,-10.2375,4.3575
750,4283886,0.9857600000000001,-0.033794,-0.39271799999999996,-15.75,-12.32,2.6075
751,4283984,0.9633120999999999,-0.030744,-0.381616,-17.2725,-14.7525,1.015
752,4284082,0.9307380999999999,-0.031232,-0.37502800000000003,-18.55,-16.6775,0.3675
753,4284179,0.9103641,-0.037454,-0.370636,-20.02,-17.99,0.8925
754,4284277,0.8912100000000001,-0.033184,-0.367952,-21.9625,-19.3025,2.66
755,4284375,0.880474,-0.025986000000000002,-0.34648,-23.2575,-21.245,5.32
756,4284473,0.8724219999999999,-0.021716,-0.329156,-23.3625,-22.3125,8.2425
757,4284571,0.86803,-0.014152000000000001,-0.30927,-23.1525,-22.2075,11.235
758,4284669,0.873276,-0.0034159999999999998,-0.29792399999999997,-23.205,-20.6675,14.105
759,4284767,0.8893800999999999,0.0061,-0.29341,-23.3625,-18.8475,16.8
760,4284865,0.909632,0.010858,-0.2867,-23.4675,-17.185,19.39
761,4284963,0.9323239999999999,0.017812,-0.282918,-23.485,-15.6625,21.35
762,4285061,0.9548940999999999,0.026108,-0.279746,-23.205,-14.7,22.085
763,4285159,0.979416,0.039284,-0.280478,-23.5025,-14.1225,21.2625
764,4285256,0.9972281,0.046604,-0.280478,-24.4825,-13.65,19.3025
765,4285354,1.009428,0.05209400000000001,-0.270596,-25.8475,-12.9325,16.9575
766,4285452,1.0147959999999998,0.05185,-0.268644,-27.5625,-12.6175,14.5425
767,4285550,1.0147959999999998,0.048068,-0.266692,-29.365,-13.6675,12.32
768,4285648,0.9982040000000001,0.045018,-0.249734,-30.8175,-15.015,10.9025
769,4285746,0.9860040999999999,0.033306,-0.24363400000000002,-32.025,-15.4525,9.9925
770,4285844,0.97478,0.028426,-0.234118,-33.0925,-15.68,9.7825
771,4285942,0.969412,0.021838,-0.2257,-34.3,-15.4175,9.905
772,4286040,0.9752681000000001,0.01708,-0.223016,-34.965,-14.9275,9.8175
773,4286138,0.9796600000000001,0.01647,-0.229238,-35.105,-14.49,9.73
774,4286236,0.974292,0.024522,-0.23228800000000002,-34.7025,-14.63,9.6425
775,4286333,0.9623360999999999,0.032330000000000005,-0.23911999999999997,-33.775,-14.49,9.555
776,4286431,0.958432,0.038674,-0.24827,-32.41,-14.35,9.8
777,4286529,0.952942,0.045384,-0.25132,-31.3775,-14.6475,10.185
778,4286627,0.9500139999999999,0.054412,-0.26108000000000003,-30.8175,-14.385,10.4825
779,4286725,0.9512341000000001,0.06039,-0.266936,-29.5925,-13.755,10.6925
780,4286823,0.947818,0.07002799999999999,-0.26291,-28.4025,-13.4225,10.71
781,4286921,0.944768,0.074786,-0.268644,-27.0375,-12.9675,10.605
782,4287019,0.9418401,0.08308201,-0.27145,-25.4275,-12.1975,10.4825
783,4287117,0.936106,0.100406,-0.277306,-23.59,-11.13,10.0275
784,4287215,0.9384239999999999,0.11102000000000001,-0.28365,-21.84,-10.43,9.1
785,4287313,0.9358620999999999,0.119804,-0.28316199999999997,-19.985,-9.835,7.84
786,4287410,0.9384239999999999,0.12980799999999998,-0.29036,-17.64,-8.6975,6.2825
787,4287508,0.9490379999999999,0.137372,-0.310002,-15.47,-8.1025,4.1475
788,4287606,0.9531860000000001,0.1342,-0.29097,-13.4925,-7.525,1.8725
789,4287704,0.9512341000000001,0.118828,-0.286578,-10.36,-5.985,-0.8925
790,4287802,0.9435479999999999,0.112728,-0.304512,-7.21,-5.1625,-3.85
791,4287900,0.9317141,0.108214,-0.322202,-4.83,-4.7775,-6.335
792,4287998,0.9287861,0.10492,-0.401136,-2.7125,-5.0225,-8.5925
793,4288096,0.9531860000000001,0.100162,-0.465796,-2.66,-7.315,-10.57
794,4288194,0.9964959999999999,0.07503,-0.44639799999999996,-3.29,-8.96,-13.1425
795,4288292,1.0346819999999999,0.039772,-0.39894,-2.205,-7.84,-16.4675
796,4288390,1.042002,0.006587999999999999,-0.37856599999999996,-0.105,-6.4925,-19.6
797,4288487,1.021628,-0.016104,-0.346236,1.4,-6.1425,-20.65
798,4288585,0.9949100000000001,-0.01464,-0.345382,2.2925,-4.4275,-19.18
799,4288683,0.9873460999999999,0.019642,-0.391254,3.92,-1.2425,-16.52
800,4288781,0.98393,0.036722000000000005,-0.37197800000000003,6.125,1.26,-13.685
801,4288879,0.98149,0.053314,-0.379054,8.785,3.325,-12.04
802,4288977,0.9822219999999999,0.06405001,-0.372954,11.06,3.01,-11.4275
803,4289075,0.9834421,0.058803999999999995,-0.37454,12.005,2.485,-11.6375
804,4289173,0.9770981,0.055144000000000006,-0.385398,13.3525,1.4875,-12.4775
805,4289271,0.959774,0.057096,-0.40589400000000003,15.015,-0.56,-13.4925
806,4289369,0.9398880999999999,0.054655999999999996,-0.422486,16.2575,-2.9225,-14.315
807,4289467,0.9254921,0.049288,-0.437492,16.5725,-5.04,-15.0675
808,4289564,0.9067040000000001,0.042089999999999995,-0.443104,16.31,-5.635,-16.065
809,4289662,0.8848659999999999,0.026351999999999997,-0.446276,15.995,-5.3025,-17.745
810,4289760,0.86803,0.004026,-0.447984,16.17,-5.6525,-20.23
811,4289858,0.8504620999999999,-0.011346,-0.44956999999999997,16.3975,-5.915,-23.24
812,4289956,0.83021,-0.031964,-0.447618,17.745,-5.495,-26.915
813,4290054,0.803736,-0.052338,-0.44212799999999997,19.5475,-4.865,-29.8025
814,4290152,0.78263,-0.06344,-0.43334399999999995,20.44,-4.8825,-31.185
815,4290250,0.774456,-0.057462,-0.421754,20.09,-5.53,-31.36
816,4290348,0.784826,-0.046116000000000004,-0.41541000000000006,18.8125,-5.6875,-30.59
817,4290446,0.800564,-0.037454,-0.41236000000000006,17.0975,-4.9525,-29.3825
818,4290544,0.83204,-0.037942000000000004,-0.40516199999999997,15.995,-4.06,-28.0525
819,4290642,0.8708360999999999,-0.034526,-0.392596,15.6975,-3.2375,-26.7225
820,4290739,0.8985301,-0.039528,-0.377102,16.3275,-2.03,-25.5325
821,4290837,0.919392,-0.051118000000000004,-0.372954,17.6225,-1.4525,-23.8525
822,4290935,0.9356180000000001,-0.055144000000000006,-0.381738,19.2325,-2.065,-21.8225
823,4291033,0.9408639999999999,-0.05185,-0.377712,21.1225,-3.0275,-19.6
824,4291131,0.9358620999999999,-0.046360000000000005,-0.36636599999999997,22.715,-3.745,-17.325
825,4291229,0.9231739999999999,-0.046238,-0.354044,24.5525,-4.025,-15.365
826,4291327,0.9093880999999999,-0.051972000000000004,-0.340868,26.4075,-4.1475,-13.6325
827,4291425,0.9034101000000001,-0.05209400000000001,-0.33184,27.7725,-4.06,-12.425
828,4291523,0.901458,-0.05941401,-0.319762,29.19,-4.1825,-11.97
829,4291621,0.9025559999999999,-0.06356201,-0.312686,30.3275,-4.0425,-11.9175
830,4291719,0.8968221,-0.07039400000000001,-0.302804,31.0275,-3.5175,-12.1625
831,4291816,0.8908440999999999,-0.0793,-0.29597199999999996,31.395,-2.7825,-12.2325
832,4291914,0.88999,-0.08466801,-0.279868,31.5,-2.065,-11.8825
833,4292012,0.879986,-0.062586,-0.271084,30.835,-1.5575,-11.2525
834,4292110,0.8860860999999999,-0.06636801,-0.271206,29.4,-1.3825,-10.85
835,4292208,0.8870620000000001,-0.069784,-0.260104,28.0175,-1.3825,-9.3975
836,4292306,0.8881600000000001,-0.06539201,-0.24522,25.7075,-1.12,-9.065
837,4292404,0.8881600000000001,-0.066734,-0.237168,23.0825,-0.5775,-9.03
838,4292502,0.882914,-0.070882,-0.238754,20.4225,-0.07,-9.1
839,4292600,0.888648,-0.08479,-0.244732,17.85,0.0525,-9.66
840,4292698,0.8960899999999999,-0.10187,-0.251076,15.47,0.2275,-10.29
841,4292796,0.9057280999999999,-0.121268,-0.24778200000000003,12.81,0.5775,-10.815
842,4292894,0.913048,-0.130418,-0.264496,8.575,0.77,-11.3225
843,4292992,0.930982,-0.16043,-0.29219,5.04,0.8225,-11.69
844,4293089,0.9392780000000001,-0.159942,-0.246196,2.59,0.0175,-11.3925
845,4293187,0.936716,-0.146156,-0.245952,-1.645,0.5425,-11.06
846,4293285,0.9323239999999999,-0.156648,-0.302682,-4.9,1.435,-10.6225
847,4293383,0.925126,-0.159088,-0.33489,-5.7225,2.2575,-9.5725
848,4293481,0.9046301,-0.12456199999999999,-0.346358,-6.825,4.2875,-8.295
849,4293579,0.8852321,-0.08296,-0.355752,-7.35,6.895,-7.4725
850,4293677,0.868152,-0.042578,-0.341966,-6.6325,8.05,-6.86
851,4293775,0.8571719999999999,-0.01952,-0.32708200000000004,-6.4225,9.1,-6.615
852,4293873,0.8592460999999999,-0.015372,-0.316834,-6.755,9.975,-6.23
853,4293971,0.8824261,-0.010492,-0.329888,-9.2925,9.485,-5.7925
854,4294069,0.942572,-0.031110000000000002,-0.373076,-13.8075,7.245,-4.8125
855,4294167,1.021018,-0.076616,-0.49885799999999997,-17.2725,5.005,-3.115
856,4294265,1.1056860000000002,-0.12468399999999999,-0.599142,-17.6225,2.7475,-0.665
857,4294362,1.1715659999999999,-0.12017,-0.5291140000000001,-17.885,1.3475,3.08
858,4294460,1.197064,-0.05648601,-0.445788,-20.9475,3.045,7.0175
859,4294558,1.172786,-0.01708,-0.48983000000000004,-21.3325,4.27,9.415
860,4294656,1.115324,-0.048556,-0.5091061,-15.26,2.0475,10.9025
861,4294754,1.003206,-0.004148001,-0.46762600000000004,-13.8425,-0.4025,12.0225
862,4294852,0.9379360000000001,0.012565999999999999,-0.46506400000000003,-17.6575,-0.455,11.7775
863,4294950,0.9056061,0.026595999999999998,-0.457012,-17.0975,-1.4875,12.46
864,4295048,0.8838901,0.03843,-0.46457600000000004,-15.54,-2.17,13.545
865,4295146,0.887916,0.067344,-0.49007399999999995,-14.77,-2.415,15.9775
866,4295244,0.904874,0.07893401,-0.486658,-14.4025,-2.625,19.7225
867,4295342,0.93696,0.087474,-0.46591800000000005,-12.5825,-2.1,23.9925
868,4295439,0.9630681000000001,0.08454600000000001,-0.444934,-10.57,-1.505,28.14
869,4295537,0.96319,0.06283,-0.42590200000000006,-7.2975,-1.4525,30.9575
870,4295635,0.9577,0.034038,-0.42822,-3.2025,-3.29,31.0275
871,4295733,0.9429379999999999,0.036844,-0.42395,0.5075,-5.0925,27.685
872,4295831,0.9320801,0.049898000000000005,-0.441396,2.2575,-4.3575,20.65
873,4295929,0.9463540000000001,0.05977999999999999,-0.45933,2.205,-1.26,11.585
874,4296027,0.93086,0.08808401,-0.435906,-0.0525,3.815,2.1175
875,4296125,0.8888921000000001,0.10528599999999999,-0.391254,-1.26,8.8025,-5.81
876,4296223,0.857294,0.11529,-0.35477600000000004,-1.225,11.0775,-11.76
877,4296321,0.8274040000000001,0.12078,-0.331352,-1.12,11.025,-15.6625
878,4296419,0.801784,0.12456199999999999,-0.317932,-1.12,9.4675,-17.4475
879,4296516,0.794586,0.10650599999999999,-0.310856,-1.085,7.105,-16.8175
880,4296614,0.8071520000000001,0.09320801,-0.307318,-1.47,5.005,-14.315
881,4296712,0.8407021000000001,0.07747001,-0.302682,-2.3275,3.71,-10.395
882,4296810,0.8805960999999999,0.050874,-0.298534,-3.6225,3.885,-5.8275
883,4296908,0.9098761000000001,0.019032,-0.285968,-5.005,5.075,-1.26
884,4297006,0.928542,-0.009028000999999999,-0.27816,-6.5625,6.2125,2.135
885,4297104,0.9347639999999999,-0.030378,-0.259982,-7.49,6.125,3.92
886,4297202,0.9259799999999999,-0.041358,-0.247416,-8.1725,5.145,4.4975
887,4297300,0.910242,-0.044407999999999996,-0.23729,-8.7325,3.9375,4.3575
888,4297398,0.89487,-0.044164,-0.22082,-9.1175,3.4825,4.2
889,4297495,0.8874280999999999,-0.048922,-0.208864,-9.3975,3.745,4.5675
890,4297593,0.880718,-0.032208,-0.20861999999999997,-9.7475,4.1125,5.1975
891,4297691,0.8758381,-0.006832001,-0.21313400000000002,-9.5375,4.8125,5.81
892,4297789,0.8781559999999999,0.016592,-0.209352,-9.0125,5.74,6.0725
893,4297887,0.876692,0.041358,-0.20556999999999997,-8.225,6.965,5.775
894,4297985,0.8823040000000001,0.056608000000000006,-0.197152,-7.42,7.9275,5.1975
895,4298083,0.888282,0.05856,-0.1708,-6.8425,8.715,4.9525
896,4298181,0.8849879999999999,0.058316,-0.163968,-6.3,9.59,4.6375
897,4298279,0.892918,0.05209400000000001,-0.18324400000000002,-5.88,9.7125,4.34
898,4298377,0.904508,0.039406000000000004,-0.203496,-6.0725,9.065,4.55
899,4298475,0.919758,0.02562,-0.217404,-6.7025,8.05,4.62
900,4298572,0.941108,0.001098,-0.233508,-7.455,6.8425,4.7075
901,4298670,0.9740479999999999,-0.018422,-0.24717199999999998,-9.1,5.915,4.76
902,4298768,1.007354,-0.033916,-0.254126,-10.9725,5.565,4.3575
903,4298866,1.035536,-0.046848,-0.24997800000000003,-11.9525,5.0225,3.2375
904,4298964,1.050176,-0.060512,-0.23301999999999998,-11.34,4.27,1.645
905,4299062,1.047614,-0.058926,-0.199104,-8.4175,4.7775,-0.385
906,4299160,1.025898,-0.042089999999999995,-0.181292,-4.3575,5.7575,-2.3275
907,4299258,1.0025959999999998,-0.009882,-0.17397200000000002,-0.875,6.6675,-3.3425
908,4299356,0.9888101,0.026595999999999998,-0.161528,3.045,6.79,-3.6225
909,4299454,0.9845401,0.072956,-0.195322,7.3675,6.58,-3.3075
910,4299551,0.9969841,0.11955999999999999,-0.229848,10.605,4.97,-3.0275
911,4299649,1.00894,0.154818,-0.33366999999999997,12.3375,3.36,-3.22
912,4299747,1.043954,0.174948,-0.492148,10.99,-0.49,-5.3375
913,4299845,1.123132,0.135786,-0.46603999999999995,7.875,-7.49,-9.7125
914,4299943,1.235494,0.045872,-0.43346599999999996,8.715,-8.8375,-15.9775
915,4300041,1.2786819999999999,-0.006587999999999999,-0.41455600000000004,10.5875,-9.1175,-21.245
916,4300139,1.2195120000000002,-0.032208,-0.413092,7.385,-9.9575,-22.9425
917,4300237,1.150094,-0.052338,-0.36892800000000003,5.845,-10.22,-21.7875
918,4300335,1.100684,-0.063928,-0.33013200000000004,8.4525,-9.6775,-20.195
919,4300433,1.057496,-0.037698,-0.350628,10.2025,-9.24,-17.8675
920,4300531,1.0243120000000001,0.002928,-0.386862,9.2225,-10.22,-14.945
921,4300628,1.0168700000000002,0.016958,-0.361852,8.6625,-11.6375,-13.8775
922,4300726,1.01504,0.011590000000000001,-0.34794400000000003,10.885,-11.48,-14.735
923,4300824,0.9921040999999999,0.015738,-0.32574000000000003,11.83,-12.4775,-16.1
924,4300922,0.9345201,0.019032,-0.3233,9.485,-13.79,-17.36
925,4301020,0.87169,0.001586,-0.329888,8.295,-15.8725,-18.0775
926,4301118,0.83204,-0.024278,-0.346236,8.9075,-18.375,-17.7975
927,4301216,0.829234,-0.060146000000000005,-0.365268,9.2925,-19.9675,-17.0975
928,4301314,0.8460700999999999,-0.083204,-0.37856599999999996,9.205,-20.0025,-16.3625
929,4301412,0.865468,-0.08235001,-0.38064000000000003,8.3125,-19.145,-16.1525
930,4301510,0.8726661,-0.07246799999999999,-0.38295799999999997,7.4725,-18.305,-16.6775
931,4301608,0.8762040000000001,-0.05453401,-0.376248,7.7175,-18.0075,-18.3225
932,4301705,0.8781559999999999,-0.039772,-0.361852,9.0825,-17.99,-20.125
933,4301803,0.880352,-0.028426,-0.347578,10.85,-17.6575,-21.28
934,4301901,0.8725440999999999,-0.016836,-0.34123400000000004,12.565,-17.675,-21.2625
935,4301999,0.8699821,-0.002806,-0.336598,13.9125,-18.165,-20.86
936,4302097,0.882182,0.0051240009999999996,-0.329522,14.84,-19.2675,-20.475
937,4302195,0.895358,-0.010004,-0.33794,15.6975,-19.4425,-20.3
938,4302293,0.904508,-0.031964,-0.33623200000000003,17.0625,-19.005,-19.74
939,4302391,0.924394,-0.041358,-0.323666,17.7625,-18.7075,-18.6025
940,4302489,0.9412299999999999,-0.047824,-0.30683,17.9025,-18.375,-17.045
941,4302587,0.9433041,-0.062952,-0.29097,18.235,-17.6575,-15.12
942,4302684,0.9386681,-0.07832401,-0.279868,18.9175,-17.01,-13.1425
943,4302782,0.9353741,-0.094672,-0.275598,19.4425,-15.96,-11.34
944,4302880,0.9270780999999999,-0.111508,-0.267424,20.09,-14.1925,-9.45
945,4302978,0.9141459999999999,-0.11345999999999999,-0.26169000000000003,20.3525,-12.0225,-7.805
946,4303076,0.8969440000000001,-0.111874,-0.259494,20.055,-10.08,-6.615
947,4303174,0.8870620000000001,-0.11138599999999999,-0.258396,19.565,-9.415,-5.7575
948,4303272,0.8782780000000001,-0.108824,-0.25217399999999995,18.725,-9.765,-4.9
949,4303370,0.8823040000000001,-0.10492,-0.245952,17.4125,-10.5,-4.655
950,4303468,0.8875501,-0.09784401,-0.235582,15.75,-11.34,-4.13
951,4303566,0.8982860999999999,-0.08845001,-0.225944,13.1075,-12.11,-3.745
952,4303663,0.897066,-0.090646,-0.214598,10.3425,-12.8275,-3.4125
953,4303761,0.8969440000000001,-0.101138,-0.20105599999999998,7.7,-13.02,-3.255
954,4303859,0.8938940000000001,-0.112972,-0.19276,4.8125,-12.5475,-3.115
955,4303957,0.89243,-0.12163399999999999,-0.19397999999999999,1.575,-11.6375,-3.1675
956,4304055,0.8954801,-0.137128,-0.198372,-1.26,-10.815,-3.115
957,4304153,0.901702,-0.147376,-0.196908,-3.7625,-10.255,-3.2025
958,4304251,0.9032879999999999,-0.14274,-0.19215,-6.405,-9.7125,-3.5875
959,4304349,0.894748,-0.128832,-0.188978,-9.345,-8.4,-4.165
960,4304447,0.8851100000000001,-0.114558,-0.190198,-12.18,-6.65,-4.8475
961,4304545,0.874374,-0.108702,-0.21142600000000003,-15.5225,-4.9525,-5.4775
962,4304643,0.8647360000000001,-0.107116,-0.23472800000000002,-18.1475,-3.08,-5.5825
963,4304741,0.857294,-0.102846,-0.252784,-20.0375,-0.8575,-5.2675
964,4304838,0.8520479999999999,-0.09040201,-0.259372,-21.49,0.9975,-4.9
965,4304936,0.8527800999999999,-0.06929600000000001,-0.260592,-22.575,2.0125,-4.55
966,4305034,0.859978,-0.045994,-0.262666,-23.0125,1.855,-4.6375
967,4305132,0.876814,-0.030744,-0.26413000000000003,-22.3475,1.2775,-5.285
968,4305230,0.891942,-0.027816000000000004,-0.24949000000000002,-21.1225,0.8925,-5.9325
969,4305328,0.90951,-0.016958,-0.22801799999999997,-20.9825,0.8575,-6.51
970,4305426,0.9296399999999999,-0.009882,-0.198738,-22.995,1.26,-6.545
971,4305524,0.9419620999999999,-0.020374,-0.197518,-26.1625,1.505,-6.1075
972,4305622,0.9592860000000001,-0.040504000000000005,-0.20264200000000002,-29.4,1.5575,-5.5475
973,4305720,0.9752681000000001,-0.06075601,-0.29365399999999997,-32.9525,1.2075,-5.1275
974,4305818,1.032852,-0.163358,-0.48495,-34.3175,0.28,-4.3925
975,4305915,1.1192280000000001,-0.22191799999999998,-0.502152,-30.5725,-3.01,-3.0975
976,4306013,1.184132,-0.152622,-0.514352,-29.6275,-2.8,-1.295
977,4306111,1.262456,-0.093086,-0.5574180999999999,-28.14,-0.9975,-0.245
978,4306209,1.289906,-0.037088,-0.536556,-25.1475,-1.4525,0.77
979,4306307,1.251842,0.035746,-0.45603599999999994,-24.6225,0.0,1.1375
980,4306405,1.161074,0.145058,-0.37454,-25.69,1.4525,1.9775
981,4306503,1.0723799999999999,0.175314,-0.34562600000000004,-26.7225,-0.5425,2.905
982,4306601,1.005158,0.150792,-0.396256,-25.62,-3.9725,4.41
983,4306699,0.9535521,0.10809200000000001,-0.385886,-22.4525,-7.4025,8.1375
984,4306796,0.9028,0.079056,-0.418704,-21.5425,-9.1875,12.7925
985,4306894,0.8841341,0.05063,-0.42822,-20.125,-11.515,17.29
986,4306992,0.8731540999999999,0.017324000000000003,-0.44347,-17.815,-12.8275,21.0875
987,4307090,0.874252,0.006832001,-0.429196,-14.105,-13.3875,23.7125
988,4307188,0.8669319999999999,0.002928,-0.41785,-10.01,-12.8275,25.235
989,4307286,0.86803,0.002806,-0.413946,-6.23,-12.1275,25.795
990,4307384,0.8827921000000001,0.020496,-0.409432,-4.025,-10.885,25.305
991,4307482,0.8996280999999999,0.047945999999999996,-0.406504,-3.5875,-7.9625,23.3275
992,4307580,0.9211,0.075762,-0.41297,-3.6225,-4.0075,18.9525
993,4307677,0.95465,0.086864,-0.428708,-4.5325,-0.8925,12.7575
994,4307775,0.9608721,0.103578,-0.40809,-6.51,1.1725,5.775
995,4307873,0.9383020000000001,0.105896,-0.366976,-7.6825,3.605,-0.3675
996,4307971,0.91927,0.100162,-0.333914,-6.8775,4.8825,-4.515
997,4308069,0.883036,0.091988,-0.31049,-6.405,3.815,-7.175
998,4308167,0.8524139999999999,0.082106,-0.300242,-6.3525,1.4,-8.47
999,4308265,0.8298440999999999,0.072102,-0.29707,-6.3175,-1.225,-8.225
1000,4308363,0.8210601000000001,0.058926,-0.29365399999999997,-7.14,-3.2725,-6.79
1001,4308461,0.83021,0.046238,-0.29597199999999996,-8.75,-4.27,-4.2
1002,4308559,0.8522921,0.03172,-0.288774,-10.5175,-4.4275,-0.9275
1003,4308656,0.874984,0.020374,-0.272914,-11.9175,-3.605,2.17
1004,4308754,0.8908440999999999,0.005246,-0.257786,-12.8625,-2.625,4.3225
1005,4308852,0.901336,0.002196,-0.25071,-13.125,-3.1675,5.1275
1006,4308950,0.9090219999999999,-0.008540001,-0.245342,-13.1775,-4.62,5.355
1007,4309048,0.9125601000000001,-0.033672,-0.23240999999999998,-12.7575,-6.2125,5.2325
1008,4309146,0.9168301,-0.0488,-0.21838000000000002,-12.215,-7.1225,4.7075
1009,4309244,0.9154880999999999,-0.045627999999999995,-0.20691199999999998,-11.69,-7.525,4.3925
1010,4309342,0.912926,-0.023058000000000002,-0.19959200000000002,-11.1125,-7.7,4.48
1011,4309440,0.9090219999999999,-0.000488,-0.20703400000000002,-11.025,-7.315,4.235
1012,4309538,0.908168,0.023912,-0.21057199999999998,-10.8675,-6.65,4.13
1013,4309635,0.9120720999999999,0.045872,-0.208254,-10.99,-5.8625,4.2525
1014,4309733,0.9171961,0.054167999999999994,-0.20008,-11.2875,-4.9875,4.4975
1015,4309831,0.919392,0.061610000000000005,-0.19885999999999998,-11.7075,-4.2525,4.7075
1016,4309929,0.9232961,0.05648601,-0.19580999999999998,-12.075,-4.1475,4.62
1017,4310027,0.9298841,0.050263999999999996,-0.202764,-12.1975,-4.4275,4.1475
1018,4310125,0.9383020000000001,0.041236,-0.226798,-12.635,-4.76,2.6775
1019,4310223,0.9535521,0.027327999999999998,-0.254126,-13.125,-5.3025,0.49
1020,4310321,0.9708760000000001,0.007564001,-0.269498,-13.9825,-6.335,-1.68
1021,4310419,0.99125,-0.011346,-0.274012,-14.4725,-7.1925,-3.6925
1022,4310516,1.00406,-0.01769,-0.273158,-14.4375,-7.735,-5.4775
1023,4310614,1.003206,-0.010004,-0.25522399999999995,-14.0875,-8.4,-7.07
1024,4310712,0.9911281,0.0064659999999999995,-0.238632,-13.2825,-8.435,-8.9075
1025,4310810,0.984174,0.030622000000000003,-0.223016,-11.8825,-7.9625,-10.5875
1026,4310908,0.988566,0.053191999999999996,-0.20996199999999998,-10.57,-7.2625,-12.1275
1027,4311006,1.00101,0.07027201,-0.195932,-8.3475,-5.6525,-13.2125
1028,4311104,1.014918,0.090768,-0.191296,-4.935,-3.815,-14.315
1029,4311202,1.02663,0.120048,-0.23741199999999998,-1.61,-3.325,-15.33
1030,4311300,1.0384639999999998,0.135054,-0.267424,1.155,-4.8125,-16.205
1031,4311398,1.056032,0.12041400000000001,-0.337818,5.4425,-5.5125,-17.535
1032,4311495,1.083482,0.140666,-0.4026,8.995,-9.1875,-18.4625
1033,4311593,1.114348,0.155428,-0.38979,8.8025,-15.0325,-18.6375
1034,4311691,1.15473,0.11394800000000001,-0.354166,10.1325,-17.5875,-18.935
1035,4311789,1.16022,0.041602,-0.382226,13.195,-18.0425,-18.5675
1036,4311887,1.122034,-0.019275999999999998,-0.398208,14.63,-18.83,-16.555
1037,4311985,1.101294,-0.067832,-0.416996,15.9425,-18.41,-14.1575
1038,4312083,1.103734,-0.06832001,-0.44639799999999996,16.7825,-17.22,-12.6525
1039,4312181,1.092876,-0.060267999999999995,-0.403088,15.505,-14.98,-12.9675
1040,4312279,1.044442,-0.04453,-0.37149,14.9975,-11.4625,-15.82
1041,4312377,0.9797819999999999,-0.00061,-0.335012,14.8925,-10.08,-19.705
1042,4312475,0.8888921000000001,0.05648601,-0.321836,15.085,-9.03,-22.645
1043,4312572,0.8136180000000001,0.117852,-0.325862,16.765,-8.9775,-25.2875
1044,4312670,0.748104,0.149694,-0.343064,19.285,-9.45,-27.8075
1045,4312768,0.6958880000000001,0.154574,-0.377102,22.54,-9.415,-30.065
1046,4312866,0.665632,0.14701,-0.419314,25.27,-10.71,-30.975
1047,4312964,0.664046,0.1098,-0.44639799999999996,26.18,-13.615,-30.31
1048,4313062,0.7027201,0.050386,-0.457012,24.9375,-16.9225,-27.825
1049,4313160,0.7808001,0.023424,-0.451766,21.9975,-19.67,-24.4825
1050,4313258,0.8703481,-0.01342,-0.43346599999999996,18.4625,-20.055,-21.9275
1051,4313356,0.9392780000000001,-0.060024,-0.41858199999999995,16.065,-17.92,-20.8425
1052,4313453,0.9812460999999999,-0.078446,-0.41370200000000007,15.3475,-15.4175,-21.6475
1053,4313551,0.9903959999999999,-0.08869401,-0.389546,16.485,-12.5825,-23.135
1054,4313649,0.9551379999999999,-0.082716,-0.410042,17.57,-8.68,-24.395
1055,4313747,0.9383020000000001,-0.049654000000000004,-0.410408,18.375,-6.895,-24.9025
1056,4313845,0.9465981,-0.016592,-0.393328,18.095,-6.0725,-23.03
1057,4313943,0.9564799999999999,0.004026,-0.374662,17.5175,-5.0925,-19.635
1058,4314041,0.957944,-0.00427,-0.358192,18.4975,-4.48,-15.47
1059,4314139,0.957944,-0.01586,-0.341478,21.595,-5.285,-11.55
1060,4314237,0.9384239999999999,-0.038918,-0.330864,25.095,-6.825,-8.7675
1061,4314335,0.922686,-0.061610000000000005,-0.327448,27.9825,-8.155,-7.0525
1062,4314433,0.8996280999999999,-0.08454600000000001,-0.326228,29.295,-8.925,-5.95
1063,4314530,0.8814501,-0.10858,-0.313296,29.05,-8.8375,-5.46
1064,4314628,0.8666879999999999,-0.13847,-0.300852,27.8075,-7.805,-4.83
1065,4314726,0.8526581,-0.15128,-0.289628,25.6375,-6.6675,-3.92
1066,4314824,0.8426540000000001,-0.156648,-0.287066,22.785,-6.0375,-2.94
1067,4314922,0.8309421,-0.15420799999999998,-0.27876999999999996,19.6,-5.88,-2.0125
1068,4315020,0.8202060999999999,-0.136518,-0.27218200000000004,16.1175,-5.6175,-0.7175
1069,4315118,0.8164239999999999,-0.122244,-0.265106,12.5125,-5.11,0.455
1070,4315216,0.812642,-0.106994,-0.2562,9.0125,-4.515,1.2425
1071,4315314,0.81801,-0.10321199999999998,-0.24668400000000001,6.02,-3.465,1.3825
1072,4315412,0.8263060999999999,-0.096624,-0.237046,4.06,-1.6275,0.91
1073,4315509,0.829356,-0.071248,-0.234118,2.7825,0.5425,-0.0875
1074,4315607,0.832528,-0.064416,-0.24192600000000003,1.8375,2.17,-1.4175
1075,4315705,0.8425321,-0.052582000000000004,-0.22630999999999998,0.4375,2.73,-2.6775
1076,4315803,0.8540000000000001,-0.045872,-0.217892,-3.08,2.8,-4.27
1077,4315901,0.8697379999999999,-0.053924,-0.235094,-7.455,2.73,-5.215
1078,4315999,0.891576,-0.07112601,-0.268644,-10.43,1.8025,-5.39
1079,4316097,0.918538,-0.08784,-0.296948,-11.3225,0.6125,-4.9875
1080,4316195,0.940254,-0.098576,-0.3172,-12.25,-0.42,-4.34
1081,4316293,0.945744,-0.07234600000000001,-0.31781,-13.3525,-1.12,-4.235
1082,4316391,0.9519661,-0.036356,-0.31890799999999997,-14.1575,-0.8400001,-4.9175
1083,4316489,0.9502581,-0.015493999999999999,-0.31903000000000004,-13.475,-0.315,-5.7225
1084,4316587,0.9551379999999999,-0.010126000000000001,-0.33928200000000003,-12.18,0.5425,-6.2475
1085,4316684,0.9903959999999999,-0.010858,-0.32195799999999997,-10.955,1.5925,-5.8975
1086,4316782,1.040904,0.002074,-0.269254,-11.235,2.065,-4.3575
1087,4316880,1.089704,0.018422,-0.24583000000000002,-13.265,3.045,-2.66
1088,4316978,1.118374,0.013908000000000002,-0.251442,-14.4725,2.8525,-1.1725
1089,4317076,1.13155,-0.010004,-0.30353600000000003,-14.07,2.9575,0.0175
1090,4317174,1.152046,-0.044774,-0.360754,-12.565,2.8525,0.9975
1091,4317272,1.1599760000000001,-0.051484,-0.36648800000000004,-10.955,2.275,2.345
1092,4317370,1.15046,-0.041724000000000004,-0.36941599999999997,-9.765,0.9625,4.3575
1093,4317468,1.128012,-0.03782,-0.403942,-9.415,-2.6425,6.825
1094,4317566,1.099342,-0.02806,-0.414922,-9.555,-6.5275,8.4175
1095,4317664,1.056886,-0.009028000999999999,-0.44249399999999994,-9.6075,-8.33,8.96
1096,4317761,1.0249219999999999,-0.031476,-0.5103260000000001,-8.2425,-9.0475,8.7325
1097,4317859,1.0084520000000001,-0.014274,-0.46433199999999997,-5.775,-10.4125,9.87
1098,4317957,0.9562360999999999,0.02806,-0.424804,-8.05,-10.57,11.76
1099,4318055,0.9023121,0.045627999999999995,-0.41370200000000007,-9.52,-10.6225,13.1775
1100,4318153,0.8476561,0.05185,-0.43029399999999995,-9.6075,-11.7775,14.49
1101,4318251,0.806176,0.027327999999999998,-0.454084,-9.275,-12.81,16.1875
1102,4318349,0.7820199999999999,-0.00793,-0.446276,-8.9775,-13.37,18.3925
1103,4318447,0.7834840000000001,-0.030256,-0.446154,-8.96,-12.6525,20.4225
1104,4318545,0.8044680999999999,-0.042944,-0.455426,-8.61,-11.9175,21.28
1105,4318643,0.8283799999999999,-0.043188,-0.46298999999999996,-8.085,-11.2525,20.965
1106,4318741,0.8633940000000001,-0.019398,-0.465552,-8.1375,-11.165,19.1275
1107,4318838,0.9037761000000001,0.013541999999999998,-0.45993999999999996,-8.8375,-10.3425,16.24
1108,4318936,0.9284200999999999,0.049532,-0.460916,-10.535,-8.3825,13.2475
1109,4319034,0.9325680000000001,0.07344400000000001,-0.44859399999999994,-12.6175,-6.23,11.27
1110,4319132,0.93086,0.073688,-0.467992,-14.315,-4.6025,10.045
1111,4319230,0.9267120000000001,0.06661201,-0.438224,-16.45,-5.1275,9.8
1112,4319328,0.9298841,0.030012,-0.393206,-17.9375,-4.76,10.01
1113,4319426,0.9247601000000001,-0.0051240009999999996,-0.360998,-18.0775,-4.7425,9.415
1114,4319524,0.906216,-0.036356,-0.343674,-19.075,-5.7925,7.35
1115,4319622,0.873886,-0.040138,-0.333548,-21.0175,-6.755,4.9
1116,4319720,0.849242,-0.039162,-0.32025,-23.2225,-6.1425,3.0975
1117,4319818,0.83814,-0.03538,-0.31293000000000004,-25.4625,-4.2,2.7125
1118,4319915,0.8457040000000001,-0.038064,-0.29585,-28.245,-1.75,3.5175
1119,4320013,0.8608319999999999,-0.030622000000000003,-0.28121,-31.3775,0.665,5.075
1120,4320111,0.882182,-0.025254,-0.274622,-33.775,1.96,6.86
1121,4320209,0.8926741,-0.033794,-0.265106,-35.245,1.715,8.925
1122,4320307,0.8903561,-0.022936,-0.260714,-36.4175,0.8575,10.4125
1123,4320405,0.8893800999999999,-0.008174001,-0.256688,-37.2925,0.3675,11.235
1124,4320503,0.8852321,-0.002684,-0.254858,-37.555,0.7,11.62
1125,4320601,0.88999,0.011224,-0.252784,-37.03,1.3825,11.445
1126,4320699,0.8941380999999999,0.036233999999999995,-0.251808,-35.98,2.835,10.8325
1127,4320797,0.902068,0.058682000000000005,-0.263398,-34.4925,4.235,10.0975
1128,4320895,0.9054840000000001,0.081862,-0.271328,-32.83,4.9175,8.61
1129,4320993,0.9036540000000001,0.098088,-0.273402,-30.8875,5.0925,6.825
1130,4321091,0.9029221,0.11333800000000001,-0.268644,-28.91,4.8825,4.9175
1131,4321188,0.9004821,0.12029200000000001,-0.25498000000000004,-27.1075,4.48,3.4825
1132,4321286,0.901702,0.12456199999999999,-0.256932,-25.9525,4.2525,1.925
1133,4321384,0.9085340000000001,0.126148,-0.268034,-24.85,3.955,0.2275
1134,4321482,0.9236620999999999,0.110898,-0.275354,-23.6075,3.4825,-1.5225
1135,4321580,0.9403761,0.089792,-0.279624,-21.665,3.5,-3.3425
1136,4321678,0.9552601000000001,0.06795401,-0.282308,-19.04,3.395,-5.18
1137,4321776,0.957944,0.044286,-0.278526,-16.3975,2.6425,-6.3875
1138,4321874,0.9526979999999999,0.034892,-0.284504,-14.315,1.295,-7.7175
1139,4321972,0.945866,0.018544,-0.279624,-11.655,-0.245,-8.995
1140,4322070,0.9408639999999999,0.014884,-0.276574,-8.5925,-0.6825,-10.2375
1141,4322168,0.940254,0.009028000999999999,-0.268034,-4.5325,0.0175,-10.535
1142,4322266,0.9548940999999999,0.008906,-0.25790799999999997,0.7875,1.5225,-9.975
1143,4322363,0.9962521000000001,0.044652,-0.23253200000000002,6.7025,2.6425,-8.575
1144,4322461,1.031388,0.083204,-0.226798,12.3025,2.8175,-7.0875
1145,4322559,1.056276,0.12651400000000002,-0.262178,18.34,2.52,-5.6525
1146,4322657,1.0687200000000001,0.150792,-0.290604,23.835,1.225,-4.235
1147,4322755,1.091046,0.174094,-0.375394,28.805,0.175,-4.165
1148,4322853,1.130208,0.152134,-0.366976,30.7825,-3.185,-5.6875
1149,4322951,1.145214,0.090768,-0.34831,31.7275,-3.85,-9.2575
1150,4323049,1.12972,0.038918,-0.36880599999999997,32.935,-4.2175,-13.3525
1151,4323147,1.097512,-0.007808001,-0.394548,30.905,-6.8775,-15.2775
1152,4323245,1.098732,-0.059902,-0.39918400000000004,27.335,-8.5225,-15.6625
1153,4323343,1.113494,-0.120048,-0.363194,26.635,-8.575,-16.0125
1154,4323441,1.080066,-0.155428,-0.324276,26.6175,-6.79,-16.2575
1155,4323538,1.015772,-0.14310599999999998,-0.306708,25.13,-4.83,-16.66
1156,4323636,0.9348860999999999,-0.10760399999999999,-0.327936,24.5,-3.7975,-16.695
1157,4323734,0.8708360999999999,-0.039406000000000004,-0.410286,24.43,-3.5175,-16.6775
1158,4323832,0.8633940000000001,0.023912,-0.42553599999999997,21.2275,-4.5325,-17.6575
1159,4323930,0.854244,0.020130000000000002,-0.42321800000000004,19.6525,-4.0075,-19.6875
1160,4324028,0.8426540000000001,0.00183,-0.41846000000000005,19.6525,-3.6225,-22.365
1161,4324126,0.820938,-0.033672,-0.424072,17.2025,-5.355,-23.8175
1162,4324224,0.810446,-0.060634,-0.431148,12.915,-8.9775,-23.2925
1163,4324322,0.8280139999999999,-0.07076001,-0.434808,9.2225,-13.3,-21.5075
1164,4324420,0.870226,-0.08430201,-0.41663,6.6675,-15.085,-19.3725
1165,4324518,0.9057280999999999,-0.098576,-0.400038,5.7925,-13.93,-17.9025
1166,4324616,0.9274440999999999,-0.09821001,-0.39113200000000004,5.6,-11.5675,-16.975
1167,4324713,0.944768,-0.084912,-0.37417399999999995,5.4425,-9.345,-15.715
1168,4324811,0.9414741,-0.076494,-0.359656,5.635,-6.4575,-14.2625
1169,4324909,0.922076,-0.0793,-0.35807,6.6675,-3.99,-12.355
1170,4325007,0.927322,-0.085888,-0.351116,8.155,-2.975,-9.45
1171,4325105,0.93147,-0.07600599999999999,-0.331962,8.505,-2.835,-6.3875
1172,4325203,0.9317141,-0.07625,-0.308294,8.505,-2.5375,-4.095
1173,4325301,0.925736,-0.085156,-0.29768,8.54,-2.415,-2.695
1174,4325399,0.9140241,-0.09345201,-0.28938400000000003,8.4,-3.01,-2.0475
1175,4325497,0.90585,-0.11041,-0.286456,7.6825,-3.43,-2.415
1176,4325595,0.8957241,-0.134932,-0.28853,6.65,-3.885,-2.8175
1177,4325693,0.89426,-0.160918,-0.293288,5.145,-4.375,-2.8525
1178,4325790,0.893284,-0.17995,-0.29572800000000005,2.6775,-4.305,-2.6775
1179,4325888,0.89426,-0.190564,-0.297558,-0.1225,-4.2525,-2.135
1180,4325986,0.8969440000000001,-0.18995399999999998,-0.29877800000000004,-3.01,-4.06,-1.015
1181,4326084,0.8963341,-0.18043800000000002,-0.295118,-5.915,-3.5175,-0.1575
1182,4326182,0.894626,-0.16348,-0.284382,-8.89,-2.87,0.42
1183,4326280,0.8827921000000001,-0.142374,-0.271206,-11.8125,-2.59,1.4175
1184,4326378,0.87108,-0.12395199999999999,-0.259006,-14.7,-2.8175,2.2575
1185,4326476,0.8657120999999999,-0.110898,-0.259982,-17.36,-3.9725,2.87
1186,4326574,0.856074,-0.105896,-0.260714,-18.97,-5.1975,3.3425
1187,4326672,0.85949,-0.090646,-0.26474000000000003,-19.7225,-5.9675,3.0275
1188,4326769,0.8591241,-0.09479401,-0.267546,-19.5825,-5.845,3.0625
1189,4326867,0.8657120999999999,-0.092964,-0.26596,-19.3025,-5.2325,2.3275
1190,4326965,0.8724219999999999,-0.076494,-0.259494,-18.76,-3.605,0.8575
1191,4327063,0.8781559999999999,-0.061610000000000005,-0.255956,-18.095,-1.9425,-0.5425
1192,4327161,0.883036,-0.036233999999999995,-0.245098,-17.745,-0.8400001,-2.135
1193,4327259,0.8746181000000001,-0.004636001,-0.235582,-18.2525,-0.3325,-3.8325
1194,4327357,0.86864,0.02623,-0.234118,-18.34,-0.9275,-5.81
1195,4327455,0.8692501,0.032695999999999996,-0.240706,-17.29,-2.6425,-7.0175
1196,4327553,0.8796200000000001,0.019642,-0.241438,-15.0325,-4.48,-7.0875
1197,4327651,0.9076799999999999,0.011712,-0.233264,-11.9525,-6.9125,-6.755
1198,4327748,0.942206,0.007808001,-0.228872,-8.75,-9.625,-6.4575
1199,4327846,0.975024,-0.004392,-0.23521599999999998,-5.53,-11.27,-7.0175
1200,4327944,0.99918,-0.01098,-0.24192600000000003,-2.625,-11.6375,-8.9425
1201,4328042,1.00955,-0.010736,-0.24436599999999997,-0.14,-10.9375,-11.97
1202,4328140,1.009916,-0.0008540001,-0.24412199999999998,1.4525,-9.2225,-15.575
1203,4328238,1.003816,0.020252000000000003,-0.239852,2.59,-7.7525,-18.9875
1204,4328336,0.9952761,0.029158,-0.23460599999999998,3.0625,-7.6125,-21.21
1205,4328434,0.984784,0.024156,-0.230702,2.975,-8.33,-22.295
1206,4328532,0.976366,0.010736,-0.226798,2.45,-9.4325,-22.4
1207,4328630,0.9673379999999999,-0.008174001,-0.22204000000000002,1.4875,-10.57,-21.8225
1208,4328727,0.9622141,-0.033794,-0.218746,-0.14,-11.235,-20.72
1209,4328825,0.9613601,-0.064294,-0.20496,-2.1,-11.48,-19.1975
1210,4328923,0.9629459999999999,-0.09235399999999999,-0.193126,-4.8475,-11.025,-17.5875
1211,4329021,0.961726,-0.111752,-0.21581799999999998,-8.575,-10.1675,-16.03
1212,4329119,0.9817341,-0.147376,-0.24631799999999998,-12.635,-9.45,-14.5425
1213,4329217,1.0018639999999999,-0.205448,-0.293288,-15.575,-9.275,-13.0725
1214,4329315,1.021994,-0.252296,-0.40894400000000003,-15.2075,-7.35,-12.0925
1215,4329413,1.050542,-0.236192,-0.463966,-11.6025,-5.8625,-11.06
1216,4329511,1.066158,-0.162748,-0.483242,-9.87,-4.6725,-9.0475
1217,4329609,1.102758,-0.07393200000000001,-0.482876,-9.7475,-5.1275,-6.93
1218,4329707,1.129476,0.021838,-0.450058,-9.38,-7.98,-4.935
1219,4329804,1.115324,0.135664,-0.402478,-9.6775,-9.765,-3.1325
1220,4329902,1.05164,0.222894,-0.359168,-9.625,-10.6225,-1.4
1221,4330000,0.9650200999999999,0.209718,-0.355508,-7.5425,-12.075,0.6475
1222,4330098,0.8999940000000001,0.157746,-0.409554,-4.7425,-13.7375,3.045
1223,4330196,0.8809620000000001,0.11345999999999999,-0.414434,-2.1525,-16.1875,6.6675
1224,4330294,0.880352,0.09247601,-0.462258,-3.15,-16.8175,11.2525
1225,4330392,0.9084121,0.07442,-0.47518999999999995,-2.8525,-17.745,15.785
1226,4330490,0.9354959999999999,0.03538,-0.462136,-0.1225,-17.535,19.2675
1227,4330588,0.95709,0.00305,-0.444568,3.92,-16.4675,20.8075
1228,4330686,0.9618481,-0.005002,-0.42907399999999996,7.4375,-15.8375,19.705
1229,4330784,0.9636780999999999,0.000366,-0.429928,9.5025,-14.56,17.185
1230,4330882,0.957822,0.013786000000000001,-0.43358800000000003,10.6225,-11.69,13.1425
1231,4330980,0.947818,0.025742,-0.4478621,11.13,-7.8925,7.9275
1232,4331078,0.9567241,0.036966000000000006,-0.450912,9.9925,-5.215,2.135
1233,4331175,0.9729501,0.033428,-0.41101800000000005,8.365,-2.7125,-3.29
1234,4331273,0.9803921,0.029524,-0.35807,8.0675,-0.595,-8.2075
1235,4331371,0.958432,0.040992,-0.329766,8.54,-0.175,-12.4775
1236,4331469,0.9209780000000001,0.055998,-0.314272,9.0825,-1.3825,-15.5225
1237,4331567,0.8908440999999999,0.06954,-0.308172,9.52,-2.2225,-16.9925
1238,4331665,0.8736421,0.089304,-0.30048600000000003,9.975,-2.065,-17.43
1239,4331763,0.8640040000000001,0.10553,-0.298168,10.3075,-1.085,-16.6775
1240,4331861,0.8549761,0.113704,-0.296216,11.025,-0.0175,-15.0675
1241,4331959,0.8483879999999999,0.11431400000000001,-0.292678,12.1275,0.455,-13.4925
1242,4332057,0.8432639999999999,0.11895,-0.294142,13.1075,-0.42,-11.9175
1243,4332155,0.8481440999999998,0.121268,-0.29902199999999995,13.8775,-2.4675,-10.675
1244,4332253,0.857294,0.10089400000000001,-0.297192,15.1725,-4.865,-9.415
1245,4332350,0.8641260000000001,0.07978801,-0.28316199999999997,16.555,-6.4925,-8.3125
1246,4332448,0.868152,0.05624199999999999,-0.26779000000000003,17.9375,-7.2625,-8.1375
1247,4332546,0.868396,0.037698,-0.251198,19.9675,-6.615,-8.4525
1248,4332644,0.8613200000000001,0.024644,-0.238754,22.1725,-5.915,-9.66
1249,4332742,0.8510719999999999,0.021472,-0.238998,24.2375,-4.9,-11.1475
1250,4332840,0.8447280999999999,0.027816000000000004,-0.23851,25.305,-4.0425,-11.9
1251,4332938,0.848266,0.029889999999999996,-0.23155599999999998,25.3575,-3.325,-11.7075
1252,4333036,0.8524139999999999,0.029768,-0.22118600000000002,24.85,-2.1175,-10.8675
1253,4333134,0.864492,0.031354,-0.217892,24.08,-0.525,-10.5525
1254,4333232,0.8755940000000001,0.021838,-0.217892,23.3275,0.56,-9.835
1255,4333330,0.8820601,0.007198,-0.216916,22.6625,0.875,-9.135
1256,4333427,0.8890140999999999,-0.008662000999999999,-0.21679400000000001,22.1725,0.6825,-8.26
1257,4333525,0.8959681,-0.026108,-0.21166999999999997,22.015,0.77,-7.2275
1258,4333623,0.909632,-0.038674,-0.21386599999999997,21.9625,0.91,-6.3875
1259,4333721,0.91561,-0.046848,-0.21777,21.56,0.4375,-5.88
1260,4333819,0.9140241,-0.051972000000000004,-0.22935999999999998,20.755,-0.245,-5.46
1261,4333917,0.917074,-0.050142,-0.23911999999999997,19.775,-0.5075,-5.3725
1262,4334015,0.922686,-0.05368,-0.23851,17.8325,-0.7,-5.425
1263,4334113,0.9347639999999999,-0.04697001,-0.2379,15.4875,-0.91,-5.5475
1264,4334211,0.9555040000000001,-0.040748,-0.233996,13.09,-1.1725,-5.25
1265,4334309,0.973194,-0.036233999999999995,-0.234972,10.955,-1.75,-4.3925
1266,4334407,0.9916161,-0.033794,-0.232654,9.1875,-2.275,-3.01
1267,4334504,1.009306,-0.019764,-0.227408,8.33,-2.2575,-1.5225
1268,4334602,1.02846,-0.012444,-0.22338200000000002,8.5225,-2.135,-0.245
1269,4334700,1.0384639999999998,-0.001586,-0.22496799999999997,8.785,-2.3275,0.665
1270,4334798,1.048956,0.006954000000000001,-0.275354,8.68,-2.975,1.1025
1271,4334896,1.07421,0.00183,-0.341966,7.385,-5.565,1.26
1272,4334994,1.1270360000000001,-0.031476,-0.347456,5.6875,-8.435,1.26
1273,4335092,1.202798,-0.06039,-0.34172199999999997,5.0225,-8.575,-0.5075
1274,4335190,1.2524520000000001,-0.07588400000000001,-0.380274,4.4275,-7.7875,-5.005
1275,4335288,1.254404,-0.070516,-0.38674000000000003,2.31,-6.58,-10.36
1276,4335386,1.2104840000000001,-0.022692,-0.418216,-0.6125,-4.97,-14.5075
1277,4335483,1.186328,0.024766,-0.399794,-1.82,-5.67,-16.2925
1278,4335581,1.165832,0.04453,-0.348554,-0.63,-7.28,-15.68
1279,4335679,1.1422860000000001,0.068442,-0.33184,0.9275,-8.925,-14.1575
1280,4335777,1.104466,0.087962,-0.325984,1.8025,-12.1975,-12.6175
1281,4335875,1.062742,0.091988,-0.337574,2.9575,-15.2425,-11.795
1282,4335973,1.016626,0.094916,-0.33684200000000003,4.795,-18.8825,-12.215
1283,4336071,0.969412,0.09089001,-0.33818400000000004,5.775,-21.35,-14.0525
1284,4336169,0.9158540999999999,0.07515201,-0.330864,6.335,-23.345,-16.7825
1285,4336267,0.8483879999999999,0.047214,-0.33489,6.58,-25.1475,-19.6875
1286,4336365,0.787388,0.009150001,-0.34794400000000003,6.685,-27.0725,-21.5075
1287,4336463,0.743468,-0.031476,-0.368684,5.7225,-28.455,-22.365
1288,4336560,0.729438,-0.06746601,-0.394304,4.34,-28.5775,-22.1025
1289,4336658,0.74237,-0.08820599999999999,-0.40321,2.94,-27.4925,-21.2625
1290,4336756,0.7732359999999999,-0.08820599999999999,-0.403942,1.33,-25.305,-20.4575
1291,4336854,0.81313,-0.079178,-0.387228,0.0875,-22.7325,-19.88
1292,4336952,0.845582,-0.064172,-0.373076,-0.21,-19.915,-19.74
1293,4337050,0.8608319999999999,-0.053436000000000004,-0.365634,0.2975,-17.3075,-19.9675
1294,4337148,0.86803,-0.03965,-0.353434,1.715,-16.205,-19.355
1295,4337246,0.874862,-0.029401999999999998,-0.343674,2.59,-15.96,-17.675
1296,4337344,0.8805960999999999,-0.015982,-0.36051,2.2225,-15.7675,-15.9425
1297,4337442,0.903166,-0.007564001,-0.373808,2.3625,-15.295,-14.1575
1298,4337540,0.9375700000000001,-0.009272001,-0.35563,2.695,-14.1575,-11.9
1299,4337638,0.9625799999999999,-0.015982,-0.333426,2.6075,-12.1975,-9.38
1300,4337736,0.992226,-0.020130000000000002,-0.320494,2.975,-10.9725,-7.0525
1301,4337834,0.995398,-0.036966000000000006,-0.314394,4.2875,-10.535,-4.83
1302,4337931,0.979416,-0.061488,-0.304146,5.9325,-10.465,-2.73
1303,4338029,0.9577,-0.082472,-0.301706,7.21,-10.5525,-0.98
1304,4338127,0.9315921,-0.094916,-0.29987600000000003,7.8225,-10.6925,-0.07
1305,4338225,0.907436,-0.114924,-0.292434,8.155,-10.29,0.63
1306,4338323,0.8904780000000001,-0.119926,-0.28328400000000004,7.98,-10.0975,1.365
1307,4338421,0.874374,-0.124196,-0.270474,6.9125,-9.9925,2.065
1308,4338519,0.8669319999999999,-0.12456199999999999,-0.266692,5.04,-10.01,2.9925
1309,4338617,0.873276,-0.117852,-0.264252,2.765,-10.1325,4.13
1310,4338715,0.8724219999999999,-0.120902,-0.251686,0.14,-10.4825,5.2325
1311,4338813,0.8652241,-0.108458,-0.24339,-3.115,-9.905,6.2825
1312,4338911,0.8541221,-0.11053199999999999,-0.246806,-6.58,-9.24,6.7025
1313,4339009,0.841556,-0.116388,-0.25363800000000003,-9.9575,-8.7675,6.9125
1314,4339107,0.831918,-0.126148,-0.258762,-13.0025,-8.1725,7.0
1315,4339204,0.8254520000000001,-0.120902,-0.254614,-15.5225,-7.175,6.93
1316,4339302,0.823134,-0.11285,-0.263398,-18.025,-6.2825,6.16
1317,4339400,0.8228901,-0.10492,-0.268644,-20.37,-5.3375,5.1275
1318,4339498,0.8235001000000001,-0.094062,-0.280844,-23.0825,-3.465,3.6575
1319,4339596,0.8304541,-0.08417999999999999,-0.29585,-25.3225,-1.12,2.4325
1320,4339694,0.838506,-0.069662,-0.30744,-26.845,0.7175,1.3825
1321,4339792,0.8488761,-0.054412,-0.31781,-27.65,1.8725,0.875
1322,4339890,0.855342,-0.018666,-0.328302,-27.79,1.3825,0.4025
1323,4339988,0.8690061,0.022203999999999998,-0.304634,-28.315,0.7,-0.1925
1324,4340086,0.8897459999999999,0.021716,-0.30841599999999997,-28.7,-0.0875,-0.875
1325,4340183,0.9076799999999999,0.019642,-0.313906,-27.1075,-2.0125,-0.945
1326,4340281,0.947574,0.00122,-0.31158800000000003,-25.83,-2.695,-0.5775
1327,4340379,0.980758,0.0051240009999999996,-0.29377600000000004,-25.8475,-3.0975,0.8225
1328,4340477,1.0107700000000002,0.005612,-0.30378,-27.405,-2.485,2.3275
1329,4340575,1.048834,-0.014396,-0.31232,-28.595,-2.2225,3.01
1330,4340673,1.0887280000000001,-0.063928,-0.393084,-28.6475,-1.5925,2.1
1331,4340771,1.136796,-0.10516400000000001,-0.46628400000000003,-25.7425,-2.0475,0.3325
1332,4340869,1.169248,-0.10187,-0.456768,-21.595,-2.485,-0.1925
1333,4340967,1.1805940000000001,-0.064416,-0.410042,-18.585,-1.2775,1.47
1334,4341065,1.167052,-0.024644,-0.390766,-15.47,-0.5075,3.7625
1335,4341163,1.130208,0.028914,-0.390156,-11.8125,-1.855,5.005
1336,4341260,1.0920219999999998,0.09284201,-0.37685799999999997,-9.275,-3.3075,5.005
1337,4341358,1.0553,0.10553,-0.42163199999999995,-6.0025,-3.5175,3.675
1338,4341456,1.0206520000000001,0.11626600000000001,-0.38503200000000004,-0.945,-4.235,2.6775
1339,4341554,0.9456220999999999,0.1342,-0.37246599999999996,-0.5075,-5.4775,1.9425
1340,4341652,0.8816940000000001,0.124196,-0.39174200000000003,-1.2425,-8.6275,1.82
1341,4341750,0.8327720999999999,0.10126,-0.42626800000000004,-1.3125,-13.2825,2.7825
1342,4341848,0.8099581,0.05819401,-0.471896,-1.4875,-16.1525,5.2325
1343,4341946,0.813008,0.006344,-0.49227,-1.505,-18.025,9.5725
1344,4342044,0.8248421,-0.029036000000000003,-0.48116800000000004,-1.9075,-17.9375,14.35
1345,4342142,0.8367979999999999,-0.05563200000000001,-0.47763,-2.5375,-16.2575,18.1475
1346,4342240,0.846924,-0.066734,-0.47348199999999996,-2.38,-15.015,20.825
1347,4342337,0.8690061,-0.055998,-0.483608,-2.73,-13.8075,21.4725
1348,4342435,0.889258,-0.031964,-0.483608,-3.64,-11.375,21.0
1349,4342533,0.9087780000000001,-0.016958,-0.474946,-5.25,-7.2625,19.81
1350,4342631,0.9358620999999999,-0.004636001,-0.462624,-7.56,-3.325,16.87
1351,4342729,0.9551379999999999,-0.0032939999999999996,-0.48068,-9.38,-1.015,13.02
1352,4342827,0.9415959999999999,0.007198,-0.44993599999999995,-11.1125,-1.155,9.73
1353,4342925,0.9347639999999999,-0.00366,-0.411384,-11.2525,-0.8225,7.4025
1354,4343023,0.9290299999999999,-0.004148001,-0.37685799999999997,-10.9025,-1.3475,4.7775
1355,4343121,0.8995059999999999,0.00427,-0.35465399999999997,-11.76,-2.7475,2.205
1356,4343219,0.8692501,0.010248,-0.34221,-12.8275,-4.1475,0.245
1357,4343317,0.8508280999999999,0.008906,-0.325862,-14.0525,-4.8125,-0.7525
1358,4343414,0.8433860999999999,0.008784,-0.31293000000000004,-16.1525,-4.2,-0.805
1359,4343512,0.8437520000000001,0.010492,-0.302682,-18.8475,-3.3425,-0.035
1360,4343610,0.8476561,-0.0061,-0.290482,-20.8775,-2.7475,1.19
1361,4343708,0.8544879999999999,-0.020862000000000002,-0.27876999999999996,-22.4525,-2.3275,2.2925
1362,4343806,0.8620521000000001,-0.023668,-0.271572,-24.1325,-2.3625,3.605
1363,4343904,0.8637601,-0.029646,-0.267912,-25.7425,-2.5725,5.11
1364,4344002,0.8642481,-0.029524,-0.268522,-26.9325,-2.3975,6.195
1365,4344100,0.873276,-0.021228,-0.269864,-27.615,-2.5375,6.685
1366,4344198,0.88328,-0.016347999999999998,-0.269376,-27.825,-2.6775,7.0525
1367,4344296,0.8912100000000001,-0.005856,-0.267424,-27.4225,-2.2575,7.2625
1368,4344394,0.8958459999999999,0.017446,-0.27718400000000004,-26.81,-1.645,7.4725
1369,4344491,0.9004821,0.0427,-0.29072600000000004,-26.0225,-1.5575,7.4375
1370,4344590,0.9059721,0.069784,-0.298412,-25.5675,-1.9075,7.35
1371,4344687,0.919758,0.08869401,-0.293532,-24.71,-2.0475,6.9475
1372,4344785,0.9328120000000001,0.102846,-0.28694400000000003,-23.205,-1.7325,6.335
1373,4344883,0.9459880999999999,0.113094,-0.285114,-21.84,-1.33,5.215
1374,4344981,0.9541620000000001,0.10309000000000001,-0.285724,-19.8975,-1.12,3.71
1375,4345079,0.954528,0.09991799999999999,-0.284748,-17.6225,-1.0675,1.9075
1376,4345177,0.9496479999999999,0.08625401,-0.288042,-15.1025,-0.735,-0.6475
1377,4345275,0.9396440999999999,0.07832401,-0.298656,-12.4075,-0.07,-3.465
1378,4345372,0.9250040999999999,0.06771001,-0.303048,-10.255,-0.0525,-6.1075
1379,4345470,0.9090219999999999,0.054167999999999994,-0.305122,-8.715,-0.8225,-8.5225
1380,4345568,0.90036,0.040992,-0.312442,-7.0525,-1.54,-10.325
1381,4345666,0.9120720999999999,0.032451999999999995,-0.32561799999999996,-4.7425,-1.2775,-11.06
1382,4345764,0.945744,0.039772,-0.292556,-2.695,-0.7175,-10.29
1383,4345862,0.981978,0.059048,-0.273524,-0.49,0.8575,-8.96
1384,4345960,1.015528,0.08820599999999999,-0.270108,3.64,1.9775,-7.875
1385,4346058,1.032608,0.12139000000000001,-0.310368,7.3675,2.0825,-7.3675
1386,4346156,1.0614,0.13078399999999998,-0.360144,9.975,0.8925,-7.2625
1387,4346254,1.110444,0.11224,-0.35746,12.355,-1.295,-7.56
1388,4346352,1.159732,0.071858,-0.35929,16.345,-2.1525,-9.7125
1389,4346449,1.154364,0.035502,-0.37942,19.5475,-3.9725,-13.2825
1390,4346547,1.103246,0.001952,-0.395036,20.02,-7.7175,-16.38
1391,4346645,1.073966,-0.028792,-0.400282,19.5125,-10.78,-18.1475
1392,4346743,1.060912,-0.051484,-0.391986,18.9875,-11.7425,-19.25
1393,4346841,1.02236,-0.079056,-0.367098,18.3575,-10.2725,-20.3175
1394,4346939,0.9653860000000001,-0.080276,-0.38613000000000003,18.165,-8.155,-21.3325
1395,4347037,0.92781,-0.040016,-0.44249399999999994,17.885,-8.995,-22.4525
1396,4347135,0.907436,0.0008540001,-0.4331,18.4625,-10.7275,-24.29
1397,4347233,0.8874280999999999,0.01708,-0.437492,20.8775,-10.0975,-27.23
1398,4347331,0.8693719999999999,0.032330000000000005,-0.435418,23.415,-10.43,-30.9575
1399,4347428,0.8309421,0.036722000000000005,-0.46128199999999997,23.6775,-11.48,-34.1425
1400,4347526,0.8054439999999999,0.028304000000000003,-0.48556000000000005,23.065,-13.6325,-35.7875
1401,4347624,0.795928,0.033428,-0.49007399999999995,22.645,-16.065,-35.07
1402,4347722,0.813984,0.031476,-0.48543800000000004,20.79,-17.78,-33.2325
1403,4347820,0.8559521000000001,0.008906,-0.465308,18.025,-18.165,-30.975
1404,4347918,0.9049959999999999,-0.01342,-0.443226,15.9075,-16.7125,-29.1725
1405,4348016,0.934154,-0.029036000000000003,-0.42065600000000003,15.1725,-14.42,-27.895
1406,4348114,0.94855,-0.039894,-0.406138,15.9775,-13.3525,-26.8625
1407,4348212,0.9433041,-0.044407999999999996,-0.395646,17.0625,-13.685,-25.5675
1408,4348310,0.947818,-0.055754,-0.41248199999999996,17.92,-14.14,-23.345
1409,4348407,0.951722,-0.06954,-0.395402,19.145,-13.5275,-20.405
1410,4348505,0.9489161,-0.07198,-0.363926,20.0375,-12.145,-17.5175
1411,4348603,0.93879,-0.067222,-0.341478,20.755,-11.2175,-15.365
1412,4348701,0.9354959999999999,-0.071248,-0.329888,22.295,-11.025,-13.5275
1413,4348799,0.9178061,-0.0793,-0.316346,24.0625,-10.7275,-12.075
1414,4348897,0.8968221,-0.09613601,-0.30561,25.585,-10.7275,-10.885
1415,4348995,0.8814501,-0.106628,-0.30182800000000004,26.635,-11.34,-9.835
1416,4349093,0.870714,-0.12395199999999999,-0.29524,26.5125,-12.0225,-9.0125
1417,4349191,0.865956,-0.140666,-0.29402,24.9375,-12.32,-8.0675
1418,4349289,0.862784,-0.14383800000000002,-0.29402,22.68,-11.9,-7.0
1419,4349387,0.8643700999999999,-0.14786400000000002,-0.28548,19.9325,-10.9375,-5.95
1420,4349484,0.868762,-0.147376,-0.282308,16.625,-9.765,-4.585
1421,4349582,0.868396,-0.134932,-0.281698,13.1075,-8.645,-3.36
1422,4349680,0.8643700999999999,-0.118584,-0.27218200000000004,9.3625,-7.595,-2.7475
1423,4349778,0.8508280999999999,-0.10687200000000001,-0.263398,5.705,-6.86,-1.7675
1424,4349876,0.835822,-0.102602,-0.253882,2.3275,-6.4925,-0.98
1425,4349974,0.8308200000000001,-0.10321199999999998,-0.25193000000000004,-1.1375,-5.9675,-0.2275
1426,4350072,0.8274040000000001,-0.114558,-0.249002,-4.2,-4.9175,0.175
1427,4350170,0.8283799999999999,-0.118096,-0.250222,-7.105,-4.2175,0.63
1428,4350268,0.838628,-0.114802,-0.25851799999999997,-9.485,-4.06,0.5425
1429,4350366,0.8559521000000001,-0.111752,-0.263154,-11.1475,-4.0075,0.3325
1430,4350464,0.865956,-0.10430999999999999,-0.25132,-12.565,-3.8325,0.07
1431,4350561,0.8721780000000001,-0.098088,-0.244854,-15.05,-3.6225,-0.385
1432,4350659,0.8741300999999999,-0.100162,-0.260592,-18.0425,-3.2375,-0.6825
1433,4350757,0.8782780000000001,-0.102968,-0.282552,-20.475,-2.8875,-0.455
1434,4350855,0.877912,-0.10248,-0.29463,-22.1025,-1.89,-0.14
1435,4350953,0.8731540999999999,-0.089792,-0.296216,-23.345,-0.455,0.1925
1436,4351051,0.8674200000000001,-0.061,-0.292434,-24.115,1.12,0.1925
1437,4351149,0.871568,-0.037088,-0.28987199999999996,-23.9925,2.555,-0.035
1438,4351247,0.8901120000000001,-0.022692,-0.283894,-22.3475,3.885,0.21
1439,4351345,0.909998,-0.012078,-0.265594,-20.5275,5.67,0.8225
1440,4351443,0.9348860999999999,-0.004026,-0.245952,-19.4775,7.84,1.6625
1441,4351541,0.9680700000000001,0.010858,-0.23009200000000002,-19.285,9.1525,2.7125
1442,4351638,0.9939341,0.02135,-0.261812,-19.705,9.45,3.4825
1443,4351736,1.037488,0.0122,-0.248392,-19.5825,8.5925,3.255
1444,4351834,1.062986,0.002806,-0.237656,-20.16,7.6825,1.7675
1445,4351932,1.0784799999999999,-0.029036000000000003,-0.30182800000000004,-20.755,7.7525,-0.9975
1446,4352030,1.098244,-0.10004,-0.4453,-17.815,6.3175,-3.01
1447,4352128,1.119716,-0.11016600000000001,-0.49739399999999995,-11.5325,2.66,-2.87
1448,4352226,1.142408,-0.06941801,-0.515572,-8.085,-1.68,-1.155
1449,4352324,1.18523,-0.022813999999999997,-0.518134,-6.615,-5.18,-0.105
1450,4352422,1.1836440000000001,0.025863999999999998,-0.533872,-4.7775,-7.42,1.3475
1451,4352520,1.139358,0.04404201,-0.561932,-1.61,-8.2425,3.3425
1452,4352618,1.076284,0.12431800000000001,-0.46238,1.8725,-10.85,5.7925
1453,4352716,0.9709979999999999,0.17751,-0.402966,0.6825,-12.1975,7.0875
1454,4352813,0.883036,0.15006,-0.37502800000000003,0.9275,-13.51,7.0875
1455,4352911,0.8102020000000001,0.108214,-0.396744,0.2625,-15.225,7.175
1456,4353009,0.7895840999999999,0.051484,-0.451888,-0.3675,-17.0625,9.0825
1457,4353107,0.8052,-0.015982,-0.478972,0.4725,-19.32,12.95
1458,4353205,0.8309421,-0.082472,-0.47067600000000004,2.17,-19.4425,17.4475
1459,4353303,0.8610761,-0.12175599999999999,-0.47299399999999997,4.2525,-17.3425,20.4925
1460,4353401,0.9009700999999999,-0.109556,-0.482754,6.2825,-15.8025,21.28
1461,4353499,0.9311040999999999,-0.072956,-0.489464,8.4,-14.84,19.88
1462,4353597,0.942572,-0.030012,-0.490806,9.695,-12.635,16.555
1463,4353695,0.954284,0.009272001,-0.492026,9.03,-9.2225,11.97
1464,4353793,0.962458,0.042089999999999995,-0.47213999999999995,6.615,-6.1775,6.93
1465,4353891,0.9455,0.072956,-0.48007,3.36,-4.9,2.205
1466,4353988,0.91805,0.07686,-0.4636,1.1025,-6.4925,-1.3475
1467,4354086,0.907192,0.054046000000000004,-0.42895200000000006,0.035,-8.3475,-2.59
1468,4354184,0.9059721,0.025742,-0.40076999999999996,-0.7525,-10.2025,-2.94
1469,4354282,0.8949921000000001,-0.000244,-0.379664,-1.9075,-12.74,-2.8175
1470,4354380,0.8755940000000001,-0.01769,-0.37258800000000003,-3.9375,-14.7175,-2.205
1471,4354478,0.85949,-0.037088,-0.366854,-6.09,-15.47,-1.61
1472,4354576,0.8518040000000001,-0.05563200000000001,-0.357948,-8.2775,-14.7875,-1.435
1473,4354674,0.84546,-0.067588,-0.349164,-10.4825,-13.0725,-1.5925
1474,4354772,0.844606,-0.072712,-0.3355,-12.3725,-11.375,-1.82
1475,4354870,0.847046,-0.069174,-0.32403200000000004,-13.6675,-9.94,-1.925
1476,4354968,0.8437520000000001,-0.06405001,-0.316102,-14.84,-8.6975,-1.61
1477,4355065,0.839116,-0.060634,-0.307684,-15.89,-7.525,-1.26
1478,4355163,0.8439959999999999,-0.052582000000000004,-0.311832,-16.87,-6.93,-0.5775
1479,4355261,0.848266,-0.040016,-0.313906,-17.8675,-6.7025,0.1225
1480,4355359,0.861442,-0.029768,-0.30683,-18.2525,-6.2125,0.98
1481,4355457,0.8788879999999999,-0.015616,-0.2989,-17.8675,-5.565,1.4
1482,4355555,0.895602,0.009150001,-0.28767600000000004,-16.905,-4.8125,1.715
1483,4355653,0.9093880999999999,0.034038,-0.28121,-15.785,-3.5175,1.6625
1484,4355751,0.9145120999999999,0.060877999999999995,-0.279258,-14.5425,-2.52,1.225
1485,4355849,0.9140241,0.081496,-0.277672,-13.3175,-1.995,0.56
1486,4355947,0.9079241,0.094672,-0.270962,-11.62,-1.5925,-0.525
1487,4356045,0.9046301,0.092964,-0.270108,-8.995,-0.595,-1.54
1488,4356143,0.8945040000000001,0.09162200000000001,-0.27328,-6.475,0.28,-2.7475
1489,4356240,0.8794981,0.08893801,-0.27889200000000003,-4.445,1.12,-4.0775
1490,4356338,0.8697379999999999,0.09052401,-0.290116,-2.38,1.6625,-5.495
1491,4356436,0.8670540999999999,0.081496,-0.29365399999999997,-0.56,1.5925,-6.895
1492,4356534,0.874374,0.071248,-0.29829,0.875,0.9975,-8.4
1493,4356632,0.8781559999999999,0.059902,-0.29902199999999995,2.1175,-0.07,-9.52
1494,4356730,0.889624,0.041724000000000004,-0.30866,3.0275,-0.805,-10.29
1495,4356828,0.904752,0.011712,-0.309148,4.4275,-1.5925,-10.4125
1496,4356926,0.9297620999999999,0.007808001,-0.289628,4.935,-2.31,-10.08
1497,4357024,0.965874,0.002196,-0.277794,5.425,-1.33,-9.45
1498,4357122,1.00833,-0.008174001,-0.279868,6.965,0.525,-8.995
1499,4357220,1.046516,-0.02684,-0.246074,9.205,2.6775,-8.7325
1500,4357317,1.0650600000000001,-0.028914,-0.24351199999999998,12.8625,5.95,-8.75
1501,4357415,1.062132,-0.005368,-0.30439,16.7475,7.1225,-8.68
1502,4357513,1.0612780000000002,0.012688,-0.356606,18.8125,4.97,-8.2425
1503,4357611,1.082384,0.024766,-0.35465399999999997,20.615,2.695,-8.4875
1504,4357709,1.130574,0.017202000000000002,-0.378322,23.695,2.555,-10.185
1505,4357807,1.1666860000000001,0.025131999999999998,-0.45335200000000003,24.4475,1.9075,-12.775
1506,4357905,1.153144,0.020862000000000002,-0.4758,22.82,-0.1225,-15.4
1507,4358003,1.1228879999999999,0.000366,-0.45579200000000003,22.89,-2.345,-18.025
1508,4358101,1.100196,-0.024766,-0.422242,24.0275,-5.6875,-20.1775
1509,4358199,1.071892,-0.059536,-0.391376,22.9775,-8.085,-21.805
1510,4358297,1.0169920000000001,-0.0671,-0.41687399999999997,20.1425,-8.6975,-22.925
1511,4358395,0.9779521000000001,-0.0366,-0.465186,16.835,-10.1325,-23.555
1512,4358492,0.954528,-0.041236,-0.45566999999999996,14.84,-12.355,-23.94
1513,4358590,0.940132,-0.061975999999999996,-0.462136,15.9425,-12.0575,-25.7075
1514,4358688,0.904508,-0.057828,-0.47360399999999997,17.0975,-12.11,-28.2275
1515,4358786,0.8546101,-0.04453,-0.48922,15.8375,-12.075,-29.995
1516,4358884,0.8219139999999999,-0.032330000000000005,-0.49654,14.0175,-14.595,-30.1
1517,4358982,0.809348,-0.032086,-0.49300200000000005,11.7775,-17.71,-28.8225
1518,4359080,0.8252079999999999,-0.042578,-0.48385200000000006,9.6775,-19.18,-26.95
1519,4359178,0.8513161,-0.061610000000000005,-0.472628,8.015,-19.0225,-25.34
1520,4359276,0.8885261000000001,-0.07612801,-0.45249799999999996,7.2275,-18.095,-24.08
1521,4359374,0.9090219999999999,-0.08442401,-0.43371000000000004,7.945,-16.2925,-23.2575
1522,4359472,0.908168,-0.07393200000000001,-0.39967199999999997,9.415,-14.6125,-22.9425
1523,4359569,0.8605879999999999,-0.05770599999999999,-0.39589,9.3275,-13.405,-22.61
1524,4359667,0.8298440999999999,-0.07039400000000001,-0.41785,8.7325,-13.4575,-21.2625
1525,4359765,0.8315520000000001,-0.100162,-0.410286,8.015,-13.9475,-18.9875
1526,4359863,0.8427761,-0.108946,-0.385276,6.4225,-12.985,-16.4325
1527,4359961,0.8712021000000001,-0.102724,-0.370392,4.655,-11.5675,-13.895
1528,4360059,0.8992620000000001,-0.101382,-0.35697199999999996,3.6925,-10.43,-11.4975
1529,4360157,0.9107301,-0.100772,-0.343186,3.22,-9.2575,-9.975
1530,4360255,0.900848,-0.108214,-0.330986,2.73,-8.505,-9.1
1531,4360353,0.8838901,-0.11504600000000001,-0.33061999999999997,3.045,-7.9975,-8.155
1532,4360451,0.8620521000000001,-0.119804,-0.326106,3.5,-8.015,-7.5075
1533,4360549,0.8443620999999999,-0.128344,-0.321836,3.6575,-8.085,-6.3875
1534,4360646,0.8360661,-0.124074,-0.320494,3.15,-8.015,-5.1975
1535,4360744,0.828624,-0.11529,-0.319274,2.1,-7.2625,-4.13
1536,4360842,0.8215481,-0.110898,-0.317688,0.8925,-6.2475,-2.94
1537,4360940,0.823134,-0.093574,-0.312076,-0.385,-5.39,-2.0825
1538,4361038,0.8274040000000001,-0.070638,-0.298412,-2.1,-4.48,-1.3475
1539,4361136,0.8289901,-0.053801999999999996,-0.28377199999999997,-3.4475,-3.57,-0.4375
1540,4361234,0.8260620000000001,-0.031842,-0.269742,-4.515,-2.8175,0.2625
1541,4361332,0.81374,-0.027572000000000003,-0.260714,-5.11,-1.8725,0.595
1542,4361430,0.7986121,-0.024034,-0.251442,-4.865,-1.0325,0.875
1543,4361528,0.78446,-0.014152000000000001,-0.251076,-4.7075,-0.3675,0.805
1544,4361625,0.780312,-0.020984,-0.265228,-3.99,-0.1225,0.525
1545,4361723,0.7911701,-0.039162,-0.263276,-3.1675,-0.3675,0.42
1546,4361821,0.81252,-0.044286,-0.254858,-3.5,-0.3675,-0.1925
1547,4361919,0.8350901,-0.041846,-0.24656199999999998,-4.41,0.6125,-1.54
1548,4362017,0.862784,-0.03904,-0.236192,-5.8975,2.0475,-3.6575
1549,4362115,0.8790100000000001,-0.040382,-0.24949000000000002,-8.54,3.78,-6.0725
1550,4362213,0.8962120000000001,-0.049898000000000005,-0.272304,-10.29,4.48,-8.05
1551,4362311,0.9168301,-0.047336,-0.303902,-10.815,4.27,-9.415
1552,4362409,0.9381801,-0.041724000000000004,-0.32513000000000003,-10.675,3.7625,-10.5175
1553,4362507,0.9502581,-0.021228,-0.315492,-9.45,3.1675,-11.27
1554,4362605,0.959774,-0.00122,-0.319396,-7.595,3.4475,-12.1625
1555,4362703,0.9598959999999999,-0.004514,-0.343308,-3.8675,4.1825,-12.6
1556,4362800,0.9669721,-0.019275999999999998,-0.334158,0.665,4.8475,-12.0225
1557,4362898,0.9834421,-0.023790000000000002,-0.318176,2.905,4.8475,-9.8875
1558,4362996,1.008208,-0.00488,-0.313662,2.1875,4.0425,-7.5075
1559,4363094,1.0499319999999999,0.016104,-0.33379200000000003,-0.9625,2.87,-5.32
1560,4363192,1.0978780000000001,0.014518000000000001,-0.314272,-5.565,1.4,-3.78
1561,4363290,1.134722,-0.031232,-0.33366999999999997,-10.0625,2.065,-3.85
1562,4363388,1.1477760000000001,-0.106994,-0.42724399999999996,-12.845,2.17,-5.0575
1563,4363486,1.14009,-0.18544000000000002,-0.4819,-13.0375,-0.665,-5.25
1564,4363584,1.131794,-0.182756,-0.484462,-13.755,-3.9025,-3.535
1565,4363682,1.119838,-0.146766,-0.49532,-14.9275,-6.8425,0.6825
1566,4363780,1.084702,-0.112728,-0.497882,-14.3325,-9.5725,4.515
1567,4363878,1.030046,-0.07002799999999999,-0.486048,-13.9825,-11.0075,7.035
1568,4363975,0.9563581,-0.009150001,-0.44822799999999996,-15.3825,-11.41,8.9775
1569,4364073,0.879864,-0.004392,-0.490196,-16.5725,-10.92,10.885
1570,4364171,0.838994,0.0,-0.457988,-15.6625,-11.9875,13.965
1571,4364269,0.7999539999999999,0.035746,-0.45762200000000003,-17.605,-12.81,17.955
1572,4364367,0.8202060999999999,0.053070000000000006,-0.480314,-19.1625,-13.16,22.015
1573,4364465,0.8540000000000001,0.042578,-0.483242,-18.3575,-12.46,26.4775
1574,4364563,0.9086559999999999,0.015616,-0.46811400000000003,-15.4,-8.785,29.7675
1575,4364661,0.9486720999999999,0.00183,-0.44725200000000004,-11.8825,-5.005,31.815
1576,4364759,0.987102,0.020496,-0.43346599999999996,-8.82,-3.045,31.185
1577,4364857,1.006622,0.056729999999999996,-0.42773199999999995,-4.795,-2.7475,27.72
1578,4364955,1.00955,0.09125599999999999,-0.42333999999999994,-1.5925,-2.6775,21.875
1579,4365052,0.9913719999999999,0.11736400000000001,-0.44286000000000003,-0.49,-1.855,14.21
1580,4365150,0.9605060999999999,0.13359000000000001,-0.45115600000000006,-1.4875,-0.8400001,6.335
1581,4365248,0.9240280000000001,0.135054,-0.41272600000000004,-2.24,0.63,0.35
1582,4365346,0.9114620000000001,0.11236199999999999,-0.374784,-1.2425,1.855,-3.71
1583,4365444,0.8977980999999999,0.083936,-0.351238,-0.4725,0.9625,-6.4575
1584,4365542,0.8699821,0.06112201,-0.341966,-0.8575,-1.4175,-8.365
1585,4365640,0.84729,0.037576,-0.337086,-1.3475,-4.2525,-9.3625
1586,4365738,0.83814,0.01769,-0.330742,-1.7675,-6.125,-9.205
1587,4365836,0.8355780999999999,-0.001342,-0.325862,-2.975,-6.4925,-8.1725
1588,4365934,0.8405800999999999,-0.019154,-0.315614,-4.8475,-5.9325,-6.6325
1589,4366032,0.84851,-0.033672,-0.304634,-6.58,-4.585,-4.655
1590,4366130,0.8576601,-0.042212,-0.294508,-8.12,-3.5175,-2.625
1591,4366227,0.8616860000000001,-0.04941,-0.28316199999999997,-9.52,-3.2725,-0.8400001
1592,4366325,0.8601,-0.0488,-0.28316199999999997,-11.1825,-3.535,0.3325
1593,4366423,0.85949,-0.054655999999999996,-0.27876999999999996,-12.32,-3.745,1.1375
1594,4366521,0.860344,-0.055388,-0.280356,-13.405,-4.235,1.75
1595,4366619,0.8718120999999999,-0.046604,-0.27633,-14.3675,-4.6375,2.4675
1596,4366717,0.8884040000000001,-0.035868000000000004,-0.266326,-15.0675,-4.4975,3.22
1597,4366815,0.9042641,-0.020130000000000002,-0.255346,-15.225,-3.6925,3.9375
1598,4366913,0.9173181,0.010736,-0.25803000000000004,-14.63,-2.2225,4.235
1599,4367011,0.9241501,0.033306,-0.259372,-13.685,-0.9975,4.1125
1600,4367109,0.93086,0.054778,-0.2562,-12.7575,-0.1575,3.6225
1601,4367207,0.9335440999999999,0.063196,-0.24778200000000003,-11.48,0.4375,2.9225
1602,4367305,0.931958,0.07515201,-0.240218,-10.01,0.98,1.785
1603,4367402,0.9242720999999999,0.087108,-0.2501,-8.645,1.4,0.49
1604,4367500,0.9126820999999999,0.093696,-0.26961999999999997,-7.7175,1.26,-0.8400001
1605,4367598,0.9108521,0.095282,-0.281698,-7.3325,0.805,-2.485
1606,4367696,0.9148780000000001,0.091378,-0.28975,-6.895,-0.2275,-4.13
1607,4367794,0.9208561,0.07625,-0.29743600000000003,-6.685,-1.4875,-5.775
1608,4367892,0.9236620999999999,0.06270801,-0.28731,-5.985,-2.135,-7.4375
1609,4367990,0.918782,0.044407999999999996,-0.27755,-4.4275,-2.9575,-8.855
1610,4368088,0.9075581,0.02623,-0.26766799999999996,-2.555,-4.27,-9.8875
1611,4368186,0.903532,0.016592,-0.255346,-0.98,-4.725,-11.1125
1612,4368284,0.919758,0.019275999999999998,-0.23997399999999997,0.2275,-4.025,-12.635
1613,4368382,0.9439139999999999,0.023546,-0.254004,1.6625,-2.3275,-14.0175
1614,4368480,0.986614,0.02074,-0.260592,3.0625,-0.6475,-14.8225
1615,4368577,1.03639,0.02806,-0.241194,5.775,2.1,-14.4725
1616,4368675,1.074576,0.063074,-0.274012,9.8175,4.9,-13.2125
1617,4368773,1.095194,0.101382,-0.354532,13.055,4.41,-11.7075
1618,4368871,1.119472,0.12383,-0.36661,14.3675,0.98,-10.92
1619,4368969,1.16754,0.10797000000000001,-0.352702,15.8375,-1.5925,-11.8475
1620,4369067,1.217682,0.060512,-0.38856999999999997,17.1325,-3.29,-14.315
1621,4369165,1.211948,0.020252000000000003,-0.409554,14.665,-5.4775,-16.695
1622,4369263,1.174372,-0.01586,-0.388448,11.8125,-6.2825,-18.3925
1623,4369361,1.1538760000000001,-0.06539201,-0.359046,10.08,-7.4025,-19.7225
1624,4369459,1.118252,-0.10723800000000001,-0.35160399999999997,7.91,-9.17,-20.615
1625,4369556,1.081286,-0.11248399999999999,-0.44347,3.045,-11.0775,-21.1225
1626,4369654,1.0498100000000001,-0.10504200000000001,-0.40357600000000005,-2.17,-13.7725,-21.42
1627,4369752,0.9941780000000001,-0.098332,-0.370392,-1.6975,-12.215,-23.415
1628,4369850,0.9320801,-0.065148,-0.371002,1.8375,-11.97,-26.215
1629,4369948,0.8516819999999999,-0.024644,-0.382104,3.71,-12.8975,-28.5075
1630,4370046,0.794952,0.012322,-0.41858199999999995,4.655,-14.175,-30.5725
1631,4370144,0.7622561,0.030866,-0.449692,5.67,-16.135,-32.165
1632,4370242,0.747738,0.048434,-0.468236,5.425,-17.6575,-32.55
1633,4370340,0.753838,0.055510000000000004,-0.49117200000000005,3.255,-19.2675,-32.0075
1634,4370437,0.7854361,0.046604,-0.48592609999999997,1.3475,-20.9475,-30.0125
1635,4370535,0.8346021,0.019886,-0.47372600000000004,0.6125,-21.4375,-28.1575
1636,4370633,0.88633,-0.000976,-0.461038,1.12,-20.09,-27.125
1637,4370731,0.9126820999999999,-0.0032939999999999996,-0.45078999999999997,2.3625,-18.235,-26.88
1638,4370829,0.916952,0.013054,-0.463478,4.48,-16.6075,-26.9675
1639,4370927,0.887184,0.019275999999999998,-0.44115200000000004,7.8575,-16.6425,-26.9325
1640,4371025,0.856806,0.013663999999999999,-0.46323400000000003,9.7125,-17.255,-26.0925
1641,4371123,0.8718120999999999,-0.004392,-0.47153,11.585,-18.2175,-24.395
1642,4371221,0.8940161,-0.012931999999999999,-0.439566,13.2825,-17.9375,-21.595
1643,4371319,0.9126820999999999,-0.004392,-0.410896,14.1575,-16.2225,-19.1975
1644,4371416,0.925736,0.00671,-0.388692,15.26,-15.1375,-17.0275
1645,4371514,0.9264680000000001,-0.004636001,-0.376248,17.5525,-14.77,-15.4875
1646,4371612,0.9049959999999999,-0.018178,-0.361242,21.0525,-14.49,-14.455
1647,4371710,0.8819381,-0.047092,-0.35160399999999997,24.745,-14.49,-13.5625
1648,4371808,0.8668100000000001,-0.050874,-0.347456,27.7725,-15.2075,-12.425
1649,4371906,0.8615640999999999,-0.058926,-0.342454,28.945,-15.645,-11.3925
1650,4372004,0.863028,-0.067222,-0.338794,29.5925,-15.155,-10.1675
1651,4372102,0.8585139999999999,-0.067344,-0.33013200000000004,29.89,-14.0,-9.0825
1652,4372200,0.8615640999999999,-0.06575800000000001,-0.319396,29.5575,-12.7225,-8.6975
1653,4372298,0.862784,-0.055388,-0.301218,28.665,-11.7425,-8.2075
1654,4372396,0.8642481,-0.042334,-0.288042,26.845,-11.06,-7.9275
1655,4372493,0.8672979999999999,-0.032818,-0.27938,24.6925,-10.5,-7.9275
1656,4372591,0.8668100000000001,-0.038551999999999996,-0.268766,22.645,-10.01,-7.8575
1657,4372689,0.8666879999999999,-0.050142,-0.265228,20.755,-9.03,-7.805
1658,4372787,0.8713241,-0.06880801,-0.271694,19.1275,-8.0325,-7.9625
1659,4372885,0.874862,-0.090158,-0.26766799999999996,17.36,-7.1575,-7.9625
1660,4372983,0.8797421000000001,-0.11041,-0.264252,13.79,-6.3525,-7.4725
1661,4373081,0.8814501,-0.119926,-0.269742,9.275,-5.1275,-7.035
1662,4373179,0.8786440999999999,-0.132126,-0.266936,4.9525,-3.8675,-6.8075
1663,4373277,0.8652241,-0.137006,-0.27633,0.4725,-2.835,-6.58
1664,4373374,0.8487540000000001,-0.14993800000000002,-0.295118,-4.235,-1.75,-6.0725
1665,4373472,0.832894,-0.153232,-0.31951799999999997,-8.4525,-0.805,-5.46
1666,4373570,0.8291120999999999,-0.146278,-0.331352,-12.6,0.1575,-4.445
1667,4373668,0.817278,-0.11712,-0.329644,-16.6075,0.8400001,-3.255
1668,4373766,0.8136180000000001,-0.08637601,-0.326472,-19.0925,1.6275,-2.73
1669,4373864,0.8141060999999999,-0.061732,-0.323666,-19.3025,2.2225,-2.2925
1670,4373962,0.8203280000000001,-0.045872,-0.310612,-18.62,2.555,-1.9775
