,T,ax,ay,az,gx,gy,gz
0,32917,0.511424,0.3843,-0.603168,17.9025,-18.34,-17.675
1,33068,0.5355800999999999,0.383812,-0.672708,125.1075,-125.2825,-88.04251
2,33165,0.5846241,0.406992,-0.721996,121.905,-146.265,-48.9475
3,33262,0.586576,0.399428,-0.7190681,56.7175,-105.8225,-33.5825
4,33360,0.5873079999999999,0.40626,-0.7139439999999999,-3.5525,-6.65,-4.0775
5,33457,0.583648,0.410652,-0.729804,-6.5975,-5.88,-3.7625
6,33554,0.573156,0.42724399999999996,-0.73688,-5.11,-5.705,-3.7975
7,33651,0.5777920999999999,0.41992399999999996,-0.7229720000000001,0.035,-3.0975,-3.15
8,33748,0.577304,0.411628,-0.7320001,2.66,-1.89,-2.695
9,33845,0.5787680000000001,0.41016400000000003,-0.714676,3.0975,-1.7325,-2.8525
10,33942,0.5738880000000001,0.410408,-0.720532,3.08,-1.9075,-3.0275
11,34039,0.583404,0.411872,-0.72712,4.0775,-1.61,-2.9925
12,34136,0.5724239999999999,0.410652,-0.735416,5.74,-1.6275,-2.9925
13,34233,0.5826720000000001,0.410408,-0.738588,7.175,-0.8400001,-2.905
14,34330,0.590724,0.40016,-0.740052,8.54,-0.455,-3.045
15,34427,0.6117081,0.5453399999999999,-0.989908,10.92,-1.3825,-3.29
16,34524,0.588284,0.38966799999999996,-0.7571321,25.4975,1.3125,-2.59
17,34621,0.618784,0.41016400000000003,-0.7427361,5.495,-7.315,-4.4625
18,34718,0.5738880000000001,0.407236,-0.7483479999999999,7.035,-10.115,-4.585
19,34815,0.5797441,0.434076,-0.7673800000000001,18.48,-3.85,-3.6925
20,34913,0.5873079999999999,0.41382399999999997,-0.7227279999999999,27.965,2.17,-2.7475
21,35010,0.590724,0.410896,-0.696376,28.3675,3.5175,-1.96
22,35107,0.5968241,0.5185,-0.7190681,19.32,-0.315,0.315
23,35204,0.537776,0.23692399999999997,-0.48312,33.95,0.7875,3.6925
24,35301,0.564128,0.39284,-0.711504,1.4175,-6.195,-2.0475
25,35398,0.571692,0.392352,-0.721996,1.7325,-4.3225,-3.395
26,35495,0.573156,0.395524,-0.7373681,1.6975,-3.5525,-3.255
27,35592,0.580232,0.388692,-0.7190681,3.08,-1.855,-3.255
28,35689,0.580232,0.393816,-0.7241920000000001,2.5375,-1.9425,-3.255
29,35786,0.5738880000000001,0.39161999999999997,-0.727364,2.3625,-2.2225,-3.185
30,35883,0.57828,0.390644,-0.725168,2.555,-2.03,-3.185
31,35980,0.576816,0.39161999999999997,-0.72712,2.205,-2.345,-3.1675
32,36077,0.580232,0.39161999999999997,-0.725168,2.2575,-2.3275,-3.15
33,36174,0.577548,0.392108,-0.729072,2.2925,-2.31,-3.185
34,36271,0.579012,0.39161999999999997,-0.725412,2.275,-2.1875,-3.115
35,36368,0.580232,0.388448,-0.7285841,2.0825,-2.2225,-3.2025
36,36466,0.580232,0.388692,-0.7278521,2.03,-2.31,-3.4125
37,36563,0.5797441,0.388936,-0.7285841,1.9425,-2.31,-3.5
38,36660,0.5797441,0.388692,-0.726876,1.785,-2.24,-3.57
39,36757,0.579012,0.389912,-0.727608,1.6275,-2.275,-3.7975
40,36854,0.580476,0.38966799999999996,-0.727608,1.505,-2.38,-3.9025
41,36951,0.580476,0.393328,-0.724436,1.47,-2.45,-3.9725
42,37048,0.578036,0.39284,-0.726144,1.505,-2.45,-3.9725
43,37145,0.57706,0.390644,-0.726876,1.6275,-2.625,-3.99
44,37242,0.5787680000000001,0.391864,-0.7256560000000001,1.5925,-2.6425,-3.99
45,37339,0.577304,0.39113200000000004,-0.7239479999999999,1.645,-2.73,-3.99
46,37436,0.5795,0.393328,-0.725168,1.6625,-2.73,-4.025
47,37533,0.577548,0.393328,-0.7288279999999999,1.75,-2.765,-4.025
48,37630,0.576572,0.393572,-0.72712,1.8725,-2.9225,-3.9725
49,37727,0.577548,0.390888,-0.725168,1.9775,-3.045,-3.92
50,37824,0.57584,0.392352,-0.727608,2.03,-3.2025,-3.885
51,37921,0.576572,0.39284,-0.726144,2.1875,-3.255,-3.885
52,38019,0.576816,0.393572,-0.727608,2.2925,-3.3075,-3.8675
53,38116,0.5751081,0.396256,-0.727364,2.3625,-3.4125,-3.815
54,38213,0.57462,0.391864,-0.7300479999999999,2.345,-3.5,-3.6925
55,38310,0.574864,0.39161999999999997,-0.7283400999999999,2.3975,-3.4475,-3.605
56,38407,0.5751081,0.392108,-0.730536,2.38,-3.4125,-3.64
57,38504,0.57462,0.39113200000000004,-0.7288279999999999,2.345,-3.4125,-3.605
58,38601,0.5743761,0.392352,-0.7278521,2.24,-3.22,-3.7275
59,38698,0.5736441,0.394548,-0.7266321,2.24,-3.185,-3.7975
60,38795,0.574132,0.394304,-0.726388,2.1525,-3.115,-3.9375
61,38892,0.573156,0.392596,-0.72712,1.9775,-2.9925,-4.06
62,38989,0.572912,0.390644,-0.727608,1.785,-2.8,-4.1825
63,39086,0.57584,0.387228,-0.727608,1.33,-2.45,-4.55
64,39183,0.571692,0.39161999999999997,-0.727364,0.98,-2.24,-4.8475
65,39280,0.57218,0.39723200000000003,-0.724924,1.085,-2.1175,-4.795
66,39377,0.5724239999999999,0.397476,-0.7278521,1.0675,-2.205,-4.8825
67,39474,0.57218,0.401624,-0.7241920000000001,1.1375,-2.1875,-4.6025
68,39572,0.571936,0.401136,-0.7239479999999999,1.5575,-2.345,-4.3575
69,39669,0.571204,0.40138,-0.72346,1.8375,-2.5025,-4.0075
70,39766,0.57218,0.398696,-0.7227279999999999,2.1,-2.485,-3.7975
71,39863,0.573156,0.397964,-0.7259001,2.17,-2.5725,-3.605
72,39960,0.571936,0.400648,-0.724924,2.2575,-2.5025,-3.535
73,40057,0.571936,0.396988,-0.7237041,2.31,-2.415,-3.395
74,40154,0.574132,0.393816,-0.7266321,2.345,-2.3625,-3.4475
75,40251,0.5753520000000001,0.39479200000000003,-0.726388,2.1525,-2.24,-3.5875
76,40348,0.572912,0.396012,-0.725168,2.065,-2.24,-3.6575
77,40445,0.5736441,0.396744,-0.726144,1.9425,-2.065,-3.815
78,40542,0.57462,0.395768,-0.7266321,1.8725,-1.9775,-3.85
79,40639,0.5726680000000001,0.3965,-0.726388,1.785,-1.96,-3.8675
80,40736,0.57218,0.397476,-0.726144,1.855,-2.0825,-3.85
81,40833,0.57218,0.397964,-0.72346,1.8725,-2.0475,-3.92
82,40930,0.5724239999999999,0.396744,-0.727364,1.785,-1.995,-3.885
83,41027,0.5724239999999999,0.398452,-0.7266321,1.715,-2.0125,-3.9025
84,41124,0.57218,0.39771999999999996,-0.726144,1.715,-1.995,-3.71
85,41222,0.5724239999999999,0.397476,-0.727608,1.855,-1.96,-3.5875
86,41319,0.5738880000000001,0.398208,-0.7278521,1.855,-2.1,-3.5525
87,41416,0.57218,0.398452,-0.726144,1.9075,-2.03,-3.4825
88,41513,0.57218,0.398452,-0.7256560000000001,1.9775,-2.1875,-3.3425
89,41610,0.5738880000000001,0.39918400000000004,-0.7241920000000001,2.2225,-2.1525,-3.2375
90,41707,0.571448,0.397476,-0.7266321,2.2575,-2.275,-3.2375
91,41804,0.571448,0.39771999999999996,-0.725412,2.275,-2.2925,-3.115
92,41901,0.5751081,0.395768,-0.721996,2.3975,-2.24,-2.9925
93,41998,0.573156,0.398208,-0.726144,2.3625,-2.3625,-2.9575
94,42095,0.571692,0.39771999999999996,-0.72468,2.345,-2.205,-2.94
95,42192,0.572912,0.398208,-0.7259001,2.3975,-2.1875,-2.8525
96,42289,0.571692,0.396988,-0.725168,2.2575,-2.2225,-2.94
97,42386,0.5726680000000001,0.39771999999999996,-0.7266321,2.1175,-2.2225,-2.9225
98,42483,0.573156,0.39479200000000003,-0.725168,1.9775,-1.82,-2.94
99,42580,0.5726680000000001,0.395768,-0.72224,1.89,-1.7325,-3.0275
100,42677,0.5726680000000001,0.393816,-0.72346,1.5925,-1.6625,-3.1675
101,42775,0.5736441,0.394304,-0.7239479999999999,1.3125,-1.5575,-3.3425
102,42872,0.57584,0.392352,-0.72468,1.015,-1.4525,-3.465
103,42969,0.5738880000000001,0.395768,-0.7259001,0.595,-1.47,-3.64
104,43066,0.5751081,0.39405999999999997,-0.726144,0.35,-1.4875,-3.885
105,43163,0.5726680000000001,0.394304,-0.721996,0.0875,-1.6975,-4.2175
106,43260,0.5743761,0.395036,-0.721996,0.0875,-1.82,-4.34
107,43357,0.576328,0.39918400000000004,-0.7224841,0.315,-1.995,-4.48
108,43454,0.574132,0.39894,-0.72346,0.42,-2.0825,-4.41
109,43551,0.57706,0.398452,-0.72224,0.595,-2.1525,-4.4625
110,43648,0.5724239999999999,0.39894,-0.72468,0.4725,-2.1525,-4.5675
111,43745,0.5734,0.398452,-0.7239479999999999,0.385,-2.065,-4.69
112,43842,0.5736441,0.398696,-0.724924,0.28,-1.9775,-4.8475
113,43939,0.571692,0.40016,-0.7229720000000001,0.1925,-1.8375,-4.935
114,44036,0.571448,0.404064,-0.721996,0.35,-1.8725,-4.865
115,44133,0.5726680000000001,0.4026,-0.720532,0.4725,-1.89,-4.69
116,44231,0.5736441,0.404064,-0.7198,0.7175,-1.89,-4.515
117,44328,0.5736441,0.404064,-0.719312,0.8225,-1.995,-4.34
118,44425,0.570716,0.40528400000000003,-0.7198,1.0675,-1.9425,-4.165
119,44522,0.5738880000000001,0.403332,-0.72102,1.3125,-1.9775,-3.955
120,44619,0.574132,0.40504,-0.7198,1.4875,-1.995,-3.71
121,44716,0.5751081,0.40381999999999996,-0.720288,1.54,-2.1175,-3.7275
122,44813,0.5726680000000001,0.401136,-0.7198,1.645,-2.1,-3.535
123,44910,0.5743761,0.399916,-0.7227279999999999,1.645,-2.065,-3.605
124,45007,0.572912,0.404552,-0.721996,1.61,-2.0475,-3.605
125,45104,0.5734,0.40381999999999996,-0.7217521,1.6975,-1.995,-3.5875
126,45201,0.5726680000000001,0.40381999999999996,-0.721264,1.8375,-1.9425,-3.3075
127,45298,0.57218,0.404552,-0.720532,2.0125,-2.065,-3.15
128,45395,0.571204,0.400404,-0.719312,2.17,-1.995,-3.045
129,45492,0.57096,0.405528,-0.72224,2.17,-2.03,-2.87
130,45589,0.5726680000000001,0.40992,-0.71858,2.17,-1.785,-2.555
131,45687,0.5738880000000001,0.40577199999999997,-0.7200439999999999,2.5025,-1.575,-2.2925
132,45784,0.57462,0.4026,-0.7198,2.625,-1.575,-2.17
133,45881,0.574132,0.398452,-0.7232161,2.5025,-1.575,-2.1525
134,45978,0.5734,0.400892,-0.720288,2.415,-1.61,-2.2925
135,46075,0.5751081,0.399428,-0.7227279999999999,2.31,-1.5225,-2.485
136,46172,0.574132,0.400648,-0.720532,2.1875,-1.2775,-2.45
137,46269,0.576328,0.400404,-0.721508,2.065,-1.2425,-2.5025
138,46366,0.576572,0.400892,-0.72102,1.925,-1.3125,-2.6425
139,46463,0.57584,0.401868,-0.7200439999999999,1.925,-1.3125,-2.73
140,46560,0.574132,0.401868,-0.718824,1.8725,-1.4525,-2.7825
141,46657,0.575596,0.401624,-0.720288,1.785,-1.435,-2.87
142,46754,0.57706,0.401136,-0.72102,1.855,-1.365,-2.9575
143,46851,0.5753520000000001,0.399428,-0.718824,1.8025,-1.575,-3.01
144,46949,0.576328,0.400648,-0.7217521,1.82,-1.6275,-3.115
145,47046,0.576572,0.401868,-0.72102,1.68,-1.715,-3.22
146,47143,0.577304,0.400892,-0.72102,1.715,-1.8725,-3.1675
147,47240,0.576084,0.402844,-0.7190681,1.8025,-1.9775,-3.22
148,47337,0.577304,0.401868,-0.7195560000000001,1.89,-2.1175,-3.29
149,47434,0.5785241,0.400404,-0.7171161,1.96,-2.17,-3.1675
150,47531,0.576816,0.401624,-0.720776,1.96,-2.24,-3.255
151,47628,0.57706,0.40138,-0.7200439999999999,2.0125,-2.275,-3.2725
152,47725,0.57706,0.403088,-0.720288,1.96,-2.31,-3.2375
153,47822,0.5753520000000001,0.403088,-0.718092,1.9425,-2.3975,-3.3425
154,47919,0.576816,0.403332,-0.71858,1.9775,-2.3275,-3.36
155,48016,0.5753520000000001,0.403332,-0.7176041,2.0125,-2.31,-3.2375
156,48113,0.576328,0.403088,-0.7178479999999999,2.0825,-2.38,-3.1325
157,48211,0.576328,0.403088,-0.7183361,2.1525,-2.2575,-3.045
158,48308,0.5726680000000001,0.403088,-0.7171161,2.24,-2.2225,-3.01
159,48405,0.576816,0.4026,-0.720288,2.17,-2.2925,-2.975
160,48502,0.575596,0.40381999999999996,-0.719312,2.205,-2.1875,-2.94
161,48599,0.576816,0.400648,-0.7198,2.205,-2.1875,-2.8875
162,48696,0.576572,0.403088,-0.71858,2.275,-2.2575,-2.8
163,48793,0.57706,0.40211199999999997,-0.721264,2.3275,-2.24,-2.94
164,48890,0.576572,0.401624,-0.7195560000000001,2.2575,-2.345,-2.8525
165,48987,0.576816,0.40381999999999996,-0.7200439999999999,2.3625,-2.555,-2.87
166,49084,0.576572,0.401136,-0.719312,2.485,-2.485,-2.8175
167,49181,0.57462,0.401624,-0.7195560000000001,2.5375,-2.555,-2.835
168,49278,0.576572,0.401624,-0.720776,2.4675,-2.52,-2.765
169,49375,0.57584,0.4023561,-0.7198,2.555,-2.45,-2.765
170,49472,0.576572,0.400892,-0.7195560000000001,2.5725,-2.555,-2.8
171,49570,0.576572,0.39918400000000004,-0.718092,2.6075,-2.6075,-2.7125
172,49667,0.5751081,0.40381999999999996,-0.718092,2.695,-2.695,-2.73
173,49764,0.576084,0.40138,-0.719312,2.835,-2.8175,-2.5725
174,49861,0.576816,0.39967199999999997,-0.718824,2.8875,-2.8,-2.52
175,49958,0.5753520000000001,0.401136,-0.720776,3.045,-2.8175,-2.4675
176,50055,0.5738880000000001,0.400892,-0.7200439999999999,3.15,-2.9575,-2.345
177,50152,0.5751081,0.398696,-0.72102,3.15,-2.975,-2.485
178,50249,0.576084,0.399428,-0.72102,3.08,-2.835,-2.485
179,50346,0.5738880000000001,0.40016,-0.7195560000000001,2.905,-2.73,-2.59
180,50443,0.574132,0.401136,-0.71858,2.8,-2.7475,-2.555
181,50540,0.5743761,0.40138,-0.719312,2.7475,-2.6075,-2.4675
182,50637,0.5753520000000001,0.400404,-0.7195560000000001,2.6425,-2.5375,-2.485
183,50734,0.5751081,0.400648,-0.72102,2.5375,-2.5025,-2.625
184,50831,0.57584,0.399428,-0.721508,2.5375,-2.45,-2.625
185,50928,0.575596,0.397476,-0.720776,2.5025,-2.3625,-2.5725
186,51026,0.576572,0.40016,-0.721508,2.52,-2.3275,-2.6075
187,51123,0.57462,0.39894,-0.721264,2.3625,-2.3975,-2.6425
188,51220,0.576084,0.40016,-0.720776,2.38,-2.3975,-2.6075
189,51317,0.576084,0.399428,-0.721264,2.3975,-2.38,-2.66
190,51414,0.577304,0.39479200000000003,-0.719312,2.3975,-2.38,-2.695
191,51511,0.576572,0.398208,-0.7190681,2.45,-2.3975,-2.7475
192,51608,0.5734,0.39918400000000004,-0.721996,2.45,-2.52,-2.7125
193,51705,0.5753520000000001,0.39894,-0.719312,2.4675,-2.5375,-2.73
194,51802,0.575596,0.398696,-0.719312,2.345,-2.4325,-2.6775
195,51899,0.5734,0.39723200000000003,-0.7217521,2.38,-2.275,-2.6775
196,51996,0.574132,0.399428,-0.7195560000000001,2.3975,-2.345,-2.7125
197,52093,0.574864,0.400404,-0.720776,2.3275,-2.31,-2.6075
198,52190,0.5743761,0.400404,-0.720532,2.3625,-2.2925,-2.5725
199,52288,0.5736441,0.400892,-0.719312,2.4675,-2.2925,-2.5725
200,52385,0.574864,0.39723200000000003,-0.7190681,2.5025,-2.24,-2.555
201,52482,0.576572,0.396256,-0.7190681,2.5025,-2.275,-2.4325
202,52579,0.576084,0.39771999999999996,-0.7190681,2.485,-2.2575,-2.5375
203,52676,0.576572,0.398208,-0.721264,2.38,-2.2575,-2.52
204,52773,0.5753520000000001,0.399916,-0.720532,2.45,-2.3275,-2.5725
205,52870,0.5753520000000001,0.39723200000000003,-0.718824,2.555,-2.3275,-2.625
206,52967,0.575596,0.398696,-0.7200439999999999,2.45,-2.3625,-2.6075
207,53064,0.57584,0.398208,-0.720532,2.59,-2.275,-2.5375
208,53161,0.5751081,0.396988,-0.7224841,2.5025,-2.2575,-2.555
209,53258,0.5734,0.394304,-0.720288,2.5375,-2.1175,-2.555
210,53355,0.5751081,0.39771999999999996,-0.721264,2.4675,-1.855,-2.52
211,53453,0.576084,0.39771999999999996,-0.7200439999999999,2.3975,-1.785,-2.4325
212,53550,0.575596,0.396012,-0.7198,2.345,-1.5925,-2.415
213,53647,0.5743761,0.399916,-0.721264,2.17,-1.4,-2.4675
214,53744,0.575596,0.397476,-0.721996,2.2575,-1.4,-2.45
215,53841,0.57706,0.393572,-0.721996,2.345,-1.3475,-2.275
216,53938,0.5777920999999999,0.39528,-0.7195560000000001,2.31,-1.33,-2.3625
217,54035,0.578036,0.393572,-0.7195560000000001,2.3625,-1.4175,-2.2925
218,54132,0.579256,0.39405999999999997,-0.721264,2.485,-1.4,-2.4325
219,54229,0.579256,0.395524,-0.721996,2.45,-1.505,-2.555
220,54326,0.577304,0.396256,-0.7200439999999999,2.2925,-1.68,-2.73
221,54423,0.58072,0.393816,-0.7195560000000001,2.345,-1.7675,-2.8
222,54520,0.578036,0.394548,-0.72102,2.31,-1.8375,-2.8875
223,54618,0.5797441,0.395036,-0.718824,2.2225,-1.8375,-2.87
224,54715,0.5777920999999999,0.39113200000000004,-0.71858,2.24,-1.925,-2.975
225,54812,0.581208,0.390888,-0.7217521,2.065,-1.995,-3.1675
226,54909,0.5785241,0.395036,-0.721996,1.9425,-2.0475,-3.2725
227,55006,0.577304,0.3965,-0.7183361,1.785,-2.1,-3.3425
228,55103,0.576084,0.395524,-0.720776,1.715,-2.0475,-3.325
229,55200,0.580476,0.396988,-0.7195560000000001,1.645,-2.1175,-3.3775
230,55297,0.579012,0.39528,-0.72102,1.5925,-2.065,-3.395
231,55394,0.579256,0.393328,-0.7195560000000001,1.61,-2.1175,-3.3775
232,55491,0.580476,0.395768,-0.7190681,1.54,-2.135,-3.4475
233,55588,0.5799880000000001,0.39528,-0.720776,1.47,-2.0825,-3.57
234,55686,0.580232,0.396012,-0.720532,1.5925,-2.205,-3.4825
235,55783,0.57828,0.393328,-0.718092,1.6625,-2.2575,-3.5
236,55880,0.576816,0.396988,-0.7190681,1.575,-2.17,-3.4825
237,55977,0.579012,0.397476,-0.721508,1.6275,-2.3275,-3.465
238,56074,0.5785241,0.395036,-0.7183361,1.61,-2.3275,-3.4125
239,56171,0.57706,0.39723200000000003,-0.71736,1.5925,-2.275,-3.395
240,56268,0.5751081,0.39918400000000004,-0.719312,1.645,-2.24,-3.3775
241,56365,0.57462,0.398208,-0.718092,1.7325,-2.2225,-3.255
242,56462,0.576572,0.398208,-0.719312,1.715,-2.17,-3.1675
243,56559,0.578036,0.394304,-0.7190681,1.6625,-2.1,-3.0625
244,56656,0.5785241,0.39528,-0.7198,1.645,-2.065,-3.115
245,56753,0.5785241,0.395768,-0.7200439999999999,1.6625,-2.0825,-3.08
246,56851,0.5777920999999999,0.395768,-0.7200439999999999,1.6275,-2.065,-3.08
247,56948,0.5797441,0.396256,-0.718824,1.6975,-2.1175,-3.1325
248,57045,0.5777920999999999,0.396012,-0.71858,1.6625,-2.0825,-3.185
249,57142,0.57828,0.394304,-0.7200439999999999,1.575,-2.0475,-3.1325
250,57239,0.579256,0.394304,-0.718824,1.645,-2.0825,-3.255
251,57336,0.577548,0.39479200000000003,-0.718824,1.5925,-2.24,-3.29
252,57433,0.5797441,0.395524,-0.720288,1.645,-2.2225,-3.3425
253,57530,0.576816,0.397476,-0.7166279999999999,1.6625,-2.205,-3.395
254,57627,0.579256,0.395036,-0.7178479999999999,1.61,-2.24,-3.4125
255,57724,0.576572,0.398452,-0.718824,1.6275,-2.2925,-3.36
256,57821,0.577548,0.398208,-0.7176041,1.68,-2.24,-3.36
257,57918,0.574864,0.40016,-0.7190681,1.75,-2.17,-3.1325
258,58015,0.57584,0.396744,-0.7166279999999999,1.8025,-2.1875,-3.08
259,58113,0.576328,0.397964,-0.71858,1.8025,-2.065,-3.0625
260,58210,0.5753520000000001,0.397476,-0.7166279999999999,1.785,-2.135,-2.975
261,58307,0.576816,0.397476,-0.7178479999999999,1.855,-1.96,-3.01
262,58404,0.5797441,0.40016,-0.715896,1.8375,-1.96,-3.01
263,58501,0.579256,0.39723200000000003,-0.718824,1.89,-2.1,-2.905
264,58598,0.5787680000000001,0.396256,-0.7190681,1.9425,-2.03,-2.94
265,58695,0.578036,0.397964,-0.7176041,1.995,-2.1175,-2.94
266,58792,0.579256,0.39894,-0.7168720000000001,1.9425,-2.17,-3.0625
267,58889,0.577548,0.398208,-0.7166279999999999,1.9425,-2.205,-2.975
268,58986,0.576816,0.398208,-0.7178479999999999,2.03,-2.275,-2.9925
269,59083,0.576816,0.396256,-0.7176041,2.1525,-2.275,-2.94
270,59180,0.578036,0.39528,-0.7200439999999999,2.135,-2.3625,-2.905
271,59277,0.5787680000000001,0.398696,-0.71614,2.17,-2.345,-2.905
272,59375,0.57828,0.39723200000000003,-0.71858,2.24,-2.345,-2.905
273,59472,0.576328,0.3965,-0.716384,2.275,-2.3625,-2.835
274,59569,0.57706,0.396988,-0.71858,2.3625,-2.31,-2.8
275,59666,0.578036,0.396256,-0.7190681,2.3625,-2.2225,-2.835
276,59763,0.5787680000000001,0.39771999999999996,-0.7178479999999999,2.345,-2.205,-2.8175
277,59860,0.577304,0.395524,-0.71736,2.345,-2.31,-2.7125
278,59957,0.576816,0.396256,-0.71614,2.3625,-2.1175,-2.6075
279,60054,0.576816,0.39771999999999996,-0.715896,2.345,-2.065,-2.5725
280,60151,0.579012,0.39723200000000003,-0.715408,2.345,-2.1,-2.5375
281,60248,0.5753520000000001,0.395768,-0.716384,2.3975,-2.135,-2.4675
282,60345,0.57706,0.396744,-0.71614,2.3275,-1.9775,-2.5375
283,60442,0.577304,0.39284,-0.718092,2.275,-1.89,-2.5725
284,60540,0.5787680000000001,0.39479200000000003,-0.7183361,2.2225,-1.6975,-2.5375
285,60637,0.57828,0.396988,-0.7168720000000001,2.205,-1.82,-2.52
286,60734,0.581208,0.396012,-0.7171161,2.31,-1.925,-2.52
287,60831,0.5777920999999999,0.396256,-0.7171161,2.415,-1.9425,-2.625
288,60928,0.581208,0.393816,-0.716384,2.485,-2.0825,-2.5025
289,61025,0.5799880000000001,0.393084,-0.7176041,2.45,-2.1525,-2.66
290,61122,0.5797441,0.395768,-0.71736,2.3625,-2.205,-2.625
291,61219,0.5799880000000001,0.393084,-0.71614,2.275,-2.3275,-2.8
292,61316,0.5787680000000001,0.394548,-0.719312,2.31,-2.4325,-2.7825
293,61413,0.57828,0.396744,-0.7168720000000001,2.17,-2.2575,-2.8525
294,61510,0.5777920999999999,0.396012,-0.7178479999999999,2.0825,-2.205,-2.8175
295,61607,0.5797441,0.393572,-0.7190681,2.1,-2.2225,-2.7825
296,61705,0.580232,0.395524,-0.7166279999999999,2.1175,-2.17,-2.765
297,61802,0.5795,0.395036,-0.7198,2.0125,-2.275,-2.94
298,61899,0.579256,0.396744,-0.7198,2.0825,-2.3625,-2.9925
299,61996,0.57828,0.39528,-0.7178479999999999,2.1175,-2.275,-2.94
300,62093,0.5795,0.396744,-0.7178479999999999,2.0825,-2.415,-2.8875
301,62190,0.57828,0.396012,-0.716384,2.17,-2.3975,-2.905
302,62287,0.577548,0.396012,-0.7183361,2.17,-2.3625,-2.8525
303,62384,0.581696,0.39528,-0.71858,2.1875,-2.3625,-2.87
304,62481,0.580476,0.394548,-0.718092,2.24,-2.38,-2.9925
305,62578,0.578036,0.39528,-0.7176041,2.0825,-2.2925,-3.115
306,62675,0.578036,0.395036,-0.71858,2.0125,-2.31,-3.1675
307,62772,0.5797441,0.39528,-0.7198,2.0475,-2.17,-3.0975
308,62870,0.579256,0.398696,-0.7171161,1.9425,-2.065,-3.0625
309,62967,0.5785241,0.393816,-0.7176041,1.96,-1.925,-3.0625
310,63064,0.579256,0.393572,-0.7183361,2.0475,-1.925,-3.045
311,63161,0.580476,0.394548,-0.71736,2.0825,-1.925,-3.0275
312,63258,0.580476,0.394548,-0.718824,2.0475,-1.925,-3.045
313,63355,0.5787680000000001,0.394304,-0.7176041,2.0475,-1.9775,-3.0275
314,63452,0.5787680000000001,0.395768,-0.71858,2.135,-2.0475,-3.01
315,63549,0.5785241,0.396256,-0.718092,2.2225,-2.0825,-3.0625
316,63646,0.57828,0.39528,-0.7183361,2.2575,-2.1175,-3.045
317,63743,0.5797441,0.395036,-0.718092,2.2575,-2.17,-3.045
318,63840,0.57828,0.39528,-0.71858,2.17,-2.275,-3.0275
319,63937,0.580476,0.395768,-0.718824,2.1875,-2.24,-3.01
320,64035,0.5797441,0.395524,-0.71858,2.205,-2.3275,-2.9925
321,64132,0.58072,0.396012,-0.718092,2.2225,-2.38,-2.9925
322,64229,0.5799880000000001,0.395524,-0.718824,2.2925,-2.485,-2.975
323,64326,0.578036,0.393572,-0.71858,2.345,-2.5375,-2.87
324,64423,0.5799880000000001,0.396256,-0.716384,2.2575,-2.415,-2.7475
325,64520,0.57828,0.395768,-0.7171161,2.275,-2.4325,-2.7825
326,64617,0.581696,0.395524,-0.7198,2.24,-2.485,-2.7125
327,64714,0.580964,0.394548,-0.7176041,2.345,-2.5375,-2.7475
328,64811,0.5795,0.395768,-0.71736,2.38,-2.625,-2.8175
329,64908,0.5797441,0.39528,-0.7183361,2.415,-2.695,-2.8875
330,65005,0.580232,0.395036,-0.7195560000000001,2.45,-2.87,-2.835
331,65102,0.581208,0.395768,-0.7176041,2.555,-2.8875,-2.8875
332,65200,0.5795,0.395524,-0.7183361,2.695,-3.045,-2.905
333,65297,0.580476,0.394548,-0.718824,2.9925,-3.395,-2.9225
334,65394,0.5826720000000001,0.39284,-0.718824,2.8875,-3.3775,-2.9925
335,65491,0.582184,0.392596,-0.7183361,2.7825,-3.4475,-3.08
336,65588,0.577548,0.392108,-0.7200439999999999,2.87,-3.5,-3.255
337,65685,0.580964,0.390156,-0.7217521,2.8525,-3.57,-3.325
338,65782,0.5797441,0.39284,-0.718824,2.6775,-3.465,-3.4825
339,65879,0.576572,0.39405999999999997,-0.7217521,2.5025,-3.5175,-3.6225
340,65976,0.57584,0.39479200000000003,-0.7200439999999999,2.3975,-3.3775,-3.5875
341,66073,0.57584,0.394304,-0.720776,2.2575,-3.1675,-3.5
342,66170,0.576572,0.39528,-0.7200439999999999,2.275,-3.0975,-3.395
343,66267,0.578036,0.39528,-0.71736,2.31,-2.8875,-3.2025
344,66364,0.576328,0.39405999999999997,-0.721264,2.1525,-2.87,-3.22
345,66462,0.577304,0.395036,-0.721996,2.135,-2.6075,-3.115
346,66559,0.577548,0.393328,-0.72346,2.1175,-2.45,-3.0975
347,66656,0.5785241,0.390888,-0.7178479999999999,2.1,-2.4325,-3.115
348,66753,0.577304,0.394548,-0.7217521,2.17,-2.485,-3.0975
349,66850,0.575596,0.393816,-0.721264,2.17,-2.555,-3.2025
350,66947,0.577548,0.39479200000000003,-0.721508,2.24,-2.4675,-3.1675
351,67044,0.5777920999999999,0.393572,-0.721264,2.2925,-2.4325,-3.0975
352,67141,0.57706,0.39405999999999997,-0.7217521,2.2225,-2.4675,-3.1675
353,67238,0.576816,0.393328,-0.7229720000000001,2.1,-2.6075,-3.2375
354,67335,0.5777920999999999,0.393084,-0.7227279999999999,2.1525,-2.555,-3.15
355,67432,0.57706,0.39479200000000003,-0.7229720000000001,2.1875,-2.52,-3.1675
356,67529,0.577304,0.393084,-0.72102,2.135,-2.485,-3.2025
357,67626,0.576816,0.39528,-0.720776,2.1,-2.4325,-3.2375
358,67724,0.576572,0.394304,-0.721996,2.135,-2.5025,-3.255
359,67821,0.57706,0.393572,-0.7232161,2.1175,-2.485,-3.1675
360,67918,0.577548,0.39284,-0.721996,2.135,-2.6075,-3.2025
361,68015,0.578036,0.393816,-0.7217521,2.1175,-2.5025,-3.22
362,68112,0.577548,0.39479200000000003,-0.7217521,2.0475,-2.5025,-3.255
363,68209,0.576572,0.393572,-0.72224,2.03,-2.45,-3.185
364,68306,0.5785241,0.393328,-0.72224,1.995,-2.4325,-3.185
365,68403,0.579012,0.39528,-0.721508,1.9425,-2.38,-3.185
366,68500,0.5787680000000001,0.39479200000000003,-0.721264,1.96,-2.5025,-3.15
367,68597,0.57706,0.393328,-0.721996,2.065,-2.4325,-3.115
368,68695,0.576816,0.392352,-0.72102,1.9775,-2.38,-3.1675
369,68791,0.576328,0.39479200000000003,-0.721264,1.9425,-2.345,-3.22
370,68889,0.576816,0.393572,-0.7217521,1.925,-2.4325,-3.22
371,68986,0.5751081,0.39479200000000003,-0.720288,1.8375,-2.38,-3.3075
372,69083,0.575596,0.396988,-0.720776,1.8375,-2.275,-3.2025
373,69180,0.578036,0.391864,-0.721508,1.96,-2.1875,-3.1675
374,69277,0.578036,0.395036,-0.7198,1.9775,-2.1875,-3.1325
375,69374,0.577548,0.39284,-0.721264,1.9775,-2.205,-3.0275
376,69471,0.577304,0.395524,-0.7217521,1.9075,-2.1175,-3.045
377,69568,0.5785241,0.393084,-0.721264,2.0125,-2.03,-3.0975
378,69665,0.576084,0.3965,-0.7200439999999999,1.89,-1.995,-3.01
379,69762,0.576328,0.394548,-0.720776,1.82,-1.89,-2.9925
380,69859,0.5777920999999999,0.39479200000000003,-0.721264,1.7675,-1.925,-2.9225
381,69956,0.57584,0.393816,-0.7224841,1.82,-1.89,-2.94
382,70053,0.57706,0.394548,-0.720288,1.8375,-1.7325,-2.8175
383,70151,0.57706,0.394304,-0.7224841,1.8025,-1.6625,-2.765
384,70248,0.579012,0.39284,-0.718092,1.75,-1.645,-2.7475
385,70345,0.57706,0.393328,-0.721996,1.75,-1.7325,-2.765
386,70442,0.575596,0.392596,-0.7217521,1.7325,-1.6275,-2.8875
387,70539,0.5785241,0.39528,-0.7227279999999999,1.575,-1.6275,-2.94
388,70636,0.578036,0.393328,-0.721264,1.575,-1.54,-3.08
389,70733,0.581208,0.395036,-0.7200439999999999,1.4875,-1.5225,-3.1675
390,70830,0.577548,0.394548,-0.72346,1.47,-1.61,-3.2025
391,70927,0.579256,0.39405999999999997,-0.721264,1.5225,-1.6275,-3.0975
392,71024,0.5787680000000001,0.392596,-0.7183361,1.4525,-1.5225,-3.115
393,71121,0.5787680000000001,0.392352,-0.7183361,1.505,-1.61,-3.115
394,71218,0.5799880000000001,0.39161999999999997,-0.72102,1.5225,-1.61,-3.185
395,71315,0.580232,0.39405999999999997,-0.719312,1.5225,-1.75,-3.2375
396,71413,0.5785241,0.393816,-0.72102,1.4875,-1.68,-3.325
397,71510,0.5785241,0.3965,-0.7198,1.3825,-1.7675,-3.395
398,71607,0.579256,0.392596,-0.7190681,1.2775,-1.645,-3.3775
399,71704,0.580476,0.393084,-0.7176041,1.2775,-1.6975,-3.43
400,71801,0.579012,0.395036,-0.7168720000000001,1.26,-1.7325,-3.5175
401,71898,0.580964,0.395036,-0.7176041,1.33,-1.8725,-3.5875
402,71995,0.580232,0.395524,-0.7168720000000001,1.365,-1.925,-3.5875
403,72092,0.576328,0.397476,-0.7176041,1.295,-2.03,-3.6225
404,72189,0.577548,0.394548,-0.718824,1.47,-2.03,-3.64
405,72286,0.576084,0.396744,-0.7176041,1.5575,-2.065,-3.535
406,72383,0.576816,0.396012,-0.71736,1.5225,-2.1,-3.535
407,72480,0.579256,0.396012,-0.71858,1.575,-2.1175,-3.535
408,72577,0.579256,0.394548,-0.718824,1.61,-2.1525,-3.5875
409,72674,0.579012,0.39528,-0.7190681,1.575,-2.1175,-3.605
410,72772,0.5787680000000001,0.396744,-0.7183361,1.4525,-2.1525,-3.5875
411,72869,0.5797441,0.395036,-0.7183361,1.4525,-2.135,-3.675
412,72966,0.578036,0.395524,-0.71858,1.435,-2.1175,-3.71
413,73063,0.577548,0.395036,-0.7178479999999999,1.435,-2.1175,-3.6575
414,73160,0.5777920999999999,0.3965,-0.718092,1.47,-2.0825,-3.675
415,73257,0.578036,0.396744,-0.7171161,1.5925,-2.135,-3.675
416,73354,0.5799880000000001,0.397964,-0.7156520000000001,1.5925,-2.2575,-3.6575
417,73451,0.5785241,0.39723200000000003,-0.716384,1.6275,-2.31,-3.6225
418,73548,0.5777920999999999,0.39771999999999996,-0.71736,1.6975,-2.4325,-3.5525
419,73645,0.576816,0.396744,-0.715896,1.68,-2.3625,-3.465
420,73742,0.576816,0.39723200000000003,-0.71858,1.715,-2.415,-3.3775
421,73839,0.5787680000000001,0.398696,-0.716384,1.785,-2.345,-3.3775
422,73936,0.578036,0.398696,-0.718092,1.9075,-2.3625,-3.2725
423,74033,0.57828,0.39723200000000003,-0.71492,1.995,-2.2575,-3.185
424,74131,0.577304,0.396256,-0.7178479999999999,1.8375,-2.345,-3.3075
425,74228,0.578036,0.396256,-0.7176041,1.82,-2.4325,-3.3425
426,74325,0.5787680000000001,0.398696,-0.7156520000000001,1.82,-2.45,-3.4125
427,74422,0.57828,0.39723200000000003,-0.719312,1.7675,-2.4675,-3.3775
428,74519,0.57828,0.396988,-0.7178479999999999,1.855,-2.5375,-3.43
429,74616,0.576328,0.39723200000000003,-0.7156520000000001,1.89,-2.5375,-3.395
430,74713,0.5777920999999999,0.3965,-0.7166279999999999,1.785,-2.52,-3.4475
431,74810,0.57706,0.39528,-0.7171161,1.7675,-2.45,-3.605
432,74907,0.576084,0.39723200000000003,-0.718092,1.68,-2.415,-3.6575
433,75004,0.577548,0.395036,-0.71736,1.54,-2.31,-3.8675
434,75101,0.577548,0.394548,-0.7183361,1.505,-2.45,-3.92
435,75198,0.57828,0.397476,-0.7178479999999999,1.4525,-2.415,-4.0425
436,75295,0.5787680000000001,0.399428,-0.716384,1.435,-2.4325,-4.13
437,75392,0.57828,0.398208,-0.7168720000000001,1.3825,-2.485,-4.1475
438,75489,0.576084,0.398696,-0.718824,1.4175,-2.485,-4.0775
439,75587,0.57706,0.39771999999999996,-0.7171161,1.3825,-2.625,-4.0775
440,75684,0.578036,0.397964,-0.7171161,1.54,-2.6775,-4.165
441,75781,0.57828,0.395768,-0.718092,1.5575,-2.835,-4.1475
442,75878,0.578036,0.39528,-0.718092,1.47,-2.7125,-4.41
443,75975,0.57706,0.396744,-0.718092,1.3825,-2.8525,-4.6375
444,76072,0.57584,0.400648,-0.720532,1.2775,-2.7125,-4.62
445,76169,0.576572,0.39918400000000004,-0.71858,0.9975,-2.4675,-4.76
446,76266,0.577548,0.39918400000000004,-0.715408,0.875,-2.485,-4.9
447,76363,0.57706,0.401136,-0.720288,0.875,-2.7125,-4.9175
448,76460,0.575596,0.398696,-0.718824,0.8575,-2.7825,-4.9175
449,76557,0.57584,0.400892,-0.7198,0.6825,-2.8525,-5.1625
450,76654,0.574132,0.40211199999999997,-0.7183361,0.665,-2.905,-5.285
451,76752,0.576816,0.400648,-0.7183361,0.6475,-2.8175,-5.2325
452,76849,0.574864,0.40211199999999997,-0.7168720000000001,0.5775,-2.9225,-5.425
453,76946,0.5734,0.404064,-0.716384,0.63,-3.0975,-5.425
454,77043,0.5734,0.404552,-0.71736,0.49,-2.87,-5.425
455,77140,0.5724239999999999,0.404796,-0.71736,0.4725,-2.7825,-5.425
456,77237,0.5724239999999999,0.404064,-0.7183361,0.5075,-2.9225,-5.5125
457,77334,0.5726680000000001,0.407724,-0.7176041,0.4725,-2.9225,-5.53
458,77431,0.5734,0.407968,-0.7166279999999999,0.525,-2.905,-5.4425
459,77528,0.5734,0.40894400000000003,-0.71614,0.5775,-2.94,-5.32
460,77625,0.573156,0.407968,-0.7156520000000001,0.56,-3.0975,-5.215
461,77722,0.57218,0.40821199999999996,-0.71614,0.7,-3.045,-5.2325
462,77819,0.570716,0.406992,-0.7178479999999999,0.6825,-3.08,-5.18
463,77917,0.5726680000000001,0.40528400000000003,-0.720288,0.5075,-2.975,-5.11
464,78014,0.571448,0.407236,-0.7171161,0.35,-2.905,-5.1625
465,78111,0.573156,0.409188,-0.7176041,0.105,-2.87,-5.285
466,78208,0.5724239999999999,0.409432,-0.71614,-0.035,-2.9225,-5.3375
467,78305,0.569984,0.410652,-0.7171161,-0.175,-3.01,-5.53
468,78402,0.5726680000000001,0.410652,-0.714676,-0.1925,-3.0625,-5.46
469,78499,0.5694961,0.41016400000000003,-0.7168720000000001,-0.07,-3.36,-5.53
470,78596,0.570472,0.411384,-0.71736,-0.2275,-3.4125,-5.5475
471,78693,0.568032,0.41358,-0.71614,-0.2275,-3.43,-5.4425
472,78790,0.56852,0.41284799999999994,-0.7168720000000001,-0.2275,-3.5875,-5.4075
473,78887,0.569984,0.409188,-0.7190681,-0.63,-3.535,-5.4075
474,78984,0.569984,0.40894400000000003,-0.7168720000000001,-1.015,-3.4125,-5.5825
475,79081,0.570472,0.411628,-0.7183361,-1.3125,-3.29,-5.845
476,79179,0.56852,0.41284799999999994,-0.715896,-1.33,-3.2375,-5.9675
477,79276,0.5673,0.410896,-0.7137001000000001,-1.05,-3.29,-5.915
478,79373,0.5673,0.41455600000000004,-0.7156520000000001,-0.7525,-3.36,-5.8975
479,79470,0.5653481,0.418216,-0.7139439999999999,-0.2275,-3.43,-5.6
480,79567,0.565104,0.420412,-0.7139439999999999,0.2625,-3.3775,-5.18
481,79664,0.5655920999999999,0.42065600000000003,-0.7141881,0.8925,-3.395,-4.7075
482,79761,0.564616,0.42138809999999993,-0.71614,1.47,-3.395,-4.305
483,79858,0.565104,0.42163199999999995,-0.7139439999999999,2.0125,-3.22,-3.71
484,79955,0.56242,0.419192,-0.71614,2.3975,-3.115,-3.325
485,80052,0.5587601,0.41968,-0.7141881,2.8,-3.0975,-2.8875
486,80149,0.562176,0.423584,-0.714676,3.325,-2.975,-2.2925
487,80246,0.564128,0.424072,-0.711504,3.78,-2.695,-1.6975
488,80344,0.562664,0.425292,-0.715896,4.2,-2.5725,-1.05
489,80441,0.565836,0.416996,-0.715408,4.795,-2.38,-0.525
490,80538,0.566812,0.41284799999999994,-0.7176041,4.9175,-2.3275,-0.315
491,80635,0.5673,0.413336,-0.71736,4.7425,-2.1175,-0.4025
492,80732,0.5663239999999999,0.41284799999999994,-0.7176041,4.5675,-1.925,-0.5075
493,80829,0.5692520000000001,0.40992,-0.718824,4.5325,-1.9775,-0.63
494,80926,0.5694961,0.410408,-0.720776,4.4275,-1.995,-0.7175
495,81023,0.5690081,0.407236,-0.7195560000000001,4.2525,-1.7675,-0.8575
496,81120,0.570472,0.411384,-0.7198,3.7625,-1.785,-1.2075
497,81217,0.570472,0.410652,-0.720776,3.185,-1.785,-1.4175
498,81314,0.570716,0.40992,-0.71858,2.695,-1.5575,-1.715
499,81411,0.5663239999999999,0.414312,-0.71858,2.2925,-1.4,-1.82
500,81509,0.5665680000000001,0.41382399999999997,-0.72224,1.645,-1.0325,-1.96
501,81606,0.56852,0.41846000000000005,-0.72224,0.595,-0.21,-2.03
502,81703,0.568764,0.417728,-0.72224,-1.085,1.1375,-2.45
503,81800,0.571936,0.420412,-0.71736,-3.0275,2.5025,-3.08
504,81897,0.573156,0.425048,-0.71858,-4.69,2.975,-3.78
505,81994,0.57218,0.43188000000000004,-0.7141881,-6.23,3.3425,-4.06
506,82091,0.577304,0.433832,-0.7137001000000001,-7.7,3.92,-4.3925
507,82188,0.5858439999999999,0.429196,-0.709796,-9.45,4.865,-5.3025
508,82285,0.5799880000000001,0.42578,-0.7068681,-12.3025,5.5475,-6.825
509,82382,0.583648,0.43627200000000005,-0.708088,-14.35,6.2125,-7.8225
510,82479,0.573156,0.445788,-0.704916,-15.5575,6.8425,-8.155
511,82576,0.55998,0.444324,-0.705404,-15.4875,7.875,-7.5425
512,82674,0.5543680000000001,0.438712,-0.726144,-14.735,9.1875,-6.3875
513,82771,0.555588,0.43627200000000005,-0.707356,-14.2625,10.6225,-5.4775
514,82868,0.538752,0.46433199999999997,-0.71248,-14.595,14.56,-5.145
515,82965,0.516792,0.47506800000000005,-0.7195560000000001,-15.085,19.74,-4.375
516,83062,0.540704,0.38918,-0.7598161,-15.12,26.4425,-2.905
517,83159,0.6307401,0.189344,-0.8906,-23.0825,30.415,2.6425
518,83256,0.44896,0.374052,-0.8962120000000001,-53.6025,19.215,19.0225
519,83353,0.39161999999999997,0.5314321,-0.809836,-69.23,17.4475,37.8875
520,83450,0.376248,0.614392,-0.87108,-75.075,24.01,50.715
521,83547,0.265716,0.737124,-0.974292,-79.7125,23.2925,54.25
522,83644,0.225944,0.955016,-1.148264,-77.7175,19.11,48.8425
523,83741,0.129564,1.047736,-1.128012,-49.98,14.14,41.5975
524,83838,-0.009028000999999999,0.9228081,-1.0584719999999999,-16.6425,9.6075,33.8975
525,83935,-0.059048,0.7788480999999999,-0.985516,1.4875,8.2075,23.275
526,84033,-0.053924,0.7259001,-0.987956,5.215,5.3725,14.07
527,84130,-0.052948,0.6851520999999999,-1.003816,4.9,-0.1575,7.0875
528,84227,-0.052703999999999994,0.6409881,-0.9999121,5.1275,-7.07,2.1525
529,84324,-0.05563200000000001,0.5917,-0.9860040999999999,6.0375,-13.405,-1.3475
530,84421,-0.03904,0.5502199999999999,-0.9628241,6.405,-17.5175,-3.465
531,84518,0.034892,0.544608,-0.9740479999999999,5.46,-19.4425,-4.97
532,84615,0.13542,0.552904,-0.9962521000000001,3.08,-21.8575,-7.07
533,84712,0.233264,0.565836,-1.021872,-0.9625,-27.055,-11.4625
534,84809,0.335012,0.5936520000000001,-1.0553,-5.0925,-35.315,-18.165
535,84906,0.40528400000000003,0.6182960999999999,-1.070184,-7.0,-46.41,-25.445
536,85003,0.42163199999999995,0.600484,-1.0321200000000001,-4.0775,-58.59,-31.4825
537,85101,0.423828,0.5499761,-0.975024,0.3675,-68.355,-35.14
538,85198,0.444812,0.5072760000000001,-0.9201241,3.115,-74.25251,-36.4875
539,85295,0.46603999999999995,0.487512,-0.87718,3.1325,-78.12,-35.9625
540,85392,0.490684,0.483364,-0.8479,0.945,-80.885,-34.0725
541,85489,0.495076,0.48922,-0.8254520000000001,-2.17,-83.1425,-31.8325
542,85586,0.491904,0.500688,-0.79666,-4.9525,-84.28,-29.8025
543,85683,0.48848800000000003,0.5121560000000001,-0.769576,-7.35,-84.08751,-28.455
544,85780,0.504104,0.532652,-0.757376,-9.625,-82.215,-28.0
545,85877,0.529968,0.5751081,-0.759572,-11.5675,-79.835,-29.1725
546,85974,0.554124,0.579256,-0.759084,-12.6875,-78.27750999999999,-32.2525
547,86071,0.582184,0.528748,-0.762012,-13.615,-77.665,-39.5675
548,86169,0.62952,0.524112,-0.773724,-14.8925,-77.54251,-49.5075
549,86266,0.666852,0.508252,-0.7605481,-10.57,-77.6825,-55.5275
550,86363,0.69784,0.449204,-0.7237041,-1.505,-77.1225,-57.54
551,86460,0.734684,0.383324,-0.6736840000000001,6.0025,-76.4925,-58.065
552,86557,0.758352,0.342332,-0.6202479999999999,9.3975,-76.4225,-58.0825
553,86654,0.754204,0.317444,-0.5543680000000001,10.5875,-75.845,-56.8925
554,86751,0.7556681,0.29987600000000003,-0.49312399999999995,11.8825,-72.905,-53.7075
555,86848,0.7722600000000001,0.29133600000000004,-0.449692,13.79,-67.7775,-48.335
556,86945,0.79422,0.275964,-0.407968,15.47,-61.6175,-42.0175
557,87042,0.8291120999999999,0.25986,-0.355752,15.785,-55.5275,-36.5225
558,87139,0.8625401,0.24082800000000001,-0.29377600000000004,14.385,-49.4725,-31.325
559,87236,0.8971879999999999,0.223016,-0.227408,11.9,-42.665,-25.795
560,87333,0.9381801,0.19885999999999998,-0.14078800000000002,9.5375,-33.9675,-19.565
561,87431,0.9806360000000001,0.185196,-0.063928,6.8775,-23.73,-12.81
562,87528,1.021628,0.203496,-0.010248,4.795,-11.6025,-5.3375
563,87625,1.099464,0.19178399999999998,0.08564401,3.08,0.7875,1.82
564,87722,0.9757561,0.17543599999999998,0.367464,-3.1325,21.1225,14.77
565,87819,0.944524,0.310612,0.396988,-14.28,60.6025,30.695
566,87916,0.513376,0.544852,-0.74054,-12.915,94.16751,37.135
567,88013,-0.042944,0.6695361,-1.347612,-23.66,98.9975,28.805
568,88110,0.128344,0.38503200000000004,-0.629764,-33.425,111.965,37.24
569,88207,0.74054,0.275964,-0.698328,-34.895,141.9425,67.935
570,88304,0.927932,0.366244,-0.9745360000000001,-43.82,139.3875,77.63
571,88401,0.792024,0.36478,-0.780312,-48.44,121.59,74.025
572,88498,0.81252,0.4933681,-0.7761640999999999,-55.055,116.9175,73.15
573,88595,1.8346360000000002,2.4441479999999998,-2.124752,-11.585,107.765,57.435
574,88693,1.066768,0.43724799999999997,-0.24912399999999998,140.8925,87.29,50.995
575,88790,0.9850280999999999,0.32403200000000004,-1.062132,72.06501,53.76,37.52
576,88887,0.652456,0.376492,-0.781532,53.585,35.6475,25.9
577,88984,0.6709999999999999,0.42456000000000005,-0.7324881,38.71,27.5975,17.5175
578,89081,0.634644,0.4575,-0.738588,34.0025,19.145,12.7225
579,89178,0.5946279999999999,0.487512,-0.6956439999999999,29.61,14.07,9.275
580,89275,0.5734,0.53192,-0.677832,27.0375,10.1675,8.12
581,89372,0.577548,0.49166000000000004,-0.7027201,27.44,6.9825,9.6075
582,89469,0.5978,0.410652,-0.721264,28.0525,5.1975,9.9575
583,89566,0.58682,0.411628,-0.720776,24.0625,3.22,7.2275
584,89663,0.576572,0.437004,-0.71004,21.14,2.205,4.1125
585,89760,0.568276,0.452376,-0.711992,19.11,1.225,2.6775
586,89857,0.5631520000000001,0.45579200000000003,-0.708576,18.305,0.91,2.4675
587,89955,0.5663239999999999,0.447984,-0.715164,17.2025,0.6825,2.5725
588,90052,0.5702281,0.439688,-0.7088201,15.6275,0.805,2.0125
589,90149,0.568276,0.439932,-0.712236,13.3175,1.365,0.5425
590,90246,0.5648601,0.441396,-0.715164,10.9375,1.61,-0.945
591,90343,0.5577840000000001,0.44334799999999996,-0.712236,8.8375,1.8375,-1.9775
592,90440,0.556076,0.45603599999999994,-0.70638,7.4025,2.205,-2.1875
593,90537,0.554856,0.45335200000000003,-0.705892,7.175,2.38,-1.575
594,90634,0.559736,0.451888,-0.705404,7.1575,2.625,-0.9275
595,90731,0.5663239999999999,0.44066400000000006,-0.7105279999999999,6.615,2.9225,-0.525
596,90828,0.568764,0.42773199999999995,-0.7178479999999999,5.25,3.4475,-0.9975
597,90925,0.5673,0.418216,-0.7166279999999999,3.57,3.9025,-2.0125
598,91022,0.567788,0.419192,-0.7156520000000001,1.1375,4.0075,-3.535
599,91119,0.563884,0.43066000000000004,-0.7171161,-0.8225,3.92,-4.5675
600,91217,0.56608,0.435296,-0.712724,-1.3125,4.06,-4.865
601,91314,0.565836,0.440176,-0.706624,-0.945,4.165,-4.6025
602,91411,0.5653481,0.4404201,-0.705404,0.1225,4.1475,-4.0075
603,91508,0.566812,0.434808,-0.70516,1.1725,4.27,-3.395
604,91605,0.5653481,0.439932,-0.7041841,1.995,4.6025,-3.08
605,91702,0.5663239999999999,0.440176,-0.703696,2.3275,4.6025,-2.5725
606,91799,0.569984,0.43554,-0.705404,2.695,5.075,-2.0825
607,91896,0.56852,0.438712,-0.7068681,2.8875,5.985,-1.82
608,91993,0.568032,0.435784,-0.702964,2.9925,6.895,-1.47
609,92090,0.56852,0.434808,-0.704916,2.5375,7.525,-1.05
610,92187,0.569984,0.437004,-0.697108,3.22,8.4525,-0.56
611,92284,0.570716,0.4392,-0.696376,3.8325,9.1175,0.1925
612,92381,0.58194,0.440176,-0.701256,4.41,9.8175,0.9625
613,92478,0.575596,0.426756,-0.696132,4.585,10.1675,1.365
614,92576,0.5885281,0.43236800000000003,-0.6958880000000001,4.375,10.7275,1.33
615,92673,0.5843801,0.42724399999999996,-0.7015,3.5875,10.99,1.2425
616,92770,0.5843801,0.43163599999999996,-0.6993041,2.135,11.13,0.7875
617,92867,0.587064,0.42822,-0.696132,1.05,11.62,0.5775
618,92964,0.584868,0.42944,-0.693448,-0.1925,12.1275,0.6475
619,93061,0.592188,0.43334399999999995,-0.6885680999999999,-1.785,12.53,0.9625
620,93158,0.5897479999999999,0.431148,-0.69418,-3.185,12.6875,1.3125
621,93255,0.592432,0.439932,-0.6954,-4.34,13.685,1.645
622,93352,0.5917,0.43773599999999996,-0.6885680999999999,-5.2675,14.7875,2.31
623,93449,0.590724,0.43041599999999997,-0.687348,-6.4925,16.31,2.7825
624,93546,0.5997520000000001,0.43505200000000005,-0.693204,-8.12,18.1825,3.08
625,93643,0.576084,0.42944,-0.684176,-10.2725,20.16,3.99
626,93740,0.59902,0.46116,-0.70028,-11.9875,23.205,5.0575
627,93838,0.5843801,0.447008,-0.6902761,-13.5975,26.67,7.84
628,93935,0.57096,0.44773999999999997,-0.6919841,-15.6975,30.9575,10.675
629,94032,0.615124,0.44725200000000004,-0.701256,-18.1125,36.9775,13.1425
630,94129,0.613904,0.44944799999999996,-0.69784,-22.2075,43.3475,14.9275
631,94226,0.5787680000000001,0.426756,-0.6753920999999999,-27.02,49.77,16.1525
632,94323,0.650992,0.452376,-0.706136,-32.3925,56.9275,17.08
633,94420,0.6558721,0.444324,-0.6897880999999999,-38.0625,64.5925,18.445
634,94517,0.5941401,0.413092,-0.6566041,-45.675,73.4125,19.495
635,94614,0.7019880000000001,0.459696,-0.7056479999999999,-53.97,83.8425,20.055
636,94711,0.628788,0.418216,-0.700036,-63.7175,96.3725,21.07
637,94808,0.712724,0.48263199999999995,-0.735904,-76.615,113.9075,21.8225
638,94905,0.6351319999999999,0.438712,-0.7046720999999999,-93.0475,135.9225,26.565
639,95002,0.7722600000000001,0.4636,-0.72956,-113.96,162.47,35.0175
640,95100,0.658556,0.522648,-0.7027201,-141.61,190.715,45.885
641,95197,0.6280560000000001,0.746152,-0.7510321,-166.18,224.385,57.7325
642,95294,0.639524,0.788608,-0.706624,-161.49,266.7525,76.3525
643,95391,0.781532,0.904752,-0.7556681,-149.0475,303.9575,99.365
644,95488,1.01138,0.772992,-0.609024,-132.93,327.565,124.11
645,95585,1.557696,0.690032,-0.704916,-140.455,321.545,137.9
646,95682,1.4130040000000001,0.8937719999999999,-0.66856,-147.5425,287.595,142.3625
647,95779,1.178764,0.7822640000000001,-0.6344,-138.355,254.9925,152.6875
648,95876,1.1094680000000001,0.831308,-0.56852,-129.6925,232.75,161.14
649,95973,1.0443200000000001,0.846924,-0.6753920999999999,-108.0625,218.61,173.32
650,96070,1.007232,0.9818561,-0.9242720999999999,-68.81,200.4625,181.7375
651,96167,0.8801081000000001,1.0438319999999999,-1.316868,-35.5425,169.12,178.5
652,96264,1.232444,1.013576,-1.708732,-14.105,135.1,167.44
653,96361,1.231956,1.096536,-1.760704,-22.6625,65.8175,167.51
654,96458,0.47213999999999995,1.080676,-1.73728,-32.2,-44.03,151.34
655,96556,0.116632,1.022848,-1.413736,-18.4275,-110.0225,113.6975
656,96653,-0.08906,0.981124,-1.108248,-0.0875,-153.1075,84.9975
657,96750,-0.165188,0.9625799999999999,-0.8967,21.6825,-168.5425,62.755
658,96847,-0.13176,0.9406200000000001,-0.7881199999999999,44.73,-171.2375,41.44
659,96944,-0.051484,0.8945040000000001,-0.733708,63.2975,-170.765,16.7825
660,97041,0.072712,0.856684,-0.7137001000000001,75.0925,-173.075,-11.13
661,97138,0.209352,0.8317960999999999,-0.7027201,81.81251,-179.3575,-39.0775
662,97235,0.31890799999999997,0.7822640000000001,-0.674172,86.485,-188.195,-63.35
663,97332,0.429928,0.711992,-0.6373281,90.51001,-197.2775,-81.11251
664,97429,0.504592,0.6456241,-0.595116,91.525,-204.9425,-92.1025
665,97526,0.619028,0.6068279999999999,-0.572912,87.7275,-210.175,-97.965
666,97623,0.7510321,0.6007279999999999,-0.583648,77.56,-215.705,-101.7625
667,97720,0.8669319999999999,0.619516,-0.604632,63.175,-223.86,-105.8575
668,97818,0.9555040000000001,0.6514800000000001,-0.6124400999999999,48.7375,-233.2925,-110.1975
669,97915,1.015772,0.6661201,-0.60512,38.185,-240.94,-113.1725
670,98012,1.0626200000000001,0.658312,-0.579012,32.1475,-244.37,-114.1175
671,98109,1.086288,0.635376,-0.55632,27.2825,-243.5825,-114.9225
672,98206,1.1209360000000002,0.60878,-0.556808,20.7025,-238.8225,-116.0775
673,98303,1.15534,0.58072,-0.55266,13.475,-233.59,-118.16
674,98400,1.146312,0.514352,-0.545096,7.0175,-227.43,-119.9975
675,98497,1.105564,0.46238,-0.54656,-3.045,-220.4825,-119.2975
676,98594,1.093608,0.42016800000000004,-0.561688,-16.17,-212.5025,-116.27
677,98691,1.107272,0.407968,-0.6009720000000001,-30.765,-203.8225,-111.3
678,98788,1.1192280000000001,0.440176,-0.619272,-45.9025,-195.965,-105.595
679,98885,1.113616,0.437004,-0.66368,-62.0725,-188.4575,-101.5875
680,98982,1.208532,0.47384799999999994,-0.7390760000000001,-76.755,-182.56,-101.4825
681,99079,1.354444,0.567788,-0.847412,-88.9525,-180.7225,-103.145
682,99177,1.45058,0.640256,-0.8913321,-92.505,-186.83,-105.805
683,99274,1.4720520000000001,0.667828,-0.8420440999999999,-85.5925,-197.1375,-109.0075
684,99371,1.42984,0.6178081,-0.6939361,-71.9425,-203.7,-111.3525
685,99468,1.414224,0.523868,-0.511668,-57.8025,-201.145,-113.4175
686,99565,1.4513120000000002,0.406748,-0.330376,-47.46,-188.1425,-117.425
687,99662,1.516216,0.321592,-0.14347200000000002,-41.685,-168.28,-121.625
688,99759,1.59454,0.239364,0.06880801,-35.385,-142.7475,-123.3575
689,99856,1.67628,0.157868,0.27938,-27.3875,-112.7875,-122.36
690,99953,1.8397599999999998,0.09272000000000001,0.451888,-16.4325,-79.6075,-117.39
691,100050,1.889536,-0.02562,0.6070720000000001,-3.535,-47.5825,-107.6425
692,100147,1.9063720000000002,-0.150304,0.68686,6.7375,-15.54,-93.905
693,100244,1.9285759999999998,-0.22423600000000002,0.66856,11.3575,17.4125,-76.475
694,100341,1.8656240000000002,-0.183732,0.384544,12.3375,50.0675,-53.62
695,100439,1.6438279999999998,-0.148352,0.619272,32.3575,93.9925,-21.28
696,100536,1.093364,0.1403,-0.216916,51.73,144.2875,-8.82
697,100633,0.28157600000000005,-0.018056,-1.294664,73.01,169.085,-19.3025
698,100730,-0.31524800000000003,-0.212524,-1.529392,16.87,170.6425,-39.5325
699,100827,0.868396,-0.7171161,-0.7761640999999999,-19.46,208.6175,-5.285
700,100924,1.754116,-0.46481999999999996,-1.410808,-50.925,204.8725,45.78
701,101021,1.423252,-0.44554399999999994,-1.3703040000000002,-58.8,150.6225,81.9875
702,101118,0.9596520000000001,0.396988,-0.9171961,-80.3075,104.9125,106.4175
703,101215,0.9142680000000001,2.2143,-2.1947799999999997,-87.60501,89.985,102.935
704,101312,0.9479401,1.883436,0.16226,67.9875,87.57,68.005
705,101409,0.9818561,0.8376520000000001,-0.96014,127.7325,88.83,56.3675
706,101506,0.691008,0.011712,-0.76494,108.0275,75.4425,56.1575
707,101603,0.6802720999999999,0.508008,-0.7407841,82.04,56.0175,51.3275
708,101700,0.7332201,0.43358800000000003,-0.784216,67.6375,49.6475,41.2475
709,101798,0.756644,0.500688,-0.715164,63.245,38.955,34.65
710,101895,0.64904,0.499224,-0.755424,48.79,24.22,27.3
711,101992,0.5997520000000001,0.450424,-0.692716,44.1,19.6,22.05
712,102089,0.580964,0.502152,-0.707356,39.48,13.9475,19.0225
713,102186,0.576084,0.462624,-0.72712,37.415,11.4975,17.8675
714,102283,0.585356,0.42944,-0.72712,35.6125,10.7975,16.135
715,102380,0.5856,0.449692,-0.709796,31.4475,9.4675,13.405
716,102477,0.5846241,0.44676400000000005,-0.7105279999999999,27.055,8.225,10.9375
717,102574,0.5753520000000001,0.466772,-0.700036,23.38,7.5075,8.6625
718,102671,0.58682,0.444568,-0.708088,20.825,7.3325,6.8075
719,102768,0.5743761,0.450668,-0.704916,18.1825,7.0875,4.69
720,102865,0.5724239999999999,0.45579200000000003,-0.708332,15.9075,7.07,3.1675
721,102963,0.571204,0.447984,-0.7046720999999999,14.1225,7.2625,2.38
722,103060,0.5734,0.44896,-0.70394,12.6875,7.175,1.9425
723,103157,0.5631520000000001,0.4636,-0.7015,11.9525,6.475,2.1875
724,103254,0.5607121,0.46945600000000004,-0.698328,12.0225,5.74,3.7625
725,103351,0.567056,0.459696,-0.697108,13.1775,5.3025,5.95
726,103448,0.5665680000000001,0.44334799999999996,-0.695156,14.8225,5.145,7.63
727,103545,0.572912,0.431148,-0.696376,16.1525,5.425,8.54
728,103643,0.5826720000000001,0.410896,-0.7068681,17.045,6.1775,8.3825
729,103739,0.5838920999999999,0.406748,-0.7117479999999999,16.485,6.7725,7.0
730,103836,0.590968,0.41284799999999994,-0.712236,15.4,7.175,5.1975
731,103933,0.5892601,0.42773199999999995,-0.712236,13.7025,7.245,3.605
732,104030,0.574132,0.429196,-0.7166279999999999,12.11,7.0,3.64
733,104128,0.584868,0.430172,-0.706624,11.305,6.825,4.0075
734,104225,0.5946279999999999,0.425292,-0.709796,9.3625,6.3525,3.4125
735,104322,0.586088,0.407236,-0.7027201,8.4525,6.44,3.4475
736,104419,0.5885281,0.406504,-0.714432,6.8775,6.825,2.5375
737,104516,0.5814520000000001,0.406992,-0.706624,5.2325,7.8575,1.9775
738,104613,0.5885281,0.41284799999999994,-0.712724,3.7275,9.205,1.5575
739,104710,0.577304,0.407968,-0.7044279999999999,2.8525,10.5525,1.89
740,104807,0.583648,0.41992399999999996,-0.708576,1.8375,12.0575,2.415
741,104904,0.582916,0.42114399999999996,-0.707112,1.4525,14.0175,3.85
742,105001,0.586332,0.42822,-0.711016,-0.1925,15.8025,5.845
743,105098,0.582184,0.42065600000000003,-0.7044279999999999,-2.8875,17.7975,8.5225
744,105195,0.58804,0.416508,-0.713212,-4.2175,20.7725,10.6225
745,105292,0.592188,0.41382399999999997,-0.7139439999999999,-7.4025,24.3775,11.8825
746,105390,0.596336,0.409188,-0.709064,-10.885,28.28,13.37
747,105487,0.591212,0.407968,-0.7117479999999999,-13.895,32.97,15.0675
748,105584,0.5978,0.410652,-0.742492,-17.15,39.41,16.625
749,105681,0.5697399999999999,0.404552,-0.7056479999999999,-21.315,48.44,18.725
750,105778,0.654408,0.43627200000000005,-0.748836,-29.015,56.9975,20.1775
751,105875,0.5736441,0.394304,-0.6912520000000001,-35.6825,66.5,22.3825
752,105972,0.616344,0.40577199999999997,-0.7027201,-43.2075,77.805,23.24
753,106069,0.729072,0.4453,-0.763232,-51.5025,88.3575,24.815
754,106166,0.61,0.40528400000000003,-0.6917399999999999,-60.1475,100.38,26.1625
755,106263,0.641964,0.425292,-0.7171161,-69.895,115.5875,27.1075
756,106360,0.687348,0.47213999999999995,-0.778116,-81.81251,133.63,29.7675
757,106457,0.5587601,0.504104,-0.7510321,-94.7625,159.285,34.4575
758,106554,0.6917399999999999,0.5514399999999999,-0.762988,-108.815,192.4825,44.8175
759,106651,0.775188,0.6917399999999999,-0.7217521,-122.9725,230.79,64.6275
760,106748,0.679784,0.835456,-0.73932,-130.935,274.2775,94.86751
761,106846,0.653676,0.9933241,-0.792024,-129.325,314.09,132.9125
762,106943,0.8193521,0.72224,-0.8105680000000001,-108.43,350.0525,175.035
763,107040,1.4539959999999998,0.909632,-0.7700640999999999,-101.885,366.2925,203.4375
764,107137,1.826828,0.9486720999999999,-0.8222799999999999,-106.855,339.3775,213.7625
765,107234,1.236348,0.8518040000000001,-0.648796,-92.5225,284.4275,223.3175
766,107331,1.343708,1.030656,-0.7366361,-85.7325,242.9875,230.545
767,107428,1.006744,1.1507040000000002,-1.063596,-48.3175,209.9125,244.545
768,107525,0.865468,1.218048,-1.2878319999999999,-4.305,169.365,236.5475
769,107622,0.6893,1.313452,-1.6082040000000002,18.095,131.845,216.5975
770,107719,1.4339879999999998,1.4064159999999999,-1.604544,17.465,91.105,191.275
771,107816,0.37990799999999997,1.46156,-1.718736,-4.9175,-3.815,166.4075
772,107913,0.069784,1.3290680000000001,-1.435452,-9.065,-78.26,107.3625
773,108010,-0.205692,1.251232,-1.142652,7.49,-129.36,58.5025
774,108107,-0.28304,1.148996,-0.907436,33.9675,-148.295,26.215
775,108205,-0.205692,1.032852,-0.8010520000000001,58.5025,-151.06,1.9775
776,108302,-0.071492,0.9284200999999999,-0.7473721,76.4225,-153.545,-22.7325
777,108399,0.032451999999999995,0.8369200000000001,-0.7095520000000001,83.58001,-162.1725,-50.19
778,108496,0.12444000000000001,0.7671359999999999,-0.6707561,83.3875,-171.885,-77.14
779,108593,0.21716,0.7178479999999999,-0.654652,79.415,-179.8475,-99.6625
780,108690,0.354288,0.7017439999999999,-0.6722199999999999,75.3725,-185.08,-116.5325
781,108787,0.465308,0.68198,-0.676124,71.6625,-191.24,-127.3475
782,108884,0.580232,0.67588,-0.678808,69.6325,-196.2975,-133.3675
783,108981,0.702476,0.661972,-0.6795401,68.0575,-201.0925,-136.2375
784,109078,0.8332601000000001,0.658068,-0.706136,61.6875,-208.1275,-139.09
785,109175,0.9472079999999999,0.643184,-0.7283400999999999,51.345,-216.8425,-143.1675
786,109272,1.017968,0.6314721,-0.7256560000000001,39.41,-226.31,-147.56
787,109370,1.06384,0.620736,-0.709064,28.7,-233.45,-150.15
788,109467,1.097512,0.6075600999999999,-0.6878361,20.8775,-236.495,-150.29
789,109564,1.1265479999999999,0.5919439999999999,-0.667096,14.245,-235.4275,-149.31
790,109661,1.142164,0.5926760999999999,-0.6505041,7.9275,-231.8575,-148.26
791,109758,1.108492,0.564372,-0.5897479999999999,2.38,-225.5575,-147.9275
792,109855,1.047004,0.530212,-0.5404601,-5.4075,-214.7075,-146.7375
793,109952,1.029192,0.51972,-0.5343600000000001,-17.4125,-198.8175,-144.0775
794,110049,1.098976,0.527528,-0.565104,-33.3375,-181.1075,-141.12
795,110146,1.132892,0.543144,-0.662948,-54.3725,-167.4575,-140.0875
796,110243,1.194136,0.585356,-0.7141881,-72.415,-160.09,-140.42
797,110340,1.278804,0.599264,-0.7707961,-91.105,-155.47,-142.7825
798,110437,1.342732,0.5975560000000001,-0.778604,-110.1975,-155.89,-149.5725
799,110534,1.410808,0.5443640000000001,-0.741028,-124.215,-158.7775,-158.235
800,110632,1.539152,0.544852,-0.69784,-129.6925,-159.32,-165.515
801,110729,1.6775,0.522892,-0.6075600999999999,-120.8375,-157.7975,-166.4075
802,110826,1.9071040000000001,0.47482399999999997,-0.43676000000000004,-97.7375,-152.5125,-159.7925
803,110923,1.996164,0.24082800000000001,-0.149084,-63.9275,-142.0125,-145.9325
804,111020,2.2204,0.141276,-0.015616,-38.185,-132.2125,-138.2675
805,111117,2.2709080000000004,-0.08466801,0.291092,-16.2575,-121.6775,-131.5475
806,111214,2.308728,-0.284504,0.60146,1.925,-105.315,-116.2
807,111311,2.305068,-0.466528,0.893284,15.995,-76.475,-89.915
808,111408,2.286036,-0.5946279999999999,1.046028,24.15,-38.4475,-55.44
809,111505,2.284084,-0.636596,0.9691681000000001,23.52,5.53,-21.315
810,111602,2.2591959999999998,-0.49702799999999997,0.696864,19.0225,51.45,6.3175
811,111699,1.398364,-0.19739600000000002,0.46335600000000005,32.9175,106.0325,32.6025
812,111796,0.388204,-0.72224,-1.257088,65.835,174.0025,55.16
813,111894,0.954284,-0.36356,-2.338984,-22.2075,196.56,63.7175
814,111991,1.628212,-0.8344801,-0.822768,-22.715,177.0475,113.9075
815,112088,1.280512,0.138348,-0.946232,-52.9725,139.195,147.84
816,112185,1.943704,3.371836,-2.77916,-51.8175,113.61,113.0675
817,112282,0.793976,1.41398,0.616344,170.38,110.635,83.8425
818,112379,1.1829120000000002,0.33379200000000003,-1.3285799999999999,145.845,102.7775,76.2125
819,112476,0.6109760000000001,0.111752,-0.629764,121.135,70.7875,70.315
820,112573,0.712724,0.479704,-0.83936,94.6925,65.3975,59.045
821,112670,0.8457040000000001,0.42212,-0.636352,94.97251,56.385,52.15
822,112767,0.750544,0.54778,-0.7661600000000001,74.41,34.0375,43.715
823,112864,0.689056,0.45896400000000004,-0.736392,63.63,23.1175,36.4525
824,112961,0.6392800000000001,0.40528400000000003,-0.7095520000000001,55.23,17.5175,29.855
825,113058,0.624884,0.462136,-0.71126,46.9175,12.67,24.0275
826,113155,0.6168319999999999,0.386984,-0.7522521,41.93,9.4675,20.055
827,113252,0.614392,0.3721,-0.740296,35.2275,8.4,15.1375
828,113349,0.595116,0.417728,-0.726144,27.3175,6.79,10.1675
829,113447,0.606584,0.417972,-0.709796,22.19,6.475,6.895
830,113544,0.592432,0.44652,-0.7032079999999999,16.9575,4.7775,4.305
831,113641,0.589992,0.431148,-0.707356,14.56,4.095,2.7125
832,113738,0.5887720000000001,0.415288,-0.7068681,12.74,4.2875,1.1025
833,113835,0.576328,0.42553599999999997,-0.710284,10.71,4.5675,-0.8400001
834,113932,0.582184,0.42895200000000006,-0.70638,9.45,4.9875,-1.8025
835,114029,0.579256,0.429928,-0.70516,8.9775,4.9525,-2.0125
836,114126,0.573156,0.437492,-0.7044279999999999,8.82,4.3575,-1.715
837,114223,0.570716,0.449204,-0.702232,9.0825,3.7275,-0.4375
838,114320,0.569984,0.454084,-0.69662,9.7825,2.94,1.3475
839,114417,0.5736441,0.45335200000000003,-0.693204,10.8675,2.4325,3.535
840,114514,0.576328,0.43432,-0.6939361,12.705,2.4675,5.355
841,114612,0.5892601,0.41992399999999996,-0.705404,14.1225,2.8525,6.2825
842,114709,0.575596,0.398208,-0.6944241,14.035,3.5175,6.5625
843,114806,0.5926760999999999,0.397964,-0.715164,12.075,3.7625,5.04
844,114903,0.5958479999999999,0.40894400000000003,-0.7137001000000001,9.2575,3.6925,3.045
845,115000,0.59902,0.406504,-0.71004,8.7675,4.445,2.31
846,115097,0.586088,0.419436,-0.7134560999999999,7.525,4.9525,1.9425
847,115194,0.5980439999999999,0.41992399999999996,-0.70516,6.5275,5.075,1.8025
848,115291,0.586088,0.407236,-0.702964,5.7575,5.1275,2.24
849,115388,0.597068,0.41016400000000003,-0.7044279999999999,4.725,5.495,2.1875
850,115485,0.592188,0.401868,-0.7041841,4.4975,6.3,2.4325
851,115582,0.5856,0.404796,-0.7076001000000001,3.395,6.79,2.3625
852,115679,0.595116,0.40626,-0.7041841,2.45,8.085,2.345
853,115777,0.587064,0.41236000000000006,-0.705892,1.75,9.135,2.7825
854,115874,0.5885281,0.42163199999999995,-0.700036,0.805,10.395,3.78
855,115971,0.588284,0.418704,-0.698816,0.525,11.725,5.3025
856,116068,0.577548,0.44554399999999994,-0.734196,-2.1875,12.145,7.0875
857,116165,0.59292,0.409188,-0.696864,-1.1375,15.7325,10.64
858,116262,0.581208,0.404796,-0.729316,-4.585,18.34,12.915
859,116359,0.591212,0.388448,-0.730536,-8.225,24.115,13.8775
860,116456,0.5978,0.377956,-0.73688,-14.2975,29.435,15.5575
861,116553,0.5885281,0.383324,-0.7451760000000001,-20.9825,36.9425,15.8725
862,116650,0.58316,0.39967199999999997,-0.7661600000000001,-27.055,46.8125,17.08
863,116748,0.58194,0.39479200000000003,-0.7288279999999999,-32.1125,60.2875,18.445
864,116845,0.659044,0.4331,-0.7549359999999999,-41.93,71.5925,20.265
865,116942,0.5673,0.390644,-0.70516,-52.3075,83.52750999999999,23.2225
866,117039,0.6844201,0.446276,-0.748104,-63.7875,97.7725,25.935
867,117136,0.6734399999999999,0.398452,-0.735904,-76.6325,113.05,29.8725
868,117233,0.6480640000000001,0.377712,-0.7415161,-93.905,132.65,34.0725
869,117330,0.7171161,0.45383999999999997,-0.7754321,-116.025,156.4325,40.3725
870,117427,0.698816,0.47555600000000003,-0.693692,-141.3125,186.2875,52.3075
871,117524,0.7015,0.6497721,-0.765184,-172.0075,220.535,71.2075
872,117621,0.60268,0.8086161000000001,-0.772016,-182.49,264.74,98.3675
873,117718,0.6612401,1.0645719999999999,-0.8520479999999999,-177.5725,311.675,132.02
874,117816,0.7427361,1.004792,-0.8532681000000001,-153.1075,353.6575,173.005
875,117913,1.336144,0.6736840000000001,-0.7986121,-132.1075,375.795,204.4875
876,118010,1.9361400000000002,0.9406200000000001,-0.8540000000000001,-138.005,354.7775,207.7425
877,118107,1.244156,0.7522521,-0.676856,-135.765,295.4,208.7575
878,118204,1.348344,1.0126,-0.729804,-132.195,246.995,208.95
879,118301,1.106052,1.074332,-0.8127641,-101.08,218.435,215.1275
880,118398,1.07482,1.28344,-1.41398,-79.31,168.315,200.795
881,118495,0.904508,1.4422840000000001,-1.6582240000000001,-44.24,113.54,179.2
882,118592,1.371768,1.6796959999999999,-1.5791680000000001,-24.5875,72.24,165.375
883,118689,0.116632,1.664812,-1.77876,-22.4525,-22.785,147.9275
884,118786,-0.20447200000000001,1.4313040000000001,-1.38836,9.5725,-72.1525,94.74501
885,118884,-0.340624,1.247816,-1.087752,43.05,-101.01,54.4425
886,118981,-0.30792800000000004,1.063352,-0.941108,71.82,-108.5175,25.1825
887,119078,-0.160308,0.9098761000000001,-0.8476561,89.775,-115.395,-1.2775
888,119175,-0.064172,0.7822640000000001,-0.785924,93.8875,-130.515,-28.5425
889,119272,0.02928,0.7078439999999999,-0.8047121,88.11251,-148.4875,-54.6175
890,119369,0.15494000000000002,0.647576,-0.798856,82.67,-163.5025,-75.18
891,119466,0.294752,0.5975560000000001,-0.7732359999999999,77.035,-178.255,-89.1275
892,119563,0.42163199999999995,0.554124,-0.755912,70.8575,-193.48,-96.98501
893,119660,0.5206960999999999,0.515084,-0.7217521,63.4375,-208.7575,-101.15
894,119757,0.6258600000000001,0.523868,-0.714432,52.3075,-223.825,-104.405
895,119854,0.7176041,0.549488,-0.711504,39.865,-237.44,-107.3625
896,119951,0.791292,0.5838920999999999,-0.71004,28.2275,-248.7975,-111.5975
897,120049,0.862296,0.604144,-0.709796,19.3025,-256.1475,-116.8125
898,120146,0.937448,0.611952,-0.7078439999999999,13.125,-259.3325,-122.535
899,120243,1.001376,0.620492,-0.7046720999999999,8.47,-259.0525,-128.31
900,120340,1.051152,0.618784,-0.687592,5.5475,-256.13,-133.8925
901,120437,1.077504,0.5975560000000001,-0.667096,3.5525,-250.8275,-139.055
902,120534,1.079944,0.580964,-0.6258600000000001,1.4175,-242.83,-142.765
903,120631,1.05774,0.57706,-0.6109760000000001,-2.4325,-232.33,-145.39
904,120728,1.036756,0.5724239999999999,-0.6075600999999999,-9.1525,-219.66,-147.28
905,120825,1.045296,0.600484,-0.6463561,-18.5325,-205.3275,-148.4
906,120922,1.09556,0.6280560000000001,-0.686372,-29.645,-191.2925,-149.4675
907,121019,1.13094,0.6514800000000001,-0.7019880000000001,-42.14,-179.06,-150.9725
908,121116,1.225368,0.707112,-0.7983680000000001,-54.8975,-167.44,-152.7225
909,121213,1.3851879999999999,0.7983680000000001,-0.8913321,-63.9975,-160.2125,-155.4525
910,121311,1.555256,0.8164239999999999,-0.9272,-72.24,-160.51,-162.33
911,121408,1.657736,0.9608721,-0.9235399999999999,-76.0375,-168.49,-173.3375
912,121505,1.7150759999999998,0.669048,-0.673196,-64.68,-179.515,-182.0
913,121602,1.7219080000000002,0.580476,-0.539972,-48.9125,-178.4475,-192.15
914,121699,1.843176,0.466772,-0.345748,-28.21,-166.6875,-190.2425
915,121796,1.961516,0.32208000000000003,-0.036844,2.2575,-147.9275,-175.6475
916,121893,2.02032,0.134688,0.2989,25.83,-126.4375,-161.63
917,121990,2.062776,-0.050996,0.589016,35.21,-102.7775,-149.8175
918,122087,2.086688,-0.204716,0.815936,32.7775,-76.2825,-134.295
919,122184,2.08986,-0.326472,0.9652639999999999,25.3925,-46.165,-109.235
920,122281,2.112064,-0.37990799999999997,0.9520881,12.565,-14.3675,-78.7325
921,122379,2.114016,-0.33818400000000004,0.7991,-3.3775,13.8775,-50.155
922,122476,2.039352,-0.20618000000000003,0.528992,-16.625,35.2275,-27.16
923,122573,1.8900240000000001,-0.0305,0.328424,-23.2575,51.8525,-7.7175
924,122670,1.203652,0.46311199999999997,-0.26596,-13.16,69.1775,16.2575
925,122767,0.466772,0.143716,-1.168272,57.7675,100.415,27.2125
926,122864,-1.0589600000000001,0.166164,-1.915888,17.5,111.615,1.96
927,122961,-0.027572000000000003,-0.787632,-0.401624,-28.1925,168.1225,19.145
928,123058,1.753628,-0.181292,-0.8317960999999999,-76.1075,214.55,58.4325
929,123155,1.447652,-0.100284,-1.330288,-83.7025,181.0025,74.62
930,123252,1.02968,0.454816,-1.0553,-79.065,143.185,98.0175
931,123349,0.813496,1.067988,-0.5553441,-80.7275,125.3525,110.635
932,123446,1.422276,3.0219400000000003,-2.19234,-32.3925,124.04,82.775
933,123544,1.099464,0.9638,0.025863999999999998,176.5225,128.3975,66.57
934,123641,1.018944,0.27279200000000003,-1.198284,134.26,93.4675,69.02
935,123738,0.682956,0.459208,-0.5231359999999999,111.755,63.4375,66.0625
936,123835,0.6749041,0.576816,-0.812032,83.94751,59.01,63.035
937,123932,0.853024,0.5267960999999999,-0.72102,87.3775,54.4775,57.4525
938,124029,0.699792,0.508008,-0.71736,75.1275,37.5375,48.7375
939,124126,0.6441600000000001,0.502884,-0.7227279999999999,63.8575,27.02,42.035
940,124223,0.61854,0.48726800000000003,-0.7015,60.3925,20.9475,38.4125
941,124320,0.6082920999999999,0.454084,-0.7259001,56.035,16.5725,35.105
942,124417,0.59658,0.42333999999999994,-0.7329760000000001,51.6775,13.4575,31.7275
943,124514,0.5892601,0.438468,-0.7166279999999999,46.55,10.9725,28.595
944,124612,0.595116,0.450668,-0.6954,42.595,9.1875,26.2325
945,124709,0.6039,0.469944,-0.7056479999999999,39.9525,7.14,24.64
946,124806,0.601216,0.44237200000000004,-0.708576,37.2575,5.53,23.0475
947,124903,0.6068279999999999,0.41894799999999993,-0.7005239999999999,33.8975,4.9175,20.37
948,125000,0.587796,0.41382399999999997,-0.708332,29.26,4.1475,16.59
949,125097,0.589504,0.410408,-0.715408,25.235,4.445,13.44
950,125194,0.586576,0.410896,-0.709796,22.295,5.3025,10.885
951,125291,0.58316,0.426512,-0.708332,19.7925,5.1275,9.31
952,125388,0.576328,0.441396,-0.704916,18.8125,4.9,9.24
953,125485,0.5753520000000001,0.4392,-0.69662,19.495,5.25,10.4125
954,125582,0.580476,0.41016400000000003,-0.705404,20.2825,5.565,11.3925
955,125679,0.5885281,0.382348,-0.712724,20.2475,6.3175,10.92
956,125777,0.5948720000000001,0.372832,-0.720532,17.99,7.5775,8.715
957,125874,0.599996,0.359168,-0.725168,14.385,8.8725,5.775
958,125971,0.598532,0.383324,-0.71858,10.2375,9.8525,2.555
959,126068,0.614392,0.417484,-0.720288,7.42,10.7625,0.9275
960,126165,0.5926760999999999,0.40504,-0.700036,6.3525,11.585,1.19
961,126262,0.5968241,0.414312,-0.7105279999999999,5.005,12.0225,1.4525
962,126359,0.5975560000000001,0.408456,-0.7041841,4.585,12.4775,2.905
963,126456,0.604388,0.406504,-0.7129681,3.9025,13.1425,4.06
964,126553,0.596092,0.402844,-0.709796,3.08,14.14,5.215
965,126650,0.6070720000000001,0.393084,-0.70394,1.61,14.9625,6.3875
966,126747,0.604388,0.386008,-0.7107720000000001,-0.5425,15.3125,7.1225
967,126844,0.6131721,0.381372,-0.715896,-2.835,16.52,7.49
968,126941,0.6029241,0.384544,-0.706136,-5.04,18.69,7.84
969,127039,0.606584,0.377224,-0.7134560999999999,-7.4025,21.21,8.1025
970,127136,0.6095119999999999,0.384788,-0.7171161,-11.3925,24.2725,8.7675
971,127233,0.6097560000000001,0.39161999999999997,-0.7183361,-14.6825,28.7175,9.6425
972,127330,0.58194,0.403332,-0.733708,-19.0225,33.845,11.27
973,127427,0.642452,0.42187600000000003,-0.7232161,-22.26,42.385,13.545
974,127524,0.583648,0.39405999999999997,-0.697596,-28.98,49.385,16.2575
975,127621,0.646112,0.412116,-0.729072,-34.79,58.345,18.2875
976,127718,0.64782,0.401136,-0.7139439999999999,-41.3175,67.34000999999999,20.44
977,127815,0.5941401,0.37698000000000004,-0.677832,-49.3325,77.14,22.2775
978,127912,0.663192,0.390644,-0.70028,-57.155,87.92,24.1325
979,128009,0.693448,0.407724,-0.709796,-66.46500999999999,99.34751,26.04
980,128106,0.70028,0.41894799999999993,-0.693448,-76.7375,112.7525,29.3125
981,128203,0.715408,0.41455600000000004,-0.6832,-88.8825,128.7125,35.6125
982,128301,0.6980841,0.462624,-0.677832,-106.995,148.9775,44.8
983,128398,0.739564,0.6075600999999999,-0.7200439999999999,-129.2375,174.8425,59.115
984,128495,0.7137001000000001,0.6612401,-0.71126,-139.9125,212.52,82.285
985,128592,0.669292,0.8222799999999999,-0.7195560000000001,-152.7575,252.175,113.2425
986,128689,0.7808001,1.01748,-0.767868,-153.65,293.4925,151.3575
987,128786,0.71248,1.005036,-0.7747001,-138.1625,331.5375,192.6925
988,128883,1.25904,0.665632,-0.777628,-124.915,353.2375,223.58
989,128980,1.9068599999999998,0.8049561,-0.8076399999999999,-132.23,332.955,223.0375
990,129077,1.299788,0.79056,-0.6039,-137.3925,276.115,215.985
991,129174,1.4008040000000002,0.9345201,-0.6958880000000001,-129.5525,230.4925,221.13
992,129271,1.130452,0.9625799999999999,-0.8532681000000001,-106.19,196.9275,228.445
993,129368,1.093364,1.208532,-1.317112,-73.1325,154.5075,217.455
994,129465,0.8615640999999999,1.304424,-1.6928720000000002,-44.205,103.565,195.405
995,129562,1.424228,1.4520440000000001,-1.6028360000000001,-34.4225,59.535,172.5325
996,129660,0.202764,1.562088,-1.772904,-48.09,-32.48,152.0575
997,129757,-0.09540401,1.4396,-1.45912,-33.0225,-91.0525,96.93251
998,129854,-0.29572800000000005,1.301496,-1.155828,-3.7975,-127.925,53.025
999,129951,-0.257176,1.160952,-0.992348,24.6225,-139.825,18.585
1000,130048,-0.148108,1.0260200000000002,-0.9049959999999999,45.08,-146.58,-13.335
1001,130145,-0.057339999999999995,0.91622,-0.8464360000000001,56.9975,-156.45,-45.43
1002,130242,0.049044,0.818376,-0.8296,64.7325,-166.4425,-73.22
1003,130339,0.166652,0.734928,-0.8281360999999999,70.2625,-175.035,-93.1175
1004,130436,0.281088,0.6380600000000001,-0.791048,74.7425,-181.3525,-105.385
1005,130533,0.42114399999999996,0.5694961,-0.774212,74.25251,-187.7925,-113.3125
1006,130630,0.518012,0.534116,-0.7551800000000001,68.81,-196.5425,-119.0
1007,130727,0.6068279999999999,0.53192,-0.7427361,59.5175,-205.485,-123.62
1008,130825,0.677588,0.548512,-0.7422481,49.7,-213.43,-127.75
1009,130922,0.750544,0.559004,-0.749568,41.2825,-219.205,-131.8625
1010,131019,0.8464360000000001,0.562908,-0.7659161,34.7725,-222.53,-136.4475
1011,131116,0.9167081,0.563884,-0.778116,29.3125,-224.945,-141.33
1012,131213,0.9713639999999999,0.5553441,-0.788608,24.5875,-225.89,-145.705
1013,131310,1.0230920000000001,0.544852,-0.786656,20.9825,-225.33,-149.0825
1014,131407,1.0499319999999999,0.5214281,-0.745664,17.57,-224.28,-151.0075
1015,131504,1.0467600000000001,0.49776000000000004,-0.706136,12.46,-221.1125,-151.1825
1016,131601,1.030656,0.49312399999999995,-0.671732,5.3375,-214.7075,-149.1525
1017,131698,1.022116,0.51362,-0.667096,-4.1825,-205.73,-146.195
1018,131795,1.048956,0.542656,-0.686128,-15.3125,-195.7375,-142.66
1019,131892,1.063596,0.569984,-0.663924,-28.0525,-187.2675,-139.6325
1020,131990,1.096536,0.62342,-0.7610359999999999,-42.9625,-179.2,-137.2525
1021,132087,1.1631479999999998,0.664168,-0.792756,-54.145,-173.075,-135.1525
1022,132184,1.31028,0.714676,-0.8754719999999999,-69.3875,-169.3475,-137.2525
1023,132281,1.4837639999999999,0.7537159999999999,-0.934276,-85.41751,-171.885,-144.97
1024,132378,1.593564,0.7664041,-0.8964561,-95.725,-182.98,-156.2925
1025,132475,1.7019,0.845216,-0.812276,-97.05501,-195.1775,-164.36
1026,132572,1.62504,0.438224,-0.50264,-80.0275,-199.6575,-168.875
1027,132669,1.836832,0.348432,-0.370392,-73.465,-189.3325,-173.915
1028,132766,2.007632,0.164944,-0.11955999999999999,-51.415,-170.065,-164.08
1029,132863,2.111332,0.011956,0.16958,-29.19,-147.5775,-152.5475
1030,132961,2.179896,-0.156404,0.496296,-9.45,-120.54,-139.125
1031,133058,2.246752,-0.332572,0.790804,6.23,-87.5,-118.58
1032,133155,2.286768,-0.47994799999999993,0.9677040000000001,12.3375,-52.8675,-89.72251
1033,133252,2.304092,-0.51972,0.9110959999999999,3.2025,-22.61,-59.3425
1034,133349,2.3119,-0.476288,0.663192,-15.295,0.0875,-33.32
1035,133446,2.148664,-0.23838800000000002,0.120048,-29.4,17.745,-6.825
1036,133543,1.8580599999999998,-0.251808,0.342088,7.56,55.2825,33.845
1037,133640,0.534604,-0.37698000000000004,-0.46896800000000005,45.1675,109.3225,54.215
1038,133737,-0.264252,-0.44773999999999997,-2.068632,29.155,147.0175,56.56
1039,133834,0.886452,-0.6832,-1.15412,-48.5625,176.47,77.21
1040,133931,1.622112,-0.43066000000000004,-0.832528,-52.9725,182.2975,129.64
1041,134028,1.220732,0.5514399999999999,-1.069208,-84.7875,144.83,137.8125
1042,134126,0.9140241,1.2038959999999999,-0.763232,-82.2325,132.335,124.3725
1043,134223,1.64578,3.1112439999999997,-2.062288,-11.13,123.76,101.71
1044,134320,0.9821,1.010404,0.050996,187.32,126.0525,78.34751
1045,134417,0.9586761,0.05587601,-1.2160959999999998,144.06,103.95,76.5275
1046,134514,0.7549359999999999,0.321836,-0.6009720000000001,132.9125,82.4425,73.5875
1047,134611,0.9389120000000001,0.6219561,-0.8967,96.4425,68.18,63.4025
1048,134708,0.854244,0.429928,-0.7200439999999999,94.045,50.1025,53.9
1049,134805,0.7178479999999999,0.403332,-0.758596,72.835,30.555,42.2975
1050,134902,0.6517241,0.480192,-0.72102,60.4275,21.2275,32.7075
1051,134999,0.604632,0.45628,-0.712724,53.235,15.5225,27.405
1052,135096,0.6097560000000001,0.411872,-0.7315119999999999,47.5475,12.32,24.1325
1053,135194,0.599264,0.396012,-0.7500560000000001,40.3725,9.9575,20.02
1054,135291,0.594384,0.442616,-0.7171161,34.0025,8.7325,15.995
1055,135388,0.6021920000000001,0.441884,-0.7139439999999999,28.9625,7.245,13.7725
1056,135485,0.59658,0.42822,-0.7088201,25.8475,6.405,11.865
1057,135582,0.59292,0.429196,-0.7141881,22.4525,5.39,10.01
1058,135679,0.588284,0.432612,-0.705404,20.0025,5.0925,8.575
1059,135776,0.582916,0.41992399999999996,-0.711504,17.9725,4.9175,7.315
1060,135873,0.5799880000000001,0.42114399999999996,-0.7068681,16.555,4.6025,6.09
1061,135970,0.577548,0.426512,-0.7041841,15.225,4.725,5.3375
1062,136067,0.5797441,0.416996,-0.704916,14.665,4.6725,4.9875
1063,136164,0.5734,0.433832,-0.702964,14.595,4.2175,5.1625
1064,136261,0.5697399999999999,0.438224,-0.7007680000000001,15.8025,4.3225,6.5275
1065,136358,0.5799880000000001,0.43358800000000003,-0.705404,17.4125,5.39,8.295
1066,136456,0.5856,0.42138809999999993,-0.7093081,18.2,6.3875,9.5375
1067,136553,0.5926760999999999,0.395524,-0.71004,17.395,7.14,9.205
1068,136650,0.597312,0.37746799999999997,-0.720532,14.9275,7.5425,7.455
1069,136747,0.596336,0.37454,-0.721264,11.515,8.505,5.0925
1070,136844,0.586332,0.382836,-0.713212,8.1725,9.695,3.325
1071,136941,0.5997520000000001,0.404064,-0.71614,6.1075,11.1475,2.4325
1072,137038,0.596092,0.40381999999999996,-0.7046720999999999,4.55,12.4775,2.2225
1073,137135,0.593164,0.4209,-0.711992,2.205,12.53,2.73
1074,137232,0.5980439999999999,0.40967600000000004,-0.701256,1.75,13.37,4.1825
1075,137329,0.60146,0.39894,-0.70028,1.015,13.58,5.4425
1076,137426,0.5975560000000001,0.40381999999999996,-0.709796,-0.63,13.125,6.7025
1077,137523,0.604876,0.39113200000000004,-0.7068681,-0.9975,14.0,8.015
1078,137621,0.60024,0.38186,-0.71126,-3.2375,15.3475,8.785
1079,137718,0.604144,0.37576,-0.714432,-5.74,17.5875,9.17
1080,137815,0.5948720000000001,0.367708,-0.720288,-8.505,20.58,9.52
1081,137912,0.6039,0.37698000000000004,-0.716384,-12.39,24.5,9.45
1082,138009,0.604876,0.383324,-0.7237041,-16.205,28.7875,9.87
1083,138106,0.60024,0.397476,-0.748104,-19.95,35.1925,10.9725
1084,138203,0.6036560999999999,0.414312,-0.726388,-24.0275,44.5725,12.6875
1085,138300,0.619028,0.406504,-0.735172,-30.9575,53.4625,15.4
1086,138397,0.6131721,0.386008,-0.7241920000000001,-37.5375,63.665,17.6925
1087,138494,0.6734399999999999,0.419436,-0.753228,-46.3225,74.445,18.655
1088,138591,0.6422081000000001,0.4026,-0.705892,-54.4075,85.48751,20.7375
1089,138688,0.6439159999999999,0.42285200000000006,-0.727364,-65.625,97.79,22.4525
1090,138786,0.6810039999999999,0.43773599999999996,-0.738344,-75.0925,113.8025,25.8475
1091,138883,0.6973520000000001,0.40381999999999996,-0.7356600000000001,-87.4475,131.74,30.5375
1092,138980,0.703696,0.41723999999999994,-0.7378560000000001,-106.155,154.2275,36.4175
1093,139077,0.6763680000000001,0.5077640999999999,-0.727608,-133.1225,183.365,47.0925
1094,139174,0.7044279999999999,0.6326921,-0.711992,-156.3625,221.69,66.4825
1095,139271,0.576816,0.840824,-0.7468840999999999,-171.9375,264.8975,96.1625
1096,139368,0.712236,1.056276,-0.8461921,-173.565,308.6825,134.1375
1097,139465,0.8081281,0.989176,-0.8388721,-149.415,347.62,177.695
1098,139562,1.413492,0.7137001000000001,-0.762988,-131.005,362.6,206.78
1099,139659,1.9185720000000002,0.913292,-0.815936,-139.1075,336.35,206.255
1100,139756,1.211948,0.77104,-0.640256,-129.8325,278.705,209.2125
1101,139854,1.294664,0.989908,-0.670268,-120.5575,234.85,214.165
1102,139951,1.033096,1.079212,-1.028948,-89.6,204.295,222.8975
1103,140048,0.966728,1.2724600000000001,-1.517924,-54.9675,154.6475,208.4425
1104,140145,0.8430200999999999,1.241716,-1.63724,-29.995,101.71,185.08
1105,140242,1.2214639999999999,1.397144,-1.545252,-32.305,49.175,167.23
1106,140339,0.12395199999999999,1.458388,-1.626016,-47.0225,-43.2075,144.3225
1107,140436,-0.186416,1.378112,-1.26758,-28.91,-93.38,92.995
1108,140533,-0.37990799999999997,1.249524,-0.9813681000000001,2.8525,-121.5025,54.6175
1109,140630,-0.337696,1.116788,-0.85034,35.805,-122.0275,26.565
1110,140727,-0.156404,0.9962521000000001,-0.817156,60.69,-121.24,0.1575
1111,140824,-0.002684,0.873276,-0.8256960999999999,73.29,-130.235,-29.19
1112,140921,0.152988,0.771772,-0.8195960999999999,74.34,-148.1375,-59.4475
1113,141019,0.2562,0.671732,-0.780556,72.17,-168.8575,-83.4225
1114,141116,0.357704,0.601216,-0.741272,68.355,-187.3725,-96.74
1115,141213,0.461404,0.5443640000000001,-0.714432,63.875,-202.09,-100.24
1116,141310,0.562664,0.51484,-0.68686,57.6625,-213.64,-98.9975
1117,141407,0.644648,0.511668,-0.67832,47.0575,-224.28,-97.9475
1118,141504,0.7107720000000001,0.531676,-0.68076,32.515,-233.38,-99.19001
1119,141601,0.7705521,0.5692520000000001,-0.69662,16.7825,-240.3275,-103.565
1120,141698,0.8335040000000001,0.597312,-0.7239479999999999,3.78,-243.9325,-109.375
1121,141795,0.9023121,0.609024,-0.734196,-4.8825,-245.07,-115.3425
1122,141892,0.9706319999999999,0.61,-0.73932,-9.7475,-244.7025,-121.59
1123,141989,0.9901521000000001,0.600484,-0.721264,-11.7775,-242.2875,-127.6275
1124,142086,0.981612,0.590968,-0.702232,-12.3025,-236.4075,-133.525
1125,142183,0.952332,0.5404601,-0.715896,-8.1375,-225.1025,-140.0525
1126,142280,0.917684,0.5158159999999999,-0.709796,-1.54,-208.32,-146.02
1127,142378,0.9352520000000001,0.547048,-0.712724,-18.6725,-196.2275,-155.4
1128,142475,0.989908,0.58804,-0.7551800000000001,-29.4875,-181.055,-160.16
1129,142572,1.0401719999999999,0.604876,-0.8486319999999999,-34.9475,-167.825,-162.9775
1130,142669,1.098976,0.6307401,-0.909632,-33.3375,-159.2675,-162.995
1131,142766,1.142408,0.6304960000000001,-0.9171961,-30.9925,-150.255,-160.9475
1132,142863,1.2587959999999998,0.619272,-0.9567241,-31.29,-142.5025,-160.0375
1133,142960,1.386896,0.6380600000000001,-0.9874681000000001,-33.88,-138.915,-163.6775
1134,143057,1.513776,0.7451760000000001,-0.9889319999999999,-36.0325,-141.68,-169.05
1135,143154,1.6409,0.65758,-1.030656,-28.0525,-144.83,-173.565
1136,143251,1.561112,0.423584,-0.5172800999999999,-11.8475,-139.58,-171.4475
1137,143348,1.9459,0.59292,-0.548268,-6.4575,-129.7975,-176.5575
1138,143445,2.071072,0.47213999999999995,-0.189588,11.7775,-130.9175,-176.5225
1139,143542,2.1959999999999997,0.29426399999999997,0.131272,24.9025,-134.155,-177.205
1140,143639,2.145248,0.022448,0.521672,38.0275,-129.71,-171.885
1141,143736,2.132804,-0.223504,0.8552200000000001,44.485,-107.45,-156.59
1142,143834,2.2484599999999997,-0.384056,0.9911281,43.995,-73.115,-132.5975
1143,143931,2.271152,-0.562664,0.9845401,37.1,-40.2325,-102.3575
1144,144028,2.29482,-0.62952,1.148752,25.725,-1.4175,-63.91
1145,144125,2.4104759999999996,-0.552416,0.967216,8.9075,43.9425,-29.225
1146,144222,1.6287,-0.385764,1.0943399999999999,3.29,92.645,5.4075
1147,144319,0.251808,-0.7178479999999999,-0.7515201,-1.4525,162.2775,30.8
1148,144416,0.834968,-0.052703999999999994,-2.352404,-84.9975,204.505,35.4375
1149,144513,1.454972,-0.42212,-0.90036,-88.25251,185.9725,73.5175
1150,144610,1.095072,0.114192,-0.7993439999999999,-89.93251,157.9375,118.4575
1151,144707,1.013576,1.095316,-0.8720559999999999,-117.285,147.4725,108.8325
1152,144804,0.635864,1.7697319999999999,-1.324676,-92.12001,145.565,97.26501
1153,144901,1.362496,2.281156,-0.751276,43.2425,130.795,68.915
1154,144999,1.1270360000000001,0.879376,-0.48214399999999996,180.53,127.33,69.2825
1155,145096,0.676856,0.091012,-0.9211,114.24,86.8525,64.6975
1156,145193,0.8147161,0.34477199999999997,-0.7300479999999999,116.445,83.94751,64.61
1157,145290,1.042124,0.49849209999999994,-0.8344801,81.88251,65.0475,49.4375
1158,145387,0.748836,0.499712,-0.734684,69.3,39.6025,34.965
1159,145484,0.710284,0.443104,-0.7639640999999999,48.1075,25.48,24.255
1160,145581,0.5997520000000001,0.401868,-0.72468,41.79,20.16,15.0325
1161,145678,0.5941401,0.5165481,-0.692472,31.395,14.6825,8.6275
1162,145775,0.576328,0.461892,-0.72468,25.27,11.725,6.23
1163,145872,0.5873079999999999,0.4553041,-0.706624,20.685,11.2875,4.2875
1164,145969,0.591212,0.47653199999999996,-0.69784,14.5075,10.2725,1.855
1165,146066,0.573156,0.49995600000000007,-0.692716,10.1675,9.45,0.455
1166,146163,0.5885281,0.47994799999999993,-0.6851520999999999,9.0475,9.555,-0.0525
1167,146260,0.568276,0.48385200000000006,-0.696132,6.825,8.995,-0.8575
1168,146358,0.56852,0.46042799999999995,-0.691008,6.1075,9.0475,-1.085
1169,146455,0.568276,0.471408,-0.6917399999999999,4.9,9.17,-2.0825
1170,146552,0.563396,0.483364,-0.687348,4.305,9.1525,-2.24
1171,146649,0.56242,0.5009319999999999,-0.6836880999999999,3.71,8.225,-1.2775
1172,146746,0.563884,0.5016641,-0.6763680000000001,4.445,7.8225,0.91
1173,146843,0.559248,0.501908,-0.670512,5.88,7.245,3.465
1174,146940,0.551928,0.496784,-0.669048,8.1375,6.7375,6.7025
1175,147037,0.543144,0.494832,-0.661728,12.11,6.72,10.71
1176,147134,0.551928,0.4941,-0.66246,18.095,7.2975,15.96
1177,147231,0.576328,0.47677600000000003,-0.668316,23.9575,8.995,20.2475
1178,147328,0.58316,0.475312,-0.6822239999999999,26.145,9.5375,22.4875
1179,147425,0.591212,0.46311199999999997,-0.677344,27.16,10.185,23.4675
1180,147523,0.60024,0.44896,-0.687592,25.62,10.2725,23.0125
1181,147620,0.6029241,0.432856,-0.691008,22.4175,10.185,21.3675
1182,147717,0.605608,0.415288,-0.69784,18.6725,9.7125,19.1625
1183,147814,0.603168,0.42187600000000003,-0.6912520000000001,14.77,9.485,17.01
1184,147911,0.609024,0.404064,-0.687348,11.165,8.89,15.295
1185,148008,0.6080479999999999,0.40967600000000004,-0.694912,7.735,8.1375,13.5275
1186,148105,0.604876,0.41992399999999996,-0.691008,6.09,8.2425,12.145
1187,148202,0.604876,0.41260399999999997,-0.684664,4.655,8.365,11.585
1188,148299,0.597068,0.416508,-0.692472,3.1675,8.7675,11.4975
1189,148396,0.60512,0.417484,-0.6958880000000001,1.6275,10.5875,12.0225
1190,148493,0.598532,0.414312,-0.6956439999999999,-0.8575,12.46,12.6875
1191,148590,0.607804,0.42333999999999994,-0.690764,-3.4125,15.2425,13.195
1192,148687,0.606584,0.407236,-0.697108,-5.9325,18.165,14.1225
1193,148785,0.604388,0.41406800000000005,-0.7078439999999999,-9.5375,21.8575,14.8925
1194,148882,0.5980439999999999,0.419192,-0.7117479999999999,-13.5975,27.4925,16.2925
1195,148979,0.6075600999999999,0.401624,-0.726144,-18.655,34.2825,18.4625
1196,149076,0.6265921,0.39113200000000004,-0.714676,-24.22,43.1375,19.9325
1197,149173,0.61732,0.40967600000000004,-0.71248,-34.1425,50.6975,21.4025
1198,149270,0.6612401,0.41382399999999997,-0.7190681,-43.2075,59.99,22.9775
1199,149367,0.6141479999999999,0.376248,-0.671244,-53.69,69.265,25.83
1200,149464,0.7178479999999999,0.41504399999999997,-0.6790520999999999,-66.815,78.9425,29.05
1201,149561,0.69906,0.388936,-0.658312,-82.25,87.90250999999999,34.9125
1202,149658,0.753228,0.43041599999999997,-0.677832,-101.745,98.245,41.3875
1203,149755,0.7390760000000001,0.439932,-0.6973520000000001,-121.205,111.02,49.595
1204,149852,0.6790520999999999,0.48678,-0.69418,-142.7475,131.25,57.89
1205,149949,0.743712,0.54168,-0.696864,-167.125,160.055,70.4725
1206,150046,0.662948,0.7017439999999999,-0.7327321,-191.0825,193.655,89.04
1207,150143,0.528992,0.839116,-0.730536,-197.1025,237.3875,114.2225
1208,150240,0.697596,1.0582280000000002,-0.8547319999999999,-190.645,280.9625,144.7775
1209,150338,0.8632719999999999,0.9208561,-0.80642,-159.705,320.18,179.48
1210,150435,1.2724600000000001,0.5958479999999999,-0.685884,-143.3425,338.975,197.9075
1211,150532,1.76778,0.850096,-0.7564001,-157.08,320.565,191.275
1212,150629,1.236104,0.729804,-0.6290319999999999,-153.51,275.2925,192.92
1213,150726,1.252208,0.903532,-0.598532,-144.0775,238.3675,199.2375
1214,150823,1.087752,0.9296399999999999,-0.708332,-127.26,216.7725,211.3825
1215,150920,1.0528600000000001,1.1102,-1.078968,-104.2475,185.535,207.27
1216,151017,0.7771399999999999,1.265384,-1.495476,-85.7325,132.6675,184.1875
1217,151114,0.84546,1.58112,-1.830976,-58.7475,82.565,146.3875
1218,151211,0.805688,1.706292,-1.713856,-35.4025,20.825,121.7825
1219,151308,0.16811600000000002,1.517924,-1.6287,-11.445,-69.52750999999999,87.36
1220,151405,-0.13054000000000002,1.2104840000000001,-1.340536,29.47,-115.99,38.3075
1221,151502,-0.22057600000000002,0.916464,-1.004792,59.6225,-145.215,10.605
1222,151599,-0.126148,0.729316,-0.8637601,73.8325,-153.4225,-5.39
1223,151697,0.016592,0.594384,-0.800808,74.0075,-162.4175,-18.655
1224,151794,0.1342,0.577548,-0.7761640999999999,64.26,-179.305,-33.39
1225,151891,0.190808,0.57706,-0.7673800000000001,56.84,-195.65,-46.2175
1226,151988,0.269376,0.570716,-0.7422481,53.41,-207.725,-56.0
1227,152085,0.330376,0.5726680000000001,-0.7200439999999999,50.47,-217.21,-64.5225
1228,152182,0.42431599999999997,0.583648,-0.718092,47.285,-223.7725,-73.16751
1229,152279,0.5502199999999999,0.6021920000000001,-0.748592,41.4575,-230.125,-83.475
1230,152376,0.68198,0.6290319999999999,-0.7834840000000001,33.81,-237.9825,-95.69
1231,152473,0.79056,0.646112,-0.7861680999999999,26.7925,-247.345,-108.2025
1232,152570,0.88328,0.654652,-0.7766521,21.8575,-254.73,-118.0025
1233,152667,0.9740479999999999,0.6497721,-0.746152,18.7775,-257.2675,-125.16
1234,152764,1.048224,0.6588,-0.7229720000000001,16.5725,-255.29,-130.4625
1235,152861,1.114592,0.664168,-0.6985720999999999,15.855,-249.3925,-133.9975
1236,152959,1.169492,0.668316,-0.6790520999999999,15.9775,-240.6075,-137.3225
1237,153056,1.1770559999999999,0.6649,-0.648308,15.3125,-231.105,-141.155
1238,153153,1.154852,0.644404,-0.61732,13.6325,-219.9225,-144.0425
1239,153250,1.102392,0.6107319999999999,-0.5753520000000001,12.0575,-206.255,-144.7075
1240,153347,1.075796,0.582184,-0.56608,5.3025,-190.5925,-144.0425
1241,153444,1.06018,0.5697399999999999,-0.583648,-7.2625,-174.9125,-143.6225
1242,153541,1.066036,0.57828,-0.621224,-21.63,-160.825,-143.57
1243,153638,1.037,0.5897479999999999,-0.635864,-31.1325,-149.2925,-141.47
1244,153735,1.071892,0.59536,-0.6753920999999999,-36.2775,-136.745,-137.7425
1245,153832,1.1507040000000002,0.598288,-0.7327321,-39.13,-126.2975,-135.7475
1246,153929,1.2136559999999998,0.620492,-0.784704,-40.6525,-121.345,-136.3775
1247,154026,1.328824,0.5914560000000001,-0.8271601000000001,-39.4275,-120.7325,-139.02
1248,154123,1.382992,0.5414359999999999,-0.818132,-35.7875,-126.84,-145.1275
1249,154221,1.408368,0.483364,-0.745908,-29.085,-136.0975,-150.29
1250,154318,1.430084,0.390156,-0.607316,-16.8175,-141.715,-149.0475
1251,154415,1.469856,0.28011199999999997,-0.404796,-3.43,-141.75,-142.73
1252,154512,1.5523280000000002,0.178852,-0.170312,5.845,-135.7475,-133.77
1253,154609,1.659444,0.07856801,0.07222401,9.03,-125.055,-124.88
1254,154706,1.752896,-0.006587999999999999,0.31451599999999996,6.2475,-111.055,-116.515
1255,154803,1.8134080000000001,-0.081496,0.5499761,1.7325,-92.2425,-106.015
1256,154900,1.8175560000000002,-0.158356,0.724436,0.315,-66.8325,-89.845
1257,154997,1.880508,-0.20374,0.782508,2.24,-33.985,-67.6725
1258,155094,1.903688,-0.24424400000000002,0.7439560000000001,4.2175,-0.5425,-43.89
1259,155191,1.886364,-0.268156,0.271572,-0.0875,32.375,-20.4925
1260,155289,1.645048,-0.213988,0.830576,16.31,79.5725,15.8025
1261,155386,1.086044,0.008784,0.13176,30.555,144.6725,35.2275
1262,155483,0.172996,-0.329644,-1.4957200000000002,36.4,179.97,32.095
1263,155580,0.534116,-0.317444,-1.6326040000000002,-46.0075,197.6625,24.9375
1264,155677,1.713612,-0.39723200000000003,-0.9706319999999999,-67.7425,203.9975,72.415
1265,155774,1.5518399999999999,-0.11955999999999999,-1.193892,-65.555,168.8925,122.815
1266,155871,1.197308,0.7217521,-0.964776,-85.27750999999999,126.805,121.9575
1267,155968,0.8432639999999999,1.358104,-0.870592,-73.09751,116.025,110.11
1268,156065,1.446432,2.292868,-1.3449280000000001,13.055,109.095,80.6575
1269,156162,0.835456,0.9054840000000001,-0.22277199999999997,153.195,104.335,67.4625
1270,156259,0.8525360000000001,0.16104000000000002,-1.045296,111.23,92.9425,61.53
1271,156356,0.735416,0.323544,-0.613416,116.0425,82.285,60.5675
1272,156454,0.877912,0.6878361,-0.826916,81.0775,64.4,49.875
1273,156551,0.8332601000000001,0.48848800000000003,-0.686372,81.375,47.425,44.45
1274,156648,0.7329760000000001,0.386008,-0.783728,67.1475,29.2075,36.4875
1275,156745,0.643672,0.44773999999999997,-0.7141881,54.6525,19.775,27.9125
1276,156842,0.625128,0.48263199999999995,-0.70516,47.1975,14.035,23.17
1277,156939,0.597068,0.42431599999999997,-0.726388,43.4,10.0625,21.4375
1278,157036,0.5980439999999999,0.404796,-0.72712,39.2175,7.98,19.4775
1279,157133,0.594384,0.424072,-0.731024,34.58,6.7025,16.905
1280,157230,0.5948720000000001,0.43944399999999995,-0.71736,30.59,5.9325,15.225
1281,157327,0.6158561,0.435296,-0.694912,27.9475,5.775,13.7375
1282,157424,0.60512,0.43602799999999997,-0.7034521,24.535,4.2175,11.6025
1283,157521,0.5978,0.40821199999999996,-0.714432,21.6475,3.465,9.625
1284,157619,0.60146,0.39161999999999997,-0.7141881,18.795,3.99,7.21
1285,157716,0.587796,0.402844,-0.71492,15.225,3.885,4.3925
1286,157813,0.583404,0.412116,-0.709064,13.4225,3.85,2.8175
1287,157910,0.584136,0.41675200000000007,-0.70638,13.0375,4.0775,2.45
1288,158007,0.582184,0.413092,-0.704916,13.265,4.025,2.73
1289,158104,0.5787680000000001,0.422364,-0.702232,14.1575,3.815,3.5
1290,158201,0.58194,0.424072,-0.702232,15.68,3.78,5.04
1291,158298,0.5892601,0.415288,-0.705892,16.7825,3.8325,6.3175
1292,158395,0.5914560000000001,0.4026,-0.71126,16.485,3.64,6.7375
1293,158492,0.595604,0.388204,-0.7168720000000001,15.2075,3.64,6.0725
1294,158589,0.5926760999999999,0.378444,-0.718092,13.3,3.675,5.0925
1295,158686,0.5936520000000001,0.377712,-0.7176041,10.85,4.165,3.78
1296,158783,0.5968241,0.378932,-0.7156520000000001,8.365,4.865,2.205
1297,158881,0.5946279999999999,0.378444,-0.7137001000000001,6.3875,5.8275,1.1375
1298,158978,0.593896,0.386496,-0.7117479999999999,4.6375,6.895,0.4025
1299,159075,0.5934081,0.39723200000000003,-0.708088,3.36,7.8225,0.1225
1300,159172,0.5948720000000001,0.404552,-0.7017439999999999,2.7825,8.8025,0.805
1301,159269,0.595116,0.40894400000000003,-0.708088,2.1,9.415,1.855
1302,159366,0.596092,0.392352,-0.707112,1.715,10.5175,2.975
1303,159463,0.604144,0.379176,-0.7068681,1.085,11.725,3.4825
1304,159560,0.602436,0.38795999999999997,-0.711504,-0.1925,12.74,3.745
1305,159657,0.6019479999999999,0.398452,-0.7093081,-1.26,14.49,4.34
1306,159754,0.5941401,0.39967199999999997,-0.711504,-2.2225,16.4675,5.7925
1307,159851,0.596092,0.41382399999999997,-0.7227279999999999,-4.445,18.795,8.4
1308,159948,0.5997520000000001,0.390644,-0.72224,-6.2125,23.1175,11.7425
1309,160045,0.5946279999999999,0.38356799999999996,-0.7332201,-10.5875,27.545,14.175
1310,160143,0.5936520000000001,0.380152,-0.734928,-15.6975,33.285,15.925
1311,160240,0.5941401,0.407968,-0.761524,-22.2425,40.8275,17.605
1312,160337,0.6021920000000001,0.35697199999999996,-0.730536,-27.615,53.165,19.705
1313,160434,0.646112,0.370148,-0.774212,-37.345,65.22251,20.2475
1314,160531,0.6036560999999999,0.34867600000000004,-0.734684,-46.3925,78.4,20.825
1315,160628,0.62708,0.378444,-0.74908,-57.4875,92.48751,20.895
1316,160725,0.6527,0.4026,-0.7551800000000001,-69.3,107.73,22.5225
1317,160822,0.646844,0.41968,-0.7622561,-82.95,124.88,24.99
1318,160919,0.697108,0.43798000000000004,-0.801784,-95.34,146.23,29.085
1319,161016,0.6832,0.469944,-0.7834840000000001,-108.2725,173.6875,34.9825
1320,161113,0.6993041,0.523868,-0.7929999999999999,-128.8875,208.25,44.8525
1321,161210,0.738588,0.624884,-0.8076399999999999,-142.485,252.175,64.085
1322,161308,0.5221600000000001,0.76494,-0.794952,-146.2125,302.995,91.77
1323,161405,0.672708,0.9191481,-0.801784,-140.945,355.2675,127.3475
1324,161502,1.0145520000000001,0.966484,-0.8754719999999999,-127.5925,394.9575,168.8925
1325,161599,1.78608,0.8418,-0.850584,-121.87,407.505,196.6475
1326,161696,1.8575720000000002,1.003328,-0.8725440999999999,-126.7875,367.185,201.3025
1327,161793,1.443748,1.0138200000000002,-0.786656,-113.8025,307.7725,210.0
1328,161890,1.321992,1.066524,-0.8025161,-103.6175,266.525,218.6275
1329,161987,1.222684,1.218536,-1.090192,-71.12,235.9525,222.2675
1330,162084,1.037488,1.403732,-1.725568,-58.7475,175.3325,197.6275
1331,162181,1.54818,1.551596,-2.020808,-28.595,120.26,169.6275
1332,162278,0.388448,1.7760759999999998,-2.072048,-29.54,36.2775,165.9
1333,162376,-0.07222401,1.63114,-1.6043,-18.7775,-52.78,122.08
1334,162473,-0.429928,1.507188,-1.390068,22.9775,-89.775,76.545
1335,162570,-0.47336000000000006,1.319064,-1.15046,64.1025,-102.7775,44.9225
1336,162667,-0.33794,1.13094,-1.069452,89.04,-104.8425,14.77
1337,162764,-0.16689600000000002,0.9650200999999999,-1.039684,98.54251,-118.335,-20.615
1338,162861,-0.039528,0.808372,-0.9833200000000001,95.865,-142.7125,-56.175
1339,162958,0.056608000000000006,0.690032,-0.9264680000000001,88.06,-170.4325,-82.8275
1340,163055,0.165432,0.5926760999999999,-0.8727879999999999,82.845,-192.2025,-96.11
1341,163152,0.31476,0.500444,-0.8327720999999999,77.665,-208.1975,-100.4675
1342,163249,0.438956,0.432612,-0.7983680000000001,66.7625,-225.61,-101.15
1343,163346,0.549244,0.396744,-0.765428,52.5175,-241.815,-100.0475
1344,163443,0.643428,0.409432,-0.769088,33.775,-256.865,-99.33001
1345,163540,0.7639640999999999,0.461404,-0.79178,15.3825,-269.7625,-99.295
1346,163638,0.865956,0.521184,-0.8091041,0.5775,-281.6275,-100.8875
1347,163735,0.9581881,0.556076,-0.8254520000000001,-9.1175,-291.025,-104.1775
1348,163832,1.042856,0.552904,-0.821304,-14.9625,-296.065,-108.7275
1349,163929,1.1241079999999999,0.531676,-0.807396,-20.055,-296.8175,-114.17
1350,164026,1.1570479999999999,0.509472,-0.759084,-25.095,-293.6675,-119.805
1351,164123,1.143384,0.49556400000000006,-0.70028,-29.155,-285.1975,-124.74
1352,164220,1.115812,0.502152,-0.650748,-32.9175,-270.83,-128.5725
1353,164317,1.1150799999999998,0.547048,-0.6497721,-38.5,-251.685,-132.1775
1354,164414,1.138016,0.605364,-0.6736840000000001,-45.1325,-230.4225,-137.7775
1355,164511,1.142408,0.652212,-0.7078439999999999,-52.1325,-210.1575,-145.74
1356,164608,1.1385040000000002,0.684664,-0.744444,-58.065,-189.525,-153.6325
1357,164705,1.1958440000000001,0.6973520000000001,-0.742004,-61.005,-167.2125,-159.4775
1358,164802,1.413248,0.775676,-0.8481440999999998,-64.1725,-145.8625,-165.34
1359,164900,1.713856,0.8344801,-0.987712,-67.9525,-134.1025,-177.3975
1360,164997,2.0181240000000003,0.772016,-0.9379360000000001,-67.445,-142.6425,-199.4125
1361,165094,2.0742439999999998,0.698328,-0.8076399999999999,-54.0925,-157.325,-223.4925
1362,165191,2.20942,0.6317159999999999,-0.5692520000000001,-18.0075,-162.9775,-231.56
1363,165288,2.276032,0.378444,-0.11394800000000001,41.755,-155.6625,-215.1275
1364,165385,2.362896,0.045384,0.366732,92.0325,-135.6425,-193.5325
1365,165482,2.39486,-0.23472800000000002,0.805932,109.2875,-112.8225,-178.045
1366,165579,2.4034,-0.456768,1.099952,99.365,-86.18751,-160.09
1367,165676,2.43634,-0.6058520000000001,1.2056040000000001,73.1325,-55.5975,-130.55
1368,165774,2.475136,-0.6709999999999999,1.1387479999999999,38.675,-27.335,-92.26001
1369,165870,2.494656,-0.636108,0.8596120999999999,4.5325,-7.595,-51.5025
1370,165967,2.425116,-0.5414359999999999,0.53192,-21.98,1.6625,-14.245
1371,166065,1.949804,-0.388692,0.180072,-37.45,12.18,22.47
1372,166162,0.698328,-0.6729520999999999,0.292312,-5.46,62.755,65.415
1373,166259,-0.7019880000000001,-0.604144,-1.7702200000000001,-27.09,116.1125,70.105
1374,166356,0.009516001,-0.426756,-0.9489161,-125.3,163.0825,80.885
1375,166453,1.328092,0.18788,-0.238144,-135.87,213.0975,136.8325
1376,166550,1.29198,1.134844,-0.8371639999999999,-156.8875,200.9525,145.005
1377,166647,0.8935280999999999,1.4278879999999998,-0.640744,-134.1375,192.535,127.575
1378,166744,2.0425240000000002,3.99062,-2.0935200000000003,1.26,182.84,101.955
1379,166841,1.890268,0.935984,0.22277199999999997,287.9975,201.285,98.3675
1380,166938,0.843508,-0.23301999999999998,-1.352248,157.0625,109.06,93.345
1381,167036,0.9777081,0.101992,-0.712724,124.8625,83.125,74.2875
1382,167132,0.8315520000000001,0.434808,-0.8754719999999999,83.4575,58.1525,58.17
1383,167230,0.871568,0.5119121,-0.7356600000000001,67.27,38.815,45.045
1384,167327,0.796172,0.43163599999999996,-0.719312,59.7975,27.125,33.5825
1385,167424,0.654408,0.52704,-0.688812,43.015,13.5625,24.08
1386,167521,0.60634,0.457988,-0.716384,35.4375,7.9625,21.175
1387,167618,0.571936,0.388692,-0.721508,34.195,8.1025,18.9525
1388,167715,0.599264,0.395768,-0.718092,28.245,8.3825,15.1375
1389,167812,0.599508,0.44237200000000004,-0.6958880000000001,23.3625,8.61,11.3575
1390,167909,0.58072,0.45432799999999995,-0.697108,18.4625,7.8575,9.3275
1391,168006,0.5846241,0.44773999999999997,-0.705892,15.715,8.3125,9.0475
1392,168103,0.60634,0.41236000000000006,-0.701256,13.615,9.94,8.155
1393,168200,0.599996,0.41553199999999996,-0.706624,9.9225,10.15,5.6
1394,168297,0.595116,0.41358,-0.706136,6.58,10.5175,2.905
1395,168395,0.5897479999999999,0.431148,-0.702964,4.48,11.655,1.155
1396,168492,0.587796,0.44408000000000003,-0.69784,2.9925,12.53,0.805
1397,168589,0.5799880000000001,0.46506400000000003,-0.683932,2.7825,12.8625,2.275
1398,168686,0.579256,0.472384,-0.680028,4.5675,13.3175,5.425
1399,168783,0.589016,0.450424,-0.68198,7.5775,14.245,8.995
1400,168880,0.5987760999999999,0.43505200000000005,-0.689056,9.135,15.155,11.0075
1401,168977,0.6036560999999999,0.42456000000000005,-0.6883239999999999,8.54,15.995,11.76
1402,169074,0.6131721,0.405528,-0.692472,7.035,16.6075,11.4975
1403,169171,0.615124,0.406992,-0.690032,5.32,17.6225,10.6925
1404,169268,0.617564,0.407236,-0.692716,2.205,18.13,9.905
1405,169365,0.616344,0.40992,-0.686616,-0.77,18.6725,9.8175
1406,169463,0.6283,0.402844,-0.691008,-3.08,19.4425,9.8875
1407,169560,0.62464,0.393572,-0.6722199999999999,-4.8125,20.405,9.52
1408,169657,0.630984,0.4087,-0.679784,-7.84,20.615,8.3825
1409,169754,0.625372,0.404796,-0.6763680000000001,-9.1875,22.085,8.2775
1410,169851,0.625372,0.406504,-0.6734399999999999,-11.095,23.6425,8.3475
1411,169948,0.6202479999999999,0.419192,-0.672708,-12.04,25.3925,8.8725
1412,170045,0.641964,0.415288,-0.676612,-14.0175,27.8425,9.8525
1413,170142,0.633424,0.406748,-0.6675840000000001,-15.785,31.3425,11.34
1414,170239,0.651968,0.40528400000000003,-0.668072,-18.3225,34.58,11.69
1415,170336,0.656116,0.40138,-0.6602640000000001,-20.4225,38.115,12.0925
1416,170434,0.660996,0.411628,-0.660752,-24.115,41.7025,12.145
1417,170531,0.653188,0.417728,-0.673928,-27.8075,46.725,12.46
1418,170628,0.652456,0.420412,-0.675148,-32.1825,53.13,13.475
1419,170725,0.681248,0.432856,-0.6885680999999999,-38.6225,61.565,14.4375
1420,170822,0.686128,0.42285200000000006,-0.670512,-46.0075,70.875,15.4
1421,170919,0.658068,0.397476,-0.640744,-53.13,81.39251,16.0475
1422,171016,0.6956439999999999,0.41358,-0.654408,-61.18,92.5225,15.9775
1423,171113,0.7178479999999999,0.428708,-0.6822239999999999,-71.4875,104.335,16.3275
1424,171210,0.7034521,0.42724399999999996,-0.681248,-81.39251,121.275,16.7825
1425,171307,0.676856,0.408456,-0.708576,-91.875,144.025,18.2525
1426,171404,0.661484,0.441396,-0.755912,-107.3975,174.02,21.49
1427,171502,0.664168,0.6283,-0.8291120999999999,-126.56,215.0225,29.8725
1428,171599,0.6836880999999999,0.7661600000000001,-0.8574161,-134.3125,269.185,49.49
1429,171696,0.6505041,0.8127641,-0.79056,-139.4225,322.0175,77.945
1430,171793,0.9247601000000001,0.7517640999999999,-0.696132,-136.08,362.425,112.1925
1431,171890,1.671888,0.9301280000000001,-0.815936,-141.715,373.345,134.33
1432,171987,1.6799400000000002,0.9699,-0.827892,-142.45,342.5975,144.41
1433,172084,1.2214639999999999,0.8730319999999999,-0.6463561,-123.62,295.995,157.5
1434,172181,1.2038959999999999,0.9591639999999999,-0.617564,-114.6425,263.795,166.3725
1435,172278,0.9267120000000001,0.8808401,-0.8164239999999999,-87.90250999999999,242.76,177.0475
1436,172375,1.027484,1.068964,-1.138016,-69.3525,206.745,163.24
1437,172473,0.8693719999999999,1.121424,-1.515728,-58.6425,156.2925,139.3175
1438,172570,1.512312,1.169492,-1.9266240000000001,-53.27,107.1875,119.035
1439,172667,0.480436,1.32736,-2.002264,-51.0475,-6.3525,123.585
1440,172764,0.10321199999999998,1.15412,-1.571116,-26.7575,-86.13501,94.1325
1441,172861,-0.213988,1.058716,-1.245132,9.8175,-129.325,69.3175
1442,172958,-0.194468,0.9943001,-1.068232,43.0675,-142.6775,52.4475
1443,173055,-0.051484,0.916952,-0.9823440999999999,68.79251,-149.9925,35.9975
1444,173152,0.066124,0.82594,-0.8945040000000001,84.9625,-164.7975,15.1725
1445,173249,0.14347200000000002,0.737124,-0.805688,90.1075,-185.08,-6.79
1446,173346,0.23253200000000002,0.68808,-0.7266321,90.21251,-202.755,-24.5
1447,173444,0.28377199999999997,0.653676,-0.6736840000000001,83.4575,-217.0,-38.465
1448,173541,0.327692,0.632204,-0.633668,74.69,-226.135,-51.8
1449,173638,0.377712,0.630252,-0.630984,64.2075,-230.265,-65.43251
1450,173735,0.44944799999999996,0.649528,-0.64782,54.5825,-230.8775,-80.1325
1451,173832,0.553392,0.676612,-0.7015,48.02,-229.005,-94.72751
1452,173929,0.6802720999999999,0.6824680000000001,-0.745664,46.0775,-226.94,-107.9925
1453,174026,0.79666,0.654408,-0.774212,47.39,-226.3275,-120.015
1454,174123,0.8906,0.606584,-0.7869,49.6825,-226.2575,-130.1825
1455,174220,0.967216,0.540704,-0.7700640999999999,51.8175,-225.4,-137.515
1456,174317,1.011868,0.486048,-0.74908,52.71,-223.2125,-141.5925
1457,174414,1.0260200000000002,0.43432,-0.724924,51.555,-219.5025,-143.5175
1458,174511,1.004304,0.412116,-0.7034521,48.895,-213.045,-143.535
1459,174609,0.9979600000000001,0.398208,-0.6883239999999999,44.975,-203.9975,-142.5375
1460,174706,1.028704,0.409188,-0.702232,38.92,-193.41,-141.9425
1461,174803,1.073112,0.419436,-0.7317560000000001,31.4125,-183.0325,-142.3975
1462,174900,1.1070280000000001,0.4331,-0.757864,25.375,-173.95,-142.3625
1463,174997,1.21512,0.49605200000000005,-0.8222799999999999,20.1425,-165.305,-139.3525
1464,175094,1.5159719999999999,0.604388,-1.017968,10.395,-160.6325,-138.9325
1465,175191,1.7977919999999998,0.735904,-1.09922,1.26,-177.485,-147.2625
1466,175288,1.985916,0.886452,-0.9964959999999999,4.025,-208.7925,-157.955
1467,175385,1.883436,0.8249639999999999,-0.5826720000000001,26.18,-234.955,-157.5
1468,175482,1.8961240000000001,0.6709999999999999,-0.159332,52.3425,-238.2975,-147.77
1469,175579,1.911984,0.235704,0.183732,66.1325,-216.4225,-137.025
1470,175677,2.1459799999999998,0.266936,0.8796200000000001,52.2375,-177.0475,-125.8425
1471,175774,2.4207240000000003,0.198128,0.79422,24.7275,-126.035,-123.865
1472,175871,2.496364,0.020984,1.0260200000000002,6.615,-106.2075,-108.3775
1473,175968,2.476112,-0.115168,1.127524,-4.27,-77.6475,-83.72001
1474,176065,2.4734279999999997,-0.229116,1.19804,-17.9725,-49.56,-52.5175
1475,176162,2.3658240000000004,-0.228384,1.24196,-38.745,-20.65,-23.87
1476,176259,2.348744,-0.101016,1.1411879999999999,-55.405,18.2875,-1.4875
1477,176356,1.9083240000000001,-0.05929201,1.300764,-54.4425,67.4275,18.4975
1478,176453,0.768112,0.04514,-0.5119121,-52.3075,120.6625,28.07
1479,176550,0.298656,0.369904,-2.174772,-87.60501,130.97,17.325
1480,176647,0.684664,-0.27279200000000003,-0.592432,-77.035,131.3375,47.635
1481,176745,0.8996280999999999,0.417972,-0.649528,-94.0625,134.96,84.4025
1482,176842,0.873276,0.8945040000000001,-0.76982,-105.3325,133.9275,75.8975
1483,176939,0.8195960999999999,1.8580599999999998,-2.243092,-87.60501,131.39,63.21
1484,177036,1.248304,1.25416,-0.222284,68.53,114.03,43.05
1485,177133,1.242448,0.8574161,-0.9174399999999999,136.92,100.31,45.99
1486,177230,0.543876,0.319884,-0.7007680000000001,76.5975,57.6275,42.105
1487,177327,0.9128040000000001,0.512888,-0.811056,82.565,61.495,41.2125
1488,177424,0.741272,0.484584,-0.6368401,60.9525,42.7875,34.37
1489,177521,0.66368,0.586576,-0.7476161,46.6025,27.3525,27.335
1490,177618,0.6722199999999999,0.5058121,-0.692228,45.57,23.415,22.33
1491,177715,0.625128,0.450424,-0.721996,38.1675,17.4825,17.325
1492,177812,0.6058520000000001,0.459208,-0.7095520000000001,30.9575,13.16,12.705
1493,177909,0.584136,0.44115200000000004,-0.711016,25.41,10.675,8.96
1494,178007,0.571692,0.469944,-0.7007680000000001,21.77,9.8,6.3175
1495,178104,0.5587601,0.505568,-0.6753920999999999,20.2825,9.5375,6.3175
1496,178201,0.5673,0.499224,-0.686616,20.93,8.68,8.5575
1497,178298,0.579012,0.48116800000000004,-0.684664,22.7675,7.875,10.9375
1498,178395,0.5799880000000001,0.471408,-0.689056,22.575,6.405,11.865
1499,178492,0.5873079999999999,0.45579200000000003,-0.69296,21.805,5.81,11.48
1500,178589,0.58072,0.450912,-0.696864,19.9675,5.145,10.4125
1501,178686,0.572912,0.444568,-0.695156,18.9525,4.9875,9.765
1502,178783,0.5602239999999999,0.449692,-0.6956439999999999,18.8475,4.9175,9.9225
1503,178880,0.56242,0.448716,-0.693692,20.1425,5.6875,11.2525
1504,178977,0.5665680000000001,0.44847200000000004,-0.69296,22.365,6.93,13.0725
1505,179074,0.57706,0.448716,-0.698816,23.52,7.98,14.49
1506,179171,0.5799880000000001,0.434076,-0.702476,23.94,8.7325,15.12
1507,179268,0.592432,0.412116,-0.7041841,23.9575,9.5375,15.155
1508,179366,0.601704,0.404796,-0.7076001000000001,22.435,9.7825,13.7725
1509,179463,0.59658,0.394304,-0.7129681,19.565,10.01,12.0225
1510,179560,0.598288,0.396744,-0.711992,16.4325,10.3425,9.87
1511,179657,0.601704,0.413336,-0.7078439999999999,13.5625,11.0425,7.7525
1512,179754,0.5997520000000001,0.419436,-0.7027201,11.7775,11.2525,7.4725
1513,179851,0.60512,0.41382399999999997,-0.706624,10.71,12.0575,7.735
1514,179948,0.604632,0.4148,-0.709064,9.625,12.705,8.3825
1515,180045,0.60268,0.400404,-0.703696,8.5225,13.0725,9.135
1516,180142,0.605608,0.392108,-0.705892,7.21,13.9825,9.2225
1517,180239,0.599996,0.40626,-0.702964,4.9175,14.98,9.73
1518,180336,0.60268,0.407724,-0.702476,0.4025,15.75,11.3925
1519,180434,0.608536,0.39918400000000004,-0.7095520000000001,-1.89,18.2175,13.2475
1520,180531,0.61122,0.3843,-0.704916,-4.9525,20.755,14.6825
1521,180628,0.6107319999999999,0.379664,-0.7156520000000001,-7.3675,23.905,15.505
1522,180725,0.6095119999999999,0.36966,-0.7278521,-10.15,28.525,15.8025
1523,180822,0.62464,0.37990799999999997,-0.7076001000000001,-13.3875,35.315,15.9775
1524,180919,0.625616,0.375272,-0.708576,-19.32,40.4075,16.135
1525,181016,0.619272,0.38966799999999996,-0.715164,-25.4975,46.76,16.8175
1526,181113,0.6231760999999999,0.388204,-0.710284,-31.9025,54.495,18.235
1527,181210,0.683932,0.406992,-0.7390760000000001,-38.745,63.525,19.8625
1528,181307,0.6470880999999999,0.382836,-0.71614,-45.78,73.955,21.1925
1529,181404,0.5846241,0.365268,-0.672708,-52.92,85.645,21.945
1530,181502,0.681736,0.41723999999999994,-0.716384,-59.7625,98.0525,23.2575
1531,181599,0.6895439999999999,0.435296,-0.685396,-64.54,111.79,25.9875
1532,181696,0.711016,0.450424,-0.659532,-71.33,124.845,29.19
1533,181793,0.643672,0.44773999999999997,-0.682712,-77.28,139.7725,33.95
1534,181890,0.71248,0.502152,-0.7381001,-80.955,161.4375,40.495
1535,181987,0.687104,0.6075600999999999,-0.80886,-83.895,192.57,51.555
1536,182084,0.676124,0.69662,-0.7700640999999999,-87.29,234.9725,71.33
1537,182181,0.647576,0.806176,-0.765672,-88.39251,281.085,102.41
1538,182278,0.8483879999999999,0.9386681,-0.766892,-87.92,324.0475,142.31
1539,182375,0.8525360000000001,0.833992,-0.72712,-83.2125,359.45,185.29
1540,182472,1.65798,0.724436,-0.783972,-87.2375,365.8025,213.5
1541,182570,1.8168240000000002,0.9103641,-0.8274040000000001,-91.56,327.215,215.25
1542,182667,1.39568,0.902068,-0.6007279999999999,-81.97001,270.095,218.89
1543,182764,1.278316,0.922076,-0.6954,-73.7625,233.87,229.53
1544,182861,1.066768,1.057008,-0.94306,-52.64,197.6275,229.7575
1545,182958,0.883036,1.179252,-1.2822200000000001,-37.8175,143.5,205.8525
1546,183055,0.915976,1.409832,-1.535248,-23.4325,100.275,178.3075
1547,183152,0.983808,1.567212,-1.48474,-35.28,46.83,158.7075
1548,183249,0.133468,1.525,-1.49694,-52.7975,-54.775,125.09
1549,183346,-0.170068,1.4191040000000001,-1.2505,-29.295,-99.8375,72.2925
1550,183443,-0.270596,1.2280520000000001,-0.9459880999999999,1.6975,-125.4575,37.135
1551,183540,-0.1769,1.093608,-0.80642,28.6475,-130.9875,8.015
1552,183638,-0.048312,0.9884440000000001,-0.762012,49.385,-136.6575,-19.4425
1553,183735,0.02562,0.9025559999999999,-0.7451760000000001,62.4225,-147.07,-46.725
1554,183832,0.1159,0.792756,-0.739564,71.47,-156.4675,-70.6125
1555,183929,0.233264,0.71126,-0.7617681,75.3025,-165.445,-90.685
1556,184026,0.36648800000000004,0.641964,-0.74542,76.09000999999999,-174.4575,-106.085
1557,184123,0.47360399999999997,0.5978,-0.75274,70.6825,-185.535,-118.44
1558,184220,0.540216,0.57218,-0.7415161,65.5725,-195.02,-127.6275
1559,184317,0.6109760000000001,0.568276,-0.743468,60.2525,-200.795,-134.8375
1560,184414,0.702232,0.5846241,-0.765428,56.595,-203.3325,-141.96
1561,184511,0.7951961,0.5980439999999999,-0.780556,55.23,-204.47,-150.43
1562,184608,0.8640040000000001,0.6156119999999999,-0.7856801,56.6125,-204.68,-159.32
1563,184705,0.9154880999999999,0.6219561,-0.7761640999999999,60.795,-203.245,-167.51
1564,184803,0.964532,0.625128,-0.7820199999999999,65.555,-200.1825,-174.6675
1565,184900,1.024556,0.625372,-0.788608,69.755,-196.35,-180.705
1566,184997,1.084092,0.607804,-0.780068,72.59,-193.865,-185.045
1567,185094,1.111176,0.560956,-0.749324,72.0125,-192.605,-186.9
1568,185191,1.132892,0.5392399999999999,-0.7317560000000001,67.375,-191.0475,-184.94
1569,185288,1.153632,0.5206960999999999,-0.733464,60.4625,-188.9475,-179.2
1570,185385,1.17364,0.5124001,-0.71614,52.115,-186.6725,-170.7475
1571,185482,1.1956,0.5267960999999999,-0.72468,40.7225,-185.78,-161.07
1572,185579,1.211948,0.5551,-0.74298,27.44,-185.0625,-152.355
1573,185676,1.213168,0.598288,-0.73444,14.8575,-185.115,-145.285
1574,185774,1.220976,0.6541640000000001,-0.73078,4.06,-184.4325,-139.5275
1575,185871,1.258308,0.714676,-0.721264,-5.6175,-181.9825,-136.4125
1576,185968,1.2724600000000001,0.774456,-0.6958880000000001,-14.385,-180.46,-136.745
1577,186065,1.305644,0.8576601,-0.662216,-20.0025,-179.0075,-139.4925
1578,186162,1.331752,0.9150001,-0.6117081,-21.0525,-177.135,-143.7975
1579,186259,1.366644,0.9381801,-0.526308,-16.975,-172.725,-148.75
1580,186356,1.387628,1.067012,-0.417972,-11.83,-166.0575,-152.3375
1581,186453,1.46766,0.787632,-0.176656,-4.6375,-158.6725,-154.4375
1582,186550,1.407148,0.527528,0.020496,-8.4175,-145.4075,-165.585
1583,186647,1.532076,0.508984,0.09442801,-28.1575,-127.8025,-174.86
1584,186744,1.622112,0.451888,0.269864,-27.6675,-104.2125,-169.68
1585,186842,1.674084,0.398452,0.42700000000000005,-20.58,-78.48751,-162.6625
1586,186939,1.7807119999999999,0.335012,0.576816,-11.5325,-48.755,-157.9375
1587,187036,1.874408,0.274988,0.699792,-3.815,-19.775,-153.615
1588,187133,1.860744,0.200812,0.7598161,7.2275,7.035,-143.99
1589,187230,1.8304880000000001,0.089792,0.7661600000000001,20.755,36.1725,-125.9825
1590,187327,1.831952,0.019275999999999998,0.660996,26.5125,64.505,-106.575
1591,187424,1.8109680000000001,0.024888,0.452376,21.3325,86.4675,-89.81
1592,187521,1.682868,0.404308,0.6527,8.8025,99.2075,-75.0225
1593,187618,0.30378,0.546804,-0.382836,25.6725,127.12,-59.115
1594,187715,-0.6378159999999999,-0.570472,-1.212924,81.13,192.7625,-56.5075
1595,187812,-0.580964,-0.641964,-0.7422481,-40.9675,237.5625,-72.8
1596,187910,1.6491959999999999,-0.15494000000000002,-0.145912,-74.83,319.2,-41.86
1597,188007,1.8751400000000003,0.00244,-1.2526959999999998,-95.2525,309.995,-19.5475
1598,188104,1.718736,-0.309636,-1.7294720000000001,-66.185,268.1875,28.0525
1599,188201,1.5342719999999999,0.023668,-1.261236,-74.655,207.7775,86.66
1600,188298,1.096536,0.7922680000000001,-0.665144,-88.9,166.25,111.195
1601,188395,1.7812,3.3218160000000005,-2.770132,-58.975,144.13,86.04751
1602,188492,0.9567241,1.179984,0.419192,186.9525,137.4625,74.1475
1603,188589,0.9994241,0.48995200000000005,-1.2780719999999999,144.235,98.9275,81.795
1604,188686,0.634644,0.349408,-0.612684,128.6075,71.3825,88.02501
1605,188783,0.983808,0.661728,-0.7171161,113.47,69.79,86.04751
1606,188880,0.746152,0.665144,-0.76372,95.76,38.6575,80.4825
1607,188978,0.743224,0.343064,-0.752984,93.24,31.4825,73.1325
1608,189075,0.7007680000000001,0.42602399999999996,-0.7156520000000001,80.8675,22.1025,61.915
1609,189172,0.6724640000000001,0.44725200000000004,-0.758596,67.8825,13.6325,51.9925
1610,189269,0.67466,0.359656,-0.7332201,62.4225,12.74,43.7325
1611,189366,0.648796,0.365512,-0.7278521,50.96,8.6275,34.0725
1612,189463,0.610488,0.406016,-0.7324881,40.8625,5.7575,25.4975
1613,189560,0.5975560000000001,0.400892,-0.7285841,35.2275,6.4225,20.3525
1614,189657,0.59902,0.387228,-0.7229720000000001,28.7875,6.335,16.3975
1615,189754,0.5968241,0.393328,-0.72102,23.24,5.7225,12.565
1616,189851,0.599264,0.411628,-0.7227279999999999,18.935,5.075,9.6775
1617,189949,0.58194,0.4392,-0.713212,16.1,3.9025,8.5925
1618,190046,0.5785241,0.44237200000000004,-0.709064,15.4875,3.36,9.3275
1619,190143,0.5777920999999999,0.43798000000000004,-0.706624,16.17,3.3775,10.7625
1620,190240,0.584868,0.404796,-0.71248,16.8525,3.605,11.865
1621,190337,0.582428,0.382592,-0.7183361,16.4675,4.2,11.55
1622,190434,0.586088,0.373076,-0.7190681,15.2075,5.0575,10.325
1623,190531,0.59658,0.371368,-0.7129681,13.23,6.02,8.715
1624,190628,0.5919439999999999,0.36575599999999997,-0.718092,11.55,6.7725,7.105
1625,190725,0.6036560999999999,0.370392,-0.7095520000000001,9.835,6.825,6.3175
1626,190822,0.5917,0.38674000000000003,-0.7141881,9.52,7.07,6.0725
1627,190919,0.6107319999999999,0.36087600000000003,-0.718092,8.5225,6.755,6.51
1628,191017,0.5826720000000001,0.35136,-0.6993041,8.12,6.895,6.65
1629,191114,0.603168,0.369904,-0.7166279999999999,7.1225,7.6475,5.3725
1630,191211,0.6036560999999999,0.3721,-0.718092,6.02,8.155,4.83
1631,191308,0.604144,0.368684,-0.715164,5.32,9.1175,4.9175
1632,191405,0.6058520000000001,0.37576,-0.7171161,4.3925,10.115,4.83
1633,191502,0.60268,0.366732,-0.7076001000000001,3.71,10.745,5.3375
1634,191599,0.6124400999999999,0.37112399999999995,-0.709796,3.1675,11.1475,5.88
1635,191696,0.610244,0.376492,-0.7044279999999999,2.4325,11.3925,6.5975
1636,191793,0.61366,0.381128,-0.70516,1.715,11.6375,7.56
1637,191890,0.6156119999999999,0.362584,-0.7134560999999999,0.56,12.2675,8.645
1638,191987,0.614392,0.349896,-0.71492,-1.05,13.685,9.0125
1639,192085,0.616588,0.349164,-0.734928,-3.5175,15.855,8.9775
1640,192182,0.6058520000000001,0.331352,-0.7315119999999999,-5.4775,19.7225,9.03
1641,192279,0.6075600999999999,0.346236,-0.735904,-8.3125,25.235,8.6975
1642,192376,0.626104,0.350628,-0.7259001,-12.0225,30.415,8.505
1643,192473,0.618784,0.344528,-0.7107720000000001,-15.8375,35.805,8.4875
1644,192570,0.619516,0.344528,-0.716384,-20.545,41.3175,8.05
1645,192667,0.644404,0.34404,-0.72224,-25.5675,47.2675,7.245
1646,192764,0.6375721,0.321348,-0.7076001000000001,-31.745,53.83,5.6525
1647,192861,0.6422081000000001,0.30109600000000003,-0.72224,-39.865,61.18,2.59
1648,192959,0.658068,0.333304,-0.7320001,-47.635,69.2475,-0.0525
1649,193056,0.680028,0.384544,-0.7439560000000001,-55.8775,78.8025,-1.2075
1650,193153,0.684908,0.411872,-0.743468,-63.665,91.4725,0.07
1651,193250,0.644648,0.4023561,-0.7381001,-72.905,106.2425,3.3425
1652,193347,0.657824,0.43236800000000003,-0.7734800000000001,-84.98,125.195,7.2625
1653,193444,0.614392,0.488976,-0.889136,-101.5,152.7925,12.4425
1654,193541,0.65758,0.582184,-0.8906,-113.12,195.545,23.17
1655,193638,0.620736,0.5934081,-0.877424,-119.7175,244.9125,40.2325
1656,193735,0.67466,0.65758,-0.8601,-123.97,290.64,61.8275
1657,193832,0.7700640999999999,0.6605081,-0.8613200000000001,-121.31,330.82,87.255
1658,193930,1.356884,0.76372,-0.8091041,-122.7975,347.4275,105.4025
1659,194027,1.6582240000000001,0.729072,-0.94916,-122.675,331.45,108.9725
1660,194124,1.010648,0.641232,-0.7759199999999999,-109.9,291.2525,112.4375
1661,194221,1.153632,0.8291120999999999,-0.812032,-94.185,258.8075,116.305
1662,194318,0.9150001,0.765428,-0.8215481,-56.4725,242.3225,122.6225
1663,194415,0.989664,0.791536,-1.410076,-28.9275,216.545,116.025
1664,194512,1.049444,0.927688,-1.518168,-18.4275,167.51,99.19001
1665,194609,0.853512,0.7015,-1.9788400000000002,-27.4225,115.0975,98.21
1666,194706,0.378688,1.1131280000000001,-1.9888439999999998,-14.8575,15.155,111.4925
1667,194803,-0.10833599999999999,1.041148,-1.4818120000000001,24.3425,-54.635,93.205
1668,194900,-0.31598000000000004,0.989908,-1.136308,64.5575,-87.4825,78.015
1669,194997,-0.252296,0.9940559999999999,-0.992592,96.32,-93.94,61.0575
1670,195095,-0.1037,1.01626,-0.9333,118.825,-101.6925,35.8225
1671,195192,0.0034159999999999998,0.989908,-0.8488761,136.2375,-116.1125,4.69
1672,195289,0.108824,0.944768,-0.748836,149.2575,-132.7725,-23.3275
1673,195386,0.206668,0.904752,-0.666608,158.34,-147.7875,-44.3975
1674,195483,0.32866799999999996,0.8940161,-0.60512,163.765,-159.18,-61.075
1675,195580,0.418704,0.883768,-0.5404601,165.55,-169.12,-75.53
1676,195677,0.506544,0.9018241,-0.491904,164.7975,-177.45,-88.44501
1677,195774,0.5980439999999999,0.9286639999999999,-0.441396,163.31,-182.63,-99.6625
1678,195871,0.6946681,0.9677040000000001,-0.404308,160.9825,-185.0275,-110.145
1679,195968,0.79422,1.000888,-0.37551599999999996,158.13,-185.0275,-120.89
1680,196065,0.86864,1.035292,-0.34428400000000003,156.065,-183.5575,-131.9675
1681,196162,0.921588,1.0467600000000001,-0.323544,155.4875,-179.76,-141.995
1682,196260,0.955992,1.041148,-0.306952,155.995,-173.67,-150.6225
1683,196357,0.9906401,1.030412,-0.306952,156.03,-166.5125,-157.605
1684,196454,1.016748,1.002108,-0.30988000000000004,154.49,-159.145,-163.135
1685,196551,1.0248,0.9686799999999999,-0.30841599999999997,150.0625,-151.9525,-167.09
1686,196648,1.025044,0.9189040999999999,-0.31842,143.045,-144.62,-169.015
1687,196745,1.0201639999999998,0.871568,-0.33916,134.925,-137.13,-167.23
1688,196842,1.0255319999999999,0.821304,-0.359656,125.825,-130.06,-162.6275
1689,196939,1.039928,0.79178,-0.39479200000000003,114.415,-124.53,-157.22
1690,197036,1.037488,0.792756,-0.42578,101.0975,-121.205,-152.635
1691,197133,1.041148,0.824232,-0.46603999999999995,87.71,-119.175,-149.45
1692,197230,1.0504200000000001,0.8727879999999999,-0.48116800000000004,76.335,-118.1775,-148.3475
1693,197328,1.050176,0.9489161,-0.5023960999999999,68.39,-117.9675,-148.9075
1694,197425,1.067988,1.01504,-0.512644,66.85,-118.0025,-150.08
1695,197522,1.060424,1.059692,-0.499468,70.7,-119.07,-152.635
1696,197619,1.0138200000000002,1.047492,-0.448716,77.8575,-119.525,-156.625
1697,197716,0.9650200999999999,1.016016,-0.378444,83.80751,-116.095,-161.105
1698,197813,0.9415959999999999,0.9903959999999999,-0.311344,86.29251,-108.15,-165.7075
1699,197910,0.9562360999999999,0.9821,-0.246196,85.365,-96.46,-170.6075
1700,198007,0.9796600000000001,0.9799041,-0.17812,82.53,-82.845,-175.875
1701,198104,1.003572,1.079456,-0.108824,78.225,-68.9675,-180.11
1702,198202,1.0182120000000001,1.055056,-0.01464,76.125,-56.42,-182.0875
1703,198299,1.031388,0.8525360000000001,0.047824,71.5225,-40.915,-190.4
1704,198396,1.0406600000000001,0.758596,0.08052000000000001,50.89,-26.4075,-206.8675
1705,198493,1.115324,0.8076399999999999,0.11760799999999999,33.1975,-8.995,-218.5225
1706,198590,1.2251239999999999,0.801784,0.179828,35.21,13.86,-217.42
1707,198687,1.387384,0.750544,0.251564,46.235,36.61,-210.595
1708,198784,1.4884,0.6517241,0.36892800000000003,55.195,54.04,-202.7025
1709,198881,1.55672,0.565836,0.474092,57.0675,67.935,-191.4675
1710,198978,1.6091799999999998,0.47775200000000007,0.528748,50.5575,79.31,-174.23
1711,199075,1.773148,0.353312,0.8230120999999999,37.1525,88.8475,-153.44
1712,199173,1.094584,0.665876,1.083116,10.78,124.7575,-135.5025
1713,199270,0.9806360000000001,0.7451760000000001,0.43773599999999996,18.3575,203.0,-130.6025
1714,199367,0.6902761,0.467016,-1.093364,36.995,235.27,-148.4875
1715,199464,0.066124,-0.15982000000000002,-1.0201639999999998,33.25,237.0375,-165.515
1716,199561,0.604632,-0.45506,-0.485072,11.7075,263.3575,-143.2025
1717,199658,1.589416,-0.28548,-0.8796200000000001,-20.1775,279.4575,-104.055
1718,199755,1.64822,-0.7686,-1.074576,-20.475,254.6775,-62.2475
1719,199852,1.625528,-1.351516,-1.5001120000000001,-27.02,220.185,0.525
1720,199949,1.446432,-0.9230520000000001,-1.0943399999999999,-60.445,180.18,69.4925
1721,200046,2.99876,2.975336,-3.675128,-83.335,117.6,78.1375
1722,200144,0.579012,0.7427361,0.502884,137.095,51.415,56.5075
1723,200241,1.341024,1.6504159999999999,-1.154608,73.92,20.1075,52.0275
1724,200338,0.621468,0.745664,-0.7422481,78.89,18.2525,43.085
1725,200435,0.6224441,0.399916,-0.730536,64.3125,24.43,40.7575
1726,200532,0.69784,0.536556,-0.705892,52.4125,20.3,35.7525
1727,200629,0.687104,0.477996,-0.668316,42.3325,12.46,29.6625
1728,200726,0.684176,0.387228,-0.6734399999999999,35.9275,8.6975,22.295
1729,200823,0.6602640000000001,0.376492,-0.732244,27.0375,4.095,14.2275
1730,200920,0.6290319999999999,0.401868,-0.7320001,20.055,1.96,8.435
1731,201017,0.6082920999999999,0.395036,-0.729072,16.695,1.2425,5.2675
1732,201115,0.60512,0.36234,-0.731268,14.385,0.665,3.5875
1733,201212,0.590968,0.398696,-0.734928,12.2675,0.0875,2.03
1734,201309,0.580964,0.406016,-0.7324881,10.4825,-0.1925,1.9775
1735,201406,0.5743761,0.396256,-0.729316,9.59,1.1025,2.9225
1736,201503,0.5843801,0.373564,-0.730536,8.61,2.135,3.395
1737,201600,0.5846241,0.360388,-0.724924,7.595,2.275,3.01
1738,201697,0.5738880000000001,0.38064000000000003,-0.7300479999999999,5.9325,1.9075,1.8725
1739,201794,0.5751081,0.391864,-0.731268,5.495,2.7125,1.8725
1740,201891,0.580964,0.397476,-0.7239479999999999,5.705,3.7975,2.6775
1741,201989,0.5787680000000001,0.39113200000000004,-0.7224841,5.9675,4.0075,3.64
