,T,ax,ay,az,gx,gy,gz
0,11698,0.576084,-0.366,-0.546072,16.5375,-16.765,-17.5
1,11849,0.5946279999999999,-0.37112399999999995,-0.635376,18.165,-62.6675,-85.575
2,11946,0.630008,-0.406504,-0.6695361,46.445,-168.91,-168.42
3,12042,0.6273241,-0.404796,-0.673196,47.145,-129.2725,-58.835
4,12138,0.64294,-0.401868,-0.6722199999999999,-1.505,-2.4325,-6.3175
5,12234,0.6351319999999999,-0.384544,-0.6824680000000001,-7.2275,3.0275,-4.4625
6,12331,0.642696,-0.385764,-0.685884,-9.625,2.17,-4.83
7,12427,0.644892,-0.380396,-0.696376,-11.7775,1.05,-5.215
8,12523,0.6453800000000001,-0.37454,-0.701012,-13.3875,0.1225,-5.145
9,12620,0.648796,-0.373564,-0.700036,-14.9975,-1.085,-4.9875
10,12716,0.6405,-0.37576,-0.6946681,-16.38,-2.695,-5.005
11,12812,0.646844,-0.37698000000000004,-0.6902761,-17.22,-4.55,-4.9875
12,12908,0.638304,-0.384056,-0.70638,-14.7,-8.4525,-4.41
13,13005,0.644892,-0.371612,-0.69418,-17.22,-10.6225,-4.27
14,13101,0.655384,-0.368196,-0.685884,-21.0,-12.53,-3.3075
15,13197,0.624396,-0.361852,-0.670024,-22.3825,-15.2775,-0.5425
16,13294,0.586088,-0.391376,-0.6019479999999999,-26.3025,-16.765,-0.8225
17,13390,0.5797441,-0.782508,-0.42016800000000004,-38.57,-10.4825,-6.44
18,13486,0.7500560000000001,0.057339999999999995,-0.8571719999999999,-119.4375,17.325,-11.8475
19,13582,0.5846241,-0.37551599999999996,-0.6649,-28.735,3.92,-5.4075
20,13679,0.629764,-0.346968,-0.68198,-0.9625,-5.2325,-2.6425
21,13775,0.6368401,-0.343308,-0.6919841,0.7875,-4.0425,-3.5175
22,13871,0.63318,-0.346724,-0.6885680999999999,2.52,-3.85,-3.4825
23,13967,0.635864,-0.345504,-0.6917399999999999,2.3625,-3.5,-3.29
24,14064,0.632204,-0.34526,-0.68808,1.2075,-2.8525,-3.3775
25,14160,0.6317159999999999,-0.346724,-0.6885680999999999,1.5225,-2.905,-3.325
26,14256,0.636352,-0.34526,-0.6897880999999999,1.505,-2.7475,-3.3775
27,14353,0.6351319999999999,-0.346968,-0.688812,1.8725,-2.9925,-3.22
28,14449,0.6368401,-0.34477199999999997,-0.688812,1.68,-3.045,-3.255
29,14545,0.634644,-0.346236,-0.690764,1.7675,-3.2025,-3.15
30,14641,0.633668,-0.345748,-0.69052,1.785,-3.22,-3.2375
31,14738,0.636108,-0.345504,-0.6885680999999999,1.785,-3.1675,-3.255
32,14834,0.635376,-0.34721199999999997,-0.6893,1.9775,-3.3775,-3.185
33,14930,0.6344,-0.345748,-0.6883239999999999,1.96,-3.36,-3.115
34,15027,0.635864,-0.346236,-0.6883239999999999,2.0475,-3.3775,-3.045
35,15123,0.63562,-0.34428400000000003,-0.690032,1.995,-3.465,-3.0625
36,15219,0.635376,-0.348188,-0.6893,2.03,-3.57,-2.9575
37,15315,0.6373281,-0.345992,-0.6885680999999999,2.0475,-3.57,-2.905
38,15412,0.6368401,-0.346724,-0.689056,2.0475,-3.57,-2.87
39,15508,0.637084,-0.34648,-0.6878361,2.0475,-3.6575,-2.8525
40,15604,0.635864,-0.345992,-0.68686,2.03,-3.675,-2.905
41,15701,0.6351319999999999,-0.34794400000000003,-0.688812,1.9775,-3.71,-2.835
42,15797,0.635864,-0.347456,-0.687104,2.03,-3.78,-2.8175
43,15893,0.633912,-0.349408,-0.6878361,2.0825,-3.78,-2.975
44,15989,0.633668,-0.34794400000000003,-0.685396,2.0475,-3.64,-2.975
45,16086,0.636352,-0.34794400000000003,-0.684908,2.0125,-3.745,-2.975
46,16182,0.636596,-0.34648,-0.6885680999999999,1.89,-3.6225,-3.0275
47,16278,0.63562,-0.347456,-0.6883239999999999,1.855,-3.64,-3.045
48,16375,0.635864,-0.34477199999999997,-0.687348,1.9075,-3.745,-3.045
49,16471,0.636108,-0.34648,-0.687348,1.855,-3.815,-3.0625
50,16567,0.63318,-0.34721199999999997,-0.6895439999999999,1.8375,-3.8325,-3.1325
51,16663,0.6329359999999999,-0.349408,-0.6883239999999999,1.8725,-3.85,-3.1325
52,16760,0.634156,-0.348188,-0.6883239999999999,1.8375,-3.745,-3.08
53,16856,0.63562,-0.348432,-0.688812,1.9425,-3.78,-2.975
54,16952,0.6351319999999999,-0.34721199999999997,-0.687348,2.03,-3.71,-2.94
55,17049,0.6344,-0.345992,-0.686372,2.1175,-3.675,-2.8175
56,17145,0.6348881,-0.348432,-0.687104,2.205,-3.6925,-2.73
57,17241,0.634156,-0.349408,-0.6893,2.135,-3.5875,-2.73
58,17337,0.635376,-0.35087199999999996,-0.686616,2.31,-3.78,-2.73
59,17434,0.633912,-0.348188,-0.686372,2.205,-3.7275,-2.7125
60,17530,0.6351319999999999,-0.347456,-0.686128,2.2225,-3.745,-2.66
61,17626,0.634644,-0.349164,-0.684176,2.205,-3.7275,-2.555
62,17723,0.634644,-0.34794400000000003,-0.685396,2.2225,-3.71,-2.4675
63,17819,0.635376,-0.3477,-0.68808,2.2575,-3.675,-2.4325
64,17915,0.636596,-0.346724,-0.687592,2.45,-3.675,-2.38
65,18011,0.635376,-0.349896,-0.6844201,2.6425,-3.64,-2.3275
66,18108,0.6344,-0.34867600000000004,-0.684908,2.6075,-3.675,-2.24
67,18204,0.6375721,-0.346236,-0.687592,2.66,-3.6925,-2.1
68,18300,0.6378159999999999,-0.350628,-0.6851520999999999,3.185,-3.7625,-1.82
69,18397,0.6373281,-0.345504,-0.6893,3.5875,-3.8325,-1.575
70,18493,0.635864,-0.345992,-0.6878361,4.235,-3.9375,-1.05
71,18589,0.63562,-0.348432,-0.6893,4.655,-4.095,-0.63
72,18686,0.6351319999999999,-0.350628,-0.68686,5.005,-4.13,-0.35
73,18782,0.6375721,-0.351116,-0.684908,5.3725,-4.095,-0.105
74,18878,0.6351319999999999,-0.35087199999999996,-0.686128,5.7925,-4.0775,0.21
75,18974,0.633668,-0.355996,-0.685884,6.1425,-4.0775,0.4725
76,19071,0.633912,-0.354288,-0.684908,6.3,-4.0425,0.665
77,19167,0.634156,-0.35624,-0.68686,6.545,-4.0075,0.8225
78,19263,0.632448,-0.360144,-0.681736,7.0175,-3.885,1.0325
79,19360,0.631228,-0.358192,-0.6856399999999999,7.21,-3.9025,1.2425
80,19456,0.627568,-0.36234,-0.6824680000000001,7.3325,-3.78,1.26
81,19552,0.6314721,-0.365512,-0.6785640000000001,7.2275,-3.6225,1.1025
82,19649,0.628544,-0.365268,-0.68076,6.9475,-3.6925,0.8575
83,19745,0.628788,-0.364048,-0.6785640000000001,6.5975,-3.5525,0.595
84,19841,0.630008,-0.367464,-0.677588,6.3875,-3.465,0.3325
85,19937,0.628788,-0.369172,-0.6753920999999999,6.125,-3.5525,0.0875
86,20034,0.627568,-0.366976,-0.679296,5.845,-3.465,-0.1225
87,20130,0.626104,-0.365268,-0.68198,5.7225,-3.4825,-0.315
88,20226,0.6292760000000001,-0.366976,-0.6824680000000001,5.775,-3.465,-0.2625
89,20322,0.630008,-0.369904,-0.679784,6.0375,-3.3775,-0.105
90,20419,0.6283,-0.369904,-0.6763680000000001,6.1075,-3.5,-0.035
91,20515,0.627812,-0.372344,-0.676612,6.2125,-3.7275,-0.1925
92,20611,0.626836,-0.374052,-0.6753920999999999,5.7925,-3.4825,-0.4375
93,20708,0.6273241,-0.37454,-0.678076,5.3725,-3.5,-0.7175
94,20804,0.627568,-0.37576,-0.676612,5.1625,-3.6225,-0.91
95,20900,0.6265921,-0.37576,-0.6749041,4.9,-3.5875,-1.1725
96,20997,0.625372,-0.376004,-0.6763680000000001,4.5675,-3.465,-1.4175
97,21093,0.6263479999999999,-0.375272,-0.676856,4.3225,-3.325,-1.68
98,21189,0.6273241,-0.378688,-0.674172,4.0075,-3.36,-1.855
99,21285,0.624884,-0.376736,-0.6749041,3.7275,-3.36,-1.995
100,21382,0.626104,-0.378444,-0.674172,3.395,-3.4475,-2.31
101,21478,0.625372,-0.37746799999999997,-0.676856,3.255,-3.535,-2.415
102,21574,0.623908,-0.378688,-0.674416,3.045,-3.57,-2.765
103,21671,0.623664,-0.379176,-0.673928,2.5725,-3.64,-3.0275
104,21767,0.624884,-0.378688,-0.6756361,2.0825,-3.8675,-3.36
105,21863,0.6263479999999999,-0.377224,-0.6753920999999999,1.575,-3.8675,-3.745
106,21959,0.626104,-0.38064000000000003,-0.6729520999999999,1.3475,-4.0425,-4.1125
107,22056,0.62708,-0.37942,-0.671488,0.91,-3.9375,-4.305
108,22152,0.62708,-0.378688,-0.672708,0.6825,-4.13,-4.515
109,22248,0.6265921,-0.37942,-0.673196,0.315,-4.13,-4.76
110,22345,0.625616,-0.37942,-0.6729520999999999,-0.0175,-4.1475,-4.9525
111,22441,0.626104,-0.378688,-0.671244,-0.42,-4.165,-5.1625
112,22537,0.626836,-0.378932,-0.674172,-0.8925,-4.34,-5.4775
113,22633,0.6265921,-0.377712,-0.6722199999999999,-1.47,-4.445,-5.775
114,22730,0.625372,-0.376492,-0.674172,-1.925,-4.6725,-6.055
115,22826,0.6263479999999999,-0.376492,-0.674416,-2.45,-4.865,-6.3175
116,22922,0.62708,-0.37332,-0.6753920999999999,-2.8525,-4.935,-6.5975
117,23019,0.6258600000000001,-0.36966,-0.67832,-3.08,-4.9525,-6.7725
118,23115,0.627812,-0.371368,-0.679784,-3.2375,-4.9875,-6.86
119,23211,0.628544,-0.36892800000000003,-0.6785640000000001,-3.22,-4.935,-6.7375
120,23307,0.62708,-0.366732,-0.6785640000000001,-3.1675,-4.9175,-6.72
121,23404,0.6280560000000001,-0.367464,-0.681736,-3.0625,-5.005,-6.72
122,23500,0.6290319999999999,-0.36575599999999997,-0.6790520999999999,-2.87,-4.795,-6.4925
123,23596,0.6304960000000001,-0.363072,-0.6790520999999999,-2.6075,-4.55,-6.3875
124,23693,0.6304960000000001,-0.361608,-0.681248,-2.2925,-4.5675,-6.1075
125,23789,0.6304960000000001,-0.360144,-0.682712,-1.8375,-4.4275,-5.81
126,23885,0.6273241,-0.363072,-0.68198,-1.3475,-4.2875,-5.495
127,23982,0.628788,-0.361852,-0.681492,-1.0325,-4.2175,-5.215
128,24078,0.62952,-0.361608,-0.6822239999999999,-0.6475,-4.13,-5.075
129,24174,0.6304960000000001,-0.359412,-0.6824680000000001,-0.4025,-4.1125,-4.8475
130,24270,0.630008,-0.35868,-0.682712,-0.105,-4.025,-4.5675
131,24367,0.6290319999999999,-0.360388,-0.6824680000000001,0.1925,-4.025,-4.41
132,24463,0.630252,-0.359412,-0.6824680000000001,0.3675,-4.0075,-4.2525
133,24559,0.628544,-0.360632,-0.6810039999999999,0.5775,-4.06,-4.0775
134,24656,0.629764,-0.361608,-0.681248,0.63,-4.025,-4.06
135,24752,0.628544,-0.36136399999999996,-0.68076,0.63,-4.025,-4.0775
136,24848,0.627812,-0.36087600000000003,-0.6810039999999999,0.595,-4.0075,-4.06
137,24944,0.628788,-0.36136399999999996,-0.6822239999999999,0.6125,-3.9725,-4.025
138,25041,0.6307401,-0.35892399999999997,-0.6834439999999999,0.805,-4.0075,-4.0075
139,25137,0.630252,-0.35843600000000003,-0.681248,0.9625,-3.9025,-3.99
140,25233,0.627812,-0.36136399999999996,-0.681492,1.05,-3.885,-4.0075
141,25330,0.6283,-0.3599,-0.681736,1.05,-3.92,-3.8325
142,25426,0.630252,-0.357704,-0.6844201,1.0325,-3.92,-3.8325
143,25522,0.6283,-0.359656,-0.682712,1.1025,-3.955,-3.815
144,25619,0.627568,-0.3599,-0.68198,1.19,-3.8675,-3.885
145,25715,0.6304960000000001,-0.360144,-0.681736,1.155,-3.92,-3.9725
146,25811,0.6290319999999999,-0.357948,-0.6824680000000001,1.2075,-3.92,-3.815
147,25907,0.626104,-0.35868,-0.680516,1.2775,-3.92,-3.7975
148,26004,0.6273241,-0.35843600000000003,-0.681248,1.2075,-4.0425,-3.7625
149,26100,0.627568,-0.36087600000000003,-0.681248,1.26,-3.9725,-3.6925
150,26196,0.62952,-0.35697199999999996,-0.6824680000000001,1.26,-4.025,-3.7275
151,26293,0.6283,-0.35868,-0.68198,1.26,-3.9725,-3.675
152,26389,0.6292760000000001,-0.359168,-0.682956,1.33,-4.06,-3.6925
153,26485,0.6263479999999999,-0.359168,-0.6802720999999999,1.33,-4.06,-3.64
154,26582,0.6273241,-0.35868,-0.681736,1.2425,-4.025,-3.675
155,26678,0.627812,-0.355508,-0.681248,1.1725,-4.13,-3.85
156,26774,0.6280560000000001,-0.359656,-0.6824680000000001,1.19,-4.1125,-3.745
157,26870,0.628788,-0.36136399999999996,-0.68198,1.155,-4.095,-3.815
158,26967,0.6265921,-0.362584,-0.681736,1.015,-4.165,-3.9725
159,27063,0.6273241,-0.363072,-0.68076,0.77,-4.13,-4.2
160,27159,0.6265921,-0.36136399999999996,-0.6822239999999999,0.455,-4.0775,-4.55
161,27256,0.626104,-0.35892399999999997,-0.681248,0.14,-3.955,-4.7775
162,27352,0.626836,-0.35892399999999997,-0.682956,0.035,-3.955,-4.9
163,27448,0.627568,-0.357948,-0.6822239999999999,-0.1225,-4.0075,-5.0575
164,27544,0.626104,-0.359412,-0.681736,-0.1575,-3.9725,-5.075
165,27641,0.628788,-0.356484,-0.68198,-0.175,-3.85,-5.25
166,27737,0.627568,-0.35477600000000004,-0.6834439999999999,-0.28,-3.6575,-5.2675
167,27833,0.631228,-0.351848,-0.6836880999999999,-0.105,-3.64,-5.18
168,27930,0.630984,-0.353068,-0.683932,0.1925,-3.5525,-4.9875
169,28026,0.629764,-0.354288,-0.682712,0.35,-3.5875,-4.83
170,28122,0.62952,-0.35526399999999997,-0.6822239999999999,0.28,-3.64,-4.8475
171,28219,0.628788,-0.355508,-0.6832,0.2275,-3.5875,-4.9
172,28315,0.6314721,-0.35136,-0.683932,0.2975,-3.5875,-4.7425
173,28411,0.6304960000000001,-0.35038400000000003,-0.682956,0.42,-3.5,-4.69
174,28507,0.6304960000000001,-0.351848,-0.681248,0.49,-3.57,-4.585
175,28604,0.6304960000000001,-0.35624,-0.6844201,0.4375,-3.64,-4.62
176,28700,0.6319600000000001,-0.35526399999999997,-0.685396,0.4025,-3.71,-4.62
177,28796,0.632204,-0.351116,-0.682956,0.35,-3.71,-4.6375
178,28893,0.630984,-0.35136,-0.6834439999999999,0.2975,-3.85,-4.69
179,28989,0.629764,-0.34892,-0.681492,0.2975,-3.9375,-4.7425
180,29085,0.6317159999999999,-0.348432,-0.6836880999999999,0.3325,-3.955,-4.6725
181,29181,0.630984,-0.349896,-0.685884,0.3675,-3.92,-4.48
182,29278,0.6307401,-0.349896,-0.684908,0.3675,-3.9375,-4.3925
183,29374,0.6317159999999999,-0.349896,-0.683932,0.4025,-3.99,-4.34
184,29470,0.6326921,-0.349408,-0.684664,0.5425,-3.955,-4.305
185,29567,0.631228,-0.349408,-0.6836880999999999,0.5075,-3.99,-4.2525
186,29663,0.631228,-0.348188,-0.6832,0.5425,-4.0775,-4.2525
187,29759,0.631228,-0.34794400000000003,-0.6844201,0.6125,-4.0425,-4.13
188,29856,0.631228,-0.349896,-0.686128,0.6475,-4.095,-4.13
189,29952,0.6317159999999999,-0.349164,-0.687592,0.5775,-4.06,-4.165
190,30048,0.632204,-0.349652,-0.68686,0.595,-4.095,-4.165
191,30144,0.632204,-0.348188,-0.686128,0.7525,-4.13,-4.1125
192,30241,0.6317159999999999,-0.34867600000000004,-0.686372,0.77,-4.1825,-4.06
193,30337,0.631228,-0.3477,-0.6851520999999999,0.735,-4.095,-3.99
194,30433,0.6314721,-0.3477,-0.686128,0.91,-4.0775,-4.0425
195,30530,0.6317159999999999,-0.346968,-0.687104,0.945,-4.0075,-3.92
196,30626,0.6317159999999999,-0.3477,-0.685884,0.98,-3.9725,-3.9025
197,30722,0.6317159999999999,-0.34794400000000003,-0.687104,1.0675,-3.9725,-3.85
198,30819,0.632204,-0.346968,-0.686128,1.1725,-3.9375,-3.7975
199,30915,0.632448,-0.34721199999999997,-0.686372,1.2075,-3.92,-3.6225
200,31011,0.6319600000000001,-0.346968,-0.685884,1.2775,-3.9725,-3.64
201,31107,0.6326921,-0.34892,-0.686616,1.2775,-4.0075,-3.57
202,31204,0.6326921,-0.348432,-0.687348,1.3475,-4.025,-3.4125
203,31300,0.6307401,-0.34794400000000003,-0.6836880999999999,1.4175,-4.13,-3.395
204,31396,0.6314721,-0.347456,-0.686128,1.505,-3.99,-3.465
205,31493,0.6319600000000001,-0.347456,-0.687592,1.575,-3.99,-3.2375
206,31589,0.632204,-0.346968,-0.687592,1.54,-4.0075,-3.29
207,31685,0.630984,-0.347456,-0.685884,1.645,-3.9375,-3.29
208,31782,0.6317159999999999,-0.346968,-0.686616,1.715,-3.955,-3.325
209,31878,0.630984,-0.34794400000000003,-0.686616,1.715,-3.955,-3.3425
210,31974,0.631228,-0.34794400000000003,-0.687592,1.7325,-3.955,-3.22
211,32070,0.630008,-0.3477,-0.686372,1.75,-4.025,-3.0975
212,32167,0.6292760000000001,-0.346968,-0.684664,1.7325,-4.06,-3.185
213,32263,0.627812,-0.348432,-0.6844201,1.75,-4.095,-3.2375
214,32359,0.627812,-0.346724,-0.685396,1.75,-4.06,-3.255
215,32456,0.630252,-0.35038400000000003,-0.6834439999999999,1.6975,-3.99,-3.325
216,32552,0.630984,-0.34794400000000003,-0.6856399999999999,1.7325,-3.9725,-3.465
217,32648,0.628788,-0.345504,-0.685884,1.5925,-3.955,-3.5
218,32744,0.6292760000000001,-0.34794400000000003,-0.684908,1.6275,-3.9375,-3.465
219,32841,0.6304960000000001,-0.34867600000000004,-0.6878361,1.645,-3.92,-3.5
220,32937,0.6319600000000001,-0.34892,-0.687104,1.5925,-3.8675,-3.535
221,33033,0.6317159999999999,-0.349408,-0.6851520999999999,1.6275,-3.78,-3.535
222,33130,0.6304960000000001,-0.34867600000000004,-0.6878361,1.61,-3.675,-3.5
223,33226,0.631228,-0.346968,-0.68686,1.5925,-3.7975,-3.4825
224,33322,0.6314721,-0.34648,-0.686372,1.645,-3.85,-3.535
225,33418,0.6314721,-0.34867600000000004,-0.685396,1.645,-3.745,-3.465
226,33515,0.629764,-0.346724,-0.685884,1.645,-3.7975,-3.465
227,33611,0.630984,-0.347456,-0.686372,1.645,-3.8675,-3.5
228,33707,0.6317159999999999,-0.348432,-0.6856399999999999,1.5925,-3.78,-3.465
229,33804,0.632448,-0.348432,-0.68686,1.6625,-3.7975,-3.3775
230,33900,0.6292760000000001,-0.349408,-0.685884,1.7325,-3.8675,-3.3775
231,33996,0.6326921,-0.34892,-0.686372,1.75,-3.815,-3.4125
232,34093,0.632448,-0.34892,-0.6851520999999999,1.68,-3.78,-3.43
233,34189,0.630984,-0.34892,-0.6878361,1.715,-3.8675,-3.395
234,34285,0.6314721,-0.3477,-0.688812,1.7325,-3.85,-3.3775
235,34381,0.6307401,-0.34794400000000003,-0.6885680999999999,1.855,-3.6925,-3.3425
236,34478,0.6314721,-0.349408,-0.685884,1.9425,-3.7625,-3.3075
237,34574,0.631228,-0.349408,-0.685884,1.995,-3.7625,-3.22
238,34670,0.630984,-0.34892,-0.6856399999999999,1.9425,-3.7625,-3.2375
239,34767,0.6319600000000001,-0.348432,-0.6856399999999999,1.89,-3.815,-3.325
240,34863,0.6292760000000001,-0.349652,-0.685396,1.89,-3.955,-3.395
241,34959,0.6304960000000001,-0.351116,-0.6851520999999999,1.785,-3.9725,-3.4125
242,35056,0.62952,-0.349408,-0.682956,1.715,-4.0425,-3.5
243,35152,0.630984,-0.349652,-0.6856399999999999,1.54,-3.8675,-3.5175
244,35248,0.6283,-0.34892,-0.685396,1.5225,-3.885,-3.535
245,35344,0.629764,-0.352092,-0.6836880999999999,1.4175,-3.85,-3.675
246,35441,0.6273241,-0.34721199999999997,-0.684908,1.4,-3.7275,-3.7275
247,35537,0.630252,-0.34892,-0.68686,1.33,-3.6575,-3.815
248,35633,0.627568,-0.346724,-0.6856399999999999,1.3825,-3.675,-3.885
249,35730,0.630252,-0.34867600000000004,-0.686372,1.2775,-3.675,-4.025
250,35826,0.630008,-0.348432,-0.6851520999999999,1.2775,-3.57,-3.9725
251,35922,0.6314721,-0.34721199999999997,-0.687348,1.26,-3.745,-4.025
252,36019,0.630984,-0.345748,-0.687104,1.2075,-3.6925,-4.0775
253,36115,0.629764,-0.34721199999999997,-0.6851520999999999,1.225,-3.8675,-3.9725
254,36211,0.634156,-0.348188,-0.687348,1.2775,-3.6925,-3.8325
255,36307,0.6329359999999999,-0.345992,-0.68686,1.3825,-3.745,-3.7975
256,36404,0.632448,-0.347456,-0.68686,1.435,-3.8325,-3.7275
257,36500,0.6326921,-0.348188,-0.686616,1.4175,-3.8675,-3.64
258,36596,0.632448,-0.348188,-0.687348,1.47,-3.7625,-3.5875
259,36693,0.632204,-0.34867600000000004,-0.686616,1.575,-3.815,-3.5175
260,36789,0.630984,-0.345748,-0.682712,1.6275,-3.71,-3.57
261,36885,0.632448,-0.349164,-0.68686,1.6625,-3.7625,-3.535
262,36981,0.628544,-0.34526,-0.687348,1.68,-3.6925,-3.5
263,37078,0.627812,-0.347456,-0.684664,1.645,-3.71,-3.5525
264,37174,0.62952,-0.348188,-0.6844201,1.645,-3.675,-3.57
265,37270,0.62952,-0.348432,-0.6856399999999999,1.645,-3.6925,-3.6225
266,37367,0.6292760000000001,-0.346968,-0.6834439999999999,1.7325,-3.4825,-3.6225
267,37463,0.630252,-0.35014,-0.6851520999999999,1.82,-3.4475,-3.535
268,37559,0.630252,-0.349408,-0.6851520999999999,1.785,-3.57,-3.605
269,37655,0.631228,-0.34892,-0.686128,1.6625,-3.5175,-3.675
270,37752,0.63318,-0.348432,-0.68686,1.5925,-3.43,-3.7625
271,37848,0.6326921,-0.34867600000000004,-0.686128,1.575,-3.395,-3.7975
272,37944,0.6326921,-0.34477199999999997,-0.684908,1.54,-3.5525,-3.7625
273,38041,0.6314721,-0.34648,-0.686372,1.435,-3.5175,-3.815
274,38137,0.6283,-0.346968,-0.684908,1.505,-3.605,-3.885
275,38233,0.6307401,-0.343064,-0.6878361,1.6275,-3.5525,-3.815
276,38329,0.6304960000000001,-0.34794400000000003,-0.6822239999999999,1.5575,-3.5525,-3.7975
277,38426,0.6326921,-0.34404,-0.683932,1.4875,-3.5,-3.85
278,38522,0.6329359999999999,-0.34794400000000003,-0.686128,1.54,-3.4125,-3.8675
279,38618,0.6329359999999999,-0.348432,-0.684908,1.54,-3.465,-3.8675
280,38715,0.63318,-0.346968,-0.686616,1.4525,-3.465,-3.955
281,38811,0.6317159999999999,-0.34721199999999997,-0.686616,1.4525,-3.395,-3.9025
282,38907,0.6329359999999999,-0.346968,-0.686128,1.4525,-3.465,-3.9025
283,39004,0.6319600000000001,-0.34648,-0.6834439999999999,1.4175,-3.5175,-3.8675
284,39100,0.6326921,-0.349408,-0.686616,1.365,-3.57,-3.92
285,39196,0.63318,-0.34526,-0.685396,1.2075,-3.6575,-4.025
286,39292,0.633424,-0.346968,-0.686128,1.12,-3.71,-4.06
287,39389,0.633424,-0.34526,-0.685884,1.1025,-3.815,-4.025
288,39485,0.632448,-0.3477,-0.685396,1.015,-3.85,-3.99
289,39581,0.632204,-0.346236,-0.684664,0.9625,-4.0075,-3.99
290,39678,0.632448,-0.348432,-0.6844201,0.9275,-4.025,-3.92
291,39774,0.630008,-0.346724,-0.683932,0.8925,-4.0425,-3.955
292,39870,0.632204,-0.346968,-0.685396,0.875,-4.025,-4.0075
293,39967,0.6314721,-0.348432,-0.685884,0.7875,-4.025,-4.095
294,40063,0.630008,-0.346968,-0.6834439999999999,0.7175,-4.0425,-4.165
295,40159,0.6329359999999999,-0.34428400000000003,-0.685396,0.7175,-4.06,-4.2875
296,40255,0.6319600000000001,-0.346236,-0.685396,0.665,-4.06,-4.34
297,40352,0.632204,-0.343796,-0.687104,0.7,-3.9375,-4.3225
298,40448,0.631228,-0.345504,-0.684908,0.7,-3.9025,-4.3225
299,40544,0.633424,-0.34257600000000005,-0.686616,0.7175,-3.955,-4.2875
300,40641,0.633668,-0.342332,-0.684908,0.805,-4.025,-4.2
301,40737,0.633912,-0.34257600000000005,-0.684908,0.9275,-3.92,-4.1125
302,40833,0.6344,-0.340136,-0.684908,0.9975,-3.9025,-3.955
303,40929,0.6329359999999999,-0.342332,-0.686128,1.1025,-3.955,-3.8325
304,41026,0.632448,-0.34281999999999996,-0.686616,1.295,-3.885,-3.7625
305,41122,0.630984,-0.34404,-0.684908,1.2775,-3.85,-3.71
306,41218,0.633424,-0.342088,-0.685884,1.3475,-3.92,-3.64
307,41315,0.6319600000000001,-0.343796,-0.685884,1.3125,-3.78,-3.605
308,41411,0.6317159999999999,-0.34281999999999996,-0.686372,1.3125,-3.8675,-3.675
309,41507,0.630984,-0.34281999999999996,-0.684664,1.3475,-3.8675,-3.71
310,41604,0.6329359999999999,-0.343308,-0.686372,1.435,-3.815,-3.64
311,41700,0.631228,-0.34477199999999997,-0.685884,1.47,-3.745,-3.6925
312,41796,0.6314721,-0.343308,-0.685884,1.5925,-3.6575,-3.6575
313,41892,0.63318,-0.342332,-0.684908,1.575,-3.57,-3.71
314,41989,0.631228,-0.34428400000000003,-0.684176,1.5925,-3.6575,-3.78
315,42085,0.6304960000000001,-0.341844,-0.68686,1.5575,-3.5875,-3.78
316,42181,0.6307401,-0.3416,-0.6893,1.575,-3.5875,-3.85
317,42278,0.6317159999999999,-0.341356,-0.687348,1.6975,-3.3775,-3.7275
318,42374,0.6329359999999999,-0.343064,-0.685396,1.8025,-3.3775,-3.57
319,42470,0.634644,-0.343308,-0.686128,1.785,-3.325,-3.57
320,42566,0.633912,-0.343552,-0.685396,1.855,-3.3775,-3.605
321,42663,0.6348881,-0.343552,-0.686128,1.9075,-3.4125,-3.64
322,42759,0.634644,-0.342332,-0.686128,1.785,-3.3775,-3.5875
323,42855,0.634644,-0.34257600000000005,-0.6856399999999999,1.785,-3.5,-3.6225
324,42952,0.630984,-0.343552,-0.685884,1.715,-3.57,-3.5525
325,43048,0.633912,-0.342088,-0.686128,1.785,-3.6225,-3.5
326,43144,0.632204,-0.34257600000000005,-0.684908,1.8025,-3.57,-3.4825
327,43241,0.6348881,-0.34257600000000005,-0.687348,1.8375,-3.6575,-3.4825
328,43337,0.633424,-0.34257600000000005,-0.6844201,1.8375,-3.535,-3.395
329,43433,0.6348881,-0.34257600000000005,-0.684664,1.8725,-3.6225,-3.3425
330,43529,0.6329359999999999,-0.341356,-0.683932,1.925,-3.535,-3.3425
331,43626,0.6348881,-0.34281999999999996,-0.6844201,2.1,-3.465,-3.2725
332,43722,0.63562,-0.33916,-0.687348,2.24,-3.2725,-3.15
333,43818,0.6326921,-0.340624,-0.6883239999999999,2.625,-2.9225,-2.9925
334,43915,0.63318,-0.341844,-0.6883239999999999,2.9575,-2.8175,-2.8175
335,44011,0.6351319999999999,-0.34038,-0.6851520999999999,3.185,-2.66,-2.5725
336,44107,0.6348881,-0.343552,-0.684176,3.3425,-2.6425,-2.38
337,44203,0.6348881,-0.344528,-0.687592,3.4125,-2.6775,-2.31
338,44300,0.634644,-0.343796,-0.685396,3.3075,-2.7125,-2.3975
339,44396,0.636352,-0.346236,-0.6824680000000001,3.325,-2.8175,-2.4325
340,44492,0.6329359999999999,-0.34648,-0.683932,3.2375,-2.8525,-2.485
341,44589,0.633424,-0.346724,-0.684908,3.2375,-3.0275,-2.5725
342,44685,0.6344,-0.345748,-0.682712,3.08,-3.0975,-2.6425
343,44781,0.634644,-0.349652,-0.682712,2.94,-3.255,-2.695
344,44877,0.631228,-0.34867600000000004,-0.6822239999999999,2.765,-3.3075,-2.7125
345,44974,0.6326921,-0.34794400000000003,-0.682712,2.52,-3.4475,-2.9925
346,45070,0.6326921,-0.348188,-0.6834439999999999,2.3275,-3.43,-3.0625
347,45166,0.63318,-0.346968,-0.684664,2.2575,-3.5175,-3.15
348,45263,0.635864,-0.346968,-0.681736,2.2225,-3.675,-3.08
349,45359,0.633912,-0.347456,-0.6836880999999999,2.1175,-3.815,-3.115
350,45455,0.633668,-0.346236,-0.681492,2.1,-3.6225,-3.115
351,45552,0.633424,-0.346724,-0.681248,2.17,-3.745,-3.0975
352,45648,0.632448,-0.34648,-0.684908,2.1,-3.64,-3.08
353,45744,0.6326921,-0.346968,-0.686128,2.2225,-3.5,-3.045
354,45840,0.634644,-0.34404,-0.6836880999999999,2.66,-3.2375,-2.7825
355,45937,0.636352,-0.34281999999999996,-0.686372,3.1675,-2.8875,-2.5725
356,46033,0.636352,-0.343796,-0.684664,3.675,-2.59,-2.205
357,46129,0.634644,-0.338916,-0.6836880999999999,4.375,-2.1175,-1.7325
358,46226,0.633668,-0.34892,-0.6824680000000001,5.005,-1.89,-1.2075
359,46322,0.63318,-0.34648,-0.6832,5.1625,-1.7675,-0.945
360,46418,0.6348881,-0.34867600000000004,-0.679296,5.2675,-1.7675,-0.77
361,46515,0.633668,-0.35233600000000004,-0.6790520999999999,5.215,-1.96,-0.665
362,46611,0.6368401,-0.35258,-0.677832,5.04,-1.96,-0.7175
363,46707,0.634644,-0.35526399999999997,-0.676856,4.8475,-2.275,-0.8400001
364,46803,0.6348881,-0.355752,-0.678808,4.4975,-2.3975,-0.91
365,46900,0.635376,-0.35526399999999997,-0.6771,4.2525,-2.555,-1.0675
366,46996,0.635376,-0.354044,-0.677344,4.2875,-2.835,-1.1375
367,47092,0.63562,-0.35477600000000004,-0.678076,3.9375,-2.9575,-1.19
368,47189,0.636108,-0.354044,-0.67832,3.92,-3.115,-1.2075
369,47285,0.63562,-0.355996,-0.676856,3.7975,-3.185,-1.2075
370,47381,0.635376,-0.35672800000000005,-0.6771,3.6225,-3.22,-1.2775
371,47477,0.633668,-0.359656,-0.67466,3.5875,-3.4825,-1.3475
372,47574,0.6344,-0.36136399999999996,-0.676124,3.395,-3.5875,-1.4525
373,47670,0.636596,-0.359412,-0.6771,3.22,-3.78,-1.5575
374,47766,0.63318,-0.36209600000000003,-0.677832,3.0975,-3.9375,-1.6275
375,47863,0.6348881,-0.36087600000000003,-0.673196,2.9575,-3.99,-1.8725
376,47959,0.6344,-0.3599,-0.677588,2.8175,-4.06,-1.9775
377,48055,0.633424,-0.36112,-0.676124,2.765,-4.1475,-2.0825
378,48152,0.633424,-0.359656,-0.6785640000000001,2.625,-4.1125,-2.2225
379,48248,0.6314721,-0.36087600000000003,-0.676124,2.5025,-4.165,-2.345
380,48344,0.6314721,-0.360632,-0.676612,2.38,-4.235,-2.4675
381,48440,0.6329359999999999,-0.361608,-0.674416,2.3975,-4.27,-2.625
382,48537,0.631228,-0.36112,-0.676124,2.3275,-4.13,-2.6075
383,48633,0.6317159999999999,-0.36209600000000003,-0.677344,2.345,-4.06,-2.695
384,48729,0.6326921,-0.36087600000000003,-0.675148,2.17,-4.0075,-2.87
385,48825,0.632204,-0.359656,-0.67588,2.065,-4.2525,-2.9575
386,48922,0.6329359999999999,-0.359168,-0.675148,1.9425,-4.2525,-3.0625
387,49018,0.634156,-0.36136399999999996,-0.67588,1.8725,-4.165,-3.045
388,49114,0.6329359999999999,-0.36087600000000003,-0.677344,1.8025,-4.1475,-3.1325
389,49211,0.633424,-0.36282800000000004,-0.6790520999999999,1.785,-4.235,-3.22
390,49307,0.63562,-0.36209600000000003,-0.673928,1.6275,-4.2525,-3.22
391,49403,0.632204,-0.36136399999999996,-0.6736840000000001,1.645,-4.445,-3.29
392,49500,0.631228,-0.36478,-0.67588,1.575,-4.3925,-3.3425
393,49596,0.63318,-0.360632,-0.675148,1.505,-4.41,-3.465
394,49692,0.63318,-0.36087600000000003,-0.675148,1.4175,-4.41,-3.535
395,49788,0.6319600000000001,-0.359412,-0.67588,1.435,-4.305,-3.465
396,49885,0.633668,-0.357704,-0.6771,1.3825,-4.1475,-3.43
397,49981,0.6317159999999999,-0.36209600000000003,-0.6771,1.47,-4.2175,-3.465
398,50077,0.6348881,-0.35843600000000003,-0.677588,1.4175,-4.1125,-3.535
399,50173,0.630984,-0.36136399999999996,-0.6771,1.575,-4.025,-3.5175
400,50270,0.63318,-0.359412,-0.677588,1.575,-4.0075,-3.5175
401,50366,0.6319600000000001,-0.358192,-0.6756361,1.47,-3.92,-3.535
402,50462,0.632448,-0.359656,-0.6763680000000001,1.54,-3.9375,-3.5175
403,50559,0.6329359999999999,-0.357216,-0.6790520999999999,1.5225,-3.955,-3.64
404,50655,0.630984,-0.365268,-0.6785640000000001,1.6625,-3.8675,-3.4475
405,50751,0.630984,-0.36282800000000004,-0.6771,1.6275,-3.92,-3.4125
406,50848,0.632204,-0.360388,-0.676612,1.61,-3.955,-3.64
407,50944,0.630252,-0.36502399999999996,-0.676856,1.645,-3.99,-3.6225
408,51040,0.6292760000000001,-0.363804,-0.6763680000000001,1.4525,-4.06,-3.85
409,51136,0.6304960000000001,-0.361852,-0.677588,1.295,-3.9375,-3.8675
410,51233,0.631228,-0.36112,-0.676612,1.1725,-3.815,-3.955
411,51329,0.630008,-0.361852,-0.677588,1.26,-3.85,-4.13
412,51425,0.632448,-0.35892399999999997,-0.6771,1.295,-3.675,-4.165
413,51522,0.632448,-0.36282800000000004,-0.6790520999999999,1.4175,-3.5175,-4.165
414,51618,0.630008,-0.36502399999999996,-0.677344,1.33,-3.605,-4.27
415,51714,0.634156,-0.35868,-0.677588,1.1025,-3.5875,-4.375
416,51810,0.63318,-0.360388,-0.676124,1.2075,-3.325,-4.4625
417,51907,0.6329359999999999,-0.359656,-0.67832,1.155,-3.3775,-4.4625
418,52003,0.634156,-0.35746,-0.6771,1.1025,-3.4475,-4.4975
419,52099,0.6319600000000001,-0.359412,-0.677832,1.1025,-3.4475,-4.4625
420,52196,0.633912,-0.359168,-0.6763680000000001,1.05,-3.3425,-4.5325
421,52292,0.634156,-0.357704,-0.676856,1.12,-3.43,-4.375
422,52388,0.6344,-0.359412,-0.677588,1.225,-3.43,-4.3575
423,52484,0.634156,-0.355996,-0.676124,1.225,-3.4475,-4.445
424,52581,0.634644,-0.35892399999999997,-0.678076,1.0675,-3.5175,-4.445
425,52677,0.63562,-0.35746,-0.676856,1.0325,-3.4125,-4.4275
426,52773,0.6344,-0.355752,-0.676856,1.12,-3.4475,-4.515
427,52870,0.6348881,-0.357704,-0.676124,1.1025,-3.4825,-4.4975
428,52966,0.636108,-0.357704,-0.677344,1.05,-3.43,-4.3575
429,53062,0.633668,-0.357216,-0.676612,1.2075,-3.4825,-4.305
430,53159,0.636352,-0.359412,-0.67588,1.1725,-3.5525,-4.27
431,53255,0.6351319999999999,-0.35672800000000005,-0.6771,1.05,-3.535,-4.3225
432,53351,0.6348881,-0.357948,-0.6771,1.015,-3.605,-4.3225
433,53447,0.634156,-0.355508,-0.6763680000000001,0.9625,-3.535,-4.2175
434,53544,0.634644,-0.35624,-0.678808,0.9625,-3.64,-4.165
435,53640,0.63562,-0.355752,-0.6785640000000001,1.0675,-3.605,-4.0425
436,53736,0.63562,-0.35477600000000004,-0.677344,1.0675,-3.71,-4.025
437,53833,0.636108,-0.354532,-0.6785640000000001,1.05,-3.7975,-3.85
438,53929,0.633668,-0.353068,-0.677588,1.085,-3.8325,-3.7975
439,54025,0.63562,-0.35526399999999997,-0.6785640000000001,1.0675,-3.9025,-3.85
440,54121,0.6344,-0.35526399999999997,-0.677832,1.12,-3.9375,-3.8675
441,54218,0.637084,-0.357704,-0.677588,1.0325,-3.99,-3.885
442,54314,0.635864,-0.35477600000000004,-0.6795401,0.9975,-4.0075,-3.78
443,54410,0.635864,-0.355508,-0.6785640000000001,1.015,-3.955,-3.815
444,54507,0.6344,-0.354288,-0.6763680000000001,1.05,-4.0075,-3.85
445,54603,0.6351319999999999,-0.35697199999999996,-0.6802720999999999,1.015,-4.0425,-3.745
446,54699,0.6344,-0.356484,-0.6771,1.0325,-4.0775,-3.7625
447,54795,0.633912,-0.35477600000000004,-0.6763680000000001,0.945,-4.0775,-3.745
448,54892,0.633668,-0.35477600000000004,-0.6795401,0.8925,-4.0775,-3.85
449,54988,0.633912,-0.355752,-0.680516,0.9275,-4.025,-3.85
450,55084,0.6329359999999999,-0.35526399999999997,-0.68076,0.8925,-4.165,-3.8325
451,55181,0.633424,-0.353312,-0.677588,0.875,-4.165,-3.9025
452,55277,0.634644,-0.35282399999999997,-0.677832,0.91,-4.13,-3.8325
453,55373,0.635376,-0.3538,-0.680028,0.9275,-4.1125,-3.92
454,55469,0.635864,-0.353556,-0.679784,0.91,-4.095,-3.8325
455,55566,0.6344,-0.3538,-0.677588,0.945,-4.2175,-3.815
456,55662,0.634644,-0.353556,-0.679296,0.945,-4.2175,-3.8325
457,55758,0.6351319999999999,-0.353068,-0.6790520999999999,0.98,-4.2525,-3.7975
458,55855,0.6344,-0.354044,-0.679296,0.91,-4.2525,-3.745
459,55951,0.6351319999999999,-0.35477600000000004,-0.6790520999999999,0.8575,-4.235,-3.745
460,56047,0.6344,-0.354532,-0.6785640000000001,0.91,-4.2175,-3.7275
461,56143,0.6329359999999999,-0.353068,-0.679296,0.945,-4.27,-3.745
462,56240,0.6317159999999999,-0.35258,-0.678076,0.9625,-4.1825,-3.605
463,56336,0.633668,-0.353556,-0.6785640000000001,1.015,-4.2175,-3.57
464,56432,0.633424,-0.352092,-0.679296,0.98,-4.2525,-3.675
465,56529,0.635376,-0.353312,-0.6802720999999999,0.98,-4.2,-3.5875
466,56625,0.6326921,-0.35477600000000004,-0.6824680000000001,0.9625,-4.2525,-3.745
467,56721,0.633424,-0.35258,-0.679784,0.8925,-4.3225,-3.675
468,56817,0.6348881,-0.3538,-0.681248,0.8925,-4.3225,-3.7275
469,56914,0.635376,-0.354532,-0.679784,0.8925,-4.27,-3.7275
470,57010,0.6329359999999999,-0.354044,-0.680516,0.8225,-4.34,-3.815
471,57106,0.6329359999999999,-0.354288,-0.6790520999999999,0.7875,-4.34,-3.7275
472,57203,0.634156,-0.353068,-0.6810039999999999,0.735,-4.375,-3.78
473,57299,0.633424,-0.353312,-0.6795401,0.665,-4.3925,-3.78
474,57395,0.634156,-0.353556,-0.6795401,0.735,-4.4275,-3.8325
475,57492,0.6344,-0.35477600000000004,-0.6795401,0.6825,-4.375,-3.8325
476,57588,0.632448,-0.353068,-0.678808,0.5075,-4.48,-3.8325
477,57684,0.633424,-0.35477600000000004,-0.6790520999999999,0.5775,-4.4975,-3.8325
478,57780,0.632204,-0.352092,-0.6802720999999999,0.42,-4.445,-3.955
479,57877,0.633668,-0.349652,-0.678808,0.35,-4.375,-3.955
480,57973,0.6326921,-0.34648,-0.6836880999999999,0.49,-4.3575,-3.885
481,58069,0.631228,-0.34892,-0.6832,0.595,-4.2,-3.7975
482,58166,0.631228,-0.35014,-0.681736,0.6825,-4.2175,-3.7625
483,58262,0.6314721,-0.350628,-0.678076,0.665,-4.2,-3.78
484,58358,0.6314721,-0.35087199999999996,-0.681248,0.63,-4.1125,-3.885
485,58455,0.631228,-0.349408,-0.682712,0.7,-4.0775,-3.955
486,58551,0.632448,-0.34794400000000003,-0.6832,0.665,-3.955,-3.9725
487,58647,0.632448,-0.349408,-0.682712,0.6825,-4.025,-4.0075
488,58743,0.633668,-0.35038400000000003,-0.680028,0.6125,-4.06,-3.9725
489,58840,0.632448,-0.348188,-0.682712,0.665,-4.025,-4.06
490,58936,0.6307401,-0.346968,-0.681736,0.6475,-4.0075,-4.025
491,59032,0.631228,-0.35136,-0.679784,0.6825,-4.0775,-4.095
492,59129,0.6319600000000001,-0.35136,-0.6795401,0.5425,-4.13,-4.1475
493,59225,0.6329359999999999,-0.35087199999999996,-0.681492,0.455,-4.1125,-4.2875
494,59321,0.6319600000000001,-0.349896,-0.684176,0.4025,-4.1825,-4.2875
495,59418,0.630984,-0.349652,-0.681248,0.35,-4.165,-4.3225
496,59514,0.6317159999999999,-0.34794400000000003,-0.681736,0.2275,-4.2,-4.375
497,59610,0.633912,-0.349896,-0.679784,0.21,-4.2175,-4.375
498,59706,0.632448,-0.34892,-0.6836880999999999,0.14,-4.34,-4.48
499,59803,0.6351319999999999,-0.349896,-0.684176,0.175,-4.41,-4.4975
500,59899,0.6348881,-0.349652,-0.682956,0.245,-4.3925,-4.4275
501,59995,0.636596,-0.34648,-0.684908,0.4375,-4.375,-4.305
502,60092,0.6348881,-0.35233600000000004,-0.682956,1.0675,-4.3925,-4.0075
503,60188,0.63318,-0.35136,-0.681736,1.365,-4.5325,-4.0075
504,60284,0.6326921,-0.346724,-0.684176,1.33,-4.7075,-4.13
505,60380,0.6319600000000001,-0.346236,-0.684664,1.26,-4.83,-4.13
506,60477,0.630252,-0.34526,-0.682956,1.19,-4.83,-4.165
507,60573,0.633424,-0.343552,-0.684176,1.365,-4.7075,-4.095
508,60669,0.63318,-0.34428400000000003,-0.684176,1.47,-4.69,-3.9725
509,60765,0.634644,-0.343064,-0.686128,1.54,-4.4625,-3.99
510,60862,0.63318,-0.343796,-0.684664,1.5575,-4.3225,-4.0075
511,60958,0.6307401,-0.343796,-0.681248,1.3825,-4.4275,-3.99
512,61054,0.630252,-0.344528,-0.6832,1.12,-4.4975,-4.0775
513,61151,0.6307401,-0.343552,-0.6832,0.945,-4.3925,-4.2
514,61247,0.630252,-0.343064,-0.684908,0.595,-4.34,-4.34
515,61343,0.630984,-0.342088,-0.6836880999999999,0.28,-4.165,-4.4275
516,61439,0.6314721,-0.343552,-0.6834439999999999,0.175,-4.13,-4.7075
517,61536,0.626104,-0.344528,-0.6810039999999999,-0.105,-4.2525,-4.865
518,61632,0.624152,-0.362584,-0.674172,-0.49,-4.5675,-5.25
519,61728,0.6158561,-0.35843600000000003,-0.6763680000000001,-1.4525,-4.9875,-6.3875
520,61824,0.6107319999999999,-0.360388,-0.6795401,-2.555,-5.0225,-7.7525
521,61921,0.622688,-0.346968,-0.6856399999999999,-3.6575,-4.7775,-9.2575
522,62017,0.63318,-0.33623200000000003,-0.687592,-4.2525,-4.1475,-9.9575
523,62113,0.640256,-0.321348,-0.69906,-3.2375,-3.29,-9.2925
524,62210,0.641964,-0.307684,-0.7019880000000001,-1.05,-2.975,-7.665
525,62306,0.644648,-0.311832,-0.706624,1.295,-2.59,-5.6
526,62402,0.6405,-0.32086,-0.6946681,4.0075,-2.485,-3.64
527,62498,0.644892,-0.329888,-0.690032,5.5825,-2.3975,-2.31
528,62595,0.64172,-0.335988,-0.689056,7.385,-2.765,-1.3125
529,62691,0.636596,-0.34477199999999997,-0.6844201,7.56,-3.2375,-0.91
530,62787,0.642452,-0.349896,-0.685884,6.44,-3.43,-1.2075
531,62884,0.6456241,-0.344528,-0.6856399999999999,5.8275,-3.6925,-1.365
532,62980,0.635864,-0.341356,-0.684664,6.02,-3.9375,-1.12
533,63076,0.6373281,-0.328424,-0.6895439999999999,5.74,-4.585,-1.05
534,63172,0.6390359999999999,-0.326472,-0.6897880999999999,6.475,-5.425,-0.4725
535,63269,0.64294,-0.321104,-0.6954,7.3325,-5.7925,0.6125
536,63365,0.640744,-0.322812,-0.687348,10.01,-6.0375,2.7475
537,63461,0.636108,-0.305244,-0.696376,12.3725,-5.74,5.3025
538,63558,0.641964,-0.30548800000000004,-0.702964,15.3125,-4.7075,8.1725
539,63654,0.63318,-0.321348,-0.7015,19.0925,-3.5875,11.13
540,63750,0.621224,-0.3416,-0.69052,21.3325,-3.1325,12.46
541,63846,0.6351319999999999,-0.35282399999999997,-0.6878361,20.93,-2.5725,12.425
542,63943,0.635864,-0.372832,-0.677588,21.7525,-2.24,12.5125
543,64039,0.621468,-0.390644,-0.6653880999999999,22.3125,-2.2225,12.32
544,64135,0.625128,-0.389912,-0.6675840000000001,20.7725,-2.45,11.2175
545,64232,0.630252,-0.397964,-0.6675840000000001,19.32,-2.9225,10.01
546,64328,0.625616,-0.393572,-0.6646561,18.025,-3.185,9.38
547,64424,0.6224441,-0.396256,-0.6634359999999999,17.08,-3.675,8.47
548,64520,0.624152,-0.39479200000000003,-0.666608,15.9425,-3.6575,7.8225
549,64617,0.6178081,-0.393328,-0.662704,15.295,-3.9375,7.455
550,64713,0.618784,-0.39479200000000003,-0.667096,14.1925,-3.99,6.895
551,64809,0.62098,-0.398452,-0.6661201,13.3525,-3.85,6.6675
552,64906,0.619272,-0.39894,-0.6646561,12.8625,-3.64,6.5275
553,65002,0.629764,-0.39771999999999996,-0.6736840000000001,12.7925,-2.8525,6.6325
554,65098,0.624152,-0.40357600000000005,-0.671732,13.93,-2.1875,7.4375
555,65194,0.6168319999999999,-0.411628,-0.664412,14.875,-2.0825,7.77
556,65291,0.619516,-0.406992,-0.6722199999999999,14.7175,-2.03,7.4725
557,65387,0.6229319999999999,-0.407236,-0.669048,14.875,-1.4,7.77
558,65483,0.607316,-0.40821199999999996,-0.6646561,16.0475,-1.785,8.1375
559,65580,0.6141479999999999,-0.419436,-0.657092,15.435,-1.8375,7.14
560,65676,0.612196,-0.423584,-0.656848,13.8775,-2.1875,6.195
561,65772,0.61366,-0.42944,-0.648552,13.44,-2.5725,5.7575
562,65868,0.6082920999999999,-0.43432,-0.6453800000000001,12.6525,-3.3075,5.0225
563,65965,0.5978,-0.43066000000000004,-0.644404,10.955,-3.85,4.0775
564,66061,0.60146,-0.437004,-0.643184,9.555,-3.43,3.29
565,66157,0.605364,-0.438224,-0.648552,7.49,-3.78,1.8375
566,66254,0.609268,-0.42944,-0.650016,6.3525,-3.815,0.8225
567,66350,0.607804,-0.433832,-0.6480640000000001,5.985,-3.8675,0.3675
568,66446,0.6039,-0.43798000000000004,-0.6453800000000001,5.2675,-4.2175,-0.3325
569,66542,0.59536,-0.441884,-0.639768,3.71,-4.6025,-1.4875
570,66639,0.598288,-0.438712,-0.6414761,1.8725,-4.97,-2.94
571,66735,0.589504,-0.441396,-0.6375721,0.175,-5.3375,-4.515
572,66831,0.586576,-0.44090799999999997,-0.640012,-2.0475,-5.4775,-6.3875
573,66928,0.59902,-0.434076,-0.646844,-4.1475,-5.11,-8.33
574,67024,0.5978,-0.433832,-0.645868,-6.0025,-5.11,-9.9225
575,67120,0.6007279999999999,-0.43358800000000003,-0.646112,-7.5775,-5.495,-11.515
576,67216,0.604632,-0.42822,-0.648552,-9.8525,-4.8825,-12.7925
577,67313,0.6075600999999999,-0.423096,-0.652212,-11.4975,-4.48,-13.86
578,67409,0.605364,-0.419436,-0.653432,-12.81,-4.13,-14.6825
579,67505,0.61122,-0.4148,-0.659044,-13.755,-3.955,-15.365
580,67602,0.6141479999999999,-0.410896,-0.661728,-14.7,-3.6225,-15.9775
581,67698,0.6168319999999999,-0.410896,-0.662216,-15.155,-3.675,-16.275
582,67794,0.6161,-0.401624,-0.665876,-15.5575,-3.6575,-16.4675
583,67891,0.620004,-0.401136,-0.66978,-16.24,-3.29,-16.5725
584,67987,0.622688,-0.395036,-0.6724640000000001,-16.065,-2.905,-16.3625
585,68083,0.625616,-0.395036,-0.670024,-15.4175,-2.4675,-16.1
586,68179,0.624152,-0.389424,-0.671244,-15.26,-2.275,-15.925
587,68276,0.625616,-0.388448,-0.671732,-15.2775,-2.1875,-15.89
588,68372,0.621468,-0.388936,-0.668072,-15.0675,-2.1,-15.8725
589,68468,0.6197600000000001,-0.388448,-0.667828,-15.645,-1.54,-16.1175
590,68565,0.6229319999999999,-0.37990799999999997,-0.674416,-15.8725,-0.56,-16.275
591,68661,0.625372,-0.377712,-0.676124,-14.9275,0.525,-15.855
592,68757,0.630984,-0.3721,-0.6824680000000001,-14.14,1.82,-15.6625
593,68853,0.633912,-0.364292,-0.688812,-12.4425,2.6425,-15.2075
594,68950,0.63318,-0.37332,-0.68686,-10.745,3.85,-14.595
595,69046,0.638304,-0.365512,-0.6895439999999999,-9.31,5.425,-14.1225
596,69142,0.6329359999999999,-0.371612,-0.6883239999999999,-6.93,6.02,-13.6675
597,69239,0.637084,-0.364536,-0.690032,-6.23,7.385,-13.755
598,69335,0.6378159999999999,-0.36478,-0.6895439999999999,-5.04,8.4175,-14.0875
599,69431,0.6329359999999999,-0.36478,-0.6946681,-4.165,9.7825,-14.49
600,69527,0.6329359999999999,-0.36112,-0.6956439999999999,-3.2375,12.18,-15.085
601,69624,0.6029241,-0.3233,-0.7442,-1.9775,14.805,-16.03
602,69720,0.602436,-0.371612,-0.7427361,4.2175,17.955,-17.8325
603,69816,0.6124400999999999,-0.381372,-0.733952,8.19,24.115,-21.385
604,69913,0.601216,-0.370392,-0.748104,15.925,30.7825,-25.2875
605,70009,0.590724,-0.395036,-0.7473721,20.37,39.4275,-29.3475
606,70105,0.59658,-0.37990799999999997,-0.770308,16.66,53.8125,-33.1975
607,70201,0.590968,-0.386496,-0.773968,20.8775,66.395,-36.5575
608,70298,0.583648,-0.36941599999999997,-0.815692,22.68,82.2675,-40.18
609,70394,0.5838920999999999,-0.424804,-0.782752,28.875,98.4375,-43.47
610,70490,0.62098,-0.400892,-0.7820199999999999,33.7225,117.425,-50.9075
611,70587,0.624884,-0.337208,-0.755424,36.3125,136.815,-60.6375
612,70683,0.674416,-0.285236,-0.748592,37.3275,157.1325,-70.0525
613,70779,0.6512359999999999,-0.40577199999999997,-0.734928,46.7075,178.85,-80.99
614,70875,0.633424,-0.467016,-0.691496,50.295,204.19,-94.5
615,70972,0.790804,-0.298656,-0.662948,39.8475,226.0825,-105.735
616,71068,0.850096,-0.47458,-0.5892601,31.15,250.3025,-113.2425
617,71164,0.9779521000000001,-0.4819,-0.6219561,20.4575,270.06,-120.1725
618,71261,1.2585520000000001,-0.539484,-0.586576,15.7675,281.7325,-125.65
619,71357,1.339804,-0.586088,-0.6836880999999999,21.385,287.175,-133.07
620,71453,1.280024,-0.618052,-0.594384,29.68,271.0925,-141.085
621,71550,1.771928,-0.7754321,-0.742004,59.9375,251.16,-132.6325
622,71646,1.568188,-0.632204,-0.6822239999999999,99.575,239.295,-98.1925
623,71742,1.3115,-0.62464,-1.284416,123.655,230.0375,-112.5425
624,71838,0.8376520000000001,-0.7759199999999999,-1.647244,130.0775,171.3425,-142.695
625,71935,0.8398479999999999,-0.948184,-1.673352,120.6625,58.9225,-152.145
626,72031,0.27279200000000003,-1.1660760000000001,-1.176568,82.705,-67.865,-137.9
627,72127,-0.043432,-1.1265479999999999,-0.782752,47.8625,-103.985,-125.6325
628,72223,-0.035136,-1.1533879999999999,-0.661972,23.17,-103.32,-107.59
629,72320,0.08637601,-1.154364,-0.691008,6.1425,-95.2,-76.7025
630,72416,0.10931199999999999,-1.087752,-0.685396,-5.4425,-98.735,-40.81
631,72512,0.13298,-0.936716,-0.6832,-15.3125,-105.245,-11.2175
632,72609,0.189588,-0.787388,-0.70638,-20.58,-113.26,9.065
633,72705,0.278404,-0.678808,-0.7551800000000001,-20.405,-124.3725,22.3825
634,72801,0.37942,-0.602436,-0.806176,-15.2775,-139.44,31.99
635,72897,0.4514,-0.558516,-0.8100801,-5.0925,-159.1975,41.02
636,72994,0.496296,-0.542168,-0.7664041,7.105,-179.0075,49.6825
637,73090,0.52704,-0.5653481,-0.7076001000000001,17.7975,-195.1075,57.365
638,73186,0.596336,-0.6080479999999999,-0.660752,25.0775,-205.4325,65.2575
639,73283,0.6707561,-0.652212,-0.620492,28.9975,-210.455,75.25
640,73379,0.7315119999999999,-0.6824680000000001,-0.585356,30.9925,-211.54,88.795
641,73475,0.7734800000000001,-0.69418,-0.5587601,31.29,-208.0225,104.9125
642,73571,0.8230120999999999,-0.68686,-0.558028,29.575,-199.955,121.52
643,73668,0.898652,-0.676856,-0.577548,25.97,-189.4025,136.115
644,73764,0.989908,-0.659288,-0.619028,20.9475,-179.0075,147.35
645,73860,1.055544,-0.6380600000000001,-0.639768,18.13,-169.4175,157.0625
646,73957,1.090192,-0.617564,-0.658312,16.94,-160.5275,165.935
647,74053,1.096292,-0.610244,-0.6612401,14.2975,-153.37,169.96
648,74149,1.103124,-0.576328,-0.676856,7.7875,-144.7775,168.63
649,74245,1.148752,-0.540948,-0.734928,1.61,-134.9075,163.9925
650,74342,1.3205280000000001,-0.5124001,-0.902068,1.3825,-125.93,160.6675
651,74438,1.511336,-0.444812,-1.024068,14.7525,-125.1075,165.76
652,74534,1.486204,-0.472384,-1.023824,38.15,-137.4275,180.88
653,74631,1.543544,-0.47043199999999996,-0.9674601,57.4525,-147.875,193.8125
654,74727,1.5135319999999999,-0.434076,-0.8147161,65.1,-158.1125,198.9925
655,74823,1.4957200000000002,-0.459208,-0.667828,64.9425,-161.6475,196.665
656,74919,1.491572,-0.431148,-0.5292359999999999,57.7325,-160.0375,186.2175
657,75016,1.525,-0.335256,-0.353312,54.005,-154.0875,174.755
658,75112,1.42008,-0.17812,-0.013908000000000002,51.5375,-140.245,159.3375
659,75208,1.630896,-0.205936,0.08296,71.085,-121.94,147.21
660,75304,1.631384,-0.07564,0.320128,81.935,-111.3175,129.1325
661,75401,1.5967360000000002,0.061975999999999996,0.508252,91.5775,-92.83751,110.3725
662,75497,1.731424,0.028548,0.587064,89.88,-59.78,98.0875
663,75593,1.8702599999999998,-0.059536,0.659532,59.3425,-28.77,93.625
664,75690,1.8214599999999999,0.081496,0.72346,-2.4675,-5.3025,90.7725
665,75786,1.8400040000000002,0.399428,0.674172,-64.015,17.535,83.16001
666,75882,1.492304,0.692716,0.733708,-97.6325,34.23,64.645
667,75978,1.4715639999999999,0.791048,0.765184,-122.395,82.0925,23.6775
668,76075,0.471164,0.24424400000000002,0.17202,-113.9425,134.645,8.5575
669,76171,-0.42724399999999996,0.6161,-2.0291040000000002,-122.3775,170.0825,-0.91
670,76267,0.7117479999999999,0.79178,-1.41886,-58.8875,212.9225,-25.1825
671,76364,1.344684,1.208288,-1.349564,-53.2175,205.485,-90.8775
672,76460,1.4964520000000001,0.500444,-1.5999079999999999,-9.7475,164.6225,-134.3475
673,76556,1.280756,-0.586332,-0.8735200000000001,21.77,127.4875,-145.8625
674,76653,1.090192,-1.099708,-0.6954,17.535,117.7925,-136.0625
675,76749,1.0126,-0.8969440000000001,-0.755424,-5.985,121.1175,-118.02
676,76845,1.7150759999999998,-1.559892,-1.0943399999999999,-44.275,107.24,-116.1125
677,76941,0.9999121,-0.774456,-0.44847200000000004,-97.755,48.6675,-104.0725
678,77038,0.887916,-0.27523200000000003,-0.8679081,-106.12,34.405,-97.335
679,77134,0.9108521,-0.41358,-0.7754321,-92.8725,14.595,-83.9825
680,77230,0.8945040000000001,-0.34892,-0.80886,-78.4525,5.32,-75.2675
681,77327,0.796904,-0.25424800000000003,-0.8091041,-73.4825,3.43,-64.1375
682,77423,0.75274,-0.33061999999999997,-0.7754321,-56.49,2.1,-50.855
683,77519,0.734928,-0.327936,-0.759572,-45.64,0.9275,-41.8075
684,77615,0.715896,-0.31524800000000003,-0.755424,-37.3625,0.8400001,-33.985
685,77712,0.693448,-0.29646,-0.7422481,-27.5275,0.49,-26.075
686,77808,0.671488,-0.308172,-0.724436,-19.04,0.735,-18.2525
687,77904,0.658556,-0.3294,-0.7095520000000001,-12.5125,1.61,-12.005
688,78000,0.654896,-0.327448,-0.711016,-7.4025,2.24,-7.7875
689,78097,0.64782,-0.334036,-0.7076001000000001,-1.9775,2.7125,-4.13
690,78193,0.6292760000000001,-0.345504,-0.700036,2.8875,3.5,-0.945
691,78289,0.626836,-0.376736,-0.679296,5.6525,4.515,0.3675
692,78386,0.6351319999999999,-0.37088000000000004,-0.6856399999999999,6.7025,4.9175,0.0175
693,78482,0.640256,-0.37088000000000004,-0.680516,7.5425,5.005,-0.315
694,78578,0.636352,-0.368196,-0.6749041,7.6475,4.34,-0.7875
695,78674,0.6405,-0.355996,-0.6834439999999999,7.2625,3.325,-1.365
696,78771,0.635376,-0.35624,-0.682712,7.0525,2.8525,-0.805
697,78867,0.640256,-0.362584,-0.6749041,6.6675,2.1175,-0.665
698,78963,0.630252,-0.375272,-0.668072,5.705,1.4175,-0.945
699,79059,0.630252,-0.388204,-0.6634359999999999,4.55,0.7875,-2.2225
700,79156,0.631228,-0.388692,-0.661484,2.625,0.2625,-4.0425
701,79252,0.6292760000000001,-0.38552,-0.661484,0.945,-0.4375,-5.6525
702,79348,0.633668,-0.380396,-0.664412,-0.665,-0.665,-6.9825
703,79445,0.6329359999999999,-0.3721,-0.6695361,-2.065,-0.875,-8.12
704,79541,0.6375721,-0.36722,-0.6688041,-2.87,-0.7875,-8.9775
705,79637,0.636352,-0.359656,-0.670268,-3.43,-0.98,-9.5725
706,79733,0.636108,-0.351848,-0.679784,-3.9375,-1.1375,-9.6075
707,79830,0.6304960000000001,-0.35868,-0.6673399999999999,-3.7625,-0.6125,-9.7825
708,79926,0.6373281,-0.35258,-0.673928,-4.3925,-0.3675,-9.7475
709,80022,0.63562,-0.36234,-0.668072,-4.0075,-0.9275,-9.7825
710,80118,0.639524,-0.361852,-0.667828,-5.3375,-0.2625,-10.4125
711,80215,0.643184,-0.357948,-0.6736840000000001,-5.8975,0.0875,-10.885
712,80311,0.6409881,-0.35868,-0.67466,-5.4775,0.525,-11.06
713,80407,0.6378159999999999,-0.354044,-0.6756361,-5.145,1.225,-11.34
714,80504,0.641964,-0.354044,-0.6802720999999999,-4.7775,2.275,-11.7075
715,80600,0.644404,-0.34526,-0.681492,-4.3225,3.43,-12.1625
716,80696,0.6466,-0.337452,-0.6834439999999999,-3.8325,4.9,-12.2325
717,80792,0.6414761,-0.338428,-0.678808,-2.94,6.72,-11.935
718,80889,0.646112,-0.327204,-0.6917399999999999,-1.5225,8.12,-11.83
719,80985,0.643428,-0.323056,-0.701256,-0.07,10.22,-11.7425
720,81081,0.628788,-0.34428400000000003,-0.7027201,3.395,12.8275,-11.6375
721,81178,0.6351319999999999,-0.340624,-0.7041841,6.5625,15.68,-13.335
722,81274,0.640744,-0.34648,-0.7078439999999999,9.765,19.4425,-15.015
723,81370,0.630008,-0.348188,-0.709796,14.175,23.03,-17.1325
724,81466,0.6229319999999999,-0.378688,-0.70638,17.535,27.405,-19.705
725,81563,0.644404,-0.357704,-0.708332,14.595,35.8575,-23.03
726,81659,0.63318,-0.327692,-0.7217521,14.8225,44.2575,-25.0425
727,81755,0.664168,-0.332328,-0.711504,16.415,51.24,-26.8625
728,81852,0.659044,-0.33379200000000003,-0.706624,19.705,58.275,-27.475
729,81948,0.682712,-0.337208,-0.6946681,21.63,65.50251,-28.4375
730,82044,0.6895439999999999,-0.341356,-0.68198,24.36,74.11251,-29.785
731,82141,0.640744,-0.314272,-0.7217521,26.7225,85.33,-31.885
732,82237,0.706136,-0.35746,-0.692472,28.7175,96.1975,-34.6325
733,82333,0.600484,-0.384056,-0.712236,29.8025,113.6625,-38.8675
734,82429,0.6653880999999999,-0.396744,-0.727364,29.1725,132.7375,-47.53
735,82526,0.6588,-0.38308000000000003,-0.7266321,30.31,157.4475,-57.8375
736,82622,0.6373281,-0.396988,-0.733708,32.48,184.485,-68.25
737,82718,0.740296,-0.362584,-0.7183361,35.1225,214.13,-80.97251
738,82815,0.8276481,-0.401624,-0.6724640000000001,48.23,251.79,-98.14
739,82911,0.5070319999999999,-0.45725600000000005,-0.7105279999999999,63.14,298.9525,-118.16
740,83007,1.01504,-0.581696,-0.604632,64.5225,329.7525,-135.9925
741,83103,1.151192,-0.34428400000000003,-0.827892,64.015,366.4325,-147.8925
742,83200,1.500356,-0.486048,-0.716384,88.55,387.9925,-138.39
743,83296,1.353956,-0.574864,-0.652456,97.9825,383.6175,-135.1525
744,83392,1.549644,-0.57462,-0.6021920000000001,93.45,369.1975,-143.5525
745,83488,2.024468,-0.8827921000000001,-0.691496,106.785,362.6,-123.515
746,83585,1.8463479999999999,-0.586088,-0.8296,155.9075,373.31,-64.925
747,83681,1.9007599999999998,-0.652944,-1.1507040000000002,200.3925,349.16,-69.3175
748,83777,1.497672,-1.057984,-1.9644439999999999,237.895,286.3175,-94.09751
749,83874,1.408124,-1.1453360000000001,-2.793068,229.425,114.275,-123.8125
750,83970,0.737124,-1.313452,-1.992016,164.675,-126.595,-109.3925
751,84066,0.10687200000000001,-1.106296,-1.269288,121.2925,-246.645,-107.6425
752,84162,-0.128344,-1.116056,-0.788608,90.475,-278.285,-117.2675
753,84259,-0.007564001,-1.2251239999999999,-0.589992,66.7625,-266.455,-109.4275
754,84355,0.1708,-1.315648,-0.526308,40.3725,-254.4325,-81.11251
755,84451,0.265472,-1.3466360000000002,-0.494832,14.7,-251.09,-38.7975
756,84548,0.350628,-1.255868,-0.5084960000000001,-13.5625,-249.2525,6.2475
757,84644,0.37990799999999997,-1.063108,-0.5185,-38.4475,-249.4275,47.04
758,84740,0.39479200000000003,-0.8244761,-0.529724,-50.54,-250.915,79.4325
759,84837,0.444568,-0.583648,-0.563884,-48.0375,-251.44,101.92
760,84933,0.523624,-0.41675200000000007,-0.6097560000000001,-28.7875,-251.8425,117.495
761,85029,0.635864,-0.340624,-0.6422081000000001,0.735,-253.47,128.135
762,85125,0.752008,-0.340868,-0.659776,28.735,-256.2175,133.035
763,85222,0.8805960999999999,-0.38674000000000003,-0.662704,48.9825,-259.7875,134.155
764,85318,0.99308,-0.423096,-0.648796,60.4975,-263.3225,135.485
765,85414,1.05774,-0.434808,-0.6231760999999999,66.57,-264.8275,139.9125
766,85510,1.117764,-0.425292,-0.581696,69.405,-260.4525,145.495
767,85607,1.13216,-0.41723999999999994,-0.500688,69.545,-250.915,149.065
768,85703,1.1241079999999999,-0.45603599999999994,-0.452376,66.9725,-234.6225,148.9775
769,85799,1.180472,-0.538752,-0.489708,66.2375,-210.7175,149.3625
770,85896,1.244888,-0.639524,-0.5307,66.8675,-183.925,157.3425
771,85992,1.308816,-0.7564001,-0.5799880000000001,64.7325,-158.6725,171.43
772,86088,1.548668,-0.8254520000000001,-0.734196,61.18,-133.8575,189.1225
773,86184,1.844884,-0.8969440000000001,-0.803492,55.1075,-125.0375,214.515
774,86281,1.887584,-0.839116,-0.725412,45.395,-129.605,240.5025
775,86377,1.7141,-0.620492,-0.599264,28.9275,-139.1075,254.3275
776,86473,1.737524,-0.419192,-0.538508,12.7225,-138.4075,257.985
777,86570,1.8651360000000001,0.045384,-0.531188,-1.6275,-129.43,253.1025
778,86666,1.974692,0.274012,-0.42822,-5.215,-126.63,238.735
779,86762,2.097668,0.42285200000000006,-0.274256,-10.4825,-130.8825,205.52
780,86858,2.129632,0.5565640000000001,-0.010736,-17.955,-140.84,162.855
781,86955,2.157448,0.69052,0.30866,-13.755,-145.11,123.2525
782,87051,2.013976,0.7937320999999999,0.6231760999999999,4.06,-143.0275,85.69751
783,87147,1.928332,0.8261841000000001,0.7856801,24.815,-126.1575,48.3175
784,87244,1.9041759999999999,0.7044279999999999,0.795928,38.2025,-100.5025,14.9975
785,87340,1.913936,0.6453800000000001,0.7856801,33.6175,-73.2725,-8.3125
786,87436,1.4896200000000002,0.5826720000000001,1.140212,-3.2725,-29.925,-34.93
787,87532,1.5950280000000001,0.687592,1.160464,-37.415,52.1325,-54.11
788,87629,-0.046848,0.8261841000000001,0.8274040000000001,-58.9575,128.7825,-67.7775
789,87725,0.729072,-0.24131599999999997,-2.4024240000000003,2.2575,215.74,-78.0675
790,87821,1.413736,0.37698000000000004,-1.441552,2.485,209.37,-124.775
791,87917,1.353956,0.0,-0.6505041,-20.265,151.0775,-179.41
792,88014,1.684332,-0.9396440999999999,-0.9450120000000001,10.465,154.2975,-161.07
793,88110,1.292956,-0.9825879999999999,-0.9738041,-17.57,143.5875,-135.3625
794,88206,2.1059639999999997,-1.645048,-0.9818561,-51.8525,115.01,-126.28
795,88303,1.138992,-0.4404201,-0.8081281,-139.2475,43.4875,-109.0775
796,88399,0.8544879999999999,-0.066124,-0.9762440999999998,-119.42,26.9325,-107.555
797,88495,1.06628,-0.389424,-0.8383841000000001,-92.7325,15.4525,-83.66751
798,88591,0.922076,-0.25522399999999995,-0.83936,-75.565,6.405,-65.7825
799,88688,0.849608,-0.219844,-0.8576601,-60.1825,6.545,-48.51
800,88784,0.757864,-0.27328,-0.786656,-37.73,5.985,-31.6925
801,88880,0.705404,-0.33428,-0.740296,-22.3475,5.145,-20.02
802,88976,0.658556,-0.351116,-0.7227279999999999,-14.0,5.145,-13.3175
803,89073,0.638304,-0.363804,-0.712236,-7.6825,4.375,-9.8
804,89169,0.634156,-0.34257600000000005,-0.71248,-3.7975,4.515,-7.7875
805,89265,0.643428,-0.358192,-0.69296,0.6125,4.1475,-5.7225
806,89362,0.6480640000000001,-0.359412,-0.6856399999999999,4.3925,3.675,-4.165
807,89458,0.642452,-0.35843600000000003,-0.6824680000000001,6.16,4.5325,-1.995
808,89554,0.6283,-0.374784,-0.681492,8.5925,4.655,-0.7175
809,89650,0.6317159999999999,-0.369172,-0.689056,9.87,4.6375,-0.5425
810,89747,0.631228,-0.398208,-0.666852,11.1475,4.8825,-0.5775
811,89843,0.6258600000000001,-0.4331,-0.643184,10.255,4.2175,-2.03
812,89939,0.618784,-0.433832,-0.644648,7.0875,2.6425,-4.9
813,90036,0.624396,-0.400648,-0.6563601,2.5375,1.645,-7.6475
814,90132,0.6348881,-0.375272,-0.673196,-0.035,1.89,-9.0475
815,90228,0.63318,-0.363804,-0.680516,-0.49,2.6425,-8.925
816,90324,0.633668,-0.372344,-0.6771,-0.2275,3.885,-8.8375
817,90421,0.638304,-0.382592,-0.662948,0.1925,4.8825,-8.9775
818,90517,0.636108,-0.393084,-0.650748,-0.7175,4.6375,-9.94
819,90613,0.63318,-0.40504,-0.6441600000000001,-2.45,4.165,-11.655
820,90710,0.630008,-0.405528,-0.64294,-5.355,3.6225,-14.175
821,90806,0.636596,-0.40138,-0.645868,-9.1,3.6225,-16.9225
822,90902,0.643672,-0.374296,-0.6480640000000001,-12.215,3.185,-19.2325
823,90998,0.6441600000000001,-0.364048,-0.674172,-13.93,2.5025,-20.44
824,91095,0.669048,-0.359656,-0.6729520999999999,-12.8275,2.9575,-20.5975
825,91191,0.658556,-0.346724,-0.67588,-12.6875,2.52,-20.055
826,91287,0.657092,-0.343064,-0.68198,-11.2525,2.485,-19.25
827,91384,0.657092,-0.343064,-0.678076,-8.8375,3.3425,-18.725
828,91480,0.6573359999999999,-0.33794,-0.6734399999999999,-7.21,4.06,-18.655
829,91576,0.6563601,-0.332572,-0.680028,-5.46,4.7075,-18.8125
830,91672,0.6453800000000001,-0.329644,-0.6885680999999999,-3.7275,5.88,-18.7075
831,91769,0.6453800000000001,-0.336476,-0.686128,-1.05,6.93,-19.2325
832,91865,0.654652,-0.32403200000000004,-0.693204,0.385,8.855,-20.405
833,91961,0.6414761,-0.338428,-0.692472,3.2375,11.2875,-20.965
834,92058,0.650748,-0.332816,-0.700036,5.0575,15.225,-22.2075
835,92154,0.635864,-0.34892,-0.7129681,6.8425,20.405,-23.1
836,92250,0.6422081000000001,-0.326716,-0.7241920000000001,4.165,27.4225,-24.9025
837,92346,0.645868,-0.323544,-0.720532,4.095,35.56,-26.32
838,92443,0.666608,-0.326472,-0.711992,6.965,43.47,-27.755
839,92539,0.6673399999999999,-0.325008,-0.709796,9.9925,52.605,-29.2075
840,92635,0.6722199999999999,-0.330864,-0.697596,12.46,61.9675,-30.8175
841,92732,0.6709999999999999,-0.321104,-0.708332,14.49,70.84000999999999,-32.41
842,92828,0.662948,-0.325008,-0.714432,17.955,80.605,-34.4925
843,92924,0.671976,-0.311344,-0.708088,20.4225,90.825,-37.17
844,93020,0.691496,-0.318176,-0.6893,22.12,103.215,-39.9
845,93117,0.6109760000000001,-0.3172,-0.737124,23.2575,120.5575,-44.2925
846,93213,0.674416,-0.355996,-0.741272,24.7275,137.41,-50.05
847,93309,0.59292,-0.40381999999999996,-0.786412,26.32,163.135,-58.695
848,93406,0.6600201,-0.437004,-0.7539600000000001,29.855,191.45,-73.09751
849,93502,0.647576,-0.390888,-0.746152,35.665,225.89,-93.0475
850,93598,0.56608,-0.37454,-0.7500560000000001,50.995,262.5,-116.9525
851,93694,0.773968,-0.512888,-0.735172,69.79,302.1375,-140.175
852,93791,1.24806,-0.48848800000000003,-0.6224441,78.27750999999999,354.8825,-162.47
853,93887,1.123132,-0.491904,-0.916464,89.285,414.8725,-169.8375
854,93983,1.7282520000000001,-0.54656,-0.8620521000000001,113.5575,425.81,-158.165
855,94080,1.601128,-0.5917,-0.73078,111.16,403.4625,-161.35
856,94176,2.2006360000000003,-1.107272,-0.638304,115.395,382.3575,-147.21
857,94272,1.896368,-0.69296,-0.877668,151.025,392.42,-93.5375
858,94368,1.9825,-0.809836,-1.242692,173.81,363.7375,-110.46
859,94465,1.3085719999999998,-1.431548,-2.2235720000000003,206.115,298.41,-136.395
860,94561,1.186816,-2.040816,-2.544188,179.4625,117.4075,-146.93
861,94657,0.548268,-1.82024,-1.9886,59.15,-110.565,-93.2575
862,94753,-0.09589201,-1.4064159999999999,-1.22366,-8.5575,-223.3525,-70.245
863,94850,-0.303292,-1.162416,-0.800076,-45.1675,-241.2375,-65.8175
864,94946,-0.11224,-1.059204,-0.663192,-58.7825,-225.9075,-50.96
865,95042,0.07564,-1.016748,-0.5914560000000001,-61.1275,-214.935,-26.215
866,95139,0.145424,-0.990884,-0.543144,-60.27,-216.195,1.785
867,95235,0.243024,-0.9415959999999999,-0.512888,-62.8425,-219.52,24.08
868,95331,0.39113200000000004,-0.8852321,-0.5368,-65.50251,-223.895,41.825
869,95427,0.5887720000000001,-0.8244761,-0.57828,-63.665,-231.35,59.92
870,95524,0.6980841,-0.7673800000000001,-0.580964,-53.62,-245.175,81.165
871,95620,0.712236,-0.7034521,-0.5321640000000001,-39.0075,-260.9775,102.41
872,95716,0.7315119999999999,-0.658312,-0.49141599999999996,-22.68,-271.3375,119.315
873,95813,0.806908,-0.6380600000000001,-0.4697,-7.4375,-273.7875,132.16
874,95909,0.9032879999999999,-0.6441600000000001,-0.47092,6.7025,-272.055,144.445
875,96005,1.007232,-0.6527,-0.48385200000000006,17.745,-267.54,157.1325
876,96101,1.1224,-0.6763680000000001,-0.467992,24.92,-261.9925,169.2075
877,96198,1.204628,-0.698328,-0.42163199999999995,25.41,-257.11,178.29
878,96294,1.2043840000000001,-0.648552,-0.384056,19.3725,-249.1475,183.435
879,96390,1.21268,-0.656848,-0.371612,21.245,-233.24,185.885
880,96487,1.299056,-0.6832,-0.44334799999999996,25.83,-207.6725,189.0875
881,96583,1.362252,-0.7217521,-0.5009319999999999,35.9975,-183.3125,196.6825
882,96679,1.393972,-0.777628,-0.5453399999999999,41.79,-163.345,205.4675
883,96775,1.5584280000000001,-0.8020281,-0.6834439999999999,41.02,-143.5175,213.7275
884,96872,1.838052,-0.8247200000000001,-0.7883640000000001,38.1675,-132.2475,229.355
885,96968,1.9656639999999999,-0.665144,-0.8335040000000001,33.005,-133.9975,252.6475
886,97064,2.037156,-0.4392,-0.8625401,21.5425,-137.025,271.5475
887,97161,2.004216,-0.28181999999999996,-0.767868,0.1925,-148.995,268.3275
888,97257,1.998848,-0.09784401,-0.6451359999999999,-31.9375,-162.995,239.5225
889,97353,1.849764,0.14884,-0.30182800000000004,-57.5925,-167.37,198.45
890,97449,2.121092,0.09711201,-0.098576,-45.045,-164.115,166.985
891,97546,2.054236,0.3111,0.24082800000000001,-18.5675,-164.675,141.085
892,97642,1.8302439999999998,0.5070319999999999,0.534604,18.1825,-166.25,106.5225
893,97738,1.746552,0.646112,0.620492,56.6125,-142.905,73.16751
894,97835,1.754116,0.527528,0.695156,87.325,-110.0925,46.6725
895,97931,1.8995400000000002,0.36478,0.6600201,85.62751,-75.5825,27.265
896,98027,1.831464,0.32574000000000003,0.601704,45.5525,-52.185,13.755
897,98123,1.6592,0.5453399999999999,0.567788,-6.615,-29.1025,-2.3275
898,98220,1.496208,0.7822640000000001,0.8117880000000001,-53.1825,10.57,-34.5275
899,98316,1.462536,0.7856801,0.887184,-62.055,70.91001,-60.3925
900,98412,0.1952,0.633668,0.393328,-49.5075,128.9925,-82.425
901,98509,0.6946681,-0.189588,-2.099132,-12.3725,198.9225,-86.9225
902,98605,1.001376,0.12078,-1.152412,-2.765,192.71,-115.5875
903,98701,0.979416,-0.095648,-0.55998,-22.82,168.21,-159.845
904,98797,1.25904,-0.7427361,-0.730292,5.425,184.73,-145.6875
905,98894,1.2012120000000002,-0.6319600000000001,-0.863028,-11.4275,186.41,-121.6075
906,98990,2.129876,-1.786568,-2.020564,-33.18,177.4325,-111.1775
907,99086,1.9093,-0.7005239999999999,-0.5948720000000001,-98.2275,86.45,-91.9625
908,99183,0.9459880999999999,-0.11248399999999999,-1.071404,-153.6325,30.975,-119.035
909,99279,1.031388,-0.3172,-0.904752,-106.05,11.48,-105.4725
910,99375,0.8847440999999999,-0.28938400000000003,-0.8256960999999999,-90.72001,4.235,-86.8175
911,99471,0.8913321,-0.268644,-0.806908,-74.27,1.9075,-68.6875
912,99568,0.809836,-0.271328,-0.7903161,-55.825,0.42,-51.9225
913,99664,0.728096,-0.308172,-0.745908,-40.1975,-2.1,-38.4125
914,99760,0.692716,-0.340136,-0.7168720000000001,-29.33,-2.9225,-28.805
915,99857,0.6771,-0.33623200000000003,-0.716384,-21.8925,-3.1675,-22.82
916,99953,0.661728,-0.311344,-0.724924,-16.2225,-3.4475,-18.2875
917,100049,0.6558721,-0.30256,-0.720288,-11.165,-2.24,-13.7025
918,100145,0.6527,-0.30792800000000004,-0.711016,-6.0725,-1.155,-9.3275
919,100242,0.650992,-0.31402800000000003,-0.702476,-2.135,-0.4725,-5.8625
920,100338,0.6480640000000001,-0.304512,-0.706136,0.315,0.28,-3.0975
921,100434,0.6304960000000001,-0.328424,-0.6902761,3.0625,0.7875,-0.56
922,100531,0.619272,-0.32818,-0.6944241,4.4275,1.47,0.875
923,100627,0.619028,-0.34867600000000004,-0.6893,6.2125,2.415,1.9075
924,100723,0.616588,-0.370392,-0.6749041,7.0875,3.22,2.065
925,100820,0.6219561,-0.395768,-0.662216,6.615,3.2025,0.7
926,100916,0.627568,-0.39918400000000004,-0.657824,4.095,2.7125,-2.065
927,101012,0.6378159999999999,-0.38552,-0.6588,0.9275,2.1,-4.7775
928,101108,0.636352,-0.35843600000000003,-0.679784,-1.6975,1.3125,-6.545
929,101205,0.6409881,-0.335744,-0.6919841,-2.2925,1.085,-6.8425
930,101301,0.635376,-0.337208,-0.689056,-1.8025,1.225,-6.3175
931,101397,0.6317159999999999,-0.345016,-0.686372,-1.225,1.3125,-5.95
932,101494,0.6375721,-0.355508,-0.6790520999999999,-1.1725,1.0675,-6.405
933,101590,0.634156,-0.3721,-0.6729520999999999,-2.485,0.525,-7.7175
934,101686,0.638792,-0.375272,-0.661728,-3.5175,0.07,-9.59
935,101782,0.6283,-0.345504,-0.6893,-4.7075,-0.2625,-10.955
936,101879,0.6527,-0.35160399999999997,-0.66978,-3.7975,0.0525,-11.5325
937,101975,0.6307401,-0.321348,-0.691008,-5.74,-0.665,-12.0225
938,102071,0.646112,-0.326472,-0.69418,-4.9875,0.175,-12.2325
939,102168,0.6390359999999999,-0.328424,-0.6902761,-3.9025,1.05,-12.005
940,102264,0.644404,-0.330376,-0.687592,-3.5525,1.54,-12.635
941,102360,0.638792,-0.341356,-0.6897880999999999,-2.8175,2.17,-13.0025
942,102457,0.636352,-0.346968,-0.686372,-2.3625,2.9925,-14.07
943,102553,0.636108,-0.347456,-0.690764,-2.0825,4.27,-15.68
944,102649,0.6351319999999999,-0.342332,-0.692716,-1.54,5.705,-17.43
945,102745,0.634644,-0.33794,-0.6939361,-0.1225,7.7875,-19.4775
946,102842,0.6265921,-0.312564,-0.7241920000000001,1.68,10.2025,-21.63
947,102938,0.6273241,-0.308904,-0.731024,4.3925,14.315,-23.03
948,103034,0.640256,-0.297192,-0.72712,7.4725,19.4425,-24.115
949,103131,0.628788,-0.32086,-0.735172,8.505,26.46,-24.6225
950,103227,0.6451359999999999,-0.30866,-0.738344,4.97,36.5925,-25.5325
951,103323,0.646844,-0.304268,-0.738344,6.685,46.06,-26.3725
952,103419,0.652944,-0.31598000000000004,-0.716384,9.1,55.195,-27.545
953,103516,0.658068,-0.312076,-0.72712,12.8625,65.1875,-28.77
954,103612,0.658068,-0.318664,-0.71492,15.1725,73.7625,-30.38
955,103708,0.665876,-0.310368,-0.7200439999999999,16.6425,81.83001,-32.445
956,103805,0.652456,-0.31890799999999997,-0.718824,18.2175,90.9825,-35.035
957,103901,0.6588,-0.334768,-0.7195560000000001,18.3925,101.71,-38.2375
958,103997,0.685396,-0.34038,-0.7232161,17.9725,115.01,-42.63
959,104093,0.671488,-0.33428,-0.7183361,18.095,130.6025,-47.8625
960,104190,0.6675840000000001,-0.36648800000000004,-0.7224841,18.6725,149.0825,-54.1975
961,104286,0.633912,-0.409188,-0.72102,19.9675,170.415,-63.9975
962,104382,0.6588,-0.407968,-0.715164,21.0525,196.7175,-78.41751
963,104479,0.702964,-0.335988,-0.733708,26.11,230.0725,-97.3525
964,104575,0.628544,-0.320128,-0.712236,37.45,262.01,-115.5175
965,104671,0.798124,-0.435296,-0.6317159999999999,55.8775,292.39,-133.9625
966,104767,1.167052,-0.484096,-0.6588,75.0575,341.705,-152.7575
967,104864,1.23586,-0.242536,-0.999668,97.7375,398.65,-160.335
968,104960,1.760704,-0.49580799999999997,-0.8949921000000001,131.7925,419.9475,-142.0825
969,105056,1.503528,-0.624884,-0.7869,124.8625,410.935,-147.455
970,105153,2.211128,-1.145824,-0.489708,99.295,384.0025,-160.8425
971,105249,2.000556,-0.873276,-0.8554641,107.9225,393.9775,-123.585
972,105345,2.120848,-0.659532,-1.062864,134.855,391.23,-118.755
973,105441,1.7565560000000002,-0.9618481,-1.8758720000000002,185.99,360.43,-137.3925
974,105538,1.291736,-1.767536,-2.764764,216.5975,225.365,-158.2175
975,105634,1.213168,-1.963956,-2.495144,152.8275,-31.115,-116.935
976,105730,0.365512,-1.637728,-1.571604,72.555,-204.085,-71.19
977,105827,-0.139812,-1.28954,-0.925736,13.7375,-269.7625,-69.52750999999999
978,105923,-0.24522,-1.057008,-0.5941401,-17.0275,-271.04,-70.07
979,106019,-0.075396,-1.0086959999999998,-0.48653599999999997,-23.6775,-250.6525,-53.34
980,106115,0.060512,-1.02114,-0.439688,-25.165,-234.92,-24.8675
981,106212,0.15372,-1.033584,-0.42016800000000004,-26.775,-227.0975,8.12
982,106308,0.256932,-0.9982040000000001,-0.438712,-34.3875,-223.16,39.48
983,106404,0.406016,-0.9067040000000001,-0.492392,-43.19,-222.915,68.32
984,106501,0.55266,-0.77836,-0.5514399999999999,-44.625,-229.0575,95.97
985,106597,0.621224,-0.652212,-0.574132,-38.3075,-240.9925,121.415
986,106693,0.656116,-0.5443640000000001,-0.586576,-23.24,-255.255,141.4175
987,106789,0.7317560000000001,-0.489464,-0.571204,-2.66,-266.105,155.9775
988,106886,0.8222799999999999,-0.4758,-0.541924,15.995,-272.93,165.9875
989,106982,0.9237841,-0.488,-0.5170359999999999,30.765,-274.96,173.5825
990,107078,1.053104,-0.504592,-0.5185,40.39,-271.74,180.53
991,107175,1.1895,-0.5221600000000001,-0.530212,45.2375,-266.7525,186.9875
992,107271,1.288076,-0.518012,-0.5231359999999999,45.7975,-261.765,191.275
993,107367,1.314916,-0.49141599999999996,-0.47067600000000004,45.5,-254.2225,193.13
994,107463,1.297104,-0.504592,-0.393572,46.4975,-240.45,191.8
995,107560,1.295152,-0.550708,-0.406504,48.055,-217.28,187.46
996,107656,1.4274,-0.59658,-0.5131319999999999,54.2325,-185.8325,187.2325
997,107752,1.460828,-0.658556,-0.5363121,61.7225,-159.915,194.7925
998,107849,1.4896200000000002,-0.6954,-0.5736441,61.075,-138.8625,200.0775
999,107945,1.6811599999999998,-0.6946681,-0.67832,54.7575,-117.25,204.505
1000,108041,1.87148,-0.7195560000000001,-0.8095920999999999,48.86,-108.9725,217.175
1001,108137,2.228696,-0.7288279999999999,-0.9091440000000001,44.485,-110.18,238.49
1002,108234,2.169404,-0.396012,-0.81252,22.925,-128.9575,250.32
1003,108330,1.9959200000000001,-0.032451999999999995,-0.654896,-1.645,-155.61,237.405
1004,108426,1.957368,0.265228,-0.46603999999999995,-16.8525,-167.7025,205.9925
1005,108522,2.048136,0.387228,-0.20447200000000001,-14.6125,-172.1825,172.0775
1006,108619,2.1130400000000003,0.44652,0.174704,-4.725,-175.3675,141.1025
1007,108715,2.0295919999999996,0.5575399999999999,0.5826720000000001,-0.7175,-171.0275,111.4575
1008,108811,1.9593200000000002,0.66978,0.840824,3.885,-150.7275,85.295
1009,108908,1.92028,0.684908,0.944768,7.105,-116.935,63.735
1010,109004,1.7333759999999998,0.784216,0.9967401,-4.06,-76.16001,43.435
1011,109100,1.7219080000000002,0.9067040000000001,1.2317120000000001,-30.065,-17.1325,8.3825
1012,109196,1.8317080000000001,1.1594879999999999,1.141432,-45.9375,56.6475,-25.1825
1013,109293,0.9301280000000001,1.526952,1.884412,-34.685,120.2775,-55.37
1014,109389,0.771772,0.5543680000000001,-2.158668,-2.695,213.29,-92.225
1015,109485,1.533296,-0.175924,-2.125972,51.52,230.265,-131.915
1016,109582,1.242936,-0.11614400000000001,-0.315736,-0.8925,153.685,-194.4075
1017,109678,1.614792,-1.188524,-0.768356,23.0475,155.4525,-188.4225
1018,109774,1.470588,-1.243424,-0.9557479999999999,-12.6175,164.1675,-142.1175
1019,109870,2.109868,-1.885388,-0.7056479999999999,-58.4325,129.535,-127.2425
1020,109967,1.371524,-0.196176,-1.131916,-169.435,60.0425,-117.285
1021,110063,0.8203280000000001,0.083936,-1.075308,-131.4775,36.6625,-113.8375
1022,110159,1.0645719999999999,-0.417972,-0.8481440999999998,-97.16001,23.94,-90.65001
1023,110256,0.891576,-0.269376,-0.826916,-82.0575,9.345,-73.9375
1024,110352,0.863028,-0.254736,-0.796904,-68.9675,7.8575,-59.7275
1025,110448,0.7671359999999999,-0.26766799999999996,-0.7922680000000001,-48.825,5.775,-42.49
1026,110544,0.7027201,-0.36209600000000003,-0.718824,-34.72,3.4475,-30.66
1027,110641,0.663924,-0.36648800000000004,-0.714676,-26.46,1.89,-24.325
1028,110737,0.64782,-0.370148,-0.7285841,-21.035,0.245,-20.7725
1029,110833,0.6722199999999999,-0.34526,-0.726144,-16.2575,1.085,-17.99
1030,110930,0.6675840000000001,-0.321348,-0.71492,-9.2925,1.9775,-13.615
1031,111026,0.65758,-0.341844,-0.697108,-2.905,2.1875,-8.8375
1032,111122,0.6456241,-0.31524800000000003,-0.7168720000000001,0.0525,2.7125,-5.495
1033,111218,0.629764,-0.326228,-0.715164,3.71,3.85,-2.52
1034,111315,0.6263479999999999,-0.364292,-0.6939361,7.7175,5.2325,-0.7525
1035,111411,0.627812,-0.386496,-0.6822239999999999,9.1,5.5825,-1.2775
1036,111507,0.62708,-0.390888,-0.667828,8.365,5.635,-3.185
1037,111603,0.632448,-0.396988,-0.66368,6.545,5.4075,-5.6
1038,111700,0.6348881,-0.370392,-0.673928,4.5675,4.7775,-7.0525
1039,111796,0.6319600000000001,-0.363804,-0.677588,3.3075,4.585,-7.63
1040,111892,0.628544,-0.380884,-0.668316,2.345,4.515,-8.365
1041,111989,0.6307401,-0.373564,-0.6663640000000001,0.315,4.34,-9.9575
1042,112085,0.636596,-0.37746799999999997,-0.6612401,-1.645,4.165,-11.27
1043,112181,0.639524,-0.380884,-0.659532,-3.325,3.85,-12.4425
1044,112277,0.639768,-0.375272,-0.6602640000000001,-5.5475,3.4125,-13.79
1045,112374,0.647576,-0.36112,-0.667096,-7.6825,3.43,-14.945
1046,112470,0.647576,-0.354532,-0.6709999999999999,-7.84,2.695,-15.3125
1047,112566,0.6502600000000001,-0.34867600000000004,-0.6734399999999999,-7.28,2.3625,-15.155
1048,112663,0.6502600000000001,-0.340624,-0.680028,-6.405,2.38,-14.77
1049,112759,0.643428,-0.32866799999999996,-0.681736,-4.865,2.3625,-14.3675
1050,112855,0.647332,-0.33379200000000003,-0.682956,-3.71,2.835,-14.105
1051,112951,0.6451359999999999,-0.341356,-0.6763680000000001,-3.7625,2.8175,-13.93
1052,113048,0.64294,-0.339404,-0.680516,-1.8375,3.1325,-14.0
1053,113144,0.638792,-0.334768,-0.692716,-1.1375,3.7275,-14.91
1054,113240,0.638304,-0.325008,-0.689056,0.525,4.83,-15.96
1055,113336,0.6351319999999999,-0.331596,-0.690032,1.785,6.405,-16.7475
1056,113433,0.639524,-0.332084,-0.6902761,3.43,7.56,-18.305
1057,113529,0.643428,-0.32818,-0.6993041,4.235,10.29,-19.8625
1058,113625,0.6422081000000001,-0.34428400000000003,-0.6956439999999999,5.355,13.9475,-20.8775
1059,113722,0.6273241,-0.334768,-0.708576,4.0075,18.865,-22.785
1060,113818,0.638548,-0.349408,-0.696376,0.7,25.865,-25.305
1061,113914,0.650992,-0.334524,-0.70516,0.315,32.8125,-27.475
1062,114011,0.6634359999999999,-0.32866799999999996,-0.696864,1.5225,39.795,-29.1725
1063,114107,0.666608,-0.336964,-0.7076001000000001,3.57,47.88,-30.3625
1064,114203,0.659044,-0.334524,-0.711504,5.985,55.685,-32.3575
1065,114299,0.661484,-0.319884,-0.72224,7.385,65.0475,-34.8075
1066,114395,0.669048,-0.312808,-0.7198,9.38,74.41,-36.89
1067,114492,0.6790520999999999,-0.30402399999999996,-0.7078439999999999,10.6925,84.63,-38.675
1068,114588,0.6756361,-0.302072,-0.7027201,12.11,95.62,-40.705
1069,114684,0.651968,-0.307684,-0.7166279999999999,13.405,109.9525,-43.6625
1070,114780,0.674172,-0.340624,-0.7105279999999999,14.4375,124.775,-48.335
1071,114877,0.648552,-0.354044,-0.74542,15.435,144.9875,-55.23
1072,114973,0.6368401,-0.410652,-0.7795801,17.22,166.775,-65.1875
1073,115069,0.713212,-0.47653199999999996,-0.737124,16.9575,194.915,-79.625
1074,115166,0.5753520000000001,-0.420412,-0.789828,17.7275,233.485,-102.0775
1075,115262,0.714676,-0.391864,-0.7556681,25.0425,263.9175,-126.5075
1076,115358,0.6954,-0.442616,-0.6463561,37.38,294.21,-150.7625
1077,115454,1.192428,-0.552416,-0.612684,51.52,339.5875,-171.9025
1078,115551,1.244644,-0.22277199999999997,-1.0147959999999998,64.19,404.565,-188.9125
1079,115647,1.70068,-0.438712,-0.803492,101.045,422.205,-175.0525
1080,115743,1.5281719999999999,-0.49580799999999997,-0.8174001000000001,101.29,414.855,-178.7975
1081,115839,2.123288,-1.1089799999999999,-0.48824399999999996,88.935,387.45,-187.8625
1082,115936,1.853912,-0.826672,-0.751276,99.155,399.525,-150.325
1083,116032,2.1752599999999997,-0.7171161,-0.9928360999999999,122.745,400.5925,-143.5875
1084,116128,1.991772,-0.80886,-1.547204,173.285,368.7775,-152.355
1085,116225,1.386896,-2.065704,-2.792824,219.3975,261.905,-164.6225
1086,116321,1.4112959999999999,-2.449516,-2.606896,147.245,-8.9075,-111.9825
1087,116417,0.386984,-1.9154,-1.5799,24.5,-203.4375,-47.355
1088,116513,-0.251808,-1.343464,-0.9250040999999999,-53.9,-272.72,-41.4925
1089,116610,-0.303048,-1.046028,-0.609268,-81.48001,-263.8475,-41.825
1090,116706,-0.02684,-0.9823440999999999,-0.555588,-75.0225,-240.5025,-21.5775
1091,116802,0.19032000000000002,-0.992592,-0.552416,-63.8225,-228.025,7.665
1092,116898,0.29133600000000004,-1.019188,-0.5314321,-53.2,-231.6475,38.7975
1093,116995,0.43334399999999995,-1.009916,-0.54656,-53.6725,-239.085,64.645
1094,117091,0.537532,-0.9042641,-0.5443640000000001,-61.32,-251.7025,85.0675
1095,117187,0.6283,-0.740052,-0.558516,-60.1475,-267.6625,104.335
1096,117283,0.641232,-0.6034121,-0.5260640000000001,-47.9675,-282.9225,122.0975
1097,117380,0.632204,-0.503128,-0.49166000000000004,-25.27,-293.8075,136.1675
1098,117476,0.647332,-0.47677600000000003,-0.46481999999999996,2.1,-295.995,146.65
1099,117572,0.7361481,-0.503372,-0.4743361,28.1575,-291.4625,155.4
1100,117668,0.8657120999999999,-0.564616,-0.505568,47.495,-282.975,164.92
1101,117765,1.0323639999999998,-0.633424,-0.5516840000000001,57.8025,-274.1725,176.6275
1102,117861,1.173152,-0.658068,-0.550952,59.85,-268.0125,189.3325
1103,117957,1.23098,-0.62342,-0.496296,55.72,-262.2025,200.5675
1104,118054,1.2043840000000001,-0.5636399999999999,-0.406992,53.2525,-249.095,207.235
1105,118150,1.266116,-0.5663239999999999,-0.445788,54.9675,-224.28,206.9025
1106,118246,1.4823,-0.611464,-0.580232,63.56,-194.39,205.7125
1107,118342,1.578436,-0.693692,-0.66856,75.88,-171.115,210.385
1108,118439,1.798036,-0.765184,-0.8296,86.9575,-155.3475,219.5025
1109,118535,2.1530560000000003,-0.8935280999999999,-0.8913321,91.3325,-150.43,238.3325
1110,118631,2.190388,-0.9049959999999999,-0.7754321,77.735,-161.9625,258.825
1111,118727,2.1289,-0.7178479999999999,-0.621712,44.94,-176.96,267.575
1112,118824,2.176968,-0.273036,-0.584136,6.7375,-173.3725,268.8875
1113,118920,2.212348,-0.03294,-0.47994799999999993,-11.0075,-175.0,256.4275
1114,119016,2.24602,0.145912,-0.24107199999999998,-18.48,-178.7625,227.4475
1115,119112,2.287744,0.309148,0.135176,-14.105,-178.85,193.235
1116,119209,2.184532,0.53314,0.55998,0.2975,-171.7625,157.6925
1117,119305,2.00446,0.781532,0.8708360999999999,26.845,-151.0425,122.815
1118,119401,1.915156,0.785192,1.0262639999999998,55.0725,-112.77,89.88
1119,119498,2.044964,0.628788,0.9525761,64.365,-64.925,60.83
1120,119594,1.9768880000000002,0.607804,0.815448,40.495,-24.78,41.37
1121,119690,1.7741240000000003,0.718824,1.00528,-10.4475,18.655,19.8625
1122,119786,1.950292,1.0084520000000001,0.9147559999999999,-63.0,84.5775,-3.8325
1123,119883,0.518256,1.15534,1.151924,-84.8225,148.5575,-26.81
1124,119979,0.32452,0.7139439999999999,-2.513688,-43.0325,208.7575,-57.47
1125,120075,1.5262200000000001,0.8413120000000001,-2.132316,1.0325,230.51,-117.6175
1126,120171,1.291004,0.292312,-0.5975560000000001,-0.28,154.6825,-188.055
1127,120268,1.519388,-1.184132,-0.767624,39.8125,148.8025,-183.61
1128,120364,1.2197559999999998,-1.3200399999999999,-0.639524,10.325,154.5425,-145.2325
1129,120460,2.230892,-2.368996,-1.232688,-43.4525,154.5425,-139.16
1130,120556,1.6682279999999998,-0.508984,-0.93696,-122.465,85.3825,-102.2875
1131,120653,0.874984,0.0976,-1.015772,-151.6025,47.705,-117.145
1132,120749,1.048956,-0.42602399999999996,-0.8791321,-96.93251,26.6525,-106.5925
1133,120845,0.993568,-0.33013200000000004,-0.835456,-79.9575,13.4575,-73.745
1134,120942,0.8642481,-0.252296,-0.8357,-64.8375,6.23,-57.0325
1135,121038,0.753228,-0.289628,-0.7956840999999999,-43.4,4.3925,-40.425
1136,121134,0.6795401,-0.3965,-0.7137001000000001,-26.7225,3.2375,-27.405
1137,121230,0.65514,-0.392352,-0.7190681,-20.335,3.2025,-21.665
1138,121327,0.662216,-0.376492,-0.729804,-15.0325,3.15,-18.2175
1139,121423,0.672708,-0.36844,-0.7156520000000001,-8.4875,3.7975,-14.2625
1140,121519,0.6663640000000001,-0.355996,-0.693204,-2.6775,4.4275,-9.765
1141,121615,0.660996,-0.3599,-0.698328,2.9575,4.0075,-5.565
1142,121712,0.649528,-0.335012,-0.711992,8.3825,3.9025,-1.8375
1143,121808,0.6348881,-0.365268,-0.69418,14.2975,4.095,1.9425
1144,121904,0.626104,-0.409432,-0.668316,18.2,4.27,4.3225
1145,122000,0.61854,-0.43236800000000003,-0.653676,18.27,3.325,3.8325
1146,122097,0.617564,-0.45579200000000003,-0.632448,15.365,2.4675,1.5225
1147,122193,0.6141479999999999,-0.44383599999999995,-0.6373281,11.515,1.19,-1.61
1148,122289,0.617564,-0.41846000000000005,-0.64782,7.1575,0.2625,-4.55
1149,122386,0.616588,-0.411384,-0.6563601,4.13,-0.0525,-6.195
1150,122482,0.616588,-0.41455600000000004,-0.6480640000000001,2.275,-0.0875,-7.35
1151,122578,0.611952,-0.405528,-0.6505041,-0.0525,-0.0875,-8.82
1152,122674,0.608536,-0.423096,-0.634644,-3.0625,-0.2625,-10.7275
1153,122771,0.605608,-0.432612,-0.623908,-7.7525,-0.8575,-13.9475
1154,122867,0.60878,-0.437004,-0.6222,-14.0525,-2.17,-18.48
1155,122963,0.6182960999999999,-0.424072,-0.627812,-20.86,-3.2375,-23.0475
1156,123059,0.6178081,-0.41284799999999994,-0.63318,-26.3375,-3.4825,-26.4075
1157,123156,0.618784,-0.390156,-0.654652,-30.8,-3.325,-28.91
1158,123252,0.631228,-0.43236800000000003,-0.626104,-33.7925,-3.7625,-30.6425
1159,123348,0.677832,-0.38503200000000004,-0.6695361,-35.9625,-5.7225,-32.69
1160,123444,0.659532,-0.37698000000000004,-0.67466,-36.295,-7.8925,-32.2525
1161,123541,0.6661201,-0.332816,-0.7007680000000001,-36.015,-9.3975,-31.185
1162,123637,0.656848,-0.287432,-0.7168720000000001,-30.2575,-9.4325,-27.9125
1163,123733,0.644404,-0.306464,-0.71858,-23.905,-8.1725,-24.0275
1164,123829,0.638304,-0.312808,-0.714432,-18.8475,-6.16,-21.63
1165,123926,0.636352,-0.313296,-0.712236,-14.7,-4.2,-20.4225
1166,124022,0.633424,-0.321836,-0.7129681,-10.7975,-1.2775,-19.5125
1167,124118,0.6319600000000001,-0.317444,-0.711016,-7.7875,2.345,-19.4775
1168,124215,0.631228,-0.3172,-0.7183361,-4.865,5.9675,-20.0025
1169,124311,0.6156119999999999,-0.325008,-0.7283400999999999,-1.75,10.15,-20.755
1170,124407,0.625616,-0.29133600000000004,-0.745908,0.2625,14.0,-22.8375
1171,124503,0.628544,-0.290848,-0.744444,3.045,20.1075,-23.8875
1172,124600,0.620492,-0.333548,-0.743224,6.5625,26.8625,-24.4825
1173,124696,0.642696,-0.313052,-0.753228,2.3625,39.0425,-25.9875
1174,124792,0.637084,-0.306464,-0.744688,3.99,50.05,-27.1075
1175,124889,0.6405,-0.305732,-0.7407841,6.4575,60.5675,-28.5775
1176,124985,0.654896,-0.313052,-0.72468,9.625,69.545,-29.785
1177,125081,0.660996,-0.321348,-0.712236,11.1125,79.205,-31.7975
1178,125177,0.647332,-0.322324,-0.720532,11.9525,88.0075,-34.755
1179,125274,0.643184,-0.330376,-0.7451760000000001,12.74,98.35,-37.94
1180,125370,0.6563601,-0.335988,-0.764208,14.42,111.5275,-42.4725
1181,125466,0.636352,-0.355752,-0.770308,15.6625,128.3975,-48.37
1182,125562,0.6527,-0.37990799999999997,-0.7734800000000001,18.1475,149.7125,-55.7025
1183,125659,0.6095119999999999,-0.353556,-0.8100801,23.17,176.645,-67.935
1184,125755,0.6573359999999999,-0.316712,-0.783972,31.5525,204.12,-80.85
1185,125851,0.628544,-0.3111,-0.819108,43.61,243.7575,-97.9125
1186,125947,0.72224,-0.351116,-0.7317560000000001,60.375,277.305,-118.685
1187,126044,0.757864,-0.364536,-0.643672,75.775,310.0125,-138.2325
1188,126140,1.226588,-0.5751081,-0.834724,79.205,370.16,-152.39
1189,126236,1.382992,-0.60268,-0.921344,94.30751,423.99,-156.835
1190,126333,1.7455759999999998,-0.668072,-0.85034,74.7775,415.38,-164.4475
1191,126429,1.8348799999999998,-0.8164239999999999,-0.7315119999999999,60.7075,372.645,-179.34
1192,126525,2.291648,-1.2043840000000001,-0.7883640000000001,64.7325,345.4675,-161.805
1193,126621,2.11426,-0.8701040000000001,-1.41154,102.865,354.7425,-126.28
1194,126718,1.50548,-1.224392,-2.33996,145.5825,314.5975,-137.1475
1195,126814,0.899384,-1.753872,-2.4817240000000003,149.345,168.4725,-151.9525
1196,126910,0.5160600000000001,-1.8461040000000002,-1.9236959999999999,82.3725,-58.3275,-112.7
1197,127006,-0.057584,-1.6143040000000002,-1.186572,25.76,-165.1475,-80.7975
1198,127103,-0.298168,-1.4271559999999999,-0.762012,-19.3375,-192.7275,-78.05
1199,127199,-0.177876,-1.3510280000000001,-0.6178081,-42.7525,-179.34,-64.5225
1200,127295,-0.00244,-1.3527360000000002,-0.570716,-45.29,-169.54,-30.555
1201,127392,0.075396,-1.306864,-0.5368,-51.7125,-170.415,8.5575
1202,127488,0.145912,-1.176812,-0.5260640000000001,-64.3125,-177.835,38.8675
1203,127584,0.252052,-0.9825879999999999,-0.545096,-76.0375,-187.18,58.45
1204,127680,0.379664,-0.8042239999999999,-0.5736441,-74.935,-198.2225,72.485
1205,127777,0.5121560000000001,-0.709796,-0.6029241,-56.8925,-212.485,86.415
1206,127873,0.653188,-0.686128,-0.6317159999999999,-32.0425,-227.85,100.87
1207,127969,0.739808,-0.690764,-0.61488,-8.5925,-245.4025,115.3425
1208,128065,0.7659161,-0.677832,-0.56852,6.8775,-262.255,127.295
1209,128162,0.7903161,-0.6168319999999999,-0.535092,15.47,-271.6,135.8
1210,128258,0.849852,-0.56852,-0.521672,24.675,-272.65,143.5175
1211,128354,0.931348,-0.5514399999999999,-0.5294800000000001,37.5375,-268.59,152.5475
1212,128450,1.009672,-0.55266,-0.503616,51.135,-261.24,161.8925
1213,128547,1.035536,-0.5694961,-0.45383999999999997,59.885,-249.27,169.1725
1214,128643,1.075552,-0.634156,-0.452132,63.035,-232.1725,171.885
1215,128739,1.240008,-0.7137001000000001,-0.555832,66.9025,-206.08,175.9975
1216,128836,1.348832,-0.845216,-0.62098,71.4525,-185.115,188.3525
1217,128932,1.392752,-0.9435479999999999,-0.6893,67.2175,-169.75,203.245
1218,129028,1.63724,-0.9828321,-0.8781559999999999,56.98,-150.465,218.3825
1219,129124,1.952732,-1.006256,-0.9696561,51.135,-142.065,243.705
1220,129221,2.0459400000000003,-0.964532,-0.859856,38.7975,-148.6275,274.61
1221,129317,1.86538,-0.658068,-0.7195560000000001,14.9625,-158.8125,290.3075
1222,129413,1.952,-0.242536,-0.8315520000000001,-9.7125,-147.49,293.5975
1223,129510,2.068388,-0.07173600000000001,-0.8044680999999999,-16.7125,-140.56,283.57
1224,129606,2.100352,0.1403,-0.5307,-28.2625,-139.6675,256.41
1225,129702,2.36924,0.115168,-0.346968,-26.215,-143.2375,226.8
1226,129798,2.409256,0.327692,0.044407999999999996,-21.175,-154.49,200.445
1227,129895,2.167696,0.655384,0.5294800000000001,-17.36,-166.53,158.9525
1228,129991,2.192096,0.91012,0.743712,5.985,-147.175,118.09
1229,130087,2.116212,0.8554641,0.935984,35.07,-123.13,84.35
1230,130183,2.098888,0.7929999999999999,1.000888,31.85,-93.8525,51.52
1231,130280,2.0435,0.81618,0.9030440000000001,0.6475,-63.2275,21.6125
1232,130376,1.775832,1.154852,0.877668,-38.535,-33.8975,-4.515
1233,130472,1.519144,1.217804,1.274656,-83.16001,21.245,-55.755
1234,130568,0.386496,1.1509479999999999,0.527528,-47.1975,102.2,-98.21
1235,130665,-0.188612,0.11760799999999999,-2.4395119999999997,18.305,150.8675,-98.54251
1236,130761,1.192428,-0.037332,-1.167296,42.665,197.68,-139.475
1237,130857,1.1148360000000002,-0.38674000000000003,-0.346724,18.5675,172.0075,-192.185
1238,130953,1.490108,-1.377624,-0.7019880000000001,36.4525,182.56,-168.9625
1239,131050,1.31516,-0.9496479999999999,-0.7422481,-4.8825,184.205,-139.9125
1240,131146,1.267824,-0.684176,-0.953308,-36.1375,173.18,-121.975
1241,131242,2.108648,-1.7868119999999998,-1.279048,-50.0325,150.99,-102.9
1242,131339,1.5196319999999999,-0.3721,-0.89792,-125.3525,80.29,-87.90250999999999
1243,131435,0.892308,-0.038308,-1.009184,-130.655,45.745,-109.7775
1244,131531,1.0121120000000001,-0.423584,-0.829356,-91.2275,22.855,-90.475
1245,131627,0.9701440999999998,-0.321836,-0.853024,-76.72,8.5925,-71.54
1246,131724,0.8203280000000001,-0.24058400000000002,-0.8439959999999999,-66.5875,3.395,-57.19
1247,131820,0.746152,-0.328424,-0.775676,-44.8175,1.5225,-42.385
1248,131916,0.7178479999999999,-0.331108,-0.756644,-33.705,2.345,-31.4825
1249,132012,0.692472,-0.329644,-0.748592,-24.255,1.7675,-23.0125
1250,132109,0.658068,-0.336476,-0.734684,-15.435,1.0675,-15.9775
1251,132205,0.641964,-0.342088,-0.7256560000000001,-9.03,1.2775,-10.7275
1252,132301,0.6307401,-0.345748,-0.715408,-3.7975,1.505,-6.79
1253,132397,0.638304,-0.354044,-0.7041841,0.735,1.5225,-3.535
1254,132494,0.633424,-0.366732,-0.6939361,4.9175,1.575,-0.805
1255,132590,0.621712,-0.36722,-0.692228,7.4725,2.2225,1.4525
1256,132686,0.6229319999999999,-0.3721,-0.690764,9.8175,2.31,3.0975
1257,132783,0.620004,-0.379176,-0.686616,11.0775,2.6775,3.955
1258,132879,0.615368,-0.39161999999999997,-0.6753920999999999,12.3025,2.7125,4.3575
1259,132975,0.6158561,-0.407236,-0.671488,12.46,2.2925,4.0425
1260,133071,0.6197600000000001,-0.42163199999999995,-0.6695361,11.8825,1.435,2.065
1261,133168,0.618784,-0.409432,-0.6673399999999999,10.5525,1.0325,0.595
1262,133264,0.621468,-0.407724,-0.670024,9.695,0.7875,-0.1925
1263,133360,0.627568,-0.400404,-0.668316,9.0825,0.945,-0.3675
1264,133456,0.619028,-0.394548,-0.6695361,9.135,0.2625,-0.4725
1265,133553,0.6161,-0.400404,-0.6673399999999999,8.54,-0.175,-0.8225
1266,133649,0.612684,-0.400648,-0.66368,7.7875,-0.63,-1.505
1267,133745,0.612928,-0.408456,-0.6566041,6.755,-1.1025,-2.6775
1268,133841,0.60878,-0.406504,-0.658068,4.8125,-1.575,-4.2875
1269,133938,0.6124400999999999,-0.414312,-0.655384,2.905,-2.1,-5.8625
1270,134034,0.6107319999999999,-0.407968,-0.6566041,0.525,-2.0125,-7.245
1271,134130,0.613416,-0.39723200000000003,-0.663192,-0.35,-1.2075,-8.295
1272,134227,0.621468,-0.407724,-0.664168,-1.1025,-0.455,-9.2575
1273,134323,0.606096,-0.400648,-0.6612401,-2.8525,-0.5775,-10.3775
1274,134419,0.602436,-0.40138,-0.659776,-4.235,0.1575,-11.8125
1275,134515,0.60634,-0.400648,-0.65758,-6.4575,0.1575,-13.7725
1276,134612,0.6095119999999999,-0.397964,-0.660996,-8.75,0.63,-15.505
1277,134708,0.6107319999999999,-0.40016,-0.662704,-10.3425,1.26,-17.325
1278,134804,0.616344,-0.398452,-0.6612401,-11.9875,1.995,-19.1625
1279,134900,0.6161,-0.39723200000000003,-0.659532,-13.8075,2.73,-20.8075
1280,134997,0.620004,-0.399428,-0.659532,-16.0125,3.4825,-22.89
1281,135093,0.624884,-0.386496,-0.666608,-18.515,4.62,-24.9725
1282,135189,0.6319600000000001,-0.383812,-0.66978,-20.6325,5.74,-26.8275
1283,135285,0.640012,-0.37576,-0.683932,-21.805,6.615,-28.2975
1284,135382,0.643428,-0.345016,-0.702476,-21.2625,7.9975,-29.12
1285,135478,0.6414761,-0.322812,-0.728096,-17.85,9.1175,-28.9275
1286,135574,0.6344,-0.321348,-0.731024,-12.8625,10.57,-28.4725
1287,135670,0.6178081,-0.31964000000000004,-0.7476161,-6.5275,13.545,-28.175
1288,135767,0.6456241,-0.324764,-0.738588,-1.8725,19.145,-28.805
1289,135863,0.623908,-0.33671999999999996,-0.744688,3.6225,26.4075,-29.2075
1290,135959,0.6304960000000001,-0.35160399999999997,-0.7315119999999999,5.3025,35.2975,-31.2025
1291,136055,0.623664,-0.33794,-0.7564001,0.77,49.9625,-33.4775
1292,136152,0.624152,-0.325008,-0.7598161,4.62,60.095,-36.05
1293,136248,0.6141479999999999,-0.31158800000000003,-0.786656,12.145,70.175,-37.59
1294,136344,0.640012,-0.309636,-0.7673800000000001,16.1175,82.285,-39.0075
1295,136440,0.632204,-0.311344,-0.7903161,20.23,97.65,-40.1275
1296,136537,0.660996,-0.3538,-0.778116,25.2875,114.5725,-42.245
1297,136633,0.554124,-0.396012,-0.7808001,28.4725,138.4425,-48.0725
1298,136729,0.5875520000000001,-0.39405999999999997,-0.7686,27.8425,163.6425,-59.5175
1299,136825,0.571448,-0.407724,-0.783728,25.795,196.2625,-73.255
1300,136922,0.571936,-0.441396,-0.794708,25.865,231.3675,-88.8475
1301,137018,0.667096,-0.4941,-0.763232,23.8,266.7875,-108.465
1302,137114,0.621712,-0.49434399999999995,-0.7259001,20.8075,307.2825,-134.295
1303,137210,0.8371639999999999,-0.50508,-0.659532,15.8375,342.685,-161.315
1304,137307,1.434964,-0.51362,-0.7832399999999999,12.6525,379.085,-181.37
1305,137403,1.5494,-0.541924,-0.7605481,31.6575,413.49,-188.3525
1306,137499,1.577948,-0.5119121,-0.7661600000000001,36.47,411.0575,-191.03
1307,137595,1.765096,-0.656848,-0.7117479999999999,41.895,382.8125,-193.48
1308,137692,2.1130400000000003,-1.048712,-0.76494,65.52,369.6875,-158.13
1309,137788,2.0403279999999997,-0.6588,-1.075552,115.2025,383.985,-111.7725
1310,137884,2.202588,-0.9315921,-1.807064,165.1475,348.8625,-128.8
1311,137980,1.347856,-1.073112,-2.966064,213.3425,250.4075,-140.105
1312,138077,1.059448,-1.609424,-2.48026,174.93,-8.5925,-147.455
1313,138173,0.393328,-1.61772,-1.5730680000000001,125.5625,-198.9225,-117.215
1314,138269,-0.19861600000000001,-1.474492,-0.821304,63.49,-257.285,-113.61
1315,138366,-0.34428400000000003,-1.403732,-0.44115200000000004,20.3875,-248.71,-103.075
1316,138462,-0.12932000000000002,-1.3668879999999999,-0.384056,-3.535,-211.925,-66.395
1317,138558,0.016592,-1.340048,-0.392108,-20.7375,-184.7825,-15.435
1318,138654,0.07442,-1.1899879999999998,-0.41846000000000005,-39.6725,-172.0075,31.4825
1319,138751,0.172752,-0.9852719999999999,-0.49776000000000004,-52.08,-166.3725,67.3225
1320,138847,0.28426,-0.7661600000000001,-0.587796,-58.625,-168.245,90.615
1321,138943,0.45018,-0.6170760000000001,-0.70394,-49.28,-178.15,106.7325
1322,139039,0.647332,-0.536068,-0.818376,-27.265,-197.7675,120.3125
1323,139136,0.8147161,-0.509716,-0.853512,-0.035,-226.6775,133.665
1324,139232,0.8669319999999999,-0.47994799999999993,-0.7849480999999999,22.7325,-260.0675,144.7775
1325,139328,0.84546,-0.422608,-0.664412,37.7125,-287.0525,152.18
1326,139424,0.8298440999999999,-0.37746799999999997,-0.5516840000000001,48.6675,-299.9325,156.485
1327,139521,0.8725440999999999,-0.366,-0.5172800999999999,57.4,-298.06,159.1625
1328,139617,0.9886881,-0.381372,-0.551928,66.4475,-286.5975,163.4325
1329,139713,1.129232,-0.4575,-0.5838920999999999,75.39,-275.5725,170.2225
1330,139809,1.191208,-0.5353359999999999,-0.555832,78.54,-266.91,177.765
1331,139906,1.14314,-0.5814520000000001,-0.46921199999999996,73.8675,-253.5925,185.5875
1332,140002,1.092632,-0.618052,-0.43676000000000004,66.325,-227.8675,192.6225
1333,140098,1.2585520000000001,-0.6558721,-0.5987760999999999,63.7875,-188.1425,200.62
1334,140194,1.40544,-0.667096,-0.708576,67.3225,-157.0975,213.4475
1335,140291,1.415932,-0.6724640000000001,-0.7556681,68.0575,-139.8775,223.09
1336,140387,1.741916,-0.638548,-0.972828,67.6375,-120.33,226.8875
1337,140483,1.94712,-0.604632,-1.073112,75.3725,-117.0925,239.225
1338,140579,2.300432,-0.644404,-1.06628,81.0775,-128.695,257.565
1339,140676,2.372168,-0.39918400000000004,-0.9089001,59.2375,-152.005,258.3875
1340,140772,2.2967720000000003,-0.051972000000000004,-0.6273241,24.325,-183.8375,234.6925
1341,140868,2.287988,0.241804,-0.22472399999999998,-2.345,-199.78,200.7075
1342,140964,2.206004,0.40967600000000004,0.351848,-5.8625,-200.3225,167.65
1343,141061,2.310924,0.5885281,0.749812,5.7575,-183.2425,134.9425
1344,141157,2.01666,0.9042641,1.049688,23.5375,-158.7075,102.305
1345,141253,1.951024,0.9474520000000001,1.185108,43.4175,-112.2975,67.6375
1346,141349,1.9461439999999999,0.8764481,1.1324040000000002,45.325,-58.1525,31.675
1347,141446,2.1106,0.729316,0.9989360999999999,22.505,-5.215,-1.505
1348,141542,2.002996,0.8413120000000001,0.9557479999999999,-34.4225,42.7525,-27.7375
1349,141638,1.372256,0.9830760000000001,1.469856,-82.2325,101.2375,-54.635
1350,141734,0.39479200000000003,1.138016,-1.239276,-92.085,188.02,-78.6625
1351,141831,1.255868,0.313052,-2.577128,-17.57,248.325,-97.19501
1352,141927,1.412272,0.912316,-1.136552,-44.4675,187.6175,-165.97
1353,142023,1.545984,-0.367464,-0.809348,-0.8575,149.555,-195.7725
1354,142119,1.425448,-1.267336,-0.886452,3.745,158.7775,-156.6425
1355,142216,2.224304,-2.3250759999999997,-1.2104840000000001,-42.875,141.33,-147.035
1356,142312,1.426424,-0.47067600000000004,-0.7373681,-145.9675,63.6475,-121.2225
1357,142408,0.8030041,0.048312,-0.950868,-161.28,34.44,-132.965
1358,142505,1.164856,-0.425048,-0.869128,-121.3975,16.03,-112.9625
1359,142601,0.981124,-0.186904,-0.9093880999999999,-108.43,5.95,-93.695
1360,142697,0.927688,-0.157868,-0.882548,-87.1675,3.4125,-72.5025
1361,142793,0.814472,-0.223748,-0.815204,-57.1725,0.2275,-50.085
1362,142890,0.7366361,-0.316224,-0.7500560000000001,-38.5875,-0.805,-34.37
1363,142986,0.698816,-0.329888,-0.7283400999999999,-25.935,-0.7875,-24.71
1364,143082,0.673928,-0.31354,-0.73932,-20.3175,-1.26,-18.795
1365,143178,0.6600201,-0.30109600000000003,-0.7329760000000001,-14.28,-1.1375,-13.8775
1366,143275,0.646112,-0.31890799999999997,-0.71736,-9.0125,-0.35,-9.6775
1367,143371,0.639524,-0.342088,-0.7007680000000001,-6.4225,0.21,-7.2275
1368,143467,0.627812,-0.349652,-0.6856399999999999,-5.1625,0.0525,-6.6675
1369,143563,0.6351319999999999,-0.33671999999999996,-0.6883239999999999,-4.76,-0.63,-6.755
1370,143660,0.631228,-0.33305999999999997,-0.684176,-4.7775,-0.8575,-6.335
1371,143756,0.62464,-0.327448,-0.7007680000000001,-4.655,-0.91,-5.705
1372,143852,0.624884,-0.337452,-0.692716,-3.99,-1.5225,-5.88
1373,143949,0.6314721,-0.35038400000000003,-0.685396,-5.0575,-1.7325,-6.685
1374,144045,0.6329359999999999,-0.366976,-0.6802720999999999,-6.265,-2.2575,-7.77
1375,144141,0.6304960000000001,-0.363804,-0.6802720999999999,-7.49,-3.325,-9.38
1376,144237,0.6290319999999999,-0.35526399999999997,-0.684176,-9.03,-4.375,-10.955
1377,144334,0.63318,-0.340136,-0.6856399999999999,-10.01,-5.1625,-12.18
1378,144430,0.6304960000000001,-0.321348,-0.696864,-10.535,-5.7225,-12.7225
1379,144526,0.6231760999999999,-0.33379200000000003,-0.6885680999999999,-9.9925,-5.8275,-12.32
1380,144622,0.6314721,-0.303048,-0.711992,-9.24,-5.18,-12.25
1381,144719,0.6317159999999999,-0.31890799999999997,-0.696132,-7.8225,-4.095,-12.04
1382,144815,0.630252,-0.31012399999999996,-0.71004,-7.9275,-3.5175,-12.7925
1383,144911,0.6292760000000001,-0.31964000000000004,-0.705892,-6.7725,-2.6775,-13.335
1384,145007,0.635376,-0.31842,-0.702964,-6.7725,-2.31,-14.2625
1385,145104,0.6290319999999999,-0.311832,-0.7095520000000001,-8.0325,-2.3625,-15.5225
1386,145200,0.632448,-0.299632,-0.711992,-7.245,-0.8400001,-16.2225
1387,145296,0.6290319999999999,-0.290116,-0.715896,-6.5975,0.1575,-16.5375
1388,145392,0.6326921,-0.29402,-0.715408,-5.565,1.855,-16.66
1389,145489,0.630252,-0.2928,-0.72346,-4.1125,3.8675,-16.9925
1390,145585,0.626104,-0.29646,-0.7266321,-2.5025,6.3,-17.4475
1391,145681,0.6265921,-0.293044,-0.7217521,-0.8400001,9.555,-18.3925
1392,145778,0.625616,-0.295484,-0.724924,0.8400001,12.8275,-20.2825
1393,145874,0.616588,-0.285236,-0.756644,3.01,16.94,-22.505
1394,145970,0.5926760999999999,-0.307196,-0.770308,4.1825,23.7475,-24.6575
1395,146066,0.610488,-0.293288,-0.7747001,1.6275,36.68,-27.405
1396,146163,0.6219561,-0.26913200000000004,-0.783728,2.2925,49.0525,-29.75
1397,146259,0.6273241,-0.271328,-0.7883640000000001,3.4825,62.405,-31.3425
1398,146355,0.644648,-0.29036,-0.7600600000000001,7.1225,73.815,-32.305
1399,146451,0.64904,-0.297192,-0.7503,9.4675,87.1675,-34.685
1400,146548,0.650992,-0.30475599999999997,-0.751276,10.6575,101.01,-38.36
1401,146644,0.6539201,-0.311344,-0.74542,10.465,112.8575,-42.5775
1402,146740,0.660996,-0.31232,-0.733708,9.8,123.34,-47.0925
1403,146837,0.6795401,-0.331596,-0.7227279999999999,9.065,135.065,-51.8175
1404,146933,0.6649,-0.33671999999999996,-0.73444,9.6775,147.5075,-58.94
1405,147029,0.672708,-0.327692,-0.7285841,10.8675,160.6325,-68.775
1406,147125,0.6600201,-0.31598000000000004,-0.746152,15.0675,178.3425,-80.57
1407,147222,0.677832,-0.310612,-0.696376,24.325,203.56,-99.19001
1408,147318,0.7686,-0.301584,-0.686616,44.975,237.23,-124.4425
1409,147414,0.7388319999999999,-0.431392,-0.681736,79.8,273.525,-159.32
1410,147510,0.7856801,-0.593896,-0.676124,103.005,307.5625,-193.48
1411,147607,1.161196,-0.33916,-0.8674200000000001,108.1325,339.57,-220.5525
1412,147703,1.806332,-0.7376119999999999,-1.196576,144.2175,389.0075,-220.22
1413,147799,1.9197919999999997,-0.626104,-1.055544,135.94,392.175,-227.3075
1414,147895,2.556388,-1.2280520000000001,-0.8044680999999999,101.99,339.15,-237.3
1415,147992,1.979572,-0.953308,-0.8759601,108.325,333.48,-199.8325
1416,148088,2.058872,-0.9974719999999999,-1.333216,130.3925,329.385,-225.1025
1417,148184,1.2871,-1.330776,-2.565904,169.3125,283.045,-241.4125
1418,148281,1.2075559999999999,-2.188192,-2.262612,174.2825,92.995,-216.0725
1419,148377,0.601704,-2.3807080000000003,-1.677988,119.595,-103.355,-125.58
1420,148473,-0.000976,-1.9951880000000002,-0.9947881,50.0325,-175.4725,-73.2375
1421,148569,-0.3782,-1.580144,-0.5514399999999999,-17.43,-196.1925,-51.625
1422,148666,-0.194224,-1.243668,-0.45871999999999996,-50.2775,-174.5275,-22.1725
1423,148762,0.015128,-1.042124,-0.48726800000000003,-59.29,-153.9475,15.9425
1424,148858,0.10126,-0.935008,-0.49849209999999994,-51.205,-151.375,52.4475
1425,148954,0.23082399999999997,-0.8491200000000001,-0.5353359999999999,-44.835,-154.455,79.1875
1426,149051,0.40016,-0.7415161,-0.621468,-44.345,-163.0825,95.3225
1427,149147,0.5602239999999999,-0.620736,-0.68076,-39.9525,-179.76,107.905
1428,149243,0.666608,-0.5397281,-0.6912520000000001,-25.235,-204.6625,121.59
1429,149339,0.7288279999999999,-0.49824799999999997,-0.670268,-5.95,-227.99,135.555
1430,149436,0.759572,-0.48433999999999994,-0.610488,12.775,-247.24,147.2975
1431,149532,0.777872,-0.476288,-0.541192,26.495,-259.6825,156.3275
1432,149628,0.8210601000000001,-0.47482399999999997,-0.49605200000000005,36.96,-262.9375,165.2
1433,149725,0.891576,-0.505324,-0.476288,46.5325,-258.335,177.1
1434,149821,0.9725841000000001,-0.56242,-0.467016,53.1825,-249.34,191.6425
1435,149917,1.0706719999999998,-0.645868,-0.472384,54.075,-237.6675,206.8325
1436,150013,1.134844,-0.698816,-0.465308,50.4175,-224.875,222.0225
1437,150110,1.181692,-0.718824,-0.456524,44.9225,-210.77,236.6875
1438,150206,1.16144,-0.7141881,-0.44334799999999996,39.585,-194.495,247.485
1439,150302,1.274412,-0.71248,-0.5575399999999999,36.68,-172.62,250.1275
1440,150398,1.4818120000000001,-0.683932,-0.7217521,44.31,-151.5325,251.405
1441,150495,1.615524,-0.696132,-0.7793359999999999,62.1075,-140.525,257.7225
1442,150591,1.8317080000000001,-0.737124,-0.8396040000000001,81.795,-135.2925,265.51
1443,150687,2.173552,-0.869128,-0.8147161,89.5825,-138.005,277.095
1444,150783,2.119384,-0.8554641,-0.657824,77.035,-155.33,283.3425
1445,150880,2.22772,-0.736392,-0.5511961,51.45,-166.3725,282.5725
1446,150976,2.242848,-0.40894400000000003,-0.345748,25.3575,-170.38,274.365
1447,151072,2.208688,-0.055388,-0.19251600000000002,16.9925,-168.5075,258.8425
1448,151169,2.230648,0.186904,0.06880801,24.255,-158.9175,233.8
1449,151265,2.115724,0.54656,0.47165200000000007,28.21,-143.8675,195.8075
1450,151361,1.9942119999999999,0.847412,0.794708,43.75,-115.5175,149.03
1451,151457,2.079124,0.8210601000000001,0.8996280999999999,74.13,-73.1325,108.2375
1452,151554,2.2469959999999998,0.556076,0.8935280999999999,87.01,-34.65,82.2675
1453,151650,2.140368,0.474092,0.885964,56.9625,-11.305,66.2375
1454,151746,1.8168240000000002,0.553636,1.108248,-6.0375,17.36,48.7725
1455,151842,1.9539520000000001,0.9494040000000001,1.0553,-106.2425,83.2475,15.855
1456,151939,1.284416,0.9625799999999999,1.2993,-134.5575,151.305,3.3425
1457,152035,-0.06344,1.844884,-1.646756,-139.2475,228.935,-29.365
1458,152131,2.168672,1.503284,-3.011448,-70.5075,327.1975,-91.2275
1459,152228,1.9483400000000002,2.0752200000000003,-1.4483840000000001,-69.02,228.27,-176.6625
1460,152324,2.078148,-0.337452,-1.567212,10.01,178.8325,-208.775
1461,152420,2.422676,-3.106608,-1.497184,15.155,147.42,-193.27
1462,152516,1.899052,-1.7216639999999999,0.044652,-108.745,74.795,-148.12
1463,152613,1.0023520000000001,0.618784,-1.3083280000000002,-193.0775,53.2175,-131.425
1464,152709,0.935984,-0.6405,-0.801296,-121.03,26.6525,-138.67
1465,152805,1.000888,-0.408456,-0.8115439999999999,-88.2175,14.5425,-89.32
1466,152902,0.9455,-0.20837600000000003,-0.8637601,-87.5,8.4525,-70.1225
1467,152998,0.8215481,-0.27816,-0.8174001000000001,-58.3625,5.67,-49.6475
1468,153094,0.7712840999999999,-0.36136399999999996,-0.725412,-41.2825,3.4125,-33.95
1469,153190,0.721996,-0.416996,-0.691008,-29.9425,1.4,-24.7625
1470,153287,0.6917399999999999,-0.349164,-0.731268,-23.135,-1.6625,-20.335
1471,153383,0.6653880999999999,-0.327204,-0.7327321,-17.6925,-1.7325,-16.4325
1472,153479,0.6688041,-0.326472,-0.704916,-11.0075,-0.455,-12.3025
1473,153576,0.671732,-0.325496,-0.6895439999999999,-5.8275,0.28,-7.84
1474,153672,0.656848,-0.337696,-0.687348,-2.7475,0.2275,-3.9025
1475,153768,0.6326921,-0.361852,-0.675148,-1.12,-0.42,-1.6625
1476,153864,0.617564,-0.38308000000000003,-0.6734399999999999,-1.6975,-0.8575,-1.8375
1477,153961,0.6070720000000001,-0.41723999999999994,-0.658068,-3.71,-2.065,-4.4275
1478,154057,0.6080479999999999,-0.426756,-0.637084,-7.945,-3.5,-8.855
1479,154153,0.6075600999999999,-0.423584,-0.631228,-13.5625,-5.5825,-13.5975
1480,154249,0.6258600000000001,-0.429684,-0.6326921,-20.51,-7.63,-18.0425
1481,154346,0.6273241,-0.400892,-0.658068,-27.0375,-8.995,-21.8925
1482,154442,0.6380600000000001,-0.37576,-0.6661201,-31.045,-9.4325,-23.94
1483,154538,0.6263479999999999,-0.34428400000000003,-0.7017439999999999,-32.5325,-9.485,-24.29
1484,154634,0.624152,-0.343064,-0.708576,-30.065,-9.2925,-23.485
1485,154731,0.627812,-0.361608,-0.687104,-26.6175,-8.7325,-22.7325
1486,154827,0.62342,-0.367464,-0.6824680000000001,-25.7775,-9.0475,-23.3625
1487,154923,0.639768,-0.339648,-0.6919841,-25.095,-9.0825,-24.43
1488,155019,0.640744,-0.31646799999999997,-0.6954,-23.31,-8.96,-24.4825
1489,155116,0.633668,-0.28328400000000004,-0.715408,-21.1925,-8.54,-23.59
1490,155212,0.6375721,-0.28181999999999996,-0.7141881,-18.7425,-7.9275,-22.1025
1491,155308,0.6351319999999999,-0.291092,-0.713212,-16.2225,-6.965,-20.8075
1492,155405,0.636596,-0.277428,-0.7166279999999999,-14.035,-5.6525,-19.9675
1493,155501,0.633912,-0.279868,-0.7183361,-12.1975,-4.165,-18.8825
1494,155597,0.6344,-0.278648,-0.719312,-10.3775,-2.485,-18.0775
1495,155693,0.63562,-0.282796,-0.720288,-8.505,-0.385,-17.4125
1496,155790,0.638792,-0.280844,-0.721996,-6.3,1.645,-17.1325
1497,155886,0.638304,-0.27205999999999997,-0.7217521,-4.375,4.0775,-17.2025
1498,155982,0.638548,-0.27084,-0.720288,-2.0825,6.8425,-17.1325
1499,156078,0.64294,-0.26961999999999997,-0.725168,-0.07,10.29,-17.01
1500,156175,0.634644,-0.27084,-0.724924,1.785,13.615,-17.29
1501,156271,0.639524,-0.282308,-0.727364,2.345,16.4325,-18.4625
1502,156367,0.6068279999999999,-0.275964,-0.7700640999999999,1.9425,20.4925,-19.8275
1503,156463,0.627812,-0.30353600000000003,-0.754692,-0.4375,29.19,-21.2975
1504,156560,0.632204,-0.293532,-0.7522521,-0.5425,38.99,-23.625
1505,156656,0.633912,-0.274256,-0.760304,0.5425,48.93,-25.9175
1506,156752,0.6422081000000001,-0.276208,-0.746152,2.0125,58.135,-27.1425
1507,156849,0.650016,-0.26352,-0.74908,3.22,67.4975,-28.0175
1508,156945,0.657824,-0.260104,-0.746152,4.865,76.965,-28.7875
1509,157041,0.65514,-0.279868,-0.736392,5.4425,86.8875,-30.0475
1510,157137,0.659776,-0.285968,-0.7449321,6.65,97.16001,-32.1825
1511,157234,0.659532,-0.27889200000000003,-0.7549359999999999,8.575,109.0425,-35.2625
1512,157330,0.6307401,-0.30475599999999997,-0.788608,11.725,124.6175,-39.8125
1513,157426,0.630252,-0.338428,-0.795928,15.365,142.135,-45.465
1514,157522,0.6344,-0.359656,-0.803492,19.4425,166.4775,-54.9325
1515,157619,0.6229319999999999,-0.35477600000000004,-0.833016,23.03,194.215,-69.79
1516,157715,0.7056479999999999,-0.35160399999999997,-0.807396,28.035,225.8375,-88.7425
1517,157811,0.7407841,-0.404796,-0.762988,38.9725,262.3075,-111.7025
1518,157907,0.9264680000000001,-0.396012,-0.9496479999999999,46.725,308.5775,-135.1
1519,158004,1.2458639999999999,-0.576816,-0.9052401,63.6825,342.685,-149.03
1520,158100,1.7931560000000002,-0.482876,-1.001376,73.02750999999999,353.9725,-155.2075
1521,158196,1.6621279999999998,-0.45579200000000003,-0.8969440000000001,83.87751,315.315,-159.11
1522,158293,2.112308,-0.954284,-0.742492,93.2225,264.81,-150.8675
1523,158389,1.3832360000000001,-0.6844201,-1.336876,118.0025,262.8675,-121.9575
1524,158485,0.9501360999999999,-0.5511961,-1.9241840000000001,131.0575,239.225,-151.585
1525,158581,0.46848,-0.42212,-2.3150720000000002,147.56,139.9475,-186.4275
1526,158678,0.522648,-1.031876,-1.8458599999999998,164.2375,-17.4475,-194.11
1527,158774,0.264496,-1.444968,-1.281,166.3025,-118.335,-179.655
1528,158870,-0.090036,-1.5908799999999998,-0.8176439999999999,125.51,-163.415,-163.765
1529,158966,-0.1342,-1.5067,-0.5997520000000001,76.965,-171.57,-137.025
1530,159063,-0.0671,-1.403732,-0.565104,41.65,-160.1075,-94.86751
1531,159159,0.007564001,-1.290516,-0.5736441,25.4975,-149.1525,-44.835
1532,159255,0.07076001,-1.148508,-0.592432,17.3425,-140.035,3.255
1533,159351,0.1708,-0.9950319999999999,-0.6729520999999999,15.19,-136.115,43.645
1534,159448,0.334768,-0.8398479999999999,-0.79666,18.1125,-136.5525,75.9675
1535,159544,0.5009319999999999,-0.696376,-0.9086559999999999,26.775,-145.81,101.9725
1536,159640,0.594384,-0.571936,-0.942084,39.2175,-164.9375,122.8325
1537,159737,0.599508,-0.489464,-0.89792,52.57,-186.235,137.305
1538,159833,0.585356,-0.41968,-0.8544879999999999,64.26,-200.9,145.355
1539,159929,0.6392800000000001,-0.37746799999999997,-0.8662001,74.5325,-205.24,151.4275
1540,160025,0.7551800000000001,-0.359168,-0.8906,84.07001,-204.1375,158.8475
1541,160122,0.8281360999999999,-0.35697199999999996,-0.889624,88.6025,-203.6125,166.005
1542,160218,0.887916,-0.353556,-0.8608319999999999,87.395,-201.425,171.01
1543,160314,0.935008,-0.35014,-0.8571719999999999,83.6325,-194.0925,175.245
1544,160410,0.966728,-0.376248,-0.8491200000000001,79.0125,-184.695,180.145
1545,160507,1.057008,-0.403088,-0.9086559999999999,74.0075,-171.605,185.4825
1546,160603,1.1529,-0.401624,-0.9774639999999999,70.49,-159.1625,192.185
1547,160699,1.1775440000000001,-0.403088,-0.9708760000000001,70.1575,-150.5,199.99
1548,160795,1.181936,-0.395768,-0.9489161,68.1625,-141.19,203.2975
1549,160892,1.336144,-0.416508,-1.041148,64.5925,-128.2925,201.11
1550,160988,1.6452919999999998,-0.461404,-1.154852,67.655,-122.815,202.9825
1551,161084,1.7809560000000002,-0.527772,-1.16998,75.3725,-133.42,214.4275
1552,161181,1.938824,-0.48922,-1.1272799999999998,69.58,-152.2325,221.8475
1553,161277,1.8419560000000001,-0.26596,-0.94306,46.6725,-178.1675,212.3975
1554,161373,1.7890080000000002,-0.031232,-0.73688,29.295,-196.35,190.295
1555,161469,1.814384,0.12078,-0.482388,28.4025,-204.6625,163.66
1556,161566,1.8451279999999999,0.22326,-0.124196,40.215,-206.2375,137.0425
1557,161662,1.879288,0.406992,0.25376,50.4175,-198.52,106.96
1558,161758,1.887584,0.6156119999999999,0.561932,65.38,-181.6325,73.885
1559,161854,1.950292,0.700036,0.7171161,85.4,-152.845,46.48
1560,161951,2.0047040000000003,0.59048,0.708332,90.02,-122.815,28.7175
1561,162047,2.043744,0.499712,0.6456241,58.8525,-98.175,19.495
1562,162143,1.89222,0.616588,0.641964,3.29,-80.3425,17.71
1563,162240,1.651636,1.034804,0.9389120000000001,-48.4925,-60.5325,15.365
1564,162336,0.891576,1.061156,1.705316,-109.025,8.7325,-28.0175
1565,162432,-0.342332,1.771684,-0.8493641,-0.2975,130.1475,-78.4525
1566,162528,0.35526399999999997,-0.179828,-2.196976,52.955,208.565,-112.035
1567,162625,1.7629,0.0061,-0.6463561,5.67,219.6425,-195.2475
1568,162721,1.565748,-0.9913719999999999,-0.562176,5.6175,183.54,-213.01
1569,162817,1.6399240000000002,-1.1514360000000001,-0.9208561,-7.315,202.8075,-160.8075
1570,162913,1.403,-0.565104,-1.024068,-45.7275,186.235,-136.885
1571,163010,2.3546,-1.7909599999999999,-1.502308,-60.55,173.285,-121.6425
1572,163106,1.529636,-0.36282800000000004,-0.9037761000000001,-129.115,85.47,-99.6625
1573,163202,0.9189040999999999,-0.08369201,-0.9503799999999999,-125.1775,48.1775,-114.7125
1574,163298,1.0887280000000001,-0.478728,-0.8193521,-88.55,29.4,-90.58001
1575,163395,0.916464,-0.35526399999999997,-0.7993439999999999,-71.47,12.74,-67.4625
1576,163491,0.8149601,-0.32256799999999997,-0.821792,-60.515,7.665,-54.46
1577,163587,0.772016,-0.35868,-0.762012,-42.8575,5.88,-40.67
1578,163683,0.7198,-0.35477600000000004,-0.7483479999999999,-31.2025,3.6925,-29.295
1579,163780,0.6836880999999999,-0.3599,-0.730536,-20.2825,2.2925,-21.805
1580,163876,0.6502600000000001,-0.33379200000000003,-0.7315119999999999,-13.02,3.15,-15.2775
1581,163972,0.66246,-0.36966,-0.69784,-4.3225,3.605,-9.0825
1582,164069,0.650016,-0.38186,-0.684176,0.4725,3.3775,-4.5675
1583,164165,0.633668,-0.396988,-0.66856,3.885,2.45,-1.8375
1584,164261,0.636352,-0.39771999999999996,-0.6729520999999999,5.4075,2.2575,-0.8400001
1585,164357,0.6224441,-0.40992,-0.6675840000000001,6.5975,2.205,-0.28
1586,164454,0.616588,-0.42895200000000006,-0.6602640000000001,6.44,2.03,-1.26
1587,164550,0.6058520000000001,-0.44676400000000005,-0.629764,3.99,1.6275,-3.71
1588,164646,0.594384,-0.47506800000000005,-0.600484,-1.4175,0.35,-7.805
1589,164742,0.604144,-0.458232,-0.61488,-11.2175,-1.89,-13.86
1590,164839,0.6178081,-0.444568,-0.627812,-20.4575,-4.6025,-19.285
1591,164935,0.6178081,-0.43212399999999995,-0.647332,-26.2675,-6.125,-22.295
1592,165031,0.617564,-0.41284799999999994,-0.646844,-28.4375,-6.545,-24.1325
1593,165127,0.606584,-0.42114399999999996,-0.6502600000000001,-30.4675,-6.475,-25.6725
1594,165224,0.615124,-0.404796,-0.661484,-33.635,-5.4425,-27.825
1595,165320,0.64294,-0.371612,-0.6707561,-35.0525,-4.41,-29.2075
1596,165416,0.656116,-0.344528,-0.7044279999999999,-32.69,-3.6225,-28.1575
1597,165512,0.659776,-0.305244,-0.7256560000000001,-26.3725,-1.68,-24.2025
1598,165609,0.649528,-0.30378,-0.726876,-16.9225,-0.6125,-19.005
1599,165705,0.646112,-0.313296,-0.7139439999999999,-10.045,0.8225,-15.1375
1600,165801,0.627568,-0.311344,-0.715164,-4.34,2.2925,-12.4775
1601,165898,0.648796,-0.32866799999999996,-0.6980841,0.9625,3.4825,-10.92
1602,165994,0.633668,-0.324276,-0.691496,1.855,3.64,-10.3075
1603,166090,0.6405,-0.341844,-0.6851520999999999,3.5,3.9025,-10.08
1604,166186,0.6480640000000001,-0.363316,-0.671976,3.9375,3.4475,-11.0075
1605,166283,0.6451359999999999,-0.355752,-0.673196,4.095,3.71,-11.585
1606,166379,0.6405,-0.34867600000000004,-0.676612,4.13,3.9375,-11.83
1607,166475,0.6441600000000001,-0.345016,-0.6785640000000001,4.165,4.3575,-12.2325
1608,166571,0.6463561,-0.34281999999999996,-0.681736,4.235,5.285,-12.8275
1609,166668,0.6439159999999999,-0.327448,-0.694912,4.8825,6.02,-13.5275
1610,166764,0.643672,-0.327936,-0.703696,6.58,7.595,-13.755
1611,166860,0.63562,-0.327448,-0.6980841,9.1525,9.59,-14.0175
1612,166956,0.650016,-0.3294,-0.702232,10.92,12.0575,-14.6475
1613,167053,0.656848,-0.323788,-0.6883239999999999,13.3175,14.735,-14.7175
1614,167149,0.645868,-0.332084,-0.691008,14.49,17.5525,-14.6825
1615,167245,0.655628,-0.37332,-0.6673399999999999,14.805,21.3675,-15.4
1616,167342,0.6280560000000001,-0.339404,-0.6954,11.515,28.455,-17.0975
1617,167438,0.658068,-0.35038400000000003,-0.685884,10.8325,32.1825,-19.53
1618,167534,0.6600201,-0.355508,-0.684664,10.8675,37.9925,-21.3675
1619,167630,0.635376,-0.346968,-0.682956,13.1425,44.0125,-23.5375
1620,167727,0.635864,-0.334524,-0.708332,13.9825,49.665,-26.145
1621,167823,0.7232161,-0.35843600000000003,-0.6944241,14.8575,56.6825,-28.28
1622,167919,0.6958880000000001,-0.34892,-0.6734399999999999,17.045,65.43251,-30.2575
1623,168016,0.65758,-0.325008,-0.6993041,19.0575,73.885,-32.3225
1624,168112,0.693448,-0.331352,-0.697596,20.9825,82.32,-34.1425
1625,168208,0.6756361,-0.331352,-0.679784,22.1025,93.065,-36.505
1626,168304,0.665144,-0.34648,-0.663924,21.665,106.435,-40.2325
1627,168401,0.6834439999999999,-0.38795999999999997,-0.7044279999999999,21.07,123.5325,-45.2375
1628,168497,0.566812,-0.412116,-0.708088,22.365,149.1,-53.375
1629,168593,0.668316,-0.42187600000000003,-0.7056479999999999,20.51,172.41,-65.3275
1630,168689,0.707112,-0.36478,-0.7056479999999999,21.49,196.1225,-78.505
1631,168786,0.6993041,-0.38186,-0.7332201,29.26,227.185,-92.295
1632,168882,0.733464,-0.44847200000000004,-0.64172,40.1625,258.8775,-107.87
1633,168978,0.74664,-0.434564,-0.584868,44.8875,300.8075,-127.12
1634,169075,0.9352520000000001,-0.365268,-0.5897479999999999,51.94,344.82,-143.4475
1635,169171,1.096292,-0.46628400000000003,-0.729316,72.8525,379.6975,-147.0
1636,169267,1.4600959999999998,-0.49751599999999996,-0.639524,100.8875,398.4575,-141.6625
1637,169363,1.369816,-0.5785241,-0.566812,105.14,400.085,-148.3125
1638,169460,1.59332,-0.5919439999999999,-0.5119121,106.505,382.83,-160.6675
1639,169556,2.321416,-1.081164,-0.413092,110.67,354.2525,-154.875
1640,169652,2.01422,-0.5694961,-0.79056,153.055,351.6975,-76.8075
1641,169749,1.987136,-0.556076,-0.9084121,194.1275,308.14,-80.955
1642,169845,1.7694880000000002,-1.3827479999999999,-2.030812,241.395,247.1875,-107.0825
1643,169941,1.4818120000000001,-1.469856,-3.094896,239.1725,84.56,-131.1625
1644,170037,0.30134,-1.325896,-1.779004,171.3775,-187.25,-103.1275
1645,170134,-0.276696,-1.180472,-0.9167081,145.81,-281.89,-103.145
1646,170230,-0.1159,-1.4154440000000001,-0.544852,130.3575,-272.8775,-104.405
1647,170326,0.25058800000000003,-1.577948,-0.492148,103.7225,-250.425,-68.88
1648,170423,0.280844,-1.523292,-0.425048,60.69,-251.265,-12.705
1649,170519,0.306708,-1.21756,-0.44847200000000004,5.39,-250.285,31.675
1650,170615,0.43334399999999995,-0.8461921,-0.5489999999999999,-36.8375,-247.9225,57.8375
1651,170711,0.6036560999999999,-0.572912,-0.620004,-45.9025,-249.7075,79.1175
1652,170808,0.6722199999999999,-0.423096,-0.61732,-30.905,-261.1,97.93
1653,170904,0.671732,-0.287432,-0.583648,-11.725,-272.4225,107.94
1654,171000,0.7093081,-0.17543599999999998,-0.55632,6.2125,-277.3925,110.5475
1655,171096,0.768356,-0.12566,-0.534116,25.9,-277.3225,111.3875
1656,171193,0.849608,-0.158356,-0.484584,45.36,-275.03,112.91
1657,171289,0.8357,-0.190076,-0.39723200000000003,59.71,-270.1825,116.9525
1658,171385,0.8166680000000001,-0.1708,-0.36892800000000003,67.7775,-256.375,123.445
1659,171482,0.8820601,-0.138348,-0.42553599999999997,75.1625,-232.995,130.8825
1660,171578,0.9921040999999999,-0.150792,-0.5072760000000001,84.35,-209.9825,136.4125
1661,171674,0.9894200000000001,-0.182024,-0.538752,89.1275,-195.0375,137.2175
1662,171770,1.097024,-0.22106399999999998,-0.631228,90.00251,-180.425,133.8925
1663,171867,1.2841719999999999,-0.30988000000000004,-0.726876,95.13,-167.5975,135.835
1664,171963,1.341024,-0.40504,-0.7139439999999999,98.805,-163.1525,145.1275
1665,172059,1.407148,-0.42895200000000006,-0.733708,94.92,-158.9,153.44
1666,172156,1.482056,-0.377956,-0.735416,86.94,-156.7125,157.6925
1667,172252,1.50914,-0.309148,-0.690032,83.37001,-156.695,159.6
1668,172348,1.51158,-0.207156,-0.612684,83.4225,-154.945,157.6225
1669,172444,1.479372,-0.046848,-0.532652,85.47,-148.3125,151.5325
1670,172541,1.5279280000000002,0.091012,-0.547536,95.13,-135.8175,142.205
1671,172637,1.5828280000000001,0.22643200000000002,-0.658556,113.4875,-125.1775,134.89
1672,172733,1.73728,0.30475599999999997,-0.739808,134.1375,-119.84,128.0475
1673,172830,1.7943759999999997,0.332328,-0.659776,142.625,-129.115,110.425
1674,172926,1.808528,0.369172,-0.524356,138.9325,-143.885,85.295
1675,173022,1.7821759999999998,0.398696,-0.260592,132.2825,-156.9575,61.145
1676,173118,1.7802240000000003,0.40748,0.030256,125.4575,-157.6575,42.28
1677,173215,1.779004,0.452132,0.24790399999999999,116.6025,-147.0175,28.49
1678,173311,1.6738400000000002,0.44212799999999997,0.459208,102.4975,-129.7625,19.67
1679,173407,1.6513919999999997,0.558272,0.6902761,59.92,-96.5475,4.1825
1680,173504,1.702388,0.531188,0.8298440999999999,4.06,-49.735,-3.4475
1681,173600,1.7099520000000001,0.7156520000000001,1.030168,-72.345,3.3775,-12.705
1682,173696,1.616256,0.9613601,1.2439120000000001,-132.2825,67.655,-31.4125
1683,173792,0.23668000000000003,0.270596,-1.5018200000000002,-143.045,116.8475,-62.4225
1684,173889,0.12175599999999999,-0.39405999999999997,-2.2823759999999997,-63.805,133.1225,-87.85
1685,173985,1.204628,0.741028,-0.604632,-144.0775,126.3675,-164.9725
1686,174081,1.625772,-0.60268,-1.229272,-78.89,132.265,-152.95
1687,174178,1.8390279999999999,-0.713212,-0.9713639999999999,-91.9275,123.6025,-103.635
1688,174274,1.057008,-0.14347200000000002,-1.111908,-159.635,66.2025,-122.71
1689,174370,0.897432,-0.252784,-0.893284,-108.6925,52.6225,-107.3975
1690,174466,1.0004,-0.371856,-0.8054439999999999,-103.32,34.2825,-89.72251
1691,174563,1.0086959999999998,-0.34281999999999996,-0.7761640999999999,-89.0225,19.9675,-76.5275
1692,174659,0.868152,-0.319396,-0.8076399999999999,-74.13,7.0,-62.6675
1693,174755,0.868396,-0.315736,-0.7820199999999999,-60.2175,2.2225,-50.9425
1694,174852,0.772504,-0.27938,-0.7766521,-44.065,-1.365,-38.535
1695,174948,0.7139439999999999,-0.35136,-0.711992,-30.73,-1.995,-28.6475
1696,175044,0.719312,-0.33013200000000004,-0.7168720000000001,-23.8875,-1.4875,-22.6625
1697,175140,0.6954,-0.30988000000000004,-0.7034521,-18.445,-1.1025,-18.13
1698,175237,0.667096,-0.30866,-0.7095520000000001,-12.9325,-0.945,-13.4575
1699,175333,0.664168,-0.33184,-0.698816,-7.245,-0.7875,-9.625
1700,175429,0.6588,-0.3599,-0.6785640000000001,-3.78,-0.8400001,-7.35
1701,175526,0.6541640000000001,-0.344528,-0.679296,-2.9575,-0.56,-6.265
1702,175622,0.654652,-0.34892,-0.6810039999999999,-1.82,-0.315,-4.9175
1703,175718,0.653188,-0.355996,-0.679784,-0.42,-0.035,-3.7625
1704,175814,0.64172,-0.354532,-0.6802720999999999,0.945,0.4025,-3.2725
1705,175911,0.642696,-0.35843600000000003,-0.676612,1.68,0.665,-3.3425
1706,176007,0.6405,-0.355508,-0.671732,1.96,0.9975,-3.43
1707,176103,0.641232,-0.35868,-0.6646561,1.715,1.2075,-4.095
1708,176199,0.6470880999999999,-0.35477600000000004,-0.6661201,1.12,1.1725,-4.515
1709,176296,0.650992,-0.357948,-0.662216,1.12,0.6125,-4.8125
1710,176392,0.648308,-0.361852,-0.6649,1.1375,-0.175,-5.215
1711,176488,0.652456,-0.349408,-0.671488,1.085,-0.4375,-5.7925
1712,176585,0.65514,-0.35672800000000005,-0.669048,1.6625,-0.42,-5.88
1713,176681,0.652456,-0.345992,-0.672708,1.855,-0.1925,-5.915
1714,176777,0.6539201,-0.343308,-0.6709999999999999,2.345,-0.28,-5.7225
1715,176873,0.651968,-0.34428400000000003,-0.673196,2.52,0.4025,-5.4775
1716,176970,0.653188,-0.34257600000000005,-0.6729520999999999,3.15,0.5075,-5.355
1717,177066,0.6514800000000001,-0.34867600000000004,-0.6724640000000001,3.64,1.05,-5.495
1718,177162,0.6541640000000001,-0.35014,-0.6649,4.2875,1.7325,-5.355
1719,177259,0.649284,-0.353556,-0.669292,4.4625,2.625,-5.4425
1720,177355,0.6558721,-0.357704,-0.659776,4.865,3.395,-5.7225
1721,177451,0.652944,-0.349408,-0.664412,4.725,4.13,-6.3
1722,177547,0.6527,-0.370392,-0.646844,5.2675,4.515,-6.5625
1723,177644,0.6539201,-0.354044,-0.6661201,4.7775,5.32,-7.56
1724,177740,0.653676,-0.369172,-0.6497721,5.1275,5.95,-8.4525
1725,177836,0.6505041,-0.366,-0.65758,4.5325,7.2975,-9.555
